,timestamp,accel_x,accel_y,accel_z,gyro_x,gyro_y,gyro_z
0,1727892969417,-0.97509766,-0.035217285,-0.3262329,0.171875,-1.546875,0.34375
1,1727892969457,-0.96655273,-0.039367676,-0.32208252,1.1875,-0.53125,0.203125
2,1727892969497,-0.9746094,-0.03643799,-0.3267212,0.765625,-0.328125,0.09375
3,1727892969537,-0.9638672,-0.04498291,-0.3196411,1.5625,0.0625,0.546875
4,1727892969577,-0.9577637,-0.032043457,-0.30792236,1.625,0.1875,-0.140625
5,1727892969617,-0.95092773,-0.039855957,-0.30914307,1.859375,-0.34375,0.0625
6,1727892969657,-0.9489746,-0.03668213,-0.3118286,1.578125,-0.65625,-0.390625
7,1727892969697,-0.97631836,-0.026672363,-0.3213501,0.8125,-0.875,-0.09375
8,1727892969737,-0.95874023,-0.03326416,-0.31011963,1.4375,-0.453125,0.046875
9,1727892969777,-0.9658203,-0.029846191,-0.31402588,0.75,-0.5,-0.03125
10,1727892969817,-0.97094727,-0.04058838,-0.31158447,1.59375,-0.34375,0.46875
11,1727892969857,-0.96533203,-0.043518066,-0.3196411,1.609375,-0.9375,0.21875
12,1727892969897,-0.954834,-0.038391113,-0.31451416,0.84375,-0.828125,-0.453125
13,1727892969937,-0.9484863,-0.036193848,-0.31939697,1.03125,-0.328125,-0.3125
14,1727892969977,-0.96777344,-0.035949707,-0.30059814,1.53125,-0.5,0.09375
15,1727892970017,-0.9589844,-0.034240723,-0.32281494,2.15625,-1.015625,-0.203125
16,1727892970057,-0.97094727,-0.026428223,-0.30963135,1.875,-0.46875,-0.59375
17,1727892970097,-0.9719238,-0.024230957,-0.32232666,1.71875,-0.984375,-0.375
18,1727892970137,-0.9667969,-0.030090332,-0.3184204,1.671875,0.03125,-0.21875
19,1727892970177,-0.9707031,-0.036193848,-0.3171997,1.953125,-0.171875,0.296875
20,1727892970217,-0.951416,-0.0335083,-0.31011963,1.5,0.0,-0.234375
21,1727892970257,-0.96362305,-0.038146973,-0.3135376,1.734375,-0.421875,-0.109375
22,1727892970297,-0.9572754,-0.026184082,-0.3040161,2.65625,-0.28125,-0.125
23,1727892970337,-0.9519043,-0.03326416,-0.3189087,1.59375,-1.1875,-0.4375
24,1727892970377,-0.9733887,-0.018615723,-0.31256104,1.5625,-1.0,-0.5625
25,1727892970417,-0.9597168,-0.028137207,-0.31549072,1.3125,-1.046875,-0.765625
26,1727892970457,-0.96533203,-0.02178955,-0.31378174,1.578125,-0.890625,0.015625
27,1727892970497,-0.9641113,-0.0256958,-0.32208252,2.53125,-0.9375,0.4375
28,1727892970537,-0.9604492,-0.02911377,-0.32965088,1.15625,-0.703125,-0.125
29,1727892970577,-0.9589844,-0.020324707,-0.31573486,0.71875,-0.03125,-0.28125
30,1727892970617,-0.9626465,-0.03253174,-0.31085205,1.484375,-0.09375,0.296875
31,1727892970657,-0.96313477,-0.027648926,-0.315979,0.734375,-1.53125,-0.421875
32,1727892970697,-0.96069336,-0.022033691,-0.3164673,0.90625,-1.234375,-0.5625
33,1727892970737,-0.9567871,-0.021057129,-0.32354736,0.703125,-1.046875,-0.46875
34,1727892970777,-0.95825195,-0.01739502,-0.32403564,0.453125,-0.328125,-0.1875
35,1727892970817,-0.9628906,-0.026916504,-0.32354736,1.15625,-0.4375,0.078125
36,1727892970857,-0.96191406,-0.016662598,-0.317688,0.359375,-0.359375,0.0
37,1727892970897,-0.9562988,-0.028137207,-0.31817627,0.921875,-1.078125,0.421875
38,1727892970937,-0.96240234,-0.021057129,-0.31524658,1.15625,-1.0,0.109375
39,1727892970977,-0.96069336,-0.026672363,-0.31939697,1.046875,-1.0,0.125
40,1727892971017,-0.9597168,-0.028869629,-0.32086182,1.21875,-0.375,0.03125
41,1727892971057,-0.9621582,-0.020080566,-0.31793213,1.0625,-0.4375,0.1875
42,1727892971097,-0.95996094,-0.018127441,-0.31671143,1.15625,-0.71875,0.265625
43,1727892971137,-0.97094727,-0.01739502,-0.31866455,0.625,-1.296875,0.5
44,1727892971177,-0.95410156,-0.024963379,-0.32818604,-0.125,-2.203125,0.453125
45,1727892971217,-0.97094727,-0.030578613,-0.3237915,-0.3125,-2.265625,1.015625
46,1727892971257,-0.951416,-0.03643799,-0.3147583,0.515625,-1.96875,0.859375
47,1727892971297,-0.96069336,-0.03668213,-0.3345337,0.40625,-3.171875,0.625
48,1727892971337,-0.9555664,-0.03326416,-0.33917236,0.125,-1.90625,0.21875
49,1727892971377,-0.9633789,-0.02960205,-0.3369751,0.3125,-0.53125,0.296875
50,1727892971417,-0.96118164,-0.030334473,-0.33551025,0.953125,0.5625,0.484375
51,1727892971457,-0.9572754,-0.039611816,-0.33673096,1.296875,0.359375,0.75
52,1727892971497,-0.95825195,-0.023986816,-0.331604,0.71875,0.109375,0.25
53,1727892971537,-0.9572754,-0.0335083,-0.32598877,1.828125,0.734375,0.640625
54,1727892971577,-0.95336914,-0.035461426,-0.3242798,0.984375,0.15625,0.828125
55,1727892971617,-0.94628906,-0.050109863,-0.3213501,1.046875,-0.390625,1.125
56,1727892971657,-0.96435547,-0.03253174,-0.31549072,0.171875,-0.921875,-0.203125
57,1727892971697,-0.9641113,-0.023986816,-0.3255005,1.875,0.265625,0.203125
58,1727892971737,-0.9597168,-0.025939941,-0.3328247,1.875,0.8125,1.0625
59,1727892971777,-0.9499512,-0.038391113,-0.32354736,2.078125,1.640625,1.375
60,1727892971817,-0.951416,-0.0491333,-0.3262329,0.515625,0.703125,0.75
61,1727892971857,-0.9621582,-0.04888916,-0.31256104,0.453125,0.21875,0.125
62,1727892971897,-0.96484375,-0.03765869,-0.31207275,0.8125,0.25,0.25
63,1727892971937,-0.9577637,-0.04425049,-0.32086182,1.6875,-0.84375,0.34375
64,1727892971977,-0.96435547,-0.03692627,-0.32403564,1.234375,0.21875,-0.0625
65,1727892972017,-0.9584961,-0.037902832,-0.31622314,1.078125,-0.03125,-0.078125
66,1727892972057,-0.9753418,-0.04083252,-0.31549072,0.671875,-0.140625,0.15625
67,1727892972097,-0.9597168,-0.047180176,-0.315979,1.296875,-0.375,0.359375
68,1727892972137,-0.9650879,-0.037902832,-0.3237915,0.9375,0.09375,0.015625
69,1727892972177,-0.9604492,-0.036193848,-0.31378174,2.4375,0.265625,0.640625
70,1727892972217,-0.96069336,-0.04498291,-0.31793213,0.984375,0.875,0.28125
71,1727892972257,-0.9616699,-0.0491333,-0.30621338,0.5625,-0.03125,0.25
72,1727892972297,-0.9663086,-0.042785645,-0.30474854,0.453125,-0.765625,-0.25
73,1727892972337,-0.96655273,-0.03643799,-0.31158447,0.984375,-1.640625,-0.671875
74,1727892972377,-0.9680176,-0.024230957,-0.31988525,1.78125,-1.734375,0.0
75,1727892972417,-0.96362305,-0.050109863,-0.3189087,1.78125,-0.453125,1.46875
76,1727892972457,-0.954834,-0.05718994,-0.31500244,-0.078125,0.375,0.359375
77,1727892972497,-0.97631836,-0.042297363,-0.31280518,0.140625,0.328125,-0.6875
78,1727892972537,-0.9614258,-0.039123535,-0.30743408,1.765625,0.359375,-0.171875
79,1727892972577,-0.96118164,-0.05303955,-0.31304932,2.21875,-1.21875,0.078125
80,1727892972617,-0.9572754,-0.039611816,-0.31671143,1.21875,-1.484375,-0.53125
81,1727892972657,-0.9645996,-0.033996582,-0.3201294,1.296875,-1.15625,-0.359375
82,1727892972697,-0.9604492,-0.04058838,-0.32110596,2.0625,0.671875,-0.15625
83,1727892972737,-0.9707031,-0.042053223,-0.31695557,1.96875,1.40625,-0.28125
84,1727892972777,-0.9682617,-0.02960205,-0.317688,1.734375,0.90625,-0.0625
85,1727892972817,-0.97094727,-0.04107666,-0.30230713,2.703125,0.578125,0.296875
86,1727892972857,-0.96069336,-0.043273926,-0.30596924,2.640625,0.40625,0.03125
87,1727892972897,-0.9604492,-0.039123535,-0.30108643,2.5625,-0.25,-0.3125
88,1727892972937,-0.96533203,-0.034240723,-0.30767822,2.078125,-0.71875,-0.359375
89,1727892972977,-0.9584961,-0.039855957,-0.3164673,1.84375,-0.53125,-0.390625
90,1727892973017,-0.96728516,-0.031555176,-0.29888916,1.40625,-0.46875,-0.78125
91,1727892973057,-0.96606445,-0.038635254,-0.30792236,2.5625,-0.890625,-0.453125
92,1727892973097,-0.9663086,-0.037902832,-0.31402588,2.109375,-1.140625,-0.359375
93,1727892973137,-0.9633789,-0.023254395,-0.30303955,0.578125,-0.296875,-0.8125
94,1727892973177,-0.9707031,-0.020568848,-0.3032837,1.0,-0.609375,-0.359375
95,1727892973217,-0.9592285,-0.038146973,-0.30670166,2.96875,-0.796875,0.6875
96,1727892973257,-0.95336914,-0.031799316,-0.31256104,0.90625,-1.015625,-1.234375
97,1727892973297,-0.9782715,-0.026184082,-0.30767822,0.828125,-1.078125,-0.90625
98,1727892973337,-0.9572754,-0.024719238,-0.31524658,0.359375,-1.15625,-0.609375
99,1727892973377,-0.9638672,-0.02520752,-0.31011963,1.875,-0.40625,-0.203125
100,1727892973417,-0.95874023,-0.027648926,-0.3147583,1.171875,0.1875,-0.828125
101,1727892973457,-0.97998047,-0.015686035,-0.31329346,1.703125,0.015625,-0.078125
102,1727892973497,-0.9658203,-0.023010254,-0.31427002,1.953125,-0.359375,0.03125
103,1727892973537,-0.95996094,-0.02520752,-0.3118286,1.546875,-0.78125,0.046875
104,1727892973577,-0.9621582,-0.018615723,-0.3135376,0.4375,-1.484375,-0.171875
105,1727892973617,-0.96728516,-0.023010254,-0.3118286,0.375,-1.109375,0.25
106,1727892973657,-0.9682617,-0.020080566,-0.31500244,0.4375,-0.78125,-0.03125
107,1727892973697,-0.9621582,-0.027160645,-0.31671143,0.921875,-1.03125,0.03125
108,1727892973737,-0.96899414,-0.029846191,-0.32598877,0.1875,-1.234375,-0.25
109,1727892973777,-0.9663086,-0.019592285,-0.30645752,0.90625,-0.03125,-0.15625
110,1727892973817,-0.96362305,-0.022766113,-0.31085205,0.3125,-0.203125,0.203125
111,1727892973857,-0.95996094,-0.031311035,-0.31451416,1.28125,-1.484375,0.265625
112,1727892973897,-0.9638672,-0.024230957,-0.31451416,0.703125,-1.015625,-0.375
113,1727892973937,-0.97631836,-0.013977051,-0.31622314,1.046875,0.3125,0.203125
114,1727892973977,-0.9736328,-0.02130127,-0.3189087,1.078125,0.015625,0.53125
115,1727892974017,-0.95825195,-0.023986816,-0.31036377,1.875,0.28125,1.234375
116,1727892974057,-0.9511719,-0.030334473,-0.31939697,0.875,-0.1875,1.078125
117,1727892974097,-0.9675293,-0.026428223,-0.3045044,0.5,-0.359375,0.90625
118,1727892974137,-0.9616699,-0.038879395,-0.31256104,0.609375,-0.6875,0.671875
119,1727892974177,-0.9692383,-0.038635254,-0.3110962,1.125,-0.578125,0.296875
120,1727892974217,-0.9633789,-0.0256958,-0.3118286,0.609375,-0.171875,-0.296875
121,1727892974257,-0.967041,-0.028137207,-0.31036377,0.671875,-0.4375,0.0625
122,1727892974297,-0.96118164,-0.030334473,-0.315979,0.671875,-0.671875,0.0625
123,1727892974337,-0.9729004,-0.022277832,-0.3069458,0.734375,-0.6875,0.15625
124,1727892974377,-0.95825195,-0.039611816,-0.32232666,0.296875,-1.046875,0.453125
125,1727892974417,-0.96069336,-0.02154541,-0.30792236,1.015625,-0.03125,0.71875
126,1727892974457,-0.9580078,-0.028625488,-0.3110962,0.375,0.671875,1.046875
127,1727892974497,-0.9604492,-0.035461426,-0.31427002,0.609375,-0.8125,1.0625
128,1727892974537,-0.9641113,-0.036193848,-0.3045044,0.4375,0.046875,0.71875
129,1727892974577,-0.9694824,-0.036193848,-0.31524658,-0.140625,-0.671875,-0.09375
130,1727892974617,-0.96606445,-0.03253174,-0.3093872,0.078125,-0.4375,0.09375
131,1727892974657,-0.96240234,-0.035461426,-0.31622314,1.140625,0.078125,0.203125
132,1727892974697,-0.9616699,-0.038879395,-0.30474854,0.9375,0.375,0.171875
133,1727892974737,-0.96728516,-0.034484863,-0.30352783,1.578125,0.84375,0.046875
134,1727892974777,-0.97314453,-0.035461426,-0.3081665,0.953125,-0.703125,0.6875
135,1727892974817,-0.9616699,-0.042297363,-0.3008423,1.3125,-0.71875,1.25
136,1727892974857,-0.96533203,-0.04083252,-0.3135376,0.421875,-0.375,0.34375
137,1727892974897,-0.96728516,-0.038391113,-0.3123169,0.734375,-0.859375,0.484375
138,1727892974937,-0.96533203,-0.03692627,-0.30767822,0.515625,-0.46875,-0.015625
139,1727892974977,-0.9760742,-0.043029785,-0.3086548,1.1875,-0.578125,0.359375
140,1727892975017,-0.9650879,-0.042053223,-0.30767822,1.15625,-0.921875,-0.140625
141,1727892975057,-0.9741211,-0.03277588,-0.30621338,0.09375,-0.59375,-0.421875
142,1727892975097,-0.95288086,-0.047180176,-0.3081665,0.390625,-1.140625,0.09375
143,1727892975137,-0.9733887,-0.043518066,-0.30352783,0.25,-0.84375,0.234375
144,1727892975177,-0.95410156,-0.050354004,-0.31573486,1.21875,-1.65625,0.234375
145,1727892975217,-0.97216797,-0.04156494,-0.3267212,0.765625,-0.953125,-0.234375
146,1727892975257,-0.9645996,-0.04522705,-0.31622314,1.625,-0.8125,0.15625
147,1727892975297,-0.9716797,-0.044006348,-0.31329346,0.53125,-0.3125,-0.015625
148,1727892975337,-0.9626465,-0.047668457,-0.31793213,0.96875,0.09375,0.265625
149,1727892975377,-0.9626465,-0.043762207,-0.30548096,1.15625,0.234375,-0.03125
150,1727892975417,-0.9663086,-0.04815674,-0.31671143,1.0,-0.484375,0.09375
151,1727892975457,-0.9621582,-0.04425049,-0.30963135,1.53125,-0.578125,0.125
152,1727892975497,-0.96655273,-0.04034424,-0.31573486,1.375,-0.703125,-0.28125
153,1727892975537,-0.9667969,-0.043029785,-0.30499268,1.890625,-0.40625,-0.078125
154,1727892975577,-0.9604492,-0.043518066,-0.30914307,1.984375,-0.390625,-0.234375
155,1727892975617,-0.970459,-0.038879395,-0.31256104,2.0625,-0.53125,-0.21875
156,1727892975657,-0.97314453,-0.042297363,-0.31500244,2.328125,-0.78125,-0.09375
157,1727892975697,-0.967041,-0.039123535,-0.30914307,1.9375,-1.375,-0.1875
158,1727892975737,-0.9589844,-0.041809082,-0.30914307,1.234375,-1.4375,-0.0625
159,1727892975777,-0.95581055,-0.02960205,-0.30889893,-0.140625,-2.140625,-0.296875
160,1727892975817,-0.96484375,-0.04498291,-0.31817627,1.109375,-1.96875,0.453125
161,1727892975857,-0.95458984,-0.043518066,-0.32110596,1.65625,-1.46875,-0.296875
162,1727892975897,-0.96655273,-0.04425049,-0.32965088,0.828125,-1.4375,-0.6875
163,1727892975937,-0.9626465,-0.034484863,-0.32574463,1.046875,-1.078125,-0.609375
164,1727892975977,-0.9655762,-0.040100098,-0.32720947,1.3125,-0.03125,-0.609375
165,1727892976017,-0.96655273,-0.0335083,-0.32305908,1.421875,-0.90625,-0.21875
166,1727892976057,-0.9494629,-0.033996582,-0.31378174,1.234375,-0.53125,-0.46875
167,1727892976097,-0.96118164,-0.033996582,-0.3255005,0.640625,-0.875,-0.4375
168,1727892976137,-0.95214844,-0.034973145,-0.31524658,1.28125,-0.015625,0.078125
169,1727892976177,-0.9597168,-0.03741455,-0.32403564,0.71875,-0.203125,-0.359375
170,1727892976217,-0.9572754,-0.031066895,-0.31988525,0.765625,-0.421875,-0.34375
171,1727892976257,-0.96118164,-0.038635254,-0.31988525,0.765625,-0.5,-0.3125
172,1727892976297,-0.95581055,-0.0335083,-0.32476807,0.9375,-0.28125,-0.140625
173,1727892976337,-0.95825195,-0.029846191,-0.32110596,1.546875,-0.5625,0.125
174,1727892976377,-0.9592285,-0.035461426,-0.317688,0.890625,-0.890625,-0.203125
175,1727892976417,-0.9560547,-0.031066895,-0.31695557,0.0,-0.265625,-0.265625
176,1727892976457,-0.9580078,-0.03277588,-0.3171997,0.109375,0.09375,-0.140625
177,1727892976497,-0.9580078,-0.039611816,-0.32061768,1.5,-1.25,0.1875
178,1727892976537,-0.9641113,-0.033996582,-0.32647705,0.828125,-0.90625,-0.578125
179,1727892976577,-0.9589844,-0.026428223,-0.3201294,1.0,-0.75,-0.09375
180,1727892976617,-0.9602051,-0.032043457,-0.32598877,0.625,-0.609375,0.109375
181,1727892976657,-0.9604492,-0.02935791,-0.31402588,0.890625,-0.671875,0.296875
182,1727892976697,-0.95458984,-0.038391113,-0.32769775,0.5625,-1.15625,0.375
183,1727892976737,-0.9638672,-0.028381348,-0.31500244,0.78125,-0.21875,0.265625
184,1727892976777,-0.9572754,-0.04058838,-0.32818604,0.703125,-0.734375,0.25
185,1727892976817,-0.95825195,-0.035949707,-0.32183838,1.203125,-0.640625,0.34375
186,1727892976857,-0.9577637,-0.040100098,-0.33184814,1.0,-0.84375,-0.0625
187,1727892976897,-0.96191406,-0.031555176,-0.3250122,0.4375,0.03125,-0.078125
188,1727892976937,-0.9538574,-0.035949707,-0.315979,0.46875,0.765625,0.390625
189,1727892976977,-0.9707031,-0.042541504,-0.3189087,0.953125,0.484375,0.34375
190,1727892977017,-0.9604492,-0.034973145,-0.31402588,1.625,0.78125,0.59375
191,1727892977057,-0.96240234,-0.04449463,-0.31695557,1.4375,0.328125,0.40625
192,1727892977097,-0.95874023,-0.037902832,-0.31988525,0.4375,0.40625,0.1875
193,1727892977137,-0.9597168,-0.043762207,-0.32281494,0.421875,0.375,0.328125
194,1727892977177,-0.96484375,-0.0335083,-0.30010986,0.125,1.265625,0.421875
195,1727892977217,-0.9655762,-0.043762207,-0.317688,1.203125,-0.5625,1.0
196,1727892977257,-0.9645996,-0.042541504,-0.3110962,1.46875,-0.546875,0.25
197,1727892977297,-0.96435547,-0.043029785,-0.31378174,1.171875,-0.359375,0.109375
198,1727892977337,-0.96191406,-0.04449463,-0.30963135,0.609375,-0.46875,0.3125
199,1727892977377,-0.9658203,-0.047668457,-0.3081665,0.921875,-0.234375,0.90625
200,1727892977417,-0.9567871,-0.04449463,-0.31134033,0.0625,-0.234375,0.359375
201,1727892977457,-0.9609375,-0.042297363,-0.31304932,1.28125,-0.546875,0.578125
202,1727892977497,-0.9604492,-0.04840088,-0.31085205,1.015625,-0.578125,0.34375
203,1727892977537,-0.96606445,-0.049621582,-0.31134033,1.1875,-0.75,0.203125
204,1727892977577,-0.9641113,-0.05328369,-0.315979,1.109375,-0.203125,0.171875
205,1727892977617,-0.96875,-0.04815674,-0.3118286,0.96875,0.015625,-0.09375
206,1727892977657,-0.9604492,-0.04815674,-0.30841064,1.140625,-0.046875,0.0
207,1727892977697,-0.9614258,-0.04107666,-0.31451416,0.921875,-0.546875,0.0
208,1727892977737,-0.9716797,-0.042541504,-0.3118286,1.265625,-0.453125,0.328125
209,1727892977777,-0.9626465,-0.05230713,-0.30743408,1.5625,-0.46875,0.359375
210,1727892977817,-0.95996094,-0.042785645,-0.30841064,0.5625,0.265625,-0.265625
211,1727892977857,-0.9589844,-0.04156494,-0.3135376,0.765625,-0.171875,0.296875
212,1727892977897,-0.967041,-0.04473877,-0.29888916,0.859375,-0.25,0.34375
213,1727892977937,-0.96655273,-0.050354004,-0.30548096,1.296875,-1.328125,0.28125
214,1727892977977,-0.9597168,-0.04547119,-0.31085205,1.265625,-0.53125,-0.375
215,1727892978017,-0.96728516,-0.04473877,-0.30914307,1.359375,-0.859375,-0.078125
216,1727892978057,-0.95825195,-0.051330566,-0.31280518,0.96875,-0.40625,0.15625
217,1727892978097,-0.96191406,-0.051818848,-0.3086548,1.453125,-0.390625,0.125
218,1727892978137,-0.9694824,-0.03692627,-0.30963135,1.125,-0.515625,-0.109375
219,1727892978177,-0.96435547,-0.050354004,-0.3118286,1.75,-0.328125,0.078125
220,1727892978217,-0.96240234,-0.045715332,-0.30767822,2.109375,-0.734375,0.015625
221,1727892978257,-0.9699707,-0.041809082,-0.31500244,2.078125,-0.96875,0.078125
222,1727892978297,-0.95996094,-0.043518066,-0.30718994,1.90625,-0.78125,-0.34375
223,1727892978337,-0.9663086,-0.04473877,-0.31549072,2.015625,-0.65625,-0.09375
224,1727892978377,-0.9655762,-0.044006348,-0.30670166,1.765625,-0.984375,-0.46875
225,1727892978417,-0.96191406,-0.035461426,-0.32208252,1.515625,-1.90625,-0.046875
226,1727892978457,-0.9658203,-0.046203613,-0.31329346,4.375,0.265625,0.125
227,1727892978497,-0.97021484,-0.04888916,-0.32159424,3.28125,-0.203125,-0.6875
228,1727892978537,-0.9519043,-0.042785645,-0.31304932,1.71875,-0.40625,-1.078125
229,1727892978577,-0.96728516,-0.0335083,-0.31011963,0.5625,-0.140625,-1.0
230,1727892978617,-0.96362305,-0.036193848,-0.30181885,1.125,-0.375,-0.15625
231,1727892978657,-0.96435547,-0.046203613,-0.31280518,1.046875,-1.25,-0.28125
232,1727892978697,-0.96069336,-0.0256958,-0.3171997,0.640625,-0.625,-1.421875
233,1727892978737,-0.967041,-0.031311035,-0.31451416,0.859375,-0.359375,-0.8125
234,1727892978777,-0.96972656,-0.031066895,-0.31817627,0.46875,-1.0625,-0.671875
235,1727892978817,-0.96777344,-0.02960205,-0.3123169,0.84375,-1.078125,-0.296875
236,1727892978857,-0.95996094,-0.022277832,-0.31793213,-0.015625,-1.421875,-0.421875
237,1727892978897,-0.96606445,-0.029846191,-0.32183838,0.28125,-1.28125,0.015625
238,1727892978937,-0.96313477,-0.02935791,-0.30914307,0.1875,-1.09375,0.171875
239,1727892978977,-0.9567871,-0.03643799,-0.3196411,0.75,-1.0625,-0.1875
240,1727892979017,-0.96606445,-0.030090332,-0.3237915,0.265625,-0.71875,-0.1875
241,1727892979057,-0.9621582,-0.035949707,-0.3201294,0.203125,-0.546875,-0.28125
242,1727892979097,-0.96533203,-0.035705566,-0.31549072,0.390625,-0.3125,0.203125
243,1727892979137,-0.9572754,-0.035705566,-0.3189087,0.4375,-0.5,-0.09375
244,1727892979177,-0.96655273,-0.027648926,-0.3123169,0.953125,-0.46875,0.09375
245,1727892979217,-0.96362305,-0.031311035,-0.31695557,0.8125,-0.984375,0.296875
246,1727892979257,-0.9560547,-0.03326416,-0.32208252,-0.296875,-0.609375,0.0
247,1727892979297,-0.9592285,-0.035705566,-0.3147583,0.734375,-0.46875,0.359375
248,1727892979337,-0.9645996,-0.03668213,-0.3147583,0.765625,-0.5625,0.296875
249,1727892979377,-0.9567871,-0.035949707,-0.3189087,1.203125,-1.3125,-0.203125
250,1727892979417,-0.9645996,-0.03253174,-0.32330322,0.921875,-0.609375,-0.375
251,1727892979457,-0.96484375,-0.03277588,-0.317688,1.0,-0.78125,0.125
252,1727892979497,-0.95825195,-0.035461426,-0.3242798,0.65625,-0.296875,0.171875
253,1727892979537,-0.9616699,-0.034973145,-0.31915283,1.125,-0.28125,0.390625
254,1727892979577,-0.9602051,-0.03277588,-0.32232666,0.96875,-0.109375,0.265625
255,1727892979617,-0.96435547,-0.03692627,-0.32720947,1.125,-0.5,0.28125
256,1727892979657,-0.9555664,-0.033996582,-0.3123169,1.21875,-0.53125,0.40625
257,1727892979697,-0.95825195,-0.03717041,-0.32037354,0.96875,-1.0,0.015625
258,1727892979737,-0.9650879,-0.035461426,-0.3255005,1.203125,-0.765625,-0.078125
259,1727892979777,-0.96240234,-0.035217285,-0.32208252,0.765625,-0.71875,0.046875
260,1727892979817,-0.9572754,-0.027893066,-0.31402588,0.828125,-0.65625,0.1875
261,1727892979857,-0.9645996,-0.034484863,-0.3196411,0.875,-0.65625,0.40625
262,1727892979897,-0.9592285,-0.035705566,-0.3242798,1.109375,-0.65625,0.453125
263,1727892979937,-0.954834,-0.03741455,-0.32061768,1.046875,-0.265625,0.34375
264,1727892979977,-0.95654297,-0.032287598,-0.31524658,0.875,1.046875,-0.125
265,1727892980017,-0.95410156,-0.03765869,-0.31427002,1.015625,0.859375,0.21875
266,1727892980057,-0.9692383,-0.04815674,-0.32086182,2.0625,0.28125,0.609375
267,1727892980097,-0.9597168,-0.0413208,-0.32086182,1.390625,0.03125,-0.328125
268,1727892980137,-0.9641113,-0.033996582,-0.3171997,1.0625,0.015625,0.15625
269,1727892980177,-0.9550781,-0.031799316,-0.31451416,1.140625,-0.125,0.140625
270,1727892980217,-0.9663086,-0.035949707,-0.31793213,0.8125,0.21875,0.453125
271,1727892980257,-0.95458984,-0.040100098,-0.31280518,1.078125,0.109375,0.671875
272,1727892980297,-0.9692383,-0.034240723,-0.30645752,0.71875,0.09375,0.296875
273,1727892980337,-0.96313477,-0.04156494,-0.31011963,1.25,-0.671875,0.53125
274,1727892980377,-0.9616699,-0.03717041,-0.31085205,0.734375,-0.640625,0.078125
275,1727892980417,-0.9658203,-0.035949707,-0.3135376,1.21875,-0.578125,0.328125
276,1727892980457,-0.9621582,-0.037902832,-0.31695557,1.125,0.265625,-0.03125
277,1727892980497,-0.9663086,-0.034973145,-0.30963135,0.9375,0.25,0.140625
278,1727892980537,-0.96240234,-0.04034424,-0.31427002,1.046875,-0.015625,0.171875
279,1727892980577,-0.9680176,-0.039367676,-0.30889893,0.84375,0.0625,0.171875
280,1727892980617,-0.96533203,-0.039855957,-0.30059814,1.609375,-0.3125,0.34375
281,1727892980657,-0.9633789,-0.04034424,-0.30767822,1.03125,-0.453125,0.03125
282,1727892980697,-0.9680176,-0.03643799,-0.31011963,0.90625,0.21875,0.109375
283,1727892980737,-0.95581055,-0.042297363,-0.31158447,0.296875,0.0625,0.25
284,1727892980777,-0.9645996,-0.039611816,-0.30255127,0.734375,0.03125,0.484375
285,1727892980817,-0.96069336,-0.049865723,-0.31011963,1.4375,-0.15625,0.296875
286,1727892980857,-0.97094727,-0.039855957,-0.30963135,1.125,-0.25,-0.21875
287,1727892980897,-0.9699707,-0.043029785,-0.30914307,0.859375,-0.265625,0.046875
288,1727892980937,-0.96655273,-0.042785645,-0.3045044,0.671875,0.015625,0.234375
289,1727892980977,-0.96240234,-0.04449463,-0.3110962,0.921875,-0.171875,0.390625
290,1727892981017,-0.95825195,-0.043518066,-0.30181885,0.8125,-0.796875,0.203125
291,1727892981057,-0.9655762,-0.042297363,-0.30841064,0.703125,-1.140625,0.21875
292,1727892981097,-0.9667969,-0.047668457,-0.3015747,1.03125,-0.828125,0.328125
293,1727892981137,-0.9680176,-0.043762207,-0.3135376,1.03125,-0.75,0.046875
294,1727892981177,-0.9699707,-0.04449463,-0.30963135,0.890625,-0.453125,0.078125
295,1727892981217,-0.9589844,-0.046936035,-0.30621338,1.265625,-0.046875,-0.125
296,1727892981257,-0.9658203,-0.046447754,-0.302063,0.828125,-0.515625,-0.125
297,1727892981297,-0.9724121,-0.039123535,-0.30670166,0.875,-0.25,0.28125
298,1727892981337,-0.9694824,-0.0413208,-0.3057251,1.125,-0.265625,0.453125
299,1727892981377,-0.96362305,-0.04498291,-0.30133057,1.296875,-0.40625,0.359375
300,1727892981417,-0.96191406,-0.043273926,-0.30596924,0.46875,-0.140625,-0.203125
301,1727892981457,-0.9584961,-0.045959473,-0.3057251,0.53125,-0.484375,0.09375
302,1727892981497,-0.9658203,-0.046936035,-0.3008423,1.1875,-0.34375,0.375
303,1727892981537,-0.96118164,-0.04815674,-0.29571533,1.8125,-0.75,-0.125
304,1727892981577,-0.97265625,-0.039611816,-0.30670166,1.375,-0.5625,-0.578125
305,1727892981617,-0.96435547,-0.0413208,-0.3015747,1.546875,-0.921875,0.0625
306,1727892981657,-0.9741211,-0.039123535,-0.30792236,0.90625,-0.46875,0.09375
307,1727892981697,-0.9699707,-0.043518066,-0.30230713,1.578125,-0.578125,0.25
308,1727892981737,-0.9633789,-0.032043457,-0.3027954,1.25,-0.703125,0.125
309,1727892981777,-0.96118164,-0.0491333,-0.31134033,1.46875,-0.734375,-0.015625
310,1727892981817,-0.9667969,-0.043273926,-0.3032837,1.515625,-0.609375,-0.09375
311,1727892981857,-0.97216797,-0.038879395,-0.30743408,0.859375,-1.171875,-0.125
312,1727892981897,-0.9621582,-0.04058838,-0.30621338,1.484375,-0.65625,-0.5
313,1727892981937,-0.9663086,-0.039367676,-0.30792236,1.28125,-0.75,-0.453125
314,1727892981977,-0.96240234,-0.045959473,-0.3008423,1.03125,-1.0625,-0.046875
315,1727892982017,-0.9633789,-0.04547119,-0.31085205,0.71875,-0.125,-0.65625
316,1727892982057,-0.97094727,-0.039123535,-0.31304932,1.40625,-0.09375,-0.53125
317,1727892982097,-0.96875,-0.03741455,-0.30889893,2.125,-0.265625,-0.65625
318,1727892982137,-0.95947266,-0.03741455,-0.3081665,0.5625,-0.390625,-0.921875
319,1727892982177,-0.9638672,-0.03277588,-0.30548096,0.859375,-0.234375,-0.375
320,1727892982217,-0.9638672,-0.03692627,-0.3027954,1.1875,-0.546875,0.40625
321,1727892982257,-0.9626465,-0.04058838,-0.30889893,1.03125,-0.984375,-0.53125
322,1727892982297,-0.9699707,-0.02911377,-0.3098755,0.84375,-1.046875,-0.703125
323,1727892982337,-0.9626465,-0.035705566,-0.31451416,0.375,-1.265625,-0.296875
324,1727892982377,-0.9645996,-0.034973145,-0.31158447,0.421875,-0.703125,0.1875
325,1727892982417,-0.9628906,-0.039611816,-0.3106079,0.96875,-0.984375,0.46875
326,1727892982457,-0.9633789,-0.038391113,-0.30596924,0.578125,-0.953125,0.015625
327,1727892982497,-0.96362305,-0.038879395,-0.31378174,1.15625,-1.25,0.125
328,1727892982537,-0.95703125,-0.043273926,-0.30767822,1.015625,-0.625,-0.078125
329,1727892982577,-0.96850586,-0.035461426,-0.31817627,0.59375,-0.890625,-0.1875
330,1727892982617,-0.95874023,-0.03668213,-0.3106079,1.015625,-0.328125,0.09375
331,1727892982657,-0.9626465,-0.030822754,-0.31451416,0.703125,-0.53125,-0.03125
332,1727892982697,-0.9645996,-0.04058838,-0.3081665,0.90625,-0.046875,0.359375
333,1727892982737,-0.9650879,-0.035461426,-0.31158447,0.640625,-0.359375,0.015625
334,1727892982777,-0.9580078,-0.035949707,-0.30230713,1.234375,-0.21875,0.53125
335,1727892982817,-0.9658203,-0.04473877,-0.31207275,0.921875,-0.609375,0.1875
336,1727892982857,-0.9560547,-0.047180176,-0.31671143,0.609375,-0.4375,-0.078125
337,1727892982897,-0.96728516,-0.03692627,-0.30963135,0.859375,-0.1875,0.03125
338,1727892982937,-0.9682617,-0.03765869,-0.2979126,0.703125,0.09375,0.1875
339,1727892982977,-0.96972656,-0.043029785,-0.31280518,1.296875,-0.671875,0.125
340,1727892983017,-0.9628906,-0.039367676,-0.31378174,1.390625,0.171875,-0.140625
341,1727892983057,-0.96435547,-0.040100098,-0.31036377,1.171875,0.015625,0.046875
342,1727892983097,-0.9633789,-0.035217285,-0.30889893,0.75,0.421875,0.421875
343,1727892983137,-0.9577637,-0.039611816,-0.3015747,1.5,0.328125,0.578125
344,1727892983177,-0.96191406,-0.039367676,-0.3057251,0.75,0.15625,0.21875
345,1727892983217,-0.96655273,-0.04498291,-0.30010986,1.5,0.03125,0.375
346,1727892983257,-0.9655762,-0.039367676,-0.30499268,0.796875,-0.453125,0.03125
347,1727892983297,-0.9707031,-0.043762207,-0.3027954,1.421875,-0.15625,0.390625
348,1727892983337,-0.96435547,-0.034729004,-0.30108643,0.875,-0.40625,0.09375
349,1727892983377,-0.96777344,-0.039123535,-0.30352783,0.96875,-0.171875,0.171875
350,1727892983417,-0.9655762,-0.041809082,-0.30426025,0.765625,-0.640625,0.390625
351,1727892983457,-0.9645996,-0.04034424,-0.30792236,0.484375,-0.78125,0.15625
352,1727892983497,-0.9711914,-0.04547119,-0.3008423,0.734375,-0.5,0.375
353,1727892983537,-0.9616699,-0.04449463,-0.29986572,1.34375,-0.421875,0.28125
354,1727892983577,-0.9655762,-0.050354004,-0.31011963,0.859375,-0.65625,0.171875
355,1727892983617,-0.96191406,-0.038146973,-0.29840088,0.546875,0.1875,-0.28125
356,1727892983657,-0.96240234,-0.037902832,-0.30548096,0.265625,-0.03125,0.03125
357,1727892983697,-0.9716797,-0.04840088,-0.29571533,0.953125,-0.140625,0.359375
358,1727892983737,-0.9628906,-0.04473877,-0.30352783,1.265625,-0.984375,0.15625
359,1727892983777,-0.9741211,-0.043029785,-0.3015747,0.796875,-0.65625,-0.1875
360,1727892983817,-0.9694824,-0.046447754,-0.30230713,1.125,-0.4375,0.078125
361,1727892983857,-0.96777344,-0.04473877,-0.3110962,0.75,-0.3125,0.09375
362,1727892983897,-0.96533203,-0.049621582,-0.30548096,1.171875,-0.453125,0.28125
363,1727892983937,-0.9658203,-0.036193848,-0.29962158,0.75,-0.328125,-0.046875
364,1727892983977,-0.9680176,-0.047424316,-0.30474854,1.390625,-0.640625,0.15625
365,1727892984017,-0.9663086,-0.046691895,-0.29888916,1.203125,-0.734375,0.03125
366,1727892984057,-0.97314453,-0.04083252,-0.30499268,0.921875,-0.734375,0.0625
367,1727892984097,-0.9682617,-0.04498291,-0.29815674,1.203125,-0.4375,0.25
368,1727892984137,-0.9633789,-0.04449463,-0.3027954,0.796875,-0.609375,-0.125
369,1727892984177,-0.96899414,-0.04449463,-0.29815674,1.09375,-0.5625,0.03125
370,1727892984217,-0.96655273,-0.04937744,-0.3045044,0.875,-0.796875,-0.09375
371,1727892984257,-0.9650879,-0.043273926,-0.300354,1.015625,-0.484375,0.03125
372,1727892984297,-0.9638672,-0.04547119,-0.30645752,1.53125,-0.578125,0.203125
373,1727892984337,-0.9645996,-0.049865723,-0.30767822,1.0,-0.640625,-0.234375
374,1727892984377,-0.97436523,-0.03326416,-0.29718018,1.015625,0.0625,-0.0625
375,1727892984417,-0.9621582,-0.039367676,-0.30499268,0.296875,-0.171875,0.015625
376,1727892984457,-0.9650879,-0.04864502,-0.3069458,1.359375,-0.921875,0.109375
377,1727892984497,-0.96533203,-0.0491333,-0.30377197,1.328125,-0.421875,-0.28125
378,1727892984537,-0.97265625,-0.038879395,-0.3110962,0.75,-0.71875,-0.140625
379,1727892984577,-0.96435547,-0.039123535,-0.3008423,1.359375,-0.171875,0.234375
380,1727892984617,-0.9692383,-0.04449463,-0.3015747,0.75,-0.15625,0.046875
381,1727892984657,-0.9716797,-0.03692627,-0.30645752,0.75,-0.328125,0.203125
382,1727892984697,-0.96069336,-0.054260254,-0.3015747,1.28125,-0.1875,0.0625
383,1727892984737,-0.97021484,-0.041809082,-0.30377197,0.75,-0.875,-0.125
384,1727892984777,-0.9609375,-0.04840088,-0.29888916,1.40625,-0.734375,0.265625
385,1727892984817,-0.96484375,-0.04547119,-0.3093872,0.984375,-0.453125,-0.421875
386,1727892984857,-0.9667969,-0.04058838,-0.29840088,0.984375,-0.453125,0.03125
387,1727892984897,-0.967041,-0.04815674,-0.30548096,0.875,-0.453125,-0.171875
388,1727892984937,-0.9719238,-0.039855957,-0.30181885,1.21875,-0.59375,0.078125
389,1727892984977,-0.9711914,-0.04449463,-0.3057251,0.71875,-0.671875,0.0625
390,1727892985017,-0.96777344,-0.044006348,-0.30645752,1.0,-0.25,0.171875
391,1727892985057,-0.9694824,-0.046691895,-0.30303955,1.1875,-0.703125,0.15625
392,1727892985097,-0.96484375,-0.05230713,-0.30645752,1.09375,-0.4375,-0.015625
393,1727892985137,-0.9641113,-0.04058838,-0.29742432,1.4375,-0.09375,-0.046875
394,1727892985177,-0.9680176,-0.04156494,-0.2966919,0.171875,-0.015625,-0.0625
395,1727892985217,-0.96313477,-0.043518066,-0.30523682,1.34375,-0.6875,0.359375
396,1727892985257,-0.9621582,-0.043762207,-0.3027954,1.234375,-0.46875,-0.234375
397,1727892985297,-0.9736328,-0.03692627,-0.30303955,0.984375,-0.46875,-0.078125
398,1727892985337,-0.9707031,-0.042541504,-0.302063,1.203125,-0.265625,0.25
399,1727892985377,-0.96899414,-0.04449463,-0.30108643,0.96875,-0.125,0.21875
400,1727892985417,-0.9663086,-0.047180176,-0.30010986,0.84375,-0.40625,0.25
401,1727892985457,-0.967041,-0.04156494,-0.29986572,0.984375,-0.703125,0.0625
402,1727892985497,-0.96240234,-0.04888916,-0.30181885,1.0625,-0.953125,0.03125
403,1727892985537,-0.9682617,-0.04840088,-0.29742432,1.15625,-0.84375,-0.1875
404,1727892985577,-0.967041,-0.039367676,-0.30743408,1.09375,-0.765625,-0.109375
405,1727892985617,-0.9711914,-0.039855957,-0.30548096,1.421875,-0.96875,0.046875
406,1727892985657,-0.9682617,-0.044006348,-0.3027954,0.671875,-0.34375,-0.328125
407,1727892985697,-0.96850586,-0.034729004,-0.30303955,1.546875,-0.578125,-0.375
408,1727892985737,-0.9633789,-0.03717041,-0.302063,1.09375,-1.125,-0.015625
409,1727892985777,-0.96484375,-0.04034424,-0.30548096,1.78125,-1.171875,0.28125
410,1727892985817,-0.96484375,-0.050354004,-0.3110962,1.953125,-1.421875,0.03125
411,1727892985857,-0.96069336,-0.05328369,-0.32598877,1.234375,-1.46875,-0.59375
412,1727892985897,-0.96875,-0.04083252,-0.30474854,0.96875,-1.109375,-0.828125
413,1727892985937,-0.9562988,-0.030578613,-0.29962158,0.546875,-0.828125,-0.46875
414,1727892985977,-0.9645996,-0.0491333,-0.30645752,1.75,-1.140625,-0.015625
415,1727892986017,-0.96484375,-0.043273926,-0.31524658,1.015625,-1.234375,-0.734375
416,1727892986057,-0.95996094,-0.032043457,-0.31866455,1.4375,-1.3125,-0.625
417,1727892986097,-0.967041,-0.043762207,-0.31549072,0.984375,-0.90625,-1.09375
418,1727892986137,-0.9699707,-0.027404785,-0.30621338,0.75,-0.890625,-0.390625
419,1727892986177,-0.9597168,-0.039123535,-0.32305908,0.9375,-1.21875,-0.453125
420,1727892986217,-0.970459,-0.026916504,-0.30963135,0.6875,-0.671875,-0.84375
421,1727892986257,-0.95092773,-0.039367676,-0.3196411,0.921875,-2.046875,-0.5
422,1727892986297,-0.9626465,-0.027648926,-0.31817627,1.25,-1.578125,-0.359375
423,1727892986337,-0.953125,-0.02960205,-0.31744385,4.875,-1.09375,-0.140625
424,1727892986377,-0.96313477,-0.028381348,-0.32940674,2.453125,-0.890625,-0.09375
425,1727892986417,-0.96240234,-0.031555176,-0.32110596,1.890625,-0.625,-0.40625
426,1727892986457,-0.96728516,-0.031799316,-0.31866455,0.59375,-1.21875,-0.65625
427,1727892986497,-0.9526367,-0.023742676,-0.32330322,0.515625,-0.6875,-0.640625
428,1727892986537,-0.96313477,-0.02960205,-0.31866455,0.21875,-1.25,-0.265625
429,1727892986577,-0.95947266,-0.026916504,-0.3237915,0.453125,-1.0,-0.453125
430,1727892986617,-0.9562988,-0.023986816,-0.31500244,-0.625,-0.640625,-0.765625
431,1727892986657,-0.9592285,-0.020568848,-0.32305908,0.453125,-0.671875,0.03125
432,1727892986697,-0.9719238,-0.03253174,-0.31573486,1.953125,-1.0,0.625
433,1727892986737,-0.94750977,-0.042297363,-0.3484497,1.03125,-1.046875,-0.078125
434,1727892986777,-0.96069336,-0.017150879,-0.32208252,0.875,0.1875,-1.234375
435,1727892986817,-0.97021484,-0.019836426,-0.32867432,0.3125,-0.796875,-0.578125
436,1727892986857,-0.9538574,-0.019104004,-0.31939697,0.1875,-0.65625,-0.171875
437,1727892986897,-0.9543457,-0.034240723,-0.33306885,0.609375,-0.859375,-0.375
438,1727892986937,-0.9645996,-0.019836426,-0.32403564,0.09375,-0.296875,-0.6875
439,1727892986977,-0.95581055,-0.024475098,-0.32305908,0.84375,-1.25,-0.046875
440,1727892987017,-0.96118164,-0.024230957,-0.32720947,0.390625,-0.625,-0.296875
441,1727892987057,-0.96240234,-0.015930176,-0.32574463,0.90625,-0.078125,-0.15625
442,1727892987097,-0.96899414,-0.02178955,-0.333313,0.78125,-0.546875,-0.53125
443,1727892987137,-0.9663086,-0.024230957,-0.32647705,0.65625,-0.046875,-0.109375
444,1727892987177,-0.96069336,-0.026916504,-0.32525635,1.0,0.0,0.0625
445,1727892987217,-0.95703125,-0.027404785,-0.31817627,0.9375,0.09375,-0.171875
446,1727892987257,-0.9519043,-0.022033691,-0.31573486,1.4375,-0.796875,0.03125
447,1727892987297,-0.95874023,-0.020812988,-0.32818604,0.625,-1.265625,-0.125
448,1727892987337,-0.9499512,-0.0178833,-0.31207275,1.234375,-0.046875,0.171875
449,1727892987377,-0.9641113,-0.022766113,-0.33013916,0.65625,-0.578125,-0.03125
450,1727892987417,-0.9645996,-0.024719238,-0.32208252,2.328125,-1.578125,0.5
451,1727892987457,-0.9655762,-0.022766113,-0.3352661,1.296875,-1.15625,-0.34375
452,1727892987497,-0.9604492,-0.027404785,-0.331604,0.9375,-0.4375,0.203125
453,1727892987537,-0.95751953,-0.026184082,-0.32696533,1.359375,0.0625,0.234375
454,1727892987577,-0.9645996,-0.020568848,-0.33087158,0.9375,-0.171875,0.375
455,1727892987617,-0.9484863,-0.03253174,-0.32305908,1.34375,-0.328125,0.296875
456,1727892987657,-0.9699707,-0.026672363,-0.31939697,0.359375,-0.171875,-0.09375
457,1727892987697,-0.9543457,-0.0256958,-0.3225708,1.34375,-1.0,0.40625
458,1727892987737,-0.96313477,-0.028381348,-0.3242798,1.1875,-1.1875,0.15625
459,1727892987777,-0.95581055,-0.024719238,-0.32891846,0.828125,-1.3125,0.046875
460,1727892987817,-0.9580078,-0.027160645,-0.33013916,0.9375,-0.296875,-0.015625
461,1727892987857,-0.9621582,-0.0256958,-0.3225708,0.703125,-0.3125,0.203125
462,1727892987897,-0.9501953,-0.026428223,-0.3213501,0.875,-0.484375,0.484375
463,1727892987937,-0.9609375,-0.019592285,-0.3255005,0.875,-0.515625,0.390625
464,1727892987977,-0.9484863,-0.02545166,-0.32720947,1.203125,-0.96875,0.484375
465,1727892988017,-0.9567871,-0.024475098,-0.3279419,0.421875,-0.4375,0.0625
466,1727892988057,-0.96118164,-0.030822754,-0.33721924,0.84375,0.5,0.609375
467,1727892988097,-0.9675293,-0.031311035,-0.32183838,1.5,1.140625,1.125
468,1727892988137,-0.95947266,-0.034240723,-0.32891846,1.265625,-0.4375,0.171875
469,1727892988177,-0.9628906,-0.0178833,-0.32281494,1.34375,0.015625,-0.265625
470,1727892988217,-0.9538574,-0.028381348,-0.3189087,1.515625,-0.390625,0.09375
471,1727892988257,-0.9589844,-0.027404785,-0.3255005,0.78125,-0.34375,0.203125
472,1727892988297,-0.9562988,-0.03326416,-0.3164673,1.734375,-0.453125,0.765625
473,1727892988337,-0.96313477,-0.035949707,-0.3303833,0.421875,-0.765625,0.484375
474,1727892988377,-0.9692383,-0.02911377,-0.31671143,1.546875,0.40625,0.953125
475,1727892988417,-0.9609375,-0.038879395,-0.3274536,1.328125,0.140625,0.78125
476,1727892988457,-0.96875,-0.031799316,-0.3237915,1.390625,-0.734375,0.328125
477,1727892988497,-0.9543457,-0.034240723,-0.3242798,0.984375,-0.1875,-0.09375
478,1727892988537,-0.96240234,-0.03717041,-0.3189087,1.375,0.609375,0.203125
479,1727892988577,-0.9626465,-0.026428223,-0.32208252,0.8125,0.34375,0.375
480,1727892988617,-0.95703125,-0.039855957,-0.31622314,0.90625,-0.140625,0.515625
481,1727892988657,-0.9633789,-0.03326416,-0.3171997,0.796875,-0.1875,0.515625
482,1727892988697,-0.9543457,-0.030578613,-0.31695557,1.3125,-0.78125,1.109375
483,1727892988737,-0.95947266,-0.041809082,-0.31671143,0.953125,-0.28125,0.859375
484,1727892988777,-0.96655273,-0.038391113,-0.31744385,0.671875,0.078125,0.25
485,1727892988817,-0.9589844,-0.03326416,-0.32452393,-0.34375,0.40625,0.234375
486,1727892988857,-0.967041,-0.038635254,-0.3081665,1.265625,0.40625,0.671875
487,1727892988897,-0.96655273,-0.04058838,-0.31427002,0.953125,-0.03125,0.0625
488,1727892988937,-0.9667969,-0.038635254,-0.30963135,1.046875,0.109375,0.140625
489,1727892988977,-0.9633789,-0.038635254,-0.31280518,1.015625,-0.453125,0.25
490,1727892989017,-0.9658203,-0.043762207,-0.31573486,0.0625,0.0,0.234375
491,1727892989057,-0.95458984,-0.03692627,-0.31329346,1.015625,-0.125,0.484375
492,1727892989097,-0.96240234,-0.035949707,-0.3098755,0.140625,0.359375,0.0625
493,1727892989137,-0.9650879,-0.040100098,-0.31427002,0.984375,0.5,0.53125
494,1727892989177,-0.97216797,-0.043518066,-0.3057251,0.921875,0.5,0.515625
495,1727892989217,-0.9602051,-0.049621582,-0.31207275,1.359375,0.203125,0.28125
496,1727892989257,-0.9614258,-0.03643799,-0.30767822,0.578125,0.203125,0.109375
497,1727892989297,-0.9663086,-0.045715332,-0.30181885,1.046875,0.109375,0.125
498,1727892989337,-0.9694824,-0.04449463,-0.30621338,1.03125,0.078125,0.203125
499,1727892989377,-0.9592285,-0.042053223,-0.30499268,1.046875,0.25,0.40625
500,1727892989417,-0.97143555,-0.038391113,-0.3045044,0.515625,-0.125,0.140625
501,1727892989457,-0.9692383,-0.04156494,-0.29815674,0.96875,-0.015625,0.484375
502,1727892989497,-0.9692383,-0.047912598,-0.30743408,1.359375,0.15625,0.21875
503,1727892989537,-0.9621582,-0.04083252,-0.30230713,0.921875,0.125,0.28125
504,1727892989577,-0.970459,-0.03668213,-0.29327393,1.15625,0.390625,0.140625
505,1727892989617,-0.9675293,-0.045715332,-0.30645752,-0.578125,0.28125,0.328125
506,1727892989657,-0.96655273,-0.04840088,-0.2883911,0.703125,-0.078125,0.453125
507,1727892989697,-0.9692383,-0.054016113,-0.30426025,0.78125,-0.078125,0.28125
508,1727892989737,-0.96655273,-0.042053223,-0.300354,0.8125,0.046875,0.140625
509,1727892989777,-0.97314453,-0.055725098,-0.30474854,1.171875,-0.0625,-0.15625
510,1727892989817,-0.96899414,-0.038635254,-0.29058838,0.703125,-0.109375,0.109375
511,1727892989857,-0.96069336,-0.051574707,-0.3057251,0.765625,-0.03125,-0.140625
512,1727892989897,-0.9675293,-0.038146973,-0.29034424,0.5,-0.4375,-0.03125
513,1727892989937,-0.96533203,-0.05255127,-0.29986572,1.203125,-0.859375,0.03125
514,1727892989977,-0.967041,-0.047424316,-0.29595947,1.140625,-1.03125,-0.0625
515,1727892990017,-0.96850586,-0.042297363,-0.29351807,1.5625,-1.390625,0.203125
516,1727892990057,-0.96777344,-0.047180176,-0.29864502,1.171875,-0.84375,-0.125
517,1727892990097,-0.96899414,-0.050598145,-0.2979126,1.390625,-0.796875,-0.046875
518,1727892990137,-0.96240234,-0.0491333,-0.3032837,1.421875,-1.046875,-0.15625
519,1727892990177,-0.9694824,-0.043762207,-0.29864502,1.59375,-0.734375,-0.359375
520,1727892990217,-0.96899414,-0.042541504,-0.29693604,1.453125,-0.875,0.0625
521,1727892990257,-0.9604492,-0.04473877,-0.3032837,1.671875,-0.640625,-0.140625
522,1727892990297,-0.9785156,-0.034240723,-0.29766846,1.8125,-0.265625,-0.09375
523,1727892990337,-0.9729004,-0.038879395,-0.29449463,2.453125,-0.8125,-0.15625
524,1727892990377,-0.9719238,-0.04547119,-0.3098755,0.484375,-1.078125,-0.4375
525,1727892990417,-0.95703125,-0.04034424,-0.30181885,1.078125,-0.875,-0.359375
526,1727892990457,-0.96899414,-0.045715332,-0.3098755,1.109375,-1.53125,-0.03125
527,1727892990497,-0.9675293,-0.04498291,-0.32110596,-0.109375,-2.5,-0.34375
528,1727892990537,-0.9626465,-0.038146973,-0.3008423,-0.234375,-2.3125,-0.828125
529,1727892990577,-0.9707031,-0.0335083,-0.31280518,-0.1875,-1.484375,-0.5625
530,1727892990617,-0.9580078,-0.043518066,-0.31256104,0.09375,-1.375,-0.640625
531,1727892990657,-0.9711914,-0.04058838,-0.31304932,0.9375,-1.03125,-0.390625
532,1727892990697,-0.96435547,-0.043029785,-0.30914307,0.21875,-1.21875,-0.78125
533,1727892990737,-0.9707031,-0.03741455,-0.30499268,1.65625,-0.734375,-0.390625
534,1727892990777,-0.9511719,-0.04034424,-0.3069458,1.328125,-0.703125,-0.34375
535,1727892990817,-0.9711914,-0.043518066,-0.3135376,1.421875,-0.890625,-0.125
536,1727892990857,-0.9633789,-0.03668213,-0.31451416,0.765625,-1.390625,-0.046875
537,1727892990897,-0.9621582,-0.039367676,-0.30889893,0.8125,-1.609375,-0.0625
538,1727892990937,-0.96728516,-0.037902832,-0.3201294,0.21875,-1.8125,-0.4375
539,1727892990977,-0.951416,-0.04107666,-0.315979,1.015625,-1.546875,-0.078125
540,1727892991017,-0.95703125,-0.041809082,-0.3189087,0.265625,-1.546875,-0.453125
541,1727892991057,-0.9597168,-0.028625488,-0.31256104,1.046875,-1.234375,0.0
542,1727892991097,-0.9572754,-0.043518066,-0.32354736,1.125,-1.546875,-0.15625
543,1727892991137,-0.95947266,-0.038146973,-0.31939697,1.21875,-1.1875,0.09375
544,1727892991177,-0.9465332,-0.03253174,-0.32403564,0.21875,-0.5,-0.59375
545,1727892991217,-0.95947266,-0.027893066,-0.33502197,0.40625,-0.21875,-0.09375
546,1727892991257,-0.95751953,-0.04034424,-0.3184204,2.078125,-0.546875,0.328125
547,1727892991297,-0.96484375,-0.040100098,-0.32843018,0.8125,-0.71875,-0.359375
548,1727892991337,-0.9604492,-0.034240723,-0.3213501,1.03125,-0.71875,-0.171875
549,1727892991377,-0.95581055,-0.035705566,-0.32208252,0.90625,-0.625,-0.015625
550,1727892991417,-0.9550781,-0.03765869,-0.32305908,0.765625,-0.328125,0.3125
551,1727892991457,-0.9506836,-0.04107666,-0.3274536,1.28125,-0.875,0.1875
552,1727892991497,-0.9633789,-0.033996582,-0.32525635,0.578125,-0.53125,-0.140625
553,1727892991537,-0.95532227,-0.043273926,-0.32843018,1.296875,-0.8125,0.171875
554,1727892991577,-0.9584961,-0.038879395,-0.32305908,0.84375,-0.78125,0.03125
555,1727892991617,-0.9536133,-0.033996582,-0.31744385,1.046875,-0.75,0.078125
556,1727892991657,-0.9626465,-0.035461426,-0.32647705,0.609375,-0.8125,-0.171875
557,1727892991697,-0.9584961,-0.032043457,-0.32061768,0.65625,-0.3125,0.234375
558,1727892991737,-0.95874023,-0.030334473,-0.3328247,0.75,-0.09375,-0.125
559,1727892991777,-0.95996094,-0.036193848,-0.32525635,0.796875,-0.296875,0.328125
560,1727892991817,-0.9560547,-0.039855957,-0.3303833,0.75,-0.1875,0.21875
561,1727892991857,-0.96533203,-0.03717041,-0.3171997,1.265625,-0.203125,0.4375
562,1727892991897,-0.954834,-0.043029785,-0.31988525,1.734375,-0.125,0.34375
563,1727892991937,-0.9628906,-0.04034424,-0.33551025,0.484375,-0.125,0.046875
564,1727892991977,-0.9592285,-0.03717041,-0.31988525,1.5,0.765625,0.25
565,1727892992017,-0.9584961,-0.042541504,-0.317688,0.765625,0.71875,0.078125
566,1727892992057,-0.9609375,-0.038635254,-0.31915283,1.859375,-0.484375,0.59375
567,1727892992097,-0.95825195,-0.042053223,-0.3189087,1.40625,0.109375,0.203125
568,1727892992137,-0.96313477,-0.039123535,-0.3171997,0.671875,0.21875,0.09375
569,1727892992177,-0.95996094,-0.039367676,-0.31915283,1.21875,0.515625,0.421875
570,1727892992217,-0.9658203,-0.043029785,-0.315979,0.5,0.40625,0.203125
571,1727892992257,-0.95703125,-0.03643799,-0.31280518,1.75,0.5625,0.578125
572,1727892992297,-0.9626465,-0.043029785,-0.3086548,1.0,0.453125,0.140625
573,1727892992337,-0.9658203,-0.03643799,-0.3237915,0.96875,-0.5,0.03125
574,1727892992377,-0.96069336,-0.035949707,-0.30889893,1.359375,0.109375,0.59375
575,1727892992417,-0.96362305,-0.04547119,-0.315979,1.140625,0.03125,0.203125
576,1727892992457,-0.96191406,-0.038879395,-0.3081665,1.125,0.296875,0.3125
577,1727892992497,-0.9621582,-0.040100098,-0.30645752,1.015625,0.328125,0.28125
578,1727892992537,-0.9667969,-0.043029785,-0.3110962,1.296875,0.4375,0.203125
579,1727892992577,-0.96533203,-0.039123535,-0.31085205,1.171875,0.5,0.390625
580,1727892992617,-0.96655273,-0.04937744,-0.30767822,1.109375,0.328125,0.140625
581,1727892992657,-0.96899414,-0.043518066,-0.3081665,1.0,0.390625,0.140625
582,1727892992697,-0.9667969,-0.04156494,-0.30303955,1.421875,0.09375,0.375
583,1727892992737,-0.96484375,-0.047668457,-0.3093872,0.515625,-0.078125,-0.171875
584,1727892992777,-0.9753418,-0.043762207,-0.30181885,0.78125,-0.21875,0.046875
585,1727892992817,-0.96191406,-0.039123535,-0.2979126,0.28125,0.125,0.109375
586,1727892992857,-0.96899414,-0.04425049,-0.29888916,1.09375,-0.859375,0.15625
587,1727892992897,-0.9655762,-0.046936035,-0.3027954,1.296875,-0.171875,0.21875
588,1727892992937,-0.9638672,-0.04473877,-0.3081665,1.171875,-0.265625,-0.09375
589,1727892992977,-0.9719238,-0.04449463,-0.30499268,1.046875,-0.203125,-0.078125
590,1727892993017,-0.9692383,-0.040100098,-0.2954712,0.921875,-0.234375,0.046875
591,1727892993057,-0.96435547,-0.04425049,-0.30767822,0.625,-0.359375,0.171875
592,1727892993097,-0.9736328,-0.043762207,-0.2979126,1.109375,-0.4375,0.1875
593,1727892993137,-0.96240234,-0.04083252,-0.3008423,1.296875,-0.5625,0.078125
594,1727892993177,-0.96850586,-0.05206299,-0.30303955,1.265625,-0.609375,0.109375
595,1727892993217,-0.96484375,-0.043762207,-0.30474854,1.234375,-0.71875,-0.046875
596,1727892993257,-0.9645996,-0.04473877,-0.3027954,1.4375,-0.65625,-0.078125
597,1727892993297,-0.96850586,-0.049621582,-0.30255127,1.34375,-0.9375,-0.1875
598,1727892993337,-0.9645996,-0.039611816,-0.3098755,1.640625,-0.984375,0.03125
599,1727892993377,-0.96606445,-0.043762207,-0.30010986,1.46875,-0.890625,-0.140625
600,1727892993417,-0.9707031,-0.0413208,-0.30230713,2.125,-1.0,0.359375
601,1727892993457,-0.95825195,-0.041809082,-0.30377197,1.625,-1.09375,0.1875
602,1727892993497,-0.9633789,-0.04522705,-0.30645752,1.875,-1.4375,-0.171875
603,1727892993537,-0.96606445,-0.043273926,-0.31011963,1.140625,-1.25,-0.734375
604,1727892993577,-0.96533203,-0.039855957,-0.31085205,0.4375,-1.3125,-0.375
605,1727892993617,-0.9609375,-0.043029785,-0.30255127,1.40625,-0.5625,0.046875
606,1727892993657,-0.967041,-0.043518066,-0.3093872,1.984375,-1.390625,-0.25
607,1727892993697,-0.96069336,-0.03765869,-0.30841064,1.046875,-1.59375,-0.59375
608,1727892993737,-0.9645996,-0.042053223,-0.30718994,1.15625,-1.609375,-0.390625
609,1727892993777,-0.9680176,-0.03668213,-0.3196411,0.453125,-1.4375,-0.375
610,1727892993817,-0.9597168,-0.0335083,-0.3093872,1.53125,-0.96875,-0.15625
611,1727892993857,-0.9616699,-0.03741455,-0.32208252,0.921875,-1.734375,-0.1875
612,1727892993897,-0.95751953,-0.03277588,-0.31524658,1.140625,-1.109375,-0.15625
613,1727892993937,-0.9536133,-0.04034424,-0.31329346,1.5,-1.40625,-0.46875
614,1727892993977,-0.9609375,-0.034729004,-0.3189087,1.078125,-1.859375,-0.328125
615,1727892994017,-0.9550781,-0.03692627,-0.3201294,1.75,-0.65625,-0.375
616,1727892994057,-0.96118164,-0.035217285,-0.3255005,0.859375,-0.296875,-0.71875
617,1727892994097,-0.9633789,-0.028625488,-0.31939697,1.171875,-0.625,-0.171875
618,1727892994137,-0.95654297,-0.031311035,-0.32305908,1.203125,-0.265625,0.109375
619,1727892994177,-0.9584961,-0.03253174,-0.3098755,1.109375,0.046875,0.03125
620,1727892994217,-0.9577637,-0.039123535,-0.3225708,1.46875,-0.8125,-0.0625
621,1727892994257,-0.95654297,-0.02935791,-0.3189087,1.09375,-1.203125,0.03125
622,1727892994297,-0.9567871,-0.03668213,-0.32769775,-0.046875,-0.984375,-0.640625
623,1727892994337,-0.96118164,-0.031311035,-0.32525635,0.0,-0.875,-0.125
624,1727892994377,-0.95996094,-0.039611816,-0.31622314,1.015625,-1.1875,0.296875
625,1727892994417,-0.9550781,-0.031066895,-0.32598877,0.84375,-1.203125,-0.390625
626,1727892994457,-0.953125,-0.02960205,-0.31866455,1.125,-0.5,-0.015625
627,1727892994497,-0.9604492,-0.02960205,-0.33477783,0.453125,-0.640625,-0.140625
628,1727892994537,-0.9584961,-0.032287598,-0.3262329,0.71875,0.265625,0.421875
629,1727892994577,-0.9604492,-0.038391113,-0.31915283,1.015625,0.03125,0.140625
630,1727892994617,-0.9633789,-0.034729004,-0.32232666,0.421875,-0.375,0.453125
631,1727892994657,-0.9572754,-0.04034424,-0.31207275,1.109375,-0.15625,0.203125
632,1727892994697,-0.9584961,-0.03717041,-0.3147583,0.59375,-0.140625,-0.03125
633,1727892994737,-0.9592285,-0.035461426,-0.32305908,0.984375,-0.59375,0.125
634,1727892994777,-0.9621582,-0.035949707,-0.3213501,0.671875,-0.34375,-0.1875
635,1727892994817,-0.9667969,-0.034973145,-0.32305908,1.125,-0.375,-0.015625
636,1727892994857,-0.95654297,-0.03375244,-0.32183838,0.6875,-0.640625,0.171875
637,1727892994897,-0.95996094,-0.03302002,-0.3237915,0.40625,-0.484375,0.015625
638,1727892994937,-0.9550781,-0.031555176,-0.31207275,0.875,-0.25,0.296875
639,1727892994977,-0.9589844,-0.04107666,-0.32598877,0.375,-0.40625,0.171875
640,1727892995017,-0.9560547,-0.041809082,-0.32891846,0.984375,0.234375,0.46875
641,1727892995057,-0.9667969,-0.04058838,-0.32476807,0.515625,0.578125,-0.1875
642,1727892995097,-0.9614258,-0.034973145,-0.31011963,0.359375,0.78125,0.375
643,1727892995137,-0.9616699,-0.046203613,-0.32086182,1.59375,0.234375,0.203125
644,1727892995177,-0.9650879,-0.031799316,-0.31280518,0.71875,0.1875,-0.078125
645,1727892995217,-0.9682617,-0.03717041,-0.30767822,1.015625,0.359375,0.109375
646,1727892995257,-0.96118164,-0.0335083,-0.31085205,1.171875,0.296875,0.078125
647,1727892995297,-0.9621582,-0.03375244,-0.30108643,1.203125,0.71875,0.59375
648,1727892995337,-0.9667969,-0.039611816,-0.31207275,0.921875,0.25,0.3125
649,1727892995377,-0.96972656,-0.03668213,-0.3045044,0.65625,0.28125,0.25
650,1727892995417,-0.9675293,-0.03692627,-0.3093872,1.015625,-0.109375,0.40625
651,1727892995457,-0.9692383,-0.039855957,-0.3098755,1.078125,0.0,0.21875
652,1727892995497,-0.96240234,-0.042297363,-0.3098755,1.0625,0.203125,0.15625
653,1727892995537,-0.9645996,-0.037902832,-0.31036377,0.65625,0.0625,-0.078125
654,1727892995577,-0.97265625,-0.0413208,-0.30181885,0.828125,0.015625,0.28125
655,1727892995617,-0.9655762,-0.043273926,-0.3081665,1.03125,0.078125,0.359375
656,1727892995657,-0.9638672,-0.043762207,-0.3032837,0.4375,-0.25,0.265625
657,1727892995697,-0.9645996,-0.04083252,-0.3015747,1.265625,-0.046875,0.265625
658,1727892995737,-0.9641113,-0.047668457,-0.30914307,1.0625,-0.625,0.328125
659,1727892995777,-0.96118164,-0.049621582,-0.30841064,1.109375,-0.328125,0.28125
660,1727892995817,-0.96777344,-0.04425049,-0.30181885,0.875,-0.140625,-0.09375
661,1727892995857,-0.9667969,-0.04058838,-0.29766846,0.0625,-0.03125,0.171875
662,1727892995897,-0.9692383,-0.04864502,-0.29327393,1.203125,-0.625,0.265625
663,1727892995937,-0.96484375,-0.04449463,-0.2979126,1.375,-0.203125,-0.109375
664,1727892995977,-0.97265625,-0.03692627,-0.3045044,1.03125,-0.28125,0.078125
665,1727892996017,-0.96850586,-0.046203613,-0.29937744,1.296875,-0.125,0.125
666,1727892996057,-0.96606445,-0.04058838,-0.29986572,0.8125,-0.203125,0.15625
667,1727892996097,-0.97143555,-0.042541504,-0.30181885,0.90625,-0.40625,0.125
668,1727892996137,-0.9692383,-0.04034424,-0.2979126,0.734375,-0.34375,0.046875
669,1727892996177,-0.9655762,-0.04449463,-0.30377197,1.328125,-0.796875,0.0
670,1727892996217,-0.970459,-0.042785645,-0.30377197,1.015625,-0.859375,-0.125
671,1727892996257,-0.9675293,-0.042785645,-0.30523682,1.3125,-0.859375,-0.09375
672,1727892996297,-0.9729004,-0.042541504,-0.3057251,1.015625,-0.65625,-0.1875
673,1727892996337,-0.9692383,-0.042053223,-0.30108643,1.234375,-0.59375,0.046875
674,1727892996377,-0.96777344,-0.041809082,-0.29986572,1.21875,-0.6875,-0.140625
675,1727892996417,-0.9645996,-0.044006348,-0.30523682,1.234375,-0.75,0.0
676,1727892996457,-0.9628906,-0.04840088,-0.29693604,1.4375,-0.75,0.234375
677,1727892996497,-0.9663086,-0.04498291,-0.30767822,1.515625,-1.25,-0.09375
678,1727892996537,-0.9621582,-0.035949707,-0.30792236,1.796875,-0.859375,0.046875
679,1727892996577,-0.97436523,-0.040100098,-0.3015747,1.375,-0.234375,-0.25
680,1727892996617,-0.96972656,-0.034484863,-0.29742432,0.984375,-0.203125,-0.21875
681,1727892996657,-0.9602051,-0.046447754,-0.30523682,2.09375,-0.9375,0.046875
682,1727892996697,-0.9658203,-0.038635254,-0.3147583,1.609375,-1.484375,-0.296875
683,1727892996737,-0.9680176,-0.038146973,-0.30010986,1.234375,-1.28125,-0.1875
684,1727892996777,-0.9645996,-0.035217285,-0.31329346,0.859375,-1.328125,-0.28125
685,1727892996817,-0.9680176,-0.04034424,-0.30523682,1.0,-1.0,-0.03125
686,1727892996857,-0.9680176,-0.043273926,-0.30377197,1.484375,-1.484375,-0.015625
687,1727892996897,-0.9711914,-0.038146973,-0.31329346,0.84375,-1.5,-0.421875
688,1727892996937,-0.9641113,-0.04034424,-0.3093872,1.671875,-1.78125,-0.0625
689,1727892996977,-0.9621582,-0.03643799,-0.3171997,0.9375,-1.78125,-0.484375
690,1727892997017,-0.96069336,-0.035949707,-0.31256104,1.25,-1.515625,-0.390625
691,1727892997057,-0.9555664,-0.03643799,-0.32086182,1.046875,-1.328125,-0.484375
692,1727892997097,-0.9621582,-0.03741455,-0.31378174,0.671875,-1.390625,-0.34375
693,1727892997137,-0.9589844,-0.033996582,-0.31207275,1.828125,-1.078125,-0.046875
694,1727892997177,-0.9641113,-0.04034424,-0.32598877,1.609375,-1.5,-0.015625
695,1727892997217,-0.9580078,-0.02935791,-0.32305908,1.015625,-1.484375,-0.34375
696,1727892997257,-0.9655762,-0.043029785,-0.32843018,1.3125,-1.53125,-0.1875
697,1727892997297,-0.95336914,-0.03375244,-0.33062744,-0.21875,-1.34375,-0.453125
698,1727892997337,-0.95751953,-0.032043457,-0.32403564,0.765625,-0.609375,0.296875
699,1727892997377,-0.9650879,-0.037902832,-0.32086182,0.921875,-0.78125,0.109375
700,1727892997417,-0.95703125,-0.033996582,-0.3279419,1.59375,-1.6875,-0.21875
701,1727892997457,-0.9628906,-0.02960205,-0.3320923,1.515625,-1.09375,-0.4375
702,1727892997497,-0.9592285,-0.028869629,-0.32403564,1.65625,-0.640625,-0.046875
703,1727892997537,-0.95703125,-0.034729004,-0.33062744,1.21875,-0.671875,-0.03125
704,1727892997577,-0.9584961,-0.03253174,-0.3237915,1.15625,-0.5625,0.140625
705,1727892997617,-0.95703125,-0.032043457,-0.32965088,0.78125,-0.828125,0.09375
706,1727892997657,-0.95532227,-0.03692627,-0.32989502,0.765625,-0.609375,0.125
707,1727892997697,-0.9604492,-0.033996582,-0.3267212,0.5625,-0.59375,0.046875
708,1727892997737,-0.95166016,-0.03326416,-0.33502197,0.921875,-0.984375,-0.125
709,1727892997777,-0.96240234,-0.028869629,-0.33770752,0.171875,-0.484375,-0.3125
710,1727892997817,-0.95703125,-0.030090332,-0.32281494,0.65625,-0.390625,-0.046875
711,1727892997857,-0.96362305,-0.039611816,-0.33111572,0.65625,-0.28125,0.0625
712,1727892997897,-0.953125,-0.030334473,-0.32843018,0.59375,-0.421875,0.15625
713,1727892997937,-0.9621582,-0.03375244,-0.33502197,0.71875,-0.5,0.234375
714,1727892997977,-0.9560547,-0.036193848,-0.33111572,1.03125,-0.390625,0.3125
715,1727892998017,-0.954834,-0.03643799,-0.32843018,0.5,-0.59375,0.078125
716,1727892998057,-0.95532227,-0.035217285,-0.32354736,0.546875,0.0,-0.046875
717,1727892998097,-0.95458984,-0.04034424,-0.331604,0.296875,0.1875,-0.140625
718,1727892998137,-0.95874023,-0.04034424,-0.3291626,1.28125,-0.71875,0.25
719,1727892998177,-0.9577637,-0.031066895,-0.32696533,0.71875,-0.3125,-0.359375
720,1727892998217,-0.96313477,-0.030822754,-0.33184814,0.71875,-0.078125,0.0
721,1727892998257,-0.95703125,-0.035949707,-0.33087158,0.78125,-0.015625,0.265625
722,1727892998297,-0.953125,-0.034729004,-0.3237915,0.5625,0.28125,0.359375
723,1727892998337,-0.9523926,-0.038635254,-0.32574463,0.859375,0.171875,0.484375
724,1727892998377,-0.96191406,-0.035217285,-0.3237915,0.71875,0.421875,0.3125
725,1727892998417,-0.9555664,-0.03717041,-0.3255005,1.21875,0.203125,0.40625
726,1727892998457,-0.9589844,-0.038635254,-0.31256104,1.546875,0.5625,0.375
727,1727892998497,-0.96240234,-0.038391113,-0.32818604,1.015625,0.15625,-0.1875
728,1727892998537,-0.9602051,-0.035705566,-0.3242798,0.859375,0.4375,0.15625
729,1727892998577,-0.96606445,-0.039123535,-0.32183838,1.0,0.75,0.25
730,1727892998617,-0.95581055,-0.03741455,-0.3164673,1.109375,1.078125,0.40625
731,1727892998657,-0.96533203,-0.043518066,-0.31573486,1.125,0.828125,0.671875
732,1727892998697,-0.9626465,-0.043518066,-0.31158447,1.3125,0.9375,0.765625
733,1727892998737,-0.96850586,-0.038635254,-0.31085205,1.53125,0.390625,0.484375
734,1727892998777,-0.9621582,-0.042541504,-0.3135376,0.796875,0.390625,0.0
735,1727892998817,-0.9711914,-0.042785645,-0.31011963,0.71875,0.515625,-0.078125
736,1727892998857,-0.96435547,-0.032043457,-0.3027954,-0.03125,0.84375,0.203125
737,1727892998897,-0.96899414,-0.04156494,-0.30108643,1.46875,-0.21875,0.4375
738,1727892998937,-0.9628906,-0.03765869,-0.30718994,1.296875,0.25,0.15625
739,1727892998977,-0.96875,-0.039611816,-0.30133057,0.984375,-0.296875,0.078125
740,1727892999017,-0.9616699,-0.042541504,-0.3110962,0.9375,-0.046875,0.328125
741,1727892999057,-0.96728516,-0.04449463,-0.30059814,0.828125,0.15625,0.28125
742,1727892999097,-0.9628906,-0.046447754,-0.30596924,0.859375,-0.03125,0.125
743,1727892999137,-0.9797363,-0.04425049,-0.29571533,0.671875,-0.015625,0.171875
744,1727892999177,-0.967041,-0.04815674,-0.302063,1.296875,-0.421875,0.0625
745,1727892999217,-0.9699707,-0.045959473,-0.30133057,1.125,-0.3125,0.1875
746,1727892999257,-0.96655273,-0.04425049,-0.29986572,1.078125,-0.359375,0.03125
747,1727892999297,-0.9650879,-0.04058838,-0.3040161,0.859375,-0.4375,0.078125
748,1727892999337,-0.96850586,-0.041809082,-0.29473877,0.765625,-0.46875,0.171875
749,1727892999377,-0.9682617,-0.042785645,-0.3032837,1.015625,-0.390625,0.0625
750,1727892999417,-0.97265625,-0.039123535,-0.3027954,0.765625,-0.640625,0.15625
751,1727892999457,-0.96533203,-0.046936035,-0.30670166,0.984375,-0.5,0.0625
752,1727892999497,-0.9655762,-0.04083252,-0.30181885,1.125,-0.53125,-0.015625
753,1727892999537,-0.9609375,-0.047912598,-0.30474854,1.234375,-0.296875,-0.046875
754,1727892999577,-0.970459,-0.042785645,-0.29718018,0.9375,-0.203125,-0.21875
755,1727892999617,-0.9655762,-0.04083252,-0.30059814,0.328125,-0.203125,-0.03125
756,1727892999657,-0.95996094,-0.04473877,-0.29937744,1.421875,-0.734375,0.203125
757,1727892999697,-0.96972656,-0.042785645,-0.30548096,1.28125,-0.6875,-0.078125
758,1727892999737,-0.97265625,-0.042297363,-0.29571533,1.359375,-0.796875,-0.078125
759,1727892999777,-0.97021484,-0.045959473,-0.3040161,1.265625,-0.6875,-0.015625
