,Unnamed: 0,timestamp,accel_x,accel_y,accel_z,gyro_x,gyro_y,gyro_z
0,0,1727346587527,-0.5192871,0.89837646,0.1876831,-0.75,-0.078125,-0.46875
1,1,1727346587567,-0.50756836,0.87835693,0.1749878,-1.234375,0.203125,-0.53125
2,2,1727346587607,-0.51464844,0.8942261,0.1828003,-0.9375,1.046875,-0.171875
3,3,1727346587647,-0.52246094,0.90130615,0.17913818,-0.234375,1.265625,0.390625
4,4,1727346587687,-0.5119629,0.90057373,0.17181396,-0.84375,1.0625,-0.84375
5,5,1727346587727,-0.5114746,0.8908081,0.1762085,-0.265625,1.265625,-0.359375
6,6,1727346587767,-0.5280762,0.89276123,0.1762085,-1.421875,2.296875,-0.78125
7,7,1727346587807,-0.51831055,0.8895874,0.21380615,-0.703125,1.125,-1.109375
8,8,1727346587847,-0.49438477,0.88397217,0.16937256,-1.953125,0.8125,-1.296875
9,9,1727346587887,-0.5415039,0.90301514,0.19818115,-0.6875,0.328125,-0.609375
10,10,1727346587927,-0.5090332,0.88690186,0.18548584,-0.796875,1.015625,-0.59375
11,11,1727346587967,-0.50756836,0.8932495,0.18572998,-0.671875,1.984375,-0.5625
12,12,1727346588007,-0.51342773,0.89959717,0.19036865,-0.953125,2.53125,-0.734375
13,13,1727346588047,-0.4892578,0.883728,0.20599365,-0.671875,1.1875,0.140625
14,14,1727346588087,-0.50341797,0.89886475,0.1798706,-2.546875,2.09375,-0.734375
15,15,1727346588127,-0.51586914,0.89276123,0.20672607,0.953125,2.484375,-0.21875
16,16,1727346588167,-0.50805664,0.8925171,0.16741943,-0.984375,3.78125,0.0625
17,17,1727346588207,-0.5041504,0.8981323,0.1852417,1.203125,1.109375,-0.203125
18,18,1727346588247,-0.51538086,0.9064331,0.17913818,0.609375,2.65625,-0.234375
19,19,1727346588287,-0.48901367,0.88812256,0.19622803,-0.1875,2.734375,-0.203125
20,20,1727346588327,-0.49829102,0.89593506,0.21038818,0.125,2.53125,-0.890625
21,21,1727346588367,-0.5029297,0.8954468,0.21478271,-0.25,3.078125,0.109375
22,22,1727346588407,-0.5019531,0.8944702,0.20428467,-0.4375,2.25,-0.40625
23,23,1727346588447,-0.4970703,0.8961792,0.20843506,-0.59375,1.0,-0.484375
24,24,1727346588487,-0.49267578,0.8746948,0.1984253,-0.265625,-0.765625,-0.921875
25,25,1727346588527,-0.49243164,0.87957764,0.19891357,-0.890625,-0.8125,-0.375
26,26,1727346588567,-0.50268555,0.8842163,0.20770264,-0.90625,0.203125,-0.328125
27,27,1727346588607,-0.49780273,0.888855,0.20477295,-1.359375,0.0625,-0.21875
28,28,1727346588647,-0.5036621,0.88934326,0.2074585,-1.40625,0.484375,-0.3125
29,29,1727346588687,-0.5078125,0.89593506,0.21746826,-0.40625,0.375,-0.4375
30,30,1727346588727,-0.49121094,0.8883667,0.1906128,-1.25,0.515625,-0.875
31,31,1727346588767,-0.5102539,0.90008545,0.20892334,-0.84375,0.359375,-0.234375
32,32,1727346588807,-0.4909668,0.8890991,0.18939209,-0.34375,2.765625,0.3125
33,33,1727346588847,-0.51049805,0.9113159,0.21160889,-1.59375,0.609375,-0.125
34,34,1727346588887,-0.47924805,0.8685913,0.20037842,-0.84375,0.59375,-0.625
35,35,1727346588927,-0.5097656,0.91156006,0.20574951,-0.125,-0.15625,0.078125
36,36,1727346588967,-0.49389648,0.8925171,0.19915771,-1.28125,0.359375,-0.15625
37,37,1727346589007,-0.50341797,0.88934326,0.20526123,0.3125,1.046875,-0.109375
38,38,1727346589047,-0.4975586,0.8986206,0.19378662,-0.15625,0.25,0.390625
39,39,1727346589087,-0.4946289,0.8969116,0.20965576,1.34375,-0.265625,0.171875
40,40,1727346589127,-0.50341797,0.8981323,0.20721436,0.609375,0.078125,0.375
41,41,1727346589167,-0.5041504,0.8969116,0.21697998,1.0625,0.71875,0.1875
42,42,1727346589207,-0.5131836,0.88812256,0.21087646,0.71875,0.609375,0.171875
43,43,1727346589247,-0.5097656,0.8798218,0.230896,-0.75,-0.28125,0.140625
44,44,1727346589287,-0.5024414,0.88397217,0.21746826,-0.4375,0.59375,-0.53125
45,45,1727346589327,-0.49316406,0.8883667,0.21038818,-0.953125,0.046875,-0.46875
46,46,1727346589367,-0.5090332,0.88494873,0.215271,-1.21875,-0.125,-0.84375
47,47,1727346589407,-0.49023438,0.88494873,0.2098999,-1.28125,0.078125,-0.078125
48,48,1727346589447,-0.49365234,0.89276123,0.20697021,-1.171875,-0.171875,-0.875
49,49,1727346589487,-0.5,0.8954468,0.2033081,-3.171875,-0.578125,-1.0
50,50,1727346589527,-0.49902344,0.9015503,0.21478271,-0.046875,-0.296875,-1.796875
51,51,1727346589567,-0.5078125,0.89886475,0.20574951,-0.390625,-0.59375,-1.265625
52,52,1727346589607,-0.48510742,0.8764038,0.23016357,-1.234375,-1.65625,-0.0625
53,53,1727346589647,-0.4951172,0.8829956,0.20526123,-2.796875,-0.75,0.84375
54,54,1727346589687,-0.51904297,0.9003296,0.21136475,-0.53125,0.96875,0.53125
55,55,1727346589727,-0.5151367,0.8937378,0.17352295,-0.390625,2.578125,0.671875
56,56,1727346589767,-0.5151367,0.90618896,0.22283936,0.828125,0.265625,0.1875
57,57,1727346589807,-0.49731445,0.8812866,0.1828003,-1.578125,0.703125,-0.578125
58,58,1727346589847,-0.50805664,0.90374756,0.21282959,-0.046875,0.0625,0.078125
59,59,1727346589887,-0.5046387,0.8998413,0.2074585,0.3125,0.390625,0.046875
60,60,1727346589927,-0.5048828,0.9039917,0.21502686,-0.15625,-0.03125,-0.34375
61,61,1727346589967,-0.5109863,0.89056396,0.22381592,0.359375,1.34375,-0.8125
62,62,1727346590007,-0.49194336,0.8942261,0.2140503,-0.609375,1.4375,-0.328125
63,63,1727346590047,-0.5126953,0.8866577,0.21795654,-1.09375,2.34375,-0.96875
64,64,1727346590087,-0.48413086,0.8981323,0.20184326,-0.84375,2.015625,-0.28125
65,65,1727346590127,-0.50561523,0.88275146,0.21697998,-0.140625,2.375,-1.046875
66,66,1727346590167,-0.49389648,0.88861084,0.21429443,-1.46875,1.671875,-0.921875
67,67,1727346590207,-0.49536133,0.888855,0.22332764,-2.109375,1.078125,-1.140625
68,68,1727346590247,-0.49267578,0.8866577,0.21209717,-2.375,1.03125,-0.828125
69,69,1727346590287,-0.5004883,0.902771,0.21722412,-2.625,0.6875,-1.0625
70,70,1727346590327,-0.49121094,0.88983154,0.21209717,-1.390625,1.625,-0.46875
71,71,1727346590367,-0.48706055,0.89593506,0.2074585,-1.921875,1.28125,-0.796875
72,72,1727346590407,-0.49536133,0.8883667,0.21697998,-2.328125,2.171875,-0.890625
73,73,1727346590447,-0.4802246,0.88739014,0.19500732,-2.578125,1.625,-0.359375
74,74,1727346590487,-0.4868164,0.9020386,0.19940186,-3.40625,1.859375,-0.828125
75,75,1727346590527,-0.49682617,0.89056396,0.22137451,-2.28125,0.6875,-0.734375
76,76,1727346590567,-0.48168945,0.9003296,0.20135498,-3.25,1.421875,-0.453125
77,77,1727346590607,-0.47875977,0.9039917,0.22650146,-3.015625,-0.15625,-0.90625
78,78,1727346590647,-0.48876953,0.8912964,0.17059326,-3.296875,2.625,-0.484375
79,79,1727346590687,-0.48999023,0.89715576,0.20233154,-1.921875,1.203125,-1.046875
80,80,1727346590727,-0.48291016,0.90374756,0.19256592,0.328125,1.28125,-0.296875
81,81,1727346590767,-0.47875977,0.9047241,0.19207764,-0.734375,0.90625,-0.4375
82,82,1727346590807,-0.48950195,0.9039917,0.2086792,0.203125,0.484375,-0.328125
83,83,1727346590847,-0.4855957,0.901062,0.21356201,0.484375,1.3125,0.1875
84,84,1727346590887,-0.4892578,0.899353,0.22406006,0.109375,0.828125,-0.046875
85,85,1727346590927,-0.4699707,0.8900757,0.2111206,-1.4375,0.421875,-0.234375
86,86,1727346590967,-0.48291016,0.8949585,0.20135498,-1.59375,0.109375,-0.21875
87,87,1727346591007,-0.48608398,0.8949585,0.19036865,-2.859375,-0.875,-0.703125
88,88,1727346591047,-0.49804688,0.90545654,0.20599365,-1.34375,0.078125,-0.296875
89,89,1727346591087,-0.47973633,0.90179443,0.19329834,-1.25,0.25,-0.03125
90,90,1727346591127,-0.484375,0.90301514,0.19403076,-0.9375,0.6875,-0.265625
91,91,1727346591167,-0.484375,0.8978882,0.19818115,-0.328125,0.8125,-0.21875
92,92,1727346591207,-0.47729492,0.9039917,0.20281982,-0.453125,-0.09375,-0.09375
93,93,1727346591247,-0.49169922,0.9047241,0.20697021,-0.125,0.09375,-0.328125
94,94,1727346591287,-0.4831543,0.90179443,0.20355225,-0.25,-0.0625,0.234375
95,95,1727346591327,-0.4897461,0.89715576,0.20599365,-0.25,0.265625,-0.078125
96,96,1727346591367,-0.4868164,0.89398193,0.20916748,0.125,-0.765625,0.0
97,97,1727346591407,-0.49023438,0.89398193,0.19720459,0.03125,-0.015625,-0.1875
98,98,1727346591447,-0.47729492,0.9039917,0.18890381,-1.140625,-1.390625,0.140625
99,99,1727346591487,-0.49194336,0.9069214,0.18939209,-0.25,1.15625,0.046875
100,100,1727346591527,-0.47607422,0.8912964,0.20135498,1.25,-1.796875,-0.21875
101,101,1727346591567,-0.50024414,0.8986206,0.22650146,3.4375,-1.71875,1.109375
102,102,1727346591607,-0.48266602,0.8949585,0.20770264,0.671875,-1.328125,1.359375
103,103,1727346591647,-0.5061035,0.8851929,0.2218628,0.78125,-1.21875,-0.234375
104,104,1727346591687,-0.50512695,0.89837646,0.22357178,0.90625,-0.65625,0.609375
105,105,1727346591727,-0.50512695,0.89642334,0.22113037,0.109375,0.015625,0.4375
106,106,1727346591767,-0.49951172,0.89227295,0.21331787,0.078125,0.65625,0.078125
107,107,1727346591807,-0.49804688,0.8973999,0.20843506,1.125,1.171875,0.859375
108,108,1727346591847,-0.49658203,0.8973999,0.21600342,1.171875,0.6875,0.140625
109,109,1727346591887,-0.5048828,0.8942261,0.24041748,2.1875,-0.03125,-0.28125
110,110,1727346591927,-0.50512695,0.8930054,0.21624756,0.640625,0.75,-0.5
111,111,1727346591967,-0.49267578,0.8900757,0.22332764,-0.640625,0.453125,-1.34375
112,112,1727346592007,-0.5041504,0.8866577,0.23382568,-1.609375,0.46875,-1.515625
113,113,1727346592047,-0.48779297,0.8851929,0.23236084,-1.015625,1.125,-0.875
114,114,1727346592087,-0.49902344,0.89593506,0.22796631,-1.15625,1.21875,-0.796875
115,115,1727346592127,-0.50024414,0.8925171,0.22283936,-1.984375,1.03125,-0.671875
116,116,1727346592167,-0.49023438,0.89056396,0.2140503,-2.5,1.15625,-0.921875
117,117,1727346592207,-0.4987793,0.9015503,0.23260498,-2.53125,0.984375,-0.859375
118,118,1727346592247,-0.4868164,0.8908081,0.2230835,-2.34375,0.84375,-1.140625
119,119,1727346592287,-0.48999023,0.89398193,0.21160889,-1.703125,1.359375,-0.359375
120,120,1727346592327,-0.4802246,0.8930054,0.2062378,-2.90625,0.765625,-0.0625
121,121,1727346592367,-0.49487305,0.90057373,0.20233154,-2.453125,2.390625,-0.40625
122,122,1727346592407,-0.4807129,0.8895874,0.21356201,-0.65625,1.3125,-0.640625
123,123,1727346592447,-0.5124512,0.901062,0.22528076,-0.140625,1.375,-0.171875
124,124,1727346592487,-0.48046875,0.8920288,0.21185303,-0.796875,1.59375,-0.40625
125,125,1727346592527,-0.49536133,0.8973999,0.22161865,-0.84375,0.796875,-0.546875
126,126,1727346592567,-0.49121094,0.8973999,0.22210693,-1.03125,1.015625,-0.375
127,127,1727346592607,-0.49414062,0.89837646,0.23284912,-0.625,0.46875,-0.453125
128,128,1727346592647,-0.48120117,0.89349365,0.21795654,-1.5,0.484375,-0.28125
129,129,1727346592687,-0.49560547,0.90423584,0.2230835,-0.734375,0.734375,-0.328125
130,130,1727346592727,-0.4868164,0.8920288,0.20477295,-1.59375,0.734375,-0.40625
131,131,1727346592767,-0.4831543,0.89593506,0.21282959,-1.875,-0.375,-0.484375
132,132,1727346592807,-0.4897461,0.8969116,0.20721436,-1.640625,-0.140625,-0.53125
133,133,1727346592847,-0.48242188,0.8978882,0.21356201,-0.953125,0.40625,-0.296875
134,134,1727346592887,-0.4897461,0.89227295,0.21673584,-0.75,0.84375,0.046875
135,135,1727346592927,-0.48461914,0.8998413,0.21331787,-0.546875,0.875,-0.1875
136,136,1727346592967,-0.4934082,0.89959717,0.21697998,-0.625,0.734375,-0.375
137,137,1727346593007,-0.4855957,0.89593506,0.21356201,-0.84375,0.609375,-0.234375
138,138,1727346593047,-0.49072266,0.8991089,0.21356201,-1.078125,0.6875,-0.296875
139,139,1727346593087,-0.48828125,0.9022827,0.21429443,-0.484375,0.515625,-0.1875
140,140,1727346593127,-0.47827148,0.89520264,0.215271,-1.28125,-0.015625,-0.453125
141,141,1727346593167,-0.4868164,0.89642334,0.2086792,-0.53125,0.53125,-0.015625
142,142,1727346593207,-0.49316406,0.89959717,0.2062378,-1.1875,1.625,0.0625
143,143,1727346593247,-0.50219727,0.90545654,0.23529053,0.328125,0.9375,-0.046875
144,144,1727346593287,-0.4699707,0.88031006,0.20916748,-0.953125,1.09375,-0.703125
145,145,1727346593327,-0.49902344,0.90130615,0.2255249,0.0625,1.171875,-0.015625
146,146,1727346593367,-0.47314453,0.89593506,0.20574951,-0.5,0.8125,-0.03125
147,147,1727346593407,-0.48266602,0.8903198,0.22235107,-0.9375,0.296875,-0.5625
148,148,1727346593447,-0.48535156,0.9003296,0.22406006,-0.609375,0.234375,0.0
149,149,1727346593487,-0.48217773,0.9047241,0.22210693,-0.546875,0.46875,0.15625
150,150,1727346593527,-0.49438477,0.8932495,0.21185303,-1.1875,0.828125,0.359375
151,151,1727346593567,-0.48364258,0.8981323,0.2218628,-0.84375,0.328125,-0.265625
152,152,1727346593607,-0.48242188,0.8859253,0.21600342,-0.96875,0.25,0.0
153,153,1727346593647,-0.48876953,0.8973999,0.21575928,-1.875,-0.171875,-0.296875
154,154,1727346593687,-0.49291992,0.89520264,0.21551514,-0.546875,0.8125,-0.015625
155,155,1727346593727,-0.48217773,0.89886475,0.21014404,-0.9375,0.59375,-0.34375
156,156,1727346593767,-0.4873047,0.9057007,0.21380615,-0.625,0.296875,-0.53125
157,157,1727346593807,-0.48583984,0.8954468,0.22650146,-0.984375,0.359375,-0.328125
158,158,1727346593847,-0.48632812,0.8954468,0.22283936,-0.53125,0.453125,-0.125
159,159,1727346593887,-0.49047852,0.89593506,0.21575928,-0.40625,0.671875,0.0
160,160,1727346593927,-0.48608398,0.89520264,0.21014404,-0.28125,1.0,-0.140625
161,161,1727346593967,-0.49072266,0.89276123,0.22015381,-0.46875,0.21875,-0.1875
162,162,1727346594007,-0.47827148,0.88934326,0.22894287,-0.71875,0.5,-0.625
163,163,1727346594047,-0.48754883,0.8978882,0.22381592,-0.53125,0.734375,-0.4375
164,164,1727346594087,-0.47998047,0.8920288,0.22796631,-0.796875,-0.0625,-0.46875
165,165,1727346594127,-0.49023438,0.88983154,0.22698975,-1.046875,0.25,-0.359375
166,166,1727346594167,-0.4711914,0.9064331,0.20697021,-1.765625,-0.046875,-0.1875
167,167,1727346594207,-0.48779297,0.9020386,0.19989014,-1.21875,1.4375,-0.15625
168,168,1727346594247,-0.48876953,0.8912964,0.2255249,0.421875,0.703125,-0.390625
169,169,1727346594287,-0.49267578,0.8954468,0.22479248,0.921875,1.0,0.34375
170,170,1727346594327,-0.4987793,0.8966675,0.21258545,-0.5,0.953125,-0.28125
171,171,1727346594367,-0.49438477,0.88861084,0.22454834,-0.1875,0.578125,-0.125
172,172,1727346594407,-0.48413086,0.89227295,0.230896,-0.578125,0.671875,-0.390625
173,173,1727346594447,-0.48486328,0.9003296,0.23138428,-0.21875,0.40625,-0.75
174,174,1727346594487,-0.4638672,0.90179443,0.21429443,-1.609375,-0.09375,-0.578125
175,175,1727346594527,-0.48876953,0.89056396,0.23382568,-1.21875,-0.03125,-0.28125
176,176,1727346594567,-0.48950195,0.89764404,0.22528076,-0.125,1.078125,0.484375
177,177,1727346594607,-0.4855957,0.8969116,0.21722412,-0.6875,0.84375,-0.328125
178,178,1727346594647,-0.47827148,0.8915405,0.21258545,0.703125,0.359375,-0.140625
179,179,1727346594687,-0.48754883,0.8966675,0.23040771,0.171875,0.671875,-0.03125
180,180,1727346594727,-0.49291992,0.89276123,0.23944092,0.484375,0.875,0.171875
181,181,1727346594767,-0.48876953,0.8859253,0.23822021,0.453125,1.109375,0.25
182,182,1727346594807,-0.48779297,0.8932495,0.230896,-0.28125,1.03125,-0.21875
183,183,1727346594847,-0.46704102,0.8944702,0.21942139,-1.28125,-0.078125,-0.375
184,184,1727346594887,-0.48876953,0.89520264,0.2321167,-1.828125,-0.8125,-0.515625
185,185,1727346594927,-0.48828125,0.89642334,0.24383545,-1.921875,0.140625,0.078125
186,186,1727346594967,-0.49731445,0.88983154,0.23431396,-0.953125,0.9375,0.15625
187,187,1727346595007,-0.49072266,0.89349365,0.21844482,-1.078125,1.140625,-0.1875
188,188,1727346595047,-0.4909668,0.89642334,0.22137451,0.203125,0.734375,-0.09375
189,189,1727346595087,-0.49145508,0.8932495,0.22943115,0.140625,0.78125,-0.234375
190,190,1727346595127,-0.50268555,0.8969116,0.26849365,-0.0625,-0.59375,-0.15625
191,191,1727346595167,-0.47485352,0.88153076,0.22332764,-2.296875,1.265625,-0.34375
192,192,1727346595207,-0.5114746,0.9064331,0.24310303,-0.921875,0.765625,0.203125
193,193,1727346595247,-0.47827148,0.8890991,0.20941162,-1.0625,0.84375,-0.015625
194,194,1727346595287,-0.49121094,0.8895874,0.22943115,-1.203125,-0.015625,-0.828125
195,195,1727346595327,-0.4897461,0.8954468,0.24188232,-1.109375,0.25,-0.5
196,196,1727346595367,-0.48779297,0.89178467,0.22503662,-0.8125,0.640625,-0.015625
197,197,1727346595407,-0.49267578,0.8903198,0.23944092,-0.46875,0.8125,-0.03125
198,198,1727346595447,-0.48291016,0.88739014,0.22991943,-1.296875,0.359375,-0.46875
199,199,1727346595487,-0.4934082,0.89886475,0.23577881,-1.21875,0.453125,-0.125
200,200,1727346595527,-0.4868164,0.89471436,0.21966553,-2.171875,0.359375,-0.328125
201,201,1727346595567,-0.49975586,0.8915405,0.23919678,-1.421875,0.5,-0.734375
202,202,1727346595607,-0.48657227,0.8954468,0.2321167,-1.59375,0.890625,-0.34375
203,203,1727346595647,-0.47607422,0.8956909,0.22406006,-1.46875,1.0625,-0.75
204,204,1727346595687,-0.48876953,0.8908081,0.2255249,-1.484375,0.515625,-0.625
205,205,1727346595727,-0.4909668,0.901062,0.22894287,-1.0625,0.984375,-0.265625
206,206,1727346595767,-0.4958496,0.8986206,0.24432373,-1.734375,1.3125,-0.40625
207,207,1727346595807,-0.48291016,0.8949585,0.22747803,-2.140625,1.03125,-0.359375
208,208,1727346595847,-0.47998047,0.8973999,0.22503662,-1.953125,0.875,-0.765625
209,209,1727346595887,-0.47827148,0.90057373,0.22137451,-2.390625,0.53125,-0.734375
210,210,1727346595927,-0.48608398,0.8956909,0.21917725,-2.15625,0.59375,-0.578125
211,211,1727346595967,-0.48461914,0.8973999,0.22479248,-1.03125,0.375,-0.375
212,212,1727346596007,-0.48754883,0.89886475,0.22235107,-1.125,1.046875,-0.390625
213,213,1727346596047,-0.46850586,0.8986206,0.22503662,-1.75,0.53125,-0.46875
214,214,1727346596087,-0.4819336,0.90179443,0.20941162,-1.75,2.03125,-0.328125
215,215,1727346596127,-0.47680664,0.8956909,0.22381592,-0.8125,0.78125,-0.453125
216,216,1727346596167,-0.48486328,0.89837646,0.22161865,-0.515625,0.78125,0.25
217,217,1727346596207,-0.47558594,0.8961792,0.21478271,-0.8125,0.1875,-0.375
218,218,1727346596247,-0.48510742,0.8932495,0.21575928,-0.515625,-0.234375,-0.21875
219,219,1727346596287,-0.47875977,0.9032593,0.21966553,-0.75,-0.03125,-0.125
220,220,1727346596327,-0.48828125,0.8966675,0.23406982,0.28125,0.0,0.09375
221,221,1727346596367,-0.48120117,0.90008545,0.21356201,-0.59375,0.6875,0.21875
222,222,1727346596407,-0.49023438,0.89520264,0.22650146,0.046875,1.09375,0.296875
223,223,1727346596447,-0.47460938,0.8903198,0.22015381,-0.59375,0.484375,0.125
224,224,1727346596487,-0.49047852,0.90545654,0.2243042,-1.109375,0.140625,-0.390625
225,225,1727346596527,-0.484375,0.90008545,0.2177124,-0.953125,0.21875,-0.390625
226,226,1727346596567,-0.47680664,0.89520264,0.22503662,-0.8125,0.046875,-0.46875
227,227,1727346596607,-0.4868164,0.9008179,0.22113037,0.15625,-0.234375,-0.171875
228,228,1727346596647,-0.4807129,0.89178467,0.21942139,0.046875,-0.03125,0.640625
229,229,1727346596687,-0.4921875,0.899353,0.21697998,0.125,0.015625,0.1875
230,230,1727346596727,-0.48486328,0.89178467,0.2267456,0.1875,-0.375,0.203125
231,231,1727346596767,-0.48291016,0.89715576,0.22259521,0.34375,-0.09375,0.234375
232,232,1727346596807,-0.49047852,0.89715576,0.23040771,0.265625,-0.203125,0.265625
233,233,1727346596847,-0.4873047,0.89471436,0.23138428,-0.375,0.9375,0.5
234,234,1727346596887,-0.48657227,0.8883667,0.23675537,0.0625,0.609375,0.078125
235,235,1727346596927,-0.49023438,0.89349365,0.22259521,-0.796875,0.953125,0.140625
236,236,1727346596967,-0.4819336,0.90618896,0.2477417,-1.078125,-1.21875,-0.1875
237,237,1727346597007,-0.48632812,0.88616943,0.20599365,-0.875,1.375,-0.1875
238,238,1727346597047,-0.49023438,0.89227295,0.23138428,-0.390625,0.703125,-0.03125
239,239,1727346597087,-0.5031738,0.89398193,0.23602295,-0.171875,0.28125,0.359375
240,240,1727346597127,-0.48999023,0.8966675,0.22845459,-0.609375,0.640625,0.046875
241,241,1727346597167,-0.49145508,0.8954468,0.2321167,-0.484375,0.578125,-0.078125
242,242,1727346597207,-0.48608398,0.89105225,0.23065186,-0.90625,-0.078125,0.21875
243,243,1727346597247,-0.49047852,0.8973999,0.24163818,-0.046875,-0.578125,0.078125
244,244,1727346597287,-0.49072266,0.8978882,0.22894287,-0.21875,0.359375,0.28125
245,245,1727346597327,-0.48779297,0.8829956,0.2345581,-0.40625,0.421875,0.1875
246,246,1727346597367,-0.49609375,0.887146,0.2333374,0.03125,0.34375,0.359375
247,247,1727346597407,-0.4963379,0.8851929,0.2345581,-0.984375,0.421875,-0.015625
248,248,1727346597447,-0.49365234,0.8903198,0.23309326,-0.203125,0.625,-0.125
249,249,1727346597487,-0.4909668,0.8834839,0.23358154,-0.75,0.359375,-0.09375
250,250,1727346597527,-0.48754883,0.8908081,0.2374878,-0.75,0.109375,-0.40625
251,251,1727346597567,-0.50219727,0.8890991,0.2399292,-0.609375,0.3125,-0.03125
252,252,1727346597607,-0.49536133,0.8915405,0.23724365,-0.5,0.828125,-0.296875
253,253,1727346597647,-0.49414062,0.8949585,0.22943115,-0.3125,0.953125,-0.125
254,254,1727346597687,-0.49780273,0.8883667,0.24017334,-0.65625,1.171875,-0.5
255,255,1727346597727,-0.48828125,0.89471436,0.24139404,-1.9375,0.015625,-0.375
256,256,1727346597767,-0.49414062,0.8883667,0.2345581,-1.46875,0.546875,-0.375
257,257,1727346597807,-0.5,0.8912964,0.24212646,-0.953125,1.0625,-0.609375
258,258,1727346597847,-0.49145508,0.8903198,0.24212646,-1.421875,1.4375,-0.484375
259,259,1727346597887,-0.4946289,0.88983154,0.262146,-1.125,-0.75,-0.703125
260,260,1727346597927,-0.48779297,0.8912964,0.21014404,-2.171875,2.0,-0.34375
261,261,1727346597967,-0.5019531,0.8895874,0.24212646,-1.78125,1.046875,-1.140625
262,262,1727346598007,-0.4897461,0.8973999,0.23358154,-0.421875,0.984375,-0.28125
263,263,1727346598047,-0.4880371,0.89886475,0.22576904,-2.3125,0.828125,-0.921875
264,264,1727346598087,-0.4946289,0.8944702,0.23944092,-1.015625,0.90625,-0.890625
265,265,1727346598127,-0.47338867,0.8915405,0.23114014,-1.703125,1.15625,-0.71875
266,266,1727346598167,-0.48754883,0.8912964,0.24139404,-0.546875,0.90625,-0.375
267,267,1727346598207,-0.4741211,0.8944702,0.22235107,-1.9375,1.0,-0.1875
268,268,1727346598247,-0.4909668,0.88812256,0.2374878,-1.421875,0.796875,-0.5
269,269,1727346598287,-0.4855957,0.8978882,0.22601318,-1.9375,1.125,-0.1875
270,270,1727346598327,-0.49145508,0.8920288,0.23773193,-2.03125,0.8125,-0.671875
271,271,1727346598367,-0.49047852,0.89837646,0.2387085,-2.359375,1.578125,-0.34375
272,272,1727346598407,-0.48510742,0.8969116,0.22381592,-2.71875,1.296875,-0.625
273,273,1727346598447,-0.4807129,0.9003296,0.22454834,-2.15625,0.9375,-0.640625
274,274,1727346598487,-0.48217773,0.90448,0.22015381,-2.34375,0.828125,-0.59375
275,275,1727346598527,-0.48486328,0.8942261,0.22235107,-2.453125,0.703125,-0.390625
276,276,1727346598567,-0.484375,0.89178467,0.21551514,-2.15625,1.609375,-0.5
277,277,1727346598607,-0.4855957,0.8956909,0.21258545,-1.328125,1.796875,-0.421875
278,278,1727346598647,-0.48046875,0.8961792,0.22235107,-0.75,0.71875,-0.21875
279,279,1727346598687,-0.49121094,0.8969116,0.22576904,-0.921875,1.53125,-0.109375
280,280,1727346598727,-0.47875977,0.8908081,0.21942139,-2.34375,1.609375,-0.953125
281,281,1727346598767,-0.49072266,0.9039917,0.24847412,-1.5625,-0.171875,-0.875
282,282,1727346598807,-0.45629883,0.8847046,0.20355225,-3.078125,0.921875,-0.84375
283,283,1727346598847,-0.49731445,0.91571045,0.22039795,-2.0625,0.234375,-0.515625
284,284,1727346598887,-0.46826172,0.90960693,0.20013428,-0.890625,0.625,-0.125
285,285,1727346598927,-0.47827148,0.9035034,0.21234131,-0.59375,0.828125,-0.4375
286,286,1727346598967,-0.47583008,0.9142456,0.21185303,-0.171875,0.890625,-0.09375
287,287,1727346599007,-0.47875977,0.90740967,0.21820068,-0.296875,0.265625,0.09375
288,288,1727346599047,-0.4794922,0.90301514,0.21917725,0.21875,0.484375,0.65625
289,289,1727346599087,-0.4724121,0.89178467,0.22039795,-0.109375,0.578125,0.15625
290,290,1727346599127,-0.49487305,0.88861084,0.22747803,-0.234375,0.734375,-0.078125
291,291,1727346599167,-0.47387695,0.8961792,0.21502686,-0.78125,0.453125,-0.25
292,292,1727346599207,-0.484375,0.89642334,0.22625732,-1.0,0.109375,-0.53125
293,293,1727346599247,-0.46826172,0.8954468,0.2177124,-1.4375,-0.234375,-0.609375
294,294,1727346599287,-0.4855957,0.90374756,0.21942139,-0.875,0.3125,-0.1875
295,295,1727346599327,-0.4765625,0.9020386,0.21990967,-0.109375,0.515625,0.53125
296,296,1727346599367,-0.48364258,0.8981323,0.22259521,-0.390625,0.921875,0.125
297,297,1727346599407,-0.48168945,0.8966675,0.2255249,-0.1875,0.515625,0.171875
298,298,1727346599447,-0.4802246,0.8998413,0.22479248,-0.96875,0.375,-0.21875
299,299,1727346599487,-0.48339844,0.9015503,0.22528076,-0.265625,0.09375,-0.03125
300,300,1727346599527,-0.47705078,0.89227295,0.22796631,-0.734375,-0.59375,-0.21875
301,301,1727346599567,-0.48632812,0.8915405,0.2177124,0.15625,0.296875,0.3125
302,302,1727346599607,-0.47338867,0.90179443,0.20404053,-0.71875,0.515625,0.171875
303,303,1727346599647,-0.49121094,0.90008545,0.22528076,0.96875,0.421875,0.109375
304,304,1727346599687,-0.46923828,0.88201904,0.21282959,0.765625,-0.015625,0.140625
305,305,1727346599727,-0.49682617,0.9039917,0.23602295,1.84375,-0.828125,1.046875
306,306,1727346599767,-0.48168945,0.8930054,0.22406006,1.53125,-0.75,1.390625
307,307,1727346599807,-0.49804688,0.8925171,0.2345581,1.046875,0.0,0.40625
308,308,1727346599847,-0.48876953,0.89178467,0.23431396,0.25,0.0,0.125
309,309,1727346599887,-0.48535156,0.8925171,0.2387085,0.171875,-0.015625,0.109375
310,310,1727346599927,-0.49487305,0.8920288,0.2374878,-0.5,0.515625,0.390625
311,311,1727346599967,-0.48583984,0.8954468,0.24139404,-0.6875,0.359375,0.375
312,312,1727346600007,-0.5004883,0.8920288,0.24456787,0.4375,1.078125,0.03125
313,313,1727346600047,-0.48510742,0.8822632,0.23406982,-0.5,0.65625,0.328125
314,314,1727346600087,-0.49194336,0.89593506,0.24261475,-0.40625,0.421875,-0.234375
315,315,1727346600127,-0.48999023,0.8908081,0.23577881,-0.265625,0.21875,-0.015625
316,316,1727346600167,-0.48388672,0.8900757,0.24090576,-0.453125,0.5,-0.5
317,317,1727346600207,-0.48950195,0.8842163,0.23895264,-0.328125,0.171875,-0.015625
318,318,1727346600247,-0.4963379,0.88934326,0.24383545,0.125,-0.15625,0.015625
319,319,1727346600287,-0.49536133,0.8876343,0.24066162,0.453125,0.15625,-0.15625
320,320,1727346600327,-0.48901367,0.8890991,0.24090576,0.0,-0.046875,0.0625
321,321,1727346600367,-0.5041504,0.8903198,0.25360107,0.0,0.171875,-0.0625
322,322,1727346600407,-0.48657227,0.8817749,0.24969482,-0.203125,-0.09375,0.265625
323,323,1727346600447,-0.49902344,0.88568115,0.24798584,0.3125,0.640625,0.125
324,324,1727346600487,-0.4868164,0.8817749,0.23138428,-1.0625,0.828125,0.34375
325,325,1727346600527,-0.5114746,0.888855,0.25701904,-0.09375,0.65625,0.0625
326,326,1727346600567,-0.484375,0.8781128,0.23919678,-1.15625,0.734375,-0.34375
327,327,1727346600607,-0.4970703,0.89178467,0.2514038,-0.1875,-0.265625,0.203125
328,328,1727346600647,-0.49658203,0.88446045,0.24993896,0.21875,0.34375,0.109375
329,329,1727346600687,-0.49780273,0.88568115,0.25531006,-0.265625,0.5,-0.140625
330,330,1727346600727,-0.4987793,0.88153076,0.25628662,-0.796875,0.90625,-0.484375
331,331,1727346600767,-0.49194336,0.8851929,0.24188232,-1.578125,0.375,-0.296875
332,332,1727346600807,-0.50439453,0.88812256,0.25604248,-1.578125,0.59375,-0.328125
333,333,1727346600847,-0.49731445,0.8822632,0.24725342,-1.40625,0.640625,-0.390625
334,334,1727346600887,-0.50439453,0.88153076,0.2506714,-1.375,0.484375,-0.5625
335,335,1727346600927,-0.4921875,0.8829956,0.25408936,-1.734375,0.71875,-0.53125
336,336,1727346600967,-0.49365234,0.888855,0.24920654,-1.4375,0.46875,-0.609375
337,337,1727346601007,-0.49804688,0.8876343,0.246521,-1.453125,0.453125,-0.6875
338,338,1727346601047,-0.49389648,0.8912964,0.24481201,-1.03125,1.0,-0.453125
339,339,1727346601087,-0.49194336,0.8859253,0.24798584,-1.5625,1.046875,-0.53125
340,340,1727346601127,-0.49072266,0.8912964,0.24725342,-1.796875,0.78125,-0.546875
341,341,1727346601167,-0.48999023,0.8842163,0.24456787,-1.40625,1.15625,-0.59375
342,342,1727346601207,-0.48901367,0.8908081,0.24481201,-2.296875,1.109375,-0.84375
343,343,1727346601247,-0.4951172,0.8937378,0.25091553,-1.890625,1.0,-0.71875
344,344,1727346601287,-0.4802246,0.88690186,0.23968506,-2.265625,0.625,-0.625
345,345,1727346601327,-0.49536133,0.8903198,0.23797607,-1.40625,1.03125,-0.609375
346,346,1727346601367,-0.4909668,0.8876343,0.22698975,-2.265625,2.03125,-0.640625
347,347,1727346601407,-0.4880371,0.89642334,0.24627686,-1.78125,1.078125,-0.6875
348,348,1727346601447,-0.47705078,0.87908936,0.22698975,-2.0625,1.421875,-0.703125
349,349,1727346601487,-0.50561523,0.89105225,0.24578857,-1.125,0.765625,-0.34375
350,350,1727346601527,-0.48461914,0.8895874,0.23236084,-1.4375,1.421875,-0.171875
351,351,1727346601567,-0.48535156,0.8883667,0.23504639,-1.703125,1.0625,-0.890625
352,352,1727346601607,-0.48339844,0.8937378,0.23529053,-1.53125,0.828125,-0.65625
353,353,1727346601647,-0.48632812,0.89105225,0.2321167,-1.484375,0.546875,-0.375
354,354,1727346601687,-0.48901367,0.8937378,0.23773193,-2.109375,0.84375,-0.25
355,355,1727346601727,-0.4807129,0.8895874,0.23358154,-1.734375,1.28125,-0.59375
356,356,1727346601767,-0.48583984,0.8912964,0.24578857,-1.359375,0.296875,-0.484375
357,357,1727346601807,-0.4790039,0.8900757,0.23138428,-2.171875,0.3125,-0.59375
358,358,1727346601847,-0.48388672,0.89764404,0.23138428,-1.546875,0.484375,-0.671875
359,359,1727346601887,-0.47998047,0.89276123,0.22650146,-1.203125,0.328125,-0.1875
360,360,1727346601927,-0.48242188,0.89105225,0.22991943,-0.9375,0.453125,-0.046875
361,361,1727346601967,-0.48266602,0.89276123,0.23284912,-0.609375,0.71875,-0.078125
362,362,1727346602007,-0.47729492,0.8956909,0.23602295,-0.53125,0.546875,-0.171875
363,363,1727346602047,-0.48461914,0.89398193,0.22918701,-0.453125,0.8125,0.078125
364,364,1727346602087,-0.48364258,0.888855,0.23309326,-0.734375,0.546875,-0.1875
365,365,1727346602127,-0.4868164,0.89764404,0.23846436,-0.453125,0.203125,-0.0625
366,366,1727346602167,-0.47802734,0.88861084,0.23382568,-1.140625,0.0625,-0.46875
367,367,1727346602207,-0.4807129,0.8949585,0.22943115,-0.375,0.65625,0.015625
368,368,1727346602247,-0.4897461,0.8966675,0.2243042,-1.125,1.21875,-0.328125
369,369,1727346602287,-0.4885254,0.8932495,0.24847412,0.0625,0.578125,0.171875
370,370,1727346602327,-0.46875,0.8739624,0.22601318,-0.859375,0.9375,-0.28125
371,371,1727346602367,-0.5029297,0.9052124,0.24993896,-0.15625,0.515625,0.28125
372,372,1727346602407,-0.4741211,0.8903198,0.22357178,-0.21875,0.6875,0.15625
373,373,1727346602447,-0.48364258,0.8876343,0.22894287,-0.796875,0.078125,-0.515625
374,374,1727346602487,-0.48510742,0.89349365,0.23651123,-0.5,-0.0625,-0.078125
375,375,1727346602527,-0.48461914,0.89398193,0.23162842,-0.1875,0.4375,0.015625
376,376,1727346602567,-0.49658203,0.89178467,0.23553467,-0.421875,0.21875,0.140625
377,377,1727346602607,-0.48583984,0.888855,0.24285889,-0.453125,0.1875,-0.03125
378,378,1727346602647,-0.48950195,0.8890991,0.2423706,-0.21875,0.34375,0.046875
379,379,1727346602687,-0.48242188,0.89349365,0.23382568,-1.359375,0.234375,-0.3125
380,380,1727346602727,-0.48583984,0.88983154,0.24066162,-0.90625,0.015625,-0.171875
381,381,1727346602767,-0.4868164,0.88812256,0.23699951,-0.859375,0.125,-0.15625
382,382,1727346602807,-0.48754883,0.888855,0.23773193,-0.96875,0.546875,-0.25
383,383,1727346602847,-0.49072266,0.8890991,0.24090576,-0.796875,0.421875,-0.203125
384,384,1727346602887,-0.4831543,0.88861084,0.23382568,-0.734375,0.640625,-0.34375
385,385,1727346602927,-0.49194336,0.8876343,0.24017334,-0.765625,0.40625,-0.28125
386,386,1727346602967,-0.4873047,0.88934326,0.23797607,-0.796875,0.328125,-0.296875
387,387,1727346603007,-0.48950195,0.88983154,0.23699951,-0.78125,0.484375,-0.25
388,388,1727346603047,-0.4855957,0.8981323,0.23358154,-0.71875,0.375,-0.34375
389,389,1727346603087,-0.48217773,0.885437,0.23699951,-0.5,0.078125,-0.140625
390,390,1727346603127,-0.48950195,0.8878784,0.2333374,-0.296875,0.578125,0.09375
391,391,1727346603167,-0.48168945,0.88690186,0.2296753,-1.125,1.046875,-0.109375
392,392,1727346603207,-0.49902344,0.9015503,0.24188232,-0.34375,1.09375,0.140625
393,393,1727346603247,-0.47802734,0.8773804,0.22772217,-0.78125,0.625,-0.640625
394,394,1727346603287,-0.50390625,0.8912964,0.2411499,-0.203125,0.375,0.140625
395,395,1727346603327,-0.48217773,0.8890991,0.22772217,-0.953125,0.453125,-0.125
396,396,1727346603367,-0.49414062,0.8903198,0.23724365,-0.4375,0.28125,-0.4375
397,397,1727346603407,-0.48510742,0.89276123,0.24334717,-0.640625,-0.03125,-0.1875
398,398,1727346603447,-0.4814453,0.8900757,0.23699951,-0.640625,0.359375,0.171875
399,399,1727346603487,-0.4934082,0.88861084,0.23797607,-0.265625,0.578125,0.15625
400,400,1727346603527,-0.49047852,0.883728,0.24261475,-0.59375,0.5625,-0.09375
401,401,1727346603567,-0.49316406,0.8878784,0.24822998,-0.5,0.28125,-0.015625
402,402,1727346603607,-0.49438477,0.88568115,0.23236084,-1.03125,0.3125,-0.171875
403,403,1727346603647,-0.49438477,0.89227295,0.24456787,-0.953125,0.21875,-0.40625
404,404,1727346603687,-0.48657227,0.8915405,0.23724365,-1.171875,0.375,-0.5
405,405,1727346603727,-0.48706055,0.8895874,0.24041748,-1.21875,0.453125,-0.53125
406,406,1727346603767,-0.49243164,0.8851929,0.23895264,-1.265625,0.515625,-0.328125
407,407,1727346603807,-0.4873047,0.8912964,0.23822021,-1.296875,0.375,-0.34375
408,408,1727346603847,-0.49389648,0.8866577,0.24310303,-1.25,0.671875,-0.3125
409,409,1727346603887,-0.48608398,0.88739014,0.2399292,-1.046875,0.640625,-0.5
410,410,1727346603927,-0.49194336,0.88812256,0.24041748,-1.21875,0.46875,-0.453125
411,411,1727346603967,-0.49145508,0.88690186,0.23773193,-2.046875,0.3125,-0.5625
412,412,1727346604007,-0.49780273,0.8895874,0.24871826,-1.140625,0.171875,-0.609375
413,413,1727346604047,-0.48876953,0.89349365,0.23016357,-1.390625,0.796875,-0.328125
414,414,1727346604087,-0.47802734,0.8930054,0.23553467,-1.875,0.53125,-0.421875
415,415,1727346604127,-0.49267578,0.8944702,0.22259521,-1.65625,1.515625,-0.53125
416,416,1727346604167,-0.48364258,0.8825073,0.23895264,-1.171875,0.890625,-0.703125
417,417,1727346604207,-0.49194336,0.8912964,0.24163818,-0.921875,0.8125,-0.28125
418,418,1727346604247,-0.48242188,0.8908081,0.22576904,-1.84375,1.140625,-0.578125
419,419,1727346604287,-0.48510742,0.8930054,0.22796631,-1.0625,1.15625,-0.796875
420,420,1727346604327,-0.48217773,0.89764404,0.23406982,-1.3125,0.703125,-0.625
421,421,1727346604367,-0.48291016,0.8912964,0.2423706,-1.09375,0.625,-0.625
422,422,1727346604407,-0.48583984,0.8949585,0.23065186,-1.71875,1.484375,-0.296875
423,423,1727346604447,-0.48364258,0.89349365,0.22918701,-1.921875,1.0625,-0.765625
424,424,1727346604487,-0.4880371,0.8864136,0.23626709,-1.296875,0.984375,-0.65625
425,425,1727346604527,-0.47460938,0.8966675,0.22772217,-2.5,0.515625,-0.890625
426,426,1727346604567,-0.4868164,0.89276123,0.22918701,-1.96875,1.0625,-0.71875
427,427,1727346604607,-0.47680664,0.8954468,0.2255249,-2.078125,0.5625,-0.5625
428,428,1727346604647,-0.48388672,0.90008545,0.22943115,-1.890625,0.640625,-0.703125
429,429,1727346604687,-0.4765625,0.89837646,0.22869873,-1.515625,1.0,-0.296875
430,430,1727346604727,-0.4777832,0.89886475,0.22625732,-1.609375,0.8125,-0.3125
431,431,1727346604767,-0.47631836,0.9057007,0.22259521,-1.4375,0.828125,-0.3125
432,432,1727346604807,-0.47875977,0.8944702,0.22650146,-1.328125,0.328125,-0.265625
433,433,1727346604847,-0.47607422,0.9057007,0.2333374,-0.5,0.125,-0.015625
434,434,1727346604887,-0.4807129,0.8915405,0.22625732,-1.140625,0.078125,-0.328125
435,435,1727346604927,-0.4807129,0.8956909,0.22088623,-0.0625,0.859375,0.125
436,436,1727346604967,-0.48388672,0.8969116,0.2189331,-0.53125,1.390625,-0.03125
437,437,1727346605007,-0.48608398,0.90618896,0.25164795,0.671875,0.109375,-0.046875
438,438,1727346605047,-0.46118164,0.87664795,0.21209717,-0.625,1.109375,-0.1875
439,439,1727346605087,-0.5004883,0.91033936,0.2423706,0.1875,0.296875,0.46875
440,440,1727346605127,-0.47631836,0.88983154,0.21795654,-0.0625,0.46875,0.390625
441,441,1727346605167,-0.48486328,0.89227295,0.230896,-1.109375,0.328125,-0.25
442,442,1727346605207,-0.4765625,0.8969116,0.23309326,-0.109375,-0.1875,0.046875
443,443,1727346605247,-0.47973633,0.8986206,0.2230835,-0.046875,-0.203125,0.390625
444,444,1727346605287,-0.49291992,0.89959717,0.23724365,0.390625,-0.125,0.5
445,445,1727346605327,-0.4716797,0.88739014,0.23284912,0.015625,0.34375,0.015625
446,446,1727346605367,-0.48364258,0.89105225,0.24261475,0.4375,-0.078125,0.296875
447,447,1727346605407,-0.48339844,0.8932495,0.23553467,0.421875,0.171875,0.296875
448,448,1727346605447,-0.4807129,0.8903198,0.23724365,-0.25,0.046875,0.25
449,449,1727346605487,-0.49414062,0.89056396,0.23016357,0.171875,0.109375,0.03125
450,450,1727346605527,-0.48486328,0.89520264,0.23529053,0.296875,0.125,-0.03125
451,451,1727346605567,-0.49023438,0.8895874,0.23797607,-0.921875,-0.3125,-0.0625
452,452,1727346605607,-0.48461914,0.88983154,0.24261475,-0.328125,0.03125,0.046875
453,453,1727346605647,-0.49121094,0.89593506,0.23895264,-0.171875,-0.0625,0.25
454,454,1727346605687,-0.49145508,0.8903198,0.23895264,0.234375,-0.28125,0.28125
455,455,1727346605727,-0.49291992,0.8812866,0.24481201,-0.03125,-0.171875,0.4375
456,456,1727346605767,-0.4958496,0.8895874,0.24139404,0.234375,0.171875,0.578125
457,457,1727346605807,-0.48339844,0.88446045,0.2489624,0.125,-0.5625,0.265625
458,458,1727346605847,-0.49658203,0.8825073,0.24749756,0.890625,0.484375,0.4375
459,459,1727346605887,-0.47998047,0.8798218,0.23114014,-1.375,0.640625,0.078125
460,460,1727346605927,-0.5065918,0.887146,0.2555542,-0.09375,1.140625,0.15625
461,461,1727346605967,-0.4807129,0.87664795,0.22991943,-0.734375,0.625,-0.34375
462,462,1727346606007,-0.5085449,0.89471436,0.25115967,-0.734375,-0.375,-0.09375
463,463,1727346606047,-0.48632812,0.88690186,0.24334717,0.046875,-0.015625,0.09375
464,464,1727346606087,-0.5,0.88568115,0.24310303,-0.703125,0.15625,-0.421875
465,465,1727346606127,-0.501709,0.8876343,0.24749756,-0.359375,1.03125,-0.6875
466,466,1727346606167,-0.4873047,0.88275146,0.24920654,-0.5625,0.5,0.15625
467,467,1727346606207,-0.49975586,0.89715576,0.24725342,-1.15625,0.8125,0.046875
468,468,1727346606247,-0.49829102,0.8812866,0.2543335,-1.03125,0.71875,-0.265625
469,469,1727346606287,-0.4963379,0.8864136,0.2518921,-1.078125,0.75,-0.234375
470,470,1727346606327,-0.49316406,0.88323975,0.2477417,-1.921875,0.46875,-0.625
471,471,1727346606367,-0.5031738,0.88275146,0.24578857,-1.484375,0.640625,-0.59375
472,472,1727346606407,-0.49047852,0.88079834,0.24603271,-1.6875,0.96875,-0.609375
473,473,1727346606447,-0.4963379,0.8859253,0.2423706,-1.734375,0.90625,-0.84375
474,474,1727346606487,-0.49194336,0.89178467,0.2477417,-1.734375,0.828125,-0.5
475,475,1727346606527,-0.49560547,0.88568115,0.24578857,-1.390625,0.71875,-0.5
476,476,1727346606567,-0.4873047,0.8829956,0.23504639,-1.40625,1.28125,-0.546875
477,477,1727346606607,-0.48901367,0.888855,0.23406982,-1.6875,1.0625,-0.515625
478,478,1727346606647,-0.4892578,0.8903198,0.24676514,-1.78125,0.953125,-0.625
479,479,1727346606687,-0.48779297,0.8878784,0.23602295,-1.90625,0.78125,-0.78125
480,480,1727346606727,-0.4880371,0.89398193,0.24383545,-1.296875,1.0625,-0.796875
481,481,1727346606767,-0.48754883,0.8864136,0.2321167,-1.8125,2.078125,-0.6875
482,482,1727346606807,-0.4958496,0.8937378,0.25360107,-1.15625,0.359375,-0.734375
483,483,1727346606847,-0.47143555,0.88153076,0.22528076,-2.40625,2.046875,-0.921875
484,484,1727346606887,-0.49487305,0.9020386,0.24725342,-1.34375,1.125,-0.484375
485,485,1727346606927,-0.48168945,0.88934326,0.2374878,-1.09375,1.484375,-0.40625
486,486,1727346606967,-0.48217773,0.89349365,0.23675537,-1.5625,0.9375,-0.8125
487,487,1727346607007,-0.48413086,0.89886475,0.23773193,-1.5,0.921875,-0.703125
488,488,1727346607047,-0.4855957,0.8949585,0.2296753,-1.671875,0.9375,-0.5
489,489,1727346607087,-0.48706055,0.88934326,0.24139404,-1.25,0.9375,-0.359375
490,490,1727346607127,-0.47753906,0.88568115,0.23309326,-1.546875,1.4375,-0.546875
491,491,1727346607167,-0.48779297,0.8883667,0.23382568,-1.765625,0.890625,-0.890625
492,492,1727346607207,-0.48486328,0.8954468,0.22772217,-2.328125,1.015625,-0.703125
493,493,1727346607247,-0.47827148,0.8998413,0.2296753,-1.78125,0.34375,-0.859375
494,494,1727346607287,-0.48046875,0.8900757,0.22894287,-2.46875,0.390625,-0.90625
495,495,1727346607327,-0.46923828,0.9008179,0.2230835,-1.96875,0.125,-0.3125
496,496,1727346607367,-0.47924805,0.8969116,0.23480225,-0.890625,0.234375,0.09375
497,497,1727346607407,-0.48120117,0.89642334,0.22723389,-0.625,1.125,0.0625
498,498,1727346607447,-0.47753906,0.8944702,0.22723389,-0.671875,0.609375,-0.125
499,499,1727346607487,-0.47973633,0.8954468,0.22821045,-0.828125,0.4375,-0.03125
500,500,1727346607527,-0.48608398,0.89520264,0.22015381,-1.015625,0.53125,-0.59375
501,501,1727346607567,-0.48266602,0.902771,0.2374878,0.03125,0.125,-0.03125
502,502,1727346607607,-0.47680664,0.899353,0.22210693,-0.5,0.625,-0.03125
503,503,1727346607647,-0.47729492,0.8961792,0.2321167,-1.078125,-0.875,-0.1875
504,504,1727346607687,-0.47631836,0.9008179,0.21795654,-0.984375,0.9375,-0.140625
505,505,1727346607727,-0.48095703,0.8915405,0.23602295,0.265625,0.125,0.046875
506,506,1727346607767,-0.48950195,0.9003296,0.23626709,0.640625,0.75,0.46875
507,507,1727346607807,-0.47070312,0.8908081,0.2321167,-0.53125,0.078125,-0.125
508,508,1727346607847,-0.49072266,0.8878784,0.23822021,0.65625,0.234375,0.015625
509,509,1727346607887,-0.47924805,0.90301514,0.23260498,-0.265625,0.109375,0.515625
510,510,1727346607927,-0.4741211,0.8949585,0.24017334,-0.296875,-0.203125,0.03125
511,511,1727346607967,-0.484375,0.8937378,0.2387085,-0.125,0.453125,0.390625
512,512,1727346608007,-0.47851562,0.8908081,0.24310303,-0.375,0.328125,-0.0625
513,513,1727346608047,-0.49267578,0.89349365,0.2423706,-0.25,0.0625,-0.0625
514,514,1727346608087,-0.47680664,0.89227295,0.24041748,-0.53125,-0.0625,-0.015625
515,515,1727346608127,-0.49047852,0.8944702,0.23358154,-0.9375,-0.140625,-0.40625
516,516,1727346608167,-0.48828125,0.8932495,0.23699951,-0.515625,-0.296875,-0.046875
517,517,1727346608207,-0.47802734,0.89520264,0.23309326,-0.421875,-0.015625,-0.4375
518,518,1727346608247,-0.48657227,0.8925171,0.24090576,-0.671875,0.375,-0.125
519,519,1727346608287,-0.48388672,0.8932495,0.23504639,0.0,0.828125,0.03125
520,520,1727346608327,-0.48413086,0.888855,0.24456787,-0.453125,0.421875,0.09375
521,521,1727346608367,-0.4909668,0.8944702,0.24212646,-0.375,0.375,0.09375
522,522,1727346608407,-0.4814453,0.8866577,0.23406982,-1.1875,-0.046875,-0.171875
523,523,1727346608447,-0.4934082,0.89227295,0.24163818,0.03125,0.375,-0.0625
524,524,1727346608487,-0.48901367,0.88568115,0.22991943,-0.65625,0.796875,-0.09375
525,525,1727346608527,-0.5,0.88812256,0.2741089,1.078125,-1.203125,0.203125
526,526,1727346608567,-0.46972656,0.88079834,0.22503662,-1.0625,1.171875,0.15625
527,527,1727346608607,-0.5036621,0.89715576,0.24945068,0.046875,0.25,0.03125
528,528,1727346608647,-0.48486328,0.8864136,0.24383545,1.046875,0.515625,0.640625
529,529,1727346608687,-0.48999023,0.88494873,0.24481201,-0.09375,0.015625,-0.25
530,530,1727346608727,-0.49194336,0.8895874,0.24725342,0.140625,-0.03125,0.125
531,531,1727346608767,-0.49047852,0.88397217,0.24505615,-0.546875,-0.15625,0.125
532,532,1727346608807,-0.5012207,0.88323975,0.2555542,0.03125,-0.078125,0.1875
533,533,1727346608847,-0.48950195,0.8800659,0.24627686,-0.421875,0.390625,0.1875
534,534,1727346608887,-0.4909668,0.8915405,0.24554443,-0.359375,-0.03125,-0.140625
535,535,1727346608927,-0.49951172,0.887146,0.24749756,-0.046875,-0.015625,0.125
536,536,1727346608967,-0.49169922,0.88446045,0.24969482,-0.21875,-0.03125,-0.046875
537,537,1727346609007,-0.5,0.8878784,0.25531006,-0.359375,0.609375,-0.09375
538,538,1727346609047,-0.49267578,0.89056396,0.25091553,-0.40625,0.71875,-0.109375
539,539,1727346609087,-0.49658203,0.8859253,0.25164795,-0.78125,0.765625,-0.421875
540,540,1727346609127,-0.48583984,0.88812256,0.24554443,-1.046875,0.671875,-0.234375
541,541,1727346609167,-0.49975586,0.87908936,0.2538452,-1.34375,0.515625,-0.515625
542,542,1727346609207,-0.49902344,0.8768921,0.2477417,-1.515625,0.765625,-0.453125
543,543,1727346609247,-0.49169922,0.88616943,0.24798584,-1.8125,0.421875,-0.65625
544,544,1727346609287,-0.4951172,0.8798218,0.2501831,-2.15625,0.265625,-0.6875
545,545,1727346609327,-0.4970703,0.8912964,0.2531128,-1.203125,0.90625,-0.453125
546,546,1727346609367,-0.49365234,0.88275146,0.23260498,-2.0,2.140625,-0.75
547,547,1727346609407,-0.49951172,0.8895874,0.2579956,-1.078125,0.9375,-0.84375
548,548,1727346609447,-0.47680664,0.87835693,0.23382568,-2.328125,1.59375,-0.796875
549,549,1727346609487,-0.501709,0.9003296,0.25286865,-1.203125,1.390625,-0.4375
550,550,1727346609527,-0.48120117,0.88934326,0.23822021,-1.5,1.375,-0.4375
551,551,1727346609567,-0.49121094,0.88812256,0.24578857,-1.6875,1.15625,-1.0625
552,552,1727346609607,-0.48950195,0.88568115,0.2477417,-1.5,0.765625,-0.65625
553,553,1727346609647,-0.47753906,0.88812256,0.2423706,-1.984375,0.875,-0.59375
554,554,1727346609687,-0.4958496,0.8991089,0.24676514,-1.734375,1.09375,-0.546875
555,555,1727346609727,-0.48217773,0.8908081,0.24066162,-2.015625,1.5625,-0.8125
556,556,1727346609767,-0.48779297,0.8866577,0.24310303,-1.984375,1.015625,-0.890625
557,557,1727346609807,-0.47753906,0.89105225,0.23309326,-2.4375,1.015625,-0.65625
558,558,1727346609847,-0.47973633,0.8961792,0.23724365,-2.09375,0.765625,-0.8125
559,559,1727346609887,-0.4831543,0.89398193,0.23724365,-2.296875,0.890625,-0.9375
560,560,1727346609927,-0.47973633,0.8915405,0.23236084,-2.265625,0.984375,-0.828125
561,561,1727346609967,-0.47875977,0.89593506,0.23602295,-2.140625,1.171875,-0.625
562,562,1727346610007,-0.47583008,0.89520264,0.23773193,-2.15625,0.953125,-0.734375
563,563,1727346610047,-0.47998047,0.8944702,0.23284912,-2.078125,0.9375,-0.578125
564,564,1727346610087,-0.48242188,0.9022827,0.23382568,-1.640625,0.859375,-0.328125
565,565,1727346610127,-0.47265625,0.8956909,0.22161865,-2.234375,0.75,-0.6875
566,566,1727346610167,-0.47851562,0.89593506,0.22918701,-1.359375,0.5,-0.4375
567,567,1727346610207,-0.48608398,0.8942261,0.2255249,-1.296875,1.15625,-0.375
568,568,1727346610247,-0.4892578,0.89471436,0.25726318,-0.171875,0.109375,0.03125
569,569,1727346610287,-0.45898438,0.8864136,0.20843506,-1.53125,1.4375,-0.296875
570,570,1727346610327,-0.4975586,0.9196167,0.23626709,0.109375,0.59375,0.1875
571,571,1727346610367,-0.4741211,0.8961792,0.2140503,-0.453125,0.84375,0.0625
572,572,1727346610407,-0.47973633,0.8920288,0.23358154,-0.265625,0.46875,-0.140625
573,573,1727346610447,-0.47631836,0.90130615,0.2345581,-0.109375,0.171875,-0.03125
574,574,1727346610487,-0.47924805,0.8961792,0.23187256,-0.328125,0.484375,-0.0625
575,575,1727346610527,-0.4880371,0.8942261,0.23846436,0.28125,0.625,-0.046875
576,576,1727346610567,-0.46850586,0.89227295,0.22796631,-0.96875,0.375,-0.21875
577,577,1727346610607,-0.4819336,0.9015503,0.23309326,-0.140625,0.125,0.0625
578,578,1727346610647,-0.48120117,0.8932495,0.22943115,-0.515625,0.21875,0.25
579,579,1727346610687,-0.48657227,0.8966675,0.24017334,-0.453125,0.5,-0.203125
580,580,1727346610727,-0.48291016,0.89715576,0.22625732,-0.828125,0.3125,0.0625
581,581,1727346610767,-0.4724121,0.8912964,0.23260498,-0.8125,0.28125,-0.125
582,582,1727346610807,-0.48657227,0.8969116,0.23773193,-0.21875,0.25,-0.015625
583,583,1727346610847,-0.48291016,0.8944702,0.23309326,-0.53125,0.359375,-0.078125
584,584,1727346610887,-0.48901367,0.89593506,0.23822021,-0.140625,0.4375,-0.09375
585,585,1727346610927,-0.47998047,0.8944702,0.23919678,-0.234375,0.109375,-0.109375
586,586,1727346610967,-0.47680664,0.88812256,0.23016357,-0.734375,0.046875,-0.296875
587,587,1727346611007,-0.48779297,0.8930054,0.24017334,0.328125,-0.328125,0.203125
588,588,1727346611047,-0.49414062,0.8969116,0.23822021,0.015625,0.734375,0.078125
589,589,1727346611087,-0.4897461,0.89886475,0.26898193,0.390625,-1.1875,0.34375
590,590,1727346611127,-0.47460938,0.88079834,0.22210693,-1.140625,1.1875,-0.1875
591,591,1727346611167,-0.49975586,0.89593506,0.24334717,0.65625,0.375,-0.015625
592,592,1727346611207,-0.48510742,0.8986206,0.24481201,0.15625,-0.125,0.453125
593,593,1727346611247,-0.484375,0.8876343,0.24603271,0.1875,0.078125,-0.109375
594,594,1727346611287,-0.48217773,0.8969116,0.24310303,0.390625,-0.140625,0.234375
595,595,1727346611327,-0.4814453,0.8920288,0.23626709,1.3125,-2.65625,0.515625
596,596,1727346611367,-0.5036621,0.8895874,0.2567749,1.671875,-1.53125,0.5625
597,597,1727346611407,-0.48266602,0.8798218,0.2374878,-0.765625,0.15625,0.109375
598,598,1727346611447,-0.49291992,0.8851929,0.24700928,-0.3125,0.078125,-0.15625
599,599,1727346611487,-0.49731445,0.88568115,0.24822998,-0.25,0.46875,0.140625
600,600,1727346611527,-0.49487305,0.88446045,0.246521,-0.703125,0.296875,0.15625
601,601,1727346611567,-0.4897461,0.88616943,0.246521,-0.859375,0.625,0.109375
602,602,1727346611607,-0.49169922,0.88494873,0.24920654,-0.53125,1.0625,-0.0625
603,603,1727346611647,-0.49243164,0.87957764,0.2538452,-0.828125,0.890625,-0.203125
604,604,1727346611687,-0.49072266,0.88690186,0.24334717,-0.5625,1.046875,-0.1875
605,605,1727346611727,-0.4987793,0.8817749,0.24700928,-1.359375,0.671875,-0.296875
606,606,1727346611767,-0.5004883,0.8920288,0.24847412,-0.984375,0.640625,-0.046875
607,607,1727346611807,-0.4934082,0.888855,0.25897217,-1.46875,0.609375,-0.34375
608,608,1727346611847,-0.49194336,0.8864136,0.25604248,-1.515625,0.09375,-0.4375
609,609,1727346611887,-0.48950195,0.8876343,0.24212646,-0.875,1.046875,-0.484375
610,610,1727346611927,-0.48779297,0.8978882,0.23431396,-1.9375,1.0625,-0.5
611,611,1727346611967,-0.49414062,0.89520264,0.24603271,-0.90625,1.578125,-0.25
612,612,1727346612007,-0.47436523,0.8773804,0.24041748,-1.0625,1.265625,-0.859375
613,613,1727346612047,-0.50341797,0.8920288,0.2567749,-0.546875,0.890625,-0.171875
614,614,1727346612087,-0.48754883,0.8883667,0.24261475,-1.296875,1.359375,-0.296875
615,615,1727346612127,-0.48876953,0.8864136,0.25213623,-1.625,1.078125,-1.0
616,616,1727346612167,-0.48266602,0.8920288,0.24749756,-1.84375,0.9375,-0.84375
617,617,1727346612207,-0.4802246,0.8912964,0.24432373,-1.75,0.65625,-0.875
618,618,1727346612247,-0.48657227,0.8915405,0.24310303,-2.359375,0.984375,-0.296875
619,619,1727346612287,-0.48876953,0.8956909,0.24090576,-1.796875,1.34375,-0.78125
620,620,1727346612327,-0.48999023,0.8915405,0.24505615,-1.140625,1.25,-0.90625
621,621,1727346612367,-0.48510742,0.8944702,0.23675537,-2.0625,0.6875,-0.6875
622,622,1727346612407,-0.48535156,0.89715576,0.24505615,-1.265625,1.0,-0.75
623,623,1727346612447,-0.47851562,0.8883667,0.23138428,-1.921875,0.875,-0.796875
624,624,1727346612487,-0.48168945,0.8978882,0.23968506,-1.96875,1.15625,-0.953125
625,625,1727346612527,-0.47924805,0.88983154,0.23919678,-1.71875,1.1875,-0.71875
626,626,1727346612567,-0.47973633,0.8969116,0.23724365,-2.1875,0.984375,-0.75
627,627,1727346612607,-0.47680664,0.8908081,0.2399292,-2.0,1.546875,-0.9375
628,628,1727346612647,-0.4724121,0.90057373,0.23382568,-1.984375,1.09375,-0.75
629,629,1727346612687,-0.47509766,0.89178467,0.23187256,-2.328125,1.0,-0.828125
630,630,1727346612727,-0.47827148,0.8930054,0.23773193,-1.75,1.484375,-0.71875
631,631,1727346612767,-0.47729492,0.89276123,0.22479248,-2.28125,1.890625,-0.890625
632,632,1727346612807,-0.47851562,0.90789795,0.24334717,-1.203125,0.40625,-0.734375
633,633,1727346612847,-0.45874023,0.88983154,0.21014404,-2.703125,1.921875,-0.546875
634,634,1727346612887,-0.48876953,0.91278076,0.24017334,-1.40625,0.796875,-0.3125
635,635,1727346612927,-0.46875,0.89715576,0.2218628,-1.28125,1.21875,0.03125
636,636,1727346612967,-0.47460938,0.8991089,0.230896,-0.890625,0.75,-0.484375
637,637,1727346613007,-0.46875,0.8966675,0.23797607,-0.421875,0.609375,0.0
638,638,1727346613047,-0.47729492,0.89349365,0.24822998,-0.8125,0.96875,-0.0625
639,639,1727346613087,-0.4729004,0.9035034,0.24212646,-0.03125,0.390625,-0.046875
640,640,1727346613127,-0.4729004,0.8942261,0.23919678,-0.90625,0.390625,-0.265625
641,641,1727346613167,-0.4790039,0.89959717,0.23480225,-0.4375,0.65625,0.0625
642,642,1727346613207,-0.47631836,0.89959717,0.23138428,-1.109375,0.3125,-0.0625
643,643,1727346613247,-0.4736328,0.9015503,0.22796631,-0.765625,0.265625,-0.09375
644,644,1727346613287,-0.4741211,0.89837646,0.22869873,-0.953125,-0.03125,-0.15625
645,645,1727346613327,-0.47485352,0.8981323,0.23016357,-0.8125,0.3125,0.03125
646,646,1727346613367,-0.4790039,0.9032593,0.23309326,-0.546875,0.25,0.140625
647,647,1727346613407,-0.48291016,0.8944702,0.23016357,-0.515625,0.421875,-0.078125
648,648,1727346613447,-0.4736328,0.899353,0.22991943,-0.390625,0.421875,0.046875
649,649,1727346613487,-0.4741211,0.8956909,0.23065186,-0.125,0.25,-0.125
650,650,1727346613527,-0.47314453,0.8878784,0.23382568,-0.796875,-0.03125,-0.296875
651,651,1727346613567,-0.47558594,0.90179443,0.22821045,0.203125,0.40625,0.296875
652,652,1727346613607,-0.46923828,0.9059448,0.22625732,-0.78125,0.75,-0.078125
653,653,1727346613647,-0.48535156,0.8969116,0.25360107,0.359375,-0.8125,-0.25
654,654,1727346613687,-0.45996094,0.8876343,0.2111206,-1.140625,0.578125,-0.15625
655,655,1727346613727,-0.4951172,0.9057007,0.24993896,-0.1875,-0.46875,0.15625
656,656,1727346613767,-0.47509766,0.8944702,0.2321167,0.6875,0.484375,0.6875
657,657,1727346613807,-0.4790039,0.8942261,0.23187256,0.578125,-0.296875,0.25
658,658,1727346613847,-0.49731445,0.91571045,0.22039795,-2.0625,0.234375,-0.515625
659,659,1727346613887,-0.46826172,0.90960693,0.20013428,-0.890625,0.625,-0.125
660,660,1727346613927,-0.47827148,0.9035034,0.21234131,-0.59375,0.828125,-0.4375
661,661,1727346613967,-0.47583008,0.9142456,0.21185303,-0.171875,0.890625,-0.09375
662,662,1727346614007,-0.47875977,0.90740967,0.21820068,-0.296875,0.265625,0.09375
663,663,1727346614047,-0.4794922,0.90301514,0.21917725,0.21875,0.484375,0.65625
664,664,1727346614087,-0.4724121,0.89178467,0.22039795,-0.109375,0.578125,0.15625
665,665,1727346614127,-0.49487305,0.88861084,0.22747803,-0.234375,0.734375,-0.078125
666,666,1727346614167,-0.47387695,0.8961792,0.21502686,-0.78125,0.453125,-0.25
667,667,1727346614207,-0.484375,0.89642334,0.22625732,-1.0,0.109375,-0.53125
668,668,1727346614247,-0.46826172,0.8954468,0.2177124,-1.4375,-0.234375,-0.609375
669,669,1727346614287,-0.4855957,0.90374756,0.21942139,-0.875,0.3125,-0.1875
670,670,1727346614327,-0.4765625,0.9020386,0.21990967,-0.109375,0.515625,0.53125
671,671,1727346614367,-0.48364258,0.8981323,0.22259521,-0.390625,0.921875,0.125
672,672,1727346614407,-0.48168945,0.8966675,0.2255249,-0.1875,0.515625,0.171875
673,673,1727346614447,-0.4802246,0.8998413,0.22479248,-0.96875,0.375,-0.21875
674,674,1727346614487,-0.48339844,0.9015503,0.22528076,-0.265625,0.09375,-0.03125
675,675,1727346614527,-0.47705078,0.89227295,0.22796631,-0.734375,-0.59375,-0.21875
676,676,1727346614567,-0.48632812,0.8915405,0.2177124,0.15625,0.296875,0.3125
677,677,1727346614607,-0.47338867,0.90179443,0.20404053,-0.71875,0.515625,0.171875
678,678,1727346614647,-0.49121094,0.90008545,0.22528076,0.96875,0.421875,0.109375
679,679,1727346614687,-0.46923828,0.88201904,0.21282959,0.765625,-0.015625,0.140625
680,680,1727346614727,-0.49682617,0.9039917,0.23602295,1.84375,-0.828125,1.046875
681,681,1727346614767,-0.48168945,0.8930054,0.22406006,1.53125,-0.75,1.390625
682,682,1727346614807,-0.49804688,0.8925171,0.2345581,1.046875,0.0,0.40625
683,683,1727346614847,-0.48876953,0.89178467,0.23431396,0.25,0.0,0.125
684,684,1727346614887,-0.48535156,0.8925171,0.2387085,0.171875,-0.015625,0.109375
685,685,1727346614927,-0.49487305,0.8920288,0.2374878,-0.5,0.515625,0.390625
686,686,1727346614967,-0.48583984,0.8954468,0.24139404,-0.6875,0.359375,0.375
687,687,1727346615007,-0.5004883,0.8920288,0.24456787,0.4375,1.078125,0.03125
688,688,1727346615047,-0.48510742,0.8822632,0.23406982,-0.5,0.65625,0.328125
689,689,1727346615087,-0.49194336,0.89593506,0.24261475,-0.40625,0.421875,-0.234375
690,690,1727346615127,-0.48999023,0.8908081,0.23577881,-0.265625,0.21875,-0.015625
691,691,1727346615167,-0.48388672,0.8900757,0.24090576,-0.453125,0.5,-0.5
692,692,1727346615207,-0.48950195,0.8842163,0.23895264,-0.328125,0.171875,-0.015625
693,693,1727346615247,-0.4963379,0.88934326,0.24383545,0.125,-0.15625,0.015625
694,694,1727346615287,-0.49536133,0.8876343,0.24066162,0.453125,0.15625,-0.15625
695,695,1727346615327,-0.48901367,0.8890991,0.24090576,0.0,-0.046875,0.0625
696,696,1727346615367,-0.5041504,0.8903198,0.25360107,0.0,0.171875,-0.0625
697,697,1727346615407,-0.48657227,0.8817749,0.24969482,-0.203125,-0.09375,0.265625
698,698,1727346615447,-0.49902344,0.88568115,0.24798584,0.3125,0.640625,0.125
699,699,1727346615487,-0.4868164,0.8817749,0.23138428,-1.0625,0.828125,0.34375
700,700,1727346615527,-0.5114746,0.888855,0.25701904,-0.09375,0.65625,0.0625
701,701,1727346615567,-0.484375,0.8781128,0.23919678,-1.15625,0.734375,-0.34375
702,702,1727346615607,-0.4970703,0.89178467,0.2514038,-0.1875,-0.265625,0.203125
703,703,1727346615647,-0.49658203,0.88446045,0.24993896,0.21875,0.34375,0.109375
704,704,1727346615687,-0.49780273,0.88568115,0.25531006,-0.265625,0.5,-0.140625
705,705,1727346615727,-0.4987793,0.88153076,0.25628662,-0.796875,0.90625,-0.484375
706,706,1727346615767,-0.49194336,0.8851929,0.24188232,-1.578125,0.375,-0.296875
707,707,1727346615807,-0.50439453,0.88812256,0.25604248,-1.578125,0.59375,-0.328125
708,708,1727346615847,-0.49731445,0.8822632,0.24725342,-1.40625,0.640625,-0.390625
709,709,1727346615887,-0.50439453,0.88153076,0.2506714,-1.375,0.484375,-0.5625
710,710,1727346615927,-0.4921875,0.8829956,0.25408936,-1.734375,0.71875,-0.53125
711,711,1727346615967,-0.49365234,0.888855,0.24920654,-1.4375,0.46875,-0.609375
712,712,1727346616007,-0.49804688,0.8876343,0.246521,-1.453125,0.453125,-0.6875
713,713,1727346616047,-0.49389648,0.8912964,0.24481201,-1.03125,1.0,-0.453125
714,714,1727346616087,-0.49194336,0.8859253,0.24798584,-1.5625,1.046875,-0.53125
715,715,1727346616127,-0.49072266,0.8912964,0.24725342,-1.796875,0.78125,-0.546875
716,716,1727346616167,-0.48999023,0.8842163,0.24456787,-1.40625,1.15625,-0.59375
717,717,1727346616207,-0.48901367,0.8908081,0.24481201,-2.296875,1.109375,-0.84375
718,718,1727346616247,-0.4951172,0.8937378,0.25091553,-1.890625,1.0,-0.71875
719,719,1727346616287,-0.4802246,0.88690186,0.23968506,-2.265625,0.625,-0.625
720,720,1727346616327,-0.49536133,0.8903198,0.23797607,-1.40625,1.03125,-0.609375
721,721,1727346616367,-0.4909668,0.8876343,0.22698975,-2.265625,2.03125,-0.640625
722,722,1727346616407,-0.4880371,0.89642334,0.24627686,-1.78125,1.078125,-0.6875
723,723,1727346616447,-0.47705078,0.87908936,0.22698975,-2.0625,1.421875,-0.703125
724,724,1727346616487,-0.50561523,0.89105225,0.24578857,-1.125,0.765625,-0.34375
725,725,1727346616527,-0.48461914,0.8895874,0.23236084,-1.4375,1.421875,-0.171875
726,726,1727346616567,-0.48535156,0.8883667,0.23504639,-1.703125,1.0625,-0.890625
727,727,1727346616607,-0.48339844,0.8937378,0.23529053,-1.53125,0.828125,-0.65625
728,728,1727346616647,-0.48632812,0.89105225,0.2321167,-1.484375,0.546875,-0.375
729,729,1727346616687,-0.48901367,0.8937378,0.23773193,-2.109375,0.84375,-0.25
730,730,1727346616727,-0.4807129,0.8895874,0.23358154,-1.734375,1.28125,-0.59375
731,731,1727346616767,-0.48583984,0.8912964,0.24578857,-1.359375,0.296875,-0.484375
732,732,1727346616807,-0.4790039,0.8900757,0.23138428,-2.171875,0.3125,-0.59375
733,733,1727346616847,-0.48388672,0.89764404,0.23138428,-1.546875,0.484375,-0.671875
734,734,1727346616887,-0.47998047,0.89276123,0.22650146,-1.203125,0.328125,-0.1875
735,735,1727346616927,-0.48242188,0.89105225,0.22991943,-0.9375,0.453125,-0.046875
736,736,1727346616967,-0.48266602,0.89276123,0.23284912,-0.609375,0.71875,-0.078125
737,737,1727346617007,-0.47729492,0.8956909,0.23602295,-0.53125,0.546875,-0.171875
738,738,1727346617047,-0.48461914,0.89398193,0.22918701,-0.453125,0.8125,0.078125
739,739,1727346617087,-0.48364258,0.888855,0.23309326,-0.734375,0.546875,-0.1875
740,740,1727346617127,-0.4868164,0.89764404,0.23846436,-0.453125,0.203125,-0.0625
741,741,1727346617167,-0.47802734,0.88861084,0.23382568,-1.140625,0.0625,-0.46875
742,742,1727346617207,-0.4807129,0.8949585,0.22943115,-0.375,0.65625,0.015625
743,743,1727346617247,-0.4897461,0.8966675,0.2243042,-1.125,1.21875,-0.328125
744,744,1727346617287,-0.4885254,0.8932495,0.24847412,0.0625,0.578125,0.171875
745,745,1727346617327,-0.46875,0.8739624,0.22601318,-0.859375,0.9375,-0.28125
746,746,1727346617367,-0.5029297,0.9052124,0.24993896,-0.15625,0.515625,0.28125
747,747,1727346617407,-0.4741211,0.8903198,0.22357178,-0.21875,0.6875,0.15625
748,748,1727346617447,-0.48364258,0.8876343,0.22894287,-0.796875,0.078125,-0.515625
749,749,1727346617487,-0.48510742,0.89349365,0.23651123,-0.5,-0.0625,-0.078125
750,750,1727346617527,-0.48461914,0.89398193,0.23162842,-0.1875,0.4375,0.015625
751,751,1727346617567,-0.49658203,0.89178467,0.23553467,-0.421875,0.21875,0.140625
752,752,1727346617607,-0.48583984,0.888855,0.24285889,-0.453125,0.1875,-0.03125
753,753,1727346617647,-0.48950195,0.8890991,0.2423706,-0.21875,0.34375,0.046875
754,754,1727346617687,-0.48242188,0.89349365,0.23382568,-1.359375,0.234375,-0.3125
755,755,1727346617727,-0.48583984,0.88983154,0.24066162,-0.90625,0.015625,-0.171875
756,756,1727346617767,-0.4868164,0.88812256,0.23699951,-0.859375,0.125,-0.15625
757,757,1727346617807,-0.48754883,0.888855,0.23773193,-0.96875,0.546875,-0.25
758,758,1727346617847,-0.49072266,0.8890991,0.24090576,-0.796875,0.421875,-0.203125
759,759,1727346617887,-0.4831543,0.88861084,0.23382568,-0.734375,0.640625,-0.34375
