,Unnamed: 0,timestamp,accel_x,accel_y,accel_z,gyro_x,gyro_y,gyro_z
0,0,1727110313060,-0.9465332,-0.14508057,-0.32940674,0.109375,0.265625,-0.21875
1,1,1727110313100,-0.9321289,-0.15435791,-0.3381958,0.359375,-0.125,0.03125
2,2,1727110313140,-0.9406738,-0.159729,-0.32696533,0.09375,-0.203125,-0.046875
3,3,1727110313180,-0.94140625,-0.16363525,-0.33135986,0.171875,-0.5625,0.28125
4,4,1727110313220,-0.93774414,-0.15948486,-0.32940674,0.09375,-0.234375,-0.0625
5,5,1727110313260,-0.9404297,-0.16485596,-0.33184814,0.265625,-0.375,0.109375
6,6,1727110313300,-0.93969727,-0.16119385,-0.33355713,0.140625,-0.21875,-0.03125
7,7,1727110313340,-0.93774414,-0.1663208,-0.32720947,0.484375,-0.109375,0.078125
8,8,1727110313380,-0.9370117,-0.16729736,-0.32989502,0.21875,0.0625,0.0625
9,9,1727110313420,-0.9328613,-0.1638794,-0.32891846,0.40625,-0.171875,-0.203125
10,10,1727110313460,-0.935791,-0.16339111,-0.33184814,0.296875,0.5625,-0.25
11,11,1727110313500,-0.94018555,-0.16705322,-0.3352661,-0.46875,-0.390625,0.265625
12,12,1727110313540,-0.94311523,-0.16656494,-0.33184814,0.78125,-0.34375,-0.15625
13,13,1727110313580,-0.935791,-0.16900635,-0.33599854,0.046875,0.5,-0.234375
14,14,1727110313620,-0.93530273,-0.1651001,-0.33135986,0.046875,0.328125,0.0625
15,15,1727110313660,-0.9416504,-0.16729736,-0.33306885,0.125,0.1875,-0.328125
16,16,1727110313700,-0.9370117,-0.16583252,-0.3279419,0.046875,0.125,-0.109375
17,17,1727110313740,-0.93774414,-0.159729,-0.33770752,0.28125,0.3125,-0.140625
18,18,1727110313780,-0.94018555,-0.16534424,-0.33087158,0.125,-0.078125,-0.109375
19,19,1727110313820,-0.93237305,-0.1651001,-0.32989502,0.4375,0.15625,-0.171875
20,20,1727110313860,-0.939209,-0.1663208,-0.32647705,0.328125,-0.21875,-0.1875
21,21,1727110313900,-0.93969727,-0.1638794,-0.33721924,0.375,0.015625,-0.140625
22,22,1727110313940,-0.93725586,-0.15704346,-0.33599854,0.109375,-0.265625,-0.09375
23,23,1727110313980,-0.9453125,-0.1572876,-0.33624268,0.015625,0.3125,-0.34375
24,24,1727110314020,-0.93188477,-0.16241455,-0.33551025,0.015625,0.265625,-0.21875
25,25,1727110314060,-0.9362793,-0.1609497,-0.33013916,-0.046875,0.421875,-0.1875
26,26,1727110314100,-0.93896484,-0.15289307,-0.32232666,0.09375,0.703125,-0.375
27,27,1727110314140,-0.94140625,-0.1638794,-0.33721924,-0.15625,0.859375,-0.4375
28,28,1727110314180,-0.9326172,-0.15899658,-0.3267212,0.234375,1.03125,-0.640625
29,29,1727110314220,-0.9394531,-0.16656494,-0.3394165,-0.765625,0.09375,-0.1875
30,30,1727110314260,-0.9350586,-0.16558838,-0.32183838,-0.203125,1.328125,-0.609375
31,31,1727110314300,-0.9387207,-0.16241455,-0.32183838,0.0,1.59375,-0.546875
32,32,1727110314340,-0.9350586,-0.16021729,-0.3250122,-0.171875,1.328125,-0.5
33,33,1727110314380,-0.9423828,-0.16217041,-0.3184204,0.0,0.96875,-0.625
34,34,1727110314420,-0.9379883,-0.16461182,-0.32305908,-0.09375,1.0,-0.515625
35,35,1727110314460,-0.93847656,-0.16046143,-0.32110596,0.125,0.734375,-0.4375
36,36,1727110314500,-0.9428711,-0.16339111,-0.3237915,-0.328125,0.28125,-0.125
37,37,1727110314540,-0.9411621,-0.16046143,-0.31915283,0.5,0.71875,-0.6875
38,38,1727110314580,-0.9394531,-0.1687622,-0.32574463,-0.046875,0.25,-0.265625
39,39,1727110314620,-0.9379883,-0.15948486,-0.31793213,0.03125,0.6875,-0.53125
40,40,1727110314660,-0.94799805,-0.15948486,-0.3242798,-0.078125,0.265625,-0.3125
41,41,1727110314700,-0.94311523,-0.16656494,-0.3237915,-0.171875,0.640625,-0.578125
42,42,1727110314740,-0.9436035,-0.15875244,-0.31427002,-0.015625,0.59375,-0.46875
43,43,1727110314780,-0.94018555,-0.16583252,-0.31744385,-0.34375,0.71875,-0.390625
44,44,1727110314820,-0.9399414,-0.16656494,-0.31817627,-0.21875,0.515625,-0.34375
45,45,1727110314860,-0.94628906,-0.16070557,-0.3147583,0.234375,1.046875,-0.828125
46,46,1727110314900,-0.9411621,-0.16168213,-0.32696533,-0.21875,0.15625,-0.34375
47,47,1727110314940,-0.94555664,-0.16851807,-0.31500244,-0.25,0.59375,-0.65625
48,48,1727110314980,-0.94433594,-0.15948486,-0.3123169,-0.21875,1.3125,-0.734375
49,49,1727110315020,-0.9499512,-0.15362549,-0.30718994,-0.4375,1.25,-0.65625
50,50,1727110315060,-0.9445801,-0.16119385,-0.3093872,-0.421875,0.578125,-0.609375
51,51,1727110315100,-0.9458008,-0.15802002,-0.30963135,-0.171875,0.375,-0.5625
52,52,1727110315140,-0.9499512,-0.15802002,-0.30718994,-0.03125,0.03125,-0.25
53,53,1727110315180,-0.94262695,-0.16656494,-0.32037354,-0.5625,-0.875,0.265625
54,54,1727110315220,-0.9477539,-0.1585083,-0.30474854,0.421875,0.015625,-0.140625
55,55,1727110315260,-0.9436035,-0.16729736,-0.3225708,0.171875,-0.671875,-0.015625
56,56,1727110315300,-0.9484863,-0.15045166,-0.3027954,0.09375,-0.203125,0.0
57,57,1727110315340,-0.9433594,-0.159729,-0.32354736,0.265625,-0.21875,-0.125
58,58,1727110315380,-0.9477539,-0.16192627,-0.31817627,0.203125,0.203125,-0.125
59,59,1727110315420,-0.9458008,-0.15289307,-0.32281494,0.265625,0.15625,-0.078125
60,60,1727110315460,-0.9367676,-0.159729,-0.31280518,0.296875,0.015625,-0.078125
61,61,1727110315500,-0.9394531,-0.17047119,-0.3123169,0.28125,-0.21875,0.203125
62,62,1727110315540,-0.94091797,-0.1560669,-0.3081665,0.609375,0.59375,-0.34375
63,63,1727110315580,-0.93725586,-0.16680908,-0.32354736,0.0,-0.171875,0.09375
64,64,1727110315620,-0.9472656,-0.1663208,-0.315979,0.171875,-0.15625,-0.140625
65,65,1727110315660,-0.9465332,-0.16021729,-0.3135376,0.40625,0.765625,-0.34375
66,66,1727110315700,-0.9448242,-0.16363525,-0.31304932,0.3125,0.546875,-0.1875
67,67,1727110315740,-0.9460449,-0.16485596,-0.3123169,0.21875,0.46875,-0.15625
68,68,1727110315780,-0.94140625,-0.16534424,-0.32086182,0.453125,0.09375,-0.078125
69,69,1727110315820,-0.9433594,-0.1638794,-0.3147583,0.328125,0.109375,-0.078125
70,70,1727110315860,-0.9489746,-0.16680908,-0.32330322,0.109375,-0.640625,0.125
71,71,1727110315900,-0.94189453,-0.1716919,-0.3110962,0.625,0.109375,0.03125
72,72,1727110315940,-0.9428711,-0.1663208,-0.32110596,0.265625,-0.453125,0.0625
73,73,1727110315980,-0.94384766,-0.15924072,-0.31036377,0.59375,0.125,-0.109375
74,74,1727110316020,-0.9436035,-0.16583252,-0.3225708,0.125,-0.59375,0.0625
75,75,1727110316060,-0.9472656,-0.1651001,-0.31378174,0.078125,-0.046875,0.03125
76,76,1727110316100,-0.9465332,-0.16436768,-0.32330322,0.3125,-0.015625,0.0625
77,77,1727110316140,-0.94140625,-0.16607666,-0.32086182,0.140625,-0.40625,0.171875
78,78,1727110316180,-0.9394531,-0.1638794,-0.32305908,0.046875,-0.171875,-0.03125
79,79,1727110316220,-0.95092773,-0.17095947,-0.33135986,-0.140625,-0.765625,0.125
80,80,1727110316260,-0.93896484,-0.16168213,-0.3123169,0.375,0.40625,-0.203125
81,81,1727110316300,-0.9375,-0.16558838,-0.3328247,0.359375,-0.421875,-0.015625
82,82,1727110316340,-0.9379883,-0.16656494,-0.32525635,-0.15625,-0.21875,-0.078125
83,83,1727110316380,-0.93847656,-0.16949463,-0.32208252,-0.03125,-0.15625,-0.078125
84,84,1727110316420,-0.94189453,-0.16729736,-0.315979,0.109375,0.375,0.03125
85,85,1727110316460,-0.9404297,-0.17022705,-0.31622314,0.0,0.0,0.046875
86,86,1727110316500,-0.94018555,-0.16656494,-0.31402588,0.140625,-0.140625,-0.265625
87,87,1727110316540,-0.9379883,-0.17144775,-0.31134033,0.40625,0.078125,-0.03125
88,88,1727110316580,-0.9404297,-0.1651001,-0.32110596,0.234375,-0.140625,-0.125
89,89,1727110316620,-0.9382324,-0.17071533,-0.32867432,0.28125,-0.078125,0.03125
90,90,1727110316660,-0.94262695,-0.16705322,-0.32354736,0.0625,-0.5,0.0625
91,91,1727110316700,-0.9343262,-0.1687622,-0.31817627,0.3125,0.140625,-0.125
92,92,1727110316740,-0.9382324,-0.17120361,-0.3262329,0.09375,-0.359375,-0.09375
93,93,1727110316780,-0.94384766,-0.16827393,-0.32183838,0.125,0.15625,-0.21875
94,94,1727110316820,-0.9394531,-0.16949463,-0.3250122,0.296875,0.109375,-0.015625
95,95,1727110316860,-0.93652344,-0.17242432,-0.32574463,0.171875,0.078125,-0.1875
96,96,1727110316900,-0.9440918,-0.16778564,-0.32354736,0.0625,-0.0625,-0.0625
97,97,1727110316940,-0.9406738,-0.16680908,-0.31988525,0.15625,0.203125,-0.140625
98,98,1727110316980,-0.9313965,-0.1687622,-0.317688,0.484375,0.453125,-0.390625
99,99,1727110317020,-0.93969727,-0.16851807,-0.32965088,-0.0625,-0.078125,0.015625
100,100,1727110317060,-0.94628906,-0.1687622,-0.31524658,-0.125,-0.3125,-0.09375
101,101,1727110317100,-0.93725586,-0.16705322,-0.3213501,0.1875,0.484375,-0.15625
102,102,1727110317140,-0.9453125,-0.16998291,-0.3196411,0.140625,0.609375,-0.21875
103,103,1727110317180,-0.93359375,-0.16802979,-0.32232666,0.1875,0.265625,-0.125
104,104,1727110317220,-0.93408203,-0.16949463,-0.32965088,0.09375,0.125,-0.234375
105,105,1727110317260,-0.94311523,-0.17340088,-0.32086182,0.203125,0.15625,-0.109375
106,106,1727110317300,-0.9453125,-0.17047119,-0.3291626,-0.078125,-0.4375,0.0625
107,107,1727110317340,-0.93481445,-0.16656494,-0.31622314,0.34375,0.078125,-0.328125
108,108,1727110317380,-0.93652344,-0.17120361,-0.32452393,0.171875,0.234375,-0.375
109,109,1727110317420,-0.93725586,-0.16607666,-0.32110596,0.15625,0.421875,-0.390625
110,110,1727110317460,-0.9428711,-0.16680908,-0.32574463,0.25,-0.046875,-0.296875
111,111,1727110317500,-0.93310547,-0.16485596,-0.3242798,0.21875,0.65625,-0.5
112,112,1727110317540,-0.9333496,-0.175354,-0.3213501,0.203125,0.5,-0.265625
113,113,1727110317580,-0.94384766,-0.16949463,-0.3255005,0.265625,0.359375,-0.375
114,114,1727110317620,-0.9404297,-0.16461182,-0.3189087,0.28125,0.4375,-0.46875
115,115,1727110317660,-0.9465332,-0.16485596,-0.32305908,0.34375,0.5625,-0.484375
116,116,1727110317700,-0.9382324,-0.16802979,-0.31988525,0.3125,0.859375,-0.640625
117,117,1727110317740,-0.94384766,-0.16558838,-0.32037354,0.25,1.5,-0.703125
118,118,1727110317780,-0.9470215,-0.16583252,-0.32281494,-0.34375,0.0,-0.125
119,119,1727110317820,-0.94750977,-0.17047119,-0.3135376,0.203125,0.765625,-0.53125
120,120,1727110317860,-0.94506836,-0.16778564,-0.31573486,0.109375,1.53125,-0.875
121,121,1727110317900,-0.93896484,-0.16583252,-0.31500244,0.078125,1.609375,-0.65625
122,122,1727110317940,-0.9416504,-0.16900635,-0.31134033,-0.171875,1.078125,-0.46875
123,123,1727110317980,-0.9453125,-0.16729736,-0.31207275,-0.09375,0.53125,-0.546875
124,124,1727110318020,-0.9436035,-0.15948486,-0.3171997,0.0,0.640625,-0.421875
125,125,1727110318060,-0.9428711,-0.16192627,-0.3164673,-0.140625,0.15625,-0.21875
126,126,1727110318100,-0.94189453,-0.16583252,-0.31085205,0.296875,0.5,-0.375
127,127,1727110318140,-0.9489746,-0.1675415,-0.3184204,-0.125,-0.328125,-0.109375
128,128,1727110318180,-0.9416504,-0.16558838,-0.31085205,0.25,0.296875,-0.65625
129,129,1727110318220,-0.9433594,-0.16363525,-0.3135376,-0.25,-0.21875,-0.328125
130,130,1727110318260,-0.9428711,-0.16217041,-0.31158447,0.125,0.3125,-0.375
131,131,1727110318300,-0.95043945,-0.16070557,-0.30889893,0.125,0.28125,-0.421875
132,132,1727110318340,-0.9423828,-0.1687622,-0.31011963,-0.296875,0.1875,-0.375
133,133,1727110318380,-0.9465332,-0.16583252,-0.30352783,-0.046875,0.109375,-0.234375
134,134,1727110318420,-0.93652344,-0.16119385,-0.31207275,-0.046875,-0.046875,-0.5
135,135,1727110318460,-0.93237305,-0.1609497,-0.31549072,-0.21875,0.78125,-0.59375
136,136,1727110318500,-0.9421387,-0.16827393,-0.31256104,-0.5,-0.671875,-0.03125
137,137,1727110318540,-0.95458984,-0.16802979,-0.3098755,0.140625,0.21875,-0.40625
138,138,1727110318580,-0.9375,-0.16583252,-0.30596924,-0.25,1.03125,-0.9375
139,139,1727110318620,-0.9445801,-0.15655518,-0.30596924,-0.28125,0.671875,-0.46875
140,140,1727110318660,-0.951416,-0.15826416,-0.30377197,-0.3125,0.53125,-0.421875
141,141,1727110318700,-0.9440918,-0.16265869,-0.31524658,-0.015625,0.171875,-0.359375
142,142,1727110318740,-0.9482422,-0.1651001,-0.30792236,0.171875,0.0,-0.203125
143,143,1727110318780,-0.95214844,-0.16119385,-0.30718994,-0.234375,-0.46875,-0.078125
144,144,1727110318820,-0.93896484,-0.1609497,-0.3086548,0.203125,0.03125,-0.3125
145,145,1727110318860,-0.94873047,-0.16412354,-0.31500244,-0.09375,-0.84375,0.0625
146,146,1727110318900,-0.94018555,-0.16143799,-0.3081665,0.5625,-0.15625,-0.1875
147,147,1727110318940,-0.9406738,-0.16729736,-0.31573486,0.28125,-0.40625,0.015625
148,148,1727110318980,-0.9458008,-0.16729736,-0.31011963,0.0625,0.25,0.125
149,149,1727110319020,-0.94384766,-0.16314697,-0.31280518,0.359375,-0.09375,-0.171875
150,150,1727110319060,-0.9489746,-0.1638794,-0.31011963,0.234375,-0.09375,-0.109375
151,151,1727110319100,-0.9453125,-0.16485596,-0.3164673,0.203125,-0.078125,0.15625
152,152,1727110319140,-0.94873047,-0.16851807,-0.30914307,0.421875,-0.203125,0.0625
153,153,1727110319180,-0.94018555,-0.15899658,-0.30645752,0.71875,0.9375,-0.40625
154,154,1727110319220,-0.94262695,-0.17462158,-0.31573486,0.0625,-0.40625,0.03125
155,155,1727110319260,-0.9423828,-0.16363525,-0.30963135,0.5625,-0.046875,0.03125
156,156,1727110319300,-0.94506836,-0.16168213,-0.31207275,0.453125,0.671875,-0.375
157,157,1727110319340,-0.94628906,-0.16729736,-0.3135376,0.578125,0.59375,-0.265625
158,158,1727110319380,-0.9489746,-0.17047119,-0.3147583,0.21875,-0.078125,0.03125
159,159,1727110319420,-0.93774414,-0.16827393,-0.31378174,0.28125,-0.09375,-0.046875
160,160,1727110319460,-0.9436035,-0.16680908,-0.31280518,0.328125,0.046875,0.0625
161,161,1727110319500,-0.9511719,-0.1651001,-0.31402588,0.265625,-0.421875,0.171875
162,162,1727110319540,-0.9428711,-0.16851807,-0.30914307,0.578125,0.015625,-0.09375
163,163,1727110319580,-0.9448242,-0.1675415,-0.31402588,0.171875,-0.5,0.03125
164,164,1727110319620,-0.9445801,-0.17144775,-0.3106079,0.546875,-0.640625,0.109375
165,165,1727110319660,-0.94140625,-0.16680908,-0.31793213,-0.015625,-0.546875,0.0625
166,166,1727110319700,-0.935791,-0.16143799,-0.31402588,0.171875,-0.234375,-0.046875
167,167,1727110319740,-0.9404297,-0.16851807,-0.32061768,0.171875,-0.109375,0.09375
168,168,1727110319780,-0.9445801,-0.17144775,-0.315979,0.296875,-0.34375,0.15625
169,169,1727110319820,-0.93896484,-0.17730713,-0.31915283,0.34375,-0.21875,-0.015625
170,170,1727110319860,-0.9411621,-0.1687622,-0.31915283,0.25,-0.109375,0.140625
171,171,1727110319900,-0.9379883,-0.17095947,-0.3196411,-0.296875,-0.328125,0.203125
172,172,1727110319940,-0.93774414,-0.16802979,-0.32281494,0.421875,-0.140625,-0.1875
173,173,1727110319980,-0.9375,-0.17193604,-0.30889893,0.71875,-0.53125,0.015625
174,174,1727110320020,-0.93530273,-0.16973877,-0.32110596,0.1875,-0.015625,-0.09375
175,175,1727110320060,-0.9399414,-0.16949463,-0.3147583,0.3125,0.15625,0.015625
176,176,1727110320100,-0.9382324,-0.16656494,-0.32086182,0.078125,0.171875,-0.109375
177,177,1727110320140,-0.935791,-0.16802979,-0.3213501,0.015625,-0.3125,-0.203125
178,178,1727110320180,-0.94140625,-0.16705322,-0.31793213,0.1875,-0.171875,-0.046875
179,179,1727110320220,-0.9387207,-0.1675415,-0.31427002,0.21875,-0.28125,-0.171875
180,180,1727110320260,-0.9296875,-0.17071533,-0.3213501,0.296875,-0.46875,0.140625
181,181,1727110320300,-0.94189453,-0.17266846,-0.32525635,0.0,-0.171875,-0.046875
182,182,1727110320340,-0.93896484,-0.17828369,-0.32769775,0.09375,-0.90625,0.171875
183,183,1727110320380,-0.9416504,-0.16949463,-0.31622314,0.15625,0.09375,-0.15625
184,184,1727110320420,-0.93530273,-0.16680908,-0.3189087,0.0625,-0.203125,0.046875
185,185,1727110320460,-0.94140625,-0.17022705,-0.32159424,0.25,0.15625,-0.140625
186,186,1727110320500,-0.93847656,-0.17144775,-0.32183838,0.203125,0.34375,0.015625
187,187,1727110320540,-0.94091797,-0.17095947,-0.3255005,0.125,0.0625,-0.171875
188,188,1727110320580,-0.9394531,-0.175354,-0.32159424,0.25,-0.0625,-0.03125
189,189,1727110320620,-0.939209,-0.17779541,-0.32232666,0.03125,0.3125,-0.296875
190,190,1727110320660,-0.93408203,-0.16607666,-0.3086548,0.3125,0.359375,-0.3125
191,191,1727110320700,-0.9387207,-0.16925049,-0.3274536,0.21875,0.03125,-0.046875
192,192,1727110320740,-0.9350586,-0.17218018,-0.32720947,-0.265625,-0.203125,-0.140625
193,193,1727110320780,-0.9367676,-0.1765747,-0.32525635,0.03125,0.21875,-0.265625
194,194,1727110320820,-0.9382324,-0.17144775,-0.3237915,0.0625,0.453125,-0.21875
195,195,1727110320860,-0.9406738,-0.17633057,-0.32281494,0.0,0.078125,-0.234375
196,196,1727110320900,-0.9433594,-0.17486572,-0.32110596,0.078125,0.625,-0.328125
197,197,1727110320940,-0.94262695,-0.1765747,-0.31939697,0.078125,0.71875,-0.390625
198,198,1727110320980,-0.93774414,-0.18145752,-0.3237915,-0.109375,0.0625,-0.0625
199,199,1727110321020,-0.93603516,-0.17681885,-0.31939697,0.453125,0.640625,-0.625
200,200,1727110321060,-0.9428711,-0.17559814,-0.32403564,0.421875,0.375,-0.375
201,201,1727110321100,-0.93603516,-0.16680908,-0.31744385,0.25,0.703125,-0.5625
202,202,1727110321140,-0.9465332,-0.17095947,-0.32061768,0.140625,0.359375,-0.5
203,203,1727110321180,-0.9404297,-0.1729126,-0.32159424,0.375,0.8125,-0.515625
204,204,1727110321220,-0.94311523,-0.175354,-0.31451416,0.28125,0.734375,-0.5
205,205,1727110321260,-0.9428711,-0.1741333,-0.31817627,0.28125,0.625,-0.53125
206,206,1727110321300,-0.9421387,-0.17022705,-0.3196411,0.375,0.765625,-0.5625
207,207,1727110321340,-0.93725586,-0.17266846,-0.31866455,-0.140625,0.765625,-0.4375
208,208,1727110321380,-0.9404297,-0.17266846,-0.31817627,-0.3125,0.4375,-0.4375
209,209,1727110321420,-0.94750977,-0.16558838,-0.30621338,0.53125,1.15625,-0.6875
210,210,1727110321460,-0.9440918,-0.16583252,-0.31793213,0.65625,0.53125,-0.484375
211,211,1727110321500,-0.9404297,-0.17340088,-0.31695557,-0.078125,1.359375,-0.84375
212,212,1727110321540,-0.939209,-0.1716919,-0.3118286,-0.171875,1.1875,-0.609375
213,213,1727110321580,-0.94628906,-0.16827393,-0.31304932,-0.140625,1.015625,-0.546875
214,214,1727110321620,-0.94506836,-0.16729736,-0.3110962,-0.171875,0.640625,-0.546875
215,215,1727110321660,-0.94433594,-0.16339111,-0.3057251,-0.0625,0.890625,-0.71875
216,216,1727110321700,-0.9494629,-0.17218018,-0.30352783,0.0625,0.84375,-0.625
217,217,1727110321740,-0.9433594,-0.16949463,-0.3098755,-0.046875,0.375,-0.375
218,218,1727110321780,-0.94750977,-0.16851807,-0.3110962,0.125,0.046875,-0.34375
219,219,1727110321820,-0.9436035,-0.1687622,-0.3110962,0.203125,-0.140625,-0.203125
220,220,1727110321860,-0.94018555,-0.16021729,-0.3093872,-0.265625,-0.09375,-0.28125
221,221,1727110321900,-0.94628906,-0.1675415,-0.31158447,0.203125,0.015625,-0.234375
222,222,1727110321940,-0.9484863,-0.16949463,-0.3098755,-0.125,0.09375,-0.296875
223,223,1727110321980,-0.9423828,-0.16998291,-0.31207275,-0.109375,0.171875,-0.265625
224,224,1727110322020,-0.9445801,-0.1687622,-0.30645752,0.046875,0.09375,-0.1875
225,225,1727110322060,-0.9465332,-0.16485596,-0.3135376,-0.078125,0.0,-0.265625
226,226,1727110322100,-0.94140625,-0.16827393,-0.30841064,0.078125,0.640625,-0.5625
227,227,1727110322140,-0.9428711,-0.16314697,-0.30963135,-0.140625,-0.859375,0.09375
228,228,1727110322180,-0.95214844,-0.16973877,-0.30621338,0.40625,0.234375,-0.40625
229,229,1727110322220,-0.94018555,-0.16705322,-0.30963135,-0.015625,0.65625,-0.453125
230,230,1727110322260,-0.9411621,-0.16558838,-0.30596924,-0.078125,0.421875,-0.265625
231,231,1727110322300,-0.9465332,-0.1675415,-0.3110962,-0.03125,0.328125,-0.140625
232,232,1727110322340,-0.9499512,-0.17510986,-0.3086548,0.15625,0.15625,-0.25
233,233,1727110322380,-0.9416504,-0.17144775,-0.31036377,0.328125,0.046875,0.03125
234,234,1727110322420,-0.9436035,-0.17242432,-0.30108643,0.21875,-0.125,0.265625
235,235,1727110322460,-0.93774414,-0.1638794,-0.30230713,0.25,0.09375,-0.03125
236,236,1727110322500,-0.9440918,-0.17193604,-0.3093872,0.046875,-0.484375,0.140625
237,237,1727110322540,-0.9489746,-0.16412354,-0.3110962,0.46875,-0.34375,0.109375
238,238,1727110322580,-0.9470215,-0.17022705,-0.31256104,-0.0625,-0.390625,0.125
239,239,1727110322620,-0.93725586,-0.16558838,-0.3135376,0.40625,0.0625,0.0625
240,240,1727110322660,-0.94799805,-0.1765747,-0.3123169,0.375,-0.359375,0.296875
241,241,1727110322700,-0.9465332,-0.16925049,-0.31158447,0.359375,-0.109375,0.109375
242,242,1727110322740,-0.93847656,-0.17877197,-0.31402588,0.515625,-0.0625,0.140625
243,243,1727110322780,-0.9465332,-0.1716919,-0.31427002,0.34375,-0.046875,0.078125
244,244,1727110322820,-0.9423828,-0.17144775,-0.31524658,0.671875,0.515625,-0.234375
245,245,1727110322860,-0.939209,-0.17706299,-0.31939697,-0.078125,-0.453125,0.140625
246,246,1727110322900,-0.9399414,-0.17047119,-0.31817627,0.609375,-0.328125,0.0625
247,247,1727110322940,-0.94384766,-0.17510986,-0.31500244,0.40625,0.46875,-0.109375
248,248,1727110322980,-0.94311523,-0.16998291,-0.31427002,0.25,0.25,-0.125
249,249,1727110323020,-0.9416504,-0.17120361,-0.31622314,0.21875,-0.03125,0.015625
250,250,1727110323060,-0.94140625,-0.17340088,-0.31573486,0.171875,-0.140625,0.03125
251,251,1727110323100,-0.939209,-0.17266846,-0.3184204,0.234375,-0.234375,0.21875
252,252,1727110323140,-0.9458008,-0.17633057,-0.31695557,0.4375,-0.359375,0.203125
253,253,1727110323180,-0.9343262,-0.17315674,-0.31256104,0.421875,-0.390625,-0.03125
254,254,1727110323220,-0.94140625,-0.17095947,-0.32354736,0.40625,-0.21875,-0.28125
255,255,1727110323260,-0.9367676,-0.17437744,-0.32305908,0.015625,-0.71875,-0.015625
256,256,1727110323300,-0.9382324,-0.1729126,-0.31573486,0.125,-0.25,-0.125
257,257,1727110323340,-0.93847656,-0.1741333,-0.31915283,0.171875,0.046875,-0.15625
258,258,1727110323380,-0.93603516,-0.17755127,-0.3213501,0.078125,0.328125,-0.109375
259,259,1727110323420,-0.9458008,-0.17315674,-0.3196411,0.21875,-0.109375,-0.125
260,260,1727110323460,-0.9367676,-0.17388916,-0.3250122,0.453125,0.140625,-0.140625
261,261,1727110323500,-0.9423828,-0.1741333,-0.32110596,0.1875,-0.203125,-0.234375
262,262,1727110323540,-0.9301758,-0.18170166,-0.32476807,-0.21875,-0.46875,0.046875
263,263,1727110323580,-0.94262695,-0.17608643,-0.31671143,0.375,0.421875,-0.4375
264,264,1727110323620,-0.93408203,-0.17706299,-0.31671143,0.421875,-0.28125,-0.203125
265,265,1727110323660,-0.939209,-0.17266846,-0.3237915,0.0,0.21875,-0.21875
266,266,1727110323700,-0.9367676,-0.1795044,-0.32818604,-0.015625,0.3125,-0.09375
267,267,1727110323740,-0.939209,-0.17681885,-0.32525635,-0.015625,0.421875,-0.1875
268,268,1727110323780,-0.93774414,-0.18048096,-0.32037354,0.234375,0.203125,-0.21875
269,269,1727110323820,-0.93969727,-0.17437744,-0.31671143,0.171875,0.265625,-0.34375
270,270,1727110323860,-0.93408203,-0.17437744,-0.315979,0.34375,0.078125,-0.21875
271,271,1727110323900,-0.93530273,-0.17681885,-0.31451416,0.390625,0.015625,-0.078125
272,272,1727110323940,-0.9404297,-0.17462158,-0.3225708,0.09375,0.125,-0.171875
273,273,1727110323980,-0.9367676,-0.17364502,-0.32208252,0.140625,-0.375,0.046875
274,274,1727110324020,-0.9370117,-0.17608643,-0.3255005,0.21875,0.265625,-0.265625
275,275,1727110324060,-0.93188477,-0.17486572,-0.3242798,0.1875,-0.109375,-0.171875
276,276,1727110324100,-0.9387207,-0.17681885,-0.31695557,0.1875,0.234375,-0.203125
277,277,1727110324140,-0.94311523,-0.17584229,-0.31915283,0.28125,0.421875,-0.21875
278,278,1727110324180,-0.93652344,-0.18170166,-0.3225708,0.0625,0.3125,-0.21875
279,279,1727110324220,-0.9350586,-0.17852783,-0.3255005,0.203125,0.328125,-0.390625
280,280,1727110324260,-0.935791,-0.1765747,-0.31524658,0.171875,0.671875,-0.5
281,281,1727110324300,-0.92871094,-0.1729126,-0.32598877,-0.078125,0.625,-0.5
282,282,1727110324340,-0.93725586,-0.17999268,-0.31793213,0.15625,0.484375,-0.515625
283,283,1727110324380,-0.9411621,-0.17852783,-0.31304932,0.65625,0.546875,-0.546875
284,284,1727110324420,-0.9375,-0.17095947,-0.3225708,0.25,1.0625,-0.578125
285,285,1727110324460,-0.93774414,-0.17633057,-0.3171997,0.15625,0.953125,-0.578125
286,286,1727110324500,-0.9404297,-0.17486572,-0.31988525,0.046875,0.953125,-0.640625
287,287,1727110324540,-0.94189453,-0.17559814,-0.31451416,0.125,0.84375,-0.671875
288,288,1727110324580,-0.9436035,-0.16802979,-0.30767822,0.171875,1.09375,-0.671875
289,289,1727110324620,-0.93774414,-0.17071533,-0.3189087,0.46875,0.9375,-0.6875
290,290,1727110324660,-0.9367676,-0.1663208,-0.30596924,0.296875,0.359375,-0.484375
291,291,1727110324700,-0.94018555,-0.18170166,-0.315979,0.109375,0.28125,-0.421875
292,292,1727110324740,-0.9382324,-0.1729126,-0.31671143,0.015625,0.0,-0.21875
293,293,1727110324780,-0.9387207,-0.16656494,-0.30718994,0.03125,0.5,-0.53125
294,294,1727110324820,-0.94970703,-0.175354,-0.31011963,0.0,0.296875,-0.375
295,295,1727110324860,-0.9411621,-0.17022705,-0.31256104,0.09375,0.515625,-0.375
296,296,1727110324900,-0.9399414,-0.17633057,-0.31207275,0.09375,0.15625,-0.25
297,297,1727110324940,-0.9421387,-0.17462158,-0.31011963,0.15625,0.609375,-0.5
298,298,1727110324980,-0.94189453,-0.17340088,-0.31524658,-0.203125,0.4375,-0.515625
299,299,1727110325020,-0.9379883,-0.17633057,-0.3135376,-0.140625,-0.015625,-0.53125
300,300,1727110325060,-0.94970703,-0.1663208,-0.29693604,0.203125,0.5,-0.46875
301,301,1727110325100,-0.9387207,-0.17242432,-0.31134033,0.59375,0.5,-0.546875
302,302,1727110325140,-0.9367676,-0.17120361,-0.30963135,-0.140625,0.6875,-0.734375
303,303,1727110325180,-0.9406738,-0.17608643,-0.30108643,0.0,0.796875,-0.4375
304,304,1727110325220,-0.94555664,-0.16973877,-0.3110962,0.109375,0.390625,-0.375
305,305,1727110325260,-0.9453125,-0.16729736,-0.3093872,0.078125,0.140625,-0.4375
306,306,1727110325300,-0.9411621,-0.16680908,-0.30352783,-0.03125,0.453125,-0.265625
307,307,1727110325340,-0.9448242,-0.16583252,-0.30352783,0.21875,0.140625,-0.140625
308,308,1727110325380,-0.9489746,-0.16925049,-0.30792236,0.203125,-0.1875,-0.078125
309,309,1727110325420,-0.9477539,-0.16925049,-0.29864502,0.421875,-0.125,-0.078125
310,310,1727110325460,-0.9440918,-0.17364502,-0.3123169,0.390625,-0.25,0.0625
311,311,1727110325500,-0.9433594,-0.16851807,-0.30108643,0.28125,-0.15625,-0.140625
312,312,1727110325540,-0.9433594,-0.17388916,-0.31329346,0.203125,-0.265625,0.03125
313,313,1727110325580,-0.9482422,-0.16436768,-0.30963135,0.203125,-0.015625,-0.03125
314,314,1727110325620,-0.94091797,-0.17047119,-0.3093872,0.5,-0.09375,0.09375
315,315,1727110325660,-0.94628906,-0.1716919,-0.31378174,0.15625,-0.09375,-0.046875
316,316,1727110325700,-0.9440918,-0.17071533,-0.3093872,0.125,-0.15625,0.0
317,317,1727110325740,-0.9489746,-0.17926025,-0.31866455,0.171875,-0.375,0.015625
318,318,1727110325780,-0.9416504,-0.1716919,-0.302063,0.421875,0.28125,-0.25
319,319,1727110325820,-0.94189453,-0.17706299,-0.32330322,0.4375,-0.46875,-0.03125
320,320,1727110325860,-0.94091797,-0.17218018,-0.3201294,-0.21875,-0.46875,-0.046875
321,321,1727110325900,-0.9472656,-0.17364502,-0.30670166,0.15625,0.21875,-0.03125
322,322,1727110325940,-0.94873047,-0.1716919,-0.31207275,0.15625,0.203125,-0.09375
323,323,1727110325980,-0.93896484,-0.17242432,-0.31011963,0.234375,-0.171875,-0.046875
324,324,1727110326020,-0.93652344,-0.17999268,-0.31744385,0.40625,-0.296875,-0.078125
325,325,1727110326060,-0.93969727,-0.175354,-0.31915283,0.40625,-0.3125,0.015625
326,326,1727110326100,-0.9421387,-0.17779541,-0.3147583,-0.09375,-0.6875,0.125
327,327,1727110326140,-0.94311523,-0.18048096,-0.31256104,0.453125,-0.046875,-0.140625
328,328,1727110326180,-0.9423828,-0.18218994,-0.32208252,0.34375,-0.40625,0.125
329,329,1727110326220,-0.939209,-0.17608643,-0.31671143,0.515625,-0.171875,-0.21875
330,330,1727110326260,-0.94433594,-0.17901611,-0.32403564,0.234375,-0.328125,-0.09375
331,331,1727110326300,-0.9355469,-0.17828369,-0.31988525,0.28125,0.171875,-0.25
332,332,1727110326340,-0.9321289,-0.17779541,-0.31549072,0.484375,-0.125,-0.046875
333,333,1727110326380,-0.93725586,-0.18096924,-0.32183838,-0.078125,0.03125,-0.03125
334,334,1727110326420,-0.9382324,-0.17828369,-0.31744385,0.203125,-0.125,-0.078125
335,335,1727110326460,-0.9375,-0.17681885,-0.31915283,0.453125,-0.03125,-0.296875
336,336,1727110326500,-0.9394531,-0.17706299,-0.32061768,-0.078125,-0.015625,-0.09375
337,337,1727110326540,-0.9394531,-0.1716919,-0.32159424,0.109375,-0.328125,-0.140625
338,338,1727110326580,-0.93237305,-0.17926025,-0.3213501,0.46875,-0.171875,-0.0625
339,339,1727110326620,-0.9362793,-0.18048096,-0.32281494,0.234375,0.453125,-0.375
340,340,1727110326660,-0.9321289,-0.17340088,-0.32525635,0.0,0.1875,-0.0625
341,341,1727110326700,-0.93530273,-0.17706299,-0.31866455,0.234375,0.171875,-0.203125
342,342,1727110326740,-0.9382324,-0.17877197,-0.31329346,0.0625,0.203125,-0.15625
343,343,1727110326780,-0.9362793,-0.17364502,-0.31744385,0.234375,0.234375,-0.203125
344,344,1727110326820,-0.93359375,-0.18048096,-0.3106079,0.40625,0.484375,-0.328125
345,345,1727110326860,-0.9321289,-0.17828369,-0.32159424,0.359375,0.171875,-0.234375
346,346,1727110326900,-0.9375,-0.18609619,-0.32208252,0.125,0.21875,-0.203125
347,347,1727110326940,-0.9404297,-0.17462158,-0.32476807,0.203125,-0.265625,0.078125
348,348,1727110326980,-0.93847656,-0.17926025,-0.317688,0.171875,0.109375,-0.46875
349,349,1727110327020,-0.9387207,-0.17608643,-0.3213501,0.21875,0.015625,-0.1875
350,350,1727110327060,-0.9404297,-0.18023682,-0.32232666,0.171875,0.171875,-0.25
351,351,1727110327100,-0.9382324,-0.17999268,-0.32037354,0.15625,0.265625,-0.21875
352,352,1727110327140,-0.9370117,-0.17828369,-0.31817627,0.125,0.15625,-0.171875
353,353,1727110327180,-0.9355469,-0.17608643,-0.32354736,0.265625,0.109375,-0.1875
354,354,1727110327220,-0.93481445,-0.17559814,-0.3184204,0.265625,0.484375,-0.390625
355,355,1727110327260,-0.9394531,-0.17144775,-0.31573486,0.328125,0.921875,-0.625
356,356,1727110327300,-0.9421387,-0.18023682,-0.31915283,-0.046875,0.125,-0.25
357,357,1727110327340,-0.9399414,-0.1807251,-0.3147583,-0.015625,-0.03125,-0.25
358,358,1727110327380,-0.9343262,-0.17340088,-0.3196411,0.125,0.984375,-0.484375
359,359,1727110327420,-0.9406738,-0.17510986,-0.31573486,0.046875,0.96875,-0.484375
360,360,1727110327460,-0.9404297,-0.18536377,-0.31427002,0.078125,0.859375,-0.734375
361,361,1727110327500,-0.94433594,-0.1765747,-0.31695557,0.078125,0.765625,-0.578125
362,362,1727110327540,-0.94140625,-0.17706299,-0.31329346,0.078125,0.859375,-0.453125
363,363,1727110327580,-0.9460449,-0.17803955,-0.31304932,0.40625,0.703125,-0.484375
364,364,1727110327620,-0.93408203,-0.17755127,-0.30621338,0.375,0.5,-0.390625
365,365,1727110327660,-0.94091797,-0.17633057,-0.3147583,0.296875,0.625,-0.453125
366,366,1727110327700,-0.94262695,-0.17608643,-0.31671143,0.046875,0.46875,-0.4375
367,367,1727110327740,-0.9411621,-0.1741333,-0.31378174,0.0625,0.53125,-0.453125
368,368,1727110327780,-0.9399414,-0.17852783,-0.315979,0.09375,0.75,-0.640625
369,369,1727110327820,-0.93847656,-0.17218018,-0.31085205,0.203125,0.734375,-0.65625
370,370,1727110327860,-0.94506836,-0.17388916,-0.3147583,-0.078125,0.40625,-0.4375
371,371,1727110327900,-0.94311523,-0.17559814,-0.31036377,0.203125,0.640625,-0.609375
372,372,1727110327940,-0.9404297,-0.18243408,-0.31402588,-0.125,0.375,-0.53125
373,373,1727110327980,-0.9453125,-0.18145752,-0.31036377,-0.28125,0.390625,-0.46875
374,374,1727110328020,-0.9421387,-0.17510986,-0.29229736,0.359375,1.140625,-0.5625
375,375,1727110328060,-0.93896484,-0.17340088,-0.3164673,0.671875,0.640625,-0.5
376,376,1727110328100,-0.9428711,-0.17999268,-0.31158447,-0.421875,0.9375,-0.765625
377,377,1727110328140,-0.94311523,-0.16998291,-0.30670166,-0.265625,1.21875,-0.78125
378,378,1727110328180,-0.94262695,-0.17022705,-0.30499268,-0.25,1.046875,-0.625
379,379,1727110328220,-0.95043945,-0.1716919,-0.29986572,-0.484375,0.6875,-0.375
380,380,1727110328260,-0.94873047,-0.1741333,-0.29937744,-0.140625,0.375,-0.4375
381,381,1727110328300,-0.9448242,-0.16851807,-0.3008423,-0.171875,0.484375,-0.53125
382,382,1727110328340,-0.9460449,-0.17120361,-0.30059814,-0.3125,-0.609375,0.03125
383,383,1727110328380,-0.95336914,-0.17706299,-0.2930298,0.1875,-0.0625,-0.171875
384,384,1727110328420,-0.9416504,-0.18048096,-0.30743408,0.21875,-0.4375,-0.265625
385,385,1727110328460,-0.9440918,-0.16436768,-0.29986572,0.09375,0.046875,-0.15625
386,386,1727110328500,-0.9465332,-0.17266846,-0.30670166,0.234375,-0.28125,-0.171875
387,387,1727110328540,-0.94262695,-0.16851807,-0.3040161,0.125,-0.078125,-0.09375
388,388,1727110328580,-0.94091797,-0.17730713,-0.3069458,0.09375,0.0,-0.109375
389,389,1727110328620,-0.9460449,-0.17437744,-0.30841064,0.15625,-0.09375,-0.171875
390,390,1727110328660,-0.94628906,-0.17437744,-0.3015747,0.09375,-0.046875,-0.15625
391,391,1727110328700,-0.9472656,-0.17510986,-0.3040161,0.078125,-0.140625,-0.046875
392,392,1727110328740,-0.9458008,-0.16656494,-0.30010986,0.3125,0.25,-0.265625
393,393,1727110328780,-0.9484863,-0.17340088,-0.31549072,0.4375,0.015625,-0.109375
394,394,1727110328820,-0.94018555,-0.17242432,-0.30303955,0.046875,-0.21875,0.0
395,395,1727110328860,-0.9406738,-0.17388916,-0.30133057,0.359375,0.59375,-0.390625
396,396,1727110328900,-0.94262695,-0.17071533,-0.29937744,0.359375,0.203125,-0.265625
397,397,1727110328940,-0.9494629,-0.17486572,-0.30670166,0.15625,0.03125,-0.140625
398,398,1727110328980,-0.94311523,-0.17926025,-0.30792236,0.109375,0.390625,-0.125
399,399,1727110329020,-0.9433594,-0.17755127,-0.30718994,0.390625,0.0625,0.015625
400,400,1727110329060,-0.9465332,-0.175354,-0.30548096,0.171875,-0.546875,0.1875
401,401,1727110329100,-0.94311523,-0.17242432,-0.30621338,0.6875,-0.078125,-0.015625
402,402,1727110329140,-0.94555664,-0.17999268,-0.3081665,0.28125,-0.375,0.125
403,403,1727110329180,-0.9458008,-0.17803955,-0.30596924,0.59375,-0.40625,0.109375
404,404,1727110329220,-0.9511719,-0.17120361,-0.30889893,-0.046875,-0.296875,0.03125
405,405,1727110329260,-0.9404297,-0.1716919,-0.3098755,0.4375,0.125,-0.03125
406,406,1727110329300,-0.94018555,-0.17852783,-0.31085205,0.25,-0.1875,0.09375
407,407,1727110329340,-0.94189453,-0.1741333,-0.31134033,0.4375,-0.34375,0.203125
408,408,1727110329380,-0.9494629,-0.17633057,-0.31207275,0.46875,-0.390625,-0.140625
409,409,1727110329420,-0.93969727,-0.17510986,-0.31378174,0.125,-0.125,-0.015625
410,410,1727110329460,-0.94189453,-0.17462158,-0.31939697,-0.171875,-0.59375,0.125
411,411,1727110329500,-0.9406738,-0.1765747,-0.30670166,0.453125,0.4375,-0.203125
412,412,1727110329540,-0.9399414,-0.17559814,-0.31378174,0.40625,-0.625,-0.078125
413,413,1727110329580,-0.94384766,-0.18218994,-0.31524658,-0.109375,-0.21875,-0.140625
414,414,1727110329620,-0.9411621,-0.17340088,-0.31207275,0.15625,0.1875,-0.203125
415,415,1727110329660,-0.93652344,-0.175354,-0.31207275,0.0,0.203125,-0.125
416,416,1727110329700,-0.9370117,-0.17706299,-0.31304932,0.25,-0.03125,-0.1875
417,417,1727110329740,-0.9399414,-0.17852783,-0.31134033,0.109375,0.0625,0.046875
418,418,1727110329780,-0.9404297,-0.17779541,-0.3110962,0.25,0.015625,-0.09375
419,419,1727110329820,-0.939209,-0.18121338,-0.31500244,0.125,-0.453125,0.234375
420,420,1727110329860,-0.94311523,-0.17730713,-0.31427002,0.453125,-0.03125,-0.015625
421,421,1727110329900,-0.9428711,-0.17755127,-0.31817627,0.125,-0.21875,0.046875
422,422,1727110329940,-0.9387207,-0.17755127,-0.31451416,0.40625,0.15625,-0.234375
423,423,1727110329980,-0.9433594,-0.18170166,-0.32354736,0.171875,-0.09375,-0.15625
424,424,1727110330020,-0.93969727,-0.17755127,-0.3106079,0.21875,0.03125,-0.1875
425,425,1727110330060,-0.9375,-0.17462158,-0.31793213,0.390625,0.078125,-0.125
426,426,1727110330100,-0.9416504,-0.17803955,-0.31573486,0.203125,-0.046875,-0.109375
427,427,1727110330140,-0.9406738,-0.18023682,-0.3110962,0.265625,0.046875,-0.078125
428,428,1727110330180,-0.9416504,-0.17999268,-0.31988525,0.1875,-0.0625,-0.1875
429,429,1727110330220,-0.9350586,-0.17999268,-0.3213501,0.046875,-0.40625,0.078125
430,430,1727110330260,-0.94091797,-0.17462158,-0.31011963,0.328125,0.671875,-0.46875
431,431,1727110330300,-0.9321289,-0.17681885,-0.32281494,0.484375,-0.015625,0.0625
432,432,1727110330340,-0.9399414,-0.18365479,-0.32110596,0.03125,0.25,-0.1875
433,433,1727110330380,-0.9411621,-0.18341064,-0.31524658,0.03125,0.28125,-0.28125
434,434,1727110330420,-0.935791,-0.18218994,-0.31695557,0.046875,0.421875,-0.234375
435,435,1727110330460,-0.9394531,-0.17852783,-0.32086182,-0.03125,0.25,-0.3125
436,436,1727110330500,-0.93969727,-0.18609619,-0.3164673,0.03125,0.1875,-0.28125
437,437,1727110330540,-0.94140625,-0.17974854,-0.31085205,0.109375,0.328125,-0.21875
438,438,1727110330580,-0.93652344,-0.17901611,-0.3171997,0.15625,0.0,0.078125
439,439,1727110330620,-0.94018555,-0.17584229,-0.3201294,0.390625,0.09375,-0.15625
440,440,1727110330660,-0.9416504,-0.18804932,-0.31915283,0.28125,-0.25,-0.171875
441,441,1727110330700,-0.9370117,-0.17730713,-0.32037354,0.171875,0.171875,-0.28125
442,442,1727110330740,-0.94311523,-0.18243408,-0.32354736,0.171875,-0.046875,-0.25
443,443,1727110330780,-0.94091797,-0.1807251,-0.3171997,0.1875,0.5,-0.40625
444,444,1727110330820,-0.9428711,-0.17633057,-0.3184204,0.1875,0.515625,-0.46875
445,445,1727110330860,-0.9309082,-0.175354,-0.30963135,0.078125,0.40625,-0.203125
446,446,1727110330900,-0.9416504,-0.17730713,-0.3118286,0.25,0.59375,-0.59375
447,447,1727110330940,-0.93603516,-0.18243408,-0.31524658,0.234375,0.5625,-0.5
448,448,1727110330980,-0.93408203,-0.18121338,-0.31915283,-0.1875,0.265625,-0.375
449,449,1727110331020,-0.9404297,-0.17681885,-0.3098755,0.328125,1.203125,-0.796875
450,450,1727110331060,-0.93359375,-0.18121338,-0.31622314,0.53125,0.65625,-0.53125
451,451,1727110331100,-0.93725586,-0.17510986,-0.3118286,-0.046875,1.3125,-0.703125
452,452,1727110331140,-0.9399414,-0.17462158,-0.30963135,-0.171875,1.078125,-0.59375
453,453,1727110331180,-0.9470215,-0.17340088,-0.30743408,0.109375,1.328125,-0.625
454,454,1727110331220,-0.94091797,-0.1741333,-0.31158447,-0.03125,0.671875,-0.765625
455,455,1727110331260,-0.9440918,-0.17462158,-0.30743408,0.234375,1.015625,-0.59375
456,456,1727110331300,-0.93896484,-0.17218018,-0.302063,0.21875,0.890625,-0.5
457,457,1727110331340,-0.94433594,-0.17462158,-0.30670166,0.140625,0.390625,-0.25
458,458,1727110331380,-0.94555664,-0.17559814,-0.30499268,0.46875,0.6875,-0.625
459,459,1727110331420,-0.9433594,-0.17266846,-0.30963135,0.34375,-0.234375,-0.21875
460,460,1727110331460,-0.9489746,-0.16973877,-0.29864502,-0.078125,0.703125,-0.6875
461,461,1727110331500,-0.94433594,-0.17218018,-0.3081665,-0.15625,0.078125,-0.1875
462,462,1727110331540,-0.9445801,-0.17803955,-0.30621338,-0.1875,0.4375,-0.53125
463,463,1727110331580,-0.9489746,-0.17364502,-0.3057251,-0.015625,0.359375,-0.34375
464,464,1727110331620,-0.94677734,-0.17340088,-0.30841064,-0.078125,0.4375,-0.46875
465,465,1727110331660,-0.94433594,-0.18218994,-0.30377197,-0.109375,0.296875,-0.375
466,466,1727110331700,-0.94970703,-0.1765747,-0.30596924,-0.0625,0.015625,-0.203125
467,467,1727110331740,-0.9423828,-0.17144775,-0.29766846,0.359375,0.46875,-0.53125
468,468,1727110331780,-0.94140625,-0.17437744,-0.3106079,0.46875,0.28125,-0.546875
469,469,1727110331820,-0.9448242,-0.17071533,-0.3106079,-0.25,0.453125,-0.625
470,470,1727110331860,-0.9460449,-0.16461182,-0.30059814,-0.296875,0.984375,-0.5
471,471,1727110331900,-0.95166016,-0.17022705,-0.30010986,-0.078125,0.46875,-0.484375
472,472,1727110331940,-0.9382324,-0.17803955,-0.30474854,-0.09375,0.3125,-0.5625
473,473,1727110331980,-0.9484863,-0.1729126,-0.29840088,-0.171875,0.28125,-0.5
474,474,1727110332020,-0.9482422,-0.1675415,-0.30548096,0.0,0.125,-0.25
475,475,1727110332060,-0.94799805,-0.17437744,-0.30841064,-0.125,-0.71875,0.21875
476,476,1727110332100,-0.9501953,-0.16851807,-0.29156494,0.578125,-0.078125,-0.171875
477,477,1727110332140,-0.9470215,-0.17388916,-0.31011963,0.296875,-0.5,0.125
478,478,1727110332180,-0.94750977,-0.17486572,-0.29473877,0.140625,-0.078125,-0.015625
479,479,1727110332220,-0.94091797,-0.16973877,-0.3123169,0.21875,-0.21875,0.09375
480,480,1727110332260,-0.94311523,-0.17437744,-0.3027954,0.265625,0.03125,-0.09375
481,481,1727110332300,-0.9448242,-0.16900635,-0.3093872,0.28125,0.1875,-0.140625
482,482,1727110332340,-0.9458008,-0.17242432,-0.30255127,0.125,0.171875,-0.125
483,483,1727110332380,-0.9382324,-0.17608643,-0.30548096,0.265625,0.109375,0.0
484,484,1727110332420,-0.9472656,-0.17803955,-0.30548096,0.296875,-0.21875,0.0625
485,485,1727110332460,-0.9411621,-0.1716919,-0.29473877,0.5625,0.390625,-0.109375
486,486,1727110332500,-0.9458008,-0.17681885,-0.31085205,0.4375,-0.125,0.0
487,487,1727110332540,-0.93725586,-0.17047119,-0.3069458,0.09375,-0.4375,-0.09375
488,488,1727110332580,-0.9477539,-0.17047119,-0.3040161,0.3125,0.5,-0.203125
489,489,1727110332620,-0.94750977,-0.17388916,-0.30767822,0.21875,0.421875,-0.09375
490,490,1727110332660,-0.9448242,-0.17022705,-0.2991333,0.28125,0.25,-0.078125
491,491,1727110332700,-0.939209,-0.17584229,-0.30914307,0.265625,0.171875,0.0625
492,492,1727110332740,-0.9448242,-0.17364502,-0.30743408,0.265625,-0.140625,0.171875
493,493,1727110332780,-0.94384766,-0.17730713,-0.30841064,0.203125,-0.75,0.203125
494,494,1727110332820,-0.9387207,-0.17755127,-0.30108643,0.375,-0.5625,0.171875
495,495,1727110332860,-0.9428711,-0.1765747,-0.31158447,0.328125,-0.375,-0.125
496,496,1727110332900,-0.93896484,-0.17584229,-0.3069458,0.421875,-0.46875,-0.125
497,497,1727110332940,-0.94262695,-0.17120361,-0.30670166,0.203125,-0.546875,0.171875
498,498,1727110332980,-0.93847656,-0.17633057,-0.30743408,0.546875,-0.1875,-0.015625
499,499,1727110333020,-0.94384766,-0.175354,-0.30670166,0.5,-0.390625,0.265625
500,500,1727110333060,-0.93969727,-0.17974854,-0.30767822,0.203125,-0.28125,0.15625
501,501,1727110333100,-0.9394531,-0.17608643,-0.31427002,0.265625,-0.46875,0.125
502,502,1727110333140,-0.9345703,-0.17901611,-0.3118286,0.3125,-0.328125,-0.140625
503,503,1727110333180,-0.93969727,-0.1795044,-0.31304932,0.046875,0.125,0.09375
504,504,1727110333220,-0.9433594,-0.17706299,-0.3135376,0.3125,-0.15625,-0.109375
505,505,1727110333260,-0.93847656,-0.17999268,-0.30621338,0.734375,-0.4375,0.0
506,506,1727110333300,-0.94091797,-0.18218994,-0.31256104,0.3125,0.375,-0.296875
507,507,1727110333340,-0.94555664,-0.18585205,-0.30889893,0.0625,0.109375,0.0
508,508,1727110333380,-0.9370117,-0.17828369,-0.30963135,-0.078125,0.109375,-0.171875
509,509,1727110333420,-0.9416504,-0.17486572,-0.31158447,0.15625,-0.03125,-0.015625
510,510,1727110333460,-0.94433594,-0.1807251,-0.3123169,0.15625,0.125,-0.21875
511,511,1727110333500,-0.939209,-0.1807251,-0.30841064,0.46875,0.0625,-0.359375
512,512,1727110333540,-0.93530273,-0.1765747,-0.30889893,0.53125,-0.234375,-0.109375
513,513,1727110333580,-0.9416504,-0.1729126,-0.31011963,-0.015625,0.265625,-0.203125
514,514,1727110333620,-0.9436035,-0.18048096,-0.315979,0.28125,-0.625,0.078125
515,515,1727110333660,-0.94018555,-0.17706299,-0.3045044,0.359375,0.1875,-0.40625
516,516,1727110333700,-0.94433594,-0.18267822,-0.31817627,0.09375,-0.25,0.0
517,517,1727110333740,-0.93774414,-0.17852783,-0.31451416,0.09375,0.15625,-0.234375
518,518,1727110333780,-0.9382324,-0.17877197,-0.31524658,0.34375,0.21875,-0.125
519,519,1727110333820,-0.94262695,-0.18218994,-0.3164673,0.15625,0.09375,-0.21875
520,520,1727110333860,-0.9367676,-0.18389893,-0.3189087,0.28125,-0.0625,-0.21875
521,521,1727110333900,-0.9394531,-0.17779541,-0.3118286,0.359375,0.4375,-0.234375
522,522,1727110333940,-0.94018555,-0.18267822,-0.3110962,0.46875,0.53125,-0.296875
523,523,1727110333980,-0.94262695,-0.18804932,-0.31744385,0.09375,-0.109375,-0.109375
524,524,1727110334020,-0.9423828,-0.18048096,-0.31549072,0.109375,-0.125,-0.171875
525,525,1727110334060,-0.94262695,-0.17779541,-0.3123169,0.171875,0.375,-0.1875
526,526,1727110334100,-0.94189453,-0.17681885,-0.31427002,0.03125,0.421875,-0.265625
527,527,1727110334140,-0.9428711,-0.18218994,-0.31280518,0.125,0.15625,-0.34375
528,528,1727110334180,-0.94384766,-0.18096924,-0.31622314,0.21875,0.203125,-0.171875
529,529,1727110334220,-0.9445801,-0.17999268,-0.3118286,0.140625,0.40625,-0.3125
530,530,1727110334260,-0.94628906,-0.17803955,-0.3164673,0.328125,-0.046875,-0.171875
531,531,1727110334300,-0.9343262,-0.17926025,-0.31402588,0.375,-0.015625,-0.1875
532,532,1727110334340,-0.93725586,-0.18341064,-0.31378174,0.390625,0.21875,-0.328125
533,533,1727110334380,-0.9411621,-0.1885376,-0.31207275,0.25,-0.0625,-0.25
534,534,1727110334420,-0.94140625,-0.17999268,-0.31524658,0.03125,0.078125,-0.328125
535,535,1727110334460,-0.92871094,-0.18365479,-0.31549072,0.09375,0.359375,-0.453125
536,536,1727110334500,-0.94384766,-0.1765747,-0.3123169,0.015625,0.375,-0.296875
537,537,1727110334540,-0.9404297,-0.18170166,-0.3106079,0.1875,0.359375,-0.296875
538,538,1727110334580,-0.94091797,-0.18023682,-0.315979,0.171875,0.515625,-0.40625
539,539,1727110334620,-0.94140625,-0.1819458,-0.31671143,0.109375,0.328125,-0.46875
540,540,1727110334660,-0.9421387,-0.17901611,-0.31817627,0.3125,0.9375,-0.578125
541,541,1727110334700,-0.9394531,-0.17633057,-0.30596924,0.234375,0.9375,-0.546875
542,542,1727110334740,-0.9404297,-0.1831665,-0.31011963,-0.09375,0.25,-0.203125
543,543,1727110334780,-0.9482422,-0.18414307,-0.315979,-0.125,0.8125,-0.578125
544,544,1727110334820,-0.94311523,-0.17755127,-0.30767822,0.09375,1.15625,-0.578125
545,545,1727110334860,-0.9428711,-0.17633057,-0.3057251,0.109375,1.3125,-0.578125
546,546,1727110334900,-0.9421387,-0.17901611,-0.3118286,0.140625,0.953125,-0.5
547,547,1727110334940,-0.9399414,-0.17901611,-0.30059814,0.1875,0.796875,-0.625
548,548,1727110334980,-0.94677734,-0.17095947,-0.30841064,0.109375,0.828125,-0.625
549,549,1727110335020,-0.94384766,-0.17681885,-0.31036377,-0.125,0.203125,-0.25
550,550,1727110335060,-0.94628906,-0.17095947,-0.29815674,0.453125,0.40625,-0.453125
551,551,1727110335100,-0.9523926,-0.18170166,-0.30889893,0.109375,0.0625,-0.484375
552,552,1727110335140,-0.9458008,-0.17755127,-0.30718994,0.28125,0.28125,-0.59375
553,553,1727110335180,-0.9470215,-0.1716919,-0.3057251,-0.171875,0.234375,-0.390625
554,554,1727110335220,-0.9445801,-0.17144775,-0.3008423,0.078125,0.453125,-0.53125
555,555,1727110335260,-0.94262695,-0.1765747,-0.29986572,0.015625,0.484375,-0.46875
556,556,1727110335300,-0.9440918,-0.17559814,-0.29718018,0.0625,0.203125,-0.421875
557,557,1727110335340,-0.95092773,-0.17388916,-0.30059814,0.140625,0.3125,-0.40625
558,558,1727110335380,-0.9440918,-0.17120361,-0.29644775,0.0,0.171875,-0.265625
559,559,1727110335420,-0.94799805,-0.17340088,-0.3027954,-0.109375,0.796875,-0.59375
560,560,1727110335460,-0.93969727,-0.17510986,-0.3110962,-0.421875,-0.609375,-0.078125
561,561,1727110335500,-0.9489746,-0.17779541,-0.30377197,0.140625,0.296875,-0.421875
562,562,1727110335540,-0.94799805,-0.17730713,-0.29815674,-0.40625,1.25,-0.796875
563,563,1727110335580,-0.9472656,-0.17388916,-0.29400635,-0.234375,0.828125,-0.625
564,564,1727110335620,-0.9379883,-0.1716919,-0.29962158,-0.21875,0.421875,-0.5625
565,565,1727110335660,-0.94873047,-0.16949463,-0.2942505,0.0625,0.15625,-0.453125
566,566,1727110335700,-0.9484863,-0.17340088,-0.29888916,0.0625,0.296875,-0.140625
567,567,1727110335740,-0.94799805,-0.18145752,-0.29815674,0.15625,-0.328125,-0.078125
568,568,1727110335780,-0.939209,-0.17486572,-0.30303955,0.140625,0.09375,-0.21875
569,569,1727110335820,-0.94970703,-0.17803955,-0.30010986,0.15625,-0.734375,0.140625
570,570,1727110335860,-0.93969727,-0.16705322,-0.29840088,0.375,-0.1875,-0.0625
571,571,1727110335900,-0.94384766,-0.17242432,-0.29986572,-0.0625,-0.546875,0.0625
572,572,1727110335940,-0.94750977,-0.17510986,-0.2962036,0.390625,0.40625,-0.125
573,573,1727110335980,-0.9375,-0.17388916,-0.30548096,0.140625,0.03125,-0.15625
574,574,1727110336020,-0.9465332,-0.1741333,-0.29473877,0.140625,0.171875,-0.078125
575,575,1727110336060,-0.9448242,-0.16973877,-0.30059814,0.125,-0.0625,-0.15625
576,576,1727110336100,-0.9421387,-0.17706299,-0.3032837,0.21875,-0.125,-0.046875
577,577,1727110336140,-0.94799805,-0.16973877,-0.30108643,0.40625,0.28125,-0.109375
578,578,1727110336180,-0.9460449,-0.17803955,-0.30548096,0.3125,-0.125,0.046875
579,579,1727110336220,-0.9421387,-0.1716919,-0.30474854,0.109375,-0.296875,-0.109375
580,580,1727110336260,-0.94018555,-0.17193604,-0.2991333,0.3125,0.453125,-0.390625
581,581,1727110336300,-0.94750977,-0.17681885,-0.2949829,0.40625,0.65625,-0.171875
582,582,1727110336340,-0.9484863,-0.1765747,-0.30059814,0.21875,0.140625,-0.078125
583,583,1727110336380,-0.9453125,-0.17462158,-0.30499268,0.359375,0.25,-0.078125
584,584,1727110336420,-0.9526367,-0.1765747,-0.30230713,0.421875,0.0,0.125
585,585,1727110336460,-0.94433594,-0.18096924,-0.3110962,0.328125,-0.71875,0.171875
586,586,1727110336500,-0.9382324,-0.1765747,-0.2942505,0.578125,-0.640625,0.15625
587,587,1727110336540,-0.94018555,-0.17706299,-0.2979126,0.5,-0.296875,0.046875
588,588,1727110336580,-0.9423828,-0.1831665,-0.30059814,0.375,-0.65625,0.09375
589,589,1727110336620,-0.94018555,-0.18048096,-0.30645752,0.171875,-0.46875,0.140625
590,590,1727110336660,-0.9440918,-0.17462158,-0.3057251,0.390625,-0.109375,0.015625
591,591,1727110336700,-0.9440918,-0.17486572,-0.3081665,0.265625,-0.28125,0.171875
592,592,1727110336740,-0.9448242,-0.17510986,-0.30548096,0.34375,-0.421875,0.015625
593,593,1727110336780,-0.9436035,-0.17510986,-0.30889893,0.515625,-0.171875,-0.125
594,594,1727110336820,-0.9477539,-0.175354,-0.3045044,0.265625,0.03125,-0.03125
595,595,1727110336860,-0.94140625,-0.1795044,-0.3106079,0.453125,0.265625,-0.296875
596,596,1727110336900,-0.94799805,-0.17364502,-0.3171997,-0.03125,-0.46875,0.15625
597,597,1727110336940,-0.9484863,-0.18536377,-0.3069458,0.296875,-0.296875,-0.03125
598,598,1727110336980,-0.9404297,-0.18023682,-0.31011963,0.296875,0.359375,-0.09375
599,599,1727110337020,-0.94091797,-0.17803955,-0.31329346,0.015625,0.25,-0.078125
600,600,1727110337060,-0.94140625,-0.17852783,-0.31011963,0.109375,0.109375,-0.109375
601,601,1727110337100,-0.9394531,-0.17877197,-0.3032837,0.109375,0.109375,-0.25
602,602,1727110337140,-0.94628906,-0.18145752,-0.30889893,0.125,-0.265625,0.125
603,603,1727110337180,-0.9448242,-0.17462158,-0.31402588,0.5,-0.4375,0.015625
604,604,1727110337220,-0.9362793,-0.18023682,-0.30548096,0.34375,-0.390625,-0.03125
605,605,1727110337260,-0.9421387,-0.17803955,-0.30889893,0.4375,0.1875,-0.328125
606,606,1727110337300,-0.9416504,-0.18487549,-0.3147583,0.171875,-0.46875,-0.0625
607,607,1727110337340,-0.94018555,-0.18023682,-0.31158447,0.015625,-0.171875,-0.28125
608,608,1727110337380,-0.9411621,-0.17901611,-0.30889893,0.25,0.015625,-0.25
609,609,1727110337420,-0.94750977,-0.1831665,-0.3135376,0.046875,-0.09375,-0.09375
610,610,1727110337460,-0.94262695,-0.18023682,-0.3098755,0.203125,0.109375,-0.078125
611,611,1727110337500,-0.9433594,-0.17706299,-0.31011963,0.3125,0.109375,-0.125
612,612,1727110337540,-0.94433594,-0.17852783,-0.3098755,0.3125,0.09375,-0.390625
613,613,1727110337580,-0.93725586,-0.18145752,-0.3098755,0.375,0.5625,-0.40625
614,614,1727110337620,-0.94262695,-0.1873169,-0.3147583,-0.03125,-0.21875,-0.015625
615,615,1727110337660,-0.94433594,-0.17706299,-0.30767822,0.15625,-0.203125,-0.140625
616,616,1727110337700,-0.9338379,-0.1819458,-0.31427002,0.171875,0.484375,-0.3125
617,617,1727110337740,-0.9433594,-0.18267822,-0.31304932,0.171875,0.484375,-0.140625
618,618,1727110337780,-0.9436035,-0.1807251,-0.31085205,0.234375,0.171875,-0.34375
619,619,1727110337820,-0.9387207,-0.18243408,-0.31573486,0.234375,0.421875,-0.34375
620,620,1727110337860,-0.9399414,-0.17828369,-0.31427002,0.125,0.140625,-0.203125
621,621,1727110337900,-0.9382324,-0.18414307,-0.31524658,0.65625,0.125,-0.1875
622,622,1727110337940,-0.93774414,-0.17828369,-0.30718994,0.203125,-0.34375,-0.09375
623,623,1727110337980,-0.93896484,-0.18023682,-0.31134033,0.140625,0.203125,-0.28125
624,624,1727110338020,-0.939209,-0.18756104,-0.31817627,0.171875,-0.15625,-0.125
625,625,1727110338060,-0.9333496,-0.17974854,-0.3184204,0.109375,0.09375,-0.28125
626,626,1727110338100,-0.9416504,-0.18365479,-0.3147583,0.078125,0.25,-0.1875
627,627,1727110338140,-0.93652344,-0.17803955,-0.31695557,0.046875,0.140625,-0.21875
628,628,1727110338180,-0.939209,-0.17803955,-0.30963135,0.265625,0.234375,-0.09375
629,629,1727110338220,-0.9458008,-0.17388916,-0.31304932,0.21875,0.515625,-0.296875
630,630,1727110338260,-0.9345703,-0.18292236,-0.31304932,0.21875,0.34375,-0.4375
631,631,1727110338300,-0.93725586,-0.18145752,-0.31134033,-0.21875,0.890625,-0.40625
632,632,1727110338340,-0.9404297,-0.17510986,-0.3123169,0.28125,0.390625,-0.390625
633,633,1727110338380,-0.9421387,-0.18267822,-0.30377197,0.34375,0.53125,-0.515625
634,634,1727110338420,-0.94262695,-0.18048096,-0.31451416,-0.03125,1.640625,-0.640625
635,635,1727110338460,-0.9362793,-0.17144775,-0.31158447,-0.09375,1.09375,-0.546875
636,636,1727110338500,-0.9428711,-0.1819458,-0.30596924,0.109375,0.90625,-0.578125
637,637,1727110338540,-0.9436035,-0.17803955,-0.30621338,0.28125,0.828125,-0.546875
638,638,1727110338580,-0.94628906,-0.18096924,-0.30743408,0.109375,0.9375,-0.703125
639,639,1727110338620,-0.9440918,-0.17926025,-0.29815674,0.4375,1.171875,-0.609375
640,640,1727110338660,-0.94091797,-0.17779541,-0.30181885,0.4375,0.1875,-0.4375
641,641,1727110338700,-0.9453125,-0.17926025,-0.3027954,0.203125,0.4375,-0.4375
642,642,1727110338740,-0.9482422,-0.17852783,-0.30621338,0.203125,-0.078125,-0.21875
643,643,1727110338780,-0.9453125,-0.17510986,-0.3008423,0.125,0.53125,-0.4375
644,644,1727110338820,-0.9421387,-0.17828369,-0.2991333,0.078125,0.25,-0.328125
645,645,1727110338860,-0.939209,-0.1716919,-0.29962158,0.09375,0.421875,-0.453125
646,646,1727110338900,-0.94311523,-0.1741333,-0.30377197,0.234375,0.375,-0.390625
647,647,1727110338940,-0.9453125,-0.17877197,-0.2979126,0.1875,0.578125,-0.453125
648,648,1727110338980,-0.95458984,-0.17584229,-0.2979126,0.203125,0.34375,-0.28125
649,649,1727110339020,-0.94384766,-0.17120361,-0.30426025,0.09375,0.90625,-0.71875
650,650,1727110339060,-0.9489746,-0.1807251,-0.30181885,-0.390625,-0.328125,0.0
651,651,1727110339100,-0.9506836,-0.17828369,-0.2954712,-0.015625,0.4375,-0.484375
652,652,1727110339140,-0.9465332,-0.17022705,-0.30108643,-0.21875,1.3125,-0.8125
653,653,1727110339180,-0.9436035,-0.16607666,-0.29644775,-0.234375,0.921875,-0.515625
654,654,1727110339220,-0.9458008,-0.17242432,-0.2979126,-0.1875,0.375,-0.46875
655,655,1727110339260,-0.9436035,-0.1729126,-0.2966919,-0.09375,0.34375,-0.46875
656,656,1727110339300,-0.94921875,-0.17608643,-0.29864502,-0.140625,0.234375,-0.46875
657,657,1727110339340,-0.94970703,-0.1807251,-0.29522705,-0.0625,-0.46875,-0.1875
658,658,1727110339380,-0.94555664,-0.1716919,-0.29864502,0.15625,0.15625,-0.375
659,659,1727110339420,-0.9453125,-0.17388916,-0.30133057,-0.296875,-0.9375,0.1875
660,660,1727110339460,-0.9465332,-0.17681885,-0.29473877,0.4375,-0.21875,-0.28125
661,661,1727110339500,-0.9465332,-0.17266846,-0.30230713,-0.21875,-0.640625,0.15625
662,662,1727110339540,-0.9411621,-0.17755127,-0.29571533,0.046875,0.09375,0.0625
663,663,1727110339580,-0.9436035,-0.17388916,-0.29986572,0.234375,0.078125,-0.015625
664,664,1727110339620,-0.9421387,-0.17681885,-0.2962036,0.25,-0.015625,-0.109375
665,665,1727110339660,-0.9404297,-0.17926025,-0.3032837,0.171875,-0.046875,0.078125
666,666,1727110339700,-0.9433594,-0.18048096,-0.30548096,0.03125,-0.3125,0.03125
667,667,1727110339740,-0.94311523,-0.17706299,-0.2949829,0.265625,0.375,0.0
668,668,1727110339780,-0.9404297,-0.18365479,-0.30743408,0.25,-0.125,-0.125
669,669,1727110339820,-0.9458008,-0.1807251,-0.3015747,0.015625,-0.046875,-0.0625
670,670,1727110339860,-0.95288086,-0.17608643,-0.30426025,0.171875,0.703125,-0.328125
671,671,1727110339900,-0.94262695,-0.1716919,-0.29595947,0.109375,0.609375,-0.140625
672,672,1727110339940,-0.9472656,-0.17071533,-0.30181885,0.171875,0.296875,-0.15625
673,673,1727110339980,-0.94750977,-0.17510986,-0.29718018,0.3125,0.203125,-0.078125
674,674,1727110340020,-0.9448242,-0.17193604,-0.30255127,0.375,0.015625,0.125
675,675,1727110340060,-0.9484863,-0.1819458,-0.30596924,0.15625,-0.734375,0.125
676,676,1727110340100,-0.9404297,-0.1765747,-0.2991333,0.484375,-0.453125,0.0625
677,677,1727110340140,-0.9465332,-0.18096924,-0.3040161,0.453125,-0.296875,-0.015625
678,678,1727110340180,-0.94189453,-0.1729126,-0.30474854,0.359375,-0.46875,0.046875
679,679,1727110340220,-0.94433594,-0.17486572,-0.30767822,0.015625,-0.53125,0.265625
680,680,1727110340260,-0.9458008,-0.17022705,-0.30499268,0.265625,-0.328125,0.140625
681,681,1727110340300,-0.94555664,-0.17926025,-0.3057251,0.53125,-0.515625,0.03125
682,682,1727110340340,-0.93896484,-0.17999268,-0.31011963,0.1875,-0.3125,0.0625
683,683,1727110340380,-0.94091797,-0.17559814,-0.3081665,0.375,-0.34375,0.15625
684,684,1727110340420,-0.94555664,-0.17974854,-0.30792236,0.3125,-0.3125,0.140625
685,685,1727110340460,-0.9433594,-0.17510986,-0.3081665,0.515625,-0.078125,0.015625
686,686,1727110340500,-0.9421387,-0.18585205,-0.3086548,-0.078125,-0.53125,0.046875
687,687,1727110340540,-0.9477539,-0.18658447,-0.3093872,0.484375,-0.375,-0.078125
688,688,1727110340580,-0.94189453,-0.17779541,-0.3008423,0.15625,0.484375,-0.125
689,689,1727110340620,-0.94433594,-0.17803955,-0.3098755,0.171875,0.421875,-0.203125
690,690,1727110340660,-0.9440918,-0.17633057,-0.3032837,0.28125,-0.03125,-0.0625
691,691,1727110340700,-0.94628906,-0.17852783,-0.3093872,0.203125,0.125,-0.21875
692,692,1727110340740,-0.94091797,-0.17340088,-0.31036377,0.28125,-0.015625,0.0
693,693,1727110340780,-0.9406738,-0.18658447,-0.30841064,0.265625,-0.359375,0.03125
694,694,1727110340820,-0.9362793,-0.1765747,-0.30596924,0.46875,-0.296875,0.015625
695,695,1727110340860,-0.9433594,-0.18414307,-0.3045044,0.375,0.171875,-0.328125
696,696,1727110340900,-0.9399414,-0.17852783,-0.30792236,0.21875,-0.171875,-0.078125
697,697,1727110340940,-0.9399414,-0.17926025,-0.3110962,0.203125,-0.1875,-0.296875
698,698,1727110340980,-0.93847656,-0.17974854,-0.3086548,0.140625,0.21875,-0.125
699,699,1727110341020,-0.9484863,-0.17877197,-0.31329346,0.109375,0.125,-0.125
700,700,1727110341060,-0.9445801,-0.18218994,-0.31134033,0.328125,0.109375,-0.28125
701,701,1727110341100,-0.94091797,-0.18023682,-0.3057251,0.3125,-0.046875,-0.234375
702,702,1727110341140,-0.9406738,-0.1741333,-0.31011963,0.234375,0.09375,-0.265625
703,703,1727110341180,-0.9387207,-0.17877197,-0.30963135,-0.125,0.21875,-0.265625
704,704,1727110341220,-0.94799805,-0.17803955,-0.31500244,0.515625,0.203125,-0.296875
705,705,1727110341260,-0.9421387,-0.18682861,-0.30303955,0.21875,-0.390625,-0.03125
706,706,1727110341300,-0.9416504,-0.17510986,-0.31427002,0.0625,0.640625,-0.328125
707,707,1727110341340,-0.9387207,-0.17730713,-0.30743408,-0.015625,0.203125,-0.21875
708,708,1727110341380,-0.93896484,-0.18145752,-0.31451416,0.078125,0.234375,-0.34375
709,709,1727110341420,-0.9404297,-0.17926025,-0.30767822,0.28125,0.109375,-0.4375
710,710,1727110341460,-0.93896484,-0.17559814,-0.3093872,0.265625,0.34375,-0.25
711,711,1727110341500,-0.94506836,-0.18023682,-0.3123169,0.421875,0.59375,-0.40625
712,712,1727110341540,-0.9411621,-0.1819458,-0.31207275,0.484375,0.4375,-0.21875
713,713,1727110341580,-0.9404297,-0.18365479,-0.31207275,0.328125,0.5,-0.359375
714,714,1727110341620,-0.93847656,-0.18341064,-0.31549072,-0.03125,0.015625,-0.1875
715,715,1727110341660,-0.93603516,-0.17926025,-0.3093872,0.125,0.5625,-0.5625
716,716,1727110341700,-0.9423828,-0.18536377,-0.31451416,0.3125,0.453125,-0.234375
717,717,1727110341740,-0.9411621,-0.18267822,-0.31011963,0.09375,0.8125,-0.46875
718,718,1727110341780,-0.9399414,-0.18145752,-0.30841064,0.15625,1.0,-0.59375
719,719,1727110341820,-0.9416504,-0.17486572,-0.30914307,0.265625,0.84375,-0.734375
720,720,1727110341860,-0.94799805,-0.18463135,-0.3118286,0.078125,0.8125,-0.640625
721,721,1727110341900,-0.9484863,-0.18096924,-0.30303955,0.140625,1.0,-0.625
722,722,1727110341940,-0.93847656,-0.18048096,-0.29815674,0.359375,1.1875,-0.796875
723,723,1727110341980,-0.9445801,-0.17877197,-0.30548096,-0.03125,-0.078125,-0.265625
724,724,1727110342020,-0.9448242,-0.18365479,-0.3015747,-0.234375,0.78125,-0.515625
725,725,1727110342060,-0.94555664,-0.18121338,-0.3069458,-0.203125,1.453125,-0.8125
726,726,1727110342100,-0.9470215,-0.17755127,-0.302063,-0.078125,1.4375,-0.578125
727,727,1727110342140,-0.9436035,-0.17462158,-0.30108643,0.015625,0.90625,-0.703125
728,728,1727110342180,-0.94384766,-0.17755127,-0.2991333,-0.140625,0.625,-0.703125
729,729,1727110342220,-0.94506836,-0.17388916,-0.2962036,-0.109375,0.640625,-0.46875
730,730,1727110342260,-0.9465332,-0.17584229,-0.30499268,-0.5625,-0.359375,-0.109375
731,731,1727110342300,-0.9428711,-0.17266846,-0.29888916,0.21875,0.328125,-0.546875
732,732,1727110342340,-0.9489746,-0.1765747,-0.2954712,0.0,-0.265625,-0.140625
733,733,1727110342380,-0.94433594,-0.17486572,-0.29522705,-0.03125,0.296875,-0.5
734,734,1727110342420,-0.95166016,-0.18243408,-0.29986572,-0.203125,-0.3125,-0.203125
735,735,1727110342460,-0.94384766,-0.17706299,-0.30230713,-0.1875,0.125,-0.40625
736,736,1727110342500,-0.9416504,-0.17803955,-0.29962158,-0.140625,0.0,-0.265625
737,737,1727110342540,-0.9465332,-0.17559814,-0.2930298,-0.171875,-0.046875,-0.28125
738,738,1727110342580,-0.94628906,-0.16925049,-0.29595947,-0.078125,0.0625,-0.296875
739,739,1727110342620,-0.9399414,-0.1819458,-0.30108643,-0.15625,-0.21875,-0.140625
740,740,1727110342660,-0.94433594,-0.17486572,-0.284729,-0.078125,0.515625,-0.53125
741,741,1727110342700,-0.9423828,-0.1795044,-0.3032837,0.34375,0.375,-0.53125
742,742,1727110342740,-0.94628906,-0.17828369,-0.29766846,-0.4375,0.703125,-0.53125
743,743,1727110342780,-0.9460449,-0.16925049,-0.29351807,-0.421875,0.5,-0.71875
744,744,1727110342820,-0.9472656,-0.17120361,-0.2949829,-0.265625,0.515625,-0.421875
745,745,1727110342860,-0.9470215,-0.17266846,-0.29864502,-0.203125,0.171875,-0.4375
746,746,1727110342900,-0.951416,-0.1765747,-0.2962036,-0.140625,0.171875,-0.40625
747,747,1727110342940,-0.9484863,-0.17559814,-0.29083252,0.046875,0.078125,-0.265625
748,748,1727110342980,-0.9428711,-0.1741333,-0.30621338,-0.421875,-0.578125,0.234375
749,749,1727110343020,-0.94970703,-0.18096924,-0.29571533,0.265625,0.03125,-0.25
750,750,1727110343060,-0.95410156,-0.18365479,-0.30499268,0.25,-0.46875,-0.09375
751,751,1727110343100,-0.94628906,-0.1795044,-0.2930298,0.0625,-0.140625,-0.09375
752,752,1727110343140,-0.94750977,-0.1741333,-0.30303955,0.203125,-0.1875,-0.0625
753,753,1727110343180,-0.9477539,-0.17681885,-0.3008423,0.203125,0.09375,-0.078125
754,754,1727110343220,-0.9399414,-0.17266846,-0.29864502,0.390625,-0.0625,-0.015625
755,755,1727110343260,-0.9421387,-0.17388916,-0.2979126,0.375,0.09375,0.0
756,756,1727110343300,-0.9523926,-0.17218018,-0.30548096,0.28125,0.171875,-0.078125
757,757,1727110343340,-0.9470215,-0.18511963,-0.30963135,0.53125,0.546875,-0.328125
758,758,1727110343380,-0.9477539,-0.17095947,-0.28863525,0.203125,0.296875,-0.078125
759,759,1727110343420,-0.9465332,-0.17999268,-0.30181885,0.71875,0.078125,-0.125
