,Unnamed: 0,timestamp,accel_x,accel_y,accel_z,gyro_x,gyro_y,gyro_z
0,0,1727461273806,-0.7624512,-0.18707275,-0.64923096,-0.921875,-0.453125,0.296875
1,1,1727461273846,-0.7578125,-0.18780518,-0.6524048,-0.71875,-1.65625,0.328125
2,2,1727461273886,-0.7583008,-0.19049072,-0.64849854,0.0,-2.265625,0.328125
3,3,1727461273926,-0.75390625,-0.19732666,-0.64434814,-0.578125,-1.9375,0.234375
4,4,1727461273966,-0.75634766,-0.19122314,-0.65093994,-0.34375,-1.9375,0.359375
5,5,1727461274006,-0.74658203,-0.18365479,-0.65948486,-0.578125,-2.234375,0.0
6,6,1727461274046,-0.7492676,-0.17755127,-0.6621704,-0.140625,-2.609375,0.234375
7,7,1727461274086,-0.7475586,-0.1885376,-0.65948486,-0.890625,-0.84375,0.359375
8,8,1727461274126,-0.75219727,-0.18804932,-0.6604614,-0.53125,-1.109375,0.1875
9,9,1727461274166,-0.75146484,-0.18389893,-0.659729,-0.828125,-0.234375,0.234375
10,10,1727461274206,-0.7451172,-0.18536377,-0.659729,-0.53125,-0.734375,0.3125
11,11,1727461274246,-0.74658203,-0.18121338,-0.66485596,-0.640625,-0.625,0.234375
12,12,1727461274286,-0.74902344,-0.18048096,-0.661438,-0.984375,-0.28125,0.03125
13,13,1727461274326,-0.74658203,-0.18780518,-0.6616821,-0.796875,-0.78125,0.15625
14,14,1727461274366,-0.75219727,-0.18902588,-0.65875244,-0.46875,-0.328125,0.15625
15,15,1727461274406,-0.751709,-0.18878174,-0.6682739,-2.671875,2.53125,-0.328125
16,16,1727461274446,-0.7548828,-0.17926025,-0.661438,-0.5,-0.9375,0.03125
17,17,1727461274486,-0.7480469,-0.18292236,-0.66412354,-0.671875,-0.03125,-0.375
18,18,1727461274526,-0.75146484,-0.18267822,-0.6604614,-1.15625,0.28125,0.296875
19,19,1727461274566,-0.75268555,-0.18511963,-0.6638794,-1.765625,1.5,0.09375
20,20,1727461274606,-0.7553711,-0.18756104,-0.6565552,-1.40625,1.5625,0.28125
21,21,1727461274646,-0.76000977,-0.1951294,-0.6499634,0.03125,0.890625,0.265625
22,22,1727461274686,-0.75683594,-0.19000244,-0.644104,-0.9375,1.296875,0.3125
23,23,1727461274726,-0.7565918,-0.19146729,-0.66534424,-1.25,0.96875,0.078125
24,24,1727461274766,-0.76416016,-0.18389893,-0.6489868,-1.953125,3.421875,-0.234375
25,25,1727461274806,-0.765625,-0.18341064,-0.6460571,-1.125,1.828125,0.53125
26,26,1727461274846,-0.763916,-0.18414307,-0.64971924,-1.875,2.328125,0.09375
27,27,1727461274886,-0.7668457,-0.19268799,-0.6358032,-1.890625,2.625,0.265625
28,28,1727461274926,-0.7717285,-0.19122314,-0.6333618,-1.65625,1.921875,0.234375
29,29,1727461274966,-0.7709961,-0.19464111,-0.6314087,-1.421875,1.828125,0.21875
30,30,1727461275006,-0.77075195,-0.1897583,-0.6331177,-1.3125,1.828125,0.078125
31,31,1727461275046,-0.77685547,-0.19342041,-0.62750244,-1.078125,2.046875,0.078125
32,32,1727461275086,-0.7739258,-0.19244385,-0.6277466,-1.078125,2.90625,0.40625
33,33,1727461275126,-0.7858887,-0.19366455,-0.6182251,-1.0,2.671875,0.46875
34,34,1727461275166,-0.7858887,-0.18341064,-0.6189575,-2.5,3.6875,-0.25
35,35,1727461275206,-0.77563477,-0.18804932,-0.63238525,-1.453125,1.75,0.015625
36,36,1727461275246,-0.7919922,-0.19342041,-0.60894775,-1.8125,3.421875,0.0625
37,37,1727461275286,-0.7844238,-0.19293213,-0.6050415,-0.4375,2.078125,-0.03125
38,38,1727461275326,-0.795166,-0.1897583,-0.6152954,-1.90625,3.078125,-0.296875
39,39,1727461275366,-0.7973633,-0.19488525,-0.6033325,-1.953125,5.09375,0.28125
40,40,1727461275406,-0.80371094,-0.19317627,-0.5840454,-1.3125,1.9375,1.03125
41,41,1727461275446,-0.8071289,-0.20074463,-0.59210205,-0.9375,1.1875,0.890625
42,42,1727461275486,-0.8034668,-0.20147705,-0.5996704,-1.484375,0.578125,0.5625
43,43,1727461275526,-0.80737305,-0.20343018,-0.59039307,-1.09375,0.25,0.171875
44,44,1727461275566,-0.8022461,-0.20196533,-0.59088135,-0.78125,0.21875,0.265625
45,45,1727461275606,-0.80688477,-0.19195557,-0.5930786,-1.109375,0.328125,0.15625
46,46,1727461275646,-0.8041992,-0.20245361,-0.6008911,-1.84375,1.078125,0.046875
47,47,1727461275686,-0.8066406,-0.20220947,-0.5889282,-1.84375,2.078125,0.25
48,48,1727461275726,-0.80908203,-0.20489502,-0.5803833,-1.109375,0.984375,0.390625
49,49,1727461275766,-0.8041992,-0.20196533,-0.5906372,-1.3125,1.234375,0.25
50,50,1727461275806,-0.80908203,-0.206604,-0.5820923,-1.15625,1.078125,0.3125
51,51,1727461275846,-0.80493164,-0.2000122,-0.5852661,-0.921875,0.875,0.203125
52,52,1727461275886,-0.81591797,-0.1975708,-0.58062744,-1.25,1.140625,0.484375
53,53,1727461275926,-0.81030273,-0.20709229,-0.58062744,-0.6875,0.671875,0.8125
54,54,1727461275966,-0.81762695,-0.20172119,-0.5757446,-0.625,0.390625,1.3125
55,55,1727461276006,-0.80908203,-0.20489502,-0.5899048,-1.21875,0.546875,0.375
56,56,1727461276046,-0.80371094,-0.20587158,-0.59747314,-0.796875,0.15625,0.171875
57,57,1727461276086,-0.8144531,-0.20318604,-0.56988525,-0.828125,1.84375,0.375
58,58,1727461276126,-0.8120117,-0.20050049,-0.5725708,0.015625,-0.078125,0.109375
59,59,1727461276166,-0.8137207,-0.20269775,-0.5725708,-0.53125,-1.265625,0.453125
60,60,1727461276206,-0.8190918,-0.20489502,-0.58306885,-0.796875,-0.375,0.578125
61,61,1727461276246,-0.8171387,-0.20831299,-0.5755005,-1.03125,0.390625,0.75
62,62,1727461276286,-0.8088379,-0.19976807,-0.5718384,-1.03125,1.28125,0.765625
63,63,1727461276326,-0.81762695,-0.20098877,-0.57403564,-0.671875,-1.484375,0.765625
64,64,1727461276366,-0.81518555,-0.21173096,-0.5762329,-0.703125,-0.5625,0.640625
65,65,1727461276406,-0.8105469,-0.20977783,-0.57037354,-0.34375,-0.640625,0.609375
66,66,1727461276446,-0.80908203,-0.20367432,-0.5767212,-0.6875,-0.265625,1.15625
67,67,1727461276486,-0.8105469,-0.20953369,-0.5918579,-0.921875,-0.046875,1.09375
68,68,1727461276526,-0.8076172,-0.20245361,-0.57647705,-0.96875,2.0,1.53125
69,69,1727461276566,-0.8129883,-0.20831299,-0.56329346,-0.9375,0.875,2.03125
70,70,1727461276606,-0.8203125,-0.2156372,-0.5786743,-0.359375,-0.6875,1.703125
71,71,1727461276646,-0.81591797,-0.22174072,-0.5718384,-1.03125,1.5,1.53125
72,72,1727461276686,-0.81030273,-0.21832275,-0.57354736,-0.359375,-1.625,0.234375
73,73,1727461276726,-0.8203125,-0.22125244,-0.5750122,-0.875,-0.15625,0.53125
74,74,1727461276766,-0.81396484,-0.21759033,-0.57281494,-0.5,-0.4375,0.421875
75,75,1727461276806,-0.81152344,-0.2185669,-0.58721924,-1.84375,0.375,-0.234375
76,76,1727461276846,-0.814209,-0.21514893,-0.57891846,-1.0625,-0.734375,0.515625
77,77,1727461276886,-0.814209,-0.21954346,-0.5523071,-0.84375,0.203125,0.40625
78,78,1727461276926,-0.8156738,-0.21490479,-0.5654907,0.671875,-3.625,0.5625
79,79,1727461276966,-0.81274414,-0.21954346,-0.5840454,-0.03125,-3.8125,0.640625
80,80,1727461277006,-0.81152344,-0.21490479,-0.5923462,0.234375,-3.1875,0.140625
81,81,1727461277046,-0.80737305,-0.2119751,-0.59161377,-0.40625,-2.1875,0.609375
82,82,1727461277086,-0.8000488,-0.21490479,-0.5808716,-0.59375,-1.859375,1.0
83,83,1727461277126,-0.7927246,-0.22027588,-0.5960083,0.171875,-3.59375,1.640625
84,84,1727461277166,-0.7944336,-0.22198486,-0.59503174,-0.328125,-1.3125,1.359375
85,85,1727461277206,-0.7922363,-0.21929932,-0.5930786,-0.375,-0.9375,1.109375
86,86,1727461277246,-0.8005371,-0.21734619,-0.59259033,-0.890625,0.5625,1.078125
87,87,1727461277286,-0.79663086,-0.21661377,-0.60406494,-1.015625,-0.21875,0.828125
88,88,1727461277326,-0.8029785,-0.22589111,-0.58966064,-0.734375,-0.40625,0.28125
89,89,1727461277366,-0.80126953,-0.21881104,-0.58721924,-0.296875,-1.125,0.296875
90,90,1727461277406,-0.7963867,-0.2276001,-0.59625244,-0.3125,-1.390625,0.59375
91,91,1727461277446,-0.78466797,-0.21368408,-0.5906372,0.421875,-3.28125,0.46875
92,92,1727461277486,-0.7910156,-0.21588135,-0.60772705,0.421875,-3.609375,0.375
93,93,1727461277526,-0.7907715,-0.22125244,-0.6030884,0.421875,-2.953125,0.15625
94,94,1727461277566,-0.78881836,-0.21807861,-0.6213989,-0.703125,-3.734375,-0.28125
95,95,1727461277606,-0.7844238,-0.2185669,-0.6148071,-0.484375,-1.71875,0.203125
96,96,1727461277646,-0.78149414,-0.2156372,-0.597229,-0.875,-0.640625,-0.1875
97,97,1727461277686,-0.78125,-0.22442627,-0.6235962,0.140625,-2.140625,-0.25
98,98,1727461277726,-0.7805176,-0.21636963,-0.6165161,-0.828125,-0.4375,-0.25
99,99,1727461277766,-0.7844238,-0.21612549,-0.61676025,-0.640625,-1.0,-0.15625
100,100,1727461277806,-0.7758789,-0.2156372,-0.6157837,-0.984375,-0.4375,0.03125
101,101,1727461277846,-0.77783203,-0.21490479,-0.6062622,-0.40625,-1.328125,0.34375
102,102,1727461277886,-0.7753906,-0.21417236,-0.61798096,0.09375,-2.765625,0.609375
103,103,1727461277926,-0.7788086,-0.21417236,-0.611145,-0.359375,-1.578125,0.21875
104,104,1727461277966,-0.7717285,-0.2144165,-0.6243286,0.015625,-2.828125,0.515625
105,105,1727461278006,-0.77246094,-0.21417236,-0.62164307,0.0625,-2.203125,0.34375
106,106,1727461278046,-0.7780762,-0.21246338,-0.6362915,-0.390625,-2.34375,0.34375
107,107,1727461278086,-0.7692871,-0.21612549,-0.6279907,-0.9375,-0.859375,0.09375
108,108,1727461278126,-0.7648926,-0.21221924,-0.6333618,-0.59375,-0.96875,0.375
109,109,1727461278166,-0.77246094,-0.21368408,-0.62677,-0.8125,-0.296875,0.359375
110,110,1727461278206,-0.76782227,-0.21539307,-0.63287354,-0.578125,-0.828125,0.328125
111,111,1727461278246,-0.7729492,-0.21490479,-0.6370239,-0.546875,-0.796875,0.328125
112,112,1727461278286,-0.763916,-0.21466064,-0.63482666,-0.640625,-0.109375,0.40625
113,113,1727461278326,-0.7770996,-0.21002197,-0.61553955,-1.421875,2.1875,0.21875
114,114,1727461278366,-0.77490234,-0.21759033,-0.6358032,-2.5625,2.09375,-0.328125
115,115,1727461278406,-0.7651367,-0.21612549,-0.6099243,-0.09375,-0.328125,0.28125
116,116,1727461278446,-0.7727051,-0.21392822,-0.6326294,-0.765625,0.5625,-0.21875
117,117,1727461278486,-0.7766113,-0.2156372,-0.6255493,-0.96875,1.125,-0.171875
118,118,1727461278526,-0.77124023,-0.2197876,-0.6279907,-1.03125,1.171875,0.5
119,119,1727461278566,-0.7741699,-0.21392822,-0.6272583,-1.25,1.453125,0.40625
120,120,1727461278606,-0.78100586,-0.22198486,-0.6140747,-0.671875,1.421875,0.625
121,121,1727461278646,-0.7734375,-0.22174072,-0.61920166,-1.09375,0.734375,0.375
122,122,1727461278686,-0.7807617,-0.21124268,-0.6213989,-0.890625,0.421875,0.28125
123,123,1727461278726,-0.7746582,-0.2185669,-0.62091064,-0.9375,1.203125,0.140625
124,124,1727461278766,-0.7780762,-0.21490479,-0.614563,-0.46875,0.625,0.109375
125,125,1727461278806,-0.77685547,-0.20953369,-0.62384033,-1.484375,1.640625,-0.046875
126,126,1727461278846,-0.78027344,-0.21002197,-0.61602783,-1.640625,4.796875,-0.546875
127,127,1727461278886,-0.78881836,-0.22296143,-0.59869385,-0.6875,3.359375,-0.09375
128,128,1727461278926,-0.78808594,-0.21466064,-0.60235596,-0.953125,2.125,-0.109375
129,129,1727461278966,-0.79663086,-0.21368408,-0.6008911,-1.203125,2.078125,-0.015625
130,130,1727461279006,-0.79833984,-0.2210083,-0.6018677,-1.25,1.6875,0.03125
131,131,1727461279046,-0.79785156,-0.21832275,-0.59381104,-1.09375,1.40625,0.125
132,132,1727461279086,-0.7961426,-0.22369385,-0.58062744,-1.15625,3.109375,0.125
133,133,1727461279126,-0.8046875,-0.2185669,-0.6067505,-3.359375,2.96875,-0.734375
134,134,1727461279166,-0.8015137,-0.21392822,-0.5869751,-1.203125,2.21875,-0.234375
135,135,1727461279206,-0.8071289,-0.21881104,-0.57476807,-0.625,1.828125,-0.515625
136,136,1727461279246,-0.80444336,-0.21929932,-0.5913696,-0.84375,-0.09375,-0.25
137,137,1727461279286,-0.8051758,-0.21759033,-0.5823364,-1.296875,2.109375,0.0
138,138,1727461279326,-0.8156738,-0.21759033,-0.58258057,-1.453125,2.140625,0.109375
139,139,1727461279366,-0.81469727,-0.21905518,-0.57232666,-0.796875,1.46875,0.203125
140,140,1727461279406,-0.8144531,-0.22271729,-0.5779419,-1.53125,1.203125,0.140625
141,141,1727461279446,-0.81030273,-0.21783447,-0.57769775,-0.9375,1.203125,0.171875
142,142,1727461279486,-0.81274414,-0.21490479,-0.5762329,-0.515625,0.609375,0.328125
143,143,1727461279526,-0.81518555,-0.21636963,-0.5652466,-0.515625,-0.5,0.1875
144,144,1727461279566,-0.81762695,-0.21759033,-0.5762329,-1.1875,1.1875,0.359375
145,145,1727461279606,-0.8129883,-0.22076416,-0.5774536,-2.0625,3.71875,-0.140625
146,146,1727461279646,-0.8222656,-0.22125244,-0.5618286,-1.515625,4.09375,0.28125
147,147,1727461279686,-0.8149414,-0.22052002,-0.5510864,-1.296875,2.171875,0.234375
148,148,1727461279726,-0.82543945,-0.22149658,-0.55596924,-0.859375,0.578125,-0.09375
149,149,1727461279766,-0.8220215,-0.21905518,-0.55426025,-0.96875,1.03125,0.375
150,150,1727461279806,-0.8234863,-0.21636963,-0.5564575,-1.0625,1.109375,0.21875
151,151,1727461279846,-0.8239746,-0.2276001,-0.56744385,-1.40625,-0.09375,-0.171875
152,152,1727461279886,-0.826416,-0.22027588,-0.5623169,-0.390625,-1.046875,0.28125
153,153,1727461279926,-0.82788086,-0.22369385,-0.53985596,-2.28125,2.78125,0.15625
154,154,1727461279966,-0.8251953,-0.22686768,-0.5466919,-0.703125,1.09375,0.03125
155,155,1727461280006,-0.84106445,-0.222229,-0.5484009,-0.703125,-0.46875,-0.046875
156,156,1727461280046,-0.83447266,-0.22320557,-0.55548096,-0.9375,0.421875,0.140625
157,157,1727461280086,-0.82592773,-0.21710205,-0.54034424,-0.71875,1.703125,0.265625
158,158,1727461280126,-0.82836914,-0.22174072,-0.5418091,-0.828125,0.828125,0.328125
159,159,1727461280166,-0.82714844,-0.22247314,-0.54571533,-0.53125,-0.515625,0.5625
160,160,1727461280206,-0.83154297,-0.22540283,-0.54156494,-0.890625,0.265625,0.21875
161,161,1727461280246,-0.8339844,-0.22589111,-0.5335083,-0.1875,0.421875,0.296875
162,162,1727461280286,-0.83325195,-0.22174072,-0.5484009,0.40625,-2.640625,0.4375
163,163,1727461280326,-0.83496094,-0.2234497,-0.5588989,-0.359375,-1.984375,0.5
164,164,1727461280366,-0.8293457,-0.22540283,-0.55548096,-0.78125,1.125,0.125
165,165,1727461280406,-0.82958984,-0.2197876,-0.5442505,-1.015625,3.515625,0.734375
166,166,1727461280446,-0.829834,-0.21905518,-0.53448486,-0.84375,4.421875,0.828125
167,167,1727461280486,-0.8310547,-0.2210083,-0.5298462,-0.84375,3.15625,1.140625
168,168,1727461280526,-0.83935547,-0.22857666,-0.5249634,-0.78125,1.578125,1.390625
169,169,1727461280566,-0.84472656,-0.22662354,-0.5354614,-0.390625,-0.671875,1.25
170,170,1727461280606,-0.84472656,-0.23199463,-0.5352173,-0.546875,-0.25,0.875
171,171,1727461280646,-0.83154297,-0.23223877,-0.52667236,-0.1875,-1.28125,0.671875
172,172,1727461280686,-0.8400879,-0.2263794,-0.5210571,-0.90625,0.75,0.703125
173,173,1727461280726,-0.8310547,-0.22564697,-0.55303955,-1.65625,-1.0625,0.0625
174,174,1727461280766,-0.8371582,-0.2300415,-0.534729,-1.046875,0.5625,0.03125
175,175,1727461280806,-0.8405762,-0.22857666,-0.52960205,-0.296875,-1.4375,-0.5
176,176,1727461280846,-0.8444824,-0.23297119,-0.5393677,-0.484375,-2.515625,0.484375
177,177,1727461280886,-0.8391113,-0.2234497,-0.5376587,-1.078125,0.609375,0.671875
178,178,1727461280926,-0.8364258,-0.22589111,-0.5383911,-0.5,-1.828125,0.71875
179,179,1727461280966,-0.8334961,-0.23468018,-0.53863525,-0.171875,-2.5625,0.65625
180,180,1727461281006,-0.8310547,-0.23052979,-0.550354,-0.78125,-2.484375,0.53125
181,181,1727461281046,-0.8286133,-0.22857666,-0.54400635,-0.21875,-2.40625,0.671875
182,182,1727461281086,-0.8269043,-0.22613525,-0.5523071,0.84375,-5.125,0.5
183,183,1727461281126,-0.826416,-0.2300415,-0.548645,0.6875,-5.140625,0.671875
184,184,1727461281166,-0.8208008,-0.2276001,-0.5647583,-0.53125,-2.5625,0.25
185,185,1727461281206,-0.8198242,-0.23150635,-0.55670166,-0.609375,-1.40625,0.28125
186,186,1727461281246,-0.8203125,-0.22442627,-0.5588989,-0.359375,-1.78125,0.421875
187,187,1727461281286,-0.8144531,-0.22930908,-0.5635376,-0.078125,-2.515625,0.3125
188,188,1727461281326,-0.8132324,-0.23248291,-0.5671997,0.140625,-3.484375,0.65625
189,189,1727461281366,-0.8129883,-0.22540283,-0.57159424,-0.453125,-3.171875,0.578125
190,190,1727461281406,-0.8083496,-0.2263794,-0.5762329,-0.46875,-1.9375,0.359375
191,191,1727461281446,-0.8100586,-0.22320557,-0.5755005,-0.171875,-2.46875,0.234375
192,192,1727461281486,-0.80981445,-0.23150635,-0.6030884,-1.0,-3.625,-0.5
193,193,1727461281526,-0.80688477,-0.22418213,-0.5845337,-0.46875,-1.5625,-0.046875
194,194,1727461281566,-0.80371094,-0.22467041,-0.57110596,-0.703125,-0.5625,-0.078125
195,195,1727461281606,-0.8083496,-0.22711182,-0.5857544,0.265625,-3.390625,-0.015625
196,196,1727461281646,-0.7980957,-0.21929932,-0.5877075,-0.59375,-2.390625,-0.09375
197,197,1727461281686,-0.8000488,-0.22198486,-0.5940552,-0.5,-2.484375,0.375
198,198,1727461281726,-0.8010254,-0.22686768,-0.5923462,-0.34375,-1.71875,0.5
199,199,1727461281766,-0.8054199,-0.22540283,-0.58917236,-0.46875,-1.9375,0.359375
200,200,1727461281806,-0.79248047,-0.22955322,-0.6033325,0.0,-3.421875,0.375
201,201,1727461281846,-0.795166,-0.22052002,-0.59039307,-0.46875,-2.1875,0.15625
202,202,1727461281886,-0.7910156,-0.22784424,-0.6018677,-0.046875,-2.25,0.265625
203,203,1727461281926,-0.7902832,-0.21881104,-0.59942627,0.140625,-2.609375,0.515625
204,204,1727461281966,-0.7878418,-0.22271729,-0.616272,-0.234375,-3.0,0.40625
205,205,1727461282006,-0.7836914,-0.2263794,-0.61676025,-1.046875,-1.1875,0.09375
206,206,1727461282046,-0.78759766,-0.22198486,-0.60406494,-0.265625,-1.65625,0.28125
207,207,1727461282086,-0.779541,-0.22564697,-0.6104126,-0.625,-1.125,0.1875
208,208,1727461282126,-0.77612305,-0.22247314,-0.60821533,-0.203125,-1.484375,0.21875
209,209,1727461282166,-0.7844238,-0.21881104,-0.6087036,-0.640625,-0.875,0.171875
210,210,1727461282206,-0.78100586,-0.21881104,-0.61846924,-0.296875,-0.71875,0.1875
211,211,1727461282246,-0.78027344,-0.22686768,-0.62701416,-1.421875,-0.5625,-0.25
212,212,1727461282286,-0.7770996,-0.21490479,-0.61602783,-0.6875,-0.578125,0.125
213,213,1727461282326,-0.7841797,-0.22369385,-0.598938,-1.59375,0.59375,0.09375
214,214,1727461282366,-0.77783203,-0.21905518,-0.6226196,-0.421875,-0.8125,0.125
215,215,1727461282406,-0.77905273,-0.22052002,-0.60650635,-0.96875,-0.6875,-0.03125
216,216,1727461282446,-0.7866211,-0.22198486,-0.61724854,-0.625,-0.65625,0.078125
217,217,1727461282486,-0.7817383,-0.22198486,-0.61724854,-1.171875,0.453125,0.171875
218,218,1727461282526,-0.7817383,-0.21588135,-0.6116333,-1.3125,0.9375,-0.125
219,219,1727461282566,-0.7832031,-0.21588135,-0.62164307,-0.625,-0.234375,0.109375
220,220,1727461282606,-0.78344727,-0.2210083,-0.60357666,-0.875,0.75,-0.09375
221,221,1727461282646,-0.78515625,-0.2210083,-0.6121216,-0.9375,1.046875,0.28125
222,222,1727461282686,-0.7907715,-0.21954346,-0.6062622,-0.796875,0.828125,0.28125
223,223,1727461282726,-0.7858887,-0.2263794,-0.61724854,-0.703125,0.609375,0.453125
224,224,1727461282766,-0.7885742,-0.22735596,-0.61065674,-1.3125,2.84375,0.328125
225,225,1727461282806,-0.79003906,-0.22369385,-0.5911255,-0.515625,1.921875,0.46875
226,226,1727461282846,-0.79052734,-0.21954346,-0.60894775,-0.828125,0.828125,0.25
227,227,1727461282886,-0.7897949,-0.22125244,-0.5996704,-0.84375,1.21875,0.171875
228,228,1727461282926,-0.7998047,-0.21710205,-0.59820557,-1.09375,1.234375,0.09375
229,229,1727461282966,-0.79418945,-0.2197876,-0.60406494,-1.25,1.703125,0.078125
230,230,1727461283006,-0.7961426,-0.22540283,-0.60821533,-1.1875,0.796875,0.046875
231,231,1727461283046,-0.798584,-0.22857666,-0.5803833,-0.421875,1.546875,0.375
232,232,1727461283086,-0.8027344,-0.22198486,-0.58673096,-2.921875,3.984375,-0.28125
233,233,1727461283126,-0.7961426,-0.21929932,-0.5852661,-0.890625,2.09375,0.34375
234,234,1727461283166,-0.8041992,-0.21612549,-0.58428955,-1.375,1.890625,-0.15625
235,235,1727461283206,-0.8095703,-0.22735596,-0.5796509,-1.296875,1.921875,0.046875
236,236,1727461283246,-0.80737305,-0.22735596,-0.5772095,-1.203125,2.328125,0.203125
237,237,1727461283286,-0.8100586,-0.2234497,-0.5750122,-1.328125,1.546875,0.0
238,238,1727461283326,-0.814209,-0.222229,-0.57354736,-0.71875,0.3125,0.15625
239,239,1727461283366,-0.8095703,-0.22686768,-0.57818604,-1.234375,0.640625,0.0625
240,240,1727461283406,-0.81469727,-0.22174072,-0.5757446,-0.828125,0.234375,0.375
241,241,1727461283446,-0.8125,-0.22662354,-0.56988525,-0.484375,-0.640625,0.5
242,242,1727461283486,-0.8100586,-0.22393799,-0.57598877,-0.546875,-1.125,0.15625
243,243,1727461283526,-0.8125,-0.22149658,-0.57476807,-1.28125,1.671875,0.0625
244,244,1727461283566,-0.8105469,-0.2276001,-0.57647705,-1.328125,0.984375,0.03125
245,245,1727461283606,-0.81689453,-0.22515869,-0.5737915,-0.796875,-0.125,0.171875
246,246,1727461283646,-0.8117676,-0.22247314,-0.57281494,-0.796875,-0.015625,0.140625
247,247,1727461283686,-0.8041992,-0.22930908,-0.56866455,-0.890625,0.328125,0.421875
248,248,1727461283726,-0.81152344,-0.22540283,-0.57281494,-1.078125,0.671875,0.328125
249,249,1727461283766,-0.81884766,-0.22930908,-0.5696411,-0.78125,0.734375,0.171875
250,250,1727461283806,-0.8132324,-0.22686768,-0.56622314,-0.390625,-0.296875,0.296875
251,251,1727461283846,-0.81030273,-0.22369385,-0.55255127,-1.03125,2.140625,0.09375
252,252,1727461283886,-0.81396484,-0.22247314,-0.5881958,-2.09375,0.90625,-0.375
253,253,1727461283926,-0.82177734,-0.22857666,-0.56085205,-0.875,0.71875,0.125
254,254,1727461283966,-0.8210449,-0.22589111,-0.5606079,-0.53125,-0.53125,-0.40625
255,255,1727461284006,-0.83447266,-0.21392822,-0.54034424,-0.015625,0.078125,0.03125
256,256,1727461284046,-0.8342285,-0.21368408,-0.54766846,-0.390625,-0.75,0.5625
257,257,1727461284086,-0.83447266,-0.2144165,-0.5479126,-1.125,-0.0625,0.375
258,258,1727461284126,-0.8327637,-0.22174072,-0.5432739,-0.984375,-0.578125,0.40625
259,259,1727461284166,-0.83325195,-0.22418213,-0.54571533,-0.859375,-0.921875,0.59375
260,260,1727461284206,-0.8276367,-0.2197876,-0.5462036,-0.984375,-0.5625,0.296875
261,261,1727461284246,-0.8310547,-0.2185669,-0.54522705,-0.953125,-0.78125,0.3125
262,262,1727461284286,-0.83081055,-0.2234497,-0.5479126,-0.890625,-0.671875,0.296875
263,263,1727461284326,-0.83374023,-0.22076416,-0.54522705,-1.015625,-0.328125,0.328125
264,264,1727461284366,-0.8276367,-0.22198486,-0.5523071,-0.875,0.328125,0.21875
265,265,1727461284406,-0.82470703,-0.22076416,-0.534729,-0.609375,-0.0625,0.5625
266,266,1727461284446,-0.8305664,-0.22735596,-0.5310669,-1.3125,2.609375,0.46875
267,267,1727461284486,-0.83740234,-0.2234497,-0.567688,-1.890625,1.0625,-0.046875
268,268,1727461284526,-0.83618164,-0.22442627,-0.5342407,-1.015625,1.171875,0.375
269,269,1727461284566,-0.83251953,-0.21807861,-0.5371704,-0.5,-0.671875,-0.28125
270,270,1727461284606,-0.83569336,-0.22174072,-0.54571533,-0.78125,-0.890625,0.375
271,271,1727461284646,-0.8288574,-0.222229,-0.538147,0.0,1.109375,0.609375
272,272,1727461284686,-0.8352051,-0.22930908,-0.5437622,0.875,1.09375,1.03125
273,273,1727461284726,-0.8383789,-0.22174072,-0.53570557,0.28125,1.703125,0.953125
274,274,1727461284766,-0.8364258,-0.22418213,-0.54229736,0.671875,1.3125,0.53125
275,275,1727461284806,-0.83984375,-0.21734619,-0.5335083,0.4375,1.390625,0.84375
276,276,1727461284846,-0.8334961,-0.22149658,-0.5339966,0.46875,0.40625,0.234375
277,277,1727461284886,-0.842041,-0.22442627,-0.53863525,-0.296875,-1.140625,0.34375
278,278,1727461284926,-0.8364258,-0.21466064,-0.5396118,-0.96875,0.0625,0.21875
279,279,1727461284966,-0.84375,-0.22418213,-0.53692627,-1.078125,-0.203125,0.3125
280,280,1727461285006,-0.83496094,-0.21759033,-0.5276489,-0.828125,-1.015625,0.34375
281,281,1727461285046,-0.8408203,-0.21783447,-0.54473877,0.421875,-2.03125,0.265625
282,282,1727461285086,-0.8378906,-0.22052002,-0.53912354,-0.546875,-0.671875,0.09375
283,283,1727461285126,-0.83691406,-0.21759033,-0.5425415,-1.0,-0.671875,0.125
284,284,1727461285166,-0.83569336,-0.21807861,-0.5430298,-0.96875,-2.109375,0.359375
285,285,1727461285206,-0.83203125,-0.21783447,-0.5466919,-1.484375,-3.703125,0.0625
286,286,1727461285246,-0.8310547,-0.22003174,-0.55010986,-2.34375,-4.265625,0.390625
287,287,1727461285286,-0.8190918,-0.21588135,-0.54156494,-1.984375,-5.328125,0.8125
288,288,1727461285326,-0.82177734,-0.22662354,-0.5684204,-2.40625,-6.59375,-0.125
289,289,1727461285366,-0.81591797,-0.2263794,-0.5757446,-1.84375,-3.859375,0.0625
290,290,1727461285406,-0.8161621,-0.22784424,-0.5491333,-1.640625,-1.234375,0.3125
291,291,1727461285446,-0.8156738,-0.22515869,-0.5701294,-0.75,-4.296875,-0.234375
292,292,1727461285486,-0.8100586,-0.22125244,-0.5742798,-1.09375,-3.203125,-0.265625
293,293,1727461285526,-0.8132324,-0.22369385,-0.58428955,-0.6875,-2.75,0.171875
294,294,1727461285566,-0.8054199,-0.2263794,-0.57598877,-0.453125,-2.84375,0.3125
295,295,1727461285606,-0.80029297,-0.21588135,-0.58184814,-0.859375,-2.3125,0.328125
296,296,1727461285646,-0.80493164,-0.22320557,-0.5877075,-0.21875,-3.6875,0.515625
297,297,1727461285686,-0.8000488,-0.2263794,-0.5864868,-0.703125,-2.21875,0.28125
298,298,1727461285726,-0.7993164,-0.23175049,-0.58721924,-0.375,-2.515625,0.3125
299,299,1727461285766,-0.796875,-0.22784424,-0.59210205,-0.234375,-2.234375,0.203125
300,300,1727461285806,-0.79125977,-0.22564697,-0.59747314,-0.5,-2.09375,0.515625
301,301,1727461285846,-0.7980957,-0.22271729,-0.6026001,-1.078125,-1.15625,0.046875
302,302,1727461285886,-0.7956543,-0.22589111,-0.5935669,-0.765625,-0.828125,0.359375
303,303,1727461285926,-0.78930664,-0.22369385,-0.5928345,-0.8125,-1.609375,0.0625
304,304,1727461285966,-0.7915039,-0.22418213,-0.59552,-0.71875,-1.578125,0.03125
305,305,1727461286006,-0.7932129,-0.22442627,-0.6067505,-0.671875,-1.765625,0.203125
306,306,1727461286046,-0.79541016,-0.22589111,-0.598938,-0.625,-1.359375,0.234375
307,307,1727461286086,-0.79003906,-0.22198486,-0.60113525,-0.5,-1.78125,0.09375
308,308,1727461286126,-0.7866211,-0.22442627,-0.6074829,-1.03125,-1.96875,0.046875
309,309,1727461286166,-0.7858887,-0.22271729,-0.59991455,-0.71875,-0.8125,0.125
310,310,1727461286206,-0.79003906,-0.22808838,-0.61260986,-1.875,0.203125,-0.109375
311,311,1727461286246,-0.7854004,-0.22784424,-0.6096802,-0.015625,-2.890625,-0.21875
312,312,1727461286286,-0.78466797,-0.21807861,-0.60650635,-0.625,-1.125,-0.296875
313,313,1727461286326,-0.7832031,-0.2185669,-0.6177368,-1.0,-1.0,0.046875
314,314,1727461286366,-0.7836914,-0.22393799,-0.61016846,-0.984375,-0.09375,0.25
315,315,1727461286406,-0.7858887,-0.22027588,-0.6104126,-1.0,-0.03125,0.296875
316,316,1727461286446,-0.7844238,-0.2210083,-0.6045532,-0.484375,-0.375,0.171875
317,317,1727461286486,-0.782959,-0.21783447,-0.600647,-0.953125,0.4375,0.296875
318,318,1727461286526,-0.782959,-0.23052979,-0.61505127,-0.828125,-0.28125,0.1875
319,319,1727461286566,-0.7866211,-0.22467041,-0.6067505,-1.171875,0.78125,0.3125
320,320,1727461286606,-0.78564453,-0.22003174,-0.60162354,-0.734375,0.671875,0.453125
321,321,1727461286646,-0.78686523,-0.222229,-0.6140747,-1.34375,0.8125,0.109375
322,322,1727461286686,-0.78637695,-0.22711182,-0.60650635,-1.46875,2.0,0.40625
323,323,1727461286726,-0.78808594,-0.2312622,-0.6026001,-1.1875,1.078125,0.09375
324,324,1727461286766,-0.79125977,-0.22174072,-0.598938,-1.5625,2.4375,0.453125
325,325,1727461286806,-0.79467773,-0.22540283,-0.60040283,-1.546875,2.125,0.953125
326,326,1727461286846,-0.80322266,-0.23248291,-0.59991455,-1.609375,2.109375,0.546875
327,327,1727461286886,-0.79003906,-0.2312622,-0.58917236,-1.46875,2.546875,0.234375
328,328,1727461286926,-0.79663086,-0.23101807,-0.5803833,-0.71875,1.140625,0.375
329,329,1727461286966,-0.80371094,-0.23150635,-0.5745239,-1.25,3.15625,0.25
330,330,1727461287006,-0.80078125,-0.22735596,-0.6096802,-2.375,1.890625,-0.5
331,331,1727461287046,-0.8093262,-0.23468018,-0.5774536,-1.09375,2.0,0.140625
332,332,1727461287086,-0.80371094,-0.23101807,-0.5725708,-1.1875,2.53125,-0.296875
333,333,1727461287126,-0.8071289,-0.23712158,-0.5737915,-0.984375,1.171875,-0.109375
334,334,1727461287166,-0.80688477,-0.22808838,-0.57354736,-1.015625,2.390625,0.484375
335,335,1727461287206,-0.810791,-0.23052979,-0.5684204,-1.171875,2.0625,0.078125
336,336,1727461287246,-0.81274414,-0.22515869,-0.5601196,-0.984375,1.921875,0.015625
337,337,1727461287286,-0.81152344,-0.22467041,-0.56988525,-0.8125,0.578125,0.265625
338,338,1727461287326,-0.81347656,-0.23248291,-0.56207275,-0.890625,1.09375,0.265625
339,339,1727461287366,-0.81640625,-0.22979736,-0.5523071,-0.65625,1.015625,0.328125
340,340,1727461287406,-0.81225586,-0.22491455,-0.5615845,-0.578125,0.640625,0.375
341,341,1727461287446,-0.8190918,-0.22955322,-0.5696411,-0.984375,0.328125,0.078125
342,342,1727461287486,-0.82250977,-0.23101807,-0.5562134,-1.140625,1.578125,0.0625
343,343,1727461287526,-0.81811523,-0.22955322,-0.5557251,-1.0625,1.4375,0.40625
344,344,1727461287566,-0.828125,-0.22857666,-0.55426025,-0.875,1.0,0.1875
345,345,1727461287606,-0.8222656,-0.22662354,-0.5576782,-0.84375,0.640625,0.25
346,346,1727461287646,-0.8215332,-0.22711182,-0.55426025,-0.890625,0.34375,0.484375
347,347,1727461287686,-0.8178711,-0.22930908,-0.55718994,-0.578125,0.03125,0.640625
348,348,1727461287726,-0.8251953,-0.2263794,-0.550354,-0.796875,0.65625,0.65625
349,349,1727461287766,-0.8232422,-0.23101807,-0.5545044,-0.734375,-0.09375,0.109375
350,350,1727461287806,-0.8293457,-0.23614502,-0.5635376,-0.703125,-0.921875,-0.03125
351,351,1727461287846,-0.8239746,-0.2312622,-0.54693604,-0.25,1.453125,0.703125
352,352,1727461287886,-0.8276367,-0.23565674,-0.550354,-3.015625,5.03125,-0.015625
353,353,1727461287926,-0.8244629,-0.23468018,-0.5383911,-0.9375,2.828125,-0.125
354,354,1727461287966,-0.82788086,-0.23223877,-0.5366821,-1.09375,1.9375,-0.390625
355,355,1727461288006,-0.8293457,-0.22857666,-0.5437622,-1.109375,0.859375,-0.03125
356,356,1727461288046,-0.83569336,-0.23492432,-0.53790283,-1.078125,2.125,0.421875
357,357,1727461288086,-0.83740234,-0.23590088,-0.53619385,-1.140625,1.546875,0.53125
358,358,1727461288126,-0.83374023,-0.2390747,-0.53082275,-0.53125,-0.015625,0.453125
359,359,1727461288166,-0.8334961,-0.23468018,-0.53912354,-0.9375,-0.015625,0.3125
360,360,1727461288206,-0.83740234,-0.23248291,-0.5305786,-0.40625,-0.46875,0.21875
361,361,1727461288246,-0.84033203,-0.2341919,-0.5303345,0.046875,-1.34375,0.265625
362,362,1727461288286,-0.83496094,-0.23077393,-0.5359497,0.0625,-1.359375,0.203125
363,363,1727461288326,-0.8330078,-0.23077393,-0.54229736,-0.9375,0.625,0.375
364,364,1727461288366,-0.8395996,-0.23199463,-0.53619385,-0.546875,1.265625,0.40625
365,365,1727461288406,-0.8364258,-0.23638916,-0.53497314,-0.734375,1.375,0.578125
366,366,1727461288446,-0.8376465,-0.22906494,-0.5310669,-0.625,2.265625,0.84375
367,367,1727461288486,-0.8383789,-0.237854,-0.5269165,-0.5625,2.53125,1.03125
368,368,1727461288526,-0.8366699,-0.23687744,-0.5244751,-0.75,1.96875,0.640625
369,369,1727461288566,-0.84350586,-0.23223877,-0.52301025,-0.8125,1.234375,0.46875
370,370,1727461288606,-0.84472656,-0.23809814,-0.52349854,-0.78125,1.578125,0.671875
371,371,1727461288646,-0.83862305,-0.2341919,-0.52227783,-0.8125,1.15625,0.296875
372,372,1727461288686,-0.8457031,-0.24786377,-0.53253174,-0.984375,-0.1875,-0.125
373,373,1727461288726,-0.8491211,-0.23345947,-0.5183716,0.109375,-1.40625,0.40625
374,374,1727461288766,-0.845459,-0.2390747,-0.51519775,-1.9375,3.328125,0.421875
375,375,1727461288806,-0.8405762,-0.237854,-0.5120239,-0.03125,1.234375,0.375
376,376,1727461288846,-0.8461914,-0.2354126,-0.51348877,-0.578125,0.046875,0.125
377,377,1727461288886,-0.84472656,-0.24005127,-0.51763916,-0.734375,-0.25,0.25
378,378,1727461288926,-0.85180664,-0.24127197,-0.51348877,-0.375,0.078125,0.25
379,379,1727461288966,-0.84594727,-0.23590088,-0.51690674,-0.34375,-1.390625,0.34375
380,380,1727461289006,-0.84814453,-0.237854,-0.51641846,0.25,-3.3125,0.375
381,381,1727461289046,-0.8479004,-0.24224854,-0.5147095,-0.703125,-2.1875,0.03125
382,382,1727461289086,-0.83935547,-0.23590088,-0.51348877,0.484375,-4.359375,-0.15625
383,383,1727461289126,-0.8388672,-0.23272705,-0.5371704,0.515625,-6.171875,-0.375
384,384,1727461289166,-0.83374023,-0.22784424,-0.53741455,0.515625,-6.0625,-0.015625
385,385,1727461289206,-0.8300781,-0.23516846,-0.5430298,-0.46875,-3.90625,0.015625
386,386,1727461289246,-0.82788086,-0.2341919,-0.5508423,-0.421875,-3.703125,0.046875
387,387,1727461289286,-0.8269043,-0.2300415,-0.552063,-0.484375,-3.484375,0.125
388,388,1727461289326,-0.8198242,-0.23175049,-0.5564575,-0.28125,-3.21875,-0.03125
389,389,1727461289366,-0.8261719,-0.23223877,-0.5588989,-0.28125,-3.09375,0.09375
390,390,1727461289406,-0.81347656,-0.22955322,-0.5586548,-0.296875,-2.453125,-0.015625
391,391,1727461289446,-0.8173828,-0.22393799,-0.56427,-0.046875,-2.90625,-0.140625
392,392,1727461289486,-0.8129883,-0.23223877,-0.5664673,-0.0625,-2.484375,0.0
393,393,1727461289526,-0.8137207,-0.2312622,-0.5635376,0.203125,-2.609375,0.25
394,394,1727461289566,-0.8149414,-0.21710205,-0.5779419,-1.375,-2.921875,-0.46875
395,395,1727461289606,-0.81103516,-0.22808838,-0.5877075,-0.953125,-1.5,-0.125
396,396,1727461289646,-0.810791,-0.23321533,-0.5588989,-0.625,-1.09375,-0.109375
397,397,1727461289686,-0.7998047,-0.22955322,-0.58477783,-0.125,-3.53125,-0.5625
398,398,1727461289726,-0.80615234,-0.22247314,-0.5774536,-0.90625,-2.34375,-0.09375
399,399,1727461289766,-0.80371094,-0.22784424,-0.5894165,-0.609375,-2.015625,0.265625
400,400,1727461289806,-0.8093262,-0.22491455,-0.5857544,-0.5,-1.78125,0.4375
401,401,1727461289846,-0.8063965,-0.22442627,-0.5881958,-0.859375,-1.5,0.109375
402,402,1727461289886,-0.8041992,-0.23052979,-0.5940552,-0.03125,-3.140625,0.203125
403,403,1727461289926,-0.7973633,-0.22711182,-0.58599854,-0.46875,-1.75,0.015625
404,404,1727461289966,-0.79418945,-0.22467041,-0.5913696,-0.25,-1.859375,0.1875
405,405,1727461290006,-0.7963867,-0.22540283,-0.5923462,-0.328125,-2.234375,0.15625
406,406,1727461290046,-0.7922363,-0.21905518,-0.59747314,0.03125,-2.8125,0.203125
407,407,1727461290086,-0.7944336,-0.22393799,-0.5979614,-0.78125,-1.265625,-0.09375
408,408,1727461290126,-0.7895508,-0.22296143,-0.6026001,-0.390625,-1.078125,-0.03125
409,409,1727461290166,-0.7902832,-0.22369385,-0.5911255,-0.203125,-1.4375,-0.15625
410,410,1727461290206,-0.7883301,-0.22369385,-0.60479736,0.1875,-2.78125,-0.09375
411,411,1727461290246,-0.78881836,-0.2197876,-0.6084595,-0.390625,-1.71875,-0.203125
412,412,1727461290286,-0.78686523,-0.22198486,-0.60235596,-0.65625,-0.96875,-0.109375
413,413,1727461290326,-0.7873535,-0.21832275,-0.6096802,-0.203125,-1.5,0.359375
414,414,1727461290366,-0.7854004,-0.21759033,-0.61065674,-1.515625,0.171875,-0.546875
415,415,1727461290406,-0.7902832,-0.21734619,-0.62091064,-1.125,0.640625,0.0
416,416,1727461290446,-0.78125,-0.21954346,-0.5894165,-0.4375,0.640625,-0.09375
417,417,1727461290486,-0.7871094,-0.22174072,-0.61553955,-0.71875,0.390625,-0.390625
418,418,1727461290526,-0.7897949,-0.21368408,-0.5935669,-0.53125,-0.25,-0.0625
419,419,1727461290566,-0.78808594,-0.2197876,-0.611145,-0.734375,-0.140625,-0.09375
420,420,1727461290606,-0.7890625,-0.21490479,-0.6043091,-1.015625,0.265625,0.078125
421,421,1727461290646,-0.7885742,-0.21661377,-0.60162354,-1.125,0.3125,0.1875
422,422,1727461290686,-0.7895508,-0.21734619,-0.61676025,-0.421875,-1.5625,0.4375
423,423,1727461290726,-0.7873535,-0.21368408,-0.6026001,-0.328125,-0.703125,0.21875
424,424,1727461290766,-0.7897949,-0.21759033,-0.60601807,0.265625,-0.1875,0.546875
425,425,1727461290806,-0.78759766,-0.2156372,-0.60528564,-0.359375,-0.375,0.203125
426,426,1727461290846,-0.7885742,-0.21539307,-0.611145,-0.09375,-0.125,0.109375
427,427,1727461290886,-0.7949219,-0.21710205,-0.6099243,-1.09375,0.375,0.15625
428,428,1727461290926,-0.7858887,-0.21636963,-0.60601807,-0.859375,0.0,0.3125
429,429,1727461290966,-0.795166,-0.2197876,-0.6109009,-0.921875,-0.0625,0.296875
430,430,1727461291006,-0.7922363,-0.21221924,-0.60162354,-0.625,-0.59375,0.140625
431,431,1727461291046,-0.78686523,-0.21612549,-0.6099243,-0.8125,-1.140625,0.25
432,432,1727461291086,-0.7919922,-0.21807861,-0.6096802,-1.21875,0.703125,0.3125
433,433,1727461291126,-0.7915039,-0.21246338,-0.6013794,-1.234375,0.6875,0.28125
434,434,1727461291166,-0.78808594,-0.21246338,-0.61920166,-1.796875,0.609375,-0.1875
435,435,1727461291206,-0.78808594,-0.21759033,-0.6096802,-0.671875,0.453125,0.046875
436,436,1727461291246,-0.7902832,-0.21685791,-0.58599854,-1.984375,3.125,0.109375
437,437,1727461291286,-0.79589844,-0.21783447,-0.60040283,-0.9375,1.375,-0.0625
438,438,1727461291326,-0.7885742,-0.21343994,-0.5928345,-1.078125,1.421875,-0.015625
439,439,1727461291366,-0.7976074,-0.22003174,-0.5960083,-1.078125,0.609375,0.15625
440,440,1727461291406,-0.8022461,-0.21905518,-0.5820923,-0.96875,1.484375,0.484375
441,441,1727461291446,-0.8041992,-0.22125244,-0.58966064,-1.375,1.5,0.203125
442,442,1727461291486,-0.8015137,-0.21807861,-0.5877075,-0.546875,0.71875,0.21875
443,443,1727461291526,-0.8029785,-0.21002197,-0.583313,-1.484375,1.125,0.078125
444,444,1727461291566,-0.8010254,-0.222229,-0.5864868,-0.984375,1.109375,0.375
445,445,1727461291606,-0.8051758,-0.22076416,-0.583313,-0.8125,0.59375,0.234375
446,446,1727461291646,-0.7944336,-0.22003174,-0.5874634,-0.59375,0.28125,0.21875
447,447,1727461291686,-0.8029785,-0.22296143,-0.5913696,-1.25,1.75,0.203125
448,448,1727461291726,-0.8005371,-0.22149658,-0.5835571,-1.265625,2.171875,0.21875
449,449,1727461291766,-0.810791,-0.22076416,-0.57354736,-1.046875,1.015625,0.328125
450,450,1727461291806,-0.8093262,-0.22052002,-0.5774536,-1.0,1.3125,0.203125
451,451,1727461291846,-0.81225586,-0.2210083,-0.5755005,-1.359375,1.6875,0.296875
452,452,1727461291886,-0.810791,-0.21905518,-0.5718384,-1.1875,2.40625,0.671875
453,453,1727461291926,-0.8144531,-0.23052979,-0.5750122,-1.3125,1.65625,0.34375
454,454,1727461291966,-0.81591797,-0.23370361,-0.5684204,-1.203125,3.1875,0.09375
455,455,1727461292006,-0.8156738,-0.22735596,-0.56622314,-0.953125,1.78125,0.40625
456,456,1727461292046,-0.8222656,-0.22491455,-0.5459595,-0.53125,2.375,0.59375
457,457,1727461292086,-0.82177734,-0.22589111,-0.57110596,-2.859375,2.640625,-0.125
458,458,1727461292126,-0.82543945,-0.22296143,-0.5552368,-0.8125,2.0625,0.453125
459,459,1727461292166,-0.82177734,-0.21954346,-0.55133057,-0.734375,1.234375,0.03125
460,460,1727461292206,-0.8305664,-0.22735596,-0.5527954,-1.109375,1.515625,0.703125
461,461,1727461292246,-0.83081055,-0.22686768,-0.55303955,-0.9375,2.953125,0.796875
462,462,1727461292286,-0.8276367,-0.22735596,-0.5479126,-0.8125,2.484375,0.765625
463,463,1727461292326,-0.8334961,-0.23223877,-0.5352173,-0.546875,2.875,0.390625
464,464,1727461292366,-0.8293457,-0.23028564,-0.5462036,-1.015625,1.578125,0.5
465,465,1727461292406,-0.8317871,-0.2210083,-0.5430298,-0.65625,1.34375,0.65625
466,466,1727461292446,-0.83813477,-0.23297119,-0.5359497,-0.15625,0.46875,0.546875
467,467,1727461292486,-0.8352051,-0.22784424,-0.53619385,-0.421875,-0.40625,0.578125
468,468,1727461292526,-0.8405762,-0.2300415,-0.54278564,-1.0,0.859375,0.328125
469,469,1727461292566,-0.84155273,-0.2312622,-0.5352173,-0.9375,1.625,0.796875
470,470,1727461292606,-0.8383789,-0.237854,-0.53619385,-0.78125,1.5625,0.578125
471,471,1727461292646,-0.8432617,-0.2312622,-0.53448486,-0.953125,1.359375,0.578125
472,472,1727461292686,-0.84106445,-0.23443604,-0.5261841,-0.625,1.484375,0.375
473,473,1727461292726,-0.8405762,-0.23248291,-0.5276489,-0.90625,1.625,0.84375
474,474,1727461292766,-0.84228516,-0.23101807,-0.53204346,-1.09375,1.984375,0.484375
475,475,1727461292806,-0.84277344,-0.23272705,-0.52008057,-1.1875,2.703125,0.4375
476,476,1727461292846,-0.85302734,-0.23199463,-0.51641846,-1.25,2.34375,0.0
477,477,1727461292886,-0.8449707,-0.22564697,-0.5227661,-2.015625,1.046875,-0.375
478,478,1727461292926,-0.8444824,-0.2354126,-0.52349854,-0.90625,-0.9375,-0.078125
479,479,1727461292966,-0.8515625,-0.23565674,-0.4985962,-1.625,1.21875,0.0
480,480,1727461293006,-0.84594727,-0.23248291,-0.51519775,-0.109375,-2.046875,-0.5
481,481,1727461293046,-0.8457031,-0.23394775,-0.51812744,0.046875,-3.890625,-0.484375
482,482,1727461293086,-0.8532715,-0.2300415,-0.5310669,-0.125,-4.1875,-0.390625
483,483,1727461293126,-0.8383789,-0.22955322,-0.5286255,0.078125,-3.828125,-0.015625
484,484,1727461293166,-0.8371582,-0.2263794,-0.53253174,-0.375,-4.6875,-0.34375
485,485,1727461293206,-0.8305664,-0.22686768,-0.5396118,0.015625,-5.46875,-0.34375
486,486,1727461293246,-0.8366699,-0.22467041,-0.54522705,-0.4375,-4.0625,-0.171875
487,487,1727461293286,-0.8269043,-0.23101807,-0.5442505,0.21875,-3.59375,0.078125
488,488,1727461293326,-0.8269043,-0.22076416,-0.552063,0.3125,-4.90625,-0.015625
489,489,1727461293366,-0.82421875,-0.22491455,-0.56744385,-0.046875,-4.46875,0.0
490,490,1727461293406,-0.8288574,-0.22711182,-0.5647583,-0.484375,-2.53125,-0.046875
491,491,1727461293446,-0.826416,-0.22589111,-0.569397,-0.5625,-2.5625,0.1875
492,492,1727461293486,-0.81762695,-0.21734619,-0.5713501,-0.578125,-2.046875,0.015625
493,493,1727461293526,-0.82128906,-0.22174072,-0.56915283,-0.4375,-1.953125,-0.078125
494,494,1727461293566,-0.8156738,-0.222229,-0.56988525,-0.3125,-2.1875,0.03125
495,495,1727461293606,-0.8154297,-0.2156372,-0.5696411,-0.046875,-2.46875,0.078125
496,496,1727461293646,-0.8117676,-0.21783447,-0.57696533,-0.546875,-2.015625,0.3125
497,497,1727461293686,-0.8161621,-0.22296143,-0.5762329,-0.171875,-2.140625,0.15625
498,498,1727461293726,-0.810791,-0.21734619,-0.5960083,-1.4375,-2.28125,-0.59375
499,499,1727461293766,-0.80371094,-0.2185669,-0.5881958,-0.890625,-1.03125,0.078125
500,500,1727461293806,-0.80981445,-0.22174072,-0.5635376,-0.796875,-0.09375,-0.078125
501,501,1727461293846,-0.8076172,-0.21929932,-0.58599854,-0.203125,-2.84375,-0.28125
502,502,1727461293886,-0.80200195,-0.21539307,-0.58062744,-0.609375,-1.59375,-0.1875
503,503,1727461293926,-0.8022461,-0.21759033,-0.59381104,-0.71875,-1.359375,-0.046875
504,504,1727461293966,-0.8000488,-0.2197876,-0.58673096,-0.78125,-0.6875,0.171875
505,505,1727461294006,-0.80029297,-0.22125244,-0.5864868,-0.921875,-0.875,0.21875
506,506,1727461294046,-0.80371094,-0.21807861,-0.58917236,0.09375,-2.6875,0.265625
507,507,1727461294086,-0.7998047,-0.21514893,-0.585022,-0.4375,-1.8125,0.21875
508,508,1727461294126,-0.8029785,-0.22271729,-0.59161377,0.03125,-1.890625,0.34375
509,509,1727461294166,-0.8029785,-0.21539307,-0.5964966,0.125,-2.578125,0.34375
510,510,1727461294206,-0.79418945,-0.21295166,-0.59747314,-0.0625,-2.296875,0.46875
511,511,1727461294246,-0.7902832,-0.21612549,-0.6038208,-0.5625,-1.15625,0.171875
512,512,1727461294286,-0.7890625,-0.21295166,-0.5947876,-0.734375,-0.8125,0.328125
513,513,1727461294326,-0.7922363,-0.2197876,-0.6018677,-0.40625,-1.234375,0.28125
514,514,1727461294366,-0.7949219,-0.21881104,-0.6074829,-0.5,-1.71875,0.171875
515,515,1727461294406,-0.7915039,-0.21466064,-0.6084595,-0.625,-1.15625,0.09375
516,516,1727461294446,-0.78881836,-0.2119751,-0.60650635,-0.5,-0.953125,0.109375
517,517,1727461294486,-0.78881836,-0.22003174,-0.60894775,-0.3125,-1.359375,0.375
518,518,1727461294526,-0.78564453,-0.21514893,-0.5996704,-1.140625,0.28125,0.078125
519,519,1727461294566,-0.79125977,-0.21343994,-0.62164307,-1.28125,0.078125,-0.21875
520,520,1727461294606,-0.78637695,-0.21246338,-0.5940552,-0.25,-0.890625,0.265625
521,521,1727461294646,-0.7819824,-0.21588135,-0.60528564,-0.71875,-1.25,-0.234375
522,522,1727461294686,-0.78271484,-0.21954346,-0.611145,-1.0625,-0.921875,0.0625
523,523,1727461294726,-0.7871094,-0.2119751,-0.61260986,-0.75,-0.828125,0.203125
524,524,1727461294766,-0.7844238,-0.21807861,-0.60650635,-0.984375,-0.5,0.296875
525,525,1727461294806,-0.7800293,-0.222229,-0.5991821,-1.078125,-0.046875,0.359375
526,526,1727461294846,-0.78344727,-0.21295166,-0.6148071,-0.859375,-1.265625,0.40625
527,527,1727461294886,-0.78686523,-0.2156372,-0.6148071,-0.671875,-0.90625,0.25
528,528,1727461294926,-0.78466797,-0.21246338,-0.6123657,-0.796875,-0.28125,0.359375
529,529,1727461294966,-0.7819824,-0.21466064,-0.6133423,-1.03125,0.0,0.421875
530,530,1727461295006,-0.7805176,-0.21417236,-0.6165161,-1.0625,-0.03125,0.421875
531,531,1727461295046,-0.78759766,-0.21759033,-0.60821533,-1.46875,1.109375,0.265625
532,532,1727461295086,-0.7878418,-0.21734619,-0.60601807,-1.078125,0.84375,0.203125
533,533,1727461295126,-0.78515625,-0.21588135,-0.61431885,-0.90625,0.65625,0.21875
534,534,1727461295166,-0.78271484,-0.21588135,-0.61138916,-1.203125,0.828125,0.171875
535,535,1727461295206,-0.7849121,-0.21417236,-0.60723877,-1.34375,1.34375,0.140625
536,536,1727461295246,-0.7949219,-0.21588135,-0.6030884,-1.328125,1.828125,0.40625
537,537,1727461295286,-0.78686523,-0.22662354,-0.60650635,-1.03125,1.71875,0.296875
538,538,1727461295326,-0.79345703,-0.21905518,-0.585022,-1.234375,3.453125,0.265625
539,539,1727461295366,-0.798584,-0.21685791,-0.6091919,-2.59375,2.9375,-0.140625
540,540,1727461295406,-0.80126953,-0.21954346,-0.59381104,-0.875,1.40625,0.265625
541,541,1727461295446,-0.79785156,-0.21832275,-0.5918579,-1.078125,1.875,0.03125
542,542,1727461295486,-0.8017578,-0.21636963,-0.5803833,-0.9375,1.1875,0.25
543,543,1727461295526,-0.8027344,-0.21759033,-0.5979614,-0.796875,0.6875,0.4375
544,544,1727461295566,-0.8005371,-0.22174072,-0.5913696,-1.40625,2.53125,0.6875
545,545,1727461295606,-0.8046875,-0.21929932,-0.5755005,-1.296875,1.6875,0.21875
546,546,1727461295646,-0.8017578,-0.21954346,-0.58306885,-1.3125,0.53125,0.125
547,547,1727461295686,-0.80859375,-0.2185669,-0.5786743,-1.109375,0.984375,0.21875
548,548,1727461295726,-0.80688477,-0.2234497,-0.5725708,-0.75,0.59375,0.453125
549,549,1727461295766,-0.8066406,-0.22296143,-0.5742798,-0.609375,-0.15625,0.453125
550,550,1727461295806,-0.8120117,-0.22296143,-0.5874634,-0.953125,0.28125,0.234375
551,551,1727461295846,-0.8088379,-0.22320557,-0.579895,-1.21875,2.15625,0.3125
552,552,1727461295886,-0.8154297,-0.22467041,-0.56427,-0.875,2.078125,0.140625
553,553,1727461295926,-0.810791,-0.22247314,-0.57281494,-0.703125,0.828125,0.3125
554,554,1727461295966,-0.8154297,-0.2276001,-0.5718384,-0.859375,1.0625,0.265625
555,555,1727461296006,-0.82006836,-0.21881104,-0.56988525,-0.921875,1.1875,0.296875
556,556,1727461296046,-0.8137207,-0.2300415,-0.5654907,-1.390625,1.921875,0.53125
557,557,1727461296086,-0.81933594,-0.22662354,-0.5610962,-1.359375,1.765625,0.8125
558,558,1727461296126,-0.82421875,-0.22906494,-0.56256104,-1.203125,1.375,0.625
559,559,1727461296166,-0.8249512,-0.23370361,-0.5701294,-1.3125,0.078125,0.15625
560,560,1727461296206,-0.8239746,-0.22320557,-0.54937744,-0.109375,0.515625,0.71875
561,561,1727461296246,-0.82373047,-0.22515869,-0.55841064,-2.21875,3.046875,0.265625
562,562,1727461296286,-0.81933594,-0.2276001,-0.55474854,-0.421875,1.765625,0.03125
563,563,1727461296326,-0.8305664,-0.22271729,-0.54815674,-0.65625,0.640625,-0.21875
564,564,1727461296366,-0.83203125,-0.22540283,-0.5515747,-0.75,1.046875,0.34375
565,565,1727461296406,-0.82910156,-0.22833252,-0.5496216,-0.265625,2.21875,0.453125
566,566,1727461296446,-0.8286133,-0.22686768,-0.55133057,-0.53125,1.46875,0.328125
567,567,1727461296486,-0.8256836,-0.22467041,-0.5401001,-0.515625,1.1875,0.375
568,568,1727461296526,-0.83251953,-0.22003174,-0.5471802,-1.296875,1.78125,0.3125
569,569,1727461296566,-0.8322754,-0.2312622,-0.5420532,-0.84375,1.46875,0.625
570,570,1727461296606,-0.8330078,-0.21832275,-0.53570557,-0.015625,-0.03125,0.40625
571,571,1727461296646,-0.8330078,-0.22613525,-0.54229736,-0.0625,-0.609375,0.390625
572,572,1727461296686,-0.8366699,-0.2276001,-0.5444946,-1.0625,0.96875,0.59375
573,573,1727461296726,-0.8347168,-0.22515869,-0.53985596,-0.671875,1.421875,0.609375
574,574,1727461296766,-0.8310547,-0.22979736,-0.5352173,-0.578125,0.765625,0.390625
575,575,1727461296806,-0.83984375,-0.23248291,-0.536438,-0.84375,0.8125,0.40625
576,576,1727461296846,-0.8366699,-0.22833252,-0.53619385,-0.625,0.828125,0.25
577,577,1727461296886,-0.83447266,-0.2341919,-0.5322876,-0.828125,1.21875,0.40625
578,578,1727461296926,-0.845459,-0.2234497,-0.5376587,-0.984375,1.1875,0.640625
579,579,1727461296966,-0.8405762,-0.2300415,-0.5327759,-0.546875,1.890625,0.484375
580,580,1727461297006,-0.8383789,-0.23223877,-0.520813,-0.296875,1.203125,0.625
581,581,1727461297046,-0.8444824,-0.22906494,-0.5149536,-0.984375,2.71875,0.578125
582,582,1727461297086,-0.8408203,-0.23101807,-0.54888916,-1.5,0.5,0.0625
583,583,1727461297126,-0.8444824,-0.2312622,-0.51519775,-0.6875,0.96875,0.03125
584,584,1727461297166,-0.845459,-0.2312622,-0.51934814,-0.21875,-0.53125,-0.28125
585,585,1727461297206,-0.84594727,-0.22906494,-0.5281372,-0.75,-1.453125,0.015625
586,586,1727461297246,-0.84375,-0.22491455,-0.53570557,-1.171875,0.40625,0.21875
587,587,1727461297286,-0.8469238,-0.22930908,-0.51885986,-0.734375,-0.484375,0.109375
588,588,1727461297326,-0.84228516,-0.22393799,-0.5232544,-0.640625,-0.953125,0.1875
589,589,1727461297366,-0.83862305,-0.23297119,-0.5281372,-0.515625,-1.875,0.28125
590,590,1727461297406,-0.8400879,-0.23248291,-0.5276489,-0.84375,-1.34375,0.203125
591,591,1727461297446,-0.84155273,-0.22686768,-0.5244751,0.09375,-2.421875,0.171875
592,592,1727461297486,-0.842041,-0.22735596,-0.53448486,-0.265625,-3.390625,0.140625
593,593,1727461297526,-0.8378906,-0.23297119,-0.54400635,-0.515625,-3.0,0.265625
594,594,1727461297566,-0.83032227,-0.22515869,-0.538147,-0.765625,-2.234375,0.125
595,595,1727461297606,-0.8317871,-0.22540283,-0.5425415,-0.796875,-2.5,0.46875
596,596,1727461297646,-0.83251953,-0.23199463,-0.54473877,-0.53125,-3.03125,0.171875
597,597,1727461297686,-0.8251953,-0.22711182,-0.54278564,-0.375,-3.8125,-0.046875
598,598,1727461297726,-0.82470703,-0.2288208,-0.55548096,-0.203125,-3.84375,0.21875
599,599,1727461297766,-0.82128906,-0.22540283,-0.5569458,-0.25,-2.5625,0.453125
600,600,1727461297806,-0.82470703,-0.22857666,-0.56500244,-0.75,-1.984375,0.140625
601,601,1727461297846,-0.8178711,-0.2276001,-0.5593872,-0.34375,-2.015625,0.078125
602,602,1727461297886,-0.8234863,-0.222229,-0.57232666,-0.96875,-2.546875,-0.609375
603,603,1727461297926,-0.8161621,-0.22271729,-0.5713501,0.15625,-2.21875,-0.234375
604,604,1727461297966,-0.8190918,-0.22271729,-0.55841064,-1.140625,0.140625,-0.046875
605,605,1727461298006,-0.81884766,-0.22808838,-0.5701294,0.46875,-3.4375,-0.265625
606,606,1727461298046,-0.81274414,-0.22589111,-0.56988525,-0.46875,-2.796875,-0.359375
607,607,1727461298086,-0.8120117,-0.21881104,-0.5750122,-0.234375,-2.421875,-0.125
608,608,1727461298126,-0.81396484,-0.21343994,-0.5713501,-0.625,-1.890625,0.140625
609,609,1727461298166,-0.80566406,-0.21954346,-0.58062744,-0.6875,-1.921875,0.15625
610,610,1727461298206,-0.8100586,-0.21417236,-0.58135986,0.453125,-3.234375,0.03125
611,611,1727461298246,-0.8059082,-0.21539307,-0.5757446,-0.671875,-1.765625,0.140625
612,612,1727461298286,-0.80908203,-0.2210083,-0.5784302,-0.125,-1.6875,0.328125
613,613,1727461298326,-0.8059082,-0.22052002,-0.5967407,-0.0625,-2.328125,0.125
614,614,1727461298366,-0.8022461,-0.22027588,-0.5889282,0.109375,-2.15625,0.28125
615,615,1727461298406,-0.80200195,-0.22052002,-0.59259033,-0.859375,-1.25,0.109375
616,616,1727461298446,-0.80200195,-0.21612549,-0.58917236,-0.625,-1.109375,0.140625
617,617,1727461298486,-0.7963867,-0.21392822,-0.58917236,-0.203125,-1.6875,-0.09375
618,618,1727461298526,-0.79956055,-0.21661377,-0.5913696,-0.53125,-1.875,0.09375
619,619,1727461298566,-0.79956055,-0.21759033,-0.5930786,-0.25,-1.90625,0.125
620,620,1727461298606,-0.7919922,-0.21954346,-0.59820557,-0.5625,-1.09375,0.21875
621,621,1727461298646,-0.79248047,-0.21954346,-0.59698486,-0.140625,-1.5,0.375
622,622,1727461298686,-0.7871094,-0.21490479,-0.5967407,-1.15625,0.296875,-0.1875
623,623,1727461298726,-0.7956543,-0.21612549,-0.61187744,-1.09375,-0.296875,-0.0625
624,624,1727461298766,-0.7885742,-0.22125244,-0.5906372,-0.265625,-1.046875,0.109375
625,625,1727461298806,-0.7939453,-0.21783447,-0.60406494,-0.59375,-0.90625,-0.328125
626,626,1727461298846,-0.79418945,-0.2119751,-0.6030884,-0.59375,-1.234375,-0.09375
627,627,1727461298886,-0.7956543,-0.2131958,-0.6091919,-0.828125,-0.359375,0.15625
628,628,1727461298926,-0.78808594,-0.21270752,-0.6050415,-0.8125,-0.46875,0.375
629,629,1727461298966,-0.7922363,-0.21490479,-0.5947876,-0.71875,-0.1875,0.1875
630,630,1727461299006,-0.78637695,-0.21124268,-0.60821533,-0.140625,-1.703125,0.40625
631,631,1727461299046,-0.79052734,-0.21929932,-0.6109009,-0.46875,-1.203125,0.15625
632,632,1727461299086,-0.79052734,-0.21051025,-0.6087036,-0.328125,-1.0625,0.390625
633,633,1727461299126,-0.7841797,-0.20587158,-0.60406494,-0.5,-1.421875,0.28125
634,634,1727461299166,-0.78759766,-0.22125244,-0.6135864,-0.796875,-1.640625,0.515625
635,635,1727461299206,-0.7871094,-0.2197876,-0.6104126,-1.40625,0.203125,0.390625
636,636,1727461299246,-0.782959,-0.21661377,-0.6116333,-0.9375,-0.40625,0.5
637,637,1727461299286,-0.78271484,-0.21173096,-0.60357666,-1.09375,0.0,0.1875
638,638,1727461299326,-0.79052734,-0.21759033,-0.60943604,-0.75,0.21875,0.15625
639,639,1727461299366,-0.7832031,-0.2131958,-0.6165161,-1.0,0.84375,0.140625
640,640,1727461299406,-0.7902832,-0.21929932,-0.6084595,-1.515625,2.125,0.484375
641,641,1727461299446,-0.7832031,-0.22174072,-0.6018677,-1.546875,2.3125,0.609375
642,642,1727461299486,-0.79174805,-0.21929932,-0.5906372,-2.359375,4.296875,0.078125
643,643,1727461299526,-0.7961426,-0.21832275,-0.6133423,-1.890625,2.234375,-0.15625
644,644,1727461299566,-0.79125977,-0.2210083,-0.58258057,-1.015625,1.578125,0.078125
645,645,1727461299606,-0.79663086,-0.21539307,-0.5942993,-0.921875,0.609375,-0.1875
646,646,1727461299646,-0.7998047,-0.21343994,-0.5947876,-1.609375,1.40625,0.015625
647,647,1727461299686,-0.8010254,-0.22491455,-0.59454346,-1.390625,1.28125,0.28125
648,648,1727461299726,-0.8022461,-0.21807861,-0.59454346,-1.390625,1.671875,0.359375
649,649,1727461299766,-0.79589844,-0.22320557,-0.5796509,-1.390625,2.125,0.296875
650,650,1727461299806,-0.8076172,-0.22125244,-0.5874634,-1.046875,0.546875,0.3125
651,651,1727461299846,-0.8041992,-0.22076416,-0.57818604,-1.3125,1.46875,-0.046875
652,652,1727461299886,-0.80737305,-0.22467041,-0.58013916,-0.859375,1.25,0.46875
653,653,1727461299926,-0.8105469,-0.2288208,-0.5791626,-1.0625,1.015625,0.328125
654,654,1727461299966,-0.8095703,-0.22515869,-0.5784302,-1.0625,1.28125,0.28125
655,655,1727461300006,-0.81689453,-0.21881104,-0.5762329,-1.546875,2.46875,0.265625
656,656,1727461300046,-0.8105469,-0.22711182,-0.5733032,-1.125,2.234375,0.28125
657,657,1727461300086,-0.8112793,-0.22491455,-0.5664673,-1.1875,1.65625,0.34375
658,658,1727461300126,-0.81933594,-0.2234497,-0.5664673,-1.0,1.59375,0.265625
659,659,1727461300166,-0.82055664,-0.22296143,-0.56622314,-1.21875,1.765625,0.34375
660,660,1727461300206,-0.8183594,-0.22735596,-0.5647583,-1.1875,2.09375,0.515625
661,661,1727461300246,-0.8234863,-0.22467041,-0.56256104,-1.40625,1.609375,0.296875
662,662,1727461300286,-0.8173828,-0.23223877,-0.55914307,-1.109375,1.640625,0.328125
663,663,1727461300326,-0.81591797,-0.22686768,-0.55303955,-0.765625,1.265625,0.46875
664,664,1727461300366,-0.8256836,-0.22442627,-0.5376587,-0.421875,2.5,0.5625
665,665,1727461300406,-0.82299805,-0.23321533,-0.5667114,-2.4375,2.640625,-0.125
666,666,1727461300446,-0.8232422,-0.22979736,-0.54473877,-0.890625,2.578125,0.40625
667,667,1727461300486,-0.82958984,-0.22662354,-0.54815674,-0.1875,1.375,-0.171875
668,668,1727461300526,-0.8371582,-0.21807861,-0.5466919,-0.703125,0.96875,0.03125
669,669,1727461300566,-0.8342285,-0.23199463,-0.5454712,-0.84375,3.25,0.609375
670,670,1727461300606,-0.83740234,-0.22491455,-0.5383911,-0.53125,2.109375,0.421875
671,671,1727461300646,-0.8413086,-0.23248291,-0.5339966,-0.515625,2.046875,0.25
672,672,1727461300686,-0.8317871,-0.22808838,-0.53497314,-0.78125,1.34375,0.546875
673,673,1727461300726,-0.8376465,-0.22784424,-0.53082275,-0.734375,1.046875,0.515625
674,674,1727461300766,-0.8442383,-0.2341919,-0.52423096,-0.21875,0.984375,0.5
675,675,1727461300806,-0.842041,-0.22564697,-0.522522,-0.421875,-0.140625,0.578125
676,676,1727461300846,-0.8425293,-0.23175049,-0.5335083,-0.796875,1.078125,0.59375
677,677,1727461300886,-0.84106445,-0.2312622,-0.5303345,-0.921875,1.515625,0.5
678,678,1727461300926,-0.8430176,-0.22979736,-0.5249634,-0.796875,1.375,0.5625
679,679,1727461300966,-0.8486328,-0.22662354,-0.52471924,-0.71875,1.4375,0.625
680,680,1727461301006,-0.8442383,-0.23223877,-0.52008057,-0.703125,1.4375,0.5625
681,681,1727461301046,-0.8442383,-0.2288208,-0.52471924,-0.453125,1.625,0.734375
682,682,1727461301086,-0.8430176,-0.23248291,-0.520813,-0.609375,1.625,0.796875
683,683,1727461301126,-0.8449707,-0.23248291,-0.519104,-0.828125,1.4375,0.609375
684,684,1727461301166,-0.8486328,-0.23516846,-0.5120239,-0.703125,1.859375,0.4375
685,685,1727461301206,-0.85180664,-0.23590088,-0.5054321,-0.625,1.53125,0.484375
686,686,1727461301246,-0.84814453,-0.23272705,-0.5132446,-1.453125,1.859375,0.0625
687,687,1727461301286,-0.8557129,-0.22833252,-0.5244751,-0.84375,-0.546875,-0.078125
688,688,1727461301326,-0.8515625,-0.2366333,-0.49908447,-1.359375,1.875,-0.109375
689,689,1727461301366,-0.8544922,-0.23394775,-0.5010376,-0.4375,-0.1875,-0.46875
690,690,1727461301406,-0.85131836,-0.22711182,-0.49591064,-0.796875,-1.53125,-0.375
691,691,1727461301446,-0.85302734,-0.23321533,-0.50860596,-1.140625,-0.703125,-0.03125
692,692,1727461301486,-0.8535156,-0.23150635,-0.5027466,-0.828125,-1.296875,-0.046875
693,693,1727461301526,-0.84936523,-0.22711182,-0.50665283,-0.890625,-1.515625,-0.0625
694,694,1727461301566,-0.8535156,-0.2300415,-0.51104736,-0.46875,-3.40625,0.0625
695,695,1727461301606,-0.8457031,-0.2312622,-0.51446533,-0.875,-2.5625,0.046875
696,696,1727461301646,-0.845459,-0.23565674,-0.51153564,-0.390625,-2.59375,0.140625
697,697,1727461301686,-0.8496094,-0.22442627,-0.5215454,-0.1875,-4.265625,-0.125
698,698,1727461301726,-0.8469238,-0.2300415,-0.53131104,-0.34375,-3.625,0.1875
699,699,1727461301766,-0.8395996,-0.2312622,-0.5261841,-0.75,-2.015625,0.09375
700,700,1727461301806,-0.84106445,-0.22589111,-0.53082275,-0.578125,-2.78125,0.0
701,701,1727461301846,-0.8383789,-0.22735596,-0.536438,-0.5,-3.15625,-0.03125
702,702,1727461301886,-0.83496094,-0.22418213,-0.54156494,-0.390625,-2.6875,-0.03125
703,703,1727461301926,-0.83496094,-0.23223877,-0.5430298,-0.140625,-2.90625,0.09375
704,704,1727461301966,-0.82421875,-0.22418213,-0.5496216,-0.46875,-2.40625,0.046875
705,705,1727461302006,-0.8327637,-0.22808838,-0.5442505,-0.171875,-2.71875,-0.046875
706,706,1727461302046,-0.8288574,-0.2300415,-0.55670166,-0.4375,-2.515625,-0.171875
707,707,1727461302086,-0.8293457,-0.22564697,-0.5527954,-0.15625,-2.796875,0.046875
708,708,1727461302126,-0.82250977,-0.2312622,-0.5730591,-0.734375,-3.984375,-0.53125
709,709,1727461302166,-0.82714844,-0.22247314,-0.5549927,-0.40625,-2.03125,0.03125
710,710,1727461302206,-0.81591797,-0.22296143,-0.55133057,-1.453125,0.15625,-0.09375
711,711,1727461302246,-0.8195801,-0.22027588,-0.56451416,0.046875,-3.515625,-0.4375
712,712,1727461302286,-0.8156738,-0.22174072,-0.56329346,-0.5625,-2.4375,-0.359375
713,713,1727461302326,-0.8178711,-0.22247314,-0.56622314,-0.5625,-2.46875,-0.109375
714,714,1727461302366,-0.81811523,-0.22515869,-0.569397,-0.5,-1.671875,0.15625
715,715,1727461302406,-0.8132324,-0.21783447,-0.56988525,-0.546875,-2.1875,0.109375
716,716,1727461302446,-0.8154297,-0.21807861,-0.57232666,0.5,-3.078125,0.140625
717,717,1727461302486,-0.8129883,-0.22735596,-0.57281494,-0.546875,-1.734375,0.3125
718,718,1727461302526,-0.81469727,-0.21710205,-0.57525635,-0.15625,-2.03125,0.375
719,719,1727461302566,-0.80810547,-0.22003174,-0.58721924,-0.328125,-2.3125,-0.03125
720,720,1727461302606,-0.80444336,-0.21661377,-0.5857544,-0.171875,-2.578125,0.1875
721,721,1727461302646,-0.8029785,-0.22027588,-0.5889282,-0.765625,-1.828125,-0.0625
722,722,1727461302686,-0.80371094,-0.22271729,-0.5881958,-0.8125,-1.34375,0.046875
723,723,1727461302726,-0.8005371,-0.21710205,-0.5918579,-0.65625,-1.375,0.015625
724,724,1727461302766,-0.8005371,-0.21392822,-0.5869751,-0.421875,-1.84375,0.09375
725,725,1727461302806,-0.79345703,-0.21392822,-0.5906372,-0.59375,-1.6875,0.21875
726,726,1727461302846,-0.79663086,-0.2156372,-0.5930786,-0.78125,-0.984375,0.078125
727,727,1727461302886,-0.7988281,-0.22442627,-0.5889282,-0.65625,-1.3125,0.125
728,728,1727461302926,-0.79785156,-0.22540283,-0.6087036,-0.921875,-1.796875,-0.078125
729,729,1727461302966,-0.79907227,-0.21612549,-0.5935669,-0.5,-0.953125,-0.015625
730,730,1727461303006,-0.8017578,-0.21612549,-0.5918579,-1.796875,0.796875,-0.109375
731,731,1727461303046,-0.795166,-0.21368408,-0.5928345,-0.171875,-2.015625,-0.28125
732,732,1727461303086,-0.7939453,-0.2156372,-0.5960083,-0.578125,-0.3125,-0.21875
733,733,1727461303126,-0.7961426,-0.21295166,-0.59747314,-0.640625,-0.953125,0.03125
734,734,1727461303166,-0.79418945,-0.21685791,-0.5940552,-0.984375,-0.03125,0.3125
735,735,1727461303206,-0.7963867,-0.2144165,-0.598938,-1.09375,-0.140625,0.21875
736,736,1727461303246,-0.80029297,-0.2144165,-0.5952759,-0.328125,-0.890625,0.21875
737,737,1727461303286,-0.7949219,-0.21612549,-0.5935669,-1.296875,0.828125,0.15625
738,738,1727461303326,-0.798584,-0.21514893,-0.60235596,-0.9375,0.28125,0.375
739,739,1727461303366,-0.7993164,-0.21807861,-0.5979614,-0.875,0.3125,0.09375
740,740,1727461303406,-0.8010254,-0.21295166,-0.59747314,-0.640625,-0.03125,0.21875
741,741,1727461303446,-0.8015137,-0.21612549,-0.6026001,-0.9375,0.453125,0.4375
742,742,1727461303486,-0.7961426,-0.22393799,-0.5947876,-1.53125,1.734375,0.25
743,743,1727461303526,-0.80322266,-0.21514893,-0.5864868,-1.1875,1.78125,0.25
744,744,1727461303566,-0.80200195,-0.22296143,-0.5901489,-1.453125,2.0625,0.265625
745,745,1727461303606,-0.8059082,-0.21636963,-0.5808716,-0.90625,1.515625,0.1875
746,746,1727461303646,-0.81030273,-0.22613525,-0.5906372,-1.28125,1.734375,0.28125
747,747,1727461303686,-0.8022461,-0.22052002,-0.5791626,-1.375,2.359375,0.171875
748,748,1727461303726,-0.80615234,-0.22491455,-0.5774536,-1.046875,1.828125,0.453125
749,749,1727461303766,-0.80981445,-0.22369385,-0.56378174,-1.359375,3.84375,0.53125
