,Unnamed: 0,timestamp,accel_x,accel_y,accel_z,gyro_x,gyro_y,gyro_z
0,0,1727218031465,-0.91625977,-0.08770752,-0.4212036,-0.015625,-0.140625,0.25
1,1,1727218031505,-0.91748047,-0.07476807,-0.43658447,-0.265625,-0.25,0.140625
2,2,1727218031545,-0.9016113,-0.081848145,-0.4492798,-0.546875,-0.140625,0.015625
3,3,1727218031585,-0.9140625,-0.07623291,-0.4229126,-0.0625,0.390625,-0.109375
4,4,1727218031625,-0.9128418,-0.085754395,-0.411438,-0.28125,0.453125,-0.265625
5,5,1727218031665,-0.9169922,-0.07647705,-0.43341064,-0.546875,0.375,-0.390625
6,6,1727218031705,-0.9133301,-0.07623291,-0.43023682,-0.453125,0.125,-0.265625
7,7,1727218031745,-0.9145508,-0.077697754,-0.42926025,-0.53125,1.3125,-0.4375
8,8,1727218031785,-0.9091797,-0.085754395,-0.42803955,-0.6875,0.859375,-0.34375
9,9,1727218031825,-0.9243164,-0.08502197,-0.4277954,-0.71875,0.96875,-0.0625
10,10,1727218031865,-0.91967773,-0.078430176,-0.42193604,-0.296875,1.296875,-0.359375
11,11,1727218031905,-0.9187012,-0.0791626,-0.4307251,-0.390625,1.390625,-0.078125
12,12,1727218031945,-0.9145508,-0.081848145,-0.40533447,0.234375,1.546875,-0.234375
13,13,1727218031985,-0.90625,-0.08770752,-0.42437744,-0.3125,0.15625,-0.375
14,14,1727218032025,-0.92285156,-0.078430176,-0.41705322,-0.40625,-0.15625,0.0
15,15,1727218032065,-0.9169922,-0.08502197,-0.425354,-1.1875,-0.4375,-0.234375
16,16,1727218032105,-0.9133301,-0.08062744,-0.42974854,-1.34375,-0.671875,-0.046875
17,17,1727218032145,-0.9133301,-0.08135986,-0.41729736,-1.0,-1.453125,0.078125
18,18,1727218032185,-0.92211914,-0.08721924,-0.43096924,-1.328125,-1.125,0.09375
19,19,1727218032225,-0.91430664,-0.0881958,-0.43756104,-1.265625,-0.34375,0.015625
20,20,1727218032265,-0.90893555,-0.085510254,-0.43121338,-1.03125,-0.296875,-0.015625
21,21,1727218032305,-0.9099121,-0.086242676,-0.42755127,-1.0,-0.015625,-0.09375
22,22,1727218032345,-0.9111328,-0.08477783,-0.42388916,-0.421875,-0.09375,-0.28125
23,23,1727218032385,-0.9172363,-0.09136963,-0.4319458,-0.65625,-0.1875,-0.15625
24,24,1727218032425,-0.907959,-0.08258057,-0.42852783,-0.859375,0.0625,-0.59375
25,25,1727218032465,-0.907959,-0.08306885,-0.44073486,-1.03125,0.265625,-0.453125
26,26,1727218032505,-0.9128418,-0.08795166,-0.409729,0.1875,0.84375,-0.40625
27,27,1727218032545,-0.91308594,-0.09454346,-0.43829346,-0.984375,0.75,-0.265625
28,28,1727218032585,-0.91137695,-0.086242676,-0.4282837,-0.9375,0.375,-0.078125
29,29,1727218032625,-0.9099121,-0.07940674,-0.4356079,-0.875,1.28125,-0.328125
30,30,1727218032665,-0.9169922,-0.08770752,-0.42974854,-0.84375,0.640625,-0.21875
31,31,1727218032705,-0.92163086,-0.09234619,-0.43121338,-0.484375,0.671875,-0.03125
32,32,1727218032745,-0.9121094,-0.09210205,-0.4277954,0.40625,0.71875,-0.015625
33,33,1727218032785,-0.9033203,-0.09161377,-0.43414307,-0.515625,0.515625,0.0625
34,34,1727218032825,-0.9108887,-0.090148926,-0.42193604,0.15625,1.28125,-0.421875
35,35,1727218032865,-0.91015625,-0.086242676,-0.42926025,-0.765625,-0.25,-0.1875
36,36,1727218032905,-0.91674805,-0.09136963,-0.42022705,-0.390625,0.40625,-0.09375
37,37,1727218032945,-0.9145508,-0.09234619,-0.4290161,-0.75,0.375,-0.140625
38,38,1727218032985,-0.9157715,-0.089660645,-0.43145752,-0.890625,0.921875,-0.328125
39,39,1727218033025,-0.904541,-0.09112549,-0.4265747,-0.671875,0.234375,-0.203125
40,40,1727218033065,-0.9169922,-0.08648682,-0.41949463,-0.84375,-0.140625,-0.21875
41,41,1727218033105,-0.9152832,-0.09283447,-0.43145752,-0.546875,-0.234375,-0.328125
42,42,1727218033145,-0.91137695,-0.09259033,-0.427063,-0.578125,-0.21875,-0.296875
43,43,1727218033185,-0.91015625,-0.09210205,-0.4204712,-0.296875,-0.5,-0.171875
44,44,1727218033225,-0.9152832,-0.09893799,-0.4385376,-1.265625,-0.203125,-0.125
45,45,1727218033265,-0.9157715,-0.08087158,-0.4258423,-0.734375,0.09375,-0.484375
46,46,1727218033305,-0.9145508,-0.10015869,-0.43829346,-1.328125,-0.0625,-0.34375
47,47,1727218033345,-0.91748047,-0.08502197,-0.41290283,0.5,0.3125,-0.03125
48,48,1727218033385,-0.90771484,-0.08843994,-0.43341064,-0.890625,-0.453125,-0.359375
49,49,1727218033425,-0.91552734,-0.077697754,-0.43341064,-0.5,0.15625,-0.09375
50,50,1727218033465,-0.9086914,-0.08892822,-0.4336548,-0.5,0.203125,-0.140625
51,51,1727218033505,-0.9157715,-0.089660645,-0.4307251,-0.375,0.09375,-0.171875
52,52,1727218033545,-0.91845703,-0.09136963,-0.43658447,-0.375,0.421875,-0.03125
53,53,1727218033585,-0.91308594,-0.09063721,-0.43292236,0.65625,0.21875,-0.03125
54,54,1727218033625,-0.91308594,-0.097961426,-0.42926025,0.015625,0.265625,-0.15625
55,55,1727218033665,-0.9091797,-0.086242676,-0.4336548,0.5625,0.9375,-0.296875
56,56,1727218033705,-0.91259766,-0.086242676,-0.43292236,-0.203125,-0.1875,0.078125
57,57,1727218033745,-0.9128418,-0.08795166,-0.4434204,-0.265625,0.875,-0.0625
58,58,1727218033785,-0.9111328,-0.09185791,-0.4277954,0.078125,0.765625,-0.078125
59,59,1727218033825,-0.90771484,-0.09112549,-0.4307251,-0.234375,0.078125,-0.21875
60,60,1727218033865,-0.9135742,-0.090148926,-0.43292236,-0.09375,0.390625,-0.15625
61,61,1727218033905,-0.9169922,-0.09283447,-0.43511963,-0.265625,0.140625,0.03125
62,62,1727218033945,-0.9074707,-0.093566895,-0.4295044,0.0,0.1875,-0.125
63,63,1727218033985,-0.9067383,-0.08892822,-0.42559814,0.28125,0.390625,-0.140625
64,64,1727218034025,-0.90771484,-0.09210205,-0.4319458,0.21875,0.546875,-0.046875
65,65,1727218034065,-0.9050293,-0.08428955,-0.43292236,-0.328125,0.5,-0.296875
66,66,1727218034105,-0.9152832,-0.086242676,-0.44122314,0.078125,0.84375,-0.4375
67,67,1727218034145,-0.9145508,-0.09307861,-0.41412354,0.671875,0.765625,-0.171875
68,68,1727218034185,-0.91137695,-0.08380127,-0.4360962,-0.09375,0.875,-0.359375
69,69,1727218034225,-0.90966797,-0.09234619,-0.4277954,0.203125,0.234375,0.046875
70,70,1727218034265,-0.9111328,-0.081604004,-0.42730713,0.28125,1.125,-0.046875
71,71,1727218034305,-0.9160156,-0.0881958,-0.42877197,0.578125,0.6875,-0.171875
72,72,1727218034345,-0.9152832,-0.09307861,-0.42388916,0.296875,0.71875,-0.046875
73,73,1727218034385,-0.9140625,-0.085754395,-0.41851807,1.078125,0.828125,0.0
74,74,1727218034425,-0.9133301,-0.08673096,-0.4295044,0.921875,0.25,0.1875
75,75,1727218034465,-0.91064453,-0.08648682,-0.42193604,0.96875,0.734375,-0.015625
76,76,1727218034505,-0.91137695,-0.09234619,-0.4295044,0.234375,0.046875,-0.046875
77,77,1727218034545,-0.91430664,-0.08721924,-0.42266846,1.03125,0.671875,0.09375
78,78,1727218034585,-0.91259766,-0.08013916,-0.43511963,0.203125,0.765625,0.0
79,79,1727218034625,-0.91503906,-0.08502197,-0.425354,0.359375,1.25,-0.078125
80,80,1727218034665,-0.91430664,-0.08282471,-0.42803955,0.671875,1.203125,0.328125
81,81,1727218034705,-0.9223633,-0.08111572,-0.42755127,0.90625,1.0,0.125
82,82,1727218034745,-0.9199219,-0.081848145,-0.42364502,0.96875,1.15625,0.0
83,83,1727218034785,-0.9116211,-0.08404541,-0.4295044,0.640625,0.984375,-0.03125
84,84,1727218034825,-0.92333984,-0.08258057,-0.42144775,0.421875,0.59375,-0.078125
85,85,1727218034865,-0.9226074,-0.089904785,-0.41827393,0.546875,1.03125,0.0625
86,86,1727218034905,-0.92041016,-0.08013916,-0.4192505,-0.109375,0.875,-0.078125
87,87,1727218034945,-0.9187012,-0.082092285,-0.41314697,0.578125,0.9375,-0.03125
88,88,1727218034985,-0.91845703,-0.089904785,-0.4277954,-1.21875,0.359375,-0.265625
89,89,1727218035025,-0.9304199,-0.08404541,-0.4138794,0.28125,1.015625,0.015625
90,90,1727218035065,-0.9099121,-0.086242676,-0.42559814,-0.078125,0.328125,0.0
91,91,1727218035105,-0.92163086,-0.07647705,-0.42193604,0.015625,1.3125,-0.03125
92,92,1727218035145,-0.91918945,-0.07891846,-0.41461182,0.0625,0.71875,-0.1875
93,93,1727218035185,-0.9250488,-0.07672119,-0.41827393,0.203125,0.375,0.0625
94,94,1727218035225,-0.920166,-0.08526611,-0.41558838,0.328125,-0.125,0.03125
95,95,1727218035265,-0.92041016,-0.08404541,-0.41705322,0.71875,-0.8125,0.234375
96,96,1727218035305,-0.923584,-0.081604004,-0.42559814,-0.46875,0.34375,-0.125
97,97,1727218035345,-0.9165039,-0.081604004,-0.41412354,0.25,0.671875,0.078125
98,98,1727218035385,-0.9177246,-0.07623291,-0.42242432,-0.40625,-0.28125,0.171875
99,99,1727218035425,-0.91430664,-0.07940674,-0.42242432,-0.453125,-0.25,-0.078125
100,100,1727218035465,-0.9172363,-0.07891846,-0.4212036,-0.171875,-0.34375,0.140625
101,101,1727218035505,-0.920166,-0.08306885,-0.42095947,-0.578125,-0.4375,0.140625
102,102,1727218035545,-0.9194336,-0.08770752,-0.4258423,-0.328125,-0.65625,0.1875
103,103,1727218035585,-0.91674805,-0.08868408,-0.4216919,-0.015625,-0.5,0.265625
104,104,1727218035625,-0.9213867,-0.08453369,-0.41900635,0.125,-0.03125,0.328125
105,105,1727218035665,-0.9094238,-0.08428955,-0.42218018,0.140625,-0.65625,0.421875
106,106,1727218035705,-0.91625977,-0.08380127,-0.42193604,0.03125,-0.75,0.15625
107,107,1727218035745,-0.91552734,-0.08111572,-0.43292236,-0.625,-1.25,0.28125
108,108,1727218035785,-0.91796875,-0.07354736,-0.43292236,-1.203125,-0.859375,0.203125
109,109,1727218035825,-0.9042969,-0.0869751,-0.4343872,-1.109375,-0.90625,0.21875
110,110,1727218035865,-0.92163086,-0.09039307,-0.4356079,-0.40625,0.375,0.1875
111,111,1727218035905,-0.9104004,-0.08721924,-0.43536377,-0.953125,0.6875,-0.03125
112,112,1727218035945,-0.9187012,-0.08355713,-0.42144775,0.375,1.078125,-0.046875
113,113,1727218035985,-0.9091797,-0.08868408,-0.442688,-1.265625,1.4375,-0.5
114,114,1727218036025,-0.9177246,-0.085510254,-0.42388916,0.171875,1.3125,-0.203125
115,115,1727218036065,-0.9128418,-0.097717285,-0.43292236,-0.671875,0.65625,-0.234375
116,116,1727218036105,-0.9248047,-0.08770752,-0.42266846,-1.140625,0.1875,0.34375
117,117,1727218036145,-0.91967773,-0.09234619,-0.41900635,-0.796875,0.421875,0.296875
118,118,1727218036185,-0.9182129,-0.09136963,-0.4258423,-0.6875,0.140625,0.296875
119,119,1727218036225,-0.9108887,-0.08843994,-0.42730713,-0.125,-0.828125,0.9375
120,120,1727218036265,-0.91796875,-0.094055176,-0.4331665,0.296875,-1.1875,0.765625
121,121,1727218036305,-0.9091797,-0.09283447,-0.44610596,-0.484375,-0.28125,0.671875
122,122,1727218036345,-0.9104004,-0.089660645,-0.4307251,0.28125,0.109375,0.375
123,123,1727218036385,-0.9091797,-0.097717285,-0.44049072,-0.625,0.171875,0.234375
124,124,1727218036425,-0.9128418,-0.08868408,-0.43511963,-0.328125,0.765625,0.25
125,125,1727218036465,-0.9094238,-0.090148926,-0.43414307,-0.609375,1.484375,-0.234375
126,126,1727218036505,-0.91552734,-0.08746338,-0.43170166,-0.5625,2.78125,-0.171875
127,127,1727218036545,-0.9091797,-0.09967041,-0.43096924,-1.046875,2.234375,-0.34375
128,128,1727218036585,-0.9082031,-0.09552002,-0.40997314,-0.828125,2.046875,-0.46875
129,129,1727218036625,-0.9199219,-0.08795166,-0.4199829,-0.59375,0.890625,0.0625
130,130,1727218036665,-0.91381836,-0.0947876,-0.42022705,0.125,0.234375,-0.09375
131,131,1727218036705,-0.91918945,-0.09161377,-0.42559814,0.421875,-0.578125,-0.140625
132,132,1727218036745,-0.9121094,-0.09503174,-0.43121338,-0.1875,-1.078125,-0.0625
133,133,1727218036785,-0.9140625,-0.09893799,-0.4277954,-0.34375,-1.15625,0.171875
134,134,1727218036825,-0.91064453,-0.09454346,-0.43292236,-0.4375,-0.578125,0.078125
135,135,1727218036865,-0.91381836,-0.093566895,-0.4360962,-0.515625,-0.5,0.203125
136,136,1727218036905,-0.9121094,-0.094055176,-0.42633057,-0.015625,0.234375,-0.296875
137,137,1727218036945,-0.9123535,-0.09844971,-0.43048096,-0.890625,-0.1875,-0.25
138,138,1727218036985,-0.92749023,-0.09185791,-0.43048096,-0.59375,1.1875,-0.34375
139,139,1727218037025,-0.90649414,-0.09259033,-0.43218994,-0.90625,0.203125,-0.28125
140,140,1727218037065,-0.92700195,-0.09185791,-0.42852783,-0.609375,1.34375,-0.546875
141,141,1727218037105,-0.9067383,-0.09527588,-0.4331665,-0.65625,0.828125,-0.78125
142,142,1727218037145,-0.9182129,-0.10235596,-0.42926025,-0.609375,0.359375,-0.5
143,143,1727218037185,-0.9121094,-0.09967041,-0.42266846,-0.34375,1.046875,-0.5
144,144,1727218037225,-0.9169922,-0.09503174,-0.43048096,-0.71875,0.015625,-0.171875
145,145,1727218037265,-0.9074707,-0.09503174,-0.4216919,-0.234375,0.03125,-0.46875
146,146,1727218037305,-0.90771484,-0.10089111,-0.42803955,-0.1875,-0.703125,-0.453125
147,147,1727218037345,-0.9187012,-0.08892822,-0.42608643,-0.375,-1.546875,-0.234375
148,148,1727218037385,-0.91674805,-0.10479736,-0.4360962,-0.671875,-1.015625,-0.265625
149,149,1727218037425,-0.9094238,-0.097473145,-0.4348755,-0.921875,-0.46875,-0.171875
150,150,1727218037465,-0.91064453,-0.0881958,-0.43878174,-0.875,-0.546875,-0.328125
151,151,1727218037505,-0.9069824,-0.09967041,-0.43341064,-0.546875,-0.75,0.171875
152,152,1727218037545,-0.9157715,-0.09429932,-0.43804932,-0.328125,-1.0,-0.09375
153,153,1727218037585,-0.91137695,-0.097229004,-0.4348755,-0.296875,-0.828125,-0.046875
154,154,1727218037625,-0.9067383,-0.089416504,-0.4439087,-0.375,-0.515625,-0.046875
155,155,1727218037665,-0.90722656,-0.10015869,-0.440979,-0.546875,-0.46875,-0.203125
156,156,1727218037705,-0.91064453,-0.10089111,-0.43902588,0.21875,-0.65625,-0.203125
157,157,1727218037745,-0.90234375,-0.105529785,-0.45269775,-0.96875,0.0625,-0.171875
158,158,1727218037785,-0.90112305,-0.08355713,-0.4348755,-0.15625,0.203125,-0.6875
159,159,1727218037825,-0.9094238,-0.105529785,-0.44781494,-0.640625,0.453125,-0.265625
160,160,1727218037865,-0.90844727,-0.09112549,-0.42266846,0.578125,0.84375,-0.390625
161,161,1727218037905,-0.90356445,-0.09112549,-0.4463501,-0.234375,0.375,-0.5625
162,162,1727218037945,-0.9108887,-0.09527588,-0.43756104,-0.421875,0.390625,-0.0625
163,163,1727218037985,-0.90234375,-0.09112549,-0.44439697,-0.734375,0.8125,-0.03125
164,164,1727218038025,-0.90283203,-0.09454346,-0.44244385,-0.84375,0.390625,-0.140625
165,165,1727218038065,-0.90649414,-0.09503174,-0.43927002,-0.765625,0.109375,-0.109375
166,166,1727218038105,-0.9104004,-0.08795166,-0.43927002,0.21875,0.0,-0.0625
167,167,1727218038145,-0.9042969,-0.09503174,-0.44708252,-0.328125,-0.234375,-0.046875
168,168,1727218038185,-0.90600586,-0.097961426,-0.43927002,0.125,0.09375,-0.25
169,169,1727218038225,-0.89575195,-0.097717285,-0.44610596,-0.546875,-1.09375,0.109375
170,170,1727218038265,-0.90649414,-0.0960083,-0.44122314,-0.84375,-0.625,0.015625
171,171,1727218038305,-0.9001465,-0.101135254,-0.44317627,-1.125,-0.40625,-0.234375
172,172,1727218038345,-0.9038086,-0.09283447,-0.44610596,-0.734375,-0.4375,-0.296875
173,173,1727218038385,-0.907959,-0.09844971,-0.45220947,-0.75,-0.609375,-0.171875
174,174,1727218038425,-0.9025879,-0.09893799,-0.44659424,-0.359375,-0.625,0.0625
175,175,1727218038465,-0.8984375,-0.105529785,-0.44561768,-0.046875,-0.65625,0.203125
176,176,1727218038505,-0.8977051,-0.10650635,-0.4524536,0.046875,-0.3125,0.015625
177,177,1727218038545,-0.9025879,-0.10333252,-0.44781494,-0.125,-0.046875,-0.078125
178,178,1727218038585,-0.90283203,-0.09698486,-0.45098877,0.0625,0.03125,0.03125
179,179,1727218038625,-0.89282227,-0.10211182,-0.45147705,-1.078125,0.46875,0.03125
180,180,1727218038665,-0.8937988,-0.0869751,-0.44952393,-0.03125,0.265625,-0.171875
181,181,1727218038705,-0.89697266,-0.09967041,-0.44952393,-0.296875,0.3125,0.109375
182,182,1727218038745,-0.9050293,-0.09820557,-0.45977783,0.140625,0.53125,0.125
183,183,1727218038785,-0.8989258,-0.10235596,-0.45489502,0.640625,-0.265625,0.09375
184,184,1727218038825,-0.9086914,-0.09820557,-0.44708252,0.375,0.75,0.15625
185,185,1727218038865,-0.89868164,-0.09869385,-0.4529419,0.484375,0.609375,-0.109375
186,186,1727218038905,-0.90478516,-0.09698486,-0.44854736,-0.03125,0.40625,0.0
187,187,1727218038945,-0.89941406,-0.09136963,-0.44195557,0.3125,0.4375,0.046875
188,188,1727218038985,-0.9050293,-0.10455322,-0.4553833,-0.40625,-0.265625,0.4375
189,189,1727218039025,-0.8989258,-0.09674072,-0.44952393,0.234375,0.328125,-0.046875
190,190,1727218039065,-0.8913574,-0.09869385,-0.45733643,0.078125,-0.046875,0.0
191,191,1727218039105,-0.91064453,-0.09552002,-0.4529419,0.25,-0.765625,0.0625
192,192,1727218039145,-0.9025879,-0.09844971,-0.46343994,-0.109375,0.078125,-0.140625
193,193,1727218039185,-0.890625,-0.101379395,-0.44439697,0.015625,0.5625,-0.015625
194,194,1727218039225,-0.8918457,-0.09649658,-0.45611572,-0.046875,0.21875,-0.03125
195,195,1727218039265,-0.8979492,-0.09820557,-0.45025635,-0.078125,0.125,0.0625
196,196,1727218039305,-0.9001465,-0.1038208,-0.46002197,-0.109375,0.453125,-0.03125
197,197,1727218039345,-0.89575195,-0.09625244,-0.45611572,-0.015625,0.421875,0.1875
198,198,1727218039385,-0.8952637,-0.101623535,-0.45733643,-0.078125,0.390625,-0.046875
199,199,1727218039425,-0.8942871,-0.09625244,-0.4505005,0.390625,0.359375,-0.140625
200,200,1727218039465,-0.90063477,-0.093811035,-0.45977783,-0.03125,0.4375,-0.0625
201,201,1727218039505,-0.8959961,-0.09527588,-0.4578247,-0.453125,0.484375,-0.28125
202,202,1727218039545,-0.8955078,-0.10333252,-0.45343018,-0.09375,0.828125,-0.3125
203,203,1727218039585,-0.8959961,-0.09991455,-0.4414673,0.34375,1.015625,-0.390625
204,204,1727218039625,-0.9050293,-0.101623535,-0.46124268,-0.140625,0.96875,-0.15625
205,205,1727218039665,-0.892334,-0.10040283,-0.45196533,0.265625,0.46875,0.109375
206,206,1727218039705,-0.90112305,-0.09454346,-0.45391846,0.4375,1.28125,0.015625
207,207,1727218039745,-0.8952637,-0.097961426,-0.45343018,0.21875,0.578125,-0.34375
208,208,1727218039785,-0.9025879,-0.08843994,-0.45269775,0.171875,0.59375,-0.078125
209,209,1727218039825,-0.8984375,-0.09527588,-0.44244385,0.515625,0.875,-0.125
210,210,1727218039865,-0.90600586,-0.09844971,-0.44781494,-0.015625,-0.03125,0.171875
211,211,1727218039905,-0.89868164,-0.09429932,-0.4500122,0.0,0.640625,-0.125
212,212,1727218039945,-0.9057617,-0.093811035,-0.4500122,0.390625,0.9375,-0.078125
213,213,1727218039985,-0.9025879,-0.097229004,-0.442688,-0.078125,0.265625,-0.078125
214,214,1727218040025,-0.8979492,-0.09552002,-0.46051025,-0.4375,0.8125,-0.15625
215,215,1727218040065,-0.89819336,-0.10235596,-0.440979,0.109375,0.84375,-0.03125
216,216,1727218040105,-0.9008789,-0.094055176,-0.44537354,-0.015625,0.390625,-0.09375
217,217,1727218040145,-0.90600586,-0.09136963,-0.44805908,-0.234375,0.390625,0.046875
218,218,1727218040185,-0.90112305,-0.0960083,-0.44708252,0.15625,0.46875,-0.046875
219,219,1727218040225,-0.9001465,-0.09893799,-0.44488525,0.21875,0.59375,-0.078125
220,220,1727218040265,-0.8977051,-0.09674072,-0.44976807,-0.265625,0.21875,-0.203125
221,221,1727218040305,-0.90063477,-0.09503174,-0.442688,-0.140625,0.265625,-0.140625
222,222,1727218040345,-0.9030762,-0.097717285,-0.45196533,-0.34375,0.25,-0.125
223,223,1727218040385,-0.9050293,-0.08721924,-0.44561768,-0.171875,0.328125,0.09375
224,224,1727218040425,-0.9033203,-0.09649658,-0.45269775,-0.109375,0.703125,0.015625
225,225,1727218040465,-0.9003906,-0.10308838,-0.4451294,-0.46875,0.71875,0.125
226,226,1727218040505,-0.8972168,-0.090148926,-0.44781494,-0.234375,0.515625,0.140625
227,227,1727218040545,-0.8925781,-0.09429932,-0.4524536,-1.0,0.734375,-0.5
228,228,1727218040585,-0.907959,-0.09307861,-0.4439087,-0.140625,0.96875,-0.1875
229,229,1727218040625,-0.8996582,-0.09698486,-0.44586182,0.046875,0.34375,-0.296875
230,230,1727218040665,-0.90966797,-0.09283447,-0.440979,-0.234375,1.125,0.046875
231,231,1727218040705,-0.89697266,-0.09454346,-0.44171143,-0.09375,0.78125,-0.25
232,232,1727218040745,-0.91186523,-0.09210205,-0.4397583,-0.078125,0.640625,-0.03125
233,233,1727218040785,-0.90844727,-0.09869385,-0.440979,-0.171875,0.65625,0.015625
234,234,1727218040825,-0.9099121,-0.09698486,-0.44488525,0.421875,0.21875,-0.015625
235,235,1727218040865,-0.90405273,-0.09259033,-0.44195557,-0.203125,0.828125,-0.265625
236,236,1727218040905,-0.90625,-0.097229004,-0.44024658,0.140625,1.0625,-0.359375
237,237,1727218040945,-0.9069824,-0.10089111,-0.44830322,-0.453125,0.015625,-0.234375
238,238,1727218040985,-0.90600586,-0.090148926,-0.4446411,0.0,0.40625,-0.046875
239,239,1727218041025,-0.90600586,-0.09429932,-0.44195557,-0.234375,0.3125,-0.09375
240,240,1727218041065,-0.90893555,-0.09283447,-0.44073486,-0.5625,0.53125,-0.1875
241,241,1727218041105,-0.907959,-0.09844971,-0.44073486,-0.46875,0.0,-0.15625
242,242,1727218041145,-0.9111328,-0.0947876,-0.4439087,-0.453125,0.375,-0.296875
243,243,1727218041185,-0.904541,-0.09185791,-0.43829346,-0.515625,0.125,-0.296875
244,244,1727218041225,-0.90283203,-0.09649658,-0.45025635,-0.5625,0.109375,-0.390625
245,245,1727218041265,-0.9020996,-0.09234619,-0.43951416,-0.46875,0.0,-0.5
246,246,1727218041305,-0.9067383,-0.09112549,-0.44708252,-0.578125,0.0,-0.3125
247,247,1727218041345,-0.90844727,-0.09283447,-0.44586182,-0.640625,-0.15625,-0.3125
248,248,1727218041385,-0.90893555,-0.093566895,-0.43634033,-0.0625,-0.0625,-0.1875
249,249,1727218041425,-0.9099121,-0.09625244,-0.45269775,-0.578125,0.296875,-0.0625
250,250,1727218041465,-0.9003906,-0.093566895,-0.4463501,-0.65625,-0.046875,-0.46875
251,251,1727218041505,-0.90771484,-0.097717285,-0.4492798,-1.28125,0.078125,-0.3125
252,252,1727218041545,-0.9038086,-0.097961426,-0.42266846,0.390625,0.671875,-0.25
253,253,1727218041585,-0.89819336,-0.09234619,-0.45147705,-0.890625,0.28125,-0.28125
254,254,1727218041625,-0.9123535,-0.089660645,-0.44488525,-0.6875,-0.078125,-0.3125
255,255,1727218041665,-0.9067383,-0.09210205,-0.44537354,-0.484375,0.40625,-0.109375
256,256,1727218041705,-0.90600586,-0.097717285,-0.4451294,-0.578125,0.078125,-0.4375
257,257,1727218041745,-0.90893555,-0.09283447,-0.4463501,-1.0625,0.046875,-0.265625
258,258,1727218041785,-0.89990234,-0.09210205,-0.4356079,0.09375,-0.015625,-0.390625
259,259,1727218041825,-0.8964844,-0.09136963,-0.44952393,-0.5625,-0.25,0.09375
260,260,1727218041865,-0.89624023,-0.0881958,-0.4414673,-0.21875,0.1875,-0.203125
261,261,1727218041905,-0.8942871,-0.097473145,-0.4529419,-0.71875,-0.796875,-0.203125
262,262,1727218041945,-0.90625,-0.09649658,-0.44415283,0.0,-0.5,-0.109375
263,263,1727218041985,-0.9008789,-0.101135254,-0.4500122,-0.578125,-0.515625,-0.21875
264,264,1727218042025,-0.8977051,-0.097961426,-0.45147705,-0.984375,-0.015625,-0.171875
265,265,1727218042065,-0.9025879,-0.09967041,-0.44854736,-0.71875,-0.21875,-0.1875
266,266,1727218042105,-0.9008789,-0.089904785,-0.44952393,-0.53125,-0.328125,-0.09375
267,267,1727218042145,-0.9001465,-0.09307861,-0.4512329,-0.625,-0.28125,-0.015625
268,268,1727218042185,-0.89819336,-0.097717285,-0.45196533,-0.671875,-0.28125,-0.1875
269,269,1727218042225,-0.8984375,-0.097961426,-0.4505005,-0.859375,-0.25,-0.0625
270,270,1727218042265,-0.9038086,-0.09503174,-0.45758057,-0.859375,-0.375,-0.09375
271,271,1727218042305,-0.8937988,-0.101135254,-0.44903564,-0.4375,-0.40625,-0.109375
272,272,1727218042345,-0.89941406,-0.10626221,-0.4668579,-0.796875,-0.390625,-0.0625
273,273,1727218042385,-0.89624023,-0.09088135,-0.44854736,-0.625,-0.515625,-0.765625
274,274,1727218042425,-0.89697266,-0.105041504,-0.46539307,-1.125,0.03125,-0.484375
275,275,1727218042465,-0.8977051,-0.09527588,-0.44439697,0.3125,0.328125,-0.03125
276,276,1727218042505,-0.89868164,-0.10284424,-0.46368408,-0.484375,0.15625,-0.296875
277,277,1727218042545,-0.8979492,-0.093811035,-0.4619751,-0.125,0.328125,-0.015625
278,278,1727218042585,-0.8918457,-0.09967041,-0.46295166,0.0,0.875,0.21875
279,279,1727218042625,-0.8996582,-0.09527588,-0.4578247,0.125,0.921875,-0.03125
280,280,1727218042665,-0.89575195,-0.09576416,-0.46173096,0.078125,0.609375,0.03125
281,281,1727218042705,-0.9033203,-0.09991455,-0.4500122,1.234375,0.5,0.125
282,282,1727218042745,-0.8959961,-0.0960083,-0.46002197,0.3125,0.3125,0.125
283,283,1727218042785,-0.89575195,-0.09552002,-0.44805908,0.640625,0.65625,-0.03125
284,284,1727218042825,-0.88964844,-0.09674072,-0.45635986,0.1875,-0.1875,0.25
285,285,1727218042865,-0.89868164,-0.093811035,-0.44952393,0.625,0.140625,0.15625
286,286,1727218042905,-0.8911133,-0.097961426,-0.46514893,0.109375,0.296875,-0.09375
287,287,1727218042945,-0.8959961,-0.09918213,-0.45928955,0.234375,0.71875,0.078125
288,288,1727218042985,-0.89624023,-0.09576416,-0.46148682,0.046875,0.359375,0.09375
289,289,1727218043025,-0.8911133,-0.1038208,-0.45513916,0.390625,0.65625,0.078125
290,290,1727218043065,-0.8977051,-0.09893799,-0.45269775,0.265625,0.828125,0.03125
291,291,1727218043105,-0.8947754,-0.08868408,-0.45367432,0.25,0.71875,-0.0625
292,292,1727218043145,-0.89624023,-0.097473145,-0.46173096,0.25,0.578125,0.109375
293,293,1727218043185,-0.8979492,-0.09820557,-0.45196533,0.0625,0.6875,-0.046875
294,294,1727218043225,-0.8967285,-0.09918213,-0.45196533,0.078125,0.734375,0.03125
295,295,1727218043265,-0.89160156,-0.097229004,-0.45635986,0.046875,0.671875,0.078125
296,296,1727218043305,-0.89819336,-0.0947876,-0.458313,-0.421875,1.03125,0.09375
297,297,1727218043345,-0.89086914,-0.094055176,-0.45343018,0.25,0.8125,-0.15625
298,298,1727218043385,-0.89331055,-0.101379395,-0.45074463,-0.703125,0.84375,-0.390625
299,299,1727218043425,-0.9016113,-0.09918213,-0.456604,-0.03125,0.9375,-0.125
300,300,1727218043465,-0.89404297,-0.09820557,-0.45318604,0.078125,0.21875,-0.140625
301,301,1727218043505,-0.91381836,-0.09698486,-0.4517212,0.03125,0.65625,-0.046875
302,302,1727218043545,-0.9008789,-0.09576416,-0.4492798,0.21875,0.859375,-0.21875
303,303,1727218043585,-0.9003906,-0.09283447,-0.4487915,-0.171875,0.5625,0.015625
304,304,1727218043625,-0.89624023,-0.097717285,-0.4524536,0.109375,0.515625,0.09375
305,305,1727218043665,-0.9055176,-0.097961426,-0.44854736,0.671875,0.0,0.28125
306,306,1727218043705,-0.8984375,-0.089660645,-0.45758057,-0.296875,0.96875,-0.25
307,307,1727218043745,-0.89746094,-0.089904785,-0.44659424,0.359375,1.125,-0.109375
308,308,1727218043785,-0.9016113,-0.09527588,-0.45343018,-0.234375,0.171875,-0.25
309,309,1727218043825,-0.90600586,-0.09234619,-0.4492798,-0.1875,0.71875,0.0
310,310,1727218043865,-0.89941406,-0.097717285,-0.44732666,-0.234375,0.5,0.03125
311,311,1727218043905,-0.9042969,-0.09503174,-0.4446411,-0.1875,0.78125,-0.171875
312,312,1727218043945,-0.9030762,-0.0960083,-0.4492798,-0.359375,0.46875,0.03125
313,313,1727218043985,-0.90112305,-0.09259033,-0.4517212,-0.078125,0.6875,-0.203125
314,314,1727218044025,-0.9038086,-0.089904785,-0.4475708,0.078125,0.46875,-0.171875
315,315,1727218044065,-0.9016113,-0.09307861,-0.44244385,-0.265625,0.640625,-0.0625
316,316,1727218044105,-0.9003906,-0.097473145,-0.45025635,0.234375,0.5,-0.25
317,317,1727218044145,-0.9001465,-0.09112549,-0.4500122,-0.140625,0.375,-0.078125
318,318,1727218044185,-0.9069824,-0.09576416,-0.44439697,-0.234375,0.59375,-0.1875
319,319,1727218044225,-0.9020996,-0.089660645,-0.45074463,-0.140625,0.546875,-0.015625
320,320,1727218044265,-0.907959,-0.09527588,-0.4492798,-0.203125,0.515625,0.0625
321,321,1727218044305,-0.9001465,-0.09234619,-0.44830322,-0.359375,0.828125,0.046875
322,322,1727218044345,-0.9038086,-0.09283447,-0.44610596,-0.0625,0.46875,-0.109375
323,323,1727218044385,-0.8972168,-0.08721924,-0.44830322,-0.890625,0.59375,-0.28125
324,324,1727218044425,-0.9108887,-0.09454346,-0.44488525,-0.140625,1.0625,-0.09375
325,325,1727218044465,-0.9057617,-0.09527588,-0.44708252,0.0625,0.015625,-0.046875
326,326,1727218044505,-0.90844727,-0.09429932,-0.44366455,-0.28125,1.078125,-0.015625
327,327,1727218044545,-0.9013672,-0.08453369,-0.44732666,0.0625,0.921875,-0.1875
328,328,1727218044585,-0.90625,-0.097961426,-0.4446411,-0.109375,0.46875,0.078125
329,329,1727218044625,-0.90405273,-0.09893799,-0.44683838,-0.046875,0.484375,-0.125
330,330,1727218044665,-0.90649414,-0.090148926,-0.44659424,0.40625,0.171875,0.0625
331,331,1727218044705,-0.90185547,-0.09893799,-0.4517212,-0.4375,0.453125,-0.125
332,332,1727218044745,-0.89624023,-0.094055176,-0.43756104,0.171875,1.140625,-0.234375
333,333,1727218044785,-0.904541,-0.09625244,-0.4434204,-0.34375,-0.171875,-0.15625
334,334,1727218044825,-0.9099121,-0.09234619,-0.44293213,-0.0625,0.1875,0.0
335,335,1727218044865,-0.90112305,-0.08892822,-0.44537354,-0.140625,-0.046875,-0.078125
336,336,1727218044905,-0.90185547,-0.093322754,-0.44561768,-0.21875,0.578125,-0.1875
337,337,1727218044945,-0.9050293,-0.09503174,-0.44830322,-0.21875,0.484375,-0.109375
338,338,1727218044985,-0.9074707,-0.090148926,-0.44415283,-0.296875,0.5,-0.265625
339,339,1727218045025,-0.9069824,-0.09210205,-0.4451294,-0.25,0.25,-0.28125
340,340,1727218045065,-0.9025879,-0.089904785,-0.44488525,-0.40625,0.40625,-0.296875
341,341,1727218045105,-0.90844727,-0.09185791,-0.43780518,-0.421875,0.203125,-0.21875
342,342,1727218045145,-0.90625,-0.09088135,-0.43951416,-0.34375,0.046875,-0.25
343,343,1727218045185,-0.90625,-0.097717285,-0.4421997,-0.515625,0.109375,-0.234375
344,344,1727218045225,-0.907959,-0.08868408,-0.44586182,-0.609375,-0.203125,-0.046875
345,345,1727218045265,-0.9038086,-0.093566895,-0.44024658,0.125,0.0,-0.265625
346,346,1727218045305,-0.9094238,-0.101379395,-0.4512329,-0.765625,0.03125,-0.15625
347,347,1727218045345,-0.9003906,-0.08770752,-0.44122314,-0.546875,-0.09375,-0.5
348,348,1727218045385,-0.9067383,-0.101867676,-0.45806885,-1.1875,0.359375,-0.390625
349,349,1727218045425,-0.90966797,-0.09063721,-0.4258423,0.34375,0.453125,-0.3125
350,350,1727218045465,-0.90405273,-0.09088135,-0.44976807,-0.8125,0.046875,-0.5
351,351,1727218045505,-0.8937988,-0.08526611,-0.4475708,-0.71875,-0.21875,-0.1875
352,352,1727218045545,-0.90527344,-0.089904785,-0.44244385,-0.703125,0.296875,-0.234375
353,353,1727218045585,-0.904541,-0.097717285,-0.44781494,-0.890625,0.078125,-0.421875
354,354,1727218045625,-0.89575195,-0.09820557,-0.44049072,-0.71875,0.046875,-0.28125
355,355,1727218045665,-0.9033203,-0.093566895,-0.440979,0.25,0.609375,-0.265625
356,356,1727218045705,-0.9001465,-0.093322754,-0.4553833,-0.1875,0.140625,0.0
357,357,1727218045745,-0.904541,-0.09698486,-0.44317627,-0.1875,0.421875,-0.09375
358,358,1727218045785,-0.8991699,-0.09259033,-0.45025635,-0.53125,-0.265625,-0.21875
359,359,1727218045825,-0.91015625,-0.09234619,-0.440979,-0.203125,-0.53125,0.03125
360,360,1727218045865,-0.9016113,-0.09454346,-0.45098877,-0.75,-0.015625,-0.375
361,361,1727218045905,-0.9111328,-0.09503174,-0.44854736,-0.671875,0.3125,-0.234375
362,362,1727218045945,-0.8984375,-0.0960083,-0.4487915,-0.53125,-0.046875,-0.3125
363,363,1727218045985,-0.9091797,-0.09185791,-0.44708252,-0.6875,-0.203125,-0.109375
364,364,1727218046025,-0.90625,-0.09234619,-0.44683838,-0.875,-0.046875,-0.21875
365,365,1727218046065,-0.90527344,-0.0947876,-0.4524536,-0.59375,-0.5625,-0.390625
366,366,1727218046105,-0.8996582,-0.09527588,-0.45440674,-0.96875,-0.375,-0.46875
367,367,1727218046145,-0.89868164,-0.09259033,-0.45025635,-1.0,-0.640625,-0.28125
368,368,1727218046185,-0.9030762,-0.09259033,-0.4451294,-0.46875,-0.578125,-0.25
369,369,1727218046225,-0.8984375,-0.09576416,-0.45343018,-0.765625,-0.25,-0.125
370,370,1727218046265,-0.8977051,-0.09552002,-0.4590454,-1.515625,0.265625,-0.40625
371,371,1727218046305,-0.89331055,-0.08331299,-0.44854736,-0.34375,-0.015625,-0.53125
372,372,1727218046345,-0.8972168,-0.09893799,-0.45098877,-0.796875,0.3125,-0.328125
373,373,1727218046385,-0.90649414,-0.089416504,-0.46099854,-0.78125,0.015625,-0.1875
374,374,1727218046425,-0.8967285,-0.09576416,-0.45562744,-0.578125,-0.578125,-0.171875
375,375,1727218046465,-0.8964844,-0.08721924,-0.45196533,-0.625,0.265625,-0.15625
376,376,1727218046505,-0.89208984,-0.09893799,-0.45440674,-0.703125,0.125,-0.484375
377,377,1727218046545,-0.8989258,-0.09429932,-0.46124268,-0.921875,-0.375,-0.3125
378,378,1727218046585,-0.8959961,-0.093566895,-0.4492798,-0.328125,-0.078125,-0.15625
379,379,1727218046625,-0.89624023,-0.08795166,-0.47027588,-0.859375,-0.1875,0.15625
380,380,1727218046665,-0.8972168,-0.1026001,-0.45391846,-0.078125,-0.375,0.046875
381,381,1727218046705,-0.8876953,-0.09625244,-0.46343994,-0.359375,-0.296875,-0.015625
382,382,1727218046745,-0.89990234,-0.09161377,-0.45489502,0.09375,-0.375,-0.125
383,383,1727218046785,-0.89282227,-0.09942627,-0.46661377,-0.0625,0.03125,0.0
384,384,1727218046825,-0.8935547,-0.10430908,-0.46002197,-0.046875,0.671875,0.109375
385,385,1727218046865,-0.8930664,-0.101135254,-0.46148682,-0.109375,0.5,0.03125
386,386,1727218046905,-0.89575195,-0.097473145,-0.46246338,0.1875,0.46875,0.0
387,387,1727218046945,-0.8952637,-0.10308838,-0.45635986,0.09375,0.453125,-0.015625
388,388,1727218046985,-0.8935547,-0.09649658,-0.46588135,0.4375,0.390625,0.09375
389,389,1727218047025,-0.89331055,-0.09918213,-0.4644165,0.703125,0.40625,0.1875
390,390,1727218047065,-0.892334,-0.09649658,-0.4631958,0.625,0.359375,0.125
391,391,1727218047105,-0.8952637,-0.09625244,-0.45318604,0.859375,0.46875,0.359375
392,392,1727218047145,-0.8977051,-0.10601807,-0.46636963,0.40625,0.8125,0.21875
393,393,1727218047185,-0.8886719,-0.09307861,-0.45513916,0.734375,0.625,-0.03125
394,394,1727218047225,-0.89453125,-0.10211182,-0.46539307,-0.28125,1.21875,-0.203125
395,395,1727218047265,-0.8937988,-0.09674072,-0.4446411,0.71875,1.34375,-0.046875
396,396,1727218047305,-0.89208984,-0.09210205,-0.45611572,0.109375,1.125,-0.171875
397,397,1727218047345,-0.89868164,-0.09454346,-0.4595337,0.171875,0.328125,0.140625
398,398,1727218047385,-0.90405273,-0.09112549,-0.45635986,0.109375,1.203125,0.03125
399,399,1727218047425,-0.89575195,-0.09649658,-0.46051025,0.296875,0.828125,-0.0625
400,400,1727218047465,-0.89404297,-0.10479736,-0.45806885,0.234375,0.90625,0.015625
401,401,1727218047505,-0.89990234,-0.09698486,-0.44561768,0.84375,0.953125,0.0
402,402,1727218047545,-0.9038086,-0.09625244,-0.45465088,-0.015625,0.640625,0.03125
403,403,1727218047585,-0.90234375,-0.090148926,-0.44708252,0.375,1.015625,-0.1875
404,404,1727218047625,-0.90405273,-0.09552002,-0.45318604,0.125,0.421875,0.046875
405,405,1727218047665,-0.8996582,-0.09552002,-0.45196533,0.3125,0.140625,0.0625
406,406,1727218047705,-0.89746094,-0.10040283,-0.45733643,-0.046875,0.625,-0.25
407,407,1727218047745,-0.89282227,-0.10015869,-0.4446411,0.125,0.875,0.078125
408,408,1727218047785,-0.9003906,-0.09552002,-0.4505005,-0.078125,0.46875,-0.046875
409,409,1727218047825,-0.9042969,-0.09649658,-0.45391846,-0.109375,0.34375,-0.03125
410,410,1727218047865,-0.8967285,-0.09112549,-0.45367432,-0.140625,0.5,-0.015625
411,411,1727218047905,-0.89746094,-0.097229004,-0.4505005,0.046875,0.6875,-0.078125
412,412,1727218047945,-0.9042969,-0.09503174,-0.4505005,-0.1875,0.625,-0.0625
413,413,1727218047985,-0.90185547,-0.09259033,-0.4512329,-0.03125,0.484375,-0.125
414,414,1727218048025,-0.89697266,-0.094055176,-0.45196533,-0.203125,0.5,-0.0625
415,415,1727218048065,-0.9050293,-0.09185791,-0.45440674,-0.234375,0.359375,-0.09375
416,416,1727218048105,-0.9033203,-0.101623535,-0.44854736,0.015625,0.53125,-0.140625
417,417,1727218048145,-0.9057617,-0.09698486,-0.44781494,-0.421875,0.71875,-0.03125
418,418,1727218048185,-0.90112305,-0.08526611,-0.43878174,0.0,0.328125,-0.0625
419,419,1727218048225,-0.8937988,-0.093566895,-0.45758057,-1.1875,0.734375,-0.34375
420,420,1727218048265,-0.9033203,-0.0960083,-0.44366455,0.34375,1.03125,-0.109375
421,421,1727218048305,-0.8918457,-0.08502197,-0.45318604,0.265625,0.34375,-0.3125
422,422,1727218048345,-0.91064453,-0.09161377,-0.4492798,-0.140625,0.6875,-0.078125
423,423,1727218048385,-0.89624023,-0.09527588,-0.4487915,0.0,0.796875,-0.078125
424,424,1727218048425,-0.8991699,-0.09527588,-0.4517212,-0.1875,0.625,0.125
425,425,1727218048465,-0.90771484,-0.08868408,-0.44732666,-0.203125,0.578125,-0.015625
426,426,1727218048505,-0.9025879,-0.093566895,-0.45343018,0.296875,0.578125,-0.171875
427,427,1727218048545,-0.8959961,-0.08892822,-0.45489502,-0.46875,0.984375,-0.28125
428,428,1727218048585,-0.8972168,-0.09136963,-0.4397583,0.328125,1.171875,-0.328125
429,429,1727218048625,-0.90625,-0.09088135,-0.44415283,-0.1875,0.0,-0.21875
430,430,1727218048665,-0.9025879,-0.09234619,-0.44195557,0.1875,0.109375,-0.015625
431,431,1727218048705,-0.9001465,-0.094055176,-0.45343018,-0.265625,0.453125,-0.171875
432,432,1727218048745,-0.9067383,-0.09136963,-0.44439697,-0.140625,0.796875,-0.140625
433,433,1727218048785,-0.90405273,-0.09185791,-0.4446411,-0.234375,0.109375,-0.078125
434,434,1727218048825,-0.90234375,-0.0947876,-0.44781494,-0.28125,0.28125,-0.171875
435,435,1727218048865,-0.90283203,-0.09234619,-0.44732666,-0.21875,0.40625,-0.15625
436,436,1727218048905,-0.90527344,-0.08526611,-0.44732666,-0.40625,0.265625,-0.15625
437,437,1727218048945,-0.8991699,-0.094055176,-0.44659424,-0.4375,0.140625,-0.234375
438,438,1727218048985,-0.9020996,-0.093566895,-0.44659424,-0.359375,0.03125,-0.21875
439,439,1727218049025,-0.90063477,-0.093811035,-0.44903564,-0.515625,0.140625,-0.03125
440,440,1727218049065,-0.90283203,-0.09161377,-0.4512329,-0.5625,0.015625,-0.109375
441,441,1727218049105,-0.90405273,-0.09552002,-0.4492798,-0.40625,-0.03125,-0.125
442,442,1727218049145,-0.90649414,-0.09576416,-0.44781494,-1.046875,0.015625,-0.078125
443,443,1727218049185,-0.90112305,-0.08746338,-0.4397583,-0.390625,-0.203125,-0.328125
444,444,1727218049225,-0.9020996,-0.09967041,-0.4500122,-1.328125,0.21875,-0.359375
445,445,1727218049265,-0.90771484,-0.093811035,-0.44244385,0.0,0.40625,-0.34375
446,446,1727218049305,-0.89501953,-0.09576416,-0.45269775,-0.75,-0.3125,-0.53125
447,447,1727218049345,-0.90527344,-0.093811035,-0.44781494,-0.5,0.203125,-0.296875
448,448,1727218049385,-0.8972168,-0.08428955,-0.44561768,-0.703125,0.125,-0.1875
449,449,1727218049425,-0.90478516,-0.09234619,-0.44952393,-0.875,-0.203125,-0.375
450,450,1727218049465,-0.89868164,-0.09625244,-0.45025635,-0.625,-0.515625,-0.234375
451,451,1727218049505,-0.89746094,-0.097961426,-0.45562744,-0.296875,-0.828125,-0.375
452,452,1727218049545,-0.8989258,-0.09674072,-0.46417236,-0.515625,-0.359375,-0.265625
453,453,1727218049585,-0.8967285,-0.08892822,-0.4505005,0.125,0.265625,-0.34375
454,454,1727218049625,-0.89575195,-0.097229004,-0.45611572,-0.84375,-0.703125,-0.1875
455,455,1727218049665,-0.89941406,-0.09039307,-0.44976807,-0.3125,-0.421875,-0.203125
456,456,1727218049705,-0.8942871,-0.094055176,-0.45928955,-0.703125,-0.390625,-0.21875
457,457,1727218049745,-0.8979492,-0.10089111,-0.45513916,-0.6875,0.03125,-0.203125
458,458,1727218049785,-0.8996582,-0.09161377,-0.45367432,-0.953125,-0.59375,-0.296875
459,459,1727218049825,-0.89404297,-0.09039307,-0.45367432,-0.703125,-0.984375,-0.046875
460,460,1727218049865,-0.8967285,-0.09283447,-0.46246338,-0.734375,-0.890625,-0.40625
461,461,1727218049905,-0.89868164,-0.09967041,-0.4649048,-1.203125,-0.953125,-0.484375
462,462,1727218049945,-0.8930664,-0.09454346,-0.46392822,-1.078125,-0.96875,-0.265625
463,463,1727218049985,-0.88964844,-0.09161377,-0.45562744,-0.484375,-0.6875,-0.234375
464,464,1727218050025,-0.89282227,-0.09967041,-0.4710083,-1.046875,-0.296875,-0.1875
465,465,1727218050065,-0.8857422,-0.09527588,-0.4656372,-0.75,-0.390625,-0.671875
466,466,1727218050105,-0.8942871,-0.10333252,-0.47418213,-0.984375,0.03125,-0.4375
467,467,1727218050145,-0.8967285,-0.08843994,-0.4446411,0.125,0.484375,-0.296875
468,468,1727218050185,-0.8947754,-0.101379395,-0.4734497,-0.9375,0.171875,-0.203125
469,469,1727218050225,-0.8876953,-0.09136963,-0.4668579,-0.609375,-0.046875,0.03125
470,470,1727218050265,-0.88964844,-0.09552002,-0.46783447,-0.640625,0.03125,-0.0625
471,471,1727218050305,-0.89086914,-0.10089111,-0.46514893,-0.796875,-0.15625,-0.296875
472,472,1727218050345,-0.8937988,-0.09307861,-0.4685669,-0.96875,-0.34375,-0.3125
473,473,1727218050385,-0.8874512,-0.10040283,-0.4570923,0.203125,0.0,-0.28125
474,474,1727218050425,-0.888916,-0.09552002,-0.46368408,-0.6875,-0.546875,-0.0625
475,475,1727218050465,-0.8833008,-0.09625244,-0.47027588,-0.921875,-0.25,-0.375
476,476,1727218050505,-0.8781738,-0.105285645,-0.47052002,-0.96875,-1.28125,-0.28125
477,477,1727218050545,-0.88549805,-0.09698486,-0.46783447,-0.671875,-1.015625,-0.203125
478,478,1727218050585,-0.88549805,-0.0960083,-0.4883423,-1.40625,-1.109375,-0.25
479,479,1727218050625,-0.8828125,-0.097717285,-0.47296143,-0.875,-0.578125,-0.359375
480,480,1727218050665,-0.88256836,-0.10406494,-0.47906494,-1.1875,-0.546875,-0.3125
481,481,1727218050705,-0.8847656,-0.101135254,-0.47930908,-0.3125,-0.609375,-0.1875
482,482,1727218050745,-0.89086914,-0.09967041,-0.48223877,-0.453125,-0.203125,-0.015625
483,483,1727218050785,-0.88183594,-0.10235596,-0.4824829,-0.25,-0.171875,0.015625
484,484,1727218050825,-0.8845215,-0.09429932,-0.48028564,-0.40625,-0.0625,0.078125
485,485,1727218050865,-0.8757324,-0.097229004,-0.47149658,0.203125,-0.046875,0.0
486,486,1727218050905,-0.8847656,-0.105529785,-0.47442627,0.046875,0.265625,0.078125
487,487,1727218050945,-0.87280273,-0.101867676,-0.47930908,-0.75,0.703125,-0.390625
488,488,1727218050985,-0.8852539,-0.09552002,-0.4812622,0.09375,0.703125,-0.359375
489,489,1727218051025,-0.8815918,-0.10064697,-0.4661255,-0.03125,1.171875,-0.03125
490,490,1727218051065,-0.8779297,-0.10089111,-0.48760986,-0.78125,0.671875,-0.140625
491,491,1727218051105,-0.88012695,-0.101623535,-0.48345947,0.296875,0.375,0.203125
492,492,1727218051145,-0.88720703,-0.09527588,-0.48077393,0.125,1.109375,0.15625
493,493,1727218051185,-0.8820801,-0.101379395,-0.48028564,0.5625,0.359375,0.015625
494,494,1727218051225,-0.8886719,-0.09552002,-0.4751587,0.578125,0.765625,0.03125
495,495,1727218051265,-0.8833008,-0.09576416,-0.4673462,1.65625,0.765625,0.421875
496,496,1727218051305,-0.8876953,-0.097961426,-0.48590088,0.734375,0.46875,0.765625
497,497,1727218051345,-0.890625,-0.09991455,-0.4817505,0.59375,0.875,0.46875
498,498,1727218051385,-0.88427734,-0.101135254,-0.47833252,0.59375,0.765625,-0.03125
499,499,1727218051425,-0.88134766,-0.09307861,-0.4727173,0.96875,0.46875,0.109375
500,500,1727218051465,-0.8876953,-0.097473145,-0.4866333,0.265625,1.046875,0.03125
501,501,1727218051505,-0.8845215,-0.09893799,-0.472229,0.421875,1.375,-0.109375
502,502,1727218051545,-0.8852539,-0.09942627,-0.473938,0.4375,1.15625,-0.078125
503,503,1727218051585,-0.88378906,-0.09552002,-0.4758911,0.6875,1.25,0.125
504,504,1727218051625,-0.888916,-0.09063721,-0.47149658,0.265625,1.203125,0.0625
505,505,1727218051665,-0.8845215,-0.1026001,-0.47125244,0.515625,1.015625,0.0
506,506,1727218051705,-0.8828125,-0.09552002,-0.47662354,0.46875,1.140625,-0.03125
507,507,1727218051745,-0.888916,-0.09136963,-0.4697876,0.34375,1.09375,-0.015625
508,508,1727218051785,-0.892334,-0.09576416,-0.4685669,0.4375,1.359375,0.0625
509,509,1727218051825,-0.88549805,-0.10797119,-0.4776001,-0.4375,0.6875,0.015625
510,510,1727218051865,-0.89160156,-0.089416504,-0.4570923,0.6875,0.625,-0.03125
511,511,1727218051905,-0.88916016,-0.097961426,-0.47564697,-1.125,1.125,-0.078125
512,512,1727218051945,-0.8979492,-0.09698486,-0.45220947,0.515625,1.09375,-0.03125
513,513,1727218051985,-0.8911133,-0.09674072,-0.46343994,0.359375,0.671875,-0.21875
514,514,1727218052025,-0.89575195,-0.09161377,-0.4661255,0.203125,0.875,0.0625
515,515,1727218052065,-0.89404297,-0.09429932,-0.4680786,0.171875,1.015625,-0.078125
516,516,1727218052105,-0.8935547,-0.09283447,-0.46392822,0.0,0.65625,0.0
517,517,1727218052145,-0.89331055,-0.09112549,-0.45684814,0.015625,0.578125,0.125
518,518,1727218052185,-0.8942871,-0.093322754,-0.46246338,0.3125,0.765625,0.03125
519,519,1727218052225,-0.88916016,-0.09063721,-0.46588135,-0.171875,0.90625,-0.046875
520,520,1727218052265,-0.8881836,-0.085754395,-0.4602661,0.296875,1.140625,-0.234375
521,521,1727218052305,-0.8918457,-0.09625244,-0.46246338,-0.1875,0.46875,-0.265625
522,522,1727218052345,-0.9003906,-0.09039307,-0.4524536,0.34375,0.203125,0.015625
523,523,1727218052385,-0.8977051,-0.08892822,-0.472229,-0.109375,0.65625,-0.296875
524,524,1727218052425,-0.9001465,-0.09454346,-0.4644165,-0.171875,0.875,0.078125
525,525,1727218052465,-0.89819336,-0.09625244,-0.46148682,0.125,0.625,-0.125
526,526,1727218052505,-0.89941406,-0.09136963,-0.46221924,-0.140625,0.625,0.0
527,527,1727218052545,-0.8952637,-0.0947876,-0.45880127,0.078125,0.9375,-0.09375
528,528,1727218052585,-0.89575195,-0.090148926,-0.46392822,0.015625,0.671875,-0.171875
529,529,1727218052625,-0.8977051,-0.09210205,-0.4590454,0.0625,0.75,-0.109375
530,530,1727218052665,-0.8964844,-0.08770752,-0.4607544,-0.15625,0.65625,-0.09375
531,531,1727218052705,-0.8972168,-0.09185791,-0.4570923,-0.203125,0.5625,-0.015625
532,532,1727218052745,-0.8989258,-0.09283447,-0.45147705,0.25,0.515625,-0.15625
533,533,1727218052785,-0.8930664,-0.089660645,-0.46148682,-0.28125,0.703125,-0.125
534,534,1727218052825,-0.8911133,-0.09429932,-0.458313,-0.203125,0.296875,-0.28125
535,535,1727218052865,-0.8979492,-0.09112549,-0.4661255,-0.640625,0.75,-0.3125
536,536,1727218052905,-0.9055176,-0.093566895,-0.44659424,0.234375,0.703125,-0.3125
537,537,1727218052945,-0.89624023,-0.09283447,-0.45806885,-0.328125,0.828125,-0.359375
538,538,1727218052985,-0.8911133,-0.090148926,-0.45635986,-0.21875,0.234375,-0.078125
539,539,1727218053025,-0.8979492,-0.09503174,-0.45513916,-0.125,0.953125,-0.046875
540,540,1727218053065,-0.8959961,-0.09185791,-0.45269775,-0.046875,0.59375,-0.03125
541,541,1727218053105,-0.90600586,-0.09576416,-0.45074463,-0.203125,0.59375,-0.078125
542,542,1727218053145,-0.8989258,-0.089660645,-0.4463501,0.1875,0.484375,-0.015625
543,543,1727218053185,-0.8964844,-0.09429932,-0.45562744,0.0625,0.515625,-0.078125
544,544,1727218053225,-0.9033203,-0.085754395,-0.4475708,-0.171875,0.578125,-0.03125
545,545,1727218053265,-0.8979492,-0.09576416,-0.4524536,0.171875,0.328125,-0.28125
546,546,1727218053305,-0.9086914,-0.08721924,-0.4517212,-0.3125,-0.09375,0.0625
547,547,1727218053345,-0.89868164,-0.09185791,-0.45880127,-0.359375,0.75,-0.203125
548,548,1727218053385,-0.89990234,-0.085754395,-0.45098877,-0.296875,0.40625,-0.03125
549,549,1727218053425,-0.9001465,-0.09088135,-0.45269775,-0.5625,0.375,-0.140625
550,550,1727218053465,-0.9013672,-0.09136963,-0.45147705,-0.296875,0.09375,0.0
551,551,1727218053505,-0.8991699,-0.08892822,-0.4500122,-0.328125,0.1875,-0.296875
552,552,1727218053545,-0.89697266,-0.09112549,-0.45880127,-0.453125,0.140625,-0.234375
553,553,1727218053585,-0.8977051,-0.09283447,-0.45074463,-0.4375,0.28125,-0.296875
554,554,1727218053625,-0.90844727,-0.089904785,-0.45391846,-0.46875,0.125,-0.25
555,555,1727218053665,-0.90063477,-0.089416504,-0.45440674,-0.4375,0.03125,-0.203125
556,556,1727218053705,-0.9003906,-0.08917236,-0.4541626,-0.71875,0.0625,-0.15625
557,557,1727218053745,-0.90185547,-0.08892822,-0.4505005,-0.359375,-0.03125,-0.140625
558,558,1727218053785,-0.89941406,-0.09088135,-0.44366455,-1.03125,-0.078125,-0.265625
559,559,1727218053825,-0.89624023,-0.09136963,-0.4578247,-0.890625,-0.375,-0.4375
560,560,1727218053865,-0.89697266,-0.09649658,-0.46221924,-1.65625,-0.15625,-0.328125
561,561,1727218053905,-0.9094238,-0.09210205,-0.4524536,-0.546875,-0.265625,-0.28125
562,562,1727218053945,-0.8894043,-0.09259033,-0.46051025,-0.96875,-1.0625,-0.328125
563,563,1727218053985,-0.90356445,-0.089660645,-0.45440674,-0.859375,-0.09375,-0.203125
564,564,1727218054025,-0.8918457,-0.09234619,-0.46002197,-0.953125,-0.046875,-0.1875
565,565,1727218054065,-0.9003906,-0.09649658,-0.45587158,-0.640625,-0.484375,-0.1875
566,566,1727218054105,-0.90185547,-0.09283447,-0.4607544,-0.5625,-0.5,-0.21875
567,567,1727218054145,-0.90063477,-0.09454346,-0.4656372,-0.328125,-0.65625,-0.0625
568,568,1727218054185,-0.88842773,-0.09454346,-0.46832275,-0.578125,-0.046875,-0.03125
569,569,1727218054225,-0.89697266,-0.09088135,-0.45343018,0.0625,0.578125,-0.3125
570,570,1727218054265,-0.89501953,-0.09161377,-0.47198486,-0.765625,-0.984375,-0.25
571,571,1727218054305,-0.8964844,-0.09503174,-0.46466064,-0.59375,-0.3125,-0.125
572,572,1727218054345,-0.89575195,-0.09185791,-0.46295166,-0.75,-0.390625,-0.34375
573,573,1727218054385,-0.890625,-0.093811035,-0.4668579,-0.859375,-0.03125,-0.203125
574,574,1727218054425,-0.8918457,-0.09185791,-0.46783447,-0.734375,-0.140625,-0.34375
575,575,1727218054465,-0.89404297,-0.09454346,-0.46636963,-0.609375,-0.078125,-0.078125
576,576,1727218054505,-0.888916,-0.093811035,-0.47027588,-0.546875,-0.4375,-0.296875
577,577,1727218054545,-0.88793945,-0.09112549,-0.46954346,0.09375,-0.875,-0.109375
578,578,1727218054585,-0.8942871,-0.09039307,-0.46539307,-0.140625,-0.140625,-0.140625
579,579,1727218054625,-0.890625,-0.09918213,-0.46661377,-0.71875,-0.34375,-0.140625
580,580,1727218054665,-0.892334,-0.097473145,-0.4680786,-0.421875,-0.34375,-0.078125
581,581,1727218054705,-0.88549805,-0.10089111,-0.4817505,-0.84375,-0.203125,-0.15625
582,582,1727218054745,-0.8815918,-0.09039307,-0.4668579,-0.890625,-0.078125,-0.59375
583,583,1727218054785,-0.8859863,-0.10284424,-0.48321533,-0.765625,-0.375,-0.328125
584,584,1727218054825,-0.88378906,-0.09991455,-0.45513916,0.171875,0.0625,-0.21875
585,585,1727218054865,-0.88916016,-0.09698486,-0.4758911,-0.96875,-0.390625,-0.421875
586,586,1727218054905,-0.8847656,-0.09942627,-0.4758911,-0.640625,-0.609375,0.0
587,587,1727218054945,-0.8835449,-0.101135254,-0.47833252,-0.859375,-0.046875,-0.140625
588,588,1727218054985,-0.88623047,-0.101867676,-0.4800415,-0.796875,-0.1875,-0.375
589,589,1727218055025,-0.88720703,-0.105285645,-0.48101807,-0.796875,-0.109375,-0.234375
590,590,1727218055065,-0.8847656,-0.09576416,-0.46783447,0.109375,-0.078125,-0.078125
591,591,1727218055105,-0.87890625,-0.09283447,-0.47735596,-0.453125,-0.28125,0.0625
592,592,1727218055145,-0.88964844,-0.089904785,-0.48199463,-0.375,0.125,0.109375
593,593,1727218055185,-0.87768555,-0.10870361,-0.4829712,-0.46875,-0.625,-0.0625
594,594,1727218055225,-0.8811035,-0.101135254,-0.47052002,0.03125,-0.28125,-0.046875
595,595,1727218055265,-0.873291,-0.1038208,-0.49224854,-0.53125,-0.09375,-0.109375
596,596,1727218055305,-0.8803711,-0.09869385,-0.47711182,-0.234375,0.484375,0.015625
597,597,1727218055345,-0.8835449,-0.09991455,-0.48516846,-0.03125,0.421875,-0.03125
598,598,1727218055385,-0.88500977,-0.09503174,-0.48565674,0.0625,0.375,0.125
599,599,1727218055425,-0.8762207,-0.10040283,-0.4837036,0.046875,0.328125,0.015625
600,600,1727218055465,-0.88671875,-0.101379395,-0.48150635,-0.140625,0.265625,0.21875
601,601,1727218055505,-0.8791504,-0.101623535,-0.4824829,-0.109375,0.171875,0.125
602,602,1727218055545,-0.88012695,-0.101379395,-0.48150635,0.15625,0.46875,0.140625
603,603,1727218055585,-0.87939453,-0.10235596,-0.4800415,0.15625,0.109375,0.03125
604,604,1727218055625,-0.88256836,-0.09259033,-0.48492432,0.53125,0.375,0.265625
605,605,1727218055665,-0.8852539,-0.09967041,-0.48590088,-0.125,1.09375,0.1875
606,606,1727218055705,-0.87768555,-0.09844971,-0.47979736,0.5,0.84375,-0.03125
607,607,1727218055745,-0.87890625,-0.101623535,-0.47906494,0.0,1.1875,0.0
608,608,1727218055785,-0.8942871,-0.097229004,-0.48516846,0.203125,1.046875,-0.03125
609,609,1727218055825,-0.8828125,-0.09844971,-0.47686768,0.125,0.546875,-0.15625
610,610,1727218055865,-0.8840332,-0.093811035,-0.4788208,0.21875,1.359375,-0.125
611,611,1727218055905,-0.8779297,-0.10284424,-0.47711182,0.0625,0.9375,-0.234375
612,612,1727218055945,-0.88793945,-0.09918213,-0.47491455,0.046875,0.640625,-0.21875
613,613,1727218055985,-0.8894043,-0.097717285,-0.47564697,0.40625,0.921875,0.0625
614,614,1727218056025,-0.88500977,-0.10089111,-0.47857666,0.8125,0.5,0.28125
615,615,1727218056065,-0.8820801,-0.09039307,-0.4812622,-0.078125,1.046875,-0.109375
616,616,1727218056105,-0.8833008,-0.093566895,-0.47296143,0.5,1.4375,-0.28125
617,617,1727218056145,-0.890625,-0.10040283,-0.4763794,-0.15625,0.34375,-0.125
618,618,1727218056185,-0.89038086,-0.09185791,-0.47027588,0.15625,1.25,-0.046875
619,619,1727218056225,-0.8808594,-0.09844971,-0.47149658,-0.234375,0.46875,-0.109375
620,620,1727218056265,-0.89331055,-0.089660645,-0.47491455,-0.09375,0.578125,-0.234375
621,621,1727218056305,-0.8955078,-0.09527588,-0.473938,-0.15625,0.578125,-0.171875
622,622,1727218056345,-0.8779297,-0.09552002,-0.4758911,-0.09375,0.53125,-0.234375
623,623,1727218056385,-0.888916,-0.09283447,-0.46954346,0.203125,0.203125,-0.171875
624,624,1727218056425,-0.8886719,-0.10040283,-0.4751587,0.171875,0.5625,-0.140625
625,625,1727218056465,-0.8911133,-0.09552002,-0.4727173,0.0,0.625,-0.15625
626,626,1727218056505,-0.8828125,-0.09893799,-0.47491455,-0.03125,0.578125,-0.234375
627,627,1727218056545,-0.8886719,-0.09063721,-0.473938,-0.25,0.75,-0.109375
628,628,1727218056585,-0.8913574,-0.097229004,-0.46881104,0.21875,0.953125,0.03125
629,629,1727218056625,-0.89208984,-0.1038208,-0.47857666,-0.375,0.875,-0.0625
630,630,1727218056665,-0.8894043,-0.089660645,-0.46392822,0.3125,0.09375,-0.296875
631,631,1727218056705,-0.8967285,-0.10015869,-0.48443604,-0.96875,0.703125,-0.453125
632,632,1727218056745,-0.8911133,-0.09259033,-0.458313,0.5,0.765625,-0.203125
633,633,1727218056785,-0.88720703,-0.10015869,-0.47247314,-0.375,0.265625,-0.21875
634,634,1727218056825,-0.89746094,-0.093811035,-0.4746704,-0.296875,0.28125,-0.09375
635,635,1727218056865,-0.8935547,-0.09698486,-0.47198486,0.015625,0.6875,-0.109375
636,636,1727218056905,-0.8930664,-0.09429932,-0.4656372,-0.390625,0.25,0.015625
637,637,1727218056945,-0.89086914,-0.097229004,-0.47198486,-0.125,0.421875,-0.1875
638,638,1727218056985,-0.8913574,-0.09063721,-0.46905518,0.375,0.484375,0.0
639,639,1727218057025,-0.8881836,-0.0960083,-0.46954346,-0.0625,0.109375,-0.125
640,640,1727218057065,-0.8864746,-0.09063721,-0.46124268,0.03125,0.75,-0.171875
641,641,1727218057105,-0.8874512,-0.09698486,-0.4734497,0.03125,0.109375,-0.125
642,642,1727218057145,-0.8881836,-0.09503174,-0.4631958,0.109375,-0.171875,0.03125
643,643,1727218057185,-0.8925781,-0.09527588,-0.47149658,-0.234375,0.609375,-0.3125
644,644,1727218057225,-0.8898926,-0.090148926,-0.46588135,-0.015625,0.78125,-0.046875
645,645,1727218057265,-0.8859863,-0.101135254,-0.4710083,-0.21875,0.359375,-0.21875
646,646,1727218057305,-0.8984375,-0.093322754,-0.4673462,-0.203125,0.484375,-0.09375
647,647,1727218057345,-0.8913574,-0.089416504,-0.47174072,-0.34375,0.890625,-0.25
648,648,1727218057385,-0.8876953,-0.097229004,-0.4734497,-0.046875,0.890625,-0.21875
649,649,1727218057425,-0.8886719,-0.097717285,-0.46661377,-0.140625,0.78125,-0.1875
650,650,1727218057465,-0.88964844,-0.08770752,-0.47027588,-0.25,0.34375,-0.140625
651,651,1727218057505,-0.8925781,-0.0960083,-0.46539307,-0.3125,0.0625,-0.015625
652,652,1727218057545,-0.8859863,-0.0960083,-0.46148682,0.0625,0.203125,-0.015625
653,653,1727218057585,-0.8913574,-0.09527588,-0.46759033,-0.0625,0.359375,-0.140625
654,654,1727218057625,-0.88500977,-0.09136963,-0.47442627,-0.59375,0.21875,-0.234375
655,655,1727218057665,-0.888916,-0.09210205,-0.46954346,-0.4375,0.40625,-0.25
656,656,1727218057705,-0.88916016,-0.093322754,-0.4602661,0.203125,0.921875,-0.109375
657,657,1727218057745,-0.8942871,-0.09942627,-0.46539307,-0.734375,0.953125,-0.0625
658,658,1727218057785,-0.88671875,-0.08868408,-0.46636963,-0.28125,0.140625,0.015625
659,659,1727218057825,-0.8925781,-0.0960083,-0.46759033,-0.25,0.953125,-0.140625
660,660,1727218057865,-0.89160156,-0.09039307,-0.46539307,-0.296875,0.515625,-0.234375
661,661,1727218057905,-0.89331055,-0.09112549,-0.46368408,-0.25,0.21875,-0.171875
662,662,1727218057945,-0.89624023,-0.08843994,-0.46246338,-0.03125,0.328125,-0.21875
663,663,1727218057985,-0.89282227,-0.09869385,-0.473938,-0.4375,-0.109375,0.109375
664,664,1727218058025,-0.89086914,-0.097717285,-0.46661377,-0.390625,0.015625,-0.140625
665,665,1727218058065,-0.89208984,-0.09820557,-0.4668579,-0.234375,0.015625,-0.1875
666,666,1727218058105,-0.8937988,-0.09088135,-0.46636963,-0.296875,-0.21875,-0.171875
667,667,1727218058145,-0.8942871,-0.09161377,-0.46392822,-0.46875,0.21875,-0.4375
668,668,1727218058185,-0.8935547,-0.093566895,-0.46783447,-0.5625,0.03125,-0.1875
669,669,1727218058225,-0.89208984,-0.09307861,-0.4668579,-0.828125,0.21875,-0.25
670,670,1727218058265,-0.88842773,-0.09967041,-0.4661255,-0.78125,-0.078125,-0.21875
671,671,1727218058305,-0.89331055,-0.09649658,-0.46710205,-0.75,0.328125,-0.3125
672,672,1727218058345,-0.890625,-0.09503174,-0.46783447,-0.765625,0.09375,-0.359375
673,673,1727218058385,-0.8874512,-0.097961426,-0.4685669,-0.5625,0.21875,-0.3125
674,674,1727218058425,-0.8952637,-0.10040283,-0.47174072,-0.671875,0.375,-0.375
675,675,1727218058465,-0.89160156,-0.09039307,-0.46881104,-0.40625,0.3125,-0.3125
676,676,1727218058505,-0.8876953,-0.101623535,-0.4668579,-0.28125,0.25,-0.265625
677,677,1727218058545,-0.8911133,-0.09869385,-0.47613525,-0.953125,0.15625,-0.375
678,678,1727218058585,-0.88793945,-0.08380127,-0.45977783,-0.4375,-0.21875,-0.515625
679,679,1727218058625,-0.890625,-0.1104126,-0.4734497,-1.421875,0.359375,-0.296875
680,680,1727218058665,-0.8901367,-0.09454346,-0.4517212,0.1875,0.546875,-0.328125
681,681,1727218058705,-0.8918457,-0.09576416,-0.47735596,-1.328125,0.40625,-0.484375
682,682,1727218058745,-0.88623047,-0.09210205,-0.46783447,-0.890625,0.03125,-0.234375
683,683,1727218058785,-0.8898926,-0.09112549,-0.46661377,-0.90625,0.625,-0.234375
684,684,1727218058825,-0.890625,-0.09674072,-0.46881104,-1.015625,-0.03125,-0.390625
685,685,1727218058865,-0.88916016,-0.10357666,-0.46905518,-0.71875,0.359375,-0.234375
686,686,1727218058905,-0.8894043,-0.09820557,-0.46466064,0.140625,0.28125,-0.1875
687,687,1727218058945,-0.88793945,-0.09234619,-0.47296143,-0.46875,0.5,-0.0625
688,688,1727218058985,-0.8918457,-0.097717285,-0.46759033,-0.15625,0.46875,-0.234375
689,689,1727218059025,-0.8886719,-0.10333252,-0.47662354,-0.625,-0.46875,-0.046875
690,690,1727218059065,-0.8937988,-0.09844971,-0.46392822,-0.53125,-0.203125,-0.296875
691,691,1727218059105,-0.8859863,-0.10357666,-0.4758911,-0.796875,-0.40625,-0.296875
692,692,1727218059145,-0.88720703,-0.097473145,-0.47076416,-0.875,0.234375,-0.3125
693,693,1727218059185,-0.88720703,-0.097229004,-0.47784424,-1.125,-0.1875,-0.5
694,694,1727218059225,-0.8857422,-0.10308838,-0.47296143,-0.6875,-0.078125,-0.296875
695,695,1727218059265,-0.89331055,-0.09527588,-0.47442627,-0.453125,-0.171875,-0.125
696,696,1727218059305,-0.8820801,-0.10601807,-0.47320557,-0.515625,-0.125,-0.171875
697,697,1727218059345,-0.88671875,-0.10064697,-0.4817505,-0.59375,-0.328125,-0.0625
698,698,1727218059385,-0.8901367,-0.101135254,-0.46295166,-0.078125,-0.046875,-0.078125
699,699,1727218059425,-0.88378906,-0.10284424,-0.47613525,-0.0625,0.203125,0.125
700,700,1727218059465,-0.8820801,-0.10040283,-0.4763794,-0.890625,0.296875,-0.203125
701,701,1727218059505,-0.88671875,-0.09576416,-0.46710205,-0.15625,0.25,-0.4375
702,702,1727218059545,-0.8828125,-0.09552002,-0.4758911,-0.765625,0.59375,-0.1875
703,703,1727218059585,-0.89282227,-0.09918213,-0.48272705,-0.671875,-0.03125,-0.265625
704,704,1727218059625,-0.8803711,-0.09820557,-0.4776001,-0.34375,-0.140625,0.046875
705,705,1727218059665,-0.8833008,-0.09967041,-0.47784424,-0.515625,0.390625,-0.1875
706,706,1727218059705,-0.88378906,-0.10235596,-0.47296143,-0.078125,0.46875,-0.140625
707,707,1727218059745,-0.8876953,-0.09649658,-0.47564697,-0.265625,0.296875,-0.03125
708,708,1727218059785,-0.8881836,-0.10040283,-0.46783447,0.234375,0.71875,-0.046875
709,709,1727218059825,-0.88549805,-0.101379395,-0.4902954,-0.203125,0.421875,0.28125
710,710,1727218059865,-0.8869629,-0.097717285,-0.47418213,0.21875,0.375,0.171875
711,711,1727218059905,-0.8811035,-0.10357666,-0.48199463,0.15625,0.265625,-0.015625
712,712,1727218059945,-0.8869629,-0.09942627,-0.472229,0.578125,0.03125,0.109375
713,713,1727218059985,-0.8852539,-0.09967041,-0.48321533,0.3125,0.78125,0.0625
714,714,1727218060025,-0.8869629,-0.093322754,-0.4734497,0.03125,0.6875,0.03125
715,715,1727218060065,-0.892334,-0.09283447,-0.46929932,0.046875,0.3125,-0.109375
716,716,1727218060105,-0.8833008,-0.0947876,-0.48394775,0.15625,0.46875,0.140625
717,717,1727218060145,-0.8864746,-0.09869385,-0.47442627,0.09375,0.375,0.015625
718,718,1727218060185,-0.88378906,-0.093811035,-0.47662354,0.125,0.4375,-0.078125
719,719,1727218060225,-0.8796387,-0.09649658,-0.47955322,0.265625,0.109375,0.03125
720,720,1727218060265,-0.88916016,-0.097717285,-0.47369385,0.46875,0.375,-0.078125
721,721,1727218060305,-0.8840332,-0.097473145,-0.4758911,0.40625,0.578125,0.1875
722,722,1727218060345,-0.8815918,-0.09698486,-0.48028564,0.0,0.8125,-0.09375
723,723,1727218060385,-0.88671875,-0.089904785,-0.47442627,0.65625,0.859375,-0.015625
724,724,1727218060425,-0.8823242,-0.10015869,-0.4661255,0.453125,0.9375,-0.15625
725,725,1727218060465,-0.8913574,-0.10015869,-0.47662354,0.0,0.796875,0.046875
726,726,1727218060505,-0.8808594,-0.09649658,-0.48272705,0.390625,0.328125,0.21875
727,727,1727218060545,-0.8955078,-0.09649658,-0.4734497,0.375,1.0625,0.140625
728,728,1727218060585,-0.8835449,-0.09307861,-0.46783447,0.28125,0.828125,-0.15625
729,729,1727218060625,-0.8894043,-0.09942627,-0.4710083,0.171875,0.765625,-0.03125
730,730,1727218060665,-0.892334,-0.097229004,-0.472229,0.390625,0.640625,0.203125
731,731,1727218060705,-0.89624023,-0.09576416,-0.47613525,0.4375,0.078125,0.453125
732,732,1727218060745,-0.8869629,-0.09576416,-0.4710083,0.046875,0.734375,0.03125
733,733,1727218060785,-0.89160156,-0.101379395,-0.46881104,0.34375,0.96875,-0.03125
734,734,1727218060825,-0.89160156,-0.097473145,-0.4680786,0.203125,0.28125,0.046875
735,735,1727218060865,-0.89282227,-0.09649658,-0.46783447,0.21875,1.25,-0.203125
736,736,1727218060905,-0.8835449,-0.09698486,-0.4680786,0.15625,0.84375,-0.09375
737,737,1727218060945,-0.89404297,-0.09503174,-0.46539307,0.359375,0.734375,-0.28125
738,738,1727218060985,-0.89086914,-0.08917236,-0.472229,0.046875,0.71875,-0.0625
739,739,1727218061025,-0.8881836,-0.09454346,-0.46588135,-0.015625,0.703125,0.015625
740,740,1727218061065,-0.8959961,-0.097229004,-0.46710205,0.09375,0.65625,-0.046875
741,741,1727218061105,-0.8859863,-0.093811035,-0.45977783,0.046875,0.703125,-0.109375
742,742,1727218061145,-0.89624023,-0.09136963,-0.46466064,0.296875,0.46875,-0.09375
743,743,1727218061185,-0.89404297,-0.093322754,-0.46246338,-0.0625,0.640625,-0.125
744,744,1727218061225,-0.892334,-0.09234619,-0.4619751,0.234375,0.640625,-0.203125
745,745,1727218061265,-0.89282227,-0.094055176,-0.46539307,0.0,1.0,-0.046875
746,746,1727218061305,-0.8859863,-0.093811035,-0.4619751,-0.140625,0.359375,-0.28125
747,747,1727218061345,-0.8942871,-0.09503174,-0.47442627,-0.53125,1.015625,-0.234375
748,748,1727218061385,-0.8964844,-0.093566895,-0.4492798,0.3125,0.953125,-0.265625
749,749,1727218061425,-0.892334,-0.09307861,-0.46710205,-0.328125,0.8125,-0.171875
750,750,1727218061465,-0.9008789,-0.09234619,-0.46466064,-0.296875,0.515625,0.03125
751,751,1727218061505,-0.89501953,-0.09283447,-0.4697876,-0.15625,1.15625,-0.125
752,752,1727218061545,-0.8979492,-0.09429932,-0.45977783,0.015625,0.703125,-0.0625
753,753,1727218061585,-0.89746094,-0.093811035,-0.458313,-0.03125,0.546875,0.03125
754,754,1727218061625,-0.89453125,-0.09576416,-0.4578247,0.3125,0.609375,-0.109375
755,755,1727218061665,-0.8925781,-0.0869751,-0.4668579,-0.140625,0.46875,0.0625
756,756,1727218061705,-0.9020996,-0.08673096,-0.45587158,0.09375,0.78125,-0.171875
757,757,1727218061745,-0.8937988,-0.09259033,-0.45880127,0.015625,0.65625,-0.140625
758,758,1727218061785,-0.89746094,-0.08673096,-0.4578247,0.0625,0.53125,0.125
759,759,1727218061825,-0.8901367,-0.09039307,-0.4656372,-0.296875,1.015625,-0.21875
