,Unnamed: 0,timestamp,accel_x,accel_y,accel_z,gyro_x,gyro_y,gyro_z
0,0,1727974087034,-0.95654297,-6.1035156e-05,-0.36773682,0.078125,-1.25,-0.078125
1,1,1727974087074,-0.9387207,0.0067749023,-0.38458252,-0.125,-0.828125,-0.28125
2,2,1727974087114,-0.9506836,-0.0044555664,-0.37750244,-0.640625,-1.0,-0.015625
3,3,1727974087154,-0.9506836,0.0004272461,-0.38311768,-0.71875,-0.453125,-0.21875
4,4,1727974087194,-0.94970703,0.002380371,-0.36505127,0.125,1.34375,-0.078125
5,5,1727974087234,-0.9470215,-0.0037231445,-0.37530518,-0.65625,-0.046875,0.125
6,6,1727974087274,-0.94970703,0.001159668,-0.3904419,-0.78125,-1.734375,0.046875
7,7,1727974087314,-0.94921875,-0.00079345703,-0.3838501,-0.09375,-0.234375,-0.265625
8,8,1727974087354,-0.94970703,-0.004699707,-0.37921143,-0.671875,-0.109375,-0.078125
9,9,1727974087394,-0.9423828,-0.0056762695,-0.37799072,0.25,-0.421875,-0.28125
10,10,1727974087434,-0.95166016,0.0026245117,-0.38360596,-1.078125,-1.046875,-0.265625
11,11,1727974087474,-0.94750977,-0.0015258789,-0.3880005,-0.0625,0.5,-0.25
12,12,1727974087514,-0.95166016,-0.0037231445,-0.3821411,-0.296875,-0.015625,0.140625
13,13,1727974087554,-0.94433594,0.0004272461,-0.38433838,0.09375,-0.421875,0.03125
14,14,1727974087594,-0.94433594,-0.004211426,-0.39215088,0.125,0.171875,0.15625
15,15,1727974087634,-0.94677734,0.0021362305,-0.38555908,0.140625,1.09375,0.25
16,16,1727974087674,-0.9458008,-0.005432129,-0.3850708,-0.046875,2.046875,-0.015625
17,17,1727974087714,-0.9453125,-0.00030517578,-0.3814087,-0.34375,0.8125,0.09375
18,18,1727974087754,-0.9453125,-0.0005493164,-0.38336182,-0.34375,0.78125,-0.015625
19,19,1727974087794,-0.94677734,0.0004272461,-0.38580322,-0.421875,1.15625,0.046875
20,20,1727974087834,-0.9416504,-0.0017700195,-0.38531494,-0.34375,1.734375,0.171875
21,21,1727974087874,-0.94628906,0.002380371,-0.37554932,-0.5,1.71875,0.234375
22,22,1727974087914,-0.94433594,-0.0032348633,-0.38311768,-0.546875,1.46875,0.09375
23,23,1727974087954,-0.94873047,-0.012512207,-0.3665161,-0.546875,0.703125,-0.125
24,24,1727974087994,-0.9501953,-0.002746582,-0.37628174,-1.109375,0.375,-0.125
25,25,1727974088034,-0.9511719,0.00579834,-0.37774658,0.265625,-0.09375,-0.09375
26,26,1727974088074,-0.95166016,-0.0015258789,-0.3772583,0.421875,0.171875,-0.15625
27,27,1727974088114,-0.93969727,0.002380371,-0.3682251,0.4375,1.3125,-0.1875
28,28,1727974088154,-0.95996094,0.0004272461,-0.38531494,-1.40625,0.921875,-0.03125
29,29,1727974088194,-0.94799805,-0.011047363,-0.36627197,0.0625,2.015625,-0.34375
30,30,1727974088234,-0.9538574,-0.0029907227,-0.3652954,0.5625,0.984375,-0.34375
31,31,1727974088274,-0.9589844,-0.0071411133,-0.3760376,-0.65625,-0.25,0.0
32,32,1727974088314,-0.9511719,0.001159668,-0.37774658,-0.4375,1.171875,0.140625
33,33,1727974088354,-0.9453125,-0.00030517578,-0.3809204,-0.4375,0.984375,-0.015625
34,34,1727974088394,-0.94677734,-0.0095825195,-0.36016846,0.0,1.65625,-0.1875
35,35,1727974088434,-0.953125,0.0014038086,-0.36968994,-0.609375,-0.375,-0.03125
36,36,1727974088474,-0.9572754,-0.008605957,-0.36505127,0.859375,0.71875,0.234375
37,37,1727974088514,-0.9506836,0.0006713867,-0.37286377,0.78125,-0.578125,0.015625
38,38,1727974088554,-0.9597168,-0.0022583008,-0.37774658,0.5,0.046875,-0.125
39,39,1727974088594,-0.95043945,0.0033569336,-0.37677002,-0.078125,0.515625,0.0
40,40,1727974088634,-0.96484375,-0.008605957,-0.362854,-0.046875,0.640625,-0.078125
41,41,1727974088674,-0.9523926,-0.003479004,-0.37335205,-0.40625,0.109375,-0.25
42,42,1727974088714,-0.9499512,-0.002746582,-0.37799072,-0.296875,0.890625,-0.25
43,43,1727974088754,-0.94799805,-0.0015258789,-0.37335205,-0.546875,1.03125,-0.15625
44,44,1727974088794,-0.9519043,-0.003479004,-0.36309814,0.359375,1.046875,0.078125
45,45,1727974088834,-0.9499512,-0.0015258789,-0.35992432,0.59375,1.3125,-0.265625
46,46,1727974088874,-0.953125,-0.0068969727,-0.364563,-0.375,0.109375,-0.0625
47,47,1727974088914,-0.9460449,0.0004272461,-0.3899536,-0.953125,-2.265625,-0.359375
48,48,1727974088954,-0.95166016,-0.004699707,-0.37652588,0.578125,-0.03125,-0.140625
49,49,1727974088994,-0.9555664,-0.003479004,-0.36993408,-1.03125,1.296875,-0.328125
50,50,1727974089034,-0.951416,-0.00030517578,-0.35333252,0.71875,2.1875,0.0
51,51,1727974089074,-0.9494629,-0.00030517578,-0.37286377,-0.265625,0.765625,0.296875
52,52,1727974089114,-0.9538574,-0.0044555664,-0.3706665,-0.421875,2.015625,0.015625
53,53,1727974089154,-0.95874023,0.001159668,-0.36187744,0.171875,1.71875,0.15625
54,54,1727974089194,-0.95043945,-0.0025024414,-0.36553955,-0.671875,1.453125,0.234375
55,55,1727974089234,-0.9555664,-0.0020141602,-0.36724854,-0.25,1.109375,0.21875
56,56,1727974089274,-0.95043945,-0.0049438477,-0.35455322,-0.265625,1.671875,0.03125
57,57,1727974089314,-0.9562988,-0.0037231445,-0.35894775,-0.796875,2.15625,0.015625
58,58,1727974089354,-0.9589844,-0.0049438477,-0.35064697,-0.4375,1.4375,-0.15625
59,59,1727974089394,-0.9633789,-0.009338379,-0.35430908,-0.78125,1.234375,0.078125
60,60,1727974089434,-0.96533203,-0.0017700195,-0.35699463,-0.796875,1.15625,0.09375
61,61,1727974089474,-0.9614258,-0.014953613,-0.3562622,-0.484375,1.09375,-0.1875
62,62,1727974089514,-0.9604492,-0.0022583008,-0.35333252,-0.828125,0.765625,-0.078125
63,63,1727974089554,-0.9562988,-0.012756348,-0.35650635,-0.578125,1.109375,0.03125
64,64,1727974089594,-0.9572754,-0.006164551,-0.35968018,-0.078125,1.359375,-0.1875
65,65,1727974089634,-0.9658203,-0.0020141602,-0.35699463,-0.34375,1.390625,0.234375
66,66,1727974089674,-0.9638672,-0.006652832,-0.35333252,-0.09375,1.359375,0.1875
67,67,1727974089714,-0.96191406,-0.010803223,-0.33917236,0.546875,2.15625,-0.0625
68,68,1727974089754,-0.9641113,-0.0017700195,-0.34625244,-0.40625,0.71875,0.046875
69,69,1727974089794,-0.9638672,-0.014709473,-0.3574829,-1.078125,-0.546875,-0.109375
70,70,1727974089834,-0.9658203,-0.0068969727,-0.34014893,0.921875,0.8125,-0.109375
71,71,1727974089874,-0.9655762,-0.008605957,-0.34161377,-0.71875,-0.375,-0.234375
72,72,1727974089914,-0.9592285,-0.0134887695,-0.3369751,0.484375,-1.34375,-0.640625
73,73,1727974089954,-0.95825195,-0.0022583008,-0.3501587,0.109375,-2.03125,-0.015625
74,74,1727974089994,-0.9592285,0.00091552734,-0.36480713,0.0625,-1.21875,-0.046875
75,75,1727974090034,-0.96118164,0.0045776367,-0.36114502,0.515625,-1.34375,-0.125
76,76,1727974090074,-0.95532227,0.00091552734,-0.35943604,0.09375,-0.984375,-0.296875
77,77,1727974090114,-0.95458984,-0.0044555664,-0.36309814,0.015625,-1.390625,-0.546875
78,78,1727974090154,-0.9560547,0.0004272461,-0.35601807,-0.0625,-1.546875,-0.4375
79,79,1727974090194,-0.9621582,-0.01373291,-0.35821533,0.3125,-1.59375,-0.296875
80,80,1727974090234,-0.953125,-0.004699707,-0.36627197,-0.1875,-1.34375,-0.25
81,81,1727974090274,-0.9470215,-0.0010375977,-0.36968994,0.15625,-1.9375,-0.34375
82,82,1727974090314,-0.95043945,-0.0015258789,-0.3711548,-0.484375,-1.75,-0.25
83,83,1727974090354,-0.953125,0.0067749023,-0.37945557,-0.6875,-1.46875,-0.109375
84,84,1727974090394,-0.9477539,-0.0005493164,-0.38238525,-0.59375,-0.8125,0.09375
85,85,1727974090434,-0.9445801,0.0006713867,-0.37286377,-0.078125,-0.78125,-0.203125
86,86,1727974090474,-0.9482422,-0.0022583008,-0.36993408,0.171875,-0.953125,-0.5
87,87,1727974090514,-0.9602051,-0.004211426,-0.37799072,-0.53125,-1.15625,-0.265625
88,88,1727974090554,-0.95751953,-0.006652832,-0.3875122,-0.765625,-1.203125,0.171875
89,89,1727974090594,-0.9428711,-0.007873535,-0.38702393,-0.78125,-0.515625,0.078125
90,90,1727974090634,-0.94140625,-0.0015258789,-0.38897705,0.375,0.890625,-0.21875
91,91,1727974090674,-0.94970703,-0.0032348633,-0.3760376,-0.59375,0.53125,-0.203125
92,92,1727974090714,-0.9404297,0.0033569336,-0.37750244,-0.71875,0.21875,-0.453125
93,93,1727974090754,-0.9580078,-0.0032348633,-0.39337158,0.15625,0.203125,-0.28125
94,94,1727974090794,-0.9458008,-0.006164551,-0.3735962,0.65625,0.015625,-0.296875
95,95,1727974090834,-0.935791,0.0004272461,-0.38287354,0.5,-1.234375,-0.328125
96,96,1727974090874,-0.9519043,-0.0012817383,-0.394104,-1.140625,-1.75,-0.21875
97,97,1727974090914,-0.93896484,0.010192871,-0.39508057,0.515625,-0.21875,-0.203125
98,98,1727974090954,-0.9423828,0.004333496,-0.40118408,-0.390625,0.296875,-0.09375
99,99,1727974090994,-0.94018555,-0.0037231445,-0.3748169,-0.3125,0.890625,-0.25
100,100,1727974091034,-0.954834,-0.0020141602,-0.39434814,-1.453125,-0.734375,-0.21875
101,101,1727974091074,-0.9272461,0.0038452148,-0.38433838,-0.4375,-0.734375,-0.421875
102,102,1727974091114,-0.9367676,0.0036010742,-0.3899536,-0.375,0.46875,-0.421875
103,103,1727974091154,-0.9440918,0.006286621,-0.39483643,-0.71875,1.0625,-0.1875
104,104,1727974091194,-0.93603516,0.005065918,-0.38336182,0.0625,2.71875,-0.15625
105,105,1727974091234,-0.94506836,0.0018920898,-0.3826294,0.03125,1.734375,-0.1875
106,106,1727974091274,-0.94384766,0.00091552734,-0.3850708,-0.125,1.265625,0.03125
107,107,1727974091314,-0.9477539,-0.011779785,-0.38848877,-0.1875,1.125,-0.03125
108,108,1727974091354,-0.9458008,-0.0017700195,-0.38287354,0.046875,0.46875,-0.046875
109,109,1727974091394,-0.94677734,0.0026245117,-0.3880005,0.1875,1.0,0.03125
110,110,1727974091434,-0.9470215,-0.003967285,-0.38970947,0.375,1.40625,-0.1875
111,111,1727974091474,-0.9536133,0.0079956055,-0.38824463,0.765625,0.65625,-0.28125
112,112,1727974091514,-0.94921875,0.005554199,-0.38116455,0.0625,-0.09375,-0.21875
113,113,1727974091554,-0.94262695,0.0048217773,-0.37774658,-0.109375,1.25,-0.21875
114,114,1727974091594,-0.96118164,0.00018310547,-0.39337158,-1.203125,1.0625,-0.015625
115,115,1727974091634,-0.94970703,0.00018310547,-0.3821411,-0.90625,-0.8125,-0.28125
116,116,1727974091674,-0.94262695,0.005065918,-0.38067627,0.171875,-0.796875,-0.078125
117,117,1727974091714,-0.94628906,0.0026245117,-0.36895752,-0.71875,1.359375,-0.296875
118,118,1727974091754,-0.9436035,0.0045776367,-0.37945557,0.375,0.96875,-0.015625
119,119,1727974091794,-0.954834,-0.0005493164,-0.38116455,0.03125,0.828125,0.09375
120,120,1727974091834,-0.9494629,-0.0071411133,-0.3694458,0.421875,0.875,-0.109375
121,121,1727974091874,-0.9458008,0.002380371,-0.37921143,0.109375,0.296875,-0.078125
122,122,1727974091914,-0.9470215,-0.00592041,-0.38580322,-0.515625,1.46875,-0.03125
123,123,1727974091954,-0.9458008,-0.0029907227,-0.37774658,-0.140625,1.0,-0.0625
124,124,1727974091994,-0.9470215,-0.00030517578,-0.37042236,-0.234375,0.90625,-0.203125
125,125,1727974092034,-0.9538574,0.0018920898,-0.3772583,-0.4375,1.453125,-0.171875
126,126,1727974092074,-0.9482422,0.005065918,-0.37677002,-0.09375,0.65625,-0.15625
127,127,1727974092114,-0.9470215,0.0006713867,-0.36602783,-0.21875,0.03125,0.1875
128,128,1727974092154,-0.9523926,0.0053100586,-0.3880005,-0.375,-0.53125,0.078125
129,129,1727974092194,-0.94262695,0.00970459,-0.38482666,0.015625,-1.375,-0.296875
130,130,1727974092234,-0.9506836,0.0018920898,-0.3694458,-0.5,1.15625,0.078125
131,131,1727974092274,-0.95092773,-0.0037231445,-0.37530518,-0.703125,1.625,-0.375
132,132,1727974092314,-0.94970703,0.012878418,-0.3838501,-0.703125,0.5625,0.109375
133,133,1727974092354,-0.9477539,-0.0017700195,-0.37506104,-0.234375,0.515625,0.171875
134,134,1727974092394,-0.9416504,0.008239746,-0.3743286,0.203125,2.421875,-0.328125
135,135,1727974092434,-0.9567871,-0.008605957,-0.37994385,-1.4375,0.875,0.0
136,136,1727974092474,-0.9626465,0.00091552734,-0.36236572,-0.1875,0.984375,-0.34375
137,137,1727974092514,-0.94262695,0.009216309,-0.37091064,0.078125,0.15625,0.171875
138,138,1727974092554,-0.9489746,0.0079956055,-0.37994385,-0.390625,1.1875,-0.15625
139,139,1727974092594,-0.9489746,0.0048217773,-0.3711548,0.46875,2.015625,0.03125
140,140,1727974092634,-0.9580078,0.006286621,-0.36895752,-0.15625,1.578125,-0.140625
141,141,1727974092674,-0.9604492,-0.0056762695,-0.36212158,0.515625,2.03125,0.078125
142,142,1727974092714,-0.95092773,-0.00030517578,-0.36309814,-0.140625,1.609375,-0.015625
143,143,1727974092754,-0.9562988,-0.0049438477,-0.36553955,-0.3125,1.984375,0.171875
144,144,1727974092794,-0.9501953,0.00018310547,-0.3694458,-0.3125,2.21875,0.078125
145,145,1727974092834,-0.95751953,0.00091552734,-0.35284424,-0.25,1.234375,0.109375
146,146,1727974092874,-0.9543457,0.0036010742,-0.36236572,-0.09375,0.6875,0.03125
147,147,1727974092914,-0.95458984,0.0067749023,-0.35772705,-0.28125,0.8125,-0.046875
148,148,1727974092954,-0.95874023,0.0021362305,-0.3591919,-0.515625,1.140625,0.265625
149,149,1727974092994,-0.9584961,0.0016479492,-0.3562622,-0.3125,2.15625,0.078125
150,150,1727974093034,-0.9592285,-0.003479004,-0.35235596,-0.28125,1.8125,0.109375
151,151,1727974093074,-0.9626465,-0.0044555664,-0.35479736,-0.375,1.484375,-0.015625
152,152,1727974093114,-0.9567871,0.0028686523,-0.3496704,-0.21875,1.125,0.0625
153,153,1727974093154,-0.96435547,0.00091552734,-0.35113525,-0.1875,1.046875,0.125
154,154,1727974093194,-0.9638672,0.00018310547,-0.3394165,0.015625,1.09375,-0.4375
155,155,1727974093234,-0.96435547,0.0018920898,-0.35406494,-0.296875,0.203125,0.15625
156,156,1727974093274,-0.9675293,-0.0029907227,-0.36187744,-0.8125,-0.625,0.09375
157,157,1727974093314,-0.9655762,-0.005432129,-0.34796143,0.609375,0.984375,-0.3125
158,158,1727974093354,-0.95996094,-6.1035156e-05,-0.3604126,-1.5625,0.359375,0.1875
159,159,1727974093394,-0.95654297,-0.0022583008,-0.33795166,0.296875,2.140625,-0.546875
160,160,1727974093434,-0.96435547,0.0040893555,-0.34820557,-0.28125,0.578125,0.109375
161,161,1727974093474,-0.95947266,-0.0010375977,-0.35113525,-0.984375,0.828125,0.15625
162,162,1727974093514,-0.9680176,-0.00079345703,-0.348938,-0.1875,1.171875,0.140625
163,163,1727974093554,-0.9692383,-0.0051879883,-0.347229,-0.640625,0.859375,0.15625
164,164,1727974093594,-0.9663086,-0.003967285,-0.34429932,0.046875,0.9375,0.09375
165,165,1727974093634,-0.9604492,0.0018920898,-0.3447876,-0.328125,-0.125,-0.109375
166,166,1727974093674,-0.95947266,-0.0056762695,-0.348938,0.0625,0.15625,-0.203125
167,167,1727974093714,-0.96118164,-0.0010375977,-0.35040283,-0.03125,0.046875,-0.15625
168,168,1727974093754,-0.96606445,-0.0015258789,-0.34552002,-0.1875,-0.265625,-0.15625
169,169,1727974093794,-0.96069336,-0.0037231445,-0.34747314,-0.296875,0.3125,-0.125
170,170,1727974093834,-0.96484375,-0.0049438477,-0.34869385,-0.453125,0.359375,-0.078125
171,171,1727974093874,-0.9580078,-0.004211426,-0.3501587,-0.265625,0.6875,-0.234375
172,172,1727974093914,-0.96875,-0.0051879883,-0.34210205,-0.171875,0.359375,-0.078125
173,173,1727974093954,-0.9577637,-0.0056762695,-0.34649658,-0.28125,0.6875,-0.1875
174,174,1727974093994,-0.9650879,-0.011779785,-0.34405518,-0.34375,0.765625,-0.015625
175,175,1727974094034,-0.96484375,-0.0020141602,-0.34649658,-0.296875,0.203125,0.0625
176,176,1727974094074,-0.9638672,-0.005432129,-0.34942627,-0.390625,0.0625,-0.234375
177,177,1727974094114,-0.9638672,-0.0051879883,-0.3460083,-0.34375,0.171875,-0.109375
178,178,1727974094154,-0.96313477,-0.004699707,-0.34796143,-0.53125,0.0,-0.015625
179,179,1727974094194,-0.9562988,-0.008117676,-0.33258057,0.984375,1.421875,-0.3125
180,180,1727974094234,-0.95996094,-0.0029907227,-0.3411255,-0.21875,0.0,0.15625
181,181,1727974094274,-0.95336914,-0.0015258789,-0.33428955,-0.1875,-0.5625,-0.171875
182,182,1727974094314,-0.96435547,0.0021362305,-0.36114502,-0.796875,-0.078125,0.140625
183,183,1727974094354,-0.96069336,-0.015686035,-0.34576416,-0.6875,1.234375,-0.3125
184,184,1727974094394,-0.96362305,-0.0017700195,-0.33624268,0.625,1.359375,-0.5
185,185,1727974094434,-0.9667969,-0.0025024414,-0.34674072,-0.875,0.171875,0.046875
186,186,1727974094474,-0.9638672,-0.00592041,-0.347229,-0.09375,0.828125,-0.0625
187,187,1727974094514,-0.96655273,0.003112793,-0.3381958,-0.046875,1.0625,-0.046875
188,188,1727974094554,-0.9616699,-0.0076293945,-0.34503174,-0.265625,0.5,0.125
189,189,1727974094594,-0.967041,0.0026245117,-0.3411255,-0.15625,-0.15625,-0.046875
190,190,1727974094634,-0.96606445,-0.003967285,-0.34210205,-0.34375,0.28125,-0.046875
191,191,1727974094674,-0.9621582,-0.0020141602,-0.34405518,0.40625,1.0625,-0.15625
192,192,1727974094714,-0.96484375,0.00091552734,-0.34796143,0.375,-0.4375,0.015625
193,193,1727974094754,-0.9584961,-0.0056762695,-0.3447876,1.046875,-1.53125,0.09375
194,194,1727974094794,-0.9645996,0.0065307617,-0.34405518,1.046875,-1.5625,-0.015625
195,195,1727974094834,-0.95581055,-0.003479004,-0.34942627,0.234375,-1.53125,0.015625
196,196,1727974094874,-0.9562988,-0.003967285,-0.3508911,0.40625,-1.546875,0.0625
197,197,1727974094914,-0.9580078,-0.0051879883,-0.34796143,0.46875,-1.359375,-0.09375
198,198,1727974094954,-0.9626465,0.0004272461,-0.3616333,-0.1875,-1.6875,0.015625
199,199,1727974094994,-0.9658203,0.00091552734,-0.35650635,-0.796875,-1.828125,-0.09375
200,200,1727974095034,-0.9580078,-0.0037231445,-0.362854,-1.09375,-2.140625,-0.03125
201,201,1727974095074,-0.9477539,0.0021362305,-0.3616333,-1.078125,-1.65625,-0.21875
202,202,1727974095114,-0.9538574,-0.0049438477,-0.36553955,-0.8125,-1.375,-0.15625
203,203,1727974095154,-0.95654297,-0.0022583008,-0.36920166,-0.59375,-1.296875,-0.3125
204,204,1727974095194,-0.954834,-0.0020141602,-0.3731079,-0.734375,-1.375,-0.28125
205,205,1727974095234,-0.9453125,-0.0029907227,-0.37750244,-0.953125,-1.40625,-0.09375
206,206,1727974095274,-0.94555664,-0.004699707,-0.36480713,0.53125,-0.25,-0.40625
207,207,1727974095314,-0.9494629,-0.012023926,-0.37774658,-0.65625,-1.0,-0.140625
208,208,1727974095354,-0.9453125,-0.0020141602,-0.39215088,-1.25,-2.03125,-0.03125
209,209,1727974095394,-0.9448242,-0.006164551,-0.38580322,-0.0625,-0.671875,-0.09375
210,210,1727974095434,-0.94750977,-0.0134887695,-0.36895752,-0.75,-0.09375,-0.28125
211,211,1727974095474,-0.9460449,-0.0010375977,-0.37677002,0.171875,-0.671875,-0.125
212,212,1727974095514,-0.9562988,-0.0037231445,-0.38580322,-0.984375,-1.578125,-0.125
213,213,1727974095554,-0.94189453,0.00091552734,-0.38555908,-0.703125,-0.125,-0.265625
214,214,1727974095594,-0.9453125,-0.00030517578,-0.37921143,-0.328125,-0.328125,-0.390625
215,215,1727974095634,-0.9423828,-0.006652832,-0.38848877,-0.4375,-0.8125,-0.1875
216,216,1727974095674,-0.9406738,-0.0064086914,-0.3880005,-0.4375,-1.25,-0.234375
217,217,1727974095714,-0.9370117,-0.00030517578,-0.38848877,-0.390625,-1.484375,-0.375
218,218,1727974095754,-0.939209,0.002380371,-0.39337158,0.234375,-0.3125,-0.5625
219,219,1727974095794,-0.939209,-0.005432129,-0.3887329,-0.078125,0.171875,-0.53125
220,220,1727974095834,-0.9328613,-0.0017700195,-0.38848877,0.328125,-0.140625,-0.390625
221,221,1727974095874,-0.94140625,-0.009094238,-0.38897705,1.296875,1.203125,-0.8125
222,222,1727974095914,-0.9465332,0.007751465,-0.40142822,0.5,-0.015625,-0.53125
223,223,1727974095954,-0.94677734,0.0021362305,-0.4036255,-0.203125,1.0,-0.0625
224,224,1727974095994,-0.9494629,0.005065918,-0.40509033,-0.640625,0.984375,0.09375
225,225,1727974096034,-0.9458008,0.011657715,-0.3945923,-0.234375,1.109375,0.09375
226,226,1727974096074,-0.93652344,0.0048217773,-0.39434814,-0.9375,1.3125,-0.234375
227,227,1727974096114,-0.9440918,-0.0032348633,-0.38409424,0.125,1.890625,-0.4375
228,228,1727974096154,-0.9458008,-0.002746582,-0.3862915,-0.015625,0.75,-0.265625
229,229,1727974096194,-0.9411621,0.0038452148,-0.38653564,-0.046875,0.03125,-0.109375
230,230,1727974096234,-0.9404297,0.005065918,-0.39898682,-0.234375,-0.71875,-0.140625
231,231,1727974096274,-0.9326172,0.0014038086,-0.38238525,0.359375,1.546875,-0.1875
232,232,1727974096314,-0.9465332,-0.0010375977,-0.37945557,-0.234375,1.546875,-0.21875
233,233,1727974096354,-0.9382324,0.010925293,-0.3880005,-0.40625,0.171875,-0.15625
234,234,1727974096394,-0.9506836,-0.010070801,-0.3867798,0.15625,0.765625,0.0
235,235,1727974096434,-0.9416504,-0.003479004,-0.38116455,-0.140625,0.171875,-0.140625
236,236,1727974096474,-0.9411621,0.0038452148,-0.38360596,0.359375,-0.015625,-0.328125
237,237,1727974096514,-0.94433594,-0.0005493164,-0.3875122,-0.6875,-0.1875,-0.140625
238,238,1727974096554,-0.9470215,0.001159668,-0.38897705,-0.171875,0.625,-0.109375
239,239,1727974096594,-0.9440918,0.005065918,-0.3892212,-0.65625,0.234375,0.0625
240,240,1727974096634,-0.94555664,0.002380371,-0.39312744,-0.6875,0.640625,0.03125
241,241,1727974096674,-0.9406738,0.0045776367,-0.3867798,0.203125,1.078125,-0.28125
242,242,1727974096714,-0.95092773,0.005065918,-0.38482666,-0.484375,0.3125,-0.140625
243,243,1727974096754,-0.954834,-0.0032348633,-0.3892212,-0.0625,0.125,-0.03125
244,244,1727974096794,-0.9472656,-0.003479004,-0.39215088,-0.203125,0.828125,-0.21875
245,245,1727974096834,-0.9465332,0.00018310547,-0.38482666,-0.3125,0.96875,-0.171875
246,246,1727974096874,-0.95214844,-6.1035156e-05,-0.38824463,-0.390625,0.8125,-0.015625
247,247,1727974096914,-0.9421387,0.0016479492,-0.38824463,-0.46875,0.890625,-0.078125
248,248,1727974096954,-0.94262695,0.0060424805,-0.37994385,0.359375,1.34375,-0.203125
249,249,1727974096994,-0.9428711,0.0045776367,-0.38458252,-0.046875,1.28125,0.171875
250,250,1727974097034,-0.9543457,-0.0032348633,-0.38531494,0.125,1.125,-0.046875
251,251,1727974097074,-0.94750977,0.00091552734,-0.37457275,-0.296875,1.28125,-0.125
252,252,1727974097114,-0.9484863,-0.0029907227,-0.37799072,-0.296875,1.4375,-0.046875
253,253,1727974097154,-0.95458984,0.012390137,-0.37701416,0.265625,1.15625,-0.046875
254,254,1727974097194,-0.9511719,0.007507324,-0.38458252,0.453125,-0.015625,0.28125
255,255,1727974097234,-0.9458008,-0.007385254,-0.37457275,1.515625,1.21875,0.078125
256,256,1727974097274,-0.9440918,0.0026245117,-0.3731079,0.0625,0.765625,-0.03125
257,257,1727974097314,-0.93969727,0.0038452148,-0.3670044,-0.21875,1.0,-0.21875
258,258,1727974097354,-0.95825195,0.006286621,-0.38311768,-0.484375,0.859375,0.125
259,259,1727974097394,-0.954834,0.0018920898,-0.36993408,-0.125,1.390625,-0.1875
260,260,1727974097434,-0.94628906,0.0026245117,-0.36309814,0.453125,1.53125,-0.078125
261,261,1727974097474,-0.953125,-0.0037231445,-0.37994385,-0.640625,0.453125,0.015625
262,262,1727974097514,-0.95092773,0.0053100586,-0.37823486,-0.328125,0.984375,-0.015625
263,263,1727974097554,-0.9472656,0.0040893555,-0.38067627,-0.671875,0.890625,-0.078125
264,264,1727974097594,-0.95532227,-0.0032348633,-0.3718872,-0.6875,1.25,-0.078125
265,265,1727974097634,-0.9536133,-0.0020141602,-0.37261963,-0.109375,0.59375,-0.109375
266,266,1727974097674,-0.9536133,0.0033569336,-0.37530518,-0.46875,1.140625,-0.171875
267,267,1727974097714,-0.95825195,-0.0051879883,-0.3718872,-0.25,1.6875,-0.140625
268,268,1727974097754,-0.95214844,0.0060424805,-0.35723877,-0.265625,0.5625,-0.203125
269,269,1727974097794,-0.9489746,-0.002746582,-0.36846924,-0.265625,0.453125,-0.09375
270,270,1727974097834,-0.9609375,-0.0032348633,-0.3718872,-0.375,1.0,0.03125
271,271,1727974097874,-0.94921875,0.0016479492,-0.3694458,-0.5,1.453125,-0.03125
272,272,1727974097914,-0.95458984,-0.0010375977,-0.36553955,-0.203125,1.109375,-0.03125
273,273,1727974097954,-0.95825195,0.0053100586,-0.36138916,-0.40625,0.890625,-0.078125
274,274,1727974097994,-0.95532227,0.00018310547,-0.36505127,-0.265625,0.828125,-0.046875
275,275,1727974098034,-0.9560547,0.012145996,-0.35968018,-0.171875,0.328125,-0.203125
276,276,1727974098074,-0.95581055,-6.1035156e-05,-0.36090088,-0.203125,0.796875,-0.1875
277,277,1727974098114,-0.95874023,-0.002746582,-0.3640747,-0.203125,1.25,-0.078125
278,278,1727974098154,-0.95996094,-0.0015258789,-0.35772705,-0.15625,1.03125,-0.109375
279,279,1727974098194,-0.95825195,-0.004211426,-0.36358643,-0.203125,0.421875,-0.09375
280,280,1727974098234,-0.9604492,0.0021362305,-0.36236572,-0.3125,0.6875,-0.09375
281,281,1727974098274,-0.9567871,-0.0051879883,-0.3616333,-0.53125,0.359375,-0.140625
282,282,1727974098314,-0.9572754,0.0018920898,-0.3657837,-0.6875,0.375,-0.046875
283,283,1727974098354,-0.9562988,-0.0005493164,-0.34332275,1.03125,2.046875,-0.1875
284,284,1727974098394,-0.95996094,0.0072631836,-0.3555298,-0.53125,0.6875,0.109375
285,285,1727974098434,-0.94873047,0.001159668,-0.3526001,-0.515625,-0.140625,-0.21875
286,286,1727974098474,-0.9645996,-0.0012817383,-0.37628174,-0.140625,0.296875,0.046875
287,287,1727974098514,-0.9655762,0.00091552734,-0.35821533,-0.4375,2.296875,-0.453125
288,288,1727974098554,-0.95410156,-6.1035156e-05,-0.3447876,0.53125,2.046875,-0.3125
289,289,1727974098594,-0.95947266,0.0006713867,-0.35577393,-0.609375,-0.125,0.0
290,290,1727974098634,-0.9604492,0.0014038086,-0.36187744,-0.296875,0.1875,-0.015625
291,291,1727974098674,-0.9567871,0.0016479492,-0.3526001,-0.265625,0.8125,-0.109375
292,292,1727974098714,-0.9577637,0.005065918,-0.35845947,-0.359375,0.671875,-0.0625
293,293,1727974098754,-0.96118164,-0.002746582,-0.3587036,0.09375,0.203125,-0.046875
294,294,1727974098794,-0.9609375,0.0004272461,-0.35601807,-0.484375,0.390625,0.140625
295,295,1727974098834,-0.96484375,-0.0049438477,-0.35064697,-0.1875,1.25,-0.15625
296,296,1727974098874,-0.9633789,-0.0005493164,-0.34918213,-0.0625,0.640625,-0.1875
297,297,1727974098914,-0.96191406,-0.008361816,-0.3496704,-0.4375,-0.296875,0.03125
298,298,1727974098954,-0.9616699,0.0028686523,-0.35211182,-0.171875,0.140625,-0.140625
299,299,1727974098994,-0.9628906,-6.1035156e-05,-0.35943604,-0.390625,0.4375,-0.1875
300,300,1727974099034,-0.95947266,0.0018920898,-0.3591919,-0.5,0.515625,-0.015625
301,301,1727974099074,-0.9572754,0.003112793,-0.35577393,-0.125,0.625,-0.203125
302,302,1727974099114,-0.9584961,0.0045776367,-0.35064697,-0.375,0.671875,0.09375
303,303,1727974099154,-0.9567871,0.0006713867,-0.347229,-0.390625,1.421875,-0.015625
304,304,1727974099194,-0.9650879,-0.002746582,-0.3477173,-0.296875,1.203125,-0.1875
305,305,1727974099234,-0.96533203,-6.1035156e-05,-0.34869385,-0.15625,0.71875,-0.109375
306,306,1727974099274,-0.95703125,0.003112793,-0.34625244,-0.046875,0.84375,-0.140625
307,307,1727974099314,-0.9538574,0.0014038086,-0.34942627,-0.234375,0.546875,0.078125
308,308,1727974099354,-0.9577637,-0.006164551,-0.35357666,-0.421875,0.546875,-0.09375
309,309,1727974099394,-0.9604492,-0.0020141602,-0.348938,-0.28125,1.125,-0.046875
310,310,1727974099434,-0.96191406,-0.003967285,-0.34918213,-0.09375,1.015625,-0.125
311,311,1727974099474,-0.9616699,-0.008850098,-0.3526001,-0.234375,0.46875,-0.078125
312,312,1727974099514,-0.96313477,-0.0012817383,-0.35235596,-0.8125,0.078125,-0.203125
313,313,1727974099554,-0.97216797,0.003112793,-0.35406494,0.25,0.515625,0.03125
314,314,1727974099594,-0.9645996,-0.002746582,-0.34503174,-0.171875,0.265625,-0.234375
315,315,1727974099634,-0.9628906,-0.0029907227,-0.34210205,0.421875,1.03125,-0.0625
316,316,1727974099674,-0.9658203,-0.0049438477,-0.36187744,-1.234375,0.15625,0.125
317,317,1727974099714,-0.9597168,-0.008605957,-0.3435669,-0.03125,1.15625,-0.4375
318,318,1727974099754,-0.9633789,0.0016479492,-0.34210205,0.3125,0.765625,-0.125
319,319,1727974099794,-0.96875,-0.003479004,-0.35650635,-0.421875,0.296875,-0.140625
320,320,1727974099834,-0.9626465,0.008972168,-0.34747314,0.203125,1.0625,-0.078125
321,321,1727974099874,-0.9626465,-0.0015258789,-0.34454346,-0.203125,0.71875,0.140625
322,322,1727974099914,-0.96533203,-0.0015258789,-0.35040283,-0.03125,0.84375,0.046875
323,323,1727974099954,-0.9682617,0.0065307617,-0.34283447,0.0,-0.875,0.015625
324,324,1727974099994,-0.96240234,-0.0049438477,-0.3501587,-0.328125,-1.265625,0.0
325,325,1727974100034,-0.9650879,-0.0037231445,-0.34381104,0.234375,-0.625,-0.28125
326,326,1727974100074,-0.95874023,0.0021362305,-0.3508911,-0.265625,-1.671875,-0.109375
327,327,1727974100114,-0.9584961,0.0053100586,-0.35430908,-0.390625,-1.828125,-0.203125
328,328,1727974100154,-0.95581055,0.00018310547,-0.35723877,-0.359375,-1.734375,-0.140625
329,329,1727974100194,-0.95947266,0.0014038086,-0.35772705,-0.5,-1.53125,-0.0625
330,330,1727974100234,-0.9572754,0.0004272461,-0.36016846,-0.59375,-1.765625,-0.109375
331,331,1727974100274,-0.9562988,-0.0037231445,-0.36309814,-0.390625,-1.5,-0.15625
332,332,1727974100314,-0.94921875,-0.0012817383,-0.36212158,-0.40625,-1.0,-0.0625
333,333,1727974100354,-0.95458984,-0.00030517578,-0.37091064,-0.46875,-1.296875,-0.09375
334,334,1727974100394,-0.953125,-0.004699707,-0.37139893,-0.359375,-1.09375,-0.09375
335,335,1727974100434,-0.9506836,-0.008361816,-0.37213135,-0.578125,-0.96875,-0.234375
336,336,1727974100474,-0.95092773,-0.0017700195,-0.37286377,-0.671875,-1.140625,-0.03125
337,337,1727974100514,-0.95410156,-0.0032348633,-0.378479,-0.375,-1.015625,-0.234375
338,338,1727974100554,-0.9489746,-0.0064086914,-0.37286377,-0.390625,-0.921875,-0.21875
339,339,1727974100594,-0.95336914,0.0018920898,-0.38458252,-0.578125,-1.21875,-0.265625
340,340,1727974100634,-0.9526367,-0.0051879883,-0.3760376,-0.46875,-0.953125,-0.203125
341,341,1727974100674,-0.94677734,0.0014038086,-0.37994385,-0.390625,-1.171875,-0.15625
342,342,1727974100714,-0.9399414,0.00018310547,-0.37994385,-0.140625,-0.390625,-0.328125
343,343,1727974100754,-0.94555664,0.003112793,-0.3867798,-0.703125,-1.171875,-0.03125
344,344,1727974100794,-0.9477539,-0.0025024414,-0.3867798,-0.171875,-1.3125,-0.125
345,345,1727974100834,-0.9440918,-0.002746582,-0.3904419,-0.109375,0.34375,-0.265625
346,346,1727974100874,-0.93969727,-0.00079345703,-0.39215088,-1.046875,-0.109375,0.046875
347,347,1727974100914,-0.94262695,-0.008850098,-0.38458252,0.015625,-0.46875,-0.234375
348,348,1727974100954,-0.9494629,-0.006652832,-0.39117432,-0.625,-1.109375,-0.234375
349,349,1727974100994,-0.9428711,-0.0051879883,-0.39215088,-0.5,-0.875,-0.09375
350,350,1727974101034,-0.93652344,-0.0029907227,-0.39483643,-0.28125,-0.265625,-0.125
351,351,1727974101074,-0.9367676,-0.005432129,-0.39385986,-0.328125,-0.46875,-0.03125
352,352,1727974101114,-0.9411621,-0.0032348633,-0.38336182,0.0,0.015625,-0.3125
353,353,1727974101154,-0.9375,0.0018920898,-0.39312744,0.015625,-0.6875,-0.234375
354,354,1727974101194,-0.9477539,-0.0015258789,-0.40045166,-0.578125,-0.578125,-0.125
355,355,1727974101234,-0.9313965,-0.00079345703,-0.40264893,-0.234375,-0.375,-0.296875
356,356,1727974101274,-0.935791,-0.0025024414,-0.38702393,-0.09375,-0.15625,-0.171875
357,357,1727974101314,-0.9313965,-0.0015258789,-0.40679932,-0.40625,-0.296875,-0.234375
358,358,1727974101354,-0.94018555,0.0004272461,-0.40264893,-0.1875,-0.15625,-0.125
359,359,1727974101394,-0.93530273,-0.0005493164,-0.395813,-0.09375,0.796875,-0.15625
360,360,1727974101434,-0.93774414,-6.1035156e-05,-0.3982544,0.0,0.859375,-0.125
361,361,1727974101474,-0.93725586,0.0033569336,-0.40338135,-0.28125,0.5,-0.015625
362,362,1727974101514,-0.94091797,-0.0015258789,-0.39898682,-0.203125,0.484375,-0.140625
363,363,1727974101554,-0.9411621,0.0053100586,-0.4006958,-0.3125,0.6875,-0.1875
364,364,1727974101594,-0.93652344,-0.00079345703,-0.40338135,-0.125,1.390625,-0.015625
365,365,1727974101634,-0.9406738,-0.00030517578,-0.3953247,-0.1875,1.0625,-0.140625
366,366,1727974101674,-0.94018555,-0.004211426,-0.395813,-0.0625,0.6875,-0.03125
367,367,1727974101714,-0.939209,0.0045776367,-0.39630127,-0.140625,0.6875,-0.125
368,368,1727974101754,-0.9370117,-0.004211426,-0.39434814,-0.328125,1.21875,-0.140625
369,369,1727974101794,-0.9445801,0.0018920898,-0.40948486,-0.28125,0.453125,0.015625
370,370,1727974101834,-0.9404297,-0.002746582,-0.39117432,0.03125,0.984375,0.03125
371,371,1727974101874,-0.93847656,0.0026245117,-0.38848877,0.34375,1.78125,-0.0625
372,372,1727974101914,-0.9494629,0.0018920898,-0.40167236,-1.0,1.1875,0.140625
373,373,1727974101954,-0.9411621,-0.00079345703,-0.3850708,0.21875,1.40625,-0.21875
374,374,1727974101994,-0.94873047,-0.0029907227,-0.3887329,-0.140625,0.296875,-0.109375
375,375,1727974102034,-0.94384766,-0.0025024414,-0.39019775,-0.375,0.53125,-0.109375
376,376,1727974102074,-0.94750977,0.00018310547,-0.39263916,-0.1875,0.96875,0.03125
377,377,1727974102114,-0.94091797,-0.00030517578,-0.3867798,-0.328125,1.375,0.078125
378,378,1727974102154,-0.95166016,-0.003479004,-0.3850708,-0.1875,1.46875,-0.015625
379,379,1727974102194,-0.951416,0.0006713867,-0.37994385,-0.234375,0.96875,-0.0625
380,380,1727974102234,-0.9484863,0.0079956055,-0.38702393,-0.171875,0.875,-0.078125
381,381,1727974102274,-0.94384766,0.002380371,-0.38189697,0.203125,1.140625,-0.1875
382,382,1727974102314,-0.94750977,-0.006164551,-0.38165283,-0.28125,0.90625,-0.140625
383,383,1727974102354,-0.9465332,0.0004272461,-0.38043213,0.03125,1.09375,-0.015625
384,384,1727974102394,-0.94921875,-6.1035156e-05,-0.3867798,-0.25,0.921875,-0.09375
385,385,1727974102434,-0.9484863,-0.0064086914,-0.38067627,-0.421875,1.453125,0.03125
386,386,1727974102474,-0.94677734,-0.0025024414,-0.37799072,-0.15625,1.421875,0.0
387,387,1727974102514,-0.954834,-0.0017700195,-0.38165283,-0.203125,1.28125,-0.140625
388,388,1727974102554,-0.9465332,0.006286621,-0.378479,-0.296875,1.1875,-0.046875
389,389,1727974102594,-0.94677734,-0.0020141602,-0.37261963,-0.359375,1.328125,0.078125
390,390,1727974102634,-0.9436035,-0.00592041,-0.37408447,-0.03125,1.3125,-0.046875
391,391,1727974102674,-0.94970703,-0.004699707,-0.37994385,-0.453125,0.671875,0.09375
392,392,1727974102714,-0.9501953,0.0026245117,-0.380188,-0.265625,0.53125,-0.125
393,393,1727974102754,-0.9506836,-0.0029907227,-0.37139893,-0.46875,1.078125,-0.015625
394,394,1727974102794,-0.9543457,-6.1035156e-05,-0.3718872,-0.0625,1.234375,0.03125
395,395,1727974102834,-0.9555664,0.0028686523,-0.37384033,-0.1875,0.859375,0.0625
396,396,1727974102874,-0.95410156,0.003112793,-0.38043213,-0.671875,0.1875,0.046875
397,397,1727974102914,-0.94677734,0.0028686523,-0.3579712,0.140625,2.046875,-0.25
398,398,1727974102954,-0.953125,0.00091552734,-0.37677002,-0.609375,1.0625,0.046875
399,399,1727974102994,-0.9592285,-0.00030517578,-0.37042236,-0.53125,0.21875,0.078125
400,400,1727974103034,-0.9458008,0.0014038086,-0.36920166,0.46875,1.375,-0.09375
401,401,1727974103074,-0.94970703,-6.1035156e-05,-0.37384033,-1.3125,0.859375,-0.0625
402,402,1727974103114,-0.954834,-0.00030517578,-0.35821533,0.234375,1.5625,-0.203125
403,403,1727974103154,-0.9602051,-0.0010375977,-0.3694458,-0.515625,0.671875,-0.125
404,404,1727974103194,-0.9577637,-0.0064086914,-0.37457275,-0.359375,1.015625,0.0
405,405,1727974103234,-0.95947266,-0.002746582,-0.3616333,0.1875,1.25,0.0625
406,406,1727974103274,-0.9633789,-0.0025024414,-0.36431885,-0.53125,0.9375,0.109375
407,407,1727974103314,-0.95410156,-0.007873535,-0.3574829,-0.34375,1.65625,-0.21875
408,408,1727974103354,-0.95458984,0.0060424805,-0.3591919,-0.828125,1.578125,-0.046875
409,409,1727974103394,-0.9577637,0.0065307617,-0.35943604,-0.671875,1.421875,-0.09375
410,410,1727974103434,-0.95996094,-0.002746582,-0.35723877,-0.203125,1.390625,-0.203125
411,411,1727974103474,-0.95825195,-0.0044555664,-0.3526001,-0.21875,0.921875,-0.109375
412,412,1727974103514,-0.9580078,-0.0022583008,-0.35333252,0.015625,0.859375,-0.28125
413,413,1727974103554,-0.96240234,0.0004272461,-0.3567505,-0.265625,0.53125,-0.0625
414,414,1727974103594,-0.9511719,0.00018310547,-0.35455322,0.0625,0.5625,-0.109375
415,415,1727974103634,-0.9584961,0.00018310547,-0.35821533,0.09375,0.65625,-0.015625
416,416,1727974103674,-0.9628906,-0.002746582,-0.3555298,0.046875,0.984375,-0.1875
417,417,1727974103714,-0.9592285,-0.0037231445,-0.3562622,-0.328125,0.890625,-0.125
418,418,1727974103754,-0.9645996,-0.0005493164,-0.35772705,0.015625,0.9375,-0.140625
419,419,1727974103794,-0.95947266,-0.0005493164,-0.35211182,0.09375,0.96875,0.046875
420,420,1727974103834,-0.9555664,-0.004211426,-0.3484497,-0.03125,0.421875,0.03125
421,421,1727974103874,-0.95874023,-0.004211426,-0.35577393,-0.21875,0.390625,0.0
422,422,1727974103914,-0.9626465,-6.1035156e-05,-0.35308838,-0.328125,0.453125,-0.125
423,423,1727974103954,-0.9616699,-0.007385254,-0.35162354,-0.1875,0.78125,-0.09375
424,424,1727974103994,-0.96118164,0.0033569336,-0.35406494,-0.109375,0.78125,-0.15625
425,425,1727974104034,-0.96240234,0.00091552734,-0.34991455,-0.171875,0.515625,-0.0625
426,426,1727974104074,-0.95874023,-0.004699707,-0.35211182,-0.3125,0.484375,-0.03125
427,427,1727974104114,-0.9589844,0.00091552734,-0.33306885,0.46875,1.59375,-0.390625
428,428,1727974104154,-0.9597168,0.0004272461,-0.3526001,-0.25,0.59375,0.171875
429,429,1727974104194,-0.95092773,0.0028686523,-0.3562622,-0.703125,-0.15625,-0.375
430,430,1727974104234,-0.9614258,0.0038452148,-0.35357666,0.15625,1.046875,0.0
431,431,1727974104274,-0.95947266,-0.002746582,-0.347229,-0.84375,1.1875,-0.34375
432,432,1727974104314,-0.953125,0.0016479492,-0.33477783,0.59375,1.828125,-0.578125
433,433,1727974104354,-0.9680176,0.0021362305,-0.34527588,-0.234375,0.21875,0.015625
434,434,1727974104394,-0.9628906,0.001159668,-0.35113525,0.046875,0.640625,-0.0625
435,435,1727974104434,-0.9692383,0.0045776367,-0.34332275,0.375,0.0625,0.09375
436,436,1727974104474,-0.9609375,-0.0010375977,-0.3484497,-0.234375,-1.09375,0.09375
437,437,1727974104514,-0.9584961,0.0033569336,-0.33966064,0.734375,-0.9375,-0.171875
438,438,1727974104554,-0.95703125,0.0014038086,-0.35455322,-0.140625,-1.484375,0.15625
439,439,1727974104594,-0.9580078,-0.008361816,-0.35211182,-0.046875,-0.921875,0.03125
440,440,1727974104634,-0.9614258,0.0021362305,-0.35723877,0.125,-1.234375,-0.140625
441,441,1727974104674,-0.95410156,-0.0037231445,-0.35333252,-0.1875,-1.875,-0.09375
442,442,1727974104714,-0.954834,-0.0015258789,-0.36358643,-0.453125,-1.796875,-0.046875
443,443,1727974104754,-0.9633789,-0.0032348633,-0.3657837,-0.453125,-2.078125,-0.25
444,444,1727974104794,-0.94970703,0.00018310547,-0.36627197,-0.375,-1.546875,-0.09375
445,445,1727974104834,-0.9538574,-0.00030517578,-0.37628174,-0.765625,-1.5625,-0.109375
446,446,1727974104874,-0.95092773,-0.00079345703,-0.37677002,-0.53125,-1.3125,-0.328125
447,447,1727974104914,-0.9482422,-0.0015258789,-0.3743286,-0.328125,-1.015625,-0.078125
448,448,1727974104954,-0.9470215,-0.0029907227,-0.37628174,-0.359375,-1.125,-0.15625
449,449,1727974104994,-0.9477539,-0.003967285,-0.3826294,-0.40625,-1.25,-0.109375
450,450,1727974105034,-0.9555664,-0.0029907227,-0.3821411,-0.375,-1.078125,-0.140625
451,451,1727974105074,-0.9499512,-0.003479004,-0.37774658,-0.34375,-0.859375,-0.140625
452,452,1727974105114,-0.9460449,0.0014038086,-0.38555908,-0.59375,-1.453125,-0.171875
453,453,1727974105154,-0.94555664,0.002380371,-0.38067627,-0.515625,-0.96875,-0.203125
454,454,1727974105194,-0.94628906,-6.1035156e-05,-0.3928833,-0.359375,-1.171875,-0.1875
455,455,1727974105234,-0.9440918,-0.0015258789,-0.39019775,-0.578125,-1.328125,-0.125
456,456,1727974105274,-0.9406738,-0.0012817383,-0.39239502,-0.703125,-1.359375,-0.453125
457,457,1727974105314,-0.9423828,-0.004699707,-0.39190674,-0.046875,-1.171875,-0.328125
458,458,1727974105354,-0.94091797,-0.00592041,-0.3977661,-0.34375,-1.25,-0.359375
459,459,1727974105394,-0.94140625,0.0040893555,-0.40093994,-0.78125,-0.734375,-0.328125
460,460,1727974105434,-0.9440918,-0.0032348633,-0.41046143,-0.90625,-0.09375,-0.125
461,461,1727974105474,-0.9404297,-0.0076293945,-0.39093018,0.15625,0.328125,-0.1875
462,462,1727974105514,-0.9399414,-0.0017700195,-0.395813,-0.046875,-0.53125,-0.109375
463,463,1727974105554,-0.94677734,0.0014038086,-0.40826416,-0.6875,-1.09375,-0.296875
464,464,1727974105594,-0.935791,-6.1035156e-05,-0.4019165,0.015625,-0.125,-0.15625
465,465,1727974105634,-0.9375,-0.0012817383,-0.39801025,-0.265625,-0.5625,0.046875
466,466,1727974105674,-0.9333496,-0.00592041,-0.4024048,-0.375,-0.40625,0.015625
467,467,1727974105714,-0.94262695,-0.0012817383,-0.40948486,-0.34375,-0.796875,-0.1875
468,468,1727974105754,-0.9382324,0.0026245117,-0.40386963,-0.59375,-0.78125,-0.265625
469,469,1727974105794,-0.9277344,-0.0064086914,-0.39849854,0.171875,0.859375,-0.265625
470,470,1727974105834,-0.9326172,0.007507324,-0.39678955,0.0625,0.671875,-0.171875
471,471,1727974105874,-0.93652344,0.008239746,-0.41192627,-0.1875,0.46875,-0.21875
472,472,1727974105914,-0.9404297,-0.0044555664,-0.40142822,-0.078125,1.0625,-0.09375
473,473,1727974105954,-0.93847656,0.0036010742,-0.4109497,-0.375,1.359375,0.0
474,474,1727974105994,-0.9333496,0.0018920898,-0.40533447,0.015625,1.625,-0.09375
475,475,1727974106034,-0.9448242,-0.0037231445,-0.4006958,0.03125,1.515625,-0.125
476,476,1727974106074,-0.94091797,-0.004211426,-0.39752197,-0.0625,1.203125,0.078125
477,477,1727974106114,-0.935791,-0.006652832,-0.4006958,-0.078125,1.0,-0.140625
478,478,1727974106154,-0.9445801,0.005065918,-0.39971924,-0.15625,0.921875,-0.078125
479,479,1727974106194,-0.9316406,0.0004272461,-0.39630127,-0.078125,0.96875,-0.0625
480,480,1727974106234,-0.93774414,-0.0012817383,-0.40167236,-0.078125,1.375,-0.03125
481,481,1727974106274,-0.9394531,0.001159668,-0.39434814,-0.328125,1.34375,-0.015625
482,482,1727974106314,-0.9406738,0.0038452148,-0.40020752,-0.625,1.40625,-0.0625
483,483,1727974106354,-0.9440918,-0.0015258789,-0.3867798,0.390625,1.90625,0.0
484,484,1727974106394,-0.94018555,-0.0022583008,-0.3899536,-0.21875,1.03125,0.09375
485,485,1727974106434,-0.94262695,0.0072631836,-0.3965454,-0.515625,0.265625,-0.203125
486,486,1727974106474,-0.9445801,0.002380371,-0.3953247,0.3125,1.265625,-0.015625
487,487,1727974106514,-0.9416504,-0.002746582,-0.380188,-0.421875,1.34375,-0.265625
488,488,1727974106554,-0.9387207,-6.1035156e-05,-0.380188,0.109375,1.09375,-0.109375
489,489,1727974106594,-0.9458008,0.0021362305,-0.3892212,-0.671875,0.8125,0.0
490,490,1727974106634,-0.9453125,0.007751465,-0.38458252,0.421875,1.5625,-0.125
491,491,1727974106674,-0.95092773,-0.0017700195,-0.3899536,-0.40625,1.0625,0.1875
492,492,1727974106714,-0.9404297,0.0026245117,-0.38238525,0.0625,1.1875,-0.0625
493,493,1727974106754,-0.95092773,0.00091552734,-0.37579346,0.4375,0.828125,-0.046875
494,494,1727974106794,-0.9445801,0.0048217773,-0.3826294,-0.078125,0.109375,-0.0625
495,495,1727974106834,-0.94750977,-0.0029907227,-0.38238525,0.015625,0.984375,-0.015625
496,496,1727974106874,-0.94628906,0.003112793,-0.38287354,-0.03125,0.71875,-0.203125
497,497,1727974106914,-0.94677734,-0.0032348633,-0.37872314,-0.46875,0.4375,0.0625
498,498,1727974106954,-0.95214844,-0.003479004,-0.38287354,0.140625,0.78125,-0.046875
499,499,1727974106994,-0.9465332,0.0028686523,-0.3821411,-0.28125,0.484375,-0.109375
500,500,1727974107034,-0.9460449,-0.007873535,-0.3789673,0.03125,0.78125,-0.078125
501,501,1727974107074,-0.94555664,-0.0068969727,-0.38482666,-0.0625,0.9375,-0.0625
502,502,1727974107114,-0.95092773,0.0004272461,-0.37408447,-0.21875,1.234375,-0.03125
503,503,1727974107154,-0.94262695,0.004333496,-0.37554932,0.078125,1.125,-0.0625
504,504,1727974107194,-0.9484863,0.0033569336,-0.37823486,-0.15625,0.9375,-0.03125
505,505,1727974107234,-0.94750977,0.005554199,-0.37457275,-0.03125,0.859375,-0.265625
506,506,1727974107274,-0.9506836,0.0028686523,-0.3723755,0.046875,0.765625,-0.203125
507,507,1727974107314,-0.9511719,-0.0022583008,-0.37701416,-0.109375,0.671875,-0.03125
508,508,1727974107354,-0.94555664,0.00091552734,-0.3718872,-0.296875,0.875,-0.09375
509,509,1727974107394,-0.95288086,-6.1035156e-05,-0.37408447,-0.328125,0.953125,-0.03125
510,510,1727974107434,-0.9592285,-0.002746582,-0.37554932,-0.296875,0.734375,0.015625
511,511,1727974107474,-0.9523926,0.0004272461,-0.36676025,-0.1875,0.890625,-0.125
512,512,1727974107514,-0.95458984,0.0026245117,-0.3706665,-0.359375,0.84375,0.0625
513,513,1727974107554,-0.9555664,-0.003479004,-0.36846924,-0.25,0.953125,-0.203125
514,514,1727974107594,-0.9499512,-6.1035156e-05,-0.3718872,-0.71875,0.875,0.03125
515,515,1727974107634,-0.95532227,-0.0025024414,-0.37994385,0.15625,0.625,0.015625
516,516,1727974107674,-0.9477539,-0.002746582,-0.3706665,-0.3125,0.546875,-0.140625
517,517,1727974107714,-0.95166016,0.0036010742,-0.3567505,0.109375,1.265625,-0.109375
518,518,1727974107754,-0.96069336,0.001159668,-0.38238525,-1.375,0.328125,0.0625
519,519,1727974107794,-0.95166016,-0.011779785,-0.36968994,-0.296875,1.515625,-0.140625
520,520,1727974107834,-0.9506836,-0.00030517578,-0.36602783,0.234375,1.5,-0.203125
521,521,1727974107874,-0.9614258,0.00018310547,-0.37017822,-0.5,1.078125,-0.140625
522,522,1727974107914,-0.95458984,-0.0037231445,-0.36309814,-0.015625,1.328125,-0.078125
523,523,1727974107954,-0.9580078,0.0021362305,-0.3587036,-0.375,0.8125,0.09375
524,524,1727974107994,-0.9567871,-0.0076293945,-0.36553955,-0.328125,1.0625,0.03125
525,525,1727974108034,-0.9519043,-0.003967285,-0.36968994,-0.125,1.078125,-0.140625
526,526,1727974108074,-0.9511719,0.0014038086,-0.3682251,-0.59375,1.0625,-0.234375
527,527,1727974108114,-0.9597168,-0.0012817383,-0.36260986,-0.125,1.8125,-0.140625
528,528,1727974108154,-0.9604492,0.00579834,-0.36260986,-0.21875,1.296875,-0.109375
529,529,1727974108194,-0.9580078,-0.00030517578,-0.36016846,-0.578125,0.90625,-0.078125
530,530,1727974108234,-0.9580078,-0.00030517578,-0.3587036,-0.234375,1.171875,-0.140625
531,531,1727974108274,-0.95751953,-0.0022583008,-0.35723877,-0.40625,0.96875,-0.09375
532,532,1727974108314,-0.9597168,-6.1035156e-05,-0.3550415,-0.4375,1.171875,-0.203125
533,533,1727974108354,-0.9536133,-0.0005493164,-0.35528564,-0.625,1.328125,-0.109375
534,534,1727974108394,-0.9602051,0.0060424805,-0.35333252,-0.328125,1.0625,-0.078125
535,535,1727974108434,-0.9609375,-0.004699707,-0.34332275,-0.140625,0.8125,-0.140625
536,536,1727974108474,-0.9663086,0.0021362305,-0.35479736,-0.390625,0.59375,-0.03125
537,537,1727974108514,-0.9567871,-0.009094238,-0.35650635,-0.40625,0.34375,0.046875
538,538,1727974108554,-0.96069336,0.0016479492,-0.3501587,-0.375,0.484375,-0.1875
539,539,1727974108594,-0.96435547,0.0006713867,-0.35064697,-0.34375,0.59375,-0.078125
540,540,1727974108634,-0.95874023,-0.004211426,-0.35284424,-0.4375,0.796875,0.03125
541,541,1727974108674,-0.9609375,-0.0010375977,-0.3538208,-0.328125,0.703125,0.0625
542,542,1727974108714,-0.9562988,-0.0029907227,-0.35064697,-0.296875,0.578125,-0.171875
543,543,1727974108754,-0.96362305,0.00018310547,-0.3538208,-0.1875,0.578125,-0.15625
544,544,1727974108794,-0.9580078,-0.0044555664,-0.34796143,-0.390625,0.34375,-0.09375
545,545,1727974108834,-0.95947266,0.0021362305,-0.35064697,-0.515625,0.78125,-0.3125
546,546,1727974108874,-0.96313477,-0.003479004,-0.35333252,-0.1875,0.5,-0.09375
547,547,1727974108914,-0.96655273,-0.004211426,-0.3513794,-0.46875,-0.109375,0.0625
548,548,1727974108954,-0.96118164,0.0021362305,-0.33892822,0.53125,1.53125,-0.09375
549,549,1727974108994,-0.96484375,-0.0032348633,-0.36383057,-1.515625,0.5625,0.21875
550,550,1727974109034,-0.96484375,-0.0056762695,-0.34747314,-0.0625,1.953125,-0.5
551,551,1727974109074,-0.9577637,0.0021362305,-0.34454346,0.265625,1.03125,-0.15625
552,552,1727974109114,-0.9716797,0.0014038086,-0.34454346,-0.734375,0.203125,-0.03125
553,553,1727974109154,-0.967041,-0.0022583008,-0.34698486,-0.015625,0.8125,-0.140625
554,554,1727974109194,-0.96533203,-0.0022583008,-0.3399048,0.046875,0.96875,0.140625
555,555,1727974109234,-0.9628906,-0.002746582,-0.34869385,-0.171875,0.265625,0.1875
556,556,1727974109274,-0.9650879,-0.00030517578,-0.34649658,-0.40625,-0.21875,-0.109375
557,557,1727974109314,-0.9628906,0.0004272461,-0.34552002,-0.546875,0.21875,-0.046875
558,558,1727974109354,-0.95874023,-0.002746582,-0.34649658,0.203125,0.890625,-0.1875
559,559,1727974109394,-0.96069336,0.0021362305,-0.34210205,-0.171875,-0.140625,-0.078125
560,560,1727974109434,-0.9609375,-0.0032348633,-0.3501587,-0.1875,-0.109375,-0.25
561,561,1727974109474,-0.96606445,-0.004699707,-0.34747314,-0.25,0.453125,0.0
562,562,1727974109514,-0.9633789,-0.002746582,-0.34625244,-0.171875,0.390625,0.03125
563,563,1727974109554,-0.96240234,-0.0044555664,-0.3418579,0.015625,-0.03125,-0.015625
564,564,1727974109594,-0.96362305,-0.0015258789,-0.3477173,-0.265625,-1.125,0.0625
565,565,1727974109634,-0.96313477,-0.0010375977,-0.3447876,-0.046875,-1.625,-0.078125
566,566,1727974109674,-0.96069336,-0.004699707,-0.3508911,-0.078125,-1.390625,-0.15625
567,567,1727974109714,-0.95874023,-0.0071411133,-0.3550415,-0.015625,-1.765625,-0.15625
568,568,1727974109754,-0.95874023,0.0018920898,-0.35406494,-0.140625,-1.671875,-0.125
569,569,1727974109794,-0.9592285,-0.00079345703,-0.35308838,-0.421875,-1.625,-0.171875
570,570,1727974109834,-0.9555664,-0.006652832,-0.36627197,-0.484375,-1.5625,-0.265625
571,571,1727974109874,-0.9523926,-0.008361816,-0.37042236,-0.421875,-1.421875,-0.234375
572,572,1727974109914,-0.95288086,-0.0010375977,-0.36114502,-0.5625,-1.28125,-0.03125
573,573,1727974109954,-0.95336914,-0.0015258789,-0.3723755,-0.34375,-1.546875,-0.140625
574,574,1727974109994,-0.95092773,0.001159668,-0.37164307,-0.546875,-1.78125,-0.078125
575,575,1727974110034,-0.94091797,0.0004272461,-0.38043213,-0.875,-1.375,-0.140625
576,576,1727974110074,-0.95751953,-0.0022583008,-0.38311768,-0.234375,-0.875,-0.109375
577,577,1727974110114,-0.94799805,-0.004699707,-0.37164307,-0.375,-1.171875,-0.15625
578,578,1727974110154,-0.94921875,-0.0049438477,-0.36920166,0.03125,-0.390625,-0.1875
579,579,1727974110194,-0.9555664,-0.002746582,-0.3892212,-1.546875,-1.28125,0.015625
580,580,1727974110234,-0.94384766,-0.0049438477,-0.3789673,-0.109375,-0.5625,-0.359375
581,581,1727974110274,-0.9477539,0.003112793,-0.38287354,-0.046875,-1.453125,-0.09375
582,582,1727974110314,-0.94018555,-0.00030517578,-0.3945923,-0.875,-1.6875,-0.203125
583,583,1727974110354,-0.9453125,0.0036010742,-0.38970947,-0.203125,-0.859375,-0.109375
584,584,1727974110394,-0.9453125,-0.00079345703,-0.39019775,-0.5,-0.890625,-0.125
585,585,1727974110434,-0.9436035,-0.0032348633,-0.3904419,-0.5625,-1.15625,-0.03125
586,586,1727974110474,-0.94262695,-0.0005493164,-0.40093994,-0.53125,-1.703125,0.046875
587,587,1727974110514,-0.9309082,-0.00079345703,-0.39971924,-0.703125,-1.5625,-0.1875
588,588,1727974110554,-0.9304199,-0.0044555664,-0.39337158,0.0625,-0.640625,-0.265625
589,589,1727974110594,-0.9379883,-0.0010375977,-0.39849854,-0.390625,-1.375,-0.21875
590,590,1727974110634,-0.93774414,0.0021362305,-0.40460205,-0.21875,-1.109375,-0.234375
591,591,1727974110674,-0.93237305,-0.0017700195,-0.40411377,-0.203125,-0.6875,-0.1875
592,592,1727974110714,-0.9416504,-0.0049438477,-0.4085083,-0.484375,-1.0,-0.1875
593,593,1727974110754,-0.93188477,-0.0051879883,-0.40826416,-0.375,-0.6875,-0.171875
594,594,1727974110794,-0.93896484,-0.006164551,-0.40753174,-0.40625,-0.453125,-0.15625
595,595,1727974110834,-0.9345703,-0.0071411133,-0.40802002,-0.34375,-0.328125,-0.265625
596,596,1727974110874,-0.9316406,-0.0032348633,-0.40899658,-0.203125,-0.109375,-0.34375
597,597,1727974110914,-0.9304199,-0.0025024414,-0.40948486,-0.21875,0.109375,-0.265625
598,598,1727974110954,-0.9291992,-6.1035156e-05,-0.41583252,-0.09375,0.703125,-0.25
599,599,1727974110994,-0.9313965,-0.0051879883,-0.40460205,0.078125,1.015625,-0.0625
600,600,1727974111034,-0.93774414,-0.004211426,-0.40704346,-0.40625,0.84375,-0.21875
601,601,1727974111074,-0.9370117,0.0026245117,-0.4133911,-0.28125,0.546875,-0.0625
602,602,1727974111114,-0.93408203,0.0006713867,-0.39874268,-0.09375,1.296875,-0.234375
603,603,1727974111154,-0.9406738,0.00018310547,-0.41168213,-0.28125,0.75,-0.046875
604,604,1727974111194,-0.93603516,-0.0032348633,-0.40216064,-0.03125,0.734375,-0.0625
605,605,1727974111234,-0.93115234,-0.0010375977,-0.3928833,0.421875,1.9375,-0.078125
606,606,1727974111274,-0.93481445,0.002380371,-0.40411377,-0.984375,0.90625,0.078125
607,607,1727974111314,-0.9328613,-0.006652832,-0.394104,0.453125,0.984375,-0.25
608,608,1727974111354,-0.93774414,0.00091552734,-0.4043579,-0.296875,0.3125,-0.1875
609,609,1727974111394,-0.9404297,-6.1035156e-05,-0.40411377,-0.140625,0.859375,-0.203125
610,610,1727974111434,-0.939209,0.001159668,-0.41192627,-0.296875,1.0,0.0625
611,611,1727974111474,-0.9345703,-0.006652832,-0.3945923,0.140625,1.3125,-0.15625
612,612,1727974111514,-0.9343262,-0.0020141602,-0.39117432,-0.328125,1.234375,-0.015625
613,613,1727974111554,-0.9382324,-0.0020141602,-0.39801025,-0.125,1.078125,-0.140625
614,614,1727974111594,-0.94018555,-0.0044555664,-0.3994751,-0.546875,1.375,-0.296875
615,615,1727974111634,-0.9460449,-0.0051879883,-0.3928833,0.0,2.140625,-0.125
616,616,1727974111674,-0.94091797,-0.0068969727,-0.3838501,-0.078125,1.140625,-0.265625
617,617,1727974111714,-0.94873047,-0.011291504,-0.39337158,0.0625,0.90625,-0.0625
618,618,1727974111754,-0.9477539,-0.004699707,-0.395813,-0.21875,1.0625,-0.0625
619,619,1727974111794,-0.9433594,0.0018920898,-0.38848877,-0.125,1.515625,-0.1875
620,620,1727974111834,-0.9458008,-0.0017700195,-0.39019775,-0.53125,1.171875,0.078125
621,621,1727974111874,-0.93969727,-0.011047363,-0.38775635,-0.109375,1.28125,-0.15625
622,622,1727974111914,-0.94921875,0.0026245117,-0.3904419,-0.265625,1.328125,-0.015625
623,623,1727974111954,-0.94262695,-6.1035156e-05,-0.38482666,-0.171875,1.59375,-0.171875
624,624,1727974111994,-0.9470215,-0.00079345703,-0.3899536,-0.03125,1.921875,-0.03125
625,625,1727974112034,-0.9416504,0.0004272461,-0.38287354,0.09375,1.890625,-0.125
626,626,1727974112074,-0.95166016,-0.00079345703,-0.38238525,-0.21875,1.59375,0.0
627,627,1727974112114,-0.9523926,-0.00079345703,-0.37799072,-0.40625,1.03125,0.0625
628,628,1727974112154,-0.9494629,-0.004699707,-0.38360596,-0.90625,0.921875,0.046875
629,629,1727974112194,-0.9519043,-0.003479004,-0.36773682,0.828125,1.984375,-0.140625
630,630,1727974112234,-0.94970703,-0.0020141602,-0.37384033,-0.25,0.578125,0.125
631,631,1727974112274,-0.9484863,0.0026245117,-0.36993408,-0.28125,0.8125,-0.09375
632,632,1727974112314,-0.9536133,-0.0010375977,-0.38653564,-0.359375,0.765625,0.03125
633,633,1727974112354,-0.9523926,-0.005432129,-0.37286377,-0.453125,1.5,-0.109375
634,634,1727974112394,-0.94311523,0.0033569336,-0.36920166,0.515625,1.75,-0.328125
635,635,1727974112434,-0.9592285,-0.0005493164,-0.3711548,-0.765625,0.703125,-0.015625
636,636,1727974112474,-0.9499512,-0.0010375977,-0.37335205,-0.015625,1.21875,-0.109375
637,637,1727974112514,-0.95092773,-0.0068969727,-0.3718872,-0.375,1.1875,0.015625
638,638,1727974112554,-0.94921875,-0.0032348633,-0.3718872,-0.203125,1.046875,0.03125
639,639,1727974112594,-0.9511719,-0.0020141602,-0.37017822,0.296875,1.171875,-0.28125
640,640,1727974112634,-0.9550781,-0.002746582,-0.36895752,-0.421875,0.40625,-0.09375
641,641,1727974112674,-0.95458984,-0.003967285,-0.36431885,-0.21875,1.21875,-0.078125
642,642,1727974112714,-0.9536133,0.0021362305,-0.3670044,0.09375,0.703125,-0.171875
643,643,1727974112754,-0.9602051,-6.1035156e-05,-0.36358643,-0.296875,0.890625,0.0625
644,644,1727974112794,-0.95825195,0.0004272461,-0.3640747,0.015625,1.40625,-0.25
645,645,1727974112834,-0.95703125,-6.1035156e-05,-0.37335205,-0.421875,0.9375,-0.078125
646,646,1727974112874,-0.95214844,-0.0068969727,-0.36309814,-0.171875,1.09375,-0.109375
647,647,1727974112914,-0.95947266,0.0026245117,-0.3633423,-0.25,1.21875,0.046875
648,648,1727974112954,-0.9628906,-0.0025024414,-0.36016846,-0.1875,1.125,-0.125
649,649,1727974112994,-0.9567871,-0.0032348633,-0.35577393,-0.265625,1.3125,-0.03125
650,650,1727974113034,-0.95214844,-0.003967285,-0.36138916,-0.1875,1.015625,-0.078125
651,651,1727974113074,-0.9555664,-0.0010375977,-0.35845947,-0.265625,0.984375,-0.1875
652,652,1727974113114,-0.9506836,-6.1035156e-05,-0.3562622,-0.234375,0.796875,0.0625
653,653,1727974113154,-0.9526367,-0.0025024414,-0.3591919,-0.5,0.953125,-0.046875
654,654,1727974113194,-0.9567871,0.00091552734,-0.3640747,0.0,0.609375,-0.078125
655,655,1727974113234,-0.9555664,-0.002746582,-0.35430908,0.0,0.40625,0.0
656,656,1727974113274,-0.9538574,-0.002746582,-0.35821533,-0.203125,0.453125,-0.125
657,657,1727974113314,-0.95703125,-0.0005493164,-0.35479736,-0.171875,0.4375,-0.078125
658,658,1727974113354,-0.9562988,-0.0015258789,-0.3616333,-0.71875,0.28125,-0.15625
659,659,1727974113394,-0.95947266,-0.005432129,-0.3633423,0.0625,0.671875,-0.15625
660,660,1727974113434,-0.9604492,-0.003967285,-0.35455322,-0.359375,-0.234375,0.140625
661,661,1727974113474,-0.9555664,-0.0056762695,-0.34014893,0.375,1.09375,-0.171875
662,662,1727974113514,-0.9604492,0.002380371,-0.36553955,-1.3125,0.171875,0.09375
663,663,1727974113554,-0.9584961,-0.0064086914,-0.34991455,-0.09375,1.390625,-0.546875
664,664,1727974113594,-0.9562988,0.004333496,-0.35308838,0.1875,0.984375,-0.25
665,665,1727974113634,-0.9626465,-0.0022583008,-0.35577393,-0.8125,0.421875,-0.0625
666,666,1727974113674,-0.9580078,0.002380371,-0.35650635,0.09375,1.140625,-0.109375
667,667,1727974113714,-0.96313477,-0.0032348633,-0.35113525,-0.234375,0.875,-0.078125
668,668,1727974113754,-0.96533203,-0.0005493164,-0.34820557,-0.328125,0.53125,-0.015625
669,669,1727974113794,-0.96533203,0.0033569336,-0.35821533,-0.03125,-0.265625,-0.140625
670,670,1727974113834,-0.951416,-0.0012817383,-0.3562622,0.046875,-0.109375,-0.09375
671,671,1727974113874,-0.9628906,-0.0010375977,-0.34649658,0.453125,1.265625,-0.171875
672,672,1727974113914,-0.9604492,0.003112793,-0.34625244,0.140625,0.234375,-0.15625
673,673,1727974113954,-0.9638672,-0.0037231445,-0.35235596,-0.3125,-0.25,-0.15625
674,674,1727974113994,-0.9655762,-0.00079345703,-0.34625244,0.09375,0.078125,-0.046875
675,675,1727974114034,-0.9614258,-0.004211426,-0.34552002,0.25,-0.296875,0.015625
676,676,1727974114074,-0.9663086,-0.004211426,-0.35333252,-0.046875,-1.328125,0.09375
677,677,1727974114114,-0.9538574,-0.003479004,-0.35308838,-0.328125,-1.203125,-0.078125
678,678,1727974114154,-0.95581055,0.0048217773,-0.35699463,-0.328125,-1.3125,-0.09375
679,679,1727974114194,-0.9592285,-0.0025024414,-0.36187744,-0.421875,-1.375,-0.078125
680,680,1727974114234,-0.9589844,0.0006713867,-0.36212158,-0.4375,-1.484375,-0.078125
681,681,1727974114274,-0.96118164,0.00018310547,-0.36480713,-0.203125,-1.46875,-0.171875
682,682,1727974114314,-0.95458984,-0.0029907227,-0.37213135,-0.390625,-1.5,-0.171875
683,683,1727974114354,-0.9538574,-0.0020141602,-0.36676025,-0.4375,-1.46875,-0.171875
684,684,1727974114394,-0.9482422,0.0028686523,-0.3731079,-0.40625,-1.40625,-0.0625
685,685,1727974114434,-0.9555664,-0.0022583008,-0.37579346,-0.609375,-1.59375,-0.125
686,686,1727974114474,-0.9523926,-0.0005493164,-0.3723755,-0.59375,-1.65625,-0.015625
687,687,1727974114514,-0.94677734,-0.0017700195,-0.37335205,-0.796875,-1.421875,-0.21875
688,688,1727974114554,-0.9506836,-0.0012817383,-0.39117432,-0.59375,-1.765625,-0.0625
689,689,1727974114594,-0.9465332,0.0028686523,-0.38360596,-0.53125,-1.75,-0.15625
690,690,1727974114634,-0.94384766,-0.0037231445,-0.38043213,0.28125,-0.359375,-0.1875
691,691,1727974114674,-0.94555664,-0.003479004,-0.40045166,-1.625,-1.09375,-0.046875
692,692,1727974114714,-0.9416504,-0.006164551,-0.37701416,0.125,-0.34375,-0.328125
693,693,1727974114754,-0.93896484,-0.0010375977,-0.39239502,-0.40625,-1.5625,-0.109375
694,694,1727974114794,-0.9394531,-0.0025024414,-0.3904419,-0.6875,-1.5625,-0.234375
695,695,1727974114834,-0.9416504,0.006286621,-0.40020752,-0.4375,-0.96875,-0.171875
696,696,1727974114874,-0.9433594,0.0021362305,-0.39068604,-0.328125,-0.9375,-0.125
697,697,1727974114914,-0.9416504,-0.00592041,-0.3928833,-0.328125,-0.796875,-0.046875
698,698,1727974114954,-0.9436035,-0.0051879883,-0.39874268,-0.34375,-1.125,-0.140625
699,699,1727974114994,-0.94262695,0.001159668,-0.39556885,-0.59375,-1.09375,-0.03125
700,700,1727974115034,-0.93969727,0.005065918,-0.4043579,-0.359375,-0.75,-0.1875
701,701,1727974115074,-0.9350586,-0.0051879883,-0.40167236,-0.296875,-0.984375,-0.25
702,702,1727974115114,-0.9394531,-0.0064086914,-0.40753174,-0.203125,-0.6875,-0.234375
703,703,1727974115154,-0.93774414,0.0004272461,-0.4085083,-0.140625,-0.546875,-0.25
704,704,1727974115194,-0.9370117,0.0016479492,-0.4043579,-0.34375,-0.390625,-0.15625
705,705,1727974115234,-0.9304199,-0.0012817383,-0.40704346,-0.40625,-0.546875,-0.1875
706,706,1727974115274,-0.9279785,-0.0025024414,-0.41461182,-0.359375,-0.28125,-0.265625
707,707,1727974115314,-0.9265137,-0.0012817383,-0.4109497,-0.390625,0.1875,-0.21875
708,708,1727974115354,-0.93652344,-0.0015258789,-0.40899658,-0.203125,0.734375,-0.234375
709,709,1727974115394,-0.92700195,-0.0012817383,-0.40875244,0.09375,1.359375,-0.265625
710,710,1727974115434,-0.9387207,-0.0015258789,-0.40924072,-0.125,1.421875,-0.125
711,711,1727974115474,-0.93530273,0.00091552734,-0.4072876,-0.0625,1.078125,0.03125
712,712,1727974115514,-0.93530273,0.0040893555,-0.40704346,-0.421875,1.0625,-0.078125
713,713,1727974115554,-0.9379883,0.0006713867,-0.4031372,-0.625,0.984375,0.171875
714,714,1727974115594,-0.9394531,-0.0056762695,-0.40753174,0.203125,1.296875,0.21875
715,715,1727974115634,-0.9355469,0.0004272461,-0.4060669,-0.28125,0.953125,-0.15625
716,716,1727974115674,-0.94189453,-0.0029907227,-0.40118408,-0.34375,1.65625,-0.25
717,717,1727974115714,-0.9428711,-0.0015258789,-0.41436768,-0.453125,1.734375,0.171875
718,718,1727974115754,-0.94091797,-0.0068969727,-0.39605713,-0.234375,1.609375,-0.15625
719,719,1727974115794,-0.9394531,0.00018310547,-0.39556885,0.140625,1.109375,-0.140625
720,720,1727974115834,-0.9399414,-0.0022583008,-0.4036255,-0.234375,0.84375,-0.078125
721,721,1727974115874,-0.9394531,-0.006164551,-0.3965454,0.03125,1.46875,-0.09375
722,722,1727974115914,-0.9433594,-0.0020141602,-0.3916626,-0.140625,1.640625,-0.015625
723,723,1727974115954,-0.94628906,-0.007385254,-0.39385986,-0.1875,1.640625,0.078125
724,724,1727974115994,-0.94506836,-0.002746582,-0.39190674,0.046875,1.5,-0.03125
725,725,1727974116034,-0.94555664,-0.0022583008,-0.39312744,-0.328125,1.125,-0.078125
726,726,1727974116074,-0.9465332,-0.0032348633,-0.38726807,0.0625,2.0625,-0.234375
727,727,1727974116114,-0.9367676,-0.0005493164,-0.3887329,-0.234375,1.296875,-0.078125
728,728,1727974116154,-0.9440918,0.0026245117,-0.38848877,-0.203125,1.0625,-0.09375
729,729,1727974116194,-0.94921875,0.0018920898,-0.3875122,-0.0625,1.5625,-0.15625
730,730,1727974116234,-0.94189453,-0.0015258789,-0.38238525,-0.265625,1.65625,-0.046875
731,731,1727974116274,-0.94921875,0.002380371,-0.3826294,-0.265625,1.859375,-0.015625
732,732,1727974116314,-0.94799805,0.003112793,-0.3796997,-0.28125,2.203125,0.046875
733,733,1727974116354,-0.9501953,0.0028686523,-0.3809204,-0.09375,2.09375,-0.09375
734,734,1727974116394,-0.953125,0.0004272461,-0.37872314,-0.171875,1.75,-0.0625
735,735,1727974116434,-0.94750977,0.0006713867,-0.37335205,-0.171875,1.703125,0.046875
736,736,1727974116474,-0.9506836,0.005065918,-0.3706665,0.15625,1.5625,0.0
737,737,1727974116514,-0.94921875,0.002380371,-0.3723755,-0.03125,1.671875,0.03125
738,738,1727974116554,-0.95214844,-0.008117676,-0.3640747,-0.125,1.6875,-0.015625
739,739,1727974116594,-0.9489746,0.0014038086,-0.36993408,-0.453125,1.5,-0.03125
740,740,1727974116634,-0.9592285,-0.0005493164,-0.35430908,0.640625,2.5,-0.21875
741,741,1727974116674,-0.95532227,0.00579834,-0.36138916,-0.15625,1.3125,0.21875
742,742,1727974116714,-0.95336914,0.0004272461,-0.36749268,-0.8125,-0.140625,-0.21875
743,743,1727974116754,-0.95288086,0.006286621,-0.362854,1.421875,0.28125,0.078125
744,744,1727974116794,-0.9543457,0.00579834,-0.37408447,0.859375,-0.234375,0.0
745,745,1727974116834,-0.9499512,0.004333496,-0.35162354,1.109375,1.765625,-0.21875
746,746,1727974116874,-0.95214844,-0.0012817383,-0.35699463,0.09375,0.53125,-0.03125
747,747,1727974116914,-0.95336914,0.0016479492,-0.37042236,-0.28125,0.6875,-0.109375
748,748,1727974116954,-0.9543457,0.0021362305,-0.3604126,0.171875,0.953125,0.0625
749,749,1727974116994,-0.9511719,0.008728027,-0.3616333,-0.140625,1.03125,0.03125
750,750,1727974117034,-0.95654297,-0.0022583008,-0.3538208,0.09375,1.234375,-0.109375
751,751,1727974117074,-0.9580078,0.0067749023,-0.35992432,0.046875,1.03125,0.015625
752,752,1727974117114,-0.9536133,-0.0029907227,-0.35333252,-0.25,1.21875,0.015625
753,753,1727974117154,-0.9675293,0.005065918,-0.35723877,0.078125,1.4375,-0.390625
754,754,1727974117194,-0.9641113,0.0018920898,-0.35308838,-0.53125,0.703125,0.125
755,755,1727974117234,-0.9572754,-0.003479004,-0.3501587,-0.328125,0.671875,0.015625
756,756,1727974117274,-0.96484375,0.0014038086,-0.3562622,-0.65625,0.46875,-0.046875
757,757,1727974117314,-0.95532227,-0.0010375977,-0.3513794,-0.296875,0.859375,-0.046875
758,758,1727974117354,-0.9628906,0.0021362305,-0.347229,-0.109375,1.078125,-0.0625
759,759,1727974117394,-0.9614258,-0.002746582,-0.3513794,-0.140625,-0.21875,0.09375
