,Unnamed: 0,timestamp,accel_x,accel_y,accel_z,gyro_x,gyro_y,gyro_z
0,0,1728000051883,-0.6501465,0.027770996,-0.78790283,-0.1875,0.984375,0.3125
1,1,1728000051923,-0.64746094,0.02923584,-0.7913208,-0.296875,0.953125,0.15625
2,2,1728000051963,-0.6533203,0.028503418,-0.784729,-0.1875,1.09375,0.140625
3,3,1728000052003,-0.654541,0.036071777,-0.7866821,-0.296875,0.8125,0.3125
4,4,1728000052043,-0.6513672,0.03363037,-0.786438,-0.46875,1.046875,0.4375
5,5,1728000052083,-0.6550293,0.028015137,-0.7827759,-0.421875,0.890625,0.265625
6,6,1728000052123,-0.6467285,0.029724121,-0.78912354,-0.21875,0.890625,0.28125
7,7,1728000052163,-0.6503906,0.034851074,-0.78375244,-0.375,0.890625,0.21875
8,8,1728000052203,-0.65283203,0.031433105,-0.79034424,-0.46875,1.0625,0.09375
9,9,1728000052243,-0.6542969,0.023864746,-0.7805786,-0.546875,1.65625,0.25
10,10,1728000052283,-0.6550293,0.0368042,-0.7888794,-0.53125,1.765625,0.3125
11,11,1728000052323,-0.6594238,0.029724121,-0.78375244,-0.59375,1.515625,0.203125
12,12,1728000052363,-0.6479492,0.036315918,-0.7822876,-0.390625,1.515625,0.21875
13,13,1728000052403,-0.6569824,0.027038574,-0.7932739,-0.34375,1.328125,0.328125
14,14,1728000052443,-0.6516113,0.027038574,-0.78619385,-0.390625,1.46875,0.1875
15,15,1728000052483,-0.6542969,0.029724121,-0.7835083,-0.34375,1.421875,0.046875
16,16,1728000052523,-0.6496582,0.029724121,-0.7798462,-0.28125,1.34375,0.125
17,17,1728000052563,-0.6567383,0.028747559,-0.7788696,-0.375,1.4375,0.203125
18,18,1728000052603,-0.6604004,0.024597168,-0.78375244,-0.25,1.421875,0.28125
19,19,1728000052643,-0.6599121,0.031677246,-0.784729,-0.390625,1.375,0.21875
20,20,1728000052683,-0.65405273,0.034362793,-0.7827759,-0.421875,1.078125,0.21875
21,21,1728000052723,-0.66186523,0.0289917,-0.7822876,-0.40625,0.953125,0.359375
22,22,1728000052763,-0.66308594,0.030700684,-0.77911377,-0.578125,1.171875,0.1875
23,23,1728000052803,-0.6591797,0.030700684,-0.7786255,-0.234375,1.09375,0.359375
24,24,1728000052843,-0.6567383,0.03289795,-0.7817993,-0.265625,1.0625,0.234375
25,25,1728000052883,-0.65893555,0.03338623,-0.78204346,-0.46875,0.71875,0.1875
26,26,1728000052923,-0.66308594,0.027038574,-0.7822876,-0.375,0.71875,0.3125
27,27,1728000052963,-0.6623535,0.025817871,-0.78082275,-0.375,0.390625,0.28125
28,28,1728000053003,-0.6574707,0.02532959,-0.78448486,-0.1875,0.125,0.21875
29,29,1728000053043,-0.6530762,0.03753662,-0.78570557,-0.28125,0.125,0.171875
30,30,1728000053083,-0.65625,0.031188965,-0.78009033,-0.34375,-0.1875,0.1875
31,31,1728000053123,-0.6608887,0.030944824,-0.78302,-0.421875,0.453125,0.296875
32,32,1728000053163,-0.65771484,0.030212402,-0.78326416,-0.53125,0.9375,0.25
33,33,1728000053203,-0.6574707,0.036315918,-0.7817993,-0.328125,1.0,0.234375
34,34,1728000053243,-0.65625,0.030212402,-0.78302,-0.34375,0.46875,0.171875
35,35,1728000053283,-0.6555176,0.024108887,-0.7805786,-0.40625,0.6875,0.203125
36,36,1728000053323,-0.65405273,0.026550293,-0.7842407,-0.171875,0.546875,0.140625
37,37,1728000053363,-0.6542969,0.031188965,-0.7788696,-0.328125,0.875,0.234375
38,38,1728000053403,-0.66064453,0.034118652,-0.77789307,-0.421875,0.5625,0.28125
39,39,1728000053443,-0.65527344,0.027770996,-0.7842407,-0.28125,0.515625,0.359375
40,40,1728000053483,-0.65234375,0.0289917,-0.7839966,-0.359375,0.515625,0.171875
41,41,1728000053523,-0.65356445,0.027282715,-0.78497314,-0.40625,0.4375,0.25
42,42,1728000053563,-0.65649414,0.02923584,-0.7854614,-0.375,0.546875,0.3125
43,43,1728000053603,-0.65405273,0.030456543,-0.7876587,-0.4375,0.40625,0.125
44,44,1728000053643,-0.65234375,0.026062012,-0.7866821,-0.46875,0.515625,0.21875
45,45,1728000053683,-0.65527344,0.028747559,-0.7854614,-0.234375,0.59375,0.125
46,46,1728000053723,-0.6530762,0.031921387,-0.7925415,-0.28125,0.84375,0.109375
47,47,1728000053763,-0.6533203,0.027038574,-0.7871704,-0.203125,0.359375,0.3125
48,48,1728000053803,-0.64868164,0.035583496,-0.7920532,-0.4375,0.5,0.296875
49,49,1728000053843,-0.6501465,0.0289917,-0.7908325,-0.4375,0.28125,0.28125
50,50,1728000053883,-0.6496582,0.031188965,-0.78741455,0.03125,0.625,0.203125
51,51,1728000053923,-0.65356445,0.028259277,-0.7901001,-0.234375,0.78125,0.03125
52,52,1728000053963,-0.6525879,0.034118652,-0.7949829,-0.4375,0.6875,0.375
53,53,1728000054003,-0.6516113,0.030456543,-0.7896118,-0.453125,0.984375,0.1875
54,54,1728000054043,-0.6477051,0.028259277,-0.7920532,-0.453125,1.078125,0.1875
55,55,1728000054083,-0.65112305,0.028503418,-0.7876587,-0.4375,0.953125,0.3125
56,56,1728000054123,-0.6479492,0.035095215,-0.7932739,-0.3125,1.015625,0.171875
57,57,1728000054163,-0.6501465,0.029968262,-0.7876587,-0.234375,0.78125,0.265625
58,58,1728000054203,-0.64501953,0.02923584,-0.7842407,-0.140625,1.0625,0.203125
59,59,1728000054243,-0.65234375,0.035339355,-0.7893677,-0.046875,0.859375,0.1875
60,60,1728000054283,-0.6472168,0.031433105,-0.7883911,-0.3125,1.0,0.140625
61,61,1728000054323,-0.6530762,0.032409668,-0.7925415,-0.296875,1.640625,0.078125
62,62,1728000054363,-0.6472168,0.032165527,-0.7871704,-0.390625,1.390625,0.1875
63,63,1728000054403,-0.6508789,0.03387451,-0.7859497,-0.296875,0.765625,0.234375
64,64,1728000054443,-0.65063477,0.028259277,-0.78692627,-0.53125,0.5,0.296875
65,65,1728000054483,-0.65649414,0.03338623,-0.78985596,-0.375,0.8125,0.25
66,66,1728000054523,-0.65283203,0.02947998,-0.788147,-0.3125,0.890625,0.234375
67,67,1728000054563,-0.6496582,0.034118652,-0.78741455,-0.421875,0.828125,0.1875
68,68,1728000054603,-0.6501465,0.03729248,-0.788147,-0.296875,0.5,0.234375
69,69,1728000054643,-0.65356445,0.03363037,-0.78985596,-0.53125,0.4375,0.078125
70,70,1728000054683,-0.65112305,0.02947998,-0.7905884,-0.34375,0.546875,0.28125
71,71,1728000054723,-0.6513672,0.03289795,-0.7842407,-0.296875,0.828125,0.375
72,72,1728000054763,-0.64941406,0.029724121,-0.7893677,-0.34375,0.8125,0.171875
73,73,1728000054803,-0.64941406,0.034851074,-0.7920532,-0.28125,0.578125,0.28125
74,74,1728000054843,-0.65185547,0.030212402,-0.78692627,-0.34375,0.65625,0.359375
75,75,1728000054883,-0.64697266,0.032409668,-0.7925415,-0.46875,0.515625,0.15625
76,76,1728000054923,-0.6484375,0.03289795,-0.7822876,-0.125,0.40625,0.109375
77,77,1728000054963,-0.64990234,0.034118652,-0.79522705,-0.28125,0.328125,0.171875
78,78,1728000055003,-0.6491699,0.034606934,-0.79229736,-0.375,0.703125,0.265625
79,79,1728000055043,-0.64575195,0.027038574,-0.7918091,-0.421875,1.234375,0.234375
80,80,1728000055083,-0.6555176,0.031921387,-0.78790283,-0.453125,1.203125,0.375
81,81,1728000055123,-0.65405273,0.028747559,-0.78790283,-0.421875,0.84375,0.234375
82,82,1728000055163,-0.6467285,0.030212402,-0.786438,-0.296875,0.875,0.171875
83,83,1728000055203,-0.64990234,0.032409668,-0.7905884,-0.265625,0.71875,0.21875
84,84,1728000055243,-0.6479492,0.032409668,-0.7932739,-0.375,0.671875,0.390625
85,85,1728000055283,-0.6477051,0.029724121,-0.79229736,-0.328125,0.828125,0.1875
86,86,1728000055323,-0.6477051,0.027282715,-0.79693604,-0.3125,0.65625,0.25
87,87,1728000055363,-0.65234375,0.035827637,-0.79351807,-0.125,1.109375,0.21875
88,88,1728000055403,-0.6516113,0.026550293,-0.79107666,-0.453125,0.828125,0.203125
89,89,1728000055443,-0.6464844,0.034606934,-0.788147,-0.3125,0.859375,0.1875
90,90,1728000055483,-0.6479492,0.032165527,-0.7905884,-0.5625,0.796875,0.25
91,91,1728000055523,-0.64990234,0.032165527,-0.79034424,-0.234375,0.796875,0.359375
92,92,1728000055563,-0.6538086,0.029724121,-0.78985596,-0.28125,0.921875,0.140625
93,93,1728000055603,-0.64746094,0.024353027,-0.78326416,-0.296875,0.921875,0.15625
94,94,1728000055643,-0.64868164,0.032165527,-0.7888794,-0.390625,0.78125,0.140625
95,95,1728000055683,-0.6508789,0.031433105,-0.79107666,-0.296875,0.671875,0.140625
96,96,1728000055723,-0.6479492,0.030944824,-0.7942505,-0.46875,0.671875,0.40625
97,97,1728000055763,-0.6508789,0.038757324,-0.78912354,-0.234375,1.015625,0.203125
98,98,1728000055803,-0.6520996,0.030700684,-0.79156494,-0.46875,0.8125,0.125
99,99,1728000055843,-0.64404297,0.030944824,-0.7954712,-0.296875,0.9375,0.203125
100,100,1728000055883,-0.642334,0.02947998,-0.78741455,-0.3125,0.90625,0.46875
101,101,1728000055923,-0.6459961,0.028015137,-0.78790283,-0.359375,0.515625,0.09375
102,102,1728000055963,-0.64819336,0.028015137,-0.7966919,-0.25,0.46875,0.09375
103,103,1728000056003,-0.6425781,0.032165527,-0.79229736,-0.296875,0.375,0.15625
104,104,1728000056043,-0.6525879,0.030944824,-0.79815674,-0.4375,0.9375,0.296875
105,105,1728000056083,-0.6430664,0.03656006,-0.79473877,-0.34375,1.421875,0.296875
106,106,1728000056123,-0.6489258,0.034851074,-0.79156494,-0.296875,1.53125,0.109375
107,107,1728000056163,-0.6501465,0.024108887,-0.7918091,-0.4375,1.046875,0.265625
108,108,1728000056203,-0.64746094,0.03265381,-0.788147,-0.375,1.078125,0.140625
109,109,1728000056243,-0.64746094,0.031433105,-0.78692627,-0.390625,0.953125,0.328125
110,110,1728000056283,-0.6533203,0.031921387,-0.7905884,-0.25,0.953125,0.109375
111,111,1728000056323,-0.65112305,0.03289795,-0.7854614,-0.3125,1.203125,0.234375
112,112,1728000056363,-0.6459961,0.03289795,-0.79156494,-0.265625,1.1875,0.25
113,113,1728000056403,-0.6538086,0.03314209,-0.79571533,-0.265625,1.453125,0.21875
114,114,1728000056443,-0.64941406,0.034118652,-0.7852173,-0.359375,1.3125,0.15625
115,115,1728000056483,-0.6520996,0.028015137,-0.78619385,-0.34375,1.421875,0.140625
116,116,1728000056523,-0.64575195,0.02947998,-0.78985596,-0.328125,1.171875,0.28125
117,117,1728000056563,-0.65649414,0.030456543,-0.79229736,-0.390625,1.28125,0.28125
118,118,1728000056603,-0.64819336,0.028259277,-0.7839966,-0.484375,1.359375,0.234375
119,119,1728000056643,-0.6538086,0.035583496,-0.78619385,-0.4375,1.4375,0.21875
120,120,1728000056683,-0.65649414,0.031677246,-0.78570557,-0.46875,1.125,0.296875
121,121,1728000056723,-0.65600586,0.034118652,-0.7854614,-0.359375,1.265625,0.171875
122,122,1728000056763,-0.65356445,0.031433105,-0.78863525,-0.25,1.375,0.21875
123,123,1728000056803,-0.6569824,0.030212402,-0.78985596,-0.296875,1.203125,0.28125
124,124,1728000056843,-0.6513672,0.036315918,-0.7803345,-0.453125,1.53125,0.3125
125,125,1728000056883,-0.65649414,0.026306152,-0.7842407,-0.34375,1.09375,0.40625
126,126,1728000056923,-0.654541,0.026550293,-0.78692627,-0.296875,1.015625,0.03125
127,127,1728000056963,-0.6538086,0.030212402,-0.7815552,-0.21875,0.953125,0.15625
128,128,1728000057003,-0.65771484,0.03289795,-0.786438,-0.28125,0.9375,0.21875
129,129,1728000057043,-0.6533203,0.030456543,-0.788147,-0.21875,1.34375,0.296875
130,130,1728000057083,-0.65893555,0.029968262,-0.78326416,-0.46875,1.53125,0.25
131,131,1728000057123,-0.657959,0.029724121,-0.78375244,-0.546875,1.640625,0.1875
132,132,1728000057163,-0.6611328,0.03265381,-0.78692627,-0.34375,1.5625,0.203125
133,133,1728000057203,-0.6586914,0.03314209,-0.78253174,-0.40625,1.109375,0.015625
134,134,1728000057243,-0.6604004,0.03363037,-0.7793579,-0.390625,1.15625,0.265625
135,135,1728000057283,-0.6623535,0.030456543,-0.77960205,-0.3125,1.265625,0.15625
136,136,1728000057323,-0.6621094,0.0289917,-0.78302,-0.234375,1.046875,0.265625
137,137,1728000057363,-0.65844727,0.03338623,-0.7776489,-0.34375,1.21875,0.265625
138,138,1728000057403,-0.6604004,0.027038574,-0.78253174,-0.46875,1.234375,0.375
139,139,1728000057443,-0.6633301,0.0289917,-0.786438,-0.4375,0.6875,0.328125
140,140,1728000057483,-0.66259766,0.03289795,-0.77960205,-0.328125,0.59375,0.203125
141,141,1728000057523,-0.65893555,0.032165527,-0.7854614,-0.4375,0.21875,0.265625
142,142,1728000057563,-0.6660156,0.0289917,-0.7798462,-0.421875,-0.046875,0.203125
143,143,1728000057603,-0.65844727,0.026794434,-0.7883911,-0.3125,0.375,0.265625
144,144,1728000057643,-0.65356445,0.03338623,-0.78790283,-0.359375,0.640625,0.15625
145,145,1728000057683,-0.6542969,0.025817871,-0.7866821,-0.28125,0.046875,0.265625
146,146,1728000057723,-0.6567383,0.028503418,-0.7815552,-0.375,0.15625,0.171875
147,147,1728000057763,-0.65527344,0.026550293,-0.7822876,-0.375,0.171875,0.359375
148,148,1728000057803,-0.65283203,0.032165527,-0.78619385,-0.3125,0.484375,0.078125
149,149,1728000057843,-0.64819336,0.028503418,-0.7827759,-0.390625,0.40625,0.3125
150,150,1728000057883,-0.65356445,0.023620605,-0.78204346,-0.25,0.46875,0.1875
151,151,1728000057923,-0.65185547,0.0289917,-0.7866821,-0.484375,0.921875,0.359375
152,152,1728000057963,-0.6574707,0.029724121,-0.7827759,-0.359375,0.9375,0.25
153,153,1728000058003,-0.6586914,0.030212402,-0.78570557,-0.421875,0.734375,0.265625
154,154,1728000058043,-0.6533203,0.034362793,-0.7839966,-0.375,0.515625,0.28125
155,155,1728000058083,-0.6496582,0.026062012,-0.78912354,-0.328125,0.296875,0.25
156,156,1728000058123,-0.64697266,0.022155762,-0.78790283,-0.328125,0.5625,0.28125
157,157,1728000058163,-0.65283203,0.027526855,-0.786438,-0.265625,0.484375,0.09375
158,158,1728000058203,-0.65063477,0.031921387,-0.78985596,-0.34375,0.328125,0.25
159,159,1728000058243,-0.65405273,0.027282715,-0.7888794,-0.328125,0.734375,0.171875
160,160,1728000058283,-0.65356445,0.02557373,-0.788147,-0.453125,0.5625,0.1875
161,161,1728000058323,-0.6555176,0.030212402,-0.78863525,-0.375,0.578125,0.3125
162,162,1728000058363,-0.64868164,0.032409668,-0.78912354,-0.296875,0.734375,0.203125
163,163,1728000058403,-0.6542969,0.028747559,-0.79034424,-0.359375,0.59375,0.296875
164,164,1728000058443,-0.6459961,0.034362793,-0.78302,-0.234375,0.59375,0.15625
165,165,1728000058483,-0.6477051,0.032165527,-0.786438,-0.234375,0.703125,0.234375
166,166,1728000058523,-0.6538086,0.030944824,-0.78570557,-0.328125,0.6875,0.25
167,167,1728000058563,-0.65356445,0.026306152,-0.7905884,-0.265625,0.609375,0.21875
168,168,1728000058603,-0.6530762,0.030700684,-0.78985596,-0.359375,0.84375,0.25
169,169,1728000058643,-0.6501465,0.028503418,-0.7876587,-0.546875,0.609375,0.234375
170,170,1728000058683,-0.6533203,0.024597168,-0.786438,-0.140625,0.796875,0.15625
171,171,1728000058723,-0.6430664,0.030700684,-0.7854614,-0.296875,0.578125,0.109375
172,172,1728000058763,-0.65185547,0.03314209,-0.79229736,-0.390625,0.75,0.140625
173,173,1728000058803,-0.65185547,0.035095215,-0.788147,-0.4375,1.078125,0.140625
174,174,1728000058843,-0.64404297,0.032409668,-0.79229736,-0.53125,1.1875,0.078125
175,175,1728000058883,-0.65185547,0.028015137,-0.784729,-0.375,0.984375,0.28125
176,176,1728000058923,-0.6508789,0.021911621,-0.7893677,-0.46875,0.84375,0.25
177,177,1728000058963,-0.64624023,0.021911621,-0.79107666,-0.234375,0.625,0.203125
178,178,1728000059003,-0.6459961,0.0289917,-0.7876587,-0.21875,0.6875,0.046875
179,179,1728000059043,-0.64868164,0.024353027,-0.7866821,-0.3125,0.734375,0.203125
180,180,1728000059083,-0.6508789,0.023376465,-0.798645,-0.296875,0.734375,0.265625
181,181,1728000059123,-0.6442871,0.03363037,-0.79107666,-0.296875,0.921875,0.171875
182,182,1728000059163,-0.65112305,0.035583496,-0.7852173,-0.328125,1.03125,0.21875
183,183,1728000059203,-0.6479492,0.026794434,-0.7954712,-0.375,0.875,0.265625
184,184,1728000059243,-0.6496582,0.029724121,-0.7920532,-0.4375,1.015625,0.234375
185,185,1728000059283,-0.64501953,0.028015137,-0.79034424,-0.40625,0.84375,0.21875
186,186,1728000059323,-0.6516113,0.027282715,-0.786438,-0.34375,0.9375,0.09375
187,187,1728000059363,-0.64038086,0.026306152,-0.7918091,-0.421875,0.78125,0.171875
188,188,1728000059403,-0.6467285,0.028747559,-0.79156494,-0.328125,0.84375,0.171875
189,189,1728000059443,-0.6467285,0.027526855,-0.7883911,-0.296875,0.765625,0.171875
190,190,1728000059483,-0.654541,0.030944824,-0.79156494,-0.15625,0.984375,0.1875
191,191,1728000059523,-0.65185547,0.03363037,-0.79644775,-0.34375,0.890625,0.3125
192,192,1728000059563,-0.65112305,0.027526855,-0.7905884,-0.4375,0.859375,0.375
193,193,1728000059603,-0.6513672,0.032409668,-0.7893677,-0.484375,0.96875,0.1875
194,194,1728000059643,-0.64746094,0.031921387,-0.7901001,-0.09375,0.5625,0.109375
195,195,1728000059683,-0.6455078,0.031433105,-0.7852173,-0.1875,0.5625,0.21875
196,196,1728000059723,-0.6472168,0.029968262,-0.7949829,-0.28125,0.671875,0.171875
197,197,1728000059763,-0.6503906,0.03363037,-0.7932739,-0.46875,1.1875,0.171875
198,198,1728000059803,-0.6442871,0.035827637,-0.7944946,-0.4375,1.34375,0.1875
199,199,1728000059843,-0.6550293,0.034362793,-0.7835083,-0.296875,1.203125,0.21875
200,200,1728000059883,-0.6484375,0.02923584,-0.78863525,-0.25,0.875,0.421875
201,201,1728000059923,-0.64575195,0.024597168,-0.79034424,-0.34375,0.9375,0.28125
202,202,1728000059963,-0.6538086,0.032409668,-0.79229736,-0.296875,1.125,0.34375
203,203,1728000060003,-0.6467285,0.030944824,-0.7871704,-0.390625,1.171875,0.421875
204,204,1728000060043,-0.64746094,0.03289795,-0.79107666,-0.34375,1.015625,0.15625
205,205,1728000060083,-0.6491699,0.029968262,-0.78741455,-0.5,1.390625,0.265625
206,206,1728000060123,-0.65112305,0.027038574,-0.79229736,-0.375,1.46875,0.28125
207,207,1728000060163,-0.64697266,0.03363037,-0.7859497,-0.4375,1.21875,0.265625
208,208,1728000060203,-0.64624023,0.031677246,-0.7871704,-0.390625,1.171875,0.390625
209,209,1728000060243,-0.6550293,0.035583496,-0.7876587,-0.390625,1.171875,0.125
210,210,1728000060283,-0.6508789,0.030944824,-0.7859497,-0.390625,1.1875,0.125
211,211,1728000060323,-0.6550293,0.027038574,-0.7866821,-0.28125,1.359375,0.21875
212,212,1728000060363,-0.6479492,0.029968262,-0.78692627,-0.203125,1.078125,0.28125
213,213,1728000060403,-0.6513672,0.03314209,-0.78497314,-0.5,1.21875,0.171875
214,214,1728000060443,-0.6533203,0.02557373,-0.7854614,-0.328125,1.015625,0.15625
215,215,1728000060483,-0.6538086,0.03338623,-0.78326416,-0.34375,1.265625,0.125
216,216,1728000060523,-0.65478516,0.04046631,-0.7925415,-0.4375,1.171875,0.09375
217,217,1728000060563,-0.6621094,0.028503418,-0.7883911,-0.265625,1.125,0.25
218,218,1728000060603,-0.65112305,0.030456543,-0.78131104,-0.375,1.140625,0.421875
219,219,1728000060643,-0.65478516,0.031921387,-0.78692627,-0.21875,1.0,0.15625
220,220,1728000060683,-0.6567383,0.029968262,-0.7822876,-0.3125,1.0,0.03125
221,221,1728000060723,-0.65478516,0.031433105,-0.78497314,-0.328125,0.84375,0.15625
222,222,1728000060763,-0.6538086,0.031921387,-0.7871704,-0.328125,1.234375,0.15625
223,223,1728000060803,-0.6542969,0.027770996,-0.78302,-0.5625,1.53125,0.203125
224,224,1728000060843,-0.6567383,0.02947998,-0.7859497,-0.359375,1.453125,0.265625
225,225,1728000060883,-0.64624023,0.02947998,-0.78326416,-0.390625,1.140625,0.25
226,226,1728000060923,-0.65405273,0.032409668,-0.78497314,-0.421875,1.078125,0.109375
227,227,1728000060963,-0.65527344,0.0289917,-0.7883911,-0.4375,0.890625,0.1875
228,228,1728000061003,-0.6503906,0.028015137,-0.7803345,-0.46875,0.96875,0.15625
229,229,1728000061043,-0.6555176,0.028747559,-0.78204346,-0.421875,0.734375,0.296875
230,230,1728000061083,-0.65283203,0.03338623,-0.78619385,-0.328125,0.859375,0.1875
231,231,1728000061123,-0.6640625,0.031677246,-0.7905884,-0.421875,0.765625,0.15625
232,232,1728000061163,-0.6582031,0.028747559,-0.7815552,-0.46875,0.59375,0.28125
233,233,1728000061203,-0.65771484,0.029724121,-0.78497314,-0.28125,0.375,0.3125
234,234,1728000061243,-0.6542969,0.029968262,-0.7852173,-0.296875,0.40625,0.234375
235,235,1728000061283,-0.6557617,0.026550293,-0.78790283,-0.5,0.546875,0.15625
236,236,1728000061323,-0.6555176,0.030456543,-0.7871704,-0.34375,0.484375,0.234375
237,237,1728000061363,-0.6530762,0.027282715,-0.78570557,-0.3125,0.3125,0.265625
238,238,1728000061403,-0.6533203,0.027770996,-0.7901001,-0.390625,0.515625,0.28125
239,239,1728000061443,-0.6557617,0.031433105,-0.78448486,-0.15625,0.5625,0.15625
240,240,1728000061483,-0.65722656,0.03289795,-0.7871704,-0.375,0.453125,0.109375
241,241,1728000061523,-0.6533203,0.028503418,-0.7913208,-0.421875,0.515625,0.234375
242,242,1728000061563,-0.6525879,0.028259277,-0.7854614,-0.296875,0.234375,0.125
243,243,1728000061603,-0.6508789,0.027770996,-0.78375244,-0.34375,0.546875,0.203125
244,244,1728000061643,-0.6520996,0.028747559,-0.79156494,-0.390625,0.34375,0.265625
245,245,1728000061683,-0.64819336,0.026306152,-0.7893677,-0.203125,0.796875,0.265625
246,246,1728000061723,-0.6516113,0.030456543,-0.7937622,-0.375,0.984375,0.234375
247,247,1728000061763,-0.6484375,0.020446777,-0.7896118,-0.21875,0.890625,0.15625
248,248,1728000061803,-0.64501953,0.031188965,-0.79229736,-0.1875,0.6875,0.1875
249,249,1728000061843,-0.65185547,0.034606934,-0.7913208,-0.375,0.765625,0.328125
250,250,1728000061883,-0.6513672,0.029724121,-0.79034424,-0.3125,0.625,0.296875
251,251,1728000061923,-0.6503906,0.034606934,-0.7854614,-0.21875,0.78125,0.109375
252,252,1728000061963,-0.65283203,0.029968262,-0.78863525,-0.234375,0.4375,0.171875
253,253,1728000062003,-0.64453125,0.031677246,-0.78912354,-0.21875,0.671875,0.109375
254,254,1728000062043,-0.6464844,0.026306152,-0.7930298,-0.25,1.0625,0.171875
255,255,1728000062083,-0.64624023,0.032409668,-0.7883911,-0.421875,0.8125,0.171875
256,256,1728000062123,-0.6491699,0.0289917,-0.7925415,-0.5,0.828125,0.296875
257,257,1728000062163,-0.64941406,0.027038574,-0.79473877,-0.28125,0.71875,0.1875
258,258,1728000062203,-0.6452637,0.031677246,-0.78790283,-0.296875,0.890625,0.265625
259,259,1728000062243,-0.6477051,0.02947998,-0.79034424,-0.328125,0.828125,0.09375
260,260,1728000062283,-0.6520996,0.030456543,-0.7893677,-0.234375,0.578125,0.171875
261,261,1728000062323,-0.65112305,0.030700684,-0.7883911,-0.34375,0.6875,0.203125
262,262,1728000062363,-0.64819336,0.027282715,-0.7908325,-0.46875,0.78125,0.3125
263,263,1728000062403,-0.64941406,0.03265381,-0.79156494,-0.46875,0.96875,0.15625
264,264,1728000062443,-0.64624023,0.027770996,-0.7942505,-0.28125,0.8125,0.234375
265,265,1728000062483,-0.6525879,0.036315918,-0.7888794,-0.421875,0.890625,0.21875
266,266,1728000062523,-0.6516113,0.029968262,-0.7937622,-0.359375,0.578125,0.21875
267,267,1728000062563,-0.6508789,0.030456543,-0.78863525,-0.125,0.34375,-0.0625
268,268,1728000062603,-0.6401367,0.030456543,-0.79107666,-0.25,0.359375,0.09375
269,269,1728000062643,-0.64697266,0.029724121,-0.7971802,-0.265625,0.75,0.171875
270,270,1728000062683,-0.64331055,0.030212402,-0.7959595,-0.328125,1.171875,0.21875
271,271,1728000062723,-0.64501953,0.031677246,-0.7905884,-0.40625,1.1875,0.1875
272,272,1728000062763,-0.64819336,0.030456543,-0.7866821,-0.40625,0.53125,0.1875
273,273,1728000062803,-0.6467285,0.02947998,-0.78790283,-0.3125,0.65625,0.21875
274,274,1728000062843,-0.6491699,0.02947998,-0.79229736,-0.390625,0.703125,0.328125
275,275,1728000062883,-0.6437988,0.034606934,-0.7908325,-0.328125,0.828125,0.328125
276,276,1728000062923,-0.6425781,0.030944824,-0.79522705,-0.265625,0.75,0.3125
277,277,1728000062963,-0.64868164,0.027038574,-0.7905884,-0.359375,0.828125,0.234375
278,278,1728000063003,-0.6381836,0.035339355,-0.7925415,-0.25,1.125,0.171875
279,279,1728000063043,-0.64331055,0.026794434,-0.7896118,-0.453125,0.84375,0.25
280,280,1728000063083,-0.65234375,0.03265381,-0.7908325,-0.4375,0.921875,0.296875
281,281,1728000063123,-0.6411133,0.03314209,-0.79229736,-0.484375,0.859375,0.234375
282,282,1728000063163,-0.64453125,0.032409668,-0.79400635,-0.375,0.8125,0.203125
283,283,1728000063203,-0.64624023,0.024108887,-0.7918091,-0.46875,0.890625,0.28125
284,284,1728000063243,-0.64453125,0.031188965,-0.7871704,-0.546875,0.796875,0.234375
285,285,1728000063283,-0.640625,0.031188965,-0.7932739,-0.34375,0.8125,0.140625
286,286,1728000063323,-0.6489258,0.031921387,-0.7913208,-0.328125,0.796875,0.21875
287,287,1728000063363,-0.64624023,0.02923584,-0.79278564,-0.375,0.953125,0.296875
288,288,1728000063403,-0.64160156,0.035095215,-0.79034424,-0.328125,0.75,0.125
289,289,1728000063443,-0.6452637,0.029724121,-0.7954712,-0.140625,0.890625,0.09375
290,290,1728000063483,-0.6452637,0.027282715,-0.79473877,-0.40625,0.671875,0.28125
291,291,1728000063523,-0.6467285,0.032165527,-0.7930298,-0.59375,0.875,0.265625
292,292,1728000063563,-0.64404297,0.034118652,-0.7883911,-0.25,0.40625,0.15625
293,293,1728000063603,-0.638916,0.034851074,-0.7920532,-0.1875,0.421875,0.21875
294,294,1728000063643,-0.64990234,0.031921387,-0.79815674,-0.484375,0.375,0.359375
295,295,1728000063683,-0.64941406,0.03387451,-0.7962036,-0.546875,1.25,0.28125
296,296,1728000063723,-0.6413574,0.028747559,-0.7979126,-0.453125,1.421875,0.3125
297,297,1728000063763,-0.65234375,0.032409668,-0.79278564,-0.296875,1.265625,0.328125
298,298,1728000063803,-0.64453125,0.02947998,-0.7930298,-0.265625,0.9375,0.359375
299,299,1728000063843,-0.6435547,0.028747559,-0.7918091,-0.3125,1.0625,0.375
300,300,1728000063883,-0.6496582,0.035339355,-0.79278564,-0.265625,0.828125,0.25
301,301,1728000063923,-0.6467285,0.027038574,-0.7893677,-0.40625,1.0625,0.171875
302,302,1728000063963,-0.6455078,0.030700684,-0.7908325,-0.265625,1.09375,0.265625
303,303,1728000064003,-0.6459961,0.026550293,-0.7962036,-0.28125,1.109375,0.28125
304,304,1728000064043,-0.64404297,0.029724121,-0.79473877,-0.3125,1.21875,0.21875
305,305,1728000064083,-0.6496582,0.038757324,-0.7925415,-0.375,1.25,0.140625
306,306,1728000064123,-0.64501953,0.02947998,-0.7930298,-0.265625,1.390625,0.234375
307,307,1728000064163,-0.6472168,0.030944824,-0.7925415,-0.453125,1.40625,0.203125
308,308,1728000064203,-0.6501465,0.029968262,-0.7920532,-0.390625,1.65625,0.171875
309,309,1728000064243,-0.64575195,0.031433105,-0.7901001,-0.265625,1.640625,0.234375
310,310,1728000064283,-0.6479492,0.031188965,-0.7871704,-0.359375,1.609375,0.359375
311,311,1728000064323,-0.6501465,0.03363037,-0.79034424,-0.359375,1.453125,0.21875
312,312,1728000064363,-0.65283203,0.031677246,-0.78570557,-0.296875,1.4375,0.25
313,313,1728000064403,-0.6513672,0.03314209,-0.7932739,-0.390625,1.328125,0.25
314,314,1728000064443,-0.65478516,0.03314209,-0.7854614,-0.390625,1.53125,0.1875
315,315,1728000064483,-0.6513672,0.025817871,-0.784729,-0.296875,1.234375,0.375
316,316,1728000064523,-0.6491699,0.02947998,-0.7859497,-0.46875,1.109375,0.28125
317,317,1728000064563,-0.65844727,0.028259277,-0.7852173,-0.265625,0.96875,0.15625
318,318,1728000064603,-0.65722656,0.030212402,-0.7866821,-0.296875,1.03125,0.265625
319,319,1728000064643,-0.6557617,0.03363037,-0.7854614,-0.34375,0.703125,0.046875
320,320,1728000064683,-0.65356445,0.03363037,-0.7893677,-0.4375,0.84375,0.234375
321,321,1728000064723,-0.6516113,0.03265381,-0.79156494,-0.359375,1.21875,0.15625
322,322,1728000064763,-0.65844727,0.036071777,-0.7876587,-0.484375,1.3125,0.203125
323,323,1728000064803,-0.6582031,0.03289795,-0.788147,-0.34375,1.015625,0.234375
324,324,1728000064843,-0.6542969,0.031921387,-0.7786255,-0.40625,1.15625,0.3125
325,325,1728000064883,-0.65478516,0.022644043,-0.784729,-0.46875,0.96875,0.328125
326,326,1728000064923,-0.65234375,0.024108887,-0.78570557,-0.34375,1.0,0.1875
327,327,1728000064963,-0.65234375,0.027282715,-0.7896118,-0.40625,0.734375,0.1875
328,328,1728000065003,-0.6599121,0.035583496,-0.7901001,-0.375,0.640625,0.1875
329,329,1728000065043,-0.66015625,0.028503418,-0.7805786,-0.328125,0.734375,0.265625
330,330,1728000065083,-0.6530762,0.027282715,-0.7905884,-0.453125,0.796875,0.234375
331,331,1728000065123,-0.6557617,0.031188965,-0.78692627,-0.453125,0.515625,0.15625
332,332,1728000065163,-0.65405273,0.02947998,-0.7852173,-0.28125,0.4375,0.328125
333,333,1728000065203,-0.65600586,0.030944824,-0.784729,-0.53125,0.296875,0.21875
334,334,1728000065243,-0.6555176,0.02532959,-0.78619385,-0.34375,0.421875,0.15625
335,335,1728000065283,-0.6550293,0.027282715,-0.78692627,-0.375,0.6875,0.34375
336,336,1728000065323,-0.65063477,0.03338623,-0.7908325,-0.484375,0.453125,0.3125
337,337,1728000065363,-0.6501465,0.027770996,-0.78790283,-0.28125,0.28125,0.234375
338,338,1728000065403,-0.65527344,0.02947998,-0.788147,-0.390625,0.328125,0.34375
339,339,1728000065443,-0.65234375,0.029968262,-0.7942505,-0.25,0.25,0.1875
340,340,1728000065483,-0.6472168,0.03314209,-0.7842407,-0.265625,0.453125,0.3125
341,341,1728000065523,-0.6508789,0.023620605,-0.79229736,-0.453125,0.25,0.15625
342,342,1728000065563,-0.64868164,0.030212402,-0.7896118,-0.421875,0.78125,0.265625
343,343,1728000065603,-0.65478516,0.029968262,-0.7854614,-0.453125,1.078125,0.21875
344,344,1728000065643,-0.6525879,0.031921387,-0.78912354,-0.375,1.15625,0.203125
345,345,1728000065683,-0.64501953,0.030212402,-0.7918091,-0.21875,0.78125,0.1875
346,346,1728000065723,-0.65063477,0.031433105,-0.7817993,-0.46875,0.984375,0.203125
347,347,1728000065763,-0.6479492,0.030944824,-0.79107666,-0.15625,0.8125,0.25
348,348,1728000065803,-0.64697266,0.027526855,-0.78741455,-0.28125,0.953125,0.1875
349,349,1728000065843,-0.64941406,0.03265381,-0.78912354,-0.34375,0.734375,0.265625
350,350,1728000065883,-0.6467285,0.028747559,-0.78863525,-0.265625,0.515625,0.109375
351,351,1728000065923,-0.6491699,0.03314209,-0.7896118,-0.28125,0.703125,0.328125
352,352,1728000065963,-0.6467285,0.02923584,-0.7920532,-0.390625,0.625,0.234375
353,353,1728000066003,-0.6508789,0.028015137,-0.7918091,-0.359375,0.515625,0.328125
354,354,1728000066043,-0.6508789,0.027770996,-0.7866821,-0.390625,0.515625,0.125
355,355,1728000066083,-0.64501953,0.02923584,-0.7937622,-0.296875,0.265625,0.125
356,356,1728000066123,-0.64453125,0.031433105,-0.78692627,-0.453125,0.4375,0.421875
357,357,1728000066163,-0.64868164,0.031433105,-0.79229736,-0.328125,0.609375,0.234375
358,358,1728000066203,-0.64746094,0.024108887,-0.7944946,-0.25,0.671875,0.140625
359,359,1728000066243,-0.65600586,0.031433105,-0.79229736,-0.1875,0.59375,0.171875
360,360,1728000066283,-0.64624023,0.027770996,-0.7908325,-0.453125,0.6875,0.21875
361,361,1728000066323,-0.64746094,0.031677246,-0.79571533,-0.375,0.8125,0.125
362,362,1728000066363,-0.6464844,0.03387451,-0.7901001,-0.109375,0.75,0.265625
363,363,1728000066403,-0.64331055,0.026306152,-0.7920532,-0.34375,0.71875,0.171875
364,364,1728000066443,-0.6501465,0.028259277,-0.7942505,-0.46875,0.953125,0.15625
365,365,1728000066483,-0.6437988,0.029968262,-0.7971802,-0.453125,1.203125,0.328125
366,366,1728000066523,-0.6447754,0.034851074,-0.7920532,-0.40625,1.328125,0.25
367,367,1728000066563,-0.6508789,0.0289917,-0.79351807,-0.359375,0.9375,0.25
368,368,1728000066603,-0.64819336,0.028747559,-0.7896118,-0.34375,0.796875,0.171875
369,369,1728000066643,-0.64819336,0.031433105,-0.79522705,-0.359375,0.78125,0.328125
370,370,1728000066683,-0.6437988,0.032165527,-0.7925415,-0.296875,0.875,0.21875
371,371,1728000066723,-0.6459961,0.030212402,-0.79278564,-0.203125,0.828125,0.15625
372,372,1728000066763,-0.64453125,0.034118652,-0.7925415,-0.25,0.546875,0.109375
373,373,1728000066803,-0.6491699,0.026306152,-0.7937622,-0.4375,0.9375,0.125
374,374,1728000066843,-0.6452637,0.031188965,-0.7962036,-0.21875,0.859375,0.171875
375,375,1728000066883,-0.64868164,0.030700684,-0.7959595,-0.421875,0.859375,0.234375
376,376,1728000066923,-0.6479492,0.027526855,-0.79107666,-0.4375,0.71875,0.359375
377,377,1728000066963,-0.64746094,0.02532959,-0.7937622,-0.453125,0.640625,0.328125
378,378,1728000067003,-0.64868164,0.03314209,-0.7942505,-0.34375,0.65625,0.15625
379,379,1728000067043,-0.64941406,0.030700684,-0.7871704,-0.328125,0.609375,0.109375
380,380,1728000067083,-0.64624023,0.03387451,-0.7974243,-0.25,0.8125,0.234375
381,381,1728000067123,-0.6447754,0.028503418,-0.788147,-0.359375,0.859375,0.1875
382,382,1728000067163,-0.6425781,0.02923584,-0.7937622,-0.359375,0.828125,0.046875
383,383,1728000067203,-0.6452637,0.02923584,-0.798645,-0.421875,0.96875,0.140625
384,384,1728000067243,-0.64501953,0.034362793,-0.79644775,-0.578125,0.890625,0.3125
385,385,1728000067283,-0.6394043,0.032165527,-0.78863525,-0.171875,0.71875,0.1875
386,386,1728000067323,-0.64624023,0.02947998,-0.78863525,-0.15625,0.53125,0.1875
387,387,1728000067363,-0.6430664,0.03704834,-0.79766846,-0.4375,0.59375,0.125
388,388,1728000067403,-0.6557617,0.031921387,-0.7962036,-0.375,1.0625,0.203125
389,389,1728000067443,-0.6459961,0.035339355,-0.79107666,-0.390625,1.375,0.375
390,390,1728000067483,-0.6437988,0.031188965,-0.78692627,-0.375,1.109375,0.171875
391,391,1728000067523,-0.6464844,0.028747559,-0.7942505,-0.34375,0.84375,0.3125
392,392,1728000067563,-0.64868164,0.027526855,-0.7920532,-0.28125,0.671875,0.3125
393,393,1728000067603,-0.6435547,0.030456543,-0.79888916,-0.1875,0.75,0.28125
394,394,1728000067643,-0.64453125,0.028259277,-0.7859497,-0.234375,0.984375,0.328125
395,395,1728000067683,-0.64453125,0.029968262,-0.79351807,-0.25,0.953125,0.234375
396,396,1728000067723,-0.64575195,0.0289917,-0.7944946,-0.390625,0.96875,0.296875
397,397,1728000067763,-0.64746094,0.024841309,-0.79229736,-0.515625,1.3125,0.453125
398,398,1728000067803,-0.64282227,0.031921387,-0.79351807,-0.28125,1.109375,0.40625
399,399,1728000067843,-0.6455078,0.030212402,-0.79156494,-0.328125,1.234375,0.25
400,400,1728000067883,-0.6455078,0.03314209,-0.7949829,-0.34375,1.140625,0.203125
401,401,1728000067923,-0.6491699,0.030456543,-0.7937622,-0.359375,1.234375,0.203125
402,402,1728000067963,-0.64624023,0.02557373,-0.78985596,-0.421875,1.328125,0.203125
403,403,1728000068003,-0.6491699,0.032165527,-0.79034424,-0.34375,1.359375,0.265625
404,404,1728000068043,-0.6496582,0.026062012,-0.788147,-0.421875,1.265625,0.234375
405,405,1728000068083,-0.6386719,0.027526855,-0.79034424,-0.25,1.234375,0.296875
406,406,1728000068123,-0.6413574,0.032409668,-0.7815552,-0.40625,1.453125,0.25
407,407,1728000068163,-0.64746094,0.034606934,-0.79351807,-0.390625,1.484375,0.3125
408,408,1728000068203,-0.6452637,0.026062012,-0.7871704,-0.59375,1.265625,0.328125
409,409,1728000068243,-0.6464844,0.030944824,-0.78497314,-0.484375,1.265625,0.1875
410,410,1728000068283,-0.64941406,0.03314209,-0.786438,-0.109375,1.046875,0.015625
411,411,1728000068323,-0.65112305,0.034606934,-0.78741455,-0.390625,1.09375,0.21875
412,412,1728000068363,-0.6557617,0.031188965,-0.78741455,-0.3125,1.0625,0.265625
413,413,1728000068403,-0.6550293,0.03289795,-0.7930298,-0.34375,1.28125,0.171875
414,414,1728000068443,-0.654541,0.031921387,-0.78912354,-0.53125,1.609375,0.21875
415,415,1728000068483,-0.65283203,0.030944824,-0.7876587,-0.28125,1.46875,0.234375
416,416,1728000068523,-0.6533203,0.031921387,-0.7893677,-0.40625,1.328125,0.15625
417,417,1728000068563,-0.6542969,0.03387451,-0.7835083,-0.328125,1.375,0.359375
418,418,1728000068603,-0.6477051,0.029968262,-0.7866821,-0.40625,1.15625,0.265625
419,419,1728000068643,-0.6567383,0.031921387,-0.7888794,-0.296875,1.71875,0.21875
420,420,1728000068683,-0.65625,0.027526855,-0.78790283,-0.421875,1.71875,0.109375
421,421,1728000068723,-0.6533203,0.030700684,-0.78082275,-0.421875,1.609375,0.1875
422,422,1728000068763,-0.6611328,0.029968262,-0.7788696,-0.328125,1.21875,0.3125
423,423,1728000068803,-0.6591797,0.03314209,-0.78375244,-0.5,0.875,0.21875
424,424,1728000068843,-0.6640625,0.029724121,-0.7798462,-0.5,0.65625,0.34375
425,425,1728000068883,-0.6574707,0.035095215,-0.78570557,-0.5625,0.390625,0.25
426,426,1728000068923,-0.6574707,0.028503418,-0.7839966,-0.34375,0.390625,0.0
427,427,1728000068963,-0.65112305,0.028015137,-0.78692627,-0.328125,0.234375,0.40625
428,428,1728000069003,-0.6582031,0.029724121,-0.78375244,-0.453125,0.34375,0.203125
429,429,1728000069043,-0.6520996,0.025817871,-0.78741455,-0.46875,0.5,0.109375
430,430,1728000069083,-0.6567383,0.023132324,-0.78253174,-0.40625,0.78125,0.1875
431,431,1728000069123,-0.65771484,0.034851074,-0.788147,-0.15625,0.359375,0.1875
432,432,1728000069163,-0.65405273,0.029724121,-0.78204346,-0.421875,0.28125,0.25
433,433,1728000069203,-0.65600586,0.028503418,-0.7883911,-0.4375,0.203125,0.25
434,434,1728000069243,-0.64990234,0.028015137,-0.786438,-0.28125,0.3125,0.1875
435,435,1728000069283,-0.6513672,0.031433105,-0.786438,-0.40625,0.140625,0.1875
436,436,1728000069323,-0.64868164,0.031921387,-0.78863525,-0.46875,0.359375,0.1875
437,437,1728000069363,-0.6538086,0.024353027,-0.78082275,-0.390625,0.8125,0.34375
438,438,1728000069403,-0.6533203,0.027770996,-0.78985596,-0.40625,0.890625,0.234375
439,439,1728000069443,-0.6582031,0.026550293,-0.7893677,-0.359375,0.765625,0.171875
440,440,1728000069483,-0.64501953,0.029724121,-0.7918091,-0.265625,0.734375,0.21875
441,441,1728000069523,-0.6496582,0.03338623,-0.79034424,-0.296875,0.703125,0.234375
442,442,1728000069563,-0.6516113,0.030456543,-0.78790283,-0.453125,0.46875,0.25
443,443,1728000069603,-0.6557617,0.031677246,-0.78863525,-0.203125,0.59375,0.40625
444,444,1728000069643,-0.6467285,0.03338623,-0.79229736,-0.28125,0.453125,0.109375
445,445,1728000069683,-0.6472168,0.0289917,-0.78497314,-0.3125,0.765625,0.375
446,446,1728000069723,-0.65405273,0.03363037,-0.79107666,-0.3125,0.671875,0.234375
447,447,1728000069763,-0.64697266,0.031433105,-0.78985596,-0.421875,0.53125,0.265625
448,448,1728000069803,-0.6501465,0.024597168,-0.7942505,-0.5,0.5625,0.125
449,449,1728000069843,-0.64941406,0.027282715,-0.7920532,-0.546875,0.734375,0.25
450,450,1728000069883,-0.65063477,0.027526855,-0.78863525,-0.34375,0.625,0.25
451,451,1728000069923,-0.64501953,0.027770996,-0.7937622,-0.34375,0.625,0.140625
452,452,1728000069963,-0.6508789,0.02532959,-0.7866821,-0.3125,0.578125,0.3125
453,453,1728000070003,-0.64331055,0.030944824,-0.7876587,-0.265625,0.578125,0.09375
454,454,1728000070043,-0.6525879,0.035095215,-0.7949829,-0.296875,0.6875,0.234375
455,455,1728000070083,-0.6472168,0.036315918,-0.7908325,-0.359375,0.859375,0.21875
456,456,1728000070123,-0.65283203,0.0211792,-0.786438,-0.59375,0.6875,0.140625
457,457,1728000070163,-0.64868164,0.02947998,-0.7908325,0.0,0.5,0.109375
458,458,1728000070203,-0.65185547,0.029968262,-0.79034424,-0.3125,0.734375,0.078125
459,459,1728000070243,-0.64819336,0.031921387,-0.79229736,-0.40625,0.453125,0.203125
460,460,1728000070283,-0.64282227,0.02947998,-0.7901001,-0.359375,0.78125,0.25
461,461,1728000070323,-0.64501953,0.03387451,-0.7930298,-0.390625,1.078125,0.171875
462,462,1728000070363,-0.64404297,0.035339355,-0.786438,-0.125,1.078125,0.28125
463,463,1728000070403,-0.6425781,0.0289917,-0.7913208,-0.40625,0.90625,0.21875
464,464,1728000070443,-0.64819336,0.032409668,-0.7954712,-0.453125,0.65625,0.328125
465,465,1728000070483,-0.65063477,0.03363037,-0.7925415,-0.25,0.84375,0.15625
466,466,1728000070523,-0.64697266,0.03338623,-0.79351807,-0.234375,0.828125,0.203125
467,467,1728000070563,-0.6520996,0.026550293,-0.7937622,-0.34375,0.640625,0.109375
468,468,1728000070603,-0.64453125,0.032165527,-0.79644775,-0.3125,0.859375,0.171875
469,469,1728000070643,-0.64868164,0.028503418,-0.78619385,-0.21875,0.78125,0.296875
470,470,1728000070683,-0.6435547,0.02532959,-0.7854614,-0.328125,0.9375,0.390625
471,471,1728000070723,-0.64404297,0.0289917,-0.79571533,-0.40625,0.984375,0.1875
472,472,1728000070763,-0.64404297,0.03753662,-0.7954712,-0.234375,0.65625,0.296875
473,473,1728000070803,-0.6477051,0.03314209,-0.7918091,-0.390625,0.859375,0.25
474,474,1728000070843,-0.6459961,0.035339355,-0.7918091,-0.265625,0.84375,0.09375
475,475,1728000070883,-0.6467285,0.032165527,-0.79229736,-0.34375,0.78125,0.234375
476,476,1728000070923,-0.64941406,0.035583496,-0.7937622,-0.3125,0.796875,0.1875
477,477,1728000070963,-0.64819336,0.027038574,-0.7920532,-0.234375,0.875,0.25
478,478,1728000071003,-0.65063477,0.031188965,-0.79571533,-0.34375,1.125,0.109375
479,479,1728000071043,-0.640625,0.035583496,-0.79229736,-0.25,0.8125,0.0625
480,480,1728000071083,-0.64575195,0.030212402,-0.7959595,-0.359375,1.140625,0.28125
481,481,1728000071123,-0.6501465,0.027526855,-0.79034424,-0.5,1.140625,0.21875
482,482,1728000071163,-0.6401367,0.030944824,-0.7866821,-0.125,0.515625,0.171875
483,483,1728000071203,-0.64501953,0.035583496,-0.7888794,-0.265625,0.5625,0.15625
484,484,1728000071243,-0.64941406,0.034118652,-0.78985596,-0.421875,0.796875,0.203125
485,485,1728000071283,-0.6452637,0.030456543,-0.7908325,-0.34375,1.359375,0.171875
486,486,1728000071323,-0.6491699,0.0289917,-0.79400635,-0.4375,1.484375,0.34375
487,487,1728000071363,-0.6464844,0.028259277,-0.788147,-0.390625,1.4375,0.09375
488,488,1728000071403,-0.64941406,0.024597168,-0.78302,-0.34375,1.046875,0.296875
489,489,1728000071443,-0.6464844,0.031188965,-0.7925415,-0.25,1.046875,0.1875
490,490,1728000071483,-0.64990234,0.02947998,-0.7888794,-0.234375,1.046875,0.375
491,491,1728000071523,-0.6459961,0.029724121,-0.78863525,-0.359375,1.125,0.3125
492,492,1728000071563,-0.6503906,0.032409668,-0.78692627,-0.265625,1.234375,0.078125
493,493,1728000071603,-0.6464844,0.0368042,-0.79156494,-0.46875,1.15625,0.21875
494,494,1728000071643,-0.64990234,0.030700684,-0.7944946,-0.34375,1.46875,0.328125
495,495,1728000071683,-0.6479492,0.030212402,-0.7888794,-0.375,1.28125,0.40625
496,496,1728000071723,-0.6516113,0.028259277,-0.7893677,-0.359375,1.21875,0.296875
497,497,1728000071763,-0.65405273,0.034118652,-0.788147,-0.375,1.15625,0.359375
498,498,1728000071803,-0.65722656,0.03314209,-0.788147,-0.359375,1.265625,0.3125
499,499,1728000071843,-0.65185547,0.028747559,-0.788147,-0.296875,1.265625,0.203125
500,500,1728000071883,-0.6479492,0.035095215,-0.7822876,-0.328125,1.078125,0.265625
501,501,1728000071923,-0.65185547,0.031188965,-0.78692627,-0.234375,1.390625,0.25
502,502,1728000071963,-0.65649414,0.034118652,-0.7854614,-0.3125,1.0625,0.28125
503,503,1728000072003,-0.64990234,0.030700684,-0.7905884,-0.421875,0.984375,0.265625
504,504,1728000072043,-0.65771484,0.039001465,-0.7835083,-0.5,1.03125,0.1875
505,505,1728000072083,-0.65722656,0.029724121,-0.78692627,-0.21875,0.9375,0.109375
506,506,1728000072123,-0.6503906,0.030944824,-0.78570557,-0.125,1.046875,0.203125
507,507,1728000072163,-0.6520996,0.031677246,-0.79107666,-0.34375,0.8125,0.3125
508,508,1728000072203,-0.6611328,0.03265381,-0.78912354,-0.484375,1.109375,0.296875
509,509,1728000072243,-0.6525879,0.024841309,-0.78912354,-0.4375,1.46875,0.125
510,510,1728000072283,-0.64941406,0.026794434,-0.78497314,-0.28125,1.546875,0.34375
511,511,1728000072323,-0.6513672,0.028747559,-0.78204346,-0.1875,1.09375,0.25
512,512,1728000072363,-0.65600586,0.032409668,-0.7805786,-0.4375,1.15625,0.421875
513,513,1728000072403,-0.6635742,0.035095215,-0.7871704,-0.328125,0.96875,0.265625
514,514,1728000072443,-0.65844727,0.034118652,-0.78302,-0.375,1.1875,0.109375
515,515,1728000072483,-0.6550293,0.030212402,-0.77911377,-0.375,1.078125,0.171875
516,516,1728000072523,-0.6616211,0.031921387,-0.7822876,-0.40625,0.734375,0.15625
517,517,1728000072563,-0.6555176,0.028747559,-0.78326416,-0.375,0.6875,0.3125
518,518,1728000072603,-0.654541,0.026306152,-0.7835083,-0.515625,0.53125,0.140625
519,519,1728000072643,-0.65527344,0.026550293,-0.7810669,-0.40625,0.375,0.390625
520,520,1728000072683,-0.6582031,0.031677246,-0.7817993,-0.375,0.140625,0.21875
521,521,1728000072723,-0.65625,0.028747559,-0.7835083,-0.3125,0.328125,0.234375
522,522,1728000072763,-0.6550293,0.024597168,-0.78619385,-0.265625,0.375,0.15625
523,523,1728000072803,-0.6557617,0.02557373,-0.79034424,-0.265625,0.5625,0.203125
524,524,1728000072843,-0.65283203,0.031188965,-0.7883911,-0.234375,0.109375,0.140625
525,525,1728000072883,-0.65600586,0.028015137,-0.78326416,-0.328125,0.515625,0.296875
526,526,1728000072923,-0.6604004,0.032165527,-0.78619385,-0.46875,0.359375,0.234375
527,527,1728000072963,-0.6491699,0.032165527,-0.7913208,-0.234375,0.71875,0.140625
528,528,1728000073003,-0.64697266,0.035095215,-0.786438,-0.296875,0.59375,0.25
529,529,1728000073043,-0.6491699,0.032409668,-0.79034424,-0.46875,0.421875,0.234375
530,530,1728000073083,-0.64941406,0.031433105,-0.78692627,-0.21875,0.96875,0.390625
531,531,1728000073123,-0.6479492,0.0289917,-0.79034424,-0.359375,0.984375,0.328125
532,532,1728000073163,-0.6491699,0.035827637,-0.79107666,-0.375,0.765625,0.234375
533,533,1728000073203,-0.6555176,0.026794434,-0.7932739,-0.453125,0.78125,0.234375
534,534,1728000073243,-0.65600586,0.030700684,-0.786438,-0.28125,0.515625,0.125
535,535,1728000073283,-0.64746094,0.030456543,-0.7918091,-0.203125,0.59375,0.109375
536,536,1728000073323,-0.64697266,0.0289917,-0.78912354,-0.171875,0.609375,-0.015625
537,537,1728000073363,-0.6479492,0.027770996,-0.78741455,-0.28125,0.421875,0.0625
538,538,1728000073403,-0.6479492,0.031677246,-0.78692627,-0.25,0.640625,0.3125
539,539,1728000073443,-0.64990234,0.027526855,-0.7966919,-0.296875,0.625,0.3125
540,540,1728000073483,-0.65478516,0.029724121,-0.7918091,-0.328125,0.765625,0.21875
541,541,1728000073523,-0.64746094,0.026306152,-0.79229736,-0.328125,0.671875,0.3125
542,542,1728000073563,-0.64624023,0.028259277,-0.79644775,-0.3125,0.671875,0.203125
543,543,1728000073603,-0.6452637,0.030212402,-0.7930298,-0.296875,0.546875,0.328125
544,544,1728000073643,-0.64868164,0.031921387,-0.78497314,-0.28125,0.75,0.203125
545,545,1728000073683,-0.6477051,0.030212402,-0.7944946,-0.234375,0.796875,0.265625
546,546,1728000073723,-0.64941406,0.031677246,-0.7901001,-0.328125,0.671875,0.21875
547,547,1728000073763,-0.64746094,0.029724121,-0.7908325,-0.296875,0.71875,0.21875
548,548,1728000073803,-0.6447754,0.031433105,-0.7901001,-0.265625,0.703125,0.0625
549,549,1728000073843,-0.64282227,0.034606934,-0.7839966,-0.265625,0.671875,0.0625
550,550,1728000073883,-0.64501953,0.031188965,-0.7883911,-0.453125,0.609375,0.109375
551,551,1728000073923,-0.64331055,0.03289795,-0.7920532,-0.3125,0.859375,0.171875
552,552,1728000073963,-0.6447754,0.027526855,-0.79107666,-0.390625,1.09375,0.28125
553,553,1728000074003,-0.6479492,0.0289917,-0.79278564,-0.25,0.9375,0.21875
554,554,1728000074043,-0.64331055,0.034851074,-0.7893677,-0.453125,0.625,0.015625
555,555,1728000074083,-0.6452637,0.029968262,-0.78863525,-0.296875,0.734375,0.203125
556,556,1728000074123,-0.6484375,0.025817871,-0.79473877,-0.390625,0.734375,0.234375
557,557,1728000074163,-0.67456055,0.026062012,-0.79107666,-0.40625,0.828125,0.1875
558,558,1728000074203,-0.63671875,0.03289795,-0.7908325,-0.09375,0.71875,0.015625
559,559,1728000074243,-0.65600586,0.02923584,-0.78863525,-0.15625,0.796875,0.171875
560,560,1728000074283,-0.64404297,0.028259277,-0.7888794,-0.3125,0.875,0.171875
561,561,1728000074323,-0.6413574,0.03753662,-0.79351807,-0.421875,0.84375,0.125
562,562,1728000074363,-0.64331055,0.02142334,-0.79473877,-0.484375,0.8125,0.265625
563,563,1728000074403,-0.6477051,0.029968262,-0.7932739,-0.453125,0.765625,0.28125
564,564,1728000074443,-0.6386719,0.023620605,-0.7913208,-0.375,0.875,0.3125
565,565,1728000074483,-0.6452637,0.032165527,-0.7959595,-0.28125,0.78125,0.234375
566,566,1728000074523,-0.6430664,0.02947998,-0.7932739,-0.28125,0.8125,0.125
567,567,1728000074563,-0.64575195,0.028015137,-0.79107666,-0.21875,0.671875,0.078125
568,568,1728000074603,-0.64746094,0.031921387,-0.7896118,-0.25,1.0,0.21875
569,569,1728000074643,-0.64624023,0.030944824,-0.7942505,-0.171875,0.75,0.1875
570,570,1728000074683,-0.6489258,0.027526855,-0.7949829,-0.4375,0.859375,0.265625
571,571,1728000074723,-0.6467285,0.032409668,-0.7925415,-0.71875,0.828125,0.3125
572,572,1728000074763,-0.64941406,0.020935059,-0.7896118,0.0,0.515625,0.1875
573,573,1728000074803,-0.64990234,0.031433105,-0.784729,-0.171875,0.453125,0.125
574,574,1728000074843,-0.6501465,0.035339355,-0.79644775,-0.34375,0.828125,0.25
575,575,1728000074883,-0.64746094,0.03338623,-0.79278564,-0.28125,1.203125,0.125
576,576,1728000074923,-0.6437988,0.031921387,-0.79351807,-0.1875,1.03125,0.125
577,577,1728000074963,-0.6467285,0.028503418,-0.7944946,-0.390625,1.078125,0.09375
578,578,1728000075003,-0.6496582,0.03338623,-0.7913208,-0.28125,0.828125,0.234375
579,579,1728000075043,-0.64453125,0.028503418,-0.7901001,-0.28125,0.765625,0.25
580,580,1728000075083,-0.6398926,0.030212402,-0.7954712,-0.453125,1.078125,0.296875
581,581,1728000075123,-0.64624023,0.032409668,-0.79156494,-0.34375,1.0625,0.125
582,582,1728000075163,-0.6513672,0.03265381,-0.7908325,-0.28125,1.25,0.09375
583,583,1728000075203,-0.64575195,0.02557373,-0.7996216,-0.34375,1.265625,0.421875
584,584,1728000075243,-0.6516113,0.020935059,-0.7942505,-0.34375,1.265625,0.234375
585,585,1728000075283,-0.6516113,0.03753662,-0.7930298,-0.421875,1.09375,0.421875
586,586,1728000075323,-0.6435547,0.031677246,-0.7918091,-0.46875,0.984375,0.0625
587,587,1728000075363,-0.6442871,0.028747559,-0.7913208,-0.265625,1.015625,0.296875
588,588,1728000075403,-0.6491699,0.0289917,-0.7859497,-0.265625,1.125,0.234375
589,589,1728000075443,-0.65063477,0.0368042,-0.7920532,-0.390625,1.109375,0.203125
590,590,1728000075483,-0.64404297,0.031677246,-0.788147,-0.328125,1.015625,0.25
591,591,1728000075523,-0.65234375,0.029724121,-0.7925415,-0.296875,1.046875,0.34375
592,592,1728000075563,-0.6467285,0.030212402,-0.7920532,-0.296875,1.171875,0.1875
593,593,1728000075603,-0.6491699,0.030456543,-0.7893677,-0.375,1.046875,0.375
594,594,1728000075643,-0.65356445,0.027526855,-0.7908325,-0.59375,1.203125,0.28125
595,595,1728000075683,-0.642334,0.028259277,-0.7920532,-0.4375,1.296875,0.390625
596,596,1728000075723,-0.64868164,0.032165527,-0.7905884,-0.046875,0.875,0.125
597,597,1728000075763,-0.65063477,0.036315918,-0.78985596,-0.34375,0.828125,0.109375
598,598,1728000075803,-0.6513672,0.027282715,-0.7930298,-0.359375,1.03125,0.34375
599,599,1728000075843,-0.6503906,0.02923584,-0.7942505,-0.296875,1.46875,0.21875
600,600,1728000075883,-0.6516113,0.031921387,-0.7925415,-0.328125,1.59375,0.296875
601,601,1728000075923,-0.6525879,0.035827637,-0.7888794,-0.375,1.46875,0.125
602,602,1728000075963,-0.6496582,0.02923584,-0.79107666,-0.390625,1.484375,0.15625
603,603,1728000076003,-0.6491699,0.030700684,-0.7893677,-0.359375,1.109375,0.390625
604,604,1728000076043,-0.6525879,0.032165527,-0.78692627,-0.34375,1.296875,0.234375
605,605,1728000076083,-0.6464844,0.030456543,-0.78253174,-0.328125,1.3125,0.421875
606,606,1728000076123,-0.6567383,0.034606934,-0.7839966,-0.265625,1.109375,0.3125
607,607,1728000076163,-0.6489258,0.027282715,-0.7871704,-0.46875,1.15625,0.21875
608,608,1728000076203,-0.64941406,0.0289917,-0.7854614,-0.375,1.15625,0.171875
609,609,1728000076243,-0.6516113,0.031188965,-0.7854614,-0.359375,1.3125,0.25
610,610,1728000076283,-0.65405273,0.027282715,-0.78790283,-0.515625,1.140625,0.125
611,611,1728000076323,-0.6557617,0.03363037,-0.78497314,-0.3125,1.03125,0.09375
612,612,1728000076363,-0.65625,0.028503418,-0.78570557,-0.375,1.0625,0.328125
613,613,1728000076403,-0.65478516,0.026306152,-0.78741455,-0.359375,0.90625,0.140625
614,614,1728000076443,-0.6508789,0.032409668,-0.7835083,-0.4375,1.109375,0.390625
615,615,1728000076483,-0.6516113,0.0368042,-0.78863525,-0.53125,1.09375,0.15625
616,616,1728000076523,-0.6574707,0.029968262,-0.7810669,-0.296875,0.53125,0.203125
617,617,1728000076563,-0.6599121,0.03314209,-0.7852173,-0.390625,0.640625,0.234375
618,618,1728000076603,-0.6520996,0.027770996,-0.78985596,-0.421875,0.296875,0.234375
619,619,1728000076643,-0.6555176,0.027770996,-0.78497314,-0.21875,0.421875,0.21875
620,620,1728000076683,-0.6582031,0.030212402,-0.7852173,-0.265625,0.1875,0.140625
621,621,1728000076723,-0.657959,0.031921387,-0.7871704,-0.359375,0.28125,0.390625
622,622,1728000076763,-0.6508789,0.02532959,-0.7944946,-0.328125,0.875,0.1875
623,623,1728000076803,-0.6513672,0.031188965,-0.79229736,-0.421875,0.890625,0.15625
624,624,1728000076843,-0.65478516,0.028747559,-0.7896118,-0.4375,0.609375,0.421875
625,625,1728000076883,-0.64697266,0.0289917,-0.7835083,-0.4375,0.703125,0.1875
626,626,1728000076923,-0.6542969,0.0289917,-0.79034424,-0.4375,0.609375,0.359375
627,627,1728000076963,-0.6496582,0.03363037,-0.78790283,-0.328125,0.890625,0.171875
628,628,1728000077003,-0.6520996,0.034118652,-0.7866821,-0.109375,0.703125,0.171875
629,629,1728000077043,-0.6496582,0.03289795,-0.79156494,-0.265625,0.59375,0.296875
630,630,1728000077083,-0.6455078,0.032165527,-0.79107666,-0.25,0.65625,-0.015625
631,631,1728000077123,-0.64819336,0.031677246,-0.7854614,-0.359375,0.65625,0.15625
632,632,1728000077163,-0.64990234,0.032409668,-0.7866821,-0.359375,0.671875,0.40625
633,633,1728000077203,-0.64746094,0.026550293,-0.78790283,-0.421875,0.5625,0.3125
634,634,1728000077243,-0.6533203,0.03314209,-0.79278564,-0.453125,0.625,0.140625
635,635,1728000077283,-0.64575195,0.02557373,-0.78912354,-0.28125,0.609375,0.453125
636,636,1728000077323,-0.64208984,0.027282715,-0.7896118,-0.359375,0.515625,0.25
637,637,1728000077363,-0.64868164,0.02923584,-0.7859497,-0.296875,0.75,0.203125
638,638,1728000077403,-0.64697266,0.0289917,-0.7908325,-0.28125,0.59375,0.078125
639,639,1728000077443,-0.64941406,0.030456543,-0.79351807,-0.34375,0.671875,0.203125
640,640,1728000077483,-0.6437988,0.03387451,-0.7942505,-0.421875,0.625,0.359375
641,641,1728000077523,-0.64453125,0.027770996,-0.79107666,-0.25,0.46875,0.296875
642,642,1728000077563,-0.6435547,0.029724121,-0.7859497,-0.125,0.5,0.203125
643,643,1728000077603,-0.6435547,0.03314209,-0.7962036,-0.328125,0.578125,0.25
644,644,1728000077643,-0.6447754,0.030212402,-0.79888916,-0.46875,0.890625,0.140625
645,645,1728000077683,-0.64575195,0.02947998,-0.7866821,-0.375,0.96875,0.296875
646,646,1728000077723,-0.64990234,0.028015137,-0.7888794,-0.4375,0.875,0.234375
647,647,1728000077763,-0.6484375,0.027038574,-0.7901001,-0.296875,0.8125,0.296875
648,648,1728000077803,-0.6516113,0.032409668,-0.7930298,-0.484375,0.71875,0.4375
649,649,1728000077843,-0.64575195,0.030212402,-0.7918091,-0.234375,0.546875,0.328125
650,650,1728000077883,-0.6452637,0.03289795,-0.7944946,-0.328125,0.8125,0.125
651,651,1728000077923,-0.6447754,0.027282715,-0.78985596,-0.3125,0.609375,0.15625
652,652,1728000077963,-0.64331055,0.028259277,-0.7974243,-0.234375,0.703125,0.171875
653,653,1728000078003,-0.64941406,0.029724121,-0.7932739,-0.390625,0.875,0.203125
654,654,1728000078043,-0.640625,0.031188965,-0.78570557,-0.3125,0.71875,0.234375
655,655,1728000078083,-0.64208984,0.027282715,-0.7959595,-0.328125,0.953125,0.21875
656,656,1728000078123,-0.6442871,0.027282715,-0.79107666,-0.421875,0.8125,0.265625
657,657,1728000078163,-0.64160156,0.028015137,-0.7901001,-0.453125,0.859375,0.265625
658,658,1728000078203,-0.6479492,0.034851074,-0.7920532,-0.328125,0.890625,0.265625
659,659,1728000078243,-0.640625,0.031188965,-0.78985596,-0.359375,0.9375,0.25
660,660,1728000078283,-0.63964844,0.027526855,-0.7925415,-0.25,0.6875,0.25
661,661,1728000078323,-0.6430664,0.03338623,-0.7949829,-0.484375,0.671875,0.140625
662,662,1728000078363,-0.6472168,0.031677246,-0.79571533,-0.34375,0.78125,0.265625
663,663,1728000078403,-0.64282227,0.0289917,-0.7932739,-0.234375,0.84375,0.1875
664,664,1728000078443,-0.6442871,0.03314209,-0.7888794,-0.25,0.9375,0.0625
665,665,1728000078483,-0.6464844,0.031433105,-0.7905884,-0.3125,0.75,0.296875
666,666,1728000078523,-0.6520996,0.03363037,-0.79693604,-0.546875,0.984375,0.328125
667,667,1728000078563,-0.6452637,0.023864746,-0.79400635,-0.046875,0.578125,0.09375
668,668,1728000078603,-0.64404297,0.031921387,-0.798645,-0.203125,0.484375,0.21875
669,669,1728000078643,-0.6459961,0.031188965,-0.7949829,-0.421875,0.4375,0.25
670,670,1728000078683,-0.64086914,0.02532959,-0.7905884,-0.4375,1.203125,0.234375
671,671,1728000078723,-0.642334,0.030944824,-0.7893677,-0.40625,1.28125,0.171875
672,672,1728000078763,-0.6437988,0.024353027,-0.7896118,-0.3125,1.03125,0.109375
673,673,1728000078803,-0.63720703,0.0289917,-0.7883911,-0.3125,0.546875,0.34375
674,674,1728000078843,-0.64208984,0.027526855,-0.7930298,-0.40625,0.828125,0.34375
675,675,1728000078883,-0.6459961,0.02923584,-0.7896118,-0.28125,0.875,0.234375
676,676,1728000078923,-0.6386719,0.030212402,-0.7888794,-0.265625,0.90625,0.234375
677,677,1728000078963,-0.6442871,0.035339355,-0.79278564,-0.296875,0.921875,0.140625
678,678,1728000079003,-0.6442871,0.03289795,-0.7966919,-0.234375,1.234375,0.296875
679,679,1728000079043,-0.6435547,0.026306152,-0.7942505,-0.46875,1.234375,0.453125
680,680,1728000079083,-0.6472168,0.027282715,-0.79107666,-0.453125,0.828125,0.21875
681,681,1728000079123,-0.6413574,0.031433105,-0.78985596,-0.4375,0.953125,0.09375
682,682,1728000079163,-0.6452637,0.03363037,-0.79278564,-0.4375,1.03125,0.203125
683,683,1728000079203,-0.6437988,0.028015137,-0.7901001,-0.234375,1.15625,0.15625
684,684,1728000079243,-0.64624023,0.026794434,-0.7920532,-0.234375,1.109375,0.34375
685,685,1728000079283,-0.6479492,0.029968262,-0.7918091,-0.328125,0.953125,0.1875
686,686,1728000079323,-0.6442871,0.031677246,-0.7979126,-0.34375,1.015625,0.28125
687,687,1728000079363,-0.6479492,0.028747559,-0.7893677,-0.25,1.109375,0.375
688,688,1728000079403,-0.64575195,0.03314209,-0.7966919,-0.421875,1.140625,0.203125
689,689,1728000079443,-0.6452637,0.02947998,-0.78985596,-0.4375,1.21875,0.265625
690,690,1728000079483,-0.64697266,0.032409668,-0.7930298,-0.21875,1.359375,0.234375
691,691,1728000079523,-0.6435547,0.031677246,-0.7893677,-0.265625,1.09375,0.09375
692,692,1728000079563,-0.64868164,0.024841309,-0.79351807,-0.390625,1.296875,0.265625
693,693,1728000079603,-0.6464844,0.028259277,-0.7901001,-0.40625,1.171875,0.3125
694,694,1728000079643,-0.6513672,0.028259277,-0.79473877,-0.140625,0.796875,-0.015625
695,695,1728000079683,-0.6472168,0.032165527,-0.78448486,-0.1875,0.953125,0.234375
696,696,1728000079723,-0.6472168,0.032409668,-0.79693604,-0.296875,0.96875,0.1875
697,697,1728000079763,-0.65405273,0.030944824,-0.7920532,-0.359375,1.5,0.25
698,698,1728000079803,-0.65356445,0.031433105,-0.79473877,-0.453125,1.65625,0.265625
699,699,1728000079843,-0.6479492,0.028747559,-0.7835083,-0.484375,1.578125,0.28125
700,700,1728000079883,-0.64868164,0.027770996,-0.78326416,-0.375,1.0625,0.3125
701,701,1728000079923,-0.65405273,0.031921387,-0.7839966,-0.46875,1.171875,0.25
702,702,1728000079963,-0.65527344,0.03265381,-0.79107666,-0.25,0.984375,0.4375
703,703,1728000080003,-0.65600586,0.032409668,-0.7908325,-0.453125,1.125,0.203125
704,704,1728000080043,-0.65112305,0.027526855,-0.78790283,-0.234375,1.21875,0.296875
705,705,1728000080083,-0.6555176,0.028015137,-0.78741455,-0.203125,1.109375,0.203125
706,706,1728000080123,-0.6538086,0.032165527,-0.7876587,-0.234375,1.203125,0.09375
707,707,1728000080163,-0.65405273,0.030944824,-0.78692627,-0.34375,1.265625,0.15625
708,708,1728000080203,-0.6525879,0.029968262,-0.7896118,-0.421875,1.328125,0.25
709,709,1728000080243,-0.657959,0.026062012,-0.78204346,-0.421875,1.15625,0.171875
710,710,1728000080283,-0.64990234,0.027282715,-0.784729,-0.46875,0.875,0.171875
711,711,1728000080323,-0.6513672,0.031677246,-0.7803345,-0.390625,0.8125,0.109375
712,712,1728000080363,-0.6533203,0.024108887,-0.784729,-0.3125,0.78125,0.140625
713,713,1728000080403,-0.6513672,0.029724121,-0.786438,-0.359375,0.453125,0.234375
714,714,1728000080443,-0.6516113,0.03289795,-0.7876587,-0.40625,0.34375,0.375
715,715,1728000080483,-0.64941406,0.031921387,-0.78619385,-0.359375,0.828125,0.234375
716,716,1728000080523,-0.65625,0.028503418,-0.78326416,-0.34375,0.296875,0.453125
717,717,1728000080563,-0.654541,0.027770996,-0.7854614,-0.375,0.453125,0.3125
718,718,1728000080603,-0.6550293,0.03314209,-0.7901001,-0.34375,0.15625,0.1875
719,719,1728000080643,-0.65356445,0.031188965,-0.78790283,-0.15625,0.359375,0.109375
720,720,1728000080683,-0.65234375,0.0368042,-0.78619385,-0.203125,0.203125,0.140625
721,721,1728000080723,-0.6542969,0.03289795,-0.79693604,-0.46875,0.296875,0.234375
722,722,1728000080763,-0.65527344,0.03289795,-0.78790283,-0.421875,0.765625,0.03125
723,723,1728000080803,-0.6542969,0.027526855,-0.7905884,-0.4375,0.859375,0.203125
724,724,1728000080843,-0.6501465,0.0289917,-0.78863525,-0.390625,0.65625,0.453125
725,725,1728000080883,-0.6455078,0.027282715,-0.78790283,-0.1875,0.515625,0.34375
726,726,1728000080923,-0.6447754,0.025817871,-0.7932739,-0.359375,0.578125,0.328125
727,727,1728000080963,-0.6477051,0.02508545,-0.7930298,-0.171875,0.546875,0.203125
728,728,1728000081003,-0.6442871,0.027770996,-0.7908325,-0.140625,0.5625,0.265625
729,729,1728000081043,-0.6496582,0.034606934,-0.7930298,-0.203125,0.515625,0.328125
730,730,1728000081083,-0.6501465,0.027282715,-0.79400635,-0.390625,0.6875,0.25
731,731,1728000081123,-0.6513672,0.031921387,-0.7913208,-0.3125,0.65625,0.234375
732,732,1728000081163,-0.6398926,0.0289917,-0.7918091,-0.421875,0.515625,0.3125
733,733,1728000081203,-0.64501953,0.03289795,-0.7866821,-0.40625,0.625,0.3125
734,734,1728000081243,-0.64819336,0.029968262,-0.7918091,-0.3125,0.75,0.15625
735,735,1728000081283,-0.6477051,0.02947998,-0.79693604,-0.359375,0.5,0.140625
736,736,1728000081323,-0.65185547,0.027038574,-0.7888794,-0.34375,0.65625,0.28125
737,737,1728000081363,-0.64501953,0.03314209,-0.7932739,-0.25,0.609375,0.234375
738,738,1728000081403,-0.6442871,0.03387451,-0.7925415,-0.359375,0.703125,0.359375
739,739,1728000081443,-0.64990234,0.027770996,-0.79107666,-0.375,0.6875,0.171875
740,740,1728000081483,-0.64575195,0.031921387,-0.7932739,-0.40625,0.921875,0.203125
741,741,1728000081523,-0.64575195,0.029724121,-0.8010864,-0.484375,0.71875,0.203125
742,742,1728000081563,-0.6442871,0.027526855,-0.79400635,-0.296875,0.78125,0.25
743,743,1728000081603,-0.6467285,0.03314209,-0.79156494,-0.3125,0.28125,0.296875
744,744,1728000081643,-0.64624023,0.027038574,-0.79522705,-0.40625,0.6875,0.171875
745,745,1728000081683,-0.6464844,0.032409668,-0.7883911,-0.34375,1.0625,0.15625
746,746,1728000081723,-0.6484375,0.031433105,-0.7920532,-0.375,1.140625,0.203125
747,747,1728000081763,-0.6464844,0.030700684,-0.79107666,-0.390625,0.875,0.34375
748,748,1728000081803,-0.64453125,0.031921387,-0.79229736,-0.296875,0.75,0.34375
749,749,1728000081843,-0.6472168,0.035095215,-0.7959595,-0.328125,0.703125,0.140625
750,750,1728000081883,-0.6491699,0.03265381,-0.79693604,-0.28125,0.9375,0.125
751,751,1728000081923,-0.6442871,0.032165527,-0.7942505,-0.296875,0.703125,0.140625
752,752,1728000081963,-0.64282227,0.031433105,-0.7966919,-0.375,0.84375,0.359375
753,753,1728000082003,-0.64575195,0.031433105,-0.79351807,-0.34375,0.796875,0.1875
754,754,1728000082043,-0.64331055,0.027770996,-0.7954712,-0.3125,0.765625,0.21875
755,755,1728000082083,-0.64282227,0.026794434,-0.7883911,-0.5,0.765625,0.328125
756,756,1728000082123,-0.6401367,0.03265381,-0.7930298,-0.234375,0.828125,0.1875
757,757,1728000082163,-0.6435547,0.034606934,-0.79693604,-0.3125,0.734375,0.203125
758,758,1728000082203,-0.64624023,0.030212402,-0.7932739,-0.25,1.046875,0.40625
759,759,1728000082243,-0.64501953,0.03289795,-0.7959595,-0.234375,0.625,0.5
760,760,1728000082283,-0.64819336,0.03753662,-0.7954712,-0.484375,0.234375,0.40625
