,Unnamed: 0,timestamp,accel_x,accel_y,accel_z,gyro_x,gyro_y,gyro_z
0,0,1727897366633,-0.609375,-0.02520752,-0.7888794,-0.171875,1.5625,0.0625
1,1,1727897366673,-0.60717773,-0.028381348,-0.78863525,-0.078125,1.125,-0.078125
2,2,1727897366713,-0.6118164,-0.02154541,-0.7854614,-0.046875,0.484375,0.046875
3,3,1727897366753,-0.6057129,-0.022766113,-0.7876587,0.21875,0.328125,-0.125
4,4,1727897366793,-0.6052246,-0.027160645,-0.79351807,-0.203125,0.265625,-0.078125
5,5,1727897366833,-0.6032715,-0.026184082,-0.79473877,-0.015625,0.140625,-0.140625
6,6,1727897366873,-0.6047363,-0.021057129,-0.79571533,-0.015625,0.375,-0.1875
7,7,1727897366913,-0.6022949,-0.02130127,-0.7859497,0.0,0.390625,-0.015625
8,8,1727897366953,-0.6147461,-0.02178955,-0.79766846,0.015625,0.328125,-0.0625
9,9,1727897366993,-0.6101074,-0.02130127,-0.7896118,-0.0625,0.5,-0.0625
10,10,1727897367033,-0.60424805,-0.022277832,-0.79693604,-0.21875,0.515625,-0.0625
11,11,1727897367073,-0.6057129,-0.019836426,-0.79229736,-0.234375,0.5625,-0.078125
12,12,1727897367113,-0.6081543,-0.0154418945,-0.7883911,-0.015625,0.34375,0.0
13,13,1727897367153,-0.60375977,-0.014953613,-0.7888794,-0.015625,0.125,-0.046875
14,14,1727897367193,-0.6015625,-0.022521973,-0.78741455,0.09375,0.25,-0.046875
15,15,1727897367233,-0.6123047,-0.018371582,-0.798645,-0.15625,0.15625,0.03125
16,16,1727897367273,-0.60424805,-0.027404785,-0.79278564,0.125,-0.015625,-0.109375
17,17,1727897367313,-0.60424805,-0.019348145,-0.7971802,-0.5625,0.484375,-0.09375
18,18,1727897367353,-0.59716797,-0.018371582,-0.7842407,0.015625,0.40625,-0.046875
19,19,1727897367393,-0.6015625,-0.015686035,-0.798645,-0.140625,0.15625,-0.0625
20,20,1727897367433,-0.5991211,-0.016174316,-0.79766846,0.140625,0.15625,-0.078125
21,21,1727897367473,-0.60498047,-0.017150879,-0.79571533,-0.109375,-0.078125,0.046875
22,22,1727897367513,-0.6022949,-0.015197754,-0.7962036,-0.390625,0.296875,0.015625
23,23,1727897367553,-0.60180664,-0.012512207,-0.78741455,-0.296875,0.375,-0.03125
24,24,1727897367593,-0.60058594,-0.017150879,-0.79278564,-0.40625,0.625,0.125
25,25,1727897367633,-0.5966797,-0.019104004,-0.7901001,-0.09375,0.484375,0.109375
26,26,1727897367673,-0.6015625,-0.015930176,-0.7954712,-0.03125,0.453125,0.0
27,27,1727897367713,-0.5969238,-0.008117676,-0.79888916,-0.15625,0.1875,0.140625
28,28,1727897367753,-0.60302734,-0.015930176,-0.7925415,-0.046875,0.234375,0.078125
29,29,1727897367793,-0.6032715,-0.014221191,-0.7974243,-0.328125,0.1875,0.125
30,30,1727897367833,-0.5991211,-0.007873535,-0.7908325,-0.046875,0.71875,0.046875
31,31,1727897367873,-0.60302734,-0.007873535,-0.7942505,0.0,-0.078125,0.015625
32,32,1727897367913,-0.5986328,-0.01373291,-0.7979126,0.015625,0.375,0.03125
33,33,1727897367953,-0.595459,-0.018615723,-0.8010864,-0.296875,0.34375,0.078125
34,34,1727897367993,-0.5996094,-0.009338379,-0.79400635,0.3125,0.171875,-0.03125
35,35,1727897368033,-0.60546875,-0.0154418945,-0.80792236,-0.5625,0.25,-0.03125
36,36,1727897368073,-0.5969238,-0.016174316,-0.786438,-0.171875,0.5625,0.0625
37,37,1727897368113,-0.5991211,-0.0178833,-0.8015747,-0.125,-0.1875,-0.0625
38,38,1727897368153,-0.6003418,-0.009338379,-0.7962036,-0.140625,0.1875,-0.03125
39,39,1727897368193,-0.5974121,-0.006652832,-0.80059814,-0.109375,0.203125,-0.03125
40,40,1727897368233,-0.59887695,-0.016418457,-0.8015747,-0.46875,0.46875,0.015625
41,41,1727897368273,-0.6003418,-0.014465332,-0.80596924,-0.265625,0.484375,0.1875
42,42,1727897368313,-0.59716797,-0.018371582,-0.79888916,-0.34375,0.796875,0.078125
43,43,1727897368353,-0.5979004,-0.0095825195,-0.79473877,-0.15625,0.5625,-0.0625
44,44,1727897368393,-0.59521484,-0.016906738,-0.7962036,-0.140625,0.328125,0.0
45,45,1727897368433,-0.6032715,-0.014709473,-0.8062134,-0.1875,0.328125,-0.046875
46,46,1727897368473,-0.5957031,-0.0115356445,-0.80133057,-0.421875,0.484375,0.0625
47,47,1727897368513,-0.60253906,-0.008117676,-0.7991333,-0.4375,0.546875,0.03125
48,48,1727897368553,-0.5974121,-0.010070801,-0.7944946,-0.46875,0.6875,0.03125
49,49,1727897368593,-0.5991211,-0.010070801,-0.8015747,-0.4375,0.109375,0.21875
50,50,1727897368633,-0.59643555,-0.015197754,-0.8008423,-0.609375,0.625,0.09375
51,51,1727897368673,-0.5974121,-0.010070801,-0.800354,-0.375,0.59375,0.109375
52,52,1727897368713,-0.59643555,-0.012512207,-0.78302,-0.046875,0.5625,-0.03125
53,53,1727897368753,-0.59716797,-0.010803223,-0.81451416,-0.4375,0.296875,0.15625
54,54,1727897368793,-0.5979004,-0.011291504,-0.7905884,-0.421875,0.78125,0.03125
55,55,1727897368833,-0.60180664,-0.011291504,-0.80426025,-0.171875,0.15625,0.0
56,56,1727897368873,-0.595459,-0.0076293945,-0.79400635,-0.453125,0.546875,0.171875
57,57,1727897368913,-0.5969238,-0.010803223,-0.79888916,-0.421875,0.546875,-0.03125
58,58,1727897368953,-0.60180664,-0.010314941,-0.7962036,-0.40625,0.515625,0.015625
59,59,1727897368993,-0.58984375,-0.014709473,-0.8010864,-0.140625,0.34375,-0.015625
60,60,1727897369033,-0.5969238,-0.011291504,-0.802063,-0.390625,0.515625,0.0
61,61,1727897369073,-0.5966797,-0.009338379,-0.7966919,-0.359375,0.546875,0.15625
62,62,1727897369113,-0.595459,-0.0071411133,-0.800354,-0.28125,0.34375,-0.046875
63,63,1727897369153,-0.5979004,-0.009094238,-0.79888916,-0.328125,0.40625,0.125
64,64,1727897369193,-0.5979004,-0.008605957,-0.7998657,-0.53125,0.71875,0.09375
65,65,1727897369233,-0.5974121,-0.0076293945,-0.8015747,-0.375,0.65625,0.140625
66,66,1727897369273,-0.5961914,-0.0076293945,-0.79522705,-0.484375,0.765625,-0.125
67,67,1727897369313,-0.59643555,-0.011779785,-0.7937622,-0.515625,0.5625,0.015625
68,68,1727897369353,-0.5913086,-0.014709473,-0.7984009,-0.375,0.34375,0.109375
69,69,1727897369393,-0.60302734,-0.013977051,-0.80059814,-0.375,0.71875,0.09375
70,70,1727897369433,-0.5996094,-0.007873535,-0.80010986,-0.59375,0.578125,0.109375
71,71,1727897369473,-0.59155273,-0.011047363,-0.7959595,0.046875,0.390625,0.03125
72,72,1727897369513,-0.59643555,-0.011291504,-0.80426025,-0.78125,0.921875,0.0
73,73,1727897369553,-0.5974121,-0.014953613,-0.79107666,-0.125,0.578125,0.046875
74,74,1727897369593,-0.60009766,-0.00982666,-0.80059814,-0.390625,0.78125,-0.015625
75,75,1727897369633,-0.6032715,-0.0154418945,-0.7944946,-0.5625,0.8125,0.0
76,76,1727897369673,-0.59814453,-0.0076293945,-0.80010986,-0.53125,0.84375,-0.078125
77,77,1727897369713,-0.60131836,-0.008361816,-0.7966919,-0.421875,0.84375,-0.09375
78,78,1727897369753,-0.5996094,-0.016662598,-0.7971802,-0.234375,0.671875,-0.09375
79,79,1727897369793,-0.60253906,-0.012756348,-0.80059814,-0.5625,1.046875,0.0
80,80,1727897369833,-0.60131836,-0.010070801,-0.79571533,-0.125,0.75,0.109375
81,81,1727897369873,-0.6027832,-0.010070801,-0.79278564,-0.25,0.78125,-0.09375
82,82,1727897369913,-0.6047363,-0.012756348,-0.79815674,-0.296875,0.96875,-0.03125
83,83,1727897369953,-0.60375977,-0.012512207,-0.7954712,-0.328125,1.09375,-0.046875
84,84,1727897369993,-0.6044922,-0.014953613,-0.7925415,-0.25,1.0625,0.109375
85,85,1727897370033,-0.6057129,-0.009338379,-0.79278564,-0.4375,0.90625,-0.046875
86,86,1727897370073,-0.60595703,-0.0017700195,-0.7888794,-0.421875,0.78125,-0.046875
87,87,1727897370113,-0.5979004,-0.0115356445,-0.79229736,-0.34375,0.421875,0.203125
88,88,1727897370153,-0.6010742,-0.011779785,-0.7979126,-0.25,0.46875,0.046875
89,89,1727897370193,-0.6069336,-0.011291504,-0.79107666,-0.375,0.59375,-0.0625
90,90,1727897370233,-0.6113281,-0.010314941,-0.79473877,-0.4375,0.625,0.0625
91,91,1727897370273,-0.6057129,-0.0115356445,-0.7949829,-0.203125,0.3125,0.0
92,92,1727897370313,-0.6064453,-0.009094238,-0.79937744,-0.703125,0.796875,0.015625
93,93,1727897370353,-0.60180664,-0.008361816,-0.7871704,-0.375,0.40625,0.03125
94,94,1727897370393,-0.6010742,-0.010070801,-0.8027954,-0.09375,0.375,0.25
95,95,1727897370433,-0.6027832,-0.00982666,-0.7876587,-0.375,0.390625,-0.046875
96,96,1727897370473,-0.60717773,-0.016174316,-0.7896118,-0.25,0.46875,-0.015625
97,97,1727897370513,-0.6081543,-0.008605957,-0.79107666,-0.703125,0.84375,0.015625
98,98,1727897370553,-0.60253906,-0.0017700195,-0.7942505,-0.40625,0.71875,0.03125
99,99,1727897370593,-0.607666,-0.008605957,-0.7991333,-0.671875,0.9375,-0.0625
100,100,1727897370633,-0.6044922,-0.0056762695,-0.7920532,-0.25,0.71875,-0.09375
101,101,1727897370673,-0.60791016,-0.0134887695,-0.7908325,-0.265625,0.59375,0.015625
102,102,1727897370713,-0.60180664,-0.007873535,-0.7920532,-0.5,0.6875,-0.078125
103,103,1727897370753,-0.6069336,-0.010803223,-0.7962036,-0.640625,0.8125,0.0
104,104,1727897370793,-0.60302734,-0.01373291,-0.7920532,-0.515625,0.96875,0.015625
105,105,1727897370833,-0.60131836,-0.014953613,-0.7918091,-0.40625,0.875,-0.015625
106,106,1727897370873,-0.60253906,-0.007873535,-0.7920532,-0.515625,0.703125,0.015625
107,107,1727897370913,-0.59936523,-0.017150879,-0.7925415,-0.296875,0.671875,0.046875
108,108,1727897370953,-0.6022949,-0.012023926,-0.7942505,-0.5,0.78125,0.0
109,109,1727897370993,-0.60424805,-0.0178833,-0.7866821,-0.25,0.53125,-0.09375
110,110,1727897371033,-0.6086426,-0.012023926,-0.79156494,-0.359375,0.546875,-0.0625
111,111,1727897371073,-0.60498047,-0.008361816,-0.7991333,-0.34375,0.671875,0.0
112,112,1727897371113,-0.6022949,-0.010314941,-0.7839966,-0.25,0.5625,0.0625
113,113,1727897371153,-0.6147461,-0.007385254,-0.7962036,-0.4375,0.484375,-0.046875
114,114,1727897371193,-0.60668945,-0.011291504,-0.7893677,-0.625,0.90625,-0.09375
115,115,1727897371233,-0.60595703,-0.012512207,-0.7905884,0.0,0.484375,-0.03125
116,116,1727897371273,-0.60961914,-0.008850098,-0.7866821,-0.453125,0.359375,0.09375
117,117,1727897371313,-0.607666,-0.006164551,-0.78570557,-0.3125,0.765625,0.09375
118,118,1727897371353,-0.60961914,-0.012023926,-0.7920532,-0.5625,0.625,0.015625
119,119,1727897371393,-0.609375,-0.0071411133,-0.78985596,-0.40625,0.515625,0.078125
120,120,1727897371433,-0.60791016,-0.0076293945,-0.78790283,-0.34375,0.640625,-0.109375
121,121,1727897371473,-0.6057129,-0.008850098,-0.788147,-0.328125,0.78125,-0.09375
122,122,1727897371513,-0.60839844,-0.006164551,-0.7888794,-0.265625,0.453125,0.109375
123,123,1727897371553,-0.60595703,-0.012512207,-0.78619385,-0.359375,0.765625,0.078125
124,124,1727897371593,-0.6047363,-0.004699707,-0.79473877,-0.46875,0.484375,0.0
125,125,1727897371633,-0.60668945,-0.011047363,-0.79156494,-0.46875,0.859375,-0.0625
126,126,1727897371673,-0.6113281,-0.0076293945,-0.7932739,-0.4375,0.875,0.0
127,127,1727897371713,-0.61035156,-0.009094238,-0.7930298,-0.515625,0.71875,0.125
128,128,1727897371753,-0.6125488,-0.0115356445,-0.7905884,-0.328125,0.734375,-0.078125
129,129,1727897371793,-0.6101074,-0.008605957,-0.7905884,-0.359375,0.859375,-0.078125
130,130,1727897371833,-0.6105957,-0.0051879883,-0.7883911,-0.390625,0.875,0.078125
131,131,1727897371873,-0.6164551,-0.007385254,-0.7883911,-0.53125,0.828125,-0.078125
132,132,1727897371913,-0.60791016,-0.005432129,-0.7918091,-0.359375,0.671875,0.015625
133,133,1727897371953,-0.6125488,-0.0115356445,-0.7866821,-0.46875,0.828125,0.015625
134,134,1727897371993,-0.6130371,-0.0049438477,-0.79034424,-0.328125,0.40625,-0.015625
135,135,1727897372033,-0.61279297,-0.008850098,-0.78375244,-0.125,0.640625,0.0625
136,136,1727897372073,-0.6166992,-0.004699707,-0.79571533,-0.0625,0.53125,-0.09375
137,137,1727897372113,-0.6044922,-0.010070801,-0.78912354,0.1875,0.15625,-0.015625
138,138,1727897372153,-0.6064453,-0.009338379,-0.7937622,-0.53125,0.21875,0.015625
139,139,1727897372193,-0.60961914,-0.007385254,-0.78009033,-0.0625,-0.28125,0.015625
140,140,1727897372233,-0.61157227,-0.009338379,-0.7920532,0.078125,-0.796875,0.140625
141,141,1727897372273,-0.609375,-0.008605957,-0.79229736,-0.328125,-0.3125,0.015625
142,142,1727897372313,-0.609375,-0.004211426,-0.7944946,-0.09375,-0.09375,0.046875
143,143,1727897372353,-0.6047363,-0.008117676,-0.79107666,-0.359375,0.046875,0.15625
144,144,1727897372393,-0.60546875,-0.010559082,-0.7942505,-0.46875,0.0625,0.09375
145,145,1727897372433,-0.60180664,-0.0095825195,-0.7998657,-0.46875,0.296875,0.140625
146,146,1727897372473,-0.60839844,-0.0095825195,-0.78619385,-0.265625,0.21875,0.078125
147,147,1727897372513,-0.6044922,-0.0095825195,-0.7984009,0.0,0.03125,0.15625
148,148,1727897372553,-0.6035156,-0.006164551,-0.79571533,-0.078125,-0.109375,0.09375
149,149,1727897372593,-0.6047363,-0.008117676,-0.7883911,-0.328125,0.25,0.078125
150,150,1727897372633,-0.6022949,-0.010314941,-0.7991333,-0.484375,0.40625,0.078125
151,151,1727897372673,-0.60424805,-0.0037231445,-0.79156494,-0.34375,0.3125,0.171875
152,152,1727897372713,-0.6044922,-0.007873535,-0.7971802,-0.34375,0.453125,0.046875
153,153,1727897372753,-0.6074219,-0.0017700195,-0.79229736,-0.3125,0.328125,0.046875
154,154,1727897372793,-0.6032715,-0.010070801,-0.7908325,-0.25,0.265625,0.015625
155,155,1727897372833,-0.6027832,-0.0051879883,-0.79888916,-0.1875,0.28125,0.140625
156,156,1727897372873,-0.59814453,-0.0049438477,-0.7937622,-0.359375,0.484375,-0.015625
157,157,1727897372913,-0.6047363,-0.011291504,-0.79522705,-0.46875,0.671875,0.015625
158,158,1727897372953,-0.60180664,-0.007873535,-0.79571533,-0.125,0.234375,0.15625
159,159,1727897372993,-0.60375977,-0.013244629,-0.79351807,-0.5625,0.453125,0.0625
160,160,1727897373033,-0.6052246,-0.0071411133,-0.7979126,-0.578125,0.421875,0.109375
161,161,1727897373073,-0.5991211,-0.010559082,-0.79156494,-0.25,0.34375,-0.109375
162,162,1727897373113,-0.6062012,-0.008361816,-0.80133057,-0.515625,0.765625,0.109375
163,163,1727897373153,-0.6064453,-0.011047363,-0.79229736,-0.375,0.578125,0.09375
164,164,1727897373193,-0.6074219,-0.006164551,-0.8015747,-0.46875,1.015625,0.15625
165,165,1727897373233,-0.59887695,-0.0015258789,-0.78570557,-0.09375,1.140625,0.0625
166,166,1727897373273,-0.60498047,-0.010559082,-0.8008423,-0.046875,1.03125,0.03125
167,167,1727897373313,-0.6022949,-0.014465332,-0.7984009,-0.5625,1.40625,0.15625
168,168,1727897373353,-0.60424805,-0.006164551,-0.7854614,-0.171875,1.796875,0.09375
169,169,1727897373393,-0.60498047,-0.010070801,-0.7817993,-0.078125,1.171875,-0.0625
170,170,1727897373433,-0.60839844,-0.003967285,-0.79888916,-0.21875,0.75,0.015625
171,171,1727897373473,-0.6105957,-0.006652832,-0.79351807,-0.1875,1.375,0.03125
172,172,1727897373513,-0.6020508,-0.006652832,-0.7852173,-0.03125,0.890625,-0.03125
173,173,1727897373553,-0.60913086,-0.008117676,-0.788147,-0.4375,0.421875,0.0625
174,174,1727897373593,-0.60717773,-0.008117676,-0.78790283,-0.421875,0.9375,0.078125
175,175,1727897373633,-0.607666,-0.00982666,-0.7908325,-0.390625,1.234375,0.03125
176,176,1727897373673,-0.61376953,-0.010314941,-0.7954712,-0.484375,1.03125,0.046875
177,177,1727897373713,-0.6113281,-0.0056762695,-0.78448486,-0.5625,1.0,-0.09375
178,178,1727897373753,-0.61328125,-0.0095825195,-0.79229736,-0.46875,0.796875,0.09375
179,179,1727897373793,-0.6118164,-0.010070801,-0.7866821,-0.4375,0.765625,0.078125
180,180,1727897373833,-0.6166992,-0.006652832,-0.78985596,-0.453125,0.8125,0.125
181,181,1727897373873,-0.61865234,-0.0064086914,-0.7893677,-0.1875,0.359375,0.03125
182,182,1727897373913,-0.6101074,-0.010559082,-0.7817993,-0.375,0.609375,-0.03125
183,183,1727897373953,-0.6140137,-0.007385254,-0.7893677,-0.625,0.5,-0.140625
184,184,1727897373993,-0.6166992,-0.0051879883,-0.7876587,-0.140625,0.546875,-0.03125
185,185,1727897374033,-0.6101074,-0.0064086914,-0.79473877,-0.6875,0.75,0.015625
186,186,1727897374073,-0.60302734,-0.008605957,-0.7817993,-0.171875,0.421875,-0.03125
187,187,1727897374113,-0.6088867,-0.0051879883,-0.79937744,-0.25,0.421875,0.03125
188,188,1727897374153,-0.6176758,-0.010314941,-0.78570557,-0.453125,0.5,0.0625
189,189,1727897374193,-0.611084,-0.006164551,-0.78985596,-0.703125,0.5,-0.125
190,190,1727897374233,-0.6164551,-0.012023926,-0.78497314,-0.484375,0.453125,-0.09375
191,191,1727897374273,-0.6147461,0.0004272461,-0.78741455,-0.578125,0.359375,0.09375
192,192,1727897374313,-0.6135254,-0.013000488,-0.788147,-0.4375,0.734375,0.0
193,193,1727897374353,-0.61083984,-0.004211426,-0.7854614,-0.4375,0.203125,0.171875
194,194,1727897374393,-0.61376953,-0.0056762695,-0.786438,-0.265625,0.375,-0.203125
195,195,1727897374433,-0.6118164,-0.008117676,-0.7859497,-0.34375,0.390625,-0.046875
196,196,1727897374473,-0.61279297,-0.0012817383,-0.7920532,-0.515625,0.390625,0.109375
197,197,1727897374513,-0.61206055,-0.006164551,-0.7901001,-0.34375,0.78125,-0.03125
198,198,1727897374553,-0.611084,-0.0037231445,-0.786438,-0.4375,0.640625,-0.046875
199,199,1727897374593,-0.6088867,-0.0076293945,-0.78741455,-0.328125,0.5,-0.03125
200,200,1727897374633,-0.6130371,-0.0037231445,-0.78448486,-0.671875,0.5,-0.09375
201,201,1727897374673,-0.6135254,-0.0044555664,-0.7913208,-0.4375,0.46875,0.109375
202,202,1727897374713,-0.61157227,-0.0025024414,-0.7944946,-0.4375,0.5625,0.0
203,203,1727897374753,-0.60375977,-0.008117676,-0.78692627,-0.578125,0.671875,0.109375
204,204,1727897374793,-0.6057129,-0.014953613,-0.78570557,-0.359375,0.390625,0.078125
205,205,1727897374833,-0.6154785,-0.012268066,-0.7925415,-0.4375,0.78125,-0.015625
206,206,1727897374873,-0.61083984,-0.010559082,-0.7930298,-0.625,0.875,-0.015625
207,207,1727897374913,-0.6113281,-0.0032348633,-0.78985596,-0.328125,0.65625,-0.15625
208,208,1727897374953,-0.6098633,-0.008850098,-0.7896118,-0.65625,0.96875,0.09375
209,209,1727897374993,-0.61450195,-0.0068969727,-0.7815552,-0.40625,0.875,-0.03125
210,210,1727897375033,-0.6140137,-0.011047363,-0.7920532,-0.28125,0.421875,-0.046875
211,211,1727897375073,-0.6135254,-0.010314941,-0.7871704,-0.5625,0.859375,0.078125
212,212,1727897375113,-0.6118164,-0.008117676,-0.78497314,-0.4375,0.671875,-0.09375
213,213,1727897375153,-0.6154785,-0.010559082,-0.7866821,-0.375,0.71875,-0.015625
214,214,1727897375193,-0.61279297,-0.0068969727,-0.7893677,-0.546875,0.609375,0.125
215,215,1727897375233,-0.6135254,-0.010803223,-0.79229736,-0.65625,0.765625,0.0625
216,216,1727897375273,-0.6184082,-0.0095825195,-0.78302,-0.453125,0.609375,-0.015625
217,217,1727897375313,-0.61206055,-0.0032348633,-0.78692627,-0.21875,0.40625,-0.0625
218,218,1727897375353,-0.61376953,-0.008361816,-0.7905884,-0.484375,0.5,-0.015625
219,219,1727897375393,-0.6135254,-0.0095825195,-0.78253174,-0.6875,0.546875,0.046875
220,220,1727897375433,-0.61572266,-0.010070801,-0.784729,-0.59375,0.671875,-0.015625
221,221,1727897375473,-0.6176758,-0.0095825195,-0.79156494,-0.5,0.84375,0.0
222,222,1727897375513,-0.6147461,-0.014465332,-0.7827759,-0.5,0.65625,-0.015625
223,223,1727897375553,-0.6171875,-0.012756348,-0.7835083,-0.40625,0.65625,0.15625
224,224,1727897375593,-0.6196289,-0.012268066,-0.78790283,-0.515625,0.390625,0.09375
225,225,1727897375633,-0.61279297,-0.00982666,-0.7835083,-0.390625,0.453125,0.125
226,226,1727897375673,-0.6147461,-0.0064086914,-0.78570557,-0.34375,0.453125,-0.046875
227,227,1727897375713,-0.6113281,-0.007385254,-0.7876587,-0.296875,0.34375,0.015625
228,228,1727897375753,-0.6176758,-0.010070801,-0.7932739,-0.015625,-0.296875,0.046875
229,229,1727897375793,-0.60791016,-0.011047363,-0.7852173,-0.140625,-0.296875,0.046875
230,230,1727897375833,-0.60961914,-0.006164551,-0.7883911,-0.0625,-0.25,0.046875
231,231,1727897375873,-0.6166992,-0.003479004,-0.78253174,-0.140625,-0.328125,0.078125
232,232,1727897375913,-0.611084,-0.008361816,-0.7920532,-0.453125,0.03125,-0.015625
233,233,1727897375953,-0.6152344,-0.012023926,-0.78570557,-0.390625,0.015625,0.203125
234,234,1727897375993,-0.61035156,-0.0068969727,-0.7839966,-0.0625,-0.59375,0.015625
235,235,1727897376033,-0.61328125,-0.004211426,-0.7925415,-0.625,0.015625,0.109375
236,236,1727897376073,-0.6088867,-0.008850098,-0.78863525,-0.25,0.125,-0.171875
237,237,1727897376113,-0.611084,-0.012268066,-0.798645,-0.25,0.171875,0.0625
238,238,1727897376153,-0.6040039,-0.0022583008,-0.78912354,-0.421875,0.375,-0.015625
239,239,1727897376193,-0.6057129,-0.008361816,-0.7859497,-0.171875,0.21875,0.09375
240,240,1727897376233,-0.611084,-0.0076293945,-0.788147,-0.453125,0.203125,0.078125
241,241,1727897376273,-0.6003418,-0.0037231445,-0.7942505,-0.28125,0.40625,0.046875
242,242,1727897376313,-0.6069336,-0.011047363,-0.7905884,-0.296875,0.265625,0.15625
243,243,1727897376353,-0.6040039,-0.006652832,-0.79815674,-0.359375,0.15625,0.203125
244,244,1727897376393,-0.6057129,-0.007873535,-0.7930298,-0.375,0.453125,0.15625
245,245,1727897376433,-0.609375,-0.005432129,-0.7954712,-0.453125,0.375,0.15625
246,246,1727897376473,-0.609375,-0.0064086914,-0.7949829,-0.375,0.265625,-0.015625
247,247,1727897376513,-0.6098633,-0.012268066,-0.78985596,-0.546875,0.265625,0.125
248,248,1727897376553,-0.6062012,-0.008361816,-0.79229736,-0.3125,0.109375,0.0625
249,249,1727897376593,-0.60424805,-0.010314941,-0.7942505,-0.421875,0.3125,-0.0625
250,250,1727897376633,-0.60717773,-0.0115356445,-0.7925415,-0.3125,0.453125,0.109375
251,251,1727897376673,-0.6032715,-0.013977051,-0.7866821,-0.296875,0.046875,0.046875
252,252,1727897376713,-0.60546875,-0.0037231445,-0.798645,-0.375,0.375,-0.09375
253,253,1727897376753,-0.60839844,-0.012512207,-0.8040161,-0.671875,0.40625,0.109375
254,254,1727897376793,-0.60302734,-0.0071411133,-0.7925415,-0.21875,0.390625,0.046875
255,255,1727897376833,-0.6003418,-0.004211426,-0.7959595,-0.65625,0.671875,0.015625
256,256,1727897376873,-0.60058594,-0.005432129,-0.7905884,-0.25,0.28125,-0.0625
257,257,1727897376913,-0.6057129,-0.0071411133,-0.7996216,-0.296875,0.34375,0.0
258,258,1727897376953,-0.5986328,-0.0025024414,-0.7942505,-0.328125,0.578125,0.1875
259,259,1727897376993,-0.60595703,-0.0056762695,-0.79156494,-0.421875,0.359375,0.015625
260,260,1727897377033,-0.60424805,-0.0095825195,-0.80010986,-0.53125,0.421875,0.03125
261,261,1727897377073,-0.60375977,-0.0010375977,-0.80181885,-0.21875,0.4375,0.015625
262,262,1727897377113,-0.60302734,-0.012023926,-0.7962036,-0.4375,0.59375,0.078125
263,263,1727897377153,-0.6008301,-0.00982666,-0.7920532,-0.453125,0.59375,0.09375
264,264,1727897377193,-0.5983887,-0.010314941,-0.79522705,-0.421875,0.625,0.15625
265,265,1727897377233,-0.6027832,-0.012512207,-0.7991333,-0.390625,0.328125,0.015625
266,266,1727897377273,-0.6057129,-0.0017700195,-0.79278564,-0.5,0.609375,-0.078125
267,267,1727897377313,-0.6086426,-0.010559082,-0.79156494,-0.5,0.5,-0.109375
268,268,1727897377353,-0.60498047,-0.0029907227,-0.7937622,-0.390625,0.46875,0.0625
269,269,1727897377393,-0.60717773,-0.0095825195,-0.7944946,-0.375,0.6875,0.0625
270,270,1727897377433,-0.5974121,-0.0051879883,-0.7925415,-0.65625,0.578125,-0.046875
271,271,1727897377473,-0.6047363,-0.010070801,-0.79644775,-0.484375,0.453125,0.125
272,272,1727897377513,-0.6010742,-0.010314941,-0.79766846,-0.34375,0.4375,0.0625
273,273,1727897377553,-0.59887695,-0.0071411133,-0.7966919,-0.296875,0.40625,-0.015625
274,274,1727897377593,-0.60498047,-0.009338379,-0.7971802,-0.421875,0.5625,0.078125
275,275,1727897377633,-0.60546875,-0.007385254,-0.7966919,-0.703125,0.546875,-0.03125
276,276,1727897377673,-0.6022949,-0.0020141602,-0.7893677,-0.140625,0.3125,-0.015625
277,277,1727897377713,-0.59521484,-0.013244629,-0.79278564,-0.640625,0.875,-0.046875
278,278,1727897377753,-0.60546875,-0.008605957,-0.78741455,-0.390625,0.515625,-0.046875
279,279,1727897377793,-0.6098633,-0.0020141602,-0.7905884,-0.265625,0.546875,0.046875
280,280,1727897377833,-0.6003418,-0.008850098,-0.79156494,-0.453125,0.625,0.171875
281,281,1727897377873,-0.60253906,-0.0071411133,-0.79766846,-0.3125,0.578125,-0.046875
282,282,1727897377913,-0.6027832,-0.0068969727,-0.7949829,-0.546875,0.75,0.015625
283,283,1727897377953,-0.6040039,-0.011779785,-0.79815674,-0.46875,0.796875,0.15625
284,284,1727897377993,-0.6027832,-0.0068969727,-0.7996216,-0.359375,0.765625,-0.109375
285,285,1727897378033,-0.6062012,-0.0076293945,-0.7984009,-0.484375,0.703125,-0.140625
286,286,1727897378073,-0.6088867,-0.0064086914,-0.7920532,-0.25,0.78125,0.03125
287,287,1727897378113,-0.6057129,-0.0037231445,-0.80133057,-0.28125,0.5625,0.015625
288,288,1727897378153,-0.6074219,-0.0071411133,-0.7937622,-0.40625,0.6875,-0.015625
289,289,1727897378193,-0.6035156,-0.0044555664,-0.7944946,-0.390625,0.96875,0.125
290,290,1727897378233,-0.60595703,-0.008117676,-0.802063,-0.671875,0.828125,0.171875
291,291,1727897378273,-0.60717773,-0.011291504,-0.7905884,-0.390625,0.890625,0.03125
292,292,1727897378313,-0.6032715,-0.005432129,-0.7937622,-0.234375,0.796875,-0.125
293,293,1727897378353,-0.60131836,-0.002746582,-0.79693604,-0.453125,0.953125,-0.0625
294,294,1727897378393,-0.5979004,-0.0068969727,-0.79400635,-0.453125,1.0,-0.078125
295,295,1727897378433,-0.6035156,-0.017150879,-0.7962036,-0.46875,0.78125,-0.125
296,296,1727897378473,-0.60717773,-0.010070801,-0.7932739,-0.296875,0.8125,0.078125
297,297,1727897378513,-0.60717773,0.0006713867,-0.78790283,-0.625,1.125,0.125
298,298,1727897378553,-0.60424805,-0.007873535,-0.7817993,-0.109375,0.9375,-0.09375
299,299,1727897378593,-0.60961914,-0.0051879883,-0.8010864,-0.65625,1.046875,0.078125
300,300,1727897378633,-0.61376953,-0.004699707,-0.7835083,-0.265625,0.6875,0.09375
301,301,1727897378673,-0.60668945,-0.003479004,-0.7925415,-0.28125,0.71875,-0.015625
302,302,1727897378713,-0.6088867,-0.009094238,-0.7918091,-0.203125,0.59375,0.0
303,303,1727897378753,-0.61450195,-0.0071411133,-0.7920532,-0.21875,0.578125,0.03125
304,304,1727897378793,-0.609375,-0.004211426,-0.79473877,-0.40625,0.8125,0.0
305,305,1727897378833,-0.6020508,-0.008361816,-0.79400635,-0.390625,0.734375,0.109375
306,306,1727897378873,-0.6052246,-0.008850098,-0.79400635,-0.421875,0.671875,0.03125
307,307,1727897378913,-0.61621094,-0.006652832,-0.78863525,-0.421875,0.609375,0.046875
308,308,1727897378953,-0.6022949,-0.010070801,-0.78619385,-0.390625,0.71875,0.015625
309,309,1727897378993,-0.6118164,-0.008117676,-0.78863525,-0.28125,0.421875,0.203125
310,310,1727897379033,-0.6074219,-0.012268066,-0.7954712,-0.484375,0.703125,0.125
311,311,1727897379073,-0.611084,-0.006164551,-0.79229736,-0.53125,0.828125,0.046875
312,312,1727897379113,-0.6123047,-0.007385254,-0.78448486,-0.390625,0.765625,-0.046875
313,313,1727897379153,-0.6081543,-0.011291504,-0.7937622,-0.296875,0.71875,-0.078125
314,314,1727897379193,-0.6123047,-0.008361816,-0.7908325,-0.46875,0.78125,0.015625
315,315,1727897379233,-0.6159668,-0.0020141602,-0.79229736,-0.453125,0.78125,-0.046875
316,316,1727897379273,-0.6125488,-0.011291504,-0.78619385,-0.421875,0.578125,0.0
317,317,1727897379313,-0.61206055,-0.008117676,-0.78863525,-0.359375,0.53125,0.0625
318,318,1727897379353,-0.6086426,-0.011291504,-0.788147,-0.390625,0.765625,0.03125
319,319,1727897379393,-0.6152344,-0.0056762695,-0.7888794,-0.5,0.453125,-0.046875
320,320,1727897379433,-0.61083984,-0.00592041,-0.7842407,-0.375,0.671875,-0.125
321,321,1727897379473,-0.61572266,-0.0068969727,-0.7901001,-0.484375,0.546875,0.140625
322,322,1727897379513,-0.6101074,-0.0071411133,-0.78448486,-0.203125,0.609375,-0.125
323,323,1727897379553,-0.61206055,-0.006652832,-0.79644775,-0.5,0.734375,0.046875
324,324,1727897379593,-0.60791016,-0.014221191,-0.77716064,-0.234375,0.359375,-0.0625
325,325,1727897379633,-0.61083984,-0.006652832,-0.7937622,-0.09375,0.1875,-0.078125
326,326,1727897379673,-0.6118164,-0.008850098,-0.78863525,-0.3125,0.125,0.0625
327,327,1727897379713,-0.611084,-0.009094238,-0.78741455,-0.015625,-0.15625,-0.015625
328,328,1727897379753,-0.607666,-0.0037231445,-0.7942505,-0.15625,-0.203125,-0.015625
329,329,1727897379793,-0.60595703,-0.0076293945,-0.7913208,-0.125,-0.09375,0.0625
330,330,1727897379833,-0.607666,-0.008361816,-0.7883911,-0.3125,-0.15625,0.03125
331,331,1727897379873,-0.60839844,-0.005432129,-0.7893677,-0.234375,0.0625,0.015625
332,332,1727897379913,-0.60717773,-0.008117676,-0.79522705,-0.09375,0.046875,0.0
333,333,1727897379953,-0.6081543,-0.0029907227,-0.7942505,-0.15625,-0.046875,-0.046875
334,334,1727897379993,-0.60375977,-0.0012817383,-0.78863525,-0.078125,-0.0625,0.140625
335,335,1727897380033,-0.6057129,-0.0044555664,-0.7913208,-0.296875,0.4375,0.09375
336,336,1727897380073,-0.6125488,-0.0029907227,-0.7959595,-0.359375,0.578125,0.078125
337,337,1727897380113,-0.60180664,-0.009094238,-0.7920532,-0.234375,0.25,0.0
338,338,1727897380153,-0.60546875,-0.006652832,-0.7944946,-0.21875,0.171875,0.046875
339,339,1727897380193,-0.60498047,-0.0068969727,-0.788147,-0.25,0.21875,0.046875
340,340,1727897380233,-0.6020508,-0.0095825195,-0.78741455,-0.328125,0.140625,-0.03125
341,341,1727897380273,-0.60180664,-0.006164551,-0.7908325,-0.375,0.171875,0.140625
342,342,1727897380313,-0.6057129,-0.00079345703,-0.7930298,-0.484375,0.21875,0.125
343,343,1727897380353,-0.6022949,-0.0025024414,-0.79400635,-0.546875,0.375,0.046875
344,344,1727897380393,-0.60131836,-0.0044555664,-0.79815674,-0.3125,0.234375,0.0625
345,345,1727897380433,-0.60375977,-0.006164551,-0.79473877,-0.390625,0.296875,0.171875
346,346,1727897380473,-0.59521484,-0.0005493164,-0.78912354,-0.375,0.46875,-0.140625
347,347,1727897380513,-0.59887695,-0.005432129,-0.78570557,-0.28125,0.546875,0.140625
348,348,1727897380553,-0.60009766,-0.0071411133,-0.8027954,-0.359375,0.15625,0.109375
349,349,1727897380593,-0.6022949,-0.006652832,-0.78692627,-0.34375,0.578125,0.15625
350,350,1727897380633,-0.6015625,-0.007385254,-0.80010986,-0.09375,-0.03125,0.109375
351,351,1727897380673,-0.60546875,-0.0049438477,-0.79693604,-0.296875,0.578125,0.125
352,352,1727897380713,-0.6022949,-0.0010375977,-0.79156494,-0.203125,0.4375,0.078125
353,353,1727897380753,-0.6062012,-0.008850098,-0.79522705,-0.28125,0.34375,0.125
354,354,1727897380793,-0.60595703,-0.007873535,-0.7859497,-0.390625,0.5,0.125
355,355,1727897380833,-0.60131836,-0.002746582,-0.78790283,-0.390625,0.34375,0.171875
356,356,1727897380873,-0.61035156,-0.010070801,-0.7930298,-0.609375,0.75,0.0625
357,357,1727897380913,-0.60595703,0.00018310547,-0.79351807,-0.046875,0.4375,-0.015625
358,358,1727897380953,-0.59887695,-0.00079345703,-0.7944946,-0.125,0.5,0.09375
359,359,1727897380993,-0.6044922,-0.008605957,-0.80255127,-0.34375,0.453125,0.015625
360,360,1727897381033,-0.6008301,-0.0017700195,-0.7937622,-0.515625,0.59375,0.0625
361,361,1727897381073,-0.5998535,-0.0049438477,-0.79351807,-0.46875,0.5625,0.125
362,362,1727897381113,-0.6015625,-0.004211426,-0.7996216,-0.4375,0.359375,0.15625
363,363,1727897381153,-0.6032715,-0.0064086914,-0.79400635,-0.328125,0.40625,0.09375
364,364,1727897381193,-0.60668945,-0.0022583008,-0.79156494,-0.3125,0.484375,0.078125
365,365,1727897381233,-0.60375977,-0.003967285,-0.7984009,-0.421875,0.5625,0.125
366,366,1727897381273,-0.5996094,-0.011779785,-0.7930298,-0.203125,0.3125,0.0625
367,367,1727897381313,-0.60009766,-0.010314941,-0.7959595,-0.4375,0.59375,0.03125
368,368,1727897381353,-0.6003418,-0.008605957,-0.7925415,-0.359375,0.609375,0.0625
369,369,1727897381393,-0.59936523,-0.008361816,-0.78375244,-0.4375,0.625,0.171875
370,370,1727897381433,-0.60498047,-0.008850098,-0.80474854,-0.25,0.265625,0.140625
371,371,1727897381473,-0.60058594,-0.007385254,-0.78326416,-0.53125,0.578125,0.03125
372,372,1727897381513,-0.6032715,-0.0071411133,-0.80010986,-0.25,0.375,0.03125
373,373,1727897381553,-0.6057129,-0.0029907227,-0.7954712,-0.359375,0.546875,0.046875
374,374,1727897381593,-0.5983887,-0.002746582,-0.7920532,-0.328125,0.515625,0.15625
375,375,1727897381633,-0.6035156,0.0006713867,-0.7979126,-0.234375,0.421875,-0.046875
376,376,1727897381673,-0.60302734,-0.007873535,-0.7962036,-0.484375,0.46875,0.078125
377,377,1727897381713,-0.60180664,-0.002746582,-0.79278564,-0.0625,0.5625,0.0625
378,378,1727897381753,-0.59887695,-0.0056762695,-0.7996216,-0.40625,0.484375,0.15625
379,379,1727897381793,-0.60424805,-0.0064086914,-0.7962036,-0.25,0.828125,-0.09375
380,380,1727897381833,-0.59936523,-0.0049438477,-0.79107666,-0.265625,0.53125,-0.125
381,381,1727897381873,-0.60424805,-0.008117676,-0.7984009,-0.28125,0.59375,0.0625
382,382,1727897381913,-0.6010742,-0.007385254,-0.80010986,-0.4375,0.65625,0.078125
383,383,1727897381953,-0.60180664,-0.0022583008,-0.79278564,-0.3125,1.15625,-0.046875
384,384,1727897381993,-0.59521484,-0.0056762695,-0.7774048,-0.015625,1.21875,-0.140625
385,385,1727897382033,-0.60717773,-0.00592041,-0.8069458,-0.265625,0.4375,0.171875
386,386,1727897382073,-0.6010742,-0.0029907227,-0.79351807,-0.421875,1.578125,0.109375
387,387,1727897382113,-0.6088867,-0.005432129,-0.784729,-0.140625,1.625,-0.09375
388,388,1727897382153,-0.6022949,-0.006164551,-0.79400635,-0.234375,0.5,-0.03125
389,389,1727897382193,-0.6035156,-6.1035156e-05,-0.79034424,-0.46875,1.265625,-0.0625
390,390,1727897382233,-0.6040039,-0.0056762695,-0.8049927,0.078125,1.125,0.125
391,391,1727897382273,-0.60595703,0.0006713867,-0.78253174,-0.1875,1.0625,0.140625
392,392,1727897382313,-0.61157227,-0.002746582,-0.7998657,-0.40625,0.921875,0.0625
393,393,1727897382353,-0.60839844,-0.0025024414,-0.78692627,-0.59375,1.1875,0.046875
394,394,1727897382393,-0.6105957,-0.0076293945,-0.78985596,-0.21875,0.953125,0.078125
395,395,1727897382433,-0.609375,-0.0032348633,-0.78570557,-0.53125,1.125,0.015625
396,396,1727897382473,-0.6154785,-0.0012817383,-0.78790283,-0.328125,0.78125,0.03125
397,397,1727897382513,-0.6140137,-0.0056762695,-0.79473877,-0.5625,0.578125,-0.046875
398,398,1727897382553,-0.6088867,-0.009094238,-0.79156494,-0.59375,0.796875,0.09375
399,399,1727897382593,-0.61499023,-0.004211426,-0.7842407,-0.265625,0.59375,0.234375
400,400,1727897382633,-0.61279297,-0.003967285,-0.7901001,-0.625,0.53125,-0.046875
401,401,1727897382673,-0.6101074,-0.0029907227,-0.78692627,-0.203125,0.4375,0.0
402,402,1727897382713,-0.61621094,-0.0010375977,-0.78985596,-0.328125,0.65625,0.15625
403,403,1727897382753,-0.61035156,0.0004272461,-0.7876587,-0.25,0.453125,0.0
404,404,1727897382793,-0.6118164,-0.006652832,-0.788147,-0.546875,0.703125,-0.0625
405,405,1727897382833,-0.61083984,-6.1035156e-05,-0.7908325,-0.421875,0.703125,-0.015625
406,406,1727897382873,-0.6113281,-0.004699707,-0.78741455,-0.3125,0.453125,0.0
407,407,1727897382913,-0.61206055,-0.004699707,-0.78863525,-0.34375,0.140625,0.0625
408,408,1727897382953,-0.60717773,-0.004699707,-0.7930298,-0.4375,0.296875,0.046875
409,409,1727897382993,-0.609375,-0.004211426,-0.7896118,-0.328125,0.546875,0.171875
410,410,1727897383033,-0.607666,-0.004699707,-0.7905884,-0.453125,0.453125,-0.03125
411,411,1727897383073,-0.61376953,-0.003479004,-0.7901001,-0.390625,0.53125,-0.046875
412,412,1727897383113,-0.60961914,-0.0012817383,-0.78985596,-0.359375,0.203125,-0.078125
413,413,1727897383153,-0.6101074,0.00091552734,-0.78863525,-0.546875,0.75,0.0
414,414,1727897383193,-0.6105957,-0.0029907227,-0.788147,-0.4375,0.375,-0.0625
415,415,1727897383233,-0.6086426,-0.010314941,-0.7859497,0.0,0.078125,-0.125
416,416,1727897383273,-0.61157227,-0.0015258789,-0.7962036,-0.5625,0.109375,-0.109375
417,417,1727897383313,-0.60668945,-0.0051879883,-0.79034424,-0.265625,0.140625,-0.078125
418,418,1727897383353,-0.61279297,-0.003967285,-0.78619385,-0.15625,-0.28125,-0.09375
419,419,1727897383393,-0.60375977,-0.00592041,-0.7893677,-0.515625,0.0,-0.03125
420,420,1727897383433,-0.6064453,-0.0017700195,-0.7893677,-0.265625,0.0625,-0.046875
421,421,1727897383473,-0.60791016,0.0006713867,-0.7959595,-0.359375,-0.078125,-0.046875
422,422,1727897383513,-0.59814453,-0.010070801,-0.7913208,-0.4375,0.109375,-0.0625
423,423,1727897383553,-0.6052246,-0.007385254,-0.78204346,-0.234375,0.109375,-0.0625
424,424,1727897383593,-0.6062012,-0.004211426,-0.788147,-0.5,0.109375,0.046875
425,425,1727897383633,-0.6052246,0.0014038086,-0.7984009,-0.28125,0.046875,-0.078125
426,426,1727897383673,-0.6081543,-0.0022583008,-0.7908325,-0.28125,0.328125,0.15625
427,427,1727897383713,-0.6052246,-0.00592041,-0.79351807,-0.28125,0.046875,0.109375
428,428,1727897383753,-0.6052246,0.00091552734,-0.7937622,-0.421875,0.484375,-0.046875
429,429,1727897383793,-0.6032715,-0.003479004,-0.7954712,-0.453125,0.453125,0.125
430,430,1727897383833,-0.60717773,-0.0051879883,-0.7954712,-0.390625,0.46875,0.046875
431,431,1727897383873,-0.60791016,-0.0064086914,-0.7932739,-0.375,0.5,0.046875
432,432,1727897383913,-0.60717773,-0.0029907227,-0.7937622,-0.359375,0.40625,0.109375
433,433,1727897383953,-0.60253906,-0.0022583008,-0.7962036,-0.359375,0.375,0.265625
434,434,1727897383993,-0.6088867,-0.0005493164,-0.79522705,-0.359375,0.40625,0.0625
435,435,1727897384033,-0.6074219,-0.00079345703,-0.80181885,-0.375,0.453125,0.109375
436,436,1727897384073,-0.60913086,-0.0032348633,-0.7905884,-0.359375,0.328125,0.15625
437,437,1727897384113,-0.60131836,0.00018310547,-0.7991333,-0.34375,0.4375,0.078125
438,438,1727897384153,-0.60546875,0.001159668,-0.7949829,-0.28125,0.515625,0.09375
439,439,1727897384193,-0.60131836,-6.1035156e-05,-0.79693604,-0.59375,0.765625,0.21875
440,440,1727897384233,-0.6081543,-0.0029907227,-0.7966919,-0.140625,0.421875,0.015625
441,441,1727897384273,-0.6008301,-0.0012817383,-0.7896118,-0.828125,0.875,0.109375
442,442,1727897384313,-0.60668945,0.0014038086,-0.7954712,-0.34375,0.359375,0.015625
443,443,1727897384353,-0.6032715,-0.0012817383,-0.7954712,-0.546875,0.5,-0.015625
444,444,1727897384393,-0.5983887,-0.006164551,-0.7905884,-0.375,0.296875,0.046875
445,445,1727897384433,-0.595459,0.003112793,-0.78741455,-0.484375,0.53125,-0.015625
446,446,1727897384473,-0.60424805,-0.0025024414,-0.7966919,-0.515625,0.46875,-0.015625
447,447,1727897384513,-0.5966797,-0.004211426,-0.7996216,-0.390625,0.4375,0.015625
448,448,1727897384553,-0.5986328,-0.003967285,-0.79473877,-0.421875,0.5,0.078125
449,449,1727897384593,-0.6020508,0.00018310547,-0.7866821,-0.15625,0.40625,-0.046875
450,450,1727897384633,-0.6098633,-0.0010375977,-0.7959595,-0.25,0.515625,0.078125
451,451,1727897384673,-0.59936523,0.0004272461,-0.79156494,-0.359375,0.640625,0.078125
452,452,1727897384713,-0.5957031,0.0016479492,-0.7959595,-0.453125,0.625,0.109375
453,453,1727897384753,-0.5998535,-0.0029907227,-0.78912354,-0.53125,0.71875,-0.0625
454,454,1727897384793,-0.60253906,-0.0015258789,-0.79693604,-0.359375,0.640625,0.015625
455,455,1727897384833,-0.60498047,0.0021362305,-0.7979126,-0.5625,0.5625,-0.0625
456,456,1727897384873,-0.6047363,-0.0005493164,-0.79522705,-0.40625,0.765625,0.09375
457,457,1727897384913,-0.6015625,-0.006164551,-0.7959595,-0.328125,0.6875,0.0
458,458,1727897384953,-0.60546875,-0.006164551,-0.7996216,-0.46875,0.75,-0.015625
459,459,1727897384993,-0.60375977,-0.0037231445,-0.7944946,-0.171875,0.5625,-0.078125
460,460,1727897385033,-0.6008301,-0.0010375977,-0.7979126,-0.5,0.78125,-0.03125
461,461,1727897385073,-0.6088867,0.0004272461,-0.79571533,-0.421875,0.859375,0.0625
462,462,1727897385113,-0.6015625,-0.006652832,-0.78741455,0.0,0.5625,0.03125
463,463,1727897385153,-0.60375977,0.00018310547,-0.800354,-0.5,0.59375,-0.015625
464,464,1727897385193,-0.6015625,-0.0010375977,-0.7883911,-0.375,0.65625,0.0
465,465,1727897385233,-0.6047363,0.0021362305,-0.80352783,-0.265625,0.484375,-0.046875
466,466,1727897385273,-0.6044922,-0.004699707,-0.79766846,-0.46875,0.75,-0.03125
467,467,1727897385313,-0.6020508,-0.0071411133,-0.7920532,-0.34375,0.671875,0.109375
468,468,1727897385353,-0.6047363,0.003112793,-0.7966919,-0.421875,0.609375,0.09375
469,469,1727897385393,-0.6044922,-0.0037231445,-0.79156494,-0.515625,0.78125,0.140625
470,470,1727897385433,-0.6008301,-0.0015258789,-0.78912354,-0.34375,0.765625,0.171875
471,471,1727897385473,-0.60961914,0.0014038086,-0.79229736,-0.5625,0.6875,0.078125
472,472,1727897385513,-0.60791016,-0.0012817383,-0.7937622,-0.390625,0.609375,0.046875
473,473,1727897385553,-0.60180664,-0.004699707,-0.78985596,-0.4375,0.734375,-0.015625
474,474,1727897385593,-0.6040039,-0.0012817383,-0.79278564,-0.328125,0.484375,0.1875
475,475,1727897385633,-0.6057129,-0.003967285,-0.7942505,-0.5,0.734375,-0.09375
476,476,1727897385673,-0.6003418,0.0006713867,-0.79351807,-0.28125,0.84375,0.0
477,477,1727897385713,-0.60424805,-0.003967285,-0.7944946,-0.59375,0.75,0.109375
478,478,1727897385753,-0.6081543,-0.006164551,-0.7942505,-0.421875,0.65625,0.09375
479,479,1727897385793,-0.6057129,-0.006164551,-0.78790283,-0.4375,0.65625,-0.015625
480,480,1727897385833,-0.60668945,-0.0010375977,-0.7937622,-0.390625,0.65625,0.15625
481,481,1727897385873,-0.60595703,-0.004211426,-0.7893677,-0.53125,0.75,-0.09375
482,482,1727897385913,-0.61035156,-0.0029907227,-0.7905884,-0.453125,0.53125,0.046875
483,483,1727897385953,-0.6022949,-0.005432129,-0.7942505,-0.28125,0.3125,0.0
484,484,1727897385993,-0.60375977,-0.0025024414,-0.79644775,-0.28125,0.6875,0.125
485,485,1727897386033,-0.61157227,-0.0015258789,-0.79693604,-0.328125,0.734375,0.0625
486,486,1727897386073,-0.61035156,-0.0064086914,-0.78790283,-0.390625,0.625,0.046875
487,487,1727897386113,-0.61035156,-0.00079345703,-0.79644775,-0.234375,0.40625,0.015625
488,488,1727897386153,-0.60253906,0.0004272461,-0.78375244,-0.515625,0.90625,-0.078125
489,489,1727897386193,-0.6064453,0.00091552734,-0.79034424,-0.34375,0.484375,-0.015625
490,490,1727897386233,-0.609375,-6.1035156e-05,-0.7918091,-0.484375,0.578125,0.015625
491,491,1727897386273,-0.6113281,0.003112793,-0.79229736,-0.390625,0.515625,0.03125
492,492,1727897386313,-0.6081543,-0.0029907227,-0.79034424,-0.375,0.6875,-0.078125
493,493,1727897386353,-0.6118164,-0.0037231445,-0.78912354,-0.609375,0.46875,0.03125
494,494,1727897386393,-0.6047363,-0.0032348633,-0.78912354,-0.484375,0.59375,0.09375
495,495,1727897386433,-0.6044922,-0.006652832,-0.79229736,-0.609375,0.734375,0.0
496,496,1727897386473,-0.611084,-0.009338379,-0.7908325,-0.265625,0.75,0.09375
497,497,1727897386513,-0.609375,0.0018920898,-0.7949829,-0.421875,0.671875,0.0
498,498,1727897386553,-0.60961914,-0.0071411133,-0.7920532,-0.3125,0.4375,0.0625
499,499,1727897386593,-0.6123047,-0.007873535,-0.7883911,-0.328125,0.609375,0.15625
500,500,1727897386633,-0.6062012,-0.0015258789,-0.7962036,-0.625,0.71875,-0.109375
501,501,1727897386673,-0.6052246,-0.0029907227,-0.7913208,-0.515625,0.546875,0.0625
502,502,1727897386713,-0.60791016,-0.006652832,-0.7896118,-0.5,0.625,-0.0625
503,503,1727897386753,-0.6044922,0.0006713867,-0.78692627,-0.484375,0.78125,0.109375
504,504,1727897386793,-0.60791016,-0.0032348633,-0.7852173,-0.328125,0.609375,0.0625
505,505,1727897386833,-0.60791016,-0.00030517578,-0.79034424,-0.34375,0.515625,0.171875
506,506,1727897386873,-0.60913086,-0.00592041,-0.7893677,-0.28125,0.640625,-0.046875
507,507,1727897386913,-0.6088867,0.0016479492,-0.7905884,-0.46875,0.5625,0.203125
508,508,1727897386953,-0.60839844,-0.003479004,-0.7905884,-0.484375,0.515625,-0.015625
509,509,1727897386993,-0.609375,-0.0068969727,-0.7905884,-0.4375,0.609375,0.078125
510,510,1727897387033,-0.607666,-0.0056762695,-0.79278564,-0.25,0.265625,-0.015625
511,511,1727897387073,-0.61694336,-0.0025024414,-0.79034424,-0.390625,0.484375,0.140625
512,512,1727897387113,-0.6118164,-0.00982666,-0.78985596,-0.125,0.46875,0.015625
513,513,1727897387153,-0.6125488,-0.0049438477,-0.78741455,-0.078125,-0.28125,0.046875
514,514,1727897387193,-0.61206055,-0.0044555664,-0.79156494,-0.546875,0.140625,0.03125
515,515,1727897387233,-0.6062012,-0.003479004,-0.7839966,-0.328125,0.109375,0.03125
516,516,1727897387273,-0.61157227,-0.0010375977,-0.78741455,-0.15625,-0.171875,-0.015625
517,517,1727897387313,-0.6130371,-0.0029907227,-0.79571533,-0.375,0.078125,0.0625
518,518,1727897387353,-0.6064453,-0.005432129,-0.78985596,-0.265625,0.203125,-0.015625
519,519,1727897387393,-0.6047363,-0.0064086914,-0.79278564,-0.28125,0.203125,0.046875
520,520,1727897387433,-0.5991211,0.00018310547,-0.78619385,-0.453125,0.359375,0.1875
521,521,1727897387473,-0.6032715,-0.0020141602,-0.7913208,-0.21875,0.328125,0.109375
522,522,1727897387513,-0.6081543,0.0021362305,-0.7920532,-0.578125,0.375,0.140625
523,523,1727897387553,-0.60131836,-0.0005493164,-0.7944946,-0.09375,0.25,0.0625
524,524,1727897387593,-0.60546875,-0.0029907227,-0.79229736,-0.21875,0.40625,0.15625
525,525,1727897387633,-0.60546875,0.0021362305,-0.79644775,-0.421875,0.125,-0.03125
526,526,1727897387673,-0.60180664,-0.00030517578,-0.78741455,-0.078125,0.046875,0.0625
527,527,1727897387713,-0.6062012,0.0048217773,-0.79766846,-0.375,0.34375,0.140625
528,528,1727897387753,-0.6035156,-0.0005493164,-0.7971802,-0.390625,0.421875,0.109375
529,529,1727897387793,-0.6057129,-0.0037231445,-0.7949829,-0.328125,0.296875,0.09375
530,530,1727897387833,-0.6022949,-0.0049438477,-0.79400635,-0.390625,0.265625,-0.015625
531,531,1727897387873,-0.6003418,-0.00030517578,-0.79815674,-0.28125,0.375,0.09375
532,532,1727897387913,-0.6044922,-0.003479004,-0.7966919,-0.25,0.40625,-0.015625
533,533,1727897387953,-0.6027832,-0.0015258789,-0.79473877,-0.40625,0.265625,0.25
534,534,1727897387993,-0.6062012,0.0021362305,-0.7932739,-0.34375,0.109375,0.15625
535,535,1727897388033,-0.6022949,-0.0017700195,-0.7984009,-0.5,0.53125,0.109375
536,536,1727897388073,-0.6047363,-0.003479004,-0.79693604,-0.4375,0.5,-0.03125
537,537,1727897388113,-0.5979004,-0.0010375977,-0.7888794,-0.3125,0.390625,0.15625
538,538,1727897388153,-0.60131836,-6.1035156e-05,-0.7991333,-0.5,0.46875,0.140625
539,539,1727897388193,-0.60302734,-0.0051879883,-0.7925415,-0.46875,0.578125,0.203125
540,540,1727897388233,-0.609375,-0.003967285,-0.7974243,-0.328125,0.359375,0.109375
541,541,1727897388273,-0.60595703,-0.004699707,-0.79351807,-0.59375,0.65625,0.03125
542,542,1727897388313,-0.6074219,0.0006713867,-0.79107666,-0.28125,0.640625,-0.03125
543,543,1727897388353,-0.6035156,0.0006713867,-0.7918091,-0.421875,0.53125,0.078125
544,544,1727897388393,-0.6035156,-0.0005493164,-0.786438,-0.3125,0.75,0.078125
545,545,1727897388433,-0.60424805,-0.0051879883,-0.79351807,-0.28125,0.390625,-0.046875
546,546,1727897388473,-0.60131836,-0.00030517578,-0.80133057,-0.46875,0.40625,-0.015625
547,547,1727897388513,-0.6040039,-0.0017700195,-0.7930298,-0.328125,0.625,0.078125
548,548,1727897388553,-0.6069336,0.0053100586,-0.7925415,-0.34375,0.46875,0.015625
549,549,1727897388593,-0.60424805,-0.003479004,-0.7908325,-0.3125,0.484375,0.046875
550,550,1727897388633,-0.60546875,0.00091552734,-0.7979126,-0.515625,0.78125,0.078125
551,551,1727897388673,-0.60595703,-0.0005493164,-0.79815674,-0.453125,0.90625,0.046875
552,552,1727897388713,-0.5974121,-0.00079345703,-0.7913208,-0.5,0.71875,0.03125
553,553,1727897388753,-0.6044922,-0.0017700195,-0.7979126,-0.390625,0.890625,0.109375
554,554,1727897388793,-0.60668945,0.0014038086,-0.7896118,-0.515625,1.0,-0.03125
555,555,1727897388833,-0.60375977,-0.0010375977,-0.79473877,-0.46875,1.125,0.1875
556,556,1727897388873,-0.60595703,-0.0032348633,-0.7925415,-0.140625,0.609375,-0.0625
557,557,1727897388913,-0.6015625,-0.0010375977,-0.798645,-0.375,0.90625,0.078125
558,558,1727897388953,-0.6062012,-0.006164551,-0.7925415,-0.484375,1.015625,0.046875
559,559,1727897388993,-0.6020508,0.0014038086,-0.78619385,-0.15625,0.78125,-0.03125
560,560,1727897389033,-0.6062012,-0.0029907227,-0.79937744,-0.515625,0.6875,-0.015625
561,561,1727897389073,-0.611084,-0.005432129,-0.7852173,-0.328125,0.703125,-0.1875
562,562,1727897389113,-0.6105957,0.0036010742,-0.7944946,-0.234375,0.71875,0.0
563,563,1727897389153,-0.6064453,-6.1035156e-05,-0.78619385,-0.53125,0.828125,0.078125
564,564,1727897389193,-0.61279297,-0.0044555664,-0.7932739,-0.390625,0.828125,0.015625
565,565,1727897389233,-0.607666,-0.0010375977,-0.7959595,-0.359375,0.59375,0.015625
566,566,1727897389273,-0.6081543,-0.0056762695,-0.78619385,-0.40625,0.828125,-0.046875
567,567,1727897389313,-0.60375977,0.0036010742,-0.78912354,-0.390625,0.609375,0.109375
568,568,1727897389353,-0.61206055,-0.0020141602,-0.7893677,-0.578125,0.8125,0.078125
569,569,1727897389393,-0.6064453,-0.0051879883,-0.7876587,-0.265625,0.6875,0.03125
570,570,1727897389433,-0.607666,-6.1035156e-05,-0.7920532,-0.21875,0.765625,-0.125
571,571,1727897389473,-0.60717773,0.0004272461,-0.7954712,-0.34375,0.671875,0.078125
572,572,1727897389513,-0.6159668,0.00018310547,-0.79107666,-0.5625,0.828125,0.046875
573,573,1727897389553,-0.6052246,0.0028686523,-0.7918091,-0.390625,0.890625,0.0
574,574,1727897389593,-0.6069336,-0.0044555664,-0.78741455,-0.4375,0.671875,0.0625
575,575,1727897389633,-0.6123047,-0.003479004,-0.7913208,-0.546875,0.78125,0.0625
576,576,1727897389673,-0.60424805,-0.004699707,-0.7842407,-0.359375,0.6875,-0.046875
577,577,1727897389713,-0.61035156,0.001159668,-0.7905884,-0.390625,0.671875,-0.015625
578,578,1727897389753,-0.60961914,0.0018920898,-0.7852173,-0.515625,0.78125,-0.03125
579,579,1727897389793,-0.61499023,-0.004211426,-0.784729,-0.328125,0.6875,0.046875
580,580,1727897389833,-0.61279297,-0.00030517578,-0.79156494,-0.546875,0.84375,0.078125
581,581,1727897389873,-0.609375,-0.003479004,-0.7803345,-0.375,1.0,0.140625
582,582,1727897389913,-0.61376953,-0.002746582,-0.7905884,-0.28125,0.578125,-0.09375
583,583,1727897389953,-0.6069336,-0.0029907227,-0.78863525,-0.390625,0.578125,-0.0625
584,584,1727897389993,-0.60498047,-0.0071411133,-0.7798462,-0.40625,0.84375,-0.09375
585,585,1727897390033,-0.61328125,0.001159668,-0.7888794,-0.21875,0.515625,0.03125
586,586,1727897390073,-0.6032715,-0.0044555664,-0.7883911,-0.640625,0.890625,-0.03125
587,587,1727897390113,-0.6176758,0.0006713867,-0.7788696,-0.265625,0.453125,0.09375
588,588,1727897390153,-0.6125488,0.0036010742,-0.7839966,-0.21875,0.53125,0.140625
589,589,1727897390193,-0.60595703,0.0014038086,-0.7822876,-0.203125,0.15625,0.046875
590,590,1727897390233,-0.61206055,0.0004272461,-0.7871704,-0.0625,0.15625,0.0
591,591,1727897390273,-0.61083984,0.0016479492,-0.79351807,-0.3125,-0.171875,0.109375
592,592,1727897390313,-0.61328125,0.0028686523,-0.7930298,-0.21875,-0.21875,0.09375
593,593,1727897390353,-0.60668945,0.0026245117,-0.7905884,-0.3125,-0.109375,0.078125
594,594,1727897390393,-0.6203613,0.005554199,-0.7798462,-0.390625,0.0625,0.03125
595,595,1727897390433,-0.61450195,0.0014038086,-0.79522705,-0.28125,-0.40625,-0.046875
596,596,1727897390473,-0.61083984,0.0006713867,-0.7888794,-0.140625,-0.046875,0.140625
597,597,1727897390513,-0.6052246,-0.004699707,-0.7962036,-0.578125,-0.046875,0.28125
598,598,1727897390553,-0.6101074,-0.004699707,-0.7842407,-0.453125,0.453125,-0.015625
599,599,1727897390593,-0.6047363,-0.0071411133,-0.7937622,-0.40625,0.328125,0.203125
600,600,1727897390633,-0.6064453,-0.00079345703,-0.78448486,-0.421875,0.21875,0.078125
601,601,1727897390673,-0.6035156,0.0006713867,-0.7925415,-0.359375,0.28125,0.078125
602,602,1727897390713,-0.6123047,0.0014038086,-0.79693604,-0.453125,0.625,0.078125
603,603,1727897390753,-0.6130371,-0.0029907227,-0.7949829,-0.28125,0.90625,0.140625
604,604,1727897390793,-0.60424805,-0.0029907227,-0.79278564,-0.3125,1.15625,-0.03125
605,605,1727897390833,-0.61035156,-0.0076293945,-0.7852173,-0.171875,0.90625,0.0625
606,606,1727897390873,-0.61328125,-0.0005493164,-0.7925415,-0.46875,1.84375,0.140625
607,607,1727897390913,-0.6113281,0.00018310547,-0.78497314,-0.140625,2.5625,0.03125
608,608,1727897390953,-0.61279297,-0.0010375977,-0.77667236,0.34375,2.328125,0.0625
609,609,1727897390993,-0.6047363,-0.006164551,-0.7798462,0.171875,4.328125,0.484375
610,610,1727897391033,-0.63305664,0.0016479492,-0.7854614,0.625,5.703125,0.609375
611,611,1727897391073,-0.62280273,0.008239746,-0.78326416,-0.96875,9.234375,1.71875
612,612,1727897391113,-0.64282227,-0.0017700195,-0.7481079,0.984375,11.46875,1.0625
613,613,1727897391153,-0.6520996,0.0021362305,-0.76519775,0.0,2.9375,0.46875
614,614,1727897391193,-0.64208984,-0.0020141602,-0.7546997,0.21875,3.03125,0.328125
615,615,1727897391233,-0.6496582,0.007507324,-0.7642212,0.6875,0.140625,0.046875
616,616,1727897391273,-0.65356445,-0.0010375977,-0.75860596,0.171875,-0.015625,-0.0625
617,617,1727897391313,-0.6530762,0.0028686523,-0.7647095,-0.296875,-0.65625,-0.078125
618,618,1727897391353,-0.6452637,0.0099487305,-0.76446533,-0.34375,-0.296875,-0.125
619,619,1727897391393,-0.64501953,0.0060424805,-0.7647095,-0.46875,-0.421875,-0.09375
620,620,1727897391433,-0.64331055,0.005065918,-0.7637329,-0.71875,0.140625,0.0625
621,621,1727897391473,-0.64086914,0.007019043,-0.7588501,-0.4375,-0.171875,-0.09375
622,622,1727897391513,-0.64331055,0.0065307617,-0.7686157,-0.421875,-0.09375,-0.078125
623,623,1727897391553,-0.6401367,-0.0005493164,-0.7595825,-0.34375,0.203125,0.15625
624,624,1727897391593,-0.6398926,0.0119018555,-0.7608032,-0.34375,0.265625,-0.0625
625,625,1727897391633,-0.6467285,0.008239746,-0.769104,-0.6875,0.3125,0.15625
626,626,1727897391673,-0.6442871,-0.0010375977,-0.7583618,-0.46875,0.640625,0.0625
627,627,1727897391713,-0.6418457,0.00091552734,-0.7617798,-0.375,0.203125,0.078125
628,628,1727897391753,-0.6489258,0.0072631836,-0.76812744,-0.484375,0.234375,-0.046875
629,629,1727897391793,-0.6437988,-0.0012817383,-0.7642212,-0.421875,0.5,0.125
630,630,1727897391833,-0.6386719,0.0038452148,-0.76519775,-0.3125,0.171875,-0.046875
631,631,1727897391873,-0.64697266,0.0048217773,-0.7649536,-0.34375,0.34375,0.03125
632,632,1727897391913,-0.64453125,0.0028686523,-0.7581177,-0.453125,-0.046875,-0.078125
633,633,1727897391953,-0.63793945,0.007507324,-0.7649536,-0.53125,-0.109375,0.046875
634,634,1727897391993,-0.6411133,0.009216309,-0.7720337,-0.515625,-0.25,0.078125
635,635,1727897392033,-0.6369629,0.0016479492,-0.7710571,-0.578125,0.0,-0.0625
636,636,1727897392073,-0.6398926,-0.0012817383,-0.7671509,-0.3125,-0.453125,0.015625
637,637,1727897392113,-0.6369629,0.0040893555,-0.77056885,-0.59375,0.0625,-0.015625
638,638,1727897392153,-0.6308594,0.0045776367,-0.7647095,-0.484375,0.078125,-0.015625
639,639,1727897392193,-0.63549805,0.008728027,-0.7595825,-0.203125,-0.234375,-0.03125
640,640,1727897392233,-0.64038086,-0.00030517578,-0.7756958,-0.65625,-0.25,0.0625
641,641,1727897392273,-0.64038086,-0.0005493164,-0.7666626,-0.625,-0.078125,-0.125
642,642,1727897392313,-0.63671875,0.0033569336,-0.7764282,-0.484375,-0.046875,0.015625
643,643,1727897392353,-0.63720703,0.0018920898,-0.7683716,-0.734375,0.53125,0.0625
644,644,1727897392393,-0.6340332,0.00579834,-0.7744751,-0.59375,0.203125,0.0
645,645,1727897392433,-0.6347656,0.0016479492,-0.7695923,-0.53125,0.328125,0.0
646,646,1727897392473,-0.6335449,0.0014038086,-0.76885986,-0.5,0.46875,0.15625
647,647,1727897392513,-0.63427734,-0.0010375977,-0.770813,-0.484375,0.21875,0.078125
648,648,1727897392553,-0.6386719,-0.0032348633,-0.77056885,-0.359375,0.265625,0.09375
649,649,1727897392593,-0.63842773,-0.0010375977,-0.7744751,-0.15625,0.21875,0.03125
650,650,1727897392633,-0.6298828,0.0045776367,-0.7695923,-0.25,0.25,0.015625
651,651,1727897392673,-0.6269531,0.0038452148,-0.7727661,-0.1875,-0.015625,0.0625
652,652,1727897392713,-0.6320801,0.005554199,-0.7727661,-0.453125,0.140625,0.140625
653,653,1727897392753,-0.63061523,0.0038452148,-0.7703247,-0.390625,0.078125,0.109375
654,654,1727897392793,-0.63427734,-0.00079345703,-0.7756958,-0.46875,0.296875,0.015625
655,655,1727897392833,-0.6328125,0.0018920898,-0.7769165,-0.296875,0.40625,0.078125
656,656,1727897392873,-0.6296387,0.0038452148,-0.77349854,-0.5625,0.234375,0.046875
657,657,1727897392913,-0.63061523,0.0028686523,-0.7695923,-0.390625,0.265625,0.125
658,658,1727897392953,-0.626709,0.00091552734,-0.7788696,-0.4375,0.4375,0.109375
659,659,1727897392993,-0.6328125,0.002380371,-0.77130127,-0.25,0.578125,0.046875
660,660,1727897393033,-0.6274414,-0.0029907227,-0.7739868,-0.53125,0.46875,0.046875
661,661,1727897393073,-0.62890625,-0.0025024414,-0.770813,-0.40625,0.859375,0.015625
662,662,1727897393113,-0.63500977,0.0021362305,-0.77838135,-0.515625,0.46875,-0.078125
663,663,1727897393153,-0.6315918,0.0014038086,-0.7744751,-0.203125,0.65625,0.109375
664,664,1727897393193,-0.62890625,0.0033569336,-0.77227783,-0.28125,0.296875,0.03125
665,665,1727897393233,-0.6286621,0.0033569336,-0.7776489,-0.453125,0.515625,0.1875
666,666,1727897393273,-0.625,0.0036010742,-0.7749634,-0.40625,0.484375,0.0
667,667,1727897393313,-0.62719727,0.0021362305,-0.7642212,-0.125,0.15625,-0.0625
668,668,1727897393353,-0.6298828,-0.0012817383,-0.78082275,-0.609375,0.4375,0.078125
669,669,1727897393393,-0.62524414,0.0021362305,-0.77227783,-0.203125,0.53125,0.078125
670,670,1727897393433,-0.63916016,0.0018920898,-0.7774048,-0.234375,0.375,0.015625
671,671,1727897393473,-0.6315918,0.0038452148,-0.77349854,-0.421875,0.6875,0.109375
672,672,1727897393513,-0.6286621,0.0048217773,-0.77593994,-0.484375,0.71875,0.15625
673,673,1727897393553,-0.6291504,0.0045776367,-0.7744751,-0.5,0.609375,-0.125
674,674,1727897393593,-0.6303711,0.0045776367,-0.77789307,-0.609375,0.71875,0.03125
675,675,1727897393633,-0.6274414,0.0018920898,-0.772522,-0.34375,0.359375,-0.015625
676,676,1727897393673,-0.63061523,0.005065918,-0.77545166,-0.484375,0.5625,0.09375
677,677,1727897393713,-0.63671875,-0.0022583008,-0.7803345,-0.34375,0.609375,-0.046875
678,678,1727897393753,-0.6254883,-0.0020141602,-0.77423096,-0.375,0.703125,0.078125
679,679,1727897393793,-0.6298828,-0.0010375977,-0.77593994,-0.359375,0.515625,0.125
680,680,1727897393833,-0.62890625,-6.1035156e-05,-0.7769165,-0.359375,0.6875,0.09375
681,681,1727897393873,-0.63012695,0.0014038086,-0.77545166,-0.46875,0.609375,0.015625
682,682,1727897393913,-0.6311035,0.003112793,-0.772522,-0.390625,0.8125,0.21875
683,683,1727897393953,-0.6281738,0.005554199,-0.7703247,-0.515625,0.4375,0.015625
684,684,1727897393993,-0.62890625,0.0016479492,-0.7793579,-0.546875,0.578125,-0.109375
685,685,1727897394033,-0.63061523,0.0038452148,-0.77130127,-0.46875,0.671875,0.078125
686,686,1727897394073,-0.63500977,-0.0015258789,-0.7744751,-0.421875,0.40625,-0.109375
687,687,1727897394113,-0.63061523,0.007019043,-0.7774048,-0.234375,0.53125,0.0625
688,688,1727897394153,-0.62890625,0.00018310547,-0.77716064,-0.40625,0.53125,-0.015625
689,689,1727897394193,-0.62768555,0.0053100586,-0.770813,-0.421875,0.421875,0.109375
690,690,1727897394233,-0.6279297,-0.00079345703,-0.77423096,-0.4375,0.609375,-0.015625
691,691,1727897394273,-0.6347656,0.0028686523,-0.7776489,-0.421875,0.515625,0.03125
692,692,1727897394313,-0.63378906,0.010681152,-0.772522,-0.46875,0.703125,0.03125
693,693,1727897394353,-0.6303711,0.0026245117,-0.7666626,-0.421875,0.46875,0.140625
694,694,1727897394393,-0.6218262,-0.0044555664,-0.772522,-0.46875,0.953125,-0.078125
695,695,1727897394433,-0.6357422,0.00091552734,-0.77471924,-0.234375,0.5625,0.03125
696,696,1727897394473,-0.6296387,0.0014038086,-0.7737427,-0.28125,0.703125,-0.0625
697,697,1727897394513,-0.62841797,0.0040893555,-0.77667236,-0.265625,0.484375,-0.0625
698,698,1727897394553,-0.6281738,0.00018310547,-0.77716064,-0.296875,0.703125,-0.015625
699,699,1727897394593,-0.62475586,0.005554199,-0.7683716,-0.40625,0.671875,-0.0625
700,700,1727897394633,-0.6323242,-0.0037231445,-0.77545166,-0.421875,0.3125,-0.046875
701,701,1727897394673,-0.62768555,-0.00030517578,-0.77056885,-0.484375,0.703125,0.0625
702,702,1727897394713,-0.6357422,0.0014038086,-0.7695923,-0.15625,0.546875,-0.0625
703,703,1727897394753,-0.63378906,-0.0071411133,-0.77178955,-0.421875,0.640625,0.0
704,704,1727897394793,-0.63256836,0.008972168,-0.76885986,-0.390625,0.703125,-0.046875
705,705,1727897394833,-0.62646484,0.0004272461,-0.76690674,-0.28125,0.4375,0.109375
706,706,1727897394873,-0.63305664,0.0021362305,-0.78082275,-0.390625,0.546875,0.09375
707,707,1727897394913,-0.63256836,0.0045776367,-0.7739868,-0.546875,0.9375,0.09375
708,708,1727897394953,-0.6335449,-0.003479004,-0.7739868,-0.4375,0.578125,0.0
709,709,1727897394993,-0.6320801,0.0048217773,-0.76690674,-0.421875,0.578125,0.046875
710,710,1727897395033,-0.63671875,0.0036010742,-0.772522,-0.421875,0.46875,-0.015625
711,711,1727897395073,-0.6303711,0.0036010742,-0.77471924,-0.46875,0.453125,-0.046875
712,712,1727897395113,-0.6311035,-0.0020141602,-0.7781372,-0.265625,0.640625,-0.015625
713,713,1727897395153,-0.63183594,0.0026245117,-0.76934814,-0.421875,0.703125,0.109375
714,714,1727897395193,-0.6359863,0.0018920898,-0.7761841,-0.484375,0.71875,0.09375
715,715,1727897395233,-0.63378906,0.003112793,-0.7737427,-0.453125,0.484375,0.125
716,716,1727897395273,-0.63012695,0.0045776367,-0.772522,-0.21875,0.734375,-0.015625
717,717,1727897395313,-0.63305664,-0.00079345703,-0.77008057,-0.328125,0.796875,0.125
718,718,1727897395353,-0.6352539,-0.00030517578,-0.76446533,-0.25,0.75,0.078125
719,719,1727897395393,-0.6347656,0.0016479492,-0.77716064,-0.390625,0.375,0.0
720,720,1727897395433,-0.63500977,0.004333496,-0.770813,-0.4375,0.6875,0.078125
721,721,1727897395473,-0.6411133,0.00091552734,-0.7737427,-0.359375,0.40625,0.015625
722,722,1727897395513,-0.6376953,0.0033569336,-0.767395,-0.5,0.625,0.0625
723,723,1727897395553,-0.63427734,0.0006713867,-0.76934814,-0.453125,0.203125,-0.03125
724,724,1727897395593,-0.63305664,0.0016479492,-0.7715454,-0.5,0.546875,-0.046875
725,725,1727897395633,-0.63427734,-0.002746582,-0.7710571,-0.78125,0.578125,0.15625
726,726,1727897395673,-0.6357422,0.0004272461,-0.77056885,-0.71875,0.375,-0.015625
727,727,1727897395713,-0.63061523,0.0036010742,-0.77716064,-0.5625,0.71875,0.03125
728,728,1727897395753,-0.63183594,-0.0020141602,-0.7695923,-0.421875,0.65625,0.109375
729,729,1727897395793,-0.63427734,0.0018920898,-0.7715454,-0.3125,0.3125,-0.0625
730,730,1727897395833,-0.63183594,0.00091552734,-0.77178955,-0.390625,0.28125,0.109375
731,731,1727897395873,-0.62646484,-0.0005493164,-0.76934814,-0.484375,0.40625,0.1875
732,732,1727897395913,-0.63305664,0.0014038086,-0.77349854,-0.703125,0.671875,0.046875
733,733,1727897395953,-0.63305664,-0.0012817383,-0.770813,-0.53125,0.484375,0.03125
734,734,1727897395993,-0.63671875,-0.0064086914,-0.77301025,-0.4375,0.375,-0.046875
735,735,1727897396033,-0.62939453,-0.003479004,-0.77130127,-0.375,0.28125,0.03125
736,736,1727897396073,-0.6374512,0.001159668,-0.78204346,-0.265625,0.234375,-0.046875
737,737,1727897396113,-0.63256836,0.003112793,-0.77227783,-0.1875,0.078125,-0.0625
738,738,1727897396153,-0.6291504,0.0028686523,-0.76934814,-0.265625,-0.09375,-0.0625
739,739,1727897396193,-0.63500977,0.005554199,-0.7752075,-0.234375,-0.03125,-0.015625
740,740,1727897396233,-0.6328125,-0.0025024414,-0.77301025,-0.421875,0.171875,0.046875
741,741,1727897396273,-0.6308594,0.0048217773,-0.77471924,-0.0625,-0.375,0.109375
742,742,1727897396313,-0.6291504,0.0021362305,-0.7774048,-0.3125,-0.03125,-0.078125
743,743,1727897396353,-0.6279297,0.0016479492,-0.7793579,-0.359375,0.15625,-0.09375
744,744,1727897396393,-0.6269531,-0.0015258789,-0.7744751,-0.015625,0.0625,0.046875
745,745,1727897396433,-0.6296387,-0.0051879883,-0.7852173,-0.65625,0.125,0.09375
746,746,1727897396473,-0.62402344,0.0018920898,-0.77056885,-0.375,0.171875,-0.015625
747,747,1727897396513,-0.63549805,0.005554199,-0.78009033,-0.28125,-0.296875,-0.03125
748,748,1727897396553,-0.62475586,0.004333496,-0.7698364,-0.546875,0.3125,0.03125
749,749,1727897396593,-0.62768555,0.004333496,-0.7774048,-0.1875,0.25,0.0
750,750,1727897396633,-0.62719727,0.007751465,-0.78131104,-0.3125,0.140625,0.21875
751,751,1727897396673,-0.6262207,-0.0010375977,-0.78009033,-0.421875,0.265625,0.15625
752,752,1727897396713,-0.62646484,0.00091552734,-0.78131104,-0.5625,0.296875,0.21875
753,753,1727897396753,-0.6279297,0.0026245117,-0.7817993,-0.625,0.078125,0.0625
754,754,1727897396793,-0.62109375,0.0028686523,-0.77667236,-0.375,-0.03125,0.125
755,755,1727897396833,-0.62841797,0.0016479492,-0.7815552,-0.453125,-0.15625,-0.078125
756,756,1727897396873,-0.62280273,0.0048217773,-0.7810669,-0.28125,0.265625,0.203125
757,757,1727897396913,-0.6213379,-0.0032348633,-0.7788696,-0.40625,0.3125,-0.015625
758,758,1727897396953,-0.6245117,0.0014038086,-0.7810669,-0.5625,0.40625,0.15625
759,759,1727897396993,-0.6237793,-0.0005493164,-0.7781372,-0.484375,0.40625,0.0625
