,timestamp,accel_x,accel_y,accel_z,gyro_x,gyro_y,gyro_z
0,1727263423922,-0.22363281,-0.913147,0.11199951,0.859375,3.796875,0.890625
1,1727263423962,-0.27929688,-1.024231,0.2501831,12.15625,14.578125,6.390625
2,1727263424002,-0.44580078,-1.0112915,0.137146,4.75,19.546875,1.828125
3,1727263424042,-0.30932617,-1.11969,0.17254639,6.890625,20.859375,-5.6875
4,1727263424082,-0.29516602,-1.2962036,0.02532959,4.28125,18.515625,-14.890625
5,1727263424122,-0.4934082,-1.6951294,0.015075684,4.515625,32.546875,-18.953125
6,1727263424162,-0.17895508,-1.3921509,-0.19927979,-5.125,57.671875,-10.59375
7,1727263424202,-0.20581055,-1.1345825,-0.37457275,-0.484375,52.078125,-3.953125
8,1727263424242,-0.18896484,-1.1445923,-0.027160645,-8.625,3.984375,-9.8125
9,1727263424282,-0.0009765625,-0.8587036,0.07318115,-1.90625,36.4375,4.140625
10,1727263424322,-0.13916016,-0.4751587,-0.04034424,10.265625,33.921875,12.671875
11,1727263424362,-0.2319336,-0.44976807,-0.08453369,6.078125,-1.515625,-2.046875
12,1727263424402,-0.18164062,-0.5286255,0.10662842,-0.6875,9.21875,-4.609375
13,1727263424442,-0.15307617,-0.6868286,-0.007873535,-16.0625,7.40625,-12.546875
14,1727263424482,-0.328125,-0.8623657,-0.073791504,-4.21875,1.515625,-4.328125
15,1727263424522,-0.38500977,-1.0166626,0.028747559,-6.578125,-22.546875,-13.703125
16,1727263424562,-0.3400879,-1.1245728,0.23797607,-0.890625,1.40625,-6.828125
17,1727263424602,-0.40698242,-0.9336548,0.13128662,6.375,26.859375,7.328125
18,1727263424642,-0.39794922,-0.83135986,0.16131592,3.171875,18.609375,4.28125
19,1727263424682,-0.31689453,-0.83843994,0.12542725,-0.90625,16.59375,3.4375
20,1727263424722,-0.3083496,-0.8587036,0.11663818,1.8125,11.859375,6.6875
21,1727263424762,-0.33544922,-0.90509033,0.17816162,-0.4375,7.109375,8.25
22,1727263424802,-0.3256836,-0.89849854,0.17791748,-2.8125,0.390625,9.875
23,1727263424842,-0.42871094,-0.94854736,0.1876831,-0.71875,4.59375,11.65625
24,1727263424882,-0.39990234,-0.94903564,0.19720459,-3.828125,0.546875,6.796875
25,1727263424922,-0.36767578,-1.003479,0.27679443,-4.3125,2.546875,4.4375
26,1727263424962,-0.41577148,-1.0349731,0.31951904,-7.9375,-1.3125,1.234375
27,1727263425002,-0.50561523,-1.2210083,0.29119873,-13.15625,1.984375,2.046875
28,1727263425042,-0.25268555,-1.2061157,-0.011047363,-21.9375,38.640625,-3.640625
29,1727263425082,0.035888672,-1.1177368,-0.17633057,-2.765625,37.125,-12.796875
30,1727263425122,0.1315918,-1.053772,0.0065307617,-11.21875,-14.265625,-12.921875
31,1727263425162,-0.39233398,-0.9324341,0.42596436,-1.171875,26.765625,14.140625
32,1727263425202,-0.35668945,-0.68218994,-0.10772705,-4.234375,54.921875,-8.40625
33,1727263425242,0.014892578,-1.0628052,0.2189331,1.609375,31.703125,-16.75
34,1727263425282,-0.14038086,-0.9338989,0.19622803,6.203125,30.5,0.328125
35,1727263425322,-0.06567383,-0.88946533,0.19281006,10.25,31.265625,4.3125
36,1727263425362,-0.10961914,-0.91363525,0.20916748,9.140625,27.15625,3.0625
37,1727263425402,-0.24072266,-0.9048462,0.24603271,12.203125,23.0625,7.046875
38,1727263425442,-0.2319336,-0.8965454,0.21478271,6.890625,25.484375,1.28125
39,1727263425482,-0.1665039,-0.90875244,0.21722412,8.296875,17.75,-1.34375
40,1727263425522,-0.22241211,-0.9402466,0.32928467,10.265625,17.234375,0.921875
41,1727263425562,-0.29370117,-0.86724854,0.24676514,9.3125,19.203125,-1.921875
42,1727263425602,-0.22509766,-0.86431885,0.322937,11.46875,18.484375,-5.71875
43,1727263425642,-0.33374023,-0.9290161,0.40081787,6.6875,20.78125,-6.9375
44,1727263425682,-0.3647461,-0.92755127,0.30145264,6.3125,22.359375,-7.140625
45,1727263425722,-0.18017578,-1.0803833,-0.012268066,16.140625,18.125,-3.609375
46,1727263425762,-0.36499023,-1.6328735,0.37249756,21.515625,25.765625,-5.984375
47,1727263425802,-0.35620117,-1.671936,0.16082764,0.609375,11.015625,-25.3125
48,1727263425842,-0.2097168,-1.31427,-0.08013916,6.734375,27.78125,-10.421875
49,1727263425882,-0.07006836,-1.1116333,-0.34820557,16.1875,41.515625,1.046875
50,1727263425922,-0.18774414,-1.1851196,-0.16217041,10.59375,16.53125,-4.40625
51,1727263425962,-0.2902832,-1.038147,-0.061340332,5.171875,31.359375,1.6875
52,1727263426002,-0.14233398,-0.81451416,-0.109436035,8.15625,8.296875,-0.890625
53,1727263426042,-0.08178711,-0.66363525,0.024353027,8.90625,14.1875,4.125
54,1727263426082,-0.10571289,-0.4866333,0.029968262,17.375,33.6875,13.421875
55,1727263426122,-0.15185547,-0.5315552,-0.016906738,2.921875,15.53125,0.640625
56,1727263426162,-0.14697266,-0.6511841,0.035583496,4.203125,1.125,2.5625
57,1727263426202,-0.3251953,-0.7571411,-0.015930176,2.421875,-4.234375,-2.203125
58,1727263426242,-0.30151367,-0.8545532,0.093688965,7.09375,-6.171875,-4.3125
59,1727263426282,-0.2084961,-0.87042236,-0.055236816,-3.640625,9.828125,-2.109375
60,1727263426322,-0.3317871,-1.2485962,-0.14239502,-12.75,-24.5,-12.65625
61,1727263426362,-0.36328125,-1.2649536,0.43621826,24.015625,-2.046875,9.15625
62,1727263426402,-0.52856445,-0.8076782,-0.0051879883,10.71875,33.859375,16.71875
63,1727263426442,-0.26049805,-1.2832642,0.15106201,-26.8125,-13.953125,-31.828125
64,1727263426482,-0.43115234,-1.9048462,-0.0178833,-23.59375,11.171875,7.046875
65,1727263426522,-0.1508789,-1.4509888,-0.0068969727,-4.859375,-4.46875,8.109375
66,1727263426562,-0.014160156,-1.1626587,-0.019592285,4.265625,16.921875,21.21875
67,1727263426602,-0.16577148,-0.9234009,-0.17633057,4.625,-21.5625,8.65625
68,1727263426642,-0.36914062,-0.89312744,0.20233154,19.15625,-16.5,11.828125
69,1727263426682,-0.18725586,-0.4866333,-0.015686035,-14.625,20.109375,-2.453125
70,1727263426722,0.04663086,-0.520813,0.019714355,-0.234375,-2.0,-9.9375
71,1727263426762,-0.07080078,-0.538147,0.105895996,4.421875,12.640625,5.28125
72,1727263426802,-0.06616211,-0.58135986,0.02508545,-11.5,-3.359375,-2.15625
73,1727263426842,0.032714844,-0.86016846,0.11468506,-8.203125,-14.515625,-3.46875
74,1727263426882,-0.18139648,-1.0862427,0.23260498,-13.546875,-2.609375,2.09375
75,1727263426922,-0.1484375,-0.99346924,0.16497803,-15.75,-2.578125,4.203125
76,1727263426962,-0.07299805,-0.91778564,0.02142334,-19.46875,-19.8125,5.828125
77,1727263427002,-0.42407227,-0.9312134,0.27801514,24.90625,-2.8125,15.4375
78,1727263427042,-0.5065918,-1.065979,0.46551514,6.359375,20.015625,-1.921875
79,1727263427082,-0.3623047,-1.2825317,0.152771,-2.65625,20.625,-15.796875
80,1727263427122,-0.44750977,-1.468811,0.11077881,4.796875,19.359375,-18.21875
81,1727263427162,0.009033203,-1.5591431,0.0758667,11.125,-9.640625,-24.453125
82,1727263427202,-0.36254883,-1.2649536,-0.0095825195,15.4375,23.390625,-0.34375
83,1727263427242,0.06298828,-0.9170532,-0.27252197,7.203125,12.890625,-6.859375
84,1727263427282,-0.07055664,-1.2422485,-0.070373535,14.390625,-1.0625,0.390625
85,1727263427322,-0.26489258,-0.7600708,0.012878418,-0.28125,5.546875,10.296875
86,1727263427362,-0.11425781,-0.6277466,0.06072998,-5.890625,6.71875,-0.84375
87,1727263427402,-0.21362305,-0.5901489,-0.050109863,1.1875,26.4375,12.078125
88,1727263427442,-0.234375,-0.44488525,0.01361084,1.34375,-6.125,-3.9375
89,1727263427482,-0.12646484,-0.7439575,0.005065918,-16.0,14.859375,-8.65625
90,1727263427522,-0.2277832,-0.90948486,0.025817871,-9.421875,-15.0,-9.328125
91,1727263427562,-0.28051758,-1.0161743,0.13641357,-13.125,-4.046875,-5.109375
92,1727263427602,-0.40966797,-0.91900635,0.19281006,4.546875,4.828125,0.59375
93,1727263427642,-0.43603516,-0.92266846,0.10858154,5.546875,7.40625,-1.15625
94,1727263427682,-0.27929688,-0.911438,0.070739746,2.796875,3.65625,0.375
95,1727263427722,-0.2783203,-0.9536743,0.0446167,5.34375,-0.15625,-0.34375
96,1727263427762,-0.27929688,-1.0220337,0.1515503,1.5625,-2.796875,1.171875
97,1727263427802,-0.375,-1.0940552,0.16204834,-3.8125,-7.25,1.71875
98,1727263427842,-0.40478516,-1.4060669,0.035827637,-11.796875,-17.625,-6.265625
99,1727263427882,-0.24951172,-1.8789673,0.3156128,-13.546875,-16.65625,2.71875
100,1727263427922,-0.19335938,-1.1524048,0.085632324,-6.5625,24.828125,34.5
101,1727263427962,-0.005126953,-0.7996216,-0.20098877,-13.46875,-21.65625,-6.46875
102,1727263428002,0.11621094,-1.5396118,0.5368042,2.265625,-50.1875,-5.25
103,1727263428042,-0.34228516,-0.8711548,-0.07281494,-2.9375,11.828125,16.484375
104,1727263428082,-0.29077148,-0.43121338,0.13568115,-2.046875,-11.640625,-8.75
105,1727263428122,0.0048828125,-0.54815674,0.027770996,1.9375,-11.234375,-8.359375
106,1727263428162,-0.04711914,-0.5396118,0.11029053,1.328125,-10.15625,1.609375
107,1727263428202,-0.09887695,-0.616272,0.10003662,-11.9375,-15.8125,-2.0
108,1727263428242,-0.115234375,-0.85284424,0.19525146,-8.578125,-17.0625,1.796875
109,1727263428282,-0.2475586,-1.0432739,0.23822021,-6.640625,-17.625,2.703125
110,1727263428322,-0.32641602,-1.0274048,0.30291748,2.3125,-6.515625,6.828125
111,1727263428362,-0.33740234,-0.90948486,0.26019287,6.046875,-1.984375,3.484375
112,1727263428402,-0.3256836,-0.89190674,0.26019287,15.296875,2.953125,3.984375
113,1727263428442,-0.27270508,-0.9771118,0.23016357,12.53125,7.6875,3.328125
114,1727263428482,-0.37548828,-1.0791626,0.3529663,3.171875,18.140625,1.09375
115,1727263428522,-0.44311523,-1.0881958,0.18133545,0.46875,23.484375,-10.921875
116,1727263428562,-0.21557617,-1.2908325,0.04949951,0.984375,1.984375,-20.28125
117,1727263428602,-0.43432617,-1.8633423,0.3168335,13.53125,20.828125,-17.328125
118,1727263428642,-0.14892578,-1.2647095,-0.116760254,-2.078125,35.421875,-2.796875
119,1727263428682,-0.14379883,-1.1738892,-0.1362915,-2.671875,14.40625,-2.21875
120,1727263428722,-0.27319336,-1.1387329,0.12786865,-6.515625,15.46875,1.25
121,1727263428762,-0.18603516,-0.847229,-0.101623535,-2.53125,2.09375,2.859375
122,1727263428802,-0.09057617,-0.6746216,0.1618042,1.703125,4.359375,13.3125
123,1727263428842,-0.1953125,-0.39263916,0.09588623,5.8125,11.640625,12.328125
124,1727263428882,-0.15014648,-0.35186768,0.014343262,-0.75,22.578125,5.65625
125,1727263428922,-0.103027344,-0.48565674,-0.16290283,-5.265625,10.171875,-3.71875
126,1727263428962,-0.22680664,-0.79644775,-0.0064086914,2.484375,-40.640625,-13.859375
127,1727263429002,-0.45751953,-1.0755005,0.3114624,2.328125,6.65625,-2.71875
128,1727263429042,-0.40307617,-0.97369385,0.1293335,3.390625,2.03125,-0.359375
129,1727263429082,-0.23413086,-1.0134888,0.15252686,4.375,3.578125,1.796875
130,1727263429122,-0.28222656,-1.0366821,0.1473999,2.9375,3.390625,7.5625
131,1727263429162,-0.36572266,-1.0479126,0.1696167,11.734375,-1.109375,11.09375
132,1727263429202,-0.48901367,-1.1309204,0.27679443,-4.3125,5.65625,3.578125
133,1727263429242,-0.36401367,-1.2788696,0.09222412,-10.796875,4.3125,8.15625
134,1727263429282,-0.17529297,-1.6138306,-0.1873169,-18.6875,-9.96875,-4.21875
135,1727263429322,0.28564453,-1.6165161,0.2140503,-2.640625,-21.609375,5.59375
136,1727263429362,-0.40820312,-0.9338989,0.026550293,3.109375,-0.921875,13.828125
137,1727263429402,-0.23852539,-1.0413208,-0.011779785,-15.21875,-2.078125,-9.5
138,1727263429442,-0.08984375,-0.9495239,0.00579834,3.15625,0.9375,-1.1875
139,1727263429482,-0.1665039,-0.67266846,0.13250732,-6.921875,9.0625,-0.9375
140,1727263429522,0.028808594,-0.4199829,0.02532959,-4.875,3.359375,1.296875
141,1727263429562,-0.08276367,-0.47491455,0.15618896,0.484375,1.609375,-1.75
142,1727263429602,-0.12695312,-0.6807251,0.18792725,1.140625,-0.609375,-0.546875
143,1727263429642,-0.036865234,-0.8965454,0.14666748,-3.09375,2.421875,2.421875
144,1727263429682,-0.23510742,-1.0620728,0.22283936,-2.84375,0.828125,1.328125
145,1727263429722,-0.15893555,-1.029602,0.15228271,-0.859375,2.109375,3.84375
146,1727263429762,-0.13867188,-0.9780884,0.24749756,5.328125,-2.484375,7.28125
147,1727263429802,-0.30200195,-0.89556885,0.24920654,6.109375,-5.125,4.34375
148,1727263429842,-0.37670898,-0.92071533,0.30975342,1.640625,6.9375,-2.34375
149,1727263429882,-0.3388672,-1.0703735,0.2506714,-6.578125,14.046875,-13.40625
150,1727263429922,-0.31713867,-1.378479,0.24749756,-10.859375,8.765625,-20.3125
151,1727263429962,-0.20385742,-1.6672974,0.25164795,9.25,-0.109375,-17.484375
152,1727263430002,-0.32885742,-1.2605591,0.049743652,10.484375,15.75,-3.203125
153,1727263430042,-0.13549805,-1.1607056,-0.11407471,-0.265625,20.234375,-4.140625
154,1727263430082,-0.13623047,-1.144104,0.018737793,-4.734375,3.796875,-1.625
155,1727263430122,-0.20019531,-0.9446411,0.020446777,6.015625,2.828125,10.46875
156,1727263430162,-0.18920898,-0.7295532,0.06365967,3.4375,-1.109375,8.5625
157,1727263430202,-0.11303711,-0.5532837,0.08392334,3.203125,-2.296875,8.28125
158,1727263430242,-0.30322266,-0.4661255,0.16693115,7.3125,11.078125,5.390625
159,1727263430282,-0.15698242,-0.5940552,-0.013977051,0.40625,17.75,-1.078125
160,1727263430322,-0.27319336,-0.7576294,0.13763428,3.21875,7.984375,-5.46875
161,1727263430362,-0.2578125,-0.9951782,0.1281128,-3.140625,8.625,-11.421875
162,1727263430402,-0.24975586,-0.98394775,0.09832764,8.515625,6.8125,-2.296875
163,1727263430442,-0.29785156,-0.9468384,0.10638428,8.796875,3.484375,-0.25
164,1727263430482,-0.26635742,-0.94317627,0.15130615,12.03125,0.3125,4.703125
165,1727263430522,-0.30932617,-1.0125122,0.10418701,6.953125,-0.59375,4.6875
166,1727263430562,-0.24389648,-1.1104126,0.14202881,3.46875,-17.203125,3.546875
167,1727263430602,-0.38110352,-1.2756958,0.20257568,-4.15625,-12.296875,5.140625
168,1727263430642,-0.52124023,-1.4341431,-0.0068969727,-6.671875,-4.828125,7.90625
169,1727263430682,0.16040039,-1.5110474,-0.0056762695,-23.0,-14.578125,0.34375
170,1727263430722,-0.050048828,-1.18219,-0.015930176,4.5625,-16.484375,15.046875
171,1727263430762,-0.16796875,-1.1004028,-0.012023926,-9.453125,-9.671875,-0.109375
172,1727263430802,-0.18725586,-1.1121216,0.011169434,-0.46875,4.15625,0.875
173,1727263430842,-0.33374023,-0.833313,0.0006713867,-10.8125,23.453125,0.171875
174,1727263430882,-0.008300781,-0.6499634,-0.019104004,-4.34375,15.0625,-4.625
175,1727263430922,-0.0073242188,-0.4668579,-0.010559082,7.5,2.890625,-0.296875
176,1727263430962,-0.16821289,-0.5449829,0.06317139,7.484375,-2.15625,-1.171875
177,1727263431002,-0.037109375,-0.6091919,0.1671753,8.703125,-1.71875,0.625
178,1727263431042,-0.1303711,-0.86138916,0.25872803,5.21875,9.84375,2.390625
179,1727263431082,-0.22143555,-1.0344849,0.13348389,-2.40625,9.0625,-1.1875
180,1727263431122,-0.16040039,-0.9295044,0.062683105,-0.34375,6.796875,0.3125
181,1727263431162,-0.099365234,-1.0889282,0.059753418,10.6875,3.78125,0.1875
182,1727263431202,-0.125,-1.0549927,0.09857178,21.34375,-2.640625,4.6875
183,1727263431242,-0.31762695,-0.86553955,0.2189331,16.828125,6.0,3.71875
184,1727263431282,-0.2097168,-0.9151001,0.18157959,8.484375,7.40625,5.515625
185,1727263431322,-0.4387207,-1.1941528,0.12371826,9.0625,12.75,-2.328125
186,1727263431362,-0.13574219,-1.2713013,-0.044006348,0.4375,2.984375,-10.03125
187,1727263431402,-0.28198242,-1.4990845,0.14324951,-10.375,-2.3125,-15.734375
188,1727263431442,-0.49487305,-1.4370728,-0.13433838,6.5625,12.640625,-15.75
189,1727263431482,-0.14477539,-1.1082153,-0.21124268,-10.796875,32.265625,-8.125
190,1727263431522,-0.24829102,-1.123352,-0.22564697,-13.484375,22.625,-7.96875
191,1727263431562,-0.22167969,-0.99835205,-0.015197754,-7.34375,15.515625,-6.015625
192,1727263431602,-0.19311523,-0.7324829,-0.026672363,0.921875,2.9375,-1.734375
193,1727263431642,-0.18139648,-0.58135986,0.06390381,3.90625,6.859375,-5.296875
194,1727263431682,-0.21362305,-0.5281372,0.078308105,0.828125,24.46875,-3.1875
195,1727263431722,-0.15551758,-0.5125122,0.00970459,-1.609375,24.0,1.0625
196,1727263431762,-0.26489258,-0.72735596,0.02508545,-2.875,24.859375,3.6875
197,1727263431802,-0.4116211,-0.8027954,0.012634277,-1.484375,20.171875,-0.40625
198,1727263431842,-0.24926758,-0.7822876,0.11883545,3.75,15.890625,-2.453125
199,1727263431882,-0.4260254,-1.2454224,0.097595215,-13.0625,20.96875,-0.34375
200,1727263431922,-0.24584961,-0.9697876,0.04510498,1.703125,23.5,7.421875
201,1727263431962,-0.6616211,-0.7163696,0.37713623,3.796875,12.34375,-0.828125
202,1727263432002,-0.34204102,-0.82110596,0.28607178,-11.0625,22.46875,-6.109375
203,1727263432042,-0.29638672,-0.9199829,0.1329956,-13.34375,23.390625,6.09375
204,1727263432082,-0.26733398,-0.82476807,0.14447021,-0.390625,22.75,6.859375
205,1727263432122,-0.33544922,-1.144104,0.43084717,-5.828125,5.8125,4.0625
206,1727263432162,-0.43359375,-1.2432251,0.4557495,-16.03125,0.875,4.3125
207,1727263432202,-0.38671875,-1.3230591,0.28875732,-18.15625,11.703125,7.453125
208,1727263432242,-0.42163086,-1.1763306,-0.031799316,4.515625,27.234375,13.125
209,1727263432282,-0.07080078,-0.7996216,-0.1531372,1.796875,12.53125,-1.046875
210,1727263432322,0.015136719,-0.9793091,0.059753418,-3.71875,9.5625,-6.25
211,1727263432362,-0.49414062,-0.89190674,0.24041748,-8.796875,42.265625,-8.296875
212,1727263432402,-0.16552734,-0.88604736,0.012878418,2.078125,28.6875,-9.25
213,1727263432442,-0.05493164,-0.8796997,0.18914795,5.328125,30.5,-7.09375
214,1727263432482,-0.17626953,-0.8936157,0.14227295,1.84375,10.5625,-2.4375
215,1727263432522,-0.15283203,-0.925354,0.3085327,-1.5,23.75,-2.671875
216,1727263432562,-0.2487793,-1.0044556,0.26312256,4.34375,29.734375,0.265625
217,1727263432602,-0.1821289,-0.93878174,0.2243042,3.828125,25.9375,0.25
218,1727263432642,-0.15966797,-0.8826294,0.215271,13.0625,30.5,0.21875
219,1727263432682,-0.21069336,-0.8882446,0.21087646,15.515625,28.359375,0.5625
220,1727263432722,-0.19921875,-0.9595337,0.2741089,14.328125,25.828125,-0.34375
221,1727263432762,-0.2536621,-1.0188599,0.2982788,12.578125,25.859375,-4.75
222,1727263432802,-0.43774414,-1.1118774,0.39666748,13.0625,29.328125,-8.15625
223,1727263432842,-0.42529297,-1.2337036,0.07293701,-3.21875,28.015625,-22.53125
224,1727263432882,-0.14575195,-1.4754028,0.33880615,8.375,22.28125,-24.625
225,1727263432922,-0.30419922,-1.2752075,-0.07867432,-7.265625,38.03125,-7.6875
226,1727263432962,-0.036865234,-1.1033325,-0.2695923,11.984375,28.609375,-3.875
227,1727263433002,-0.30859375,-1.1929321,-0.039367676,-1.375,26.921875,-10.109375
228,1727263433042,-0.17529297,-1.010315,0.07147217,1.40625,14.53125,0.328125
229,1727263433082,-0.2331543,-0.8140259,-0.007873535,6.28125,20.25,8.453125
230,1727263433122,-0.2175293,-0.6465454,0.10369873,17.421875,19.15625,4.484375
231,1727263433162,-0.22729492,-0.5996704,0.10443115,10.171875,29.171875,1.421875
232,1727263433202,-0.16357422,-0.64385986,0.024353027,3.671875,15.796875,-2.625
233,1727263433242,-0.17114258,-0.73883057,0.04486084,-2.1875,6.921875,-2.296875
234,1727263433282,-0.2602539,-0.84576416,0.15423584,-1.4375,5.46875,-1.96875
235,1727263433322,-0.20263672,-0.95635986,0.07928467,-1.0,1.875,-1.0
236,1727263433362,-0.29467773,-0.9656372,0.08416748,4.65625,-4.609375,-1.234375
237,1727263433402,-0.2524414,-0.9702759,0.073913574,5.4375,-9.625,-0.859375
238,1727263433442,-0.33911133,-0.92681885,0.20819092,11.4375,-9.8125,0.84375
239,1727263433482,-0.31152344,-0.92974854,0.15179443,9.359375,-0.515625,2.03125
240,1727263433522,-0.2841797,-0.9378052,0.14715576,8.875,-5.1875,1.390625
241,1727263433562,-0.2697754,-1.0679321,0.1864624,1.15625,-10.390625,-3.984375
242,1727263433602,-0.5629883,-1.2901001,0.26605225,1.1875,-22.296875,-3.515625
243,1727263433642,-0.5595703,-1.6116333,0.1461792,-13.4375,-8.140625,-9.265625
244,1727263433682,-0.27441406,-1.6707153,0.11444092,-8.609375,6.9375,0.578125
245,1727263433722,0.064453125,-1.053772,0.018005371,-8.640625,7.6875,15.4375
246,1727263433762,-0.24609375,-0.60772705,-0.023986816,2.40625,-10.921875,10.078125
247,1727263433802,-0.13696289,-0.88116455,0.042907715,-14.46875,-6.96875,-10.796875
248,1727263433842,-0.052734375,-0.8460083,0.0060424805,-0.359375,-3.75,4.578125
249,1727263433882,-0.32885742,-0.81085205,0.14447021,-3.125,4.53125,-2.921875
250,1727263433922,-0.19262695,-0.7788696,0.006286621,-3.140625,5.0,-6.140625
251,1727263433962,-0.12915039,-0.8530884,0.1071167,-3.296875,-1.984375,-4.59375
252,1727263434002,-0.15844727,-0.85772705,0.14227295,-7.734375,-8.4375,-0.21875
253,1727263434042,-0.11401367,-0.77960205,0.1593628,1.875,-7.515625,5.21875
254,1727263434082,-0.3503418,-0.8320923,0.25213623,4.359375,6.640625,7.765625
255,1727263434122,-0.2722168,-0.81427,0.13421631,1.09375,3.96875,5.34375
256,1727263434162,-0.20996094,-0.927063,0.23040771,7.859375,3.484375,2.46875
257,1727263434202,-0.2590332,-0.9949341,0.29315186,9.890625,10.15625,6.078125
258,1727263434242,-0.24804688,-0.9182739,0.2489624,7.40625,10.734375,5.6875
259,1727263434282,-0.24975586,-0.928772,0.22528076,8.046875,14.125,3.328125
260,1727263434322,-0.32080078,-0.9661255,0.19329834,9.09375,18.75,1.625
261,1727263434362,-0.28955078,-1.138977,0.20526123,0.90625,19.703125,-4.46875
262,1727263434402,-0.24926758,-1.3286743,0.18939209,-7.84375,8.890625,-11.078125
263,1727263434442,-0.29907227,-1.4317017,0.20697021,5.734375,4.0625,-12.59375
264,1727263434482,-0.5288086,-1.4138794,0.003112793,0.390625,40.8125,-17.78125
265,1727263434522,-0.083496094,-1.0525513,-0.09552002,-0.921875,24.671875,-6.96875
266,1727263434562,-0.30908203,-1.1565552,-0.17803955,5.921875,28.234375,-1.140625
267,1727263434602,-0.31274414,-0.97784424,0.038757324,5.875,23.28125,-0.953125
268,1727263434642,-0.15283203,-0.8755493,-0.012268066,1.375,21.953125,3.796875
269,1727263434682,-0.24145508,-0.69195557,0.13616943,4.921875,12.75,4.40625
270,1727263434722,-0.22387695,-0.55718994,0.16229248,9.40625,24.609375,6.984375
271,1727263434762,-0.21899414,-0.5286255,0.06903076,10.0625,26.625,8.546875
272,1727263434802,-0.16137695,-0.611145,0.008972168,1.3125,25.75,-0.3125
273,1727263434842,-0.21411133,-0.80010986,0.014831543,6.53125,6.84375,2.015625
274,1727263434882,-0.2927246,-0.9480591,0.15911865,-1.546875,13.09375,0.46875
275,1727263434922,-0.35180664,-0.99176025,0.19769287,7.640625,13.484375,4.828125
276,1727263434962,-0.36621094,-0.973938,0.16766357,4.578125,20.5625,4.296875
277,1727263435002,-0.32470703,-0.9692993,0.15032959,7.421875,15.96875,3.75
278,1727263435042,-0.29370117,-1.0215454,0.1762085,6.34375,15.796875,5.40625
279,1727263435082,-0.42358398,-1.1238403,0.16790771,-0.53125,5.609375,1.34375
280,1727263435122,-0.65649414,-1.5371704,0.37591553,9.484375,13.3125,-3.34375
281,1727263435162,-0.28295898,-1.8574829,0.26019287,-20.0625,15.359375,-0.71875
282,1727263435202,-0.032470703,-1.2593384,-0.124816895,-9.375,43.734375,18.921875
283,1727263435242,-0.2524414,-0.8936157,-0.20831299,4.359375,18.546875,1.84375
284,1727263435282,-0.14111328,-1.0491333,0.16253662,0.953125,20.796875,-9.5625
285,1727263435322,-0.057617188,-0.83380127,-0.020080566,-8.625,33.78125,-8.625
286,1727263435362,-0.020019531,-0.70196533,0.10223389,-4.21875,17.640625,-4.40625
287,1727263435402,-0.14233398,-0.60650635,0.14666748,-11.328125,33.203125,-10.21875
288,1727263435442,-0.119384766,-0.45220947,0.031188965,-8.15625,30.171875,-4.734375
289,1727263435482,-0.025634766,-0.5496216,0.019714355,-10.890625,21.265625,-14.359375
290,1727263435522,0.060302734,-0.88165283,0.27215576,-6.28125,6.984375,-4.09375
291,1727263435562,-0.17700195,-0.7925415,0.35247803,-6.140625,11.890625,0.515625
292,1727263435602,-0.38598633,-0.85479736,0.16546631,3.328125,10.15625,-1.671875
293,1727263435642,-0.19458008,-1.2210083,0.16571045,0.46875,4.125,-19.5625
294,1727263435682,-0.0014648438,-0.9854126,0.5634155,8.171875,-7.21875,8.84375
295,1727263435722,-0.53100586,-0.7390747,0.33148193,-1.40625,5.890625,4.9375
296,1727263435762,-0.36767578,-0.59576416,0.1486206,18.40625,12.1875,-7.984375
297,1727263435802,-0.21899414,-1.0325317,0.29266357,17.046875,9.765625,-13.3125
298,1727263435842,-0.26660156,-1.0254517,0.39886475,5.546875,26.34375,-7.015625
299,1727263435882,-0.5,-1.0413208,0.44525146,5.46875,30.75,-8.96875
300,1727263435922,-0.5942383,-1.1734009,0.4039917,-3.90625,38.234375,-20.234375
301,1727263435962,-0.4194336,-1.2820435,0.13226318,-11.5625,23.953125,-27.375
302,1727263436002,-0.31420898,-1.3547974,-0.18218994,1.65625,39.796875,-10.984375
303,1727263436042,-0.2644043,-0.7737427,-0.15582275,21.46875,53.328125,4.890625
304,1727263436082,-0.09057617,-0.6873169,-0.03741455,13.1875,21.921875,-3.90625
305,1727263436122,-0.28149414,-0.9470825,0.13861084,6.65625,27.75,-2.4375
306,1727263436162,-0.48388672,-0.942688,0.10076904,11.609375,29.296875,-2.375
307,1727263436202,-0.34179688,-0.8953247,0.13739014,9.875,30.5,-2.15625
308,1727263436242,-0.17919922,-0.9446411,0.10394287,6.78125,28.5625,-1.921875
309,1727263436282,-0.17797852,-0.8904419,0.15350342,12.4375,22.609375,4.9375
310,1727263436322,-0.2644043,-0.8545532,0.086364746,10.828125,18.515625,7.234375
311,1727263436362,-0.24609375,-0.87823486,0.17572021,6.328125,0.109375,3.34375
312,1727263436402,-0.34570312,-0.93707275,0.27435303,7.953125,-6.828125,6.546875
313,1727263436442,-0.41259766,-0.9898071,0.2748413,7.625,-4.859375,7.3125
314,1727263436482,-0.34570312,-0.9614868,0.33221436,5.125,-4.84375,5.859375
315,1727263436522,-0.28564453,-0.9475708,0.18963623,0.953125,0.15625,5.828125
316,1727263436562,-0.28735352,-0.91607666,0.21307373,3.078125,-12.546875,4.421875
317,1727263436602,-0.44311523,-1.138977,0.32855225,6.359375,-20.8125,1.375
318,1727263436642,-0.6052246,-1.3584595,0.15814209,-9.65625,-15.234375,-0.90625
319,1727263436682,-0.31298828,-1.7285767,0.23577881,-12.34375,-4.96875,-14.46875
320,1727263436722,-0.115722656,-1.4307251,0.078552246,-18.5625,9.65625,0.734375
321,1727263436762,-0.0546875,-0.9224243,-0.16265869,-4.890625,12.078125,1.21875
322,1727263436802,-0.040039062,-1.190979,-0.027160645,-6.125,-14.28125,-9.140625
323,1727263436842,-0.23950195,-0.9998169,0.18060303,5.359375,-3.46875,5.203125
324,1727263436882,-0.15649414,-0.75665283,0.05731201,5.671875,33.953125,5.140625
325,1727263436922,-0.05810547,-0.5274048,-0.117492676,4.796875,14.0,-4.578125
326,1727263436962,-0.12939453,-0.38165283,0.04071045,5.484375,-8.40625,-1.4375
327,1727263437002,-0.16137695,-0.5039673,0.039245605,2.734375,5.328125,-2.59375
328,1727263437042,-0.06933594,-0.7070923,0.24847412,4.078125,-5.390625,-1.125
329,1727263437082,-0.16748047,-0.9216919,0.3493042,7.328125,-3.9375,6.125
330,1727263437122,-0.4506836,-0.98638916,0.0036010742,5.890625,8.609375,0.15625
331,1727263437162,0.076660156,-1.3467407,0.19671631,3.046875,-11.453125,-11.046875
332,1727263437202,-0.28930664,-1.0247192,0.24456787,16.375,13.046875,27.265625
333,1727263437242,-0.33007812,-0.68536377,0.19500732,5.59375,-4.03125,4.0625
334,1727263437282,-0.4584961,-1.0596313,0.34246826,-2.6875,-3.703125,-8.8125
335,1727263437322,-0.32641602,-1.2305298,-0.0791626,-13.203125,5.65625,-23.03125
336,1727263437362,-0.25610352,-1.9002075,0.3505249,6.390625,-15.96875,-17.46875
337,1727263437402,-0.44091797,-1.4751587,-0.19073486,-6.046875,36.796875,6.65625
338,1727263437442,-0.27294922,-0.9663696,-0.19537354,5.75,19.640625,-1.421875
339,1727263437482,-0.26538086,-1.2085571,-0.026428223,4.375,30.65625,2.0625
340,1727263437522,-0.23583984,-0.86065674,0.117614746,4.203125,33.171875,8.78125
341,1727263437562,-0.17138672,-0.5479126,-0.02154541,5.359375,32.765625,15.1875
342,1727263437602,-0.18701172,-0.44000244,0.09222412,4.34375,18.796875,10.296875
343,1727263437642,-0.16381836,-0.40655518,0.005554199,0.578125,23.859375,3.171875
344,1727263437682,-0.04248047,-0.5960083,0.00970459,-3.75,18.453125,-5.453125
345,1727263437722,-0.18847656,-0.8101196,0.08294678,-0.84375,-4.15625,-4.171875
346,1727263437762,-0.2878418,-0.98101807,0.25897217,1.796875,-22.078125,-8.4375
347,1727263437802,-0.30737305,-0.9483032,0.09320068,4.9375,17.328125,6.765625
348,1727263437842,-0.38208008,-1.0994263,0.051696777,3.84375,-18.71875,-2.25
349,1727263437882,-0.32006836,-1.1113892,0.23236084,11.59375,0.59375,-0.921875
350,1727263437922,-0.28588867,-1.0498657,0.1786499,8.625,-6.125,1.59375
351,1727263437962,-0.33154297,-1.2398071,0.25775146,-11.578125,-23.796875,-0.546875
352,1727263438002,-0.4736328,-1.6343384,-0.0015258789,-15.421875,-2.65625,0.40625
353,1727263438042,-0.011962891,-1.5396118,0.1486206,-18.171875,-21.1875,-13.09375
354,1727263438082,0.119140625,-1.1912231,0.12664795,-8.53125,9.53125,12.125
355,1727263438122,-0.25219727,-1.0037231,-0.1885376,-5.09375,-26.640625,6.609375
356,1727263438162,-0.3244629,-0.9710083,0.26800537,6.90625,-25.984375,0.0625
357,1727263438202,-0.1616211,-0.7654419,0.015808105,-10.078125,10.9375,1.09375
358,1727263438242,0.059326172,-0.5303345,0.0211792,-4.21875,-11.0,-4.09375
359,1727263438282,-0.03491211,-0.48931885,0.0914917,5.84375,-8.09375,2.390625
360,1727263438322,-0.16455078,-0.47320557,0.10858154,-4.890625,-2.984375,-6.734375
361,1727263438362,-0.14477539,-0.7698364,0.16888428,-13.53125,-12.25,-11.984375
362,1727263438402,-0.2619629,-0.9434204,0.27752686,-8.75,-42.203125,-7.296875
363,1727263438442,-0.36157227,-0.8484497,0.2020874,0.140625,-12.0,4.15625
364,1727263438482,-0.45361328,-1.0325317,0.109558105,7.28125,6.9375,-6.078125
365,1727263438522,0.00024414062,-1.2996216,0.27459717,-6.3125,-3.234375,-11.625
366,1727263438562,-0.27661133,-0.8652954,0.2633667,5.90625,4.15625,15.578125
367,1727263438602,-0.5187988,-0.88604736,0.2243042,7.90625,10.21875,2.859375
368,1727263438642,-0.48901367,-1.1306763,0.30316162,3.6875,5.0625,-11.140625
369,1727263438682,-0.24780273,-1.4238892,0.16082764,-4.640625,2.875,-18.359375
370,1727263438722,-0.099121094,-1.7102661,0.039245605,14.640625,11.78125,-4.515625
371,1727263438762,-0.6765137,-1.2451782,-0.062561035,10.40625,39.359375,6.3125
372,1727263438802,-0.15893555,-0.94732666,-0.1885376,-2.09375,27.90625,-2.984375
373,1727263438842,-0.09790039,-1.1460571,-0.06451416,-3.28125,14.28125,7.984375
374,1727263438882,-0.28271484,-0.8604126,0.034851074,-0.46875,13.828125,11.875
375,1727263438922,-0.19067383,-0.6651001,0.09539795,-2.890625,7.375,12.546875
376,1727263438962,-0.06567383,-0.456604,0.16253662,2.5625,9.0625,16.546875
377,1727263439002,-0.16796875,-0.44561768,0.059753418,3.3125,6.671875,16.890625
378,1727263439042,-0.1081543,-0.58551025,-0.094055176,-14.359375,4.03125,-5.4375
379,1727263439082,-0.23779297,-0.9180298,0.04949951,6.234375,-28.75,-2.0625
380,1727263439122,-0.31835938,-1.0547485,0.24456787,-3.65625,-6.203125,-5.0625
381,1727263439162,-0.2631836,-0.9968872,0.08758545,2.625,0.328125,-1.34375
382,1727263439202,-0.35131836,-0.9505005,0.24090576,11.46875,2.421875,1.015625
383,1727263439242,-0.28735352,-0.90997314,0.15814209,1.75,7.890625,-1.65625
384,1727263439282,-0.31420898,-0.8699341,0.1552124,4.546875,8.40625,3.796875
385,1727263439322,-0.31103516,-0.98516846,0.16497803,2.921875,-4.90625,-0.171875
386,1727263439362,-0.24389648,-1.1577759,0.13812256,5.453125,-8.265625,-0.140625
387,1727263439402,-0.54345703,-1.4448853,0.21063232,0.765625,-6.984375,-1.265625
388,1727263439442,-0.37646484,-1.7398071,0.06341553,-17.15625,-9.25,-10.46875
389,1727263439482,0.16674805,-1.604065,-0.02911377,-21.828125,3.40625,-11.21875
390,1727263439522,0.115478516,-1.1690063,0.04901123,-11.4375,-30.59375,4.125
391,1727263439562,-0.3713379,-0.99346924,0.2267456,1.109375,-25.96875,7.765625
392,1727263439602,-0.2685547,-0.847229,0.04095459,-18.390625,0.625,-11.9375
393,1727263439642,-0.13232422,-0.7642212,0.13665771,-7.28125,5.796875,-3.515625
394,1727263439682,-0.017089844,-0.49517822,0.070739746,-8.90625,-4.53125,-0.34375
395,1727263439722,-0.1340332,-0.39239502,0.06365967,0.703125,-13.671875,1.796875
396,1727263439762,-0.078125,-0.37506104,0.030700684,6.203125,-12.171875,1.0625
397,1727263439802,-0.21606445,-0.6621704,0.11077881,2.65625,-12.0625,1.28125
398,1727263439842,-0.25048828,-0.97735596,0.27044678,-1.578125,-9.9375,-4.609375
399,1727263439882,-0.2019043,-1.173645,0.34075928,-1.578125,-7.453125,1.125
400,1727263439922,-0.36010742,-0.9492798,0.19671631,4.921875,1.765625,7.078125
401,1727263439962,-0.4326172,-0.9536743,0.28070068,10.359375,11.21875,-2.0625
402,1727263440002,-0.3076172,-1.145813,0.340271,5.828125,5.984375,-3.59375
403,1727263440042,-0.52246094,-1.0982056,0.22943115,0.75,16.25,-6.625
404,1727263440082,-0.25805664,-1.3601685,0.08099365,-1.453125,4.453125,-25.0625
405,1727263440122,-0.3881836,-1.947815,0.28118896,-0.21875,22.5,-18.640625
406,1727263440162,-0.32299805,-1.1199341,-0.18414307,6.4375,44.171875,7.25
407,1727263440202,-0.30419922,-1.0396118,-0.06402588,0.78125,24.8125,3.6875
408,1727263440242,-0.22070312,-1.1021118,0.016296387,1.328125,31.125,5.53125
409,1727263440282,-0.13769531,-0.8718872,0.023864746,-6.453125,17.15625,11.109375
410,1727263440322,-0.15405273,-0.48883057,0.050476074,-9.375,-7.640625,24.6875
411,1727263440362,-0.056640625,-0.27545166,0.14056396,-11.703125,27.25,12.6875
412,1727263440402,0.06640625,-0.37091064,-0.049621582,24.796875,21.5625,22.34375
413,1727263440442,-0.48828125,-0.52349854,0.05706787,22.609375,-17.40625,8.59375
414,1727263440482,-0.21435547,-0.9290161,0.29779053,-10.765625,-9.9375,-24.71875
415,1727263440522,-0.25878906,-1.2876587,0.0848999,-5.3125,-1.984375,-7.15625
416,1727263440562,-0.32470703,-0.9336548,0.24749756,7.8125,2.828125,3.3125
417,1727263440602,-0.16503906,-0.97784424,0.08758545,-2.515625,1.484375,-1.390625
418,1727263440642,-0.2783203,-1.0183716,0.20428467,6.34375,-10.609375,2.796875
419,1727263440682,-0.42797852,-0.9805298,0.26971436,8.328125,-6.984375,2.375
420,1727263440722,-0.2578125,-1.1692505,0.14300537,-10.78125,-18.359375,-2.1875
421,1727263440762,-0.8239746,-1.7661743,0.24334717,-20.21875,-12.03125,-8.5625
422,1727263440802,0.014404297,-1.5855103,-0.14239502,-29.59375,-6.9375,-18.515625
423,1727263440842,0.5373535,-1.4417114,0.35614014,-13.40625,-60.203125,0.546875
424,1727263440882,-0.48754883,-1.1333618,0.028259277,-4.296875,3.21875,22.46875
425,1727263440922,-0.38989258,-0.7136841,-0.054992676,9.984375,4.96875,12.09375
426,1727263440962,-0.20800781,-0.8357544,0.26605225,-5.765625,5.515625,-10.640625
427,1727263441002,-0.08325195,-0.56329346,-0.020324707,-4.5625,-0.703125,-8.6875
428,1727263441042,-0.09472656,-0.25689697,0.090026855,6.8125,10.28125,-1.6875
429,1727263441082,-0.13134766,-0.548645,0.09857178,8.71875,4.953125,-6.8125
430,1727263441122,-0.01977539,-0.76885986,0.21917725,5.15625,-10.703125,2.296875
431,1727263441162,-0.24731445,-0.9038696,0.24505615,0.9375,-8.421875,8.59375
432,1727263441202,-0.27661133,-0.9495239,0.21038818,5.203125,-8.328125,2.3125
433,1727263441242,-0.3479004,-0.9644165,0.17449951,12.546875,5.28125,3.9375
434,1727263441282,-0.07324219,-1.1897583,0.23382568,16.515625,-5.796875,2.421875
435,1727263441322,-0.30419922,-0.9944458,0.3060913,18.421875,9.453125,20.3125
436,1727263441362,-0.38208008,-0.803772,0.10028076,19.6875,7.0,10.65625
437,1727263441402,-0.35473633,-1.123352,0.20794678,5.6875,5.5,-4.46875
438,1727263441442,-0.40722656,-1.2683716,-0.05206299,1.75,18.84375,-5.9375
439,1727263441482,-0.3605957,-1.6243286,-0.039123535,1.421875,0.78125,-34.890625
440,1727263441522,-0.22363281,-1.7197876,0.10296631,-9.109375,41.296875,-2.953125
441,1727263441562,-0.30541992,-0.9536743,-0.26153564,8.421875,77.96875,21.203125
442,1727263441602,-0.22265625,-1.2192993,-0.1585083,-21.359375,7.390625,-15.984375
443,1727263441642,-0.12915039,-0.86309814,0.10272217,-3.1875,33.90625,9.765625
444,1727263441682,-0.10839844,-0.6174927,0.027770996,-19.453125,34.75,-5.375
445,1727263441722,-0.046142578,-0.5059204,0.08514404,-10.4375,5.453125,1.46875
446,1727263441762,-0.08251953,-0.49273682,0.1696167,5.796875,0.515625,7.765625
447,1727263441802,-0.1184082,-0.5269165,0.07904053,-1.03125,-0.328125,-2.71875
448,1727263441842,-0.111572266,-0.7527466,0.02557373,-7.515625,-1.625,-3.828125
449,1727263441882,-0.31958008,-0.9495239,0.090026855,-2.4375,-18.828125,-5.484375
450,1727263441922,-0.39404297,-1.0630493,0.25238037,3.703125,-12.421875,-1.234375
451,1727263441962,-0.43481445,-0.9522095,0.28094482,8.359375,-0.40625,1.421875
452,1727263442002,-0.3071289,-0.9541626,0.2531128,7.4375,5.828125,3.125
453,1727263442042,-0.24682617,-0.8616333,0.17376709,6.984375,-0.046875,7.890625
454,1727263442082,-0.25268555,-0.94244385,0.14788818,5.71875,-2.484375,5.5625
455,1727263442122,-0.32470703,-0.92681885,0.2518921,10.421875,-8.484375,7.234375
456,1727263442162,-0.42358398,-0.99591064,0.33636475,12.65625,-4.203125,8.5
457,1727263442202,-0.57714844,-1.1072388,0.27972412,5.625,8.375,7.40625
458,1727263442242,-0.47753906,-1.3467407,0.03729248,4.34375,10.96875,3.609375
459,1727263442282,-0.18334961,-1.867981,0.27874756,-10.90625,-21.859375,-7.625
460,1727263442322,-0.33374023,-1.3169556,-0.20684814,-4.625,35.765625,18.265625
461,1727263442362,0.0031738281,-1.0361938,-0.46759033,-4.609375,25.859375,0.765625
462,1727263442402,-0.13354492,-1.0908813,0.020935059,3.703125,6.953125,-1.765625
463,1727263442442,-0.24438477,-0.8213501,-0.06402588,-6.546875,29.6875,-5.46875
464,1727263442482,-0.044189453,-0.7781372,0.046569824,-21.046875,26.015625,-16.046875
465,1727263442522,-0.14160156,-0.7334595,0.15667725,-24.375,41.4375,-15.046875
466,1727263442562,-0.12841797,-0.64630127,-0.016906738,-13.984375,29.75,-8.90625
467,1727263442602,-0.16235352,-0.64385986,0.043884277,-7.3125,32.53125,-5.65625
468,1727263442642,-0.19311523,-0.7852173,0.137146,-6.84375,27.96875,-9.828125
469,1727263442682,-0.19091797,-0.8557739,0.14837646,-8.625,27.0625,-8.75
470,1727263442722,-0.18310547,-0.8845825,0.22723389,-5.265625,36.875,-3.78125
471,1727263442762,-0.30029297,-0.93096924,0.22454834,0.40625,38.28125,-2.8125
472,1727263442802,-0.3239746,-0.9053345,0.25115967,5.859375,39.59375,-5.984375
473,1727263442842,-0.19116211,-0.8855591,0.2633667,9.34375,47.578125,-5.046875
474,1727263442882,-0.2607422,-0.9356079,0.26434326,9.078125,42.3125,-3.71875
475,1727263442922,-0.2524414,-0.923645,0.32147217,9.203125,42.328125,-4.765625
476,1727263442962,-0.23046875,-0.88653564,0.30438232,13.875,43.71875,-3.40625
477,1727263443002,-0.3125,-0.88604736,0.25213623,19.953125,38.765625,-3.265625
478,1727263443042,-0.19580078,-0.86065674,0.2670288,16.71875,33.359375,-10.015625
479,1727263443082,-0.22290039,-0.9492798,0.27825928,14.890625,31.8125,-6.578125
480,1727263443122,-0.3618164,-0.99298096,0.37713623,18.84375,30.640625,-6.609375
481,1727263443162,-0.4350586,-1.0046997,0.3847046,18.78125,37.28125,-5.0
482,1727263443202,-0.3395996,-1.12677,0.38128662,24.421875,33.296875,-10.40625
483,1727263443242,-0.2836914,-1.2749634,0.28851318,19.90625,27.484375,-11.84375
484,1727263443282,-0.40795898,-1.3931274,0.26898193,23.59375,33.40625,-11.21875
485,1727263443322,-0.14672852,-1.1704712,0.01727295,-13.28125,23.75,-16.78125
486,1727263443362,-0.17163086,-1.3728638,-0.0960083,-24.4375,19.28125,-21.75
487,1727263443402,-0.31689453,-1.3237915,-0.30108643,-1.96875,42.03125,-2.078125
488,1727263443442,-0.18945312,-1.1602173,-0.36968994,-6.15625,2.375,-15.875
489,1727263443482,-0.034179688,-0.9480591,-0.0413208,18.5625,-8.21875,5.375
490,1727263443522,-0.2541504,-0.5449829,0.11590576,25.828125,3.625,15.578125
491,1727263443562,-0.13256836,-0.4993286,0.06829834,3.484375,19.34375,4.515625
492,1727263443602,-0.15429688,-0.4685669,-0.0071411133,17.0,16.453125,10.203125
493,1727263443642,-0.122802734,-0.57354736,0.012878418,3.546875,9.578125,0.59375
494,1727263443682,-0.15429688,-0.83380127,-0.062561035,-2.359375,-5.28125,-9.8125
495,1727263443722,-0.33984375,-1.112854,0.020446777,0.46875,-28.734375,-2.53125
496,1727263443762,-0.4494629,-0.9146118,0.15301514,16.078125,-2.125,8.6875
497,1727263443802,-0.1105957,-0.7078247,0.05340576,-3.59375,12.03125,-8.96875
498,1727263443842,-0.049072266,-1.1680298,-0.10601807,-18.53125,-26.328125,-6.140625
499,1727263443882,-0.45385742,-1.0603638,0.051940918,18.234375,-43.515625,9.453125
500,1727263443922,-0.53100586,-0.97613525,0.19036865,29.34375,-17.59375,13.5625
501,1727263443962,-0.37768555,-0.85357666,0.14544678,-8.46875,-7.046875,-8.21875
502,1727263444002,-0.20507812,-0.9973755,0.06365967,-1.90625,4.6875,4.109375
503,1727263444042,-0.45751953,-0.9783325,-0.047912598,9.421875,-14.640625,10.140625
504,1727263444082,-0.4699707,-1.3345337,0.16400146,-10.8125,-27.453125,-8.59375
505,1727263444122,-0.5671387,-1.7783813,-0.19195557,-32.265625,14.09375,-14.75
506,1727263444162,0.16503906,-1.7300415,0.06732178,-22.171875,-26.25,-18.46875
507,1727263444202,-0.36206055,-1.1226196,0.19915771,-6.21875,17.359375,33.21875
508,1727263444242,-0.37719727,-0.8701782,-0.27960205,-35.765625,-9.328125,-2.375
509,1727263444282,-0.29882812,-0.84869385,-0.020324707,-10.609375,15.53125,1.90625
510,1727263444322,-0.23901367,-0.7949829,0.081970215,-7.65625,17.515625,-3.40625
511,1727263444362,-0.10498047,-0.6358032,0.12640381,-7.90625,29.265625,-5.25
512,1727263444402,0.06738281,-0.4277954,-0.054992676,-1.5,19.328125,3.359375
513,1727263444442,-0.0546875,-0.5845337,0.215271,1.859375,5.90625,1.984375
514,1727263444482,-0.0859375,-0.7295532,0.13079834,-10.546875,-3.15625,-1.046875
515,1727263444522,-0.08862305,-0.9678345,0.2929077,-6.375,-7.46875,4.90625
516,1727263444562,-0.19604492,-0.90582275,0.30706787,-9.796875,-6.28125,5.171875
517,1727263444602,-0.3828125,-0.80059814,0.08026123,-6.796875,-1.546875,4.03125
518,1727263444642,-0.21044922,-1.211731,0.26312256,5.3125,-2.734375,-11.203125
519,1727263444682,-0.118652344,-1.020813,0.32147217,9.59375,-2.859375,12.09375
520,1727263444722,-0.31152344,-0.72052,0.24871826,13.484375,2.671875,11.046875
521,1727263444762,-0.41235352,-0.9216919,0.33270264,7.484375,1.0,-6.21875
522,1727263444802,-0.28466797,-1.0737915,0.31048584,10.296875,7.59375,-2.46875
523,1727263444842,-0.29736328,-1.1670532,0.11956787,10.484375,-5.125,-11.65625
524,1727263444882,-0.07080078,-1.2698364,0.08465576,2.90625,-17.8125,-17.578125
525,1727263444922,-0.7717285,-1.7561646,0.3192749,4.15625,12.515625,-10.421875
526,1727263444962,-0.19946289,-1.079895,-0.26837158,7.0,28.5,-4.0625
527,1727263445002,-0.2536621,-1.2820435,-0.14727783,0.484375,9.375,-9.109375
528,1727263445042,-0.21118164,-1.1548462,-0.0064086914,6.09375,17.796875,1.78125
529,1727263445082,-0.17651367,-0.9216919,0.050720215,7.015625,5.6875,9.015625
530,1727263445122,-0.15649414,-0.7593384,0.020935059,-5.828125,15.171875,3.1875
531,1727263445162,-0.17382812,-0.5005493,0.046569824,3.234375,-2.921875,2.375
532,1727263445202,-0.23535156,-0.45684814,0.21917725,7.140625,14.21875,4.953125
533,1727263445242,-0.22045898,-0.5755005,0.02508545,3.265625,18.796875,2.390625
534,1727263445282,-0.28857422,-0.65093994,0.07513428,4.25,4.71875,-0.1875
535,1727263445322,-0.27612305,-0.84210205,-0.02545166,-8.484375,7.71875,-11.171875
536,1727263445362,-0.27954102,-1.0859985,0.0053100586,-3.421875,-12.671875,-7.3125
537,1727263445402,-0.38305664,-1.1008911,0.10345459,10.171875,-4.625,2.875
538,1727263445442,-0.4206543,-1.039856,0.20428467,7.75,12.609375,-0.53125
539,1727263445482,-0.33520508,-0.9024048,0.18206787,0.453125,13.3125,3.71875
540,1727263445522,-0.29516602,-0.8867798,0.13323975,-10.265625,12.171875,1.515625
541,1727263445562,-0.31958008,-0.9595337,-0.0056762695,-3.3125,5.84375,0.484375
542,1727263445602,-0.2680664,-0.90826416,0.2453003,-0.640625,-6.78125,4.0
543,1727263445642,-0.3857422,-0.82940674,0.11785889,-7.0,7.0,6.71875
544,1727263445682,-0.44140625,-0.8587036,0.16766357,5.359375,-3.125,3.640625
545,1727263445722,-0.37304688,-0.8804321,0.29486084,5.125,12.328125,10.5
546,1727263445762,-0.5390625,-1.0601196,0.042175293,7.25,16.71875,7.453125
547,1727263445802,-0.4025879,-1.3626099,0.25872803,-2.71875,-5.96875,-10.90625
548,1727263445842,-0.48120117,-1.5689087,0.40960693,-2.734375,19.015625,7.375
549,1727263445882,-0.16870117,-1.284729,-0.3032837,-0.015625,57.5625,18.171875
550,1727263445922,0.05810547,-1.4006958,0.042907715,-46.125,-8.5625,-29.53125
551,1727263445962,-0.25585938,-1.0640259,-0.1296997,1.359375,36.234375,1.828125
552,1727263446002,-0.22290039,-0.9229126,-0.08380127,-3.015625,35.96875,-11.140625
553,1727263446042,-0.026855469,-0.94659424,0.15032959,-16.203125,32.828125,-25.1875
554,1727263446082,-0.107177734,-0.87945557,0.16448975,-9.4375,33.109375,-7.796875
555,1727263446122,-0.17993164,-0.7756958,0.09906006,-8.859375,27.734375,-7.34375
556,1727263446162,-0.13647461,-0.6721802,0.20159912,-8.90625,25.78125,-7.40625
557,1727263446202,-0.35986328,-0.6074829,0.13641357,-7.90625,51.671875,-2.3125
558,1727263446242,-0.08129883,-0.72613525,0.11517334,-6.4375,31.8125,-21.40625
559,1727263446282,-0.014892578,-1.1189575,0.29486084,4.796875,27.03125,-11.0
560,1727263446322,-0.265625,-0.9483032,0.45599365,3.09375,31.0,4.671875
561,1727263446362,-0.33251953,-0.87945557,0.37469482,-11.421875,30.890625,-0.171875
562,1727263446402,-0.22338867,-0.8164673,0.23553467,-4.734375,29.140625,-4.09375
563,1727263446442,-0.35620117,-0.8286743,0.37908936,1.8125,30.78125,-6.265625
564,1727263446482,-0.2915039,-0.85528564,0.3998413,-0.328125,36.90625,-8.203125
565,1727263446522,-0.33813477,-0.93707275,0.42474365,3.265625,39.765625,-7.828125
566,1727263446562,-0.27368164,-0.82891846,0.44403076,10.203125,39.6875,-6.15625
567,1727263446602,-0.24267578,-0.85943604,0.34979248,7.890625,33.28125,-8.625
568,1727263446642,-0.2602539,-0.8377075,0.37225342,7.171875,32.21875,-10.3125
569,1727263446682,-0.21362305,-0.8533325,0.42669678,6.546875,24.734375,-12.328125
570,1727263446722,-0.21118164,-0.8245239,0.4508667,11.65625,22.359375,-7.421875
571,1727263446762,-0.24536133,-0.9194946,0.42596436,15.234375,22.9375,-5.234375
572,1727263446802,-0.39770508,-0.95880127,0.48773193,17.578125,28.140625,-2.34375
573,1727263446842,-0.4165039,-0.9915161,0.30511475,22.609375,23.046875,-7.46875
574,1727263446882,-0.21923828,-1.534729,0.48284912,30.234375,12.328125,-19.859375
575,1727263446922,-0.23730469,-1.5957642,0.51483154,13.9375,11.453125,-6.59375
576,1727263446962,-0.29785156,-1.0547485,0.20135498,2.0625,-5.578125,-9.1875
577,1727263447002,-0.2397461,-0.93170166,-0.035217285,-1.953125,-1.5625,-10.53125
578,1727263447042,-0.18334961,-1.2190552,0.02142334,0.453125,28.390625,-16.3125
579,1727263447082,-0.25048828,-1.053772,-0.03741455,5.15625,25.828125,-11.484375
580,1727263447122,-0.22387695,-0.9500122,0.08343506,8.40625,8.65625,-9.34375
581,1727263447162,-0.114746094,-0.7798462,0.12420654,15.953125,-3.078125,-5.65625
582,1727263447202,-0.25317383,-0.6633911,0.16595459,20.59375,8.203125,0.0
583,1727263447242,-0.14257812,-0.6091919,0.070739746,2.96875,16.4375,4.234375
584,1727263447282,-0.1262207,-0.67803955,0.034118652,1.890625,11.84375,5.0625
585,1727263447322,-0.25854492,-0.7781372,0.19256592,7.5,3.953125,5.9375
586,1727263447362,-0.39892578,-0.90460205,0.13153076,12.328125,1.84375,4.484375
587,1727263447402,-0.28881836,-0.9570923,0.14666748,24.1875,-0.84375,5.25
588,1727263447442,-0.17114258,-0.7949829,-0.028869629,20.84375,-6.0,8.09375
589,1727263447482,-0.20922852,-1.078186,0.008728027,18.921875,-14.046875,-13.4375
590,1727263447522,-0.46166992,-1.1619263,0.097351074,15.453125,-9.765625,-0.4375
591,1727263447562,-0.4074707,-0.9573364,0.054870605,29.390625,-17.296875,18.609375
592,1727263447602,-0.34594727,-0.85040283,0.066101074,20.21875,-12.875,11.546875
593,1727263447642,-0.36035156,-1.0039673,0.028747559,15.5625,-3.546875,7.21875
594,1727263447682,-0.2878418,-1.1575317,0.042419434,-19.203125,12.21875,4.90625
595,1727263447722,-0.24829102,-1.3359985,-0.17926025,-32.765625,4.234375,5.34375
596,1727263447762,-0.30444336,-1.6511841,0.19940186,-24.5,19.84375,10.390625
597,1727263447802,-0.26220703,-1.2000122,-0.11773682,-7.859375,-2.90625,9.671875
598,1727263447842,0.17211914,-0.92803955,-0.15460205,34.671875,7.984375,16.84375
599,1727263447882,-0.055664062,-0.9417114,-0.06915283,46.765625,32.96875,1.75
600,1727263447922,-0.0925293,-1.05719,-0.097473145,47.203125,17.28125,-6.125
601,1727263447962,-0.07421875,-0.75738525,-0.28497314,73.625,2.140625,-0.71875
602,1727263448002,0.013671875,-0.78204346,-0.25787354,96.40625,-2.328125,18.1875
603,1727263448042,0.01953125,-0.4788208,0.0079956055,19.703125,2.84375,18.265625
604,1727263448082,-0.17163086,-0.6304321,-0.18389893,-12.875,-9.96875,-0.203125
605,1727263448122,-0.10424805,-0.6687622,-0.1675415,-18.90625,-5.140625,-8.140625
606,1727263448162,-0.12890625,-0.90997314,-0.300354,0.484375,-0.625,-10.03125
607,1727263448202,-0.14575195,-1.0317993,-0.049621582,-56.21875,12.40625,-6.765625
608,1727263448242,-0.23754883,-1.0484009,-0.034484863,-143.1875,12.859375,-13.28125
609,1727263448282,-0.083740234,-0.95391846,-0.11407471,-99.96875,18.8125,-3.59375
610,1727263448322,-0.08544922,-0.69244385,0.03778076,-28.1875,6.46875,1.078125
611,1727263448362,-0.20410156,-0.9439087,0.20355225,-4.3125,2.359375,-4.015625
612,1727263448402,-0.1784668,-1.1445923,0.26727295,-8.171875,1.71875,-10.625
613,1727263448442,-0.23461914,-1.2608032,0.20184326,-5.140625,3.796875,-15.703125
614,1727263448482,-0.34057617,-1.6548462,0.28631592,-15.515625,-6.359375,-24.375
615,1727263448522,-0.63623047,-1.4551392,0.0099487305,2.75,14.09375,-9.640625
616,1727263448562,0.025146484,-0.9837036,-0.26763916,-2.734375,8.8125,-8.265625
617,1727263448602,-0.1303711,-1.0769653,-0.23028564,39.703125,-0.265625,-8.265625
618,1727263448642,-0.375,-0.99053955,0.030212402,7.34375,6.6875,-0.328125
619,1727263448682,-0.24194336,-0.84381104,0.048034668,0.6875,-28.96875,-2.0
620,1727263448722,-0.23144531,-0.6758423,0.21795654,2.65625,-4.5625,-0.375
621,1727263448762,-0.19873047,-0.5039673,-0.016662598,-6.1875,-12.703125,-0.046875
622,1727263448802,-0.23901367,-0.53326416,-0.074035645,-6.203125,-8.796875,4.84375
623,1727263448842,-0.31152344,-0.6987915,-0.028869629,-19.734375,-48.03125,2.609375
624,1727263448882,-0.21386719,-0.8648071,0.08123779,16.65625,-20.640625,-3.671875
625,1727263448922,-0.40014648,-1.0747681,0.121032715,15.625,-0.265625,5.015625
626,1727263448962,-0.40576172,-1.0171509,0.04559326,22.78125,6.78125,9.71875
627,1727263449002,-0.33544922,-0.8562622,-0.046203613,28.828125,4.921875,12.109375
628,1727263449042,-0.2998047,-0.866272,-0.070373535,26.640625,2.078125,9.546875
629,1727263449082,-0.35327148,-1.0869751,-0.09454346,7.65625,3.765625,9.265625
630,1727263449122,-0.2475586,-1.2525024,-0.09259033,14.78125,12.796875,10.453125
631,1727263449162,-0.33325195,-1.302063,-0.26470947,11.40625,35.125,20.515625
632,1727263449202,-0.25024414,-1.5237427,-0.38043213,-3.703125,2.796875,-0.4375
633,1727263449242,0.0029296875,-1.0862427,-0.1885376,9.578125,0.609375,7.8125
634,1727263449282,-0.020507812,-0.8635864,-0.23931885,-5.96875,-3.078125,13.390625
635,1727263449322,-0.048339844,-0.84088135,-0.30426025,-28.609375,0.953125,-12.3125
636,1727263449362,-0.15332031,-1.0386353,0.06585693,-50.21875,11.78125,-13.21875
637,1727263449402,-0.17919922,-0.9060669,-0.062316895,-56.03125,28.390625,-4.671875
638,1727263449442,-0.05493164,-0.7588501,-0.04840088,-34.359375,24.828125,6.390625
639,1727263449482,-0.14282227,-0.47686768,0.1618042,-10.953125,17.984375,5.265625
640,1727263449522,-0.2121582,-0.71759033,0.04144287,-11.515625,10.3125,-3.3125
641,1727263449562,-0.05419922,-0.8225708,0.15325928,-8.578125,6.15625,-3.6875
642,1727263449602,-0.11791992,-0.9368286,0.35394287,-3.109375,8.59375,-3.234375
643,1727263449642,-0.17871094,-0.9734497,0.2296753,-5.515625,5.796875,-0.765625
644,1727263449682,-0.13085938,-0.93170166,0.28631592,-2.859375,-2.1875,-1.234375
645,1727263449722,-0.18164062,-0.89190674,0.24359131,0.28125,1.671875,-1.828125
646,1727263449762,-0.16259766,-0.9841919,0.22357178,-2.578125,-1.5625,-6.5
647,1727263449802,-0.31225586,-1.0515747,0.4015503,3.9375,4.203125,-7.5
648,1727263449842,-0.36206055,-1.2962036,0.293396,-6.21875,4.640625,-16.859375
649,1727263449882,-0.25146484,-1.4629517,0.3312378,-7.421875,-7.078125,-20.484375
650,1727263449922,-0.42260742,-1.2966919,-0.0012817383,0.375,1.90625,-9.71875
651,1727263449962,-0.21850586,-1.1211548,-0.050354004,1.859375,2.46875,-8.515625
652,1727263450002,-0.36328125,-1.0518188,-0.024230957,4.9375,8.703125,-2.546875
653,1727263450042,-0.30810547,-0.9819946,0.07684326,0.109375,0.375,-2.34375
654,1727263450082,-0.28979492,-0.8569946,0.10809326,2.3125,-1.453125,5.015625
655,1727263450122,-0.20239258,-0.7359009,0.077819824,2.984375,-3.625,6.125
656,1727263450162,-0.28808594,-0.58135986,0.13543701,9.953125,-0.0625,9.84375
657,1727263450202,-0.2902832,-0.64068604,0.026550293,5.328125,3.796875,8.9375
658,1727263450242,-0.14672852,-0.64385986,0.04486084,7.21875,-0.015625,4.890625
659,1727263450282,-0.32006836,-0.80352783,0.12615967,5.234375,-1.390625,5.296875
660,1727263450322,-0.32617188,-0.88653564,0.16595459,0.34375,0.546875,2.140625
661,1727263450362,-0.3557129,-0.9312134,0.09613037,-2.75,1.53125,1.203125
662,1727263450402,-0.36499023,-0.958313,0.2033081,1.890625,8.34375,3.21875
663,1727263450442,-0.37524414,-0.9348755,0.15350342,-0.796875,11.21875,4.046875
664,1727263450482,-0.3076172,-0.9871216,0.17938232,-0.796875,7.546875,1.75
665,1727263450522,-0.31176758,-1.0567017,0.18475342,-0.953125,1.828125,3.640625
666,1727263450562,-0.49804688,-1.2625122,0.21331787,-1.984375,-9.625,1.359375
667,1727263450602,-0.36450195,-1.65094,0.2033081,-5.890625,-4.015625,-1.171875
668,1727263450642,0.12646484,-1.5869751,0.062927246,-20.890625,-15.5,5.078125
669,1727263450682,-0.23657227,-1.1033325,0.05999756,-5.625,-3.359375,6.0
670,1727263450722,-0.10449219,-1.1792603,0.093444824,-7.9375,-7.96875,-1.953125
671,1727263450762,-0.19482422,-1.0640259,0.137146,-8.203125,-2.0625,-0.328125
672,1727263450802,-0.30517578,-0.66534424,0.04949951,-11.640625,5.890625,0.15625
673,1727263450842,-0.026855469,-0.3772583,0.043640137,-13.390625,11.015625,-3.25
674,1727263450882,-0.063964844,-0.31695557,0.086364746,-9.4375,5.546875,-1.515625
675,1727263450922,-0.0068359375,-0.45684814,0.17913818,-1.5,4.90625,-4.859375
676,1727263450962,0.0056152344,-0.79278564,0.16473389,-0.125,-7.578125,3.78125
677,1727263451002,-0.2668457,-0.90460205,0.42352295,0.0,-8.921875,5.09375
678,1727263451042,-0.3330078,-1.1973267,0.13763428,0.5,9.328125,-7.8125
679,1727263451082,0.041748047,-1.4099731,0.45135498,4.1875,-13.234375,1.078125
680,1727263451122,-0.37060547,-0.9907837,0.23382568,-0.84375,-4.21875,9.65625
681,1727263451162,-0.2421875,-0.67022705,0.24383545,0.75,0.21875,2.96875
682,1727263451202,-0.31982422,-0.7625122,0.29486084,8.546875,1.421875,1.0
683,1727263451242,-0.22949219,-0.8814087,0.30950928,5.5,7.484375,-0.640625
684,1727263451282,-0.34448242,-1.0015259,0.3209839,4.546875,11.375,-1.390625
685,1727263451322,-0.33081055,-1.1043091,0.29974365,7.59375,10.796875,-4.421875
686,1727263451362,-0.33129883,-1.2507935,0.22088623,11.578125,12.921875,-7.546875
687,1727263451402,-0.2253418,-1.423645,0.30755615,2.328125,-3.328125,-13.359375
688,1727263451442,-0.7050781,-1.5859985,0.32391357,3.328125,22.3125,-17.40625
689,1727263451482,-0.11303711,-1.1692505,-0.085998535,0.34375,27.953125,-11.671875
690,1727263451522,-0.1743164,-1.3738403,-0.07623291,4.921875,27.4375,-5.90625
691,1727263451562,-0.17822266,-1.112854,0.10369873,1.96875,8.90625,-2.46875
692,1727263451602,-0.080566406,-0.8189087,0.018981934,2.828125,-15.5625,3.578125
693,1727263451642,-0.08081055,-0.5081177,0.08001709,5.1875,-20.140625,10.5
694,1727263451682,-0.27978516,-0.22540283,0.2321167,1.9375,19.0,7.390625
695,1727263451722,-0.16064453,-0.38336182,0.010437012,3.640625,17.3125,1.84375
696,1727263451762,-0.14135742,-0.61846924,-0.0725708,6.28125,-2.078125,-2.1875
697,1727263451802,-0.37158203,-1.0352173,0.17181396,-2.984375,-5.609375,-13.5625
698,1727263451842,-0.36157227,-1.1472778,0.2538452,-1.140625,-4.34375,-4.0625
699,1727263451882,-0.25317383,-1.0271606,0.14520264,-0.234375,-5.21875,6.359375
700,1727263451922,-0.31298828,-1.0286255,0.1227417,3.4375,-1.15625,6.046875
701,1727263451962,-0.45288086,-0.85040283,0.184021,12.515625,3.546875,5.671875
702,1727263452002,-0.34570312,-0.9187622,0.2694702,3.375,-2.546875,4.53125
703,1727263452042,-0.296875,-1.1270142,0.21307373,-8.96875,-11.078125,1.265625
704,1727263452082,-0.4958496,-1.4180298,0.14398193,-1.265625,-18.0625,2.890625
705,1727263452122,-0.35424805,-1.7315063,0.25482178,-2.328125,-10.0,6.140625
706,1727263452162,0.024902344,-1.2192993,-0.043518066,-3.328125,-2.390625,22.359375
707,1727263452202,-0.14672852,-1.0117798,-0.047912598,-6.390625,-13.390625,-0.9375
708,1727263452242,-0.114990234,-1.1709595,0.08001709,-5.328125,-2.953125,-1.203125
709,1727263452282,-0.1809082,-0.94537354,0.06341553,-6.40625,-12.859375,-2.953125
710,1727263452322,-0.2854004,-0.5598755,0.08929443,-15.03125,0.359375,-0.296875
711,1727263452362,0.06542969,-0.30108643,-0.020080566,-21.09375,10.640625,-7.0625
712,1727263452402,0.05444336,-0.38238525,0.05340576,-13.109375,-4.53125,-3.59375
713,1727263452442,-0.1394043,-0.7007446,0.19989014,-5.515625,-17.671875,1.28125
714,1727263452482,-0.1694336,-0.90167236,0.37469482,-9.59375,-24.375,0.65625
715,1727263452522,-0.5493164,-0.72784424,0.08050537,0.703125,-1.90625,1.46875
716,1727263452562,-0.32421875,-1.5535278,0.070251465,-3.375,11.5625,-23.53125
717,1727263452602,0.115234375,-1.2068481,0.56707764,-4.59375,3.03125,10.78125
718,1727263452642,-0.626709,-0.58966064,0.1515503,13.578125,4.140625,20.328125
719,1727263452682,-0.2993164,-0.5901489,0.18475342,10.75,10.140625,-8.296875
720,1727263452722,-0.08544922,-1.029602,0.3468628,9.109375,10.46875,2.140625
721,1727263452762,-0.3244629,-0.95635986,0.27630615,11.0625,15.578125,8.65625
722,1727263452802,-0.3112793,-0.97247314,0.22528076,9.453125,15.921875,1.5
723,1727263452842,-0.30908203,-0.97076416,0.26141357,16.359375,22.25,2.34375
724,1727263452882,-0.34326172,-0.97784424,0.24725342,16.203125,25.515625,0.40625
725,1727263452922,-0.40014648,-1.1455688,0.28070068,18.53125,34.140625,0.84375
726,1727263452962,-0.26293945,-1.3399048,0.20062256,10.875,16.96875,-6.828125
727,1727263453002,-0.3474121,-1.4539185,0.29534912,13.6875,18.140625,-6.03125
728,1727263453042,-0.51293945,-1.3538208,-0.19708252,-2.359375,33.40625,-19.28125
729,1727263453082,-0.027832031,-1.2896118,-0.19732666,-2.5,34.578125,-6.65625
730,1727263453122,-0.21777344,-1.0703735,-0.2727661,-3.359375,41.578125,-3.4375
731,1727263453162,-0.16430664,-1.1116333,-0.11138916,-14.234375,20.71875,-7.71875
732,1727263453202,-0.23950195,-0.9536743,-0.006164551,-10.09375,20.75,-3.1875
733,1727263453242,-0.16748047,-0.7366333,0.06878662,-4.53125,18.328125,-1.125
734,1727263453282,-0.17651367,-0.31817627,0.1359253,4.625,15.5625,2.875
735,1727263453322,-0.16967773,-0.30108643,0.058288574,3.875,34.859375,-2.453125
736,1727263453362,-0.17285156,-0.55914307,0.036071777,-4.09375,29.53125,-5.59375
737,1727263453402,-0.25732422,-0.8374634,0.07904053,-1.109375,18.5625,-6.265625
738,1727263453442,-0.123291016,-1.4573364,0.09173584,-17.96875,-8.109375,-10.046875
739,1727263453482,-0.30078125,-1.288147,0.020202637,22.78125,18.734375,16.15625
740,1727263453522,-0.6191406,-0.7329712,0.39056396,9.390625,-5.40625,-3.25
741,1727263453562,-0.13842773,-0.79400635,0.26531982,-3.015625,12.921875,-2.4375
742,1727263453602,-0.2993164,-0.79351807,0.0368042,9.234375,11.265625,7.171875
743,1727263453642,-0.26757812,-0.9204712,0.2086792,1.5625,1.90625,1.953125
744,1727263453682,-0.46289062,-1.0005493,0.32611084,-0.734375,2.546875,2.546875
745,1727263453722,-0.36767578,-0.91192627,0.230896,2.546875,14.625,4.734375
746,1727263453762,-0.33789062,-0.90509033,0.20452881,1.75,8.546875,4.140625
747,1727263453802,-0.32226562,-0.92437744,0.20550537,1.5,12.65625,4.671875
748,1727263453842,-0.39257812,-0.87677,0.2868042,5.453125,13.265625,5.125
749,1727263453882,-0.32641602,-0.92144775,0.20477295,8.890625,19.46875,7.09375
