,Unnamed: 0,timestamp,accel_x,accel_y,accel_z,gyro_x,gyro_y,gyro_z
0,0,1727897859920,0.11206055,-0.9495239,0.0028686523,9.25,-3.171875,-6.921875
1,1,1727897859960,0.14160156,-0.94659424,-0.00982666,18.09375,-0.6875,-4.578125
2,2,1727897860000,0.13085938,-0.92071533,-0.043762207,18.484375,-1.5,-0.953125
3,3,1727897860040,0.16699219,-0.92315674,-0.05645752,16.09375,-2.15625,-1.53125
4,4,1727897860080,0.103027344,-0.9378052,-0.050842285,11.15625,1.9375,-5.71875
5,5,1727897860120,0.071777344,-0.93048096,-0.09307861,3.40625,6.25,-4.71875
6,6,1727897860160,0.052246094,-0.9265747,-0.058410645,11.578125,9.140625,-5.8125
7,7,1727897860200,0.13867188,-0.99786377,-0.07330322,9.765625,5.78125,-3.390625
8,8,1727897860240,0.107421875,-1.0239868,-0.07891846,-3.78125,10.671875,-6.984375
9,9,1727897860280,0.06542969,-1.0029907,-0.059143066,-5.40625,10.078125,-6.5625
10,10,1727897860320,0.15893555,-1.0015259,-0.101623535,13.125,2.234375,1.5
11,11,1727897860360,0.19335938,-1.0681763,-0.18609619,4.90625,-5.75,-0.15625
12,12,1727897860400,0.15039062,-1.0562134,-0.13897705,15.59375,-4.578125,-2.421875
13,13,1727897860440,0.068115234,-1.0134888,-0.16485596,14.890625,-0.46875,-0.03125
14,14,1727897860480,0.10620117,-1.039856,-0.21807861,-5.84375,4.15625,1.578125
15,15,1727897860520,0.16137695,-1.1074829,-0.22198486,-10.015625,3.625,-2.359375
16,16,1727897860560,0.1784668,-1.079895,-0.24176025,2.453125,0.546875,-4.234375
17,17,1727897860600,0.15722656,-0.98394775,-0.26348877,5.015625,1.0625,-3.484375
18,18,1727897860640,0.123535156,-0.99005127,-0.28863525,-6.234375,0.703125,-2.75
19,19,1727897860680,0.10864258,-0.9421997,-0.24859619,-5.28125,-0.609375,-3.484375
20,20,1727897860720,0.111572266,-0.9480591,-0.26690674,1.359375,-3.171875,-0.65625
21,21,1727897860760,0.12133789,-0.96466064,-0.28961182,4.1875,-3.015625,-3.53125
22,22,1727897860800,0.045898438,-0.9585571,-0.28204346,-6.8125,-0.421875,-4.0625
23,23,1727897860840,0.012207031,-0.92926025,-0.24664307,-1.5,5.25,-0.234375
24,24,1727897860880,0.076171875,-0.9192505,-0.28814697,-8.40625,10.953125,-4.8125
25,25,1727897860920,0.07519531,-0.9180298,-0.20977783,-4.28125,7.078125,-5.125
26,26,1727897860960,0.087402344,-0.8399048,-0.23052979,2.046875,2.984375,-1.296875
27,27,1727897861000,0.0637207,-0.85040283,-0.1716919,-7.734375,2.265625,-1.640625
28,28,1727897861040,0.03491211,-0.986145,-0.14898682,-2.375,-0.609375,0.75
29,29,1727897861080,0.08935547,-1.0183716,-0.1404419,4.03125,-5.875,4.84375
30,30,1727897861120,0.09277344,-0.87945557,-0.15362549,2.71875,-7.703125,-0.8125
31,31,1727897861160,-0.01953125,-0.9168091,-0.1651001,-4.46875,-4.40625,-4.90625
32,32,1727897861200,-0.030517578,-0.986145,-0.15338135,-0.9375,-1.859375,1.75
33,33,1727897861240,0.096191406,-0.9619751,-0.13848877,7.59375,-3.71875,6.03125
34,34,1727897861280,0.09008789,-0.89849854,-0.15020752,8.3125,-7.5625,0.359375
35,35,1727897861320,-0.006591797,-0.878479,-0.13873291,-5.765625,-6.546875,-1.046875
36,36,1727897861360,0.005859375,-0.913147,-0.13018799,-9.6875,-4.734375,3.21875
37,37,1727897861400,0.010009766,-0.9824829,-0.10870361,-5.46875,-2.875,-0.625
38,38,1727897861440,-0.012451172,-1.0435181,-0.11407471,-0.03125,-2.390625,-0.078125
39,39,1727897861480,-0.008544922,-0.9649048,-0.089904785,2.796875,1.140625,0.34375
40,40,1727897861520,0.0126953125,-0.96759033,-0.05206299,-4.0625,0.5,-0.234375
41,41,1727897861560,-0.04638672,-1.0256958,-0.020080566,-11.453125,-2.1875,3.125
42,42,1727897861600,-0.008300781,-0.94366455,-0.08135986,-12.53125,-1.1875,9.140625
43,43,1727897861640,0.092041016,-0.9429321,-0.07696533,-16.015625,1.484375,9.046875
44,44,1727897861680,0.19824219,-1.0396118,-0.046936035,-4.09375,-2.46875,3.234375
45,45,1727897861720,0.11791992,-1.0513306,-0.08282471,8.953125,-8.578125,-3.921875
46,46,1727897861760,0.03881836,-1.0105591,-0.08062744,-4.390625,-5.609375,0.375
47,47,1727897861800,0.040283203,-1.107727,-0.074279785,-6.21875,3.453125,-2.640625
48,48,1727897861840,0.09765625,-1.1641235,-0.07574463,-2.8125,4.109375,1.765625
49,49,1727897861880,0.19116211,-1.0725708,-0.08380127,2.828125,3.375,6.734375
50,50,1727897861920,0.24633789,-1.0418091,-0.09674072,0.125,0.78125,3.875
51,51,1727897861960,0.21240234,-1.072815,-0.06915283,-3.296875,-5.640625,2.953125
52,52,1727897862000,0.17041016,-1.093811,-0.06011963,-0.421875,-3.390625,5.703125
53,53,1727897862040,0.17163086,-1.0310669,-0.061828613,0.203125,0.46875,3.28125
54,54,1727897862080,0.2397461,-0.9710083,-0.059631348,2.109375,0.75,1.109375
55,55,1727897862120,0.28588867,-0.9480591,-0.06402588,2.953125,-1.140625,-0.328125
56,56,1727897862160,0.2434082,-0.91363525,-0.09576416,1.359375,-6.5,-1.203125
57,57,1727897862200,0.19213867,-0.8411255,-0.019104004,2.546875,-3.28125,-4.328125
58,58,1727897862240,0.15307617,-0.8218384,-0.02520752,15.5625,1.375,-3.953125
59,59,1727897862280,0.2446289,-0.86676025,-0.101379395,13.78125,-1.234375,-0.015625
60,60,1727897862320,0.18798828,-0.958313,0.0028686523,-2.03125,-1.78125,-3.921875
61,61,1727897862360,0.080322266,-1.0671997,-0.030334473,7.125,-2.734375,-7.125
62,62,1727897862400,0.083496094,-1.0134888,-0.10455322,16.359375,2.90625,-6.671875
63,63,1727897862440,0.11425781,-0.92803955,-0.082092285,17.734375,6.359375,-2.890625
64,64,1727897862480,0.15527344,-0.8911743,-0.09136963,14.546875,5.890625,0.28125
65,65,1727897862520,0.10620117,-0.8377075,-0.10284424,10.421875,4.234375,-3.578125
66,66,1727897862560,0.049804688,-0.89508057,-0.13189697,12.171875,4.703125,-4.84375
67,67,1727897862600,0.10644531,-0.9639282,-0.17218018,14.03125,5.234375,-1.484375
68,68,1727897862640,0.1340332,-0.9500122,-0.15802002,10.203125,1.203125,-2.25
69,69,1727897862680,0.12817383,-0.9495239,-0.18878174,4.21875,-1.015625,-2.125
70,70,1727897862720,0.07714844,-0.91290283,-0.14654541,4.484375,2.546875,-3.8125
71,71,1727897862760,0.03515625,-0.92755127,-0.13726807,3.6875,4.34375,-5.140625
72,72,1727897862800,-0.0146484375,-0.9541626,-0.13604736,-5.390625,7.296875,-3.484375
73,73,1727897862840,0.029541016,-0.99005127,-0.13189697,-11.203125,9.5625,0.78125
74,74,1727897862880,0.09448242,-0.975647,-0.11846924,-18.15625,8.703125,2.0
75,75,1727897862920,0.15673828,-1.0056763,-0.11895752,-3.46875,3.609375,6.703125
76,76,1727897862960,0.18579102,-1.1013794,-0.22833252,-3.921875,-2.59375,3.25
77,77,1727897863000,0.042236328,-1.0147095,-0.094055176,11.3125,-1.03125,-1.53125
78,78,1727897863040,0.041503906,-0.9512329,-0.17706299,18.359375,-0.578125,6.890625
79,79,1727897863080,0.118896484,-0.9776001,-0.1897583,-6.859375,5.59375,3.40625
80,80,1727897863120,0.14233398,-1.0632935,-0.190979,2.3125,4.171875,1.53125
81,81,1727897863160,0.15820312,-1.0210571,-0.17779541,5.671875,-0.6875,4.046875
82,82,1727897863200,0.1574707,-1.0122681,-0.20635986,2.734375,0.15625,0.125
83,83,1727897863240,0.119628906,-1.0491333,-0.20465088,-2.859375,2.0,0.515625
84,84,1727897863280,0.13696289,-1.0335083,-0.19561768,-5.265625,1.953125,-0.59375
85,85,1727897863320,0.15551758,-0.97857666,-0.21929932,-0.25,1.21875,-0.65625
86,86,1727897863360,0.18359375,-0.99298096,-0.22808838,-9.4375,-0.9375,0.625
87,87,1727897863400,0.15136719,-1.0305786,-0.2185669,-7.265625,-3.4375,-1.78125
88,88,1727897863440,0.080322266,-0.9937134,-0.2888794,-10.515625,-4.875,1.296875
89,89,1727897863480,0.064208984,-0.96173096,-0.24273682,-13.703125,3.484375,-1.28125
90,90,1727897863520,0.016113281,-0.9434204,-0.22149658,-10.265625,7.625,-9.953125
91,91,1727897863560,0.0,-0.91241455,-0.144104,-6.34375,8.8125,-7.421875
92,92,1727897863600,0.047851562,-0.89727783,-0.1572876,1.296875,9.625,-6.265625
93,93,1727897863640,0.10229492,-0.9055786,-0.11798096,-3.25,5.234375,0.65625
94,94,1727897863680,0.122558594,-0.9451294,-0.09136963,-4.15625,-5.46875,6.375
95,95,1727897863720,0.07910156,-0.972229,-0.10455322,1.859375,-12.875,7.1875
96,96,1727897863760,0.05078125,-0.9229126,-0.1194458,8.296875,-11.421875,0.3125
97,97,1727897863800,0.020507812,-0.87823486,-0.10821533,4.3125,-6.46875,-2.21875
98,98,1727897863840,0.04638672,-0.87384033,-0.07623291,-0.171875,-5.0625,2.375
99,99,1727897863880,0.072021484,-0.94659424,-0.105041504,-6.09375,-7.5625,4.5625
100,100,1727897863920,0.044677734,-0.99176025,-0.09698486,-4.0625,-7.203125,0.953125
101,101,1727897863960,0.040039062,-0.97076416,-0.090148926,1.828125,-3.40625,-0.046875
102,102,1727897864000,0.060546875,-0.9487915,-0.08795166,-3.03125,-1.09375,-1.65625
103,103,1727897864040,0.05859375,-0.98394775,-0.07672119,-0.015625,-1.59375,-1.53125
104,104,1727897864080,0.044921875,-0.95635986,-0.050842285,7.390625,-3.9375,-0.625
105,105,1727897864120,0.020996094,-0.95440674,-0.061828613,0.28125,-6.5,5.234375
106,106,1727897864160,0.06616211,-1.0154419,-0.07281494,-3.015625,-3.4375,6.453125
107,107,1727897864200,0.07495117,-0.9871216,-0.11260986,5.25,-5.53125,5.421875
108,108,1727897864240,0.12036133,-0.9817505,-0.10821533,3.46875,-6.8125,4.515625
109,109,1727897864280,0.1472168,-0.9976196,-0.06304932,-2.9375,-11.828125,-4.75
110,110,1727897864320,0.11450195,-0.98883057,-0.08355713,-0.609375,-11.84375,-7.203125
111,111,1727897864360,0.033935547,-1.031311,-0.023010254,-2.65625,-8.984375,1.21875
112,112,1727897864400,0.07299805,-1.0650024,-0.09112549,10.5625,-5.109375,3.421875
113,113,1727897864440,0.13671875,-1.0603638,-0.12310791,-0.9375,-4.859375,-0.21875
114,114,1727897864480,0.11425781,-1.0823364,-0.08062744,-0.3125,-0.71875,-1.5625
115,115,1727897864520,0.09790039,-1.1035767,-0.09893799,5.75,2.03125,0.375
116,116,1727897864560,0.13476562,-1.0530396,-0.10601807,6.328125,5.671875,1.96875
117,117,1727897864600,0.21411133,-1.0247192,-0.11627197,1.171875,3.5,1.59375
118,118,1727897864640,0.19799805,-1.060852,-0.078430176,0.796875,1.734375,-0.046875
119,119,1727897864680,0.1743164,-1.0213013,-0.14605713,-1.796875,-0.90625,-0.21875
120,120,1727897864720,0.2548828,-0.9607544,-0.12823486,1.96875,-1.140625,1.484375
121,121,1727897864760,0.29296875,-0.96417236,-0.13018799,5.859375,-1.171875,-1.390625
122,122,1727897864800,0.22607422,-0.92315674,-0.12530518,6.40625,-5.375,-1.921875
123,123,1727897864840,0.16552734,-0.8760376,-0.10430908,6.234375,-7.09375,-2.453125
124,124,1727897864880,0.0690918,-0.8833618,-0.07550049,2.15625,2.28125,-4.625
125,125,1727897864920,0.111083984,-0.9336548,-0.11212158,3.3125,6.390625,-1.9375
126,126,1727897864960,0.21777344,-0.9697876,-0.055725098,5.03125,2.9375,1.578125
127,127,1727897865000,0.2319336,-0.972229,-0.07183838,6.90625,-1.453125,-1.5625
128,128,1727897865040,0.1340332,-0.9717407,-0.1104126,7.59375,-2.59375,-3.1875
129,129,1727897865080,0.12768555,-0.9373169,-0.12359619,7.203125,-4.265625,0.4375
130,130,1727897865120,0.12451172,-0.91192627,-0.0960083,13.765625,-1.484375,-0.703125
131,131,1727897865160,0.07348633,-0.90753174,-0.10772705,12.109375,2.234375,-0.875
132,132,1727897865200,0.05126953,-0.8682251,-0.105041504,7.734375,5.5,-3.96875
133,133,1727897865240,0.05493164,-0.83306885,-0.12896729,1.296875,10.203125,-5.5625
134,134,1727897865280,0.107177734,-0.90997314,-0.17315674,6.953125,8.0,4.09375
135,135,1727897865320,0.18164062,-0.9976196,-0.18951416,12.765625,7.03125,10.75
136,136,1727897865360,0.1496582,-0.9841919,-0.20440674,4.515625,4.3125,-1.53125
137,137,1727897865400,0.037841797,-0.95758057,-0.14239502,-4.96875,6.71875,-5.21875
138,138,1727897865440,0.080322266,-0.93170166,-0.15386963,-4.296875,7.59375,1.921875
139,139,1727897865480,0.09790039,-0.9241333,-0.14385986,-6.46875,9.71875,-1.25
140,140,1727897865520,0.072509766,-0.98809814,-0.13238525,-9.5625,8.5625,0.703125
141,141,1727897865560,0.16040039,-0.9871216,-0.124816895,-4.328125,7.015625,4.65625
142,142,1727897865600,0.15795898,-1.0271606,-0.1716919,0.921875,3.515625,1.53125
143,143,1727897865640,0.14282227,-1.0386353,-0.17974854,-1.71875,0.203125,2.078125
144,144,1727897865680,0.083496094,-0.98150635,-0.12042236,2.890625,6.046875,-1.4375
145,145,1727897865720,0.07397461,-0.99420166,-0.1609497,-5.453125,10.359375,2.5625
146,146,1727897865760,0.11352539,-1.0610962,-0.15679932,-5.34375,11.46875,4.03125
147,147,1727897865800,0.16479492,-1.0945435,-0.16802979,9.09375,7.96875,3.625
148,148,1727897865840,0.16699219,-1.0579224,-0.22589111,17.140625,4.65625,5.015625
149,149,1727897865880,0.17626953,-1.0657349,-0.23150635,2.125,7.75,2.234375
150,150,1727897865920,0.17553711,-0.9956665,-0.20928955,-7.78125,7.078125,-1.390625
151,151,1727897865960,0.17675781,-0.9180298,-0.19708252,-10.140625,2.203125,-1.125
152,152,1727897866000,0.19238281,-0.9351196,-0.21734619,-13.53125,-1.125,-3.671875
153,153,1727897866040,0.12573242,-0.97320557,-0.20172119,-14.203125,-5.84375,1.078125
154,154,1727897866080,0.05908203,-0.973938,-0.19561768,-4.515625,-4.328125,1.46875
155,155,1727897866120,0.052490234,-1.0383911,-0.24346924,-3.484375,0.609375,-3.71875
156,156,1727897866160,0.09765625,-0.9495239,-0.2119751,-6.609375,2.25,-3.375
157,157,1727897866200,0.107177734,-0.9302368,-0.22320557,-17.140625,9.390625,-5.09375
158,158,1727897866240,0.026611328,-0.90826416,-0.16119385,-6.625,8.390625,-9.390625
159,159,1727897866280,0.06518555,-0.89385986,-0.12872314,7.4375,6.9375,-3.921875
160,160,1727897866320,0.19384766,-0.86602783,-0.085754395,6.015625,-2.234375,-0.4375
161,161,1727897866360,0.20483398,-0.94000244,-0.101623535,-5.75,-18.046875,5.765625
162,162,1727897866400,0.095947266,-0.9602661,-0.082092285,0.109375,-21.171875,4.53125
163,163,1727897866440,-0.01171875,-0.9282837,-0.121154785,23.40625,-17.390625,-2.203125
164,164,1727897866480,0.037353516,-0.92510986,-0.14581299,13.796875,-10.078125,-1.65625
165,165,1727897866520,0.091308594,-0.98272705,-0.097961426,5.71875,-8.265625,-1.6875
166,166,1727897866560,0.07006836,-0.9907837,-0.16363525,13.328125,-5.0625,-4.1875
167,167,1727897866600,0.06518555,-0.9006958,-0.17974854,11.890625,-7.609375,1.21875
168,168,1727897866640,0.02319336,-0.9031372,-0.18121338,6.71875,-6.046875,0.046875
169,169,1727897866680,0.03491211,-0.9234009,-0.16339111,-9.125,-6.25,0.265625
170,170,1727897866720,0.023925781,-0.9636841,-0.13067627,-4.359375,-0.984375,-3.4375
171,171,1727897866760,0.0053710938,-0.989563,-0.17926025,4.78125,1.8125,0.421875
172,172,1727897866800,0.06665039,-0.91729736,-0.12872314,1.0,1.5,0.5625
173,173,1727897866840,0.028808594,-0.9800415,-0.11065674,-10.515625,-0.21875,-1.796875
174,174,1727897866880,0.032714844,-1.0442505,-0.117004395,-6.453125,-2.15625,5.671875
175,175,1727897866920,0.061279297,-1.0532837,-0.16192627,-12.25,1.96875,4.78125
176,176,1727897866960,0.12939453,-1.093811,-0.09161377,1.109375,4.375,4.3125
177,177,1727897867000,0.15332031,-1.0325317,-0.159729,9.078125,-0.03125,-2.84375
178,178,1727897867040,0.087402344,-0.9570923,-0.13433838,-5.484375,1.671875,-3.296875
179,179,1727897867080,0.13305664,-0.99102783,-0.121154785,-9.78125,-1.703125,1.078125
180,180,1727897867120,0.14819336,-1.0579224,-0.101379395,2.546875,-2.15625,-1.203125
181,181,1727897867160,0.10205078,-1.0298462,-0.11773682,4.328125,-3.171875,-2.046875
182,182,1727897867200,0.1262207,-1.0049438,-0.11920166,-3.453125,-1.875,-0.34375
183,183,1727897867240,0.15356445,-1.0449829,-0.13458252,-4.234375,0.234375,0.453125
184,184,1727897867280,0.12963867,-1.0889282,-0.1104126,-10.5,-0.75,1.296875
185,185,1727897867320,0.12402344,-1.081604,-0.08087158,-8.9375,1.765625,1.453125
186,186,1727897867360,0.111083984,-1.0256958,-0.105773926,-10.765625,2.09375,-0.78125
187,187,1727897867400,0.16674805,-1.0032349,-0.13531494,-6.671875,4.28125,-0.890625
188,188,1727897867440,0.27246094,-0.9373169,-0.109191895,2.71875,1.921875,0.25
189,189,1727897867480,0.28198242,-0.9182739,-0.07647705,5.15625,-2.046875,0.34375
190,190,1727897867520,0.21191406,-0.86065674,-0.07501221,6.40625,-5.46875,-2.4375
191,191,1727897867560,0.106933594,-0.8777466,-0.07720947,1.984375,-4.0625,-1.171875
192,192,1727897867600,0.16967773,-0.97735596,-0.05206299,6.390625,-2.9375,4.5
193,193,1727897867640,0.12060547,-0.92315674,-0.05987549,6.59375,0.234375,-0.8125
194,194,1727897867680,0.04663086,-0.94781494,-0.05987549,0.328125,5.640625,-3.609375
195,195,1727897867720,0.1508789,-0.9639282,-0.06744385,11.0625,3.34375,-0.234375
196,196,1727897867760,0.21020508,-0.9612427,-0.10772705,11.953125,1.171875,2.640625
197,197,1727897867800,0.14697266,-0.8821411,-0.073791504,8.140625,-0.46875,1.578125
198,198,1727897867840,0.041503906,-0.90167236,-0.08135986,10.703125,3.328125,-2.59375
199,199,1727897867880,0.07006836,-0.9126587,-0.08477783,11.84375,5.578125,-1.625
200,200,1727897867920,0.12573242,-0.9505005,-0.11187744,1.59375,4.46875,1.71875
201,201,1727897867960,0.13916016,-0.9356079,-0.07159424,-2.09375,3.5625,0.8125
202,202,1727897868000,0.08862305,-0.96759033,-0.120666504,-0.546875,1.625,2.125
203,203,1727897868040,0.08129883,-0.95758057,-0.085754395,-5.375,4.875,-1.34375
204,204,1727897868080,0.11206055,-0.987854,-0.06011963,-6.296875,8.78125,-3.671875
205,205,1727897868120,0.06665039,-0.9829712,-0.042541504,-5.859375,11.578125,-7.203125
206,206,1727897868160,0.07421875,-1.0134888,-0.09112549,-12.234375,9.390625,0.984375
207,207,1727897868200,0.15722656,-1.0413208,-0.10284424,-10.296875,10.140625,-0.890625
208,208,1727897868240,0.076416016,-1.0274048,-0.07647705,4.9375,10.078125,-5.796875
209,209,1727897868280,0.08496094,-0.9685669,-0.094055176,11.1875,6.765625,1.234375
210,210,1727897868320,0.15625,-1.0222778,-0.10821533,-0.546875,7.234375,-2.578125
211,211,1727897868360,0.1274414,-1.0532837,-0.105041504,3.359375,4.875,0.125
212,212,1727897868400,0.11767578,-1.0698853,-0.12261963,5.203125,2.53125,0.40625
213,213,1727897868440,0.10498047,-1.0918579,-0.1585083,14.703125,-0.6875,-0.65625
214,214,1727897868480,0.1328125,-1.0061646,-0.1494751,15.09375,-3.015625,1.59375
215,215,1727897868520,0.12963867,-1.0178833,-0.18902588,-4.84375,-1.015625,1.671875
216,216,1727897868560,0.11450195,-0.9866333,-0.13604736,-10.9375,1.8125,-1.59375
217,217,1727897868600,0.091308594,-1.0283813,-0.14117432,3.46875,-0.21875,-1.984375
218,218,1727897868640,0.123535156,-1.0134888,-0.22247314,8.625,-4.3125,-2.40625
219,219,1727897868680,0.056884766,-0.9961548,-0.2625122,-5.96875,0.921875,0.25
220,220,1727897868720,0.016845703,-0.975647,-0.22589111,-4.390625,7.859375,-0.734375
221,221,1727897868760,0.076660156,-0.87823486,-0.22784424,-8.265625,9.21875,-12.25
222,222,1727897868800,0.0925293,-0.847229,-0.1951294,-0.625,-0.15625,-13.140625
223,223,1727897868840,0.04321289,-0.87994385,-0.17633057,7.890625,-4.8125,-2.828125
224,224,1727897868880,0.014404297,-0.8826294,-0.13922119,7.828125,-4.40625,4.640625
225,225,1727897868920,0.05883789,-0.9487915,-0.1506958,9.578125,-10.5625,11.0625
226,226,1727897868960,0.11035156,-0.9414673,-0.16973877,-3.0,-14.6875,4.875
227,227,1727897869000,0.018554688,-0.9717407,-0.12042236,11.828125,-10.75,-5.375
228,228,1727897869040,-0.030517578,-0.94732666,-0.1807251,11.28125,-6.53125,-6.671875
229,229,1727897869080,0.008300781,-0.9143677,-0.1428833,13.359375,0.34375,0.84375
230,230,1727897869120,0.03857422,-0.89434814,-0.2107544,7.90625,0.890625,2.34375
231,231,1727897869160,0.014404297,-0.9546509,-0.17047119,4.875,3.96875,-7.0625
232,232,1727897869200,0.011474609,-0.99591064,-0.19171143,5.78125,-0.703125,-3.21875
233,233,1727897869240,0.046875,-0.9380493,-0.19586182,1.4375,2.46875,-4.140625
234,234,1727897869280,0.05102539,-0.9109497,-0.22296143,-0.84375,-2.78125,-2.28125
235,235,1727897869320,0.060546875,-0.90460205,-0.18878174,-9.6875,-9.453125,2.078125
236,236,1727897869360,-0.004638672,-0.9697876,-0.1453247,-8.953125,-7.96875,-0.46875
237,237,1727897869400,-0.07910156,-1.0852661,-0.1975708,-6.734375,-10.953125,3.59375
238,238,1727897869440,-0.013183594,-0.97979736,-0.16851807,-2.828125,-1.578125,5.828125
239,239,1727897869480,0.02319336,-0.954895,-0.1453247,7.984375,5.28125,-0.796875
240,240,1727897869520,0.0871582,-1.0713501,-0.22930908,6.75,-1.859375,-0.796875
241,241,1727897869560,0.13476562,-0.9854126,-0.18389893,-3.84375,-3.15625,1.578125
242,242,1727897869600,0.099609375,-0.99005127,-0.17730713,-11.015625,-3.8125,1.59375
243,243,1727897869640,0.0925293,-1.0549927,-0.14434814,-11.5625,-4.171875,-0.09375
244,244,1727897869680,0.08618164,-1.0588989,-0.1729126,-1.8125,-5.671875,2.03125
245,245,1727897869720,0.10961914,-0.9924927,-0.15435791,2.546875,-4.4375,2.96875
246,246,1727897869760,0.096191406,-1.0410767,-0.1716919,-4.140625,-3.8125,1.921875
247,247,1727897869800,0.088134766,-1.0479126,-0.13336182,-10.515625,-1.46875,3.0625
248,248,1727897869840,0.09643555,-1.0491333,-0.109191895,-8.03125,5.0,1.640625
249,249,1727897869880,0.18115234,-1.0252075,-0.13043213,-7.46875,2.171875,3.640625
250,250,1727897869920,0.23217773,-1.0198364,-0.10235596,-7.921875,-0.65625,-0.765625
251,251,1727897869960,0.1665039,-1.0054321,-0.13409424,-9.734375,-1.96875,-1.796875
252,252,1727897870000,0.11303711,-0.9204712,-0.11456299,-13.390625,-2.84375,-4.796875
253,253,1727897870040,0.15649414,-0.88287354,-0.014465332,3.84375,3.421875,-5.578125
254,254,1727897870080,0.18603516,-0.9483032,-0.03765869,8.453125,-2.140625,-2.6875
255,255,1727897870120,0.10986328,-0.9846802,-0.0134887695,-3.171875,-1.125,0.59375
256,256,1727897870160,0.040283203,-1.006897,0.0004272461,-5.671875,2.0625,-1.890625
257,257,1727897870200,0.03564453,-1.0117798,-0.02130127,2.734375,6.96875,-3.171875
258,258,1727897870240,0.12768555,-0.95635986,-0.0635376,10.875,7.546875,-0.4375
259,259,1727897870280,0.16552734,-0.92559814,-0.042053223,3.953125,4.890625,0.765625
260,260,1727897870320,0.107910156,-0.8977661,-0.024719238,4.328125,2.453125,0.046875
261,261,1727897870360,-0.0041503906,-0.88067627,-0.062805176,15.625,6.421875,-3.25
262,262,1727897870400,-0.0012207031,-0.90631104,-0.11016846,8.09375,11.171875,2.515625
263,263,1727897870440,0.12060547,-0.9265747,-0.06402588,2.796875,10.734375,2.625
264,264,1727897870480,0.1550293,-0.9595337,-0.0713501,4.296875,3.4375,1.625
265,265,1727897870520,0.10986328,-0.9639282,-0.0803833,2.9375,-0.375,3.1875
266,266,1727897870560,0.08520508,-0.9668579,-0.06060791,-1.140625,-0.09375,0.28125
267,267,1727897870600,0.03540039,-0.93463135,-0.046203613,1.125,2.015625,-0.703125
268,268,1727897870640,0.03125,-0.95025635,-0.02935791,-3.34375,6.234375,0.03125
269,269,1727897870680,0.08251953,-0.944397,0.015075684,-1.78125,6.140625,-1.78125
270,270,1727897870720,0.07543945,-0.9495239,-0.04937744,10.359375,-0.46875,0.125
271,271,1727897870760,0.16333008,-1.1082153,-0.12530518,2.078125,-7.390625,4.890625
272,272,1727897870800,0.16918945,-1.1182251,-0.09967041,5.46875,-5.015625,-5.15625
273,273,1727897870840,0.03857422,-1.0420532,-0.10626221,18.03125,0.765625,-5.9375
274,274,1727897870880,0.030517578,-1.0388794,-0.1182251,-5.609375,4.671875,-1.5625
275,275,1727897870920,0.049560547,-1.0801392,-0.09674072,-3.015625,4.328125,-1.796875
276,276,1727897870960,0.16381836,-1.0540161,-0.13946533,1.5625,0.6875,1.8125
277,277,1727897871000,0.118652344,-1.0061646,-0.1453247,1.53125,1.328125,-0.25
278,278,1727897871040,0.123535156,-1.0144653,-0.15093994,-5.515625,1.65625,-0.328125
279,279,1727897871080,0.115234375,-1.0046997,-0.1675415,-0.15625,-0.484375,0.609375
280,280,1727897871120,0.123291016,-0.954895,-0.15997314,-2.0625,-3.140625,-0.8125
281,281,1727897871160,0.08618164,-0.9065552,-0.18389893,7.71875,-5.171875,-1.796875
282,282,1727897871200,0.08178711,-0.909729,-0.19976807,-2.109375,-6.15625,0.625
283,283,1727897871240,0.11791992,-0.9685669,-0.16021729,-3.203125,-9.5625,-5.484375
284,284,1727897871280,0.028320312,-1.0308228,-0.26153564,-4.5,-9.515625,-9.46875
285,285,1727897871320,-0.017333984,-1.0149536,-0.21343994,1.8125,3.1875,-4.125
286,286,1727897871360,0.10620117,-0.9492798,-0.24810791,12.53125,5.09375,-2.953125
287,287,1727897871400,0.13061523,-0.80303955,-0.23199463,-1.25,-2.96875,-2.609375
288,288,1727897871440,-0.045166016,-0.93292236,-0.1843872,0.203125,0.5625,1.046875
289,289,1727897871480,-0.060058594,-1.0100708,-0.13189697,-0.34375,3.4375,6.015625
290,290,1727897871520,0.104003906,-0.9529419,-0.1350708,1.015625,0.3125,5.828125
291,291,1727897871560,0.16796875,-0.9234009,-0.13018799,-5.84375,-1.5,2.421875
292,292,1727897871600,0.028076172,-0.93829346,-0.09234619,-8.71875,-4.71875,0.140625
293,293,1727897871640,-0.0043945312,-0.9546509,-0.10723877,2.921875,-5.515625,3.9375
294,294,1727897871680,0.05517578,-0.925354,-0.0960083,6.15625,-4.0,2.71875
295,295,1727897871720,0.038330078,-0.92633057,-0.08843994,2.234375,-4.125,2.046875
296,296,1727897871760,0.045166016,-0.9365845,-0.12530518,-0.375,-4.453125,1.4375
297,297,1727897871800,0.021484375,-0.960022,-0.10455322,3.109375,-3.3125,0.125
298,298,1727897871840,0.01171875,-0.9170532,-0.101135254,6.109375,-2.328125,1.15625
299,299,1727897871880,-0.018310547,-0.93707275,-0.053527832,-2.203125,-1.0,-1.34375
300,300,1727897871920,-0.06542969,-1.0767212,-0.06695557,-2.609375,0.46875,4.125
301,301,1727897871960,0.018798828,-0.93414307,-0.070373535,-7.28125,1.515625,6.109375
302,302,1727897872000,0.09033203,-0.92633057,-0.109680176,-18.765625,-0.78125,4.828125
303,303,1727897872040,0.115722656,-1.0916138,-0.036193848,-8.546875,0.578125,7.140625
304,304,1727897872080,0.17895508,-1.1484985,-0.07891846,-0.1875,-8.875,-1.296875
305,305,1727897872120,0.061767578,-1.1331177,-0.06085205,-0.578125,-7.171875,-3.90625
306,306,1727897872160,-0.008300781,-1.0820923,-0.06524658,-6.09375,2.96875,-3.3125
307,307,1727897872200,0.08154297,-1.0903931,-0.05596924,-13.578125,4.84375,-0.65625
308,308,1727897872240,0.14526367,-1.0874634,-0.051330566,-4.625,4.75,-0.21875
309,309,1727897872280,0.12988281,-1.0105591,-0.047424316,-1.859375,5.015625,-0.875
310,310,1727897872320,0.14770508,-1.0117798,-0.070617676,-2.046875,4.0,-1.53125
311,311,1727897872360,0.17285156,-1.0745239,-0.07598877,-6.0,3.921875,-1.6875
312,312,1727897872400,0.18774414,-1.0442505,-0.035705566,-2.5,2.640625,-1.5
313,313,1727897872440,0.24169922,-1.0234985,-0.08526611,1.625,0.96875,2.546875
314,314,1727897872480,0.29736328,-0.94317627,-0.058410645,-2.90625,-3.296875,2.921875
315,315,1727897872520,0.21459961,-0.9072876,-0.047180176,-2.53125,-6.859375,1.640625
316,316,1727897872560,0.10595703,-0.85601807,0.007751465,7.65625,-2.796875,0.859375
317,317,1727897872600,0.1105957,-0.9048462,-0.04107666,16.0625,-0.875,3.46875
318,318,1727897872640,0.16821289,-0.9402466,-0.010559082,10.390625,1.421875,1.71875
319,319,1727897872680,0.12597656,-0.97979736,-0.008117676,-2.953125,0.625,-3.59375
320,320,1727897872720,0.10595703,-0.97125244,0.008972168,2.734375,1.5625,-2.125
321,321,1727897872760,0.1730957,-0.9024048,-0.019104004,16.734375,-3.96875,1.171875
322,322,1727897872800,0.14160156,-0.8257446,-0.036193848,15.359375,-3.953125,-0.015625
323,323,1727897872840,0.075927734,-0.8530884,-0.02520752,8.6875,0.328125,-4.953125
324,324,1727897872880,0.05029297,-0.9458618,-0.04522705,13.796875,3.265625,-5.640625
325,325,1727897872920,0.07861328,-0.97369385,-0.06939697,17.40625,4.578125,-1.921875
326,326,1727897872960,0.15234375,-0.9624634,-0.10211182,11.34375,1.5,1.8125
327,327,1727897873000,0.13647461,-0.97125244,-0.08746338,4.859375,-0.484375,-1.03125
328,328,1727897873040,0.08276367,-0.9846802,-0.062561035,3.84375,-0.78125,-2.40625
329,329,1727897873080,0.051513672,-0.9365845,-0.085998535,1.25,1.984375,-2.703125
330,330,1727897873120,0.03540039,-0.9378052,-0.051330566,-1.484375,8.203125,-5.78125
331,331,1727897873160,0.08129883,-0.9968872,-0.06500244,-0.828125,6.578125,-4.25
332,332,1727897873200,0.14086914,-1.0005493,-0.07989502,5.5625,3.421875,-0.6875
333,333,1727897873240,0.12670898,-1.0366821,-0.15948486,10.921875,-0.234375,3.5
334,334,1727897873280,0.06958008,-0.9990845,-0.17999268,5.25,0.125,-1.984375
335,335,1727897873320,0.06665039,-1.0440063,-0.16241455,10.109375,-2.390625,6.328125
336,336,1727897873360,0.18652344,-1.1257935,-0.1885376,0.421875,-2.5,9.125
337,337,1727897873400,0.17138672,-1.0852661,-0.20172119,4.28125,2.0,2.078125
338,338,1727897873440,0.111572266,-1.0759888,-0.20465088,-3.703125,0.640625,4.21875
339,339,1727897873480,0.11206055,-1.0581665,-0.1716919,-1.046875,4.15625,0.4375
340,340,1727897873520,0.107177734,-0.9956665,-0.23760986,-0.421875,7.28125,-1.40625
341,341,1727897873560,0.13330078,-0.9768677,-0.21466064,1.453125,8.40625,-1.140625
342,342,1727897873600,0.16723633,-0.989563,-0.28033447,-1.90625,6.46875,-3.125
343,343,1727897873640,0.1418457,-0.93829346,-0.2720337,-7.265625,4.15625,-2.703125
344,344,1727897873680,0.09106445,-0.88653564,-0.27349854,-7.359375,6.078125,-1.65625
345,345,1727897873720,0.0769043,-0.87286377,-0.23858643,-1.578125,6.609375,-2.4375
346,346,1727897873760,0.0793457,-0.87945557,-0.20831299,-1.265625,1.90625,-3.9375
347,347,1727897873800,0.100097656,-0.895813,-0.2288208,-2.609375,-0.046875,-4.046875
348,348,1727897873840,0.111083984,-0.88360596,-0.16241455,-2.09375,-0.65625,-0.4375
349,349,1727897873880,0.078125,-0.88409424,-0.1585083,2.390625,-6.390625,0.171875
350,350,1727897873920,0.0031738281,-0.94854736,-0.15997314,-3.21875,-7.078125,2.6875
351,351,1727897873960,0.0234375,-0.9841919,-0.15753174,2.140625,-1.640625,-0.609375
352,352,1727897874000,0.0690918,-0.9607544,-0.17755127,6.1875,0.609375,-3.640625
353,353,1727897874040,0.09423828,-0.9143677,-0.1326294,4.25,-1.625,-2.828125
354,354,1727897874080,0.044677734,-0.9451294,-0.1572876,-0.390625,-5.890625,0.21875
355,355,1727897874120,0.048095703,-0.9612427,-0.13311768,-0.953125,-7.09375,4.390625
356,356,1727897874160,0.056640625,-0.92633057,-0.14190674,0.890625,-6.21875,1.890625
357,357,1727897874200,-0.013427734,-0.9060669,-0.12628174,-3.953125,-3.625,-0.125
358,358,1727897874240,-0.026367188,-0.95684814,-0.10772705,-4.828125,-0.4375,2.578125
359,359,1727897874280,0.01953125,-0.991272,-0.0960083,-2.46875,0.734375,2.421875
360,360,1727897874320,0.025146484,-1.0327759,-0.09283447,-5.640625,-0.078125,2.453125
361,361,1727897874360,0.0073242188,-0.9644165,-0.059631348,-2.6875,0.8125,0.78125
362,362,1727897874400,0.014404297,-0.96759033,-0.032287598,-14.078125,-0.828125,4.140625
363,363,1727897874440,0.06323242,-1.0264282,-0.10748291,-19.671875,-2.375,8.140625
364,364,1727897874480,0.15185547,-1.0562134,-0.035217285,-9.234375,1.75,3.984375
365,365,1727897874520,0.1850586,-1.1477661,-0.112854004,1.390625,-9.40625,-0.75
366,366,1727897874560,0.1418457,-1.1450806,-0.086242676,-3.15625,-7.4375,0.46875
367,367,1727897874600,0.12646484,-1.1187134,-0.09112549,-11.421875,-3.515625,0.609375
368,368,1727897874640,0.16088867,-1.0823364,-0.046936035,-9.46875,-1.484375,0.703125
369,369,1727897874680,0.14282227,-1.034729,-0.036193848,-6.765625,0.265625,-1.65625
370,370,1727897874720,0.07861328,-1.0132446,-0.01739502,-6.203125,1.9375,-2.953125
371,371,1727897874760,0.1105957,-0.9907837,-0.00030517578,3.328125,5.859375,-3.65625
372,372,1727897874800,0.21972656,-0.96832275,-0.06085205,3.828125,3.015625,-3.4375
373,373,1727897874840,0.31884766,-0.98687744,-0.05279541,3.90625,-1.859375,-0.140625
374,374,1727897874880,0.31469727,-0.9937134,-0.07989502,8.609375,-7.46875,1.40625
375,375,1727897874920,0.25878906,-0.9194946,-0.047424316,10.28125,-14.328125,3.40625
376,376,1727897874960,0.15234375,-0.8220825,-0.02130127,12.21875,-10.484375,-1.71875
377,377,1727897875000,0.05908203,-0.8753052,-0.07110596,8.9375,-1.3125,-1.609375
378,378,1727897875040,0.092041016,-0.91534424,-0.016662598,8.5625,5.625,-1.640625
379,379,1727897875080,0.14135742,-0.93634033,-0.024963379,15.984375,6.984375,-4.0
380,380,1727897875120,0.1809082,-0.9143677,-0.066223145,14.53125,5.453125,0.03125
381,381,1727897875160,0.19262695,-0.92559814,-0.11431885,13.484375,0.6875,5.171875
382,382,1727897875200,0.15917969,-0.92852783,-0.101623535,14.0,-2.25,2.953125
383,383,1727897875240,0.09741211,-0.9458618,-0.117492676,21.125,-2.28125,-2.875
384,384,1727897875280,0.079833984,-0.9307251,-0.12896729,19.234375,4.328125,-6.5625
385,385,1727897875320,0.084228516,-0.9324341,-0.14727783,9.90625,6.5625,-2.484375
386,386,1727897875360,0.12597656,-0.90167236,-0.14239502,7.296875,4.609375,0.3125
387,387,1727897875400,0.09423828,-0.9209595,-0.159729,16.6875,2.328125,-1.796875
388,388,1727897875440,0.08544922,-0.93927,-0.1560669,11.0,2.671875,-1.703125
389,389,1727897875480,0.05883789,-0.9221802,-0.12530518,-0.203125,7.46875,-3.078125
390,390,1727897875520,0.05517578,-0.9771118,-0.15631104,-6.453125,9.640625,-6.328125
391,391,1727897875560,0.05810547,-1.0679321,-0.16290283,-8.5625,8.671875,-3.0
392,392,1727897875600,0.12524414,-1.0303345,-0.2234497,8.71875,6.4375,2.78125
393,393,1727897875640,0.10839844,-1.0435181,-0.2979126,-3.859375,6.09375,2.21875
394,394,1727897875680,0.14160156,-1.1089478,-0.23834229,-6.21875,2.59375,4.171875
395,395,1727897875720,0.16992188,-1.0828247,-0.25299072,11.0,-0.203125,2.71875
396,396,1727897875760,0.14428711,-1.0227661,-0.27423096,-1.25,2.03125,2.875
397,397,1727897875800,0.11450195,-1.00177,-0.27716064,-9.015625,2.625,-0.171875
398,398,1727897875840,0.12158203,-1.00177,-0.25933838,-6.171875,0.359375,-0.125
399,399,1727897875880,0.14086914,-0.98565674,-0.27349854,1.328125,0.640625,-2.0625
400,400,1727897875920,0.11987305,-0.9258423,-0.24151611,-6.09375,0.109375,-0.390625
401,401,1727897875960,0.111328125,-0.87628174,-0.27593994,-13.21875,-2.609375,0.90625
402,402,1727897876000,0.09301758,-0.9385376,-0.26739502,-20.5,-0.90625,-1.5625
403,403,1727897876040,0.011962891,-1.0078735,-0.22442627,-2.484375,-0.609375,-3.21875
404,404,1727897876080,0.0126953125,-1.0049438,-0.32452393,-1.53125,4.5625,-1.53125
405,405,1727897876120,0.12109375,-0.88653564,-0.21612549,-10.203125,9.625,-7.8125
406,406,1727897876160,0.0637207,-0.8587036,-0.15777588,-5.28125,5.5,-5.828125
407,407,1727897876200,0.07006836,-0.86920166,-0.11578369,-9.03125,0.15625,0.140625
408,408,1727897876240,0.07788086,-0.90802,-0.09454346,-4.921875,-3.140625,4.90625
409,409,1727897876280,0.06616211,-0.9768677,-0.10089111,-4.03125,-7.671875,3.296875
410,410,1727897876320,0.0061035156,-0.97125244,-0.08062744,-4.140625,-3.828125,-2.625
411,411,1727897876360,-0.017333984,-0.93048096,-0.08282471,-2.171875,-1.625,-1.640625
412,412,1727897876400,0.08569336,-0.8858032,-0.07281494,9.234375,-0.78125,2.234375
413,413,1727897876440,0.11010742,-0.9187622,-0.10626221,-3.359375,-7.390625,0.703125
414,414,1727897876480,-0.018066406,-0.99664307,-0.089416504,-3.703125,-8.078125,-0.359375
415,415,1727897876520,0.005859375,-0.989563,-0.062561035,4.078125,-5.765625,0.90625
416,416,1727897876560,0.05810547,-0.98150635,-0.1182251,5.140625,-1.28125,-3.078125
417,417,1727897876600,0.0036621094,-0.93096924,-0.06890869,6.703125,0.15625,-3.984375
418,418,1727897876640,-0.053222656,-0.95684814,-0.057922363,-4.265625,-3.484375,5.015625
419,419,1727897876680,0.044677734,-0.9656372,-0.058166504,-15.046875,-1.5,7.578125
420,420,1727897876720,0.013427734,-0.98516846,-0.03668213,-12.9375,-2.125,3.515625
421,421,1727897876760,-0.0061035156,-1.0420532,-0.08453369,-14.796875,-0.578125,5.703125
422,422,1727897876800,0.104003906,-1.0784302,-0.025939941,-4.6875,3.140625,3.0
423,423,1727897876840,0.15551758,-1.0889282,-0.046691895,5.953125,-5.765625,-3.234375
424,424,1727897876880,0.0715332,-1.0581665,-0.038146973,3.8125,-4.75,-3.703125
425,425,1727897876920,0.024169922,-1.0942993,-0.05328369,-0.6875,0.625,-2.125
426,426,1727897876960,0.09277344,-1.0879517,-0.055725098,-5.328125,-0.34375,-1.578125
427,427,1727897877000,0.10986328,-1.1148071,-0.06744385,-2.625,3.375,-0.671875
428,428,1727897877040,0.1472168,-1.0855103,-0.05596924,4.15625,2.640625,1.078125
429,429,1727897877080,0.14208984,-1.0493774,-0.08843994,-1.609375,1.625,-1.5
430,430,1727897877120,0.15551758,-1.0369263,-0.08721924,0.109375,2.6875,0.1875
431,431,1727897877160,0.16796875,-0.9915161,-0.074523926,1.875,3.8125,-2.65625
432,432,1727897877200,0.23535156,-0.9710083,-0.09234619,0.71875,-0.921875,-0.015625
433,433,1727897877240,0.2841797,-0.9644165,-0.10357666,0.765625,-7.96875,-0.265625
434,434,1727897877280,0.2084961,-0.91851807,-0.06842041,4.75,-11.859375,2.234375
435,435,1727897877320,0.17236328,-0.8110962,-0.024963379,13.6875,-11.734375,-0.328125
436,436,1727897877360,0.11621094,-0.86602783,-0.051330566,11.390625,-6.6875,-1.578125
437,437,1727897877400,0.07910156,-0.9417114,-0.055725098,10.609375,-2.84375,-1.171875
438,438,1727897877440,0.04736328,-0.958313,-0.038146973,8.921875,3.75,-5.25
439,439,1727897877480,0.07397461,-0.96661377,-0.070617676,12.625,3.359375,-4.453125
440,440,1727897877520,0.14526367,-0.91851807,-0.06842041,22.4375,3.375,-1.109375
441,441,1727897877560,0.09448242,-0.8882446,-0.11016846,18.125,3.5,-1.921875
442,442,1727897877600,0.059814453,-0.90093994,-0.09112549,16.640625,1.953125,-1.453125
443,443,1727897877640,0.061035156,-0.9258423,-0.13848877,14.703125,2.34375,-2.6875
444,444,1727897877680,0.08642578,-0.9397583,-0.17047119,7.09375,4.890625,1.203125
445,445,1727897877720,0.08276367,-0.9302368,-0.13726807,5.5625,4.546875,2.890625
446,446,1727897877760,0.0715332,-0.94781494,-0.14141846,4.796875,2.046875,3.125
447,447,1727897877800,0.08911133,-0.9602661,-0.09625244,4.03125,2.546875,2.03125
448,448,1727897877840,0.02368164,-0.9524536,-0.09893799,-0.28125,7.703125,-1.765625
449,449,1727897877880,0.010253906,-0.989563,-0.11456299,-6.59375,10.0625,2.015625
450,450,1727897877920,0.114746094,-1.0217896,-0.14874268,4.390625,6.046875,5.296875
451,451,1727897877960,0.16308594,-1.1189575,-0.26837158,0.71875,2.921875,-0.890625
452,452,1727897878000,0.11328125,-1.0825806,-0.17852783,10.203125,1.515625,-3.09375
453,453,1727897878040,0.099609375,-1.0125122,-0.24957275,9.03125,1.109375,2.765625
454,454,1727897878080,0.14697266,-1.0769653,-0.28741455,-14.546875,6.046875,4.515625
455,455,1727897878120,0.18286133,-1.131897,-0.28961182,-16.828125,6.796875,-2.296875
456,456,1727897878160,0.13110352,-1.1221313,-0.2564087,-4.265625,2.671875,-3.0
457,457,1727897878200,0.118652344,-1.0344849,-0.2588501,10.359375,-0.859375,-2.59375
458,458,1727897878240,0.14233398,-0.91070557,-0.29595947,-0.953125,-5.578125,0.703125
459,459,1727897878280,0.087646484,-0.86260986,-0.24053955,-18.125,-4.4375,-0.546875
460,460,1727897878320,-0.015625,-0.9053345,-0.24664307,-20.6875,-1.796875,1.03125
461,461,1727897878360,-0.018066406,-0.9380493,-0.25274658,-10.59375,2.859375,1.3125
462,462,1727897878400,0.09399414,-0.9126587,-0.25982666,-1.015625,4.171875,-3.09375
463,463,1727897878440,0.111816406,-0.86553955,-0.190979,-3.296875,1.375,1.171875
464,464,1727897878480,0.06347656,-0.87506104,-0.14337158,-6.796875,-1.28125,3.640625
465,465,1727897878520,0.05053711,-0.9541626,-0.1194458,-6.5625,-2.875,5.671875
466,466,1727897878560,0.11401367,-0.9768677,-0.07305908,-2.6875,-9.015625,8.546875
467,467,1727897878600,0.106933594,-0.91607666,-0.10089111,1.125,-9.4375,1.0
468,468,1727897878640,0.009277344,-0.9067993,-0.09869385,-2.125,-3.875,-3.03125
469,469,1727897878680,-0.01171875,-0.93829346,-0.074035645,-0.421875,-4.171875,1.609375
470,470,1727897878720,0.07739258,-0.95806885,-0.05255127,2.46875,-2.78125,2.96875
471,471,1727897878760,0.06640625,-0.9590454,-0.06378174,1.328125,-5.71875,0.28125
472,472,1727897878800,0.03515625,-0.9343872,-0.08477783,0.21875,-3.546875,-1.015625
473,473,1727897878840,0.025878906,-0.9685669,-0.045959473,-1.765625,-2.4375,-1.0625
474,474,1727897878880,0.020263672,-0.9841919,-0.046203613,5.484375,-5.078125,-0.640625
475,475,1727897878920,-0.001953125,-0.93829346,-0.059631348,5.203125,-4.484375,-0.546875
476,476,1727897878960,0.03466797,-0.95440674,-0.05621338,-0.890625,-2.390625,2.375
477,477,1727897879000,0.095458984,-1.0283813,-0.101135254,-3.8125,-8.828125,4.0
478,478,1727897879040,0.11669922,-1.048645,-0.05230713,-5.671875,-10.765625,6.328125
479,479,1727897879080,0.111816406,-1.1428833,-0.12530518,4.484375,-5.015625,4.046875
480,480,1727897879120,0.13867188,-1.1777954,-0.13092041,-4.28125,-8.390625,2.75
481,481,1727897879160,0.0859375,-1.1248169,-0.08746338,0.171875,2.828125,-0.5625
482,482,1727897879200,0.1105957,-1.0991821,-0.12823486,-2.359375,9.03125,0.8125
483,483,1727897879240,0.21655273,-1.0440063,-0.11431885,-0.5625,6.796875,2.359375
484,484,1727897879280,0.25756836,-1.0227661,-0.11383057,0.453125,4.703125,-1.28125
485,485,1727897879320,0.21923828,-1.0095825,-0.12164307,3.96875,1.21875,-2.0
486,486,1727897879360,0.26879883,-0.9771118,-0.13409424,4.734375,-0.1875,-0.328125
487,487,1727897879400,0.33520508,-0.96173096,-0.1272583,1.875,-3.96875,2.953125
488,488,1727897879440,0.3215332,-0.93096924,-0.08453369,8.609375,-10.28125,2.921875
489,489,1727897879480,0.2043457,-0.87213135,-0.09869385,5.359375,-11.703125,0.09375
490,490,1727897879520,0.11450195,-0.8484497,-0.054992676,9.59375,-4.546875,1.046875
491,491,1727897879560,0.13867188,-0.8670044,-0.08526611,13.78125,1.875,0.390625
492,492,1727897879600,0.17456055,-0.8569946,-0.12530518,8.109375,3.78125,-3.53125
493,493,1727897879640,0.17773438,-0.89678955,-0.07940674,7.984375,6.171875,-1.109375
494,494,1727897879680,0.2175293,-0.86846924,-0.14508057,11.296875,2.609375,0.796875
495,495,1727897879720,0.24926758,-0.8501587,-0.12872314,10.71875,-1.265625,2.21875
496,496,1727897879760,0.18164062,-0.89385986,-0.12994385,9.828125,-4.75,2.359375
497,497,1727897879800,0.095947266,-0.9385376,-0.13897705,11.78125,-1.640625,-0.859375
498,498,1727897879840,0.087402344,-0.93829346,-0.15289307,11.21875,4.25,-2.6875
499,499,1727897879880,0.125,-0.94122314,-0.16851807,6.90625,8.5,0.234375
500,500,1727897879920,0.1616211,-0.9365845,-0.1519165,4.640625,6.984375,1.921875
501,501,1727897879960,0.15039062,-0.9451294,-0.17120361,8.265625,5.921875,-1.75
502,502,1727897880000,0.16455078,-0.96759033,-0.15631104,7.609375,5.296875,0.9375
503,503,1727897880040,0.13476562,-0.9404907,-0.14337158,1.265625,11.484375,-3.90625
504,504,1727897880080,0.04248047,-0.9414673,-0.13458252,-6.59375,14.90625,-4.28125
505,505,1727897880120,0.07495117,-0.96099854,-0.15631104,-2.765625,15.625,-5.078125
506,506,1727897880160,0.19580078,-1.0325317,-0.21368408,-1.515625,9.34375,2.15625
507,507,1727897880200,0.26757812,-1.098938,-0.26861572,1.078125,3.59375,1.671875
508,508,1727897880240,0.16210938,-1.0957642,-0.24102783,-1.0,1.765625,-4.515625
509,509,1727897880280,0.09472656,-1.0615845,-0.22955322,1.0625,3.40625,-4.234375
510,510,1727897880320,0.10058594,-1.0645142,-0.25372314,-6.46875,5.78125,-1.640625
511,511,1727897880360,0.12890625,-1.0603638,-0.24957275,-11.765625,9.203125,-2.8125
512,512,1727897880400,0.19506836,-1.0767212,-0.2312622,-0.34375,4.9375,-6.3125
513,513,1727897880440,0.19433594,-1.0264282,-0.25445557,-4.203125,-1.078125,-4.859375
514,514,1727897880480,0.119628906,-0.9819946,-0.27349854,-16.453125,0.90625,-0.375
515,515,1727897880520,0.05444336,-0.8921509,-0.2432251,-21.671875,2.75,-1.734375
516,516,1727897880560,0.00390625,-0.88067627,-0.2539673,-7.515625,1.609375,-1.859375
517,517,1727897880600,0.07543945,-0.8555298,-0.23809814,-5.328125,-2.640625,-2.1875
518,518,1727897880640,0.103759766,-0.88726807,-0.1831665,-7.171875,-1.578125,-3.234375
519,519,1727897880680,0.06713867,-0.9085083,-0.17608643,-4.125,-4.046875,-3.90625
520,520,1727897880720,0.017822266,-0.9246216,-0.17852783,-2.296875,-3.453125,1.6875
521,521,1727897880760,0.049316406,-0.94317627,-0.13580322,0.875,-2.90625,3.1875
522,522,1727897880800,0.08227539,-0.96343994,-0.10089111,6.46875,-5.796875,2.453125
523,523,1727897880840,0.05859375,-0.9373169,-0.10650635,9.015625,-7.90625,-0.609375
524,524,1727897880880,-0.020507812,-0.9365845,-0.13702393,8.671875,-3.421875,-1.140625
525,525,1727897880920,-0.0041503906,-0.89727783,-0.12628174,8.15625,-1.96875,3.5625
526,526,1727897880960,0.09790039,-0.91900635,-0.14215088,-1.296875,-3.03125,4.109375
527,527,1727897881000,0.06591797,-0.9714966,-0.10601807,-1.796875,-4.4375,0.96875
528,528,1727897881040,-0.009033203,-0.9627075,-0.1026001,9.5625,-3.890625,1.671875
529,529,1727897881080,0.011962891,-0.9522095,-0.1338501,8.609375,-3.703125,3.15625
530,530,1727897881120,0.056152344,-0.93341064,-0.10430908,7.765625,-1.859375,0.734375
531,531,1727897881160,0.048095703,-0.9468384,-0.11187744,0.625,-5.359375,3.515625
532,532,1727897881200,0.059326172,-0.956604,-0.10406494,-3.921875,-8.265625,6.71875
533,533,1727897881240,0.13452148,-1.0110474,-0.18585205,-16.015625,-12.03125,7.828125
534,534,1727897881280,0.12084961,-1.0628052,-0.12921143,-3.828125,-7.015625,11.09375
535,535,1727897881320,0.16259766,-1.0747681,-0.14654541,4.765625,-9.609375,1.203125
536,536,1727897881360,0.060546875,-1.0523071,-0.159729,4.484375,-7.140625,-2.1875
537,537,1727897881400,0.07543945,-1.0574341,-0.14068604,1.578125,-4.140625,-0.078125
538,538,1727897881440,0.16357422,-1.1275024,-0.1716919,-8.40625,-4.109375,-2.265625
539,539,1727897881480,0.15917969,-1.1741333,-0.13653564,-5.546875,-4.078125,-3.515625
540,540,1727897881520,0.13085938,-1.1919556,-0.17095947,0.5625,1.84375,-2.625
541,541,1727897881560,0.17333984,-1.0801392,-0.17047119,5.453125,4.84375,-3.109375
542,542,1727897881600,0.2692871,-0.9475708,-0.2000122,5.953125,2.6875,-2.078125
543,543,1727897881640,0.35229492,-0.88409424,-0.20758057,1.328125,-1.65625,-0.59375
544,544,1727897881680,0.3112793,-0.9036255,-0.18048096,0.0,-9.78125,2.0625
545,545,1727897881720,0.21191406,-0.8748169,-0.1026001,-0.0625,-11.609375,1.140625
546,546,1727897881760,0.15600586,-0.85406494,-0.0803833,12.078125,-3.484375,-3.71875
547,547,1727897881800,0.103515625,-0.87823486,-0.17681885,10.046875,2.1875,-4.5625
548,548,1727897881840,0.1430664,-0.8694458,-0.14190674,5.71875,5.359375,-3.0625
549,549,1727897881880,0.19750977,-0.8933716,-0.14312744,4.375,4.90625,-5.6875
550,550,1727897881920,0.17700195,-0.9417114,-0.10675049,12.078125,-0.265625,-2.28125
551,551,1727897881960,0.13134766,-0.88360596,-0.1260376,19.234375,-0.96875,-0.4375
552,552,1727897882000,0.09350586,-0.8599243,-0.14776611,7.625,1.125,-0.703125
553,553,1727897882040,0.080566406,-0.8814087,-0.11871338,6.359375,3.9375,-0.515625
554,554,1727897882080,0.076171875,-0.90875244,-0.16290283,9.421875,6.0625,-1.828125
555,555,1727897882120,0.11303711,-0.9360962,-0.17047119,9.6875,4.5625,1.890625
556,556,1727897882160,0.11694336,-0.92437744,-0.159729,5.140625,4.375,-0.015625
557,557,1727897882200,0.10131836,-0.95635986,-0.17218018,4.765625,3.671875,-0.71875
558,558,1727897882240,0.059326172,-0.9649048,-0.14483643,7.484375,9.875,-4.984375
559,559,1727897882280,0.015380859,-0.87579346,-0.14459229,2.03125,13.09375,-4.0
560,560,1727897882320,0.020019531,-0.93951416,-0.13653564,-12.28125,16.953125,-4.265625
561,561,1727897882360,0.13305664,-1.0244751,-0.1843872,-9.84375,11.421875,-2.703125
562,562,1727897882400,0.21948242,-1.1797485,-0.30426025,-3.25,3.890625,3.296875
563,563,1727897882440,0.10913086,-1.2102661,-0.26861572,-6.40625,3.234375,-2.484375
564,564,1727897882480,0.1105957,-1.1968384,-0.31793213,6.203125,0.96875,8.078125
565,565,1727897882520,0.20166016,-1.1206665,-0.25787354,-11.71875,6.015625,2.296875
566,566,1727897882560,0.14624023,-1.0283813,-0.25787354,-13.84375,8.609375,1.109375
567,567,1727897882600,0.16088867,-1.03302,-0.28692627,-26.140625,2.765625,0.984375
568,568,1727897882640,0.10424805,-1.0342407,-0.29400635,-19.21875,1.9375,-3.21875
569,569,1727897882680,0.05029297,-0.8882446,-0.2756958,-3.90625,4.046875,-0.3125
570,570,1727897882720,0.10058594,-0.8501587,-0.25836182,-7.625,5.25,-3.53125
571,571,1727897882760,0.107421875,-0.8779907,-0.16192627,-9.234375,1.09375,-5.875
572,572,1727897882800,0.057861328,-0.86309814,-0.15509033,-3.53125,-2.5625,-2.796875
573,573,1727897882840,0.032714844,-0.82159424,-0.14068604,-1.734375,-1.078125,1.265625
574,574,1727897882880,0.072265625,-0.84576416,-0.15142822,-0.9375,-3.765625,5.578125
575,575,1727897882920,0.09814453,-0.8821411,-0.09234619,-0.328125,-8.59375,4.734375
576,576,1727897882960,0.0715332,-0.92266846,-0.09259033,2.46875,-13.40625,2.875
577,577,1727897883000,0.0017089844,-0.9517212,-0.10040283,8.859375,-8.71875,-0.515625
578,578,1727897883040,0.0012207031,-0.99005127,-0.13531494,10.875,-5.75,0.09375
579,579,1727897883080,0.061523438,-0.9758911,-0.0947876,11.328125,-5.9375,3.515625
580,580,1727897883120,0.06542969,-0.94122314,-0.11773682,12.171875,-8.484375,1.0
581,581,1727897883160,0.017578125,-0.9307251,-0.13800049,6.03125,-8.609375,-1.171875
582,582,1727897883200,0.008544922,-0.8855591,-0.09112549,5.34375,-5.421875,0.203125
583,583,1727897883240,0.021484375,-0.9299927,-0.11383057,4.640625,-3.765625,0.828125
584,584,1727897883280,-0.00024414062,-0.99957275,-0.15875244,-2.390625,-4.578125,2.71875
585,585,1727897883320,0.044921875,-0.972229,-0.0713501,1.125,-4.640625,0.9375
586,586,1727897883360,0.048095703,-1.0256958,-0.11212158,-9.421875,-7.8125,-1.203125
587,587,1727897883400,0.044921875,-1.0244751,-0.10992432,-11.515625,-5.1875,0.34375
588,588,1727897883440,0.064453125,-1.0818481,-0.09136963,-0.6875,-2.28125,2.484375
589,589,1727897883480,0.15527344,-1.1470337,-0.15289307,-3.25,-12.328125,-0.859375
590,590,1727897883520,0.043945312,-1.1939087,-0.17120361,-4.90625,-4.625,-5.671875
591,591,1727897883560,0.021972656,-1.2026978,-0.17193604,-1.0,3.8125,0.359375
592,592,1727897883600,0.17773438,-1.1792603,-0.13873291,-4.09375,5.453125,2.71875
593,593,1727897883640,0.20581055,-1.1004028,-0.16973877,-5.8125,3.25,-2.140625
594,594,1727897883680,0.2175293,-1.060852,-0.16217041,7.75,5.234375,0.5
595,595,1727897883720,0.33740234,-0.881897,-0.18121338,8.015625,6.140625,0.578125
596,596,1727897883760,0.34301758,-0.86602783,-0.15460205,-2.78125,-6.578125,0.96875
597,597,1727897883800,0.19995117,-0.881897,-0.093322754,4.40625,-13.34375,2.09375
598,598,1727897883840,0.08178711,-0.8550415,-0.12188721,9.4375,-8.234375,-0.140625
599,599,1727897883880,0.118896484,-0.8286743,-0.09210205,7.46875,-2.0,1.171875
600,600,1727897883920,0.15600586,-0.84576416,-0.08795166,6.234375,3.921875,-3.90625
601,601,1727897883960,0.13134766,-0.9026489,-0.074523926,6.03125,4.75,-7.75
602,602,1727897884000,0.11987305,-0.8804321,-0.13238525,12.0625,3.0625,-4.84375
603,603,1727897884040,0.15625,-0.85772705,-0.124816895,9.796875,1.109375,-0.53125
604,604,1727897884080,0.14233398,-0.8755493,-0.12579346,10.015625,1.828125,-0.953125
605,605,1727897884120,0.11303711,-0.95758057,-0.11846924,14.09375,1.171875,0.40625
606,606,1727897884160,0.07714844,-0.93756104,-0.16119385,12.15625,3.5625,-2.109375
607,607,1727897884200,0.06274414,-0.9019165,-0.17120361,8.625,6.109375,-1.375
608,608,1727897884240,0.11743164,-0.9663696,-0.16534424,3.03125,4.8125,1.640625
609,609,1727897884280,0.10058594,-0.9961548,-0.18048096,5.703125,6.59375,-1.09375
610,610,1727897884320,0.072265625,-0.9614868,-0.17242432,4.734375,7.6875,-0.9375
611,611,1727897884360,0.0637207,-0.9417114,-0.16021729,1.875,9.546875,-3.671875
612,612,1727897884400,0.050048828,-0.9944458,-0.1638794,-1.734375,12.59375,-2.515625
613,613,1727897884440,0.100097656,-1.046936,-0.16436768,-8.265625,11.875,0.203125
614,614,1727897884480,0.15161133,-1.1104126,-0.24346924,0.265625,6.046875,3.828125
615,615,1727897884520,0.13671875,-1.0911255,-0.22515869,4.015625,3.578125,-2.796875
616,616,1727897884560,0.07714844,-1.1060181,-0.2144165,-0.515625,1.90625,0.109375
617,617,1727897884600,0.115722656,-1.1277466,-0.24615479,-1.390625,2.9375,-0.015625
618,618,1727897884640,0.09814453,-1.083313,-0.29083252,-4.046875,5.25,-0.96875
619,619,1727897884680,0.12158203,-1.0071411,-0.24005127,-0.671875,2.921875,-1.59375
620,620,1727897884720,0.12792969,-0.96832275,-0.2732544,4.515625,1.078125,1.578125
621,621,1727897884760,0.06347656,-0.91363525,-0.38116455,-13.078125,0.734375,6.03125
622,622,1727897884800,0.045166016,-0.8755493,-0.29962158,-13.609375,5.59375,3.34375
623,623,1727897884840,0.0625,-0.85357666,-0.28375244,0.453125,2.3125,-3.765625
624,624,1727897884880,0.084228516,-0.7991333,-0.23809814,-7.359375,-1.65625,-2.203125
625,625,1727897884920,-0.02758789,-0.817688,-0.20318604,-7.171875,2.203125,-0.3125
626,626,1727897884960,-0.009033203,-0.92144775,-0.19122314,0.078125,3.234375,7.3125
627,627,1727897885000,0.1430664,-0.97320557,-0.16534424,0.875,-3.453125,9.265625
628,628,1727897885040,0.16894531,-0.9590454,-0.17462158,4.84375,-10.734375,5.28125
629,629,1727897885080,0.0234375,-0.92144775,-0.17584229,1.71875,-8.5625,-4.4375
630,630,1727897885120,-0.050048828,-0.9104614,-0.20806885,8.5,-3.234375,-3.046875
631,631,1727897885160,0.072509766,-0.928772,-0.16265869,6.390625,-1.890625,6.015625
632,632,1727897885200,0.1574707,-0.8777466,-0.16314697,-0.125,-8.203125,0.078125
633,633,1727897885240,0.030273438,-0.9067993,-0.16973877,-9.53125,-7.828125,-1.25
634,634,1727897885280,-0.029785156,-0.9751587,-0.1519165,-7.515625,-3.5,1.6875
635,635,1727897885320,0.008056641,-0.9800415,-0.13482666,-0.203125,-0.34375,0.015625
636,636,1727897885360,0.016845703,-0.9368286,-0.12872314,3.40625,-0.078125,3.09375
637,637,1727897885400,0.07006836,-0.98101807,-0.14239502,-11.140625,-3.109375,7.234375
638,638,1727897885440,0.13500977,-1.0703735,-0.15338135,-24.625,-5.984375,4.875
639,639,1727897885480,0.114990234,-1.0994263,-0.077697754,-7.328125,-3.234375,1.4375
640,640,1727897885520,0.14526367,-1.1768188,-0.12164307,-4.21875,-10.78125,-2.109375
641,641,1727897885560,0.06298828,-1.1426392,-0.09625244,0.046875,-4.359375,-5.78125
642,642,1727897885600,0.049072266,-1.1155396,-0.121154785,-2.34375,0.71875,-0.765625
643,643,1727897885640,0.10913086,-1.1277466,-0.1104126,-11.890625,7.9375,1.09375
644,644,1727897885680,0.15844727,-1.1113892,-0.108947754,-8.453125,8.921875,0.609375
645,645,1727897885720,0.22387695,-0.98687744,-0.15264893,1.421875,7.609375,-0.703125
646,646,1727897885760,0.3232422,-0.94195557,-0.128479,6.5,2.84375,0.234375
647,647,1727897885800,0.3395996,-0.93414307,-0.10870361,2.28125,-10.1875,1.390625
648,648,1727897885840,0.2758789,-0.85601807,-0.08282471,8.078125,-14.734375,2.90625
649,649,1727897885880,0.12084961,-0.82037354,-0.07989502,11.078125,-10.34375,-1.703125
650,650,1727897885920,0.05419922,-0.8521118,-0.08355713,8.34375,-3.28125,0.046875
651,651,1727897885960,0.1850586,-0.8921509,-0.05206299,9.515625,0.59375,1.671875
652,652,1727897886000,0.19726562,-0.9158325,-0.066711426,16.09375,-0.734375,-2.21875
653,653,1727897886040,0.15893555,-0.88848877,-0.12310791,11.46875,-2.46875,0.453125
654,654,1727897886080,0.15136719,-0.84088135,-0.09088135,11.453125,-3.015625,1.328125
655,655,1727897886120,0.15991211,-0.8843384,-0.10699463,17.484375,-1.34375,2.0625
656,656,1727897886160,0.15429688,-0.9360962,-0.11187744,15.921875,-0.78125,2.578125
657,657,1727897886200,0.1105957,-0.9290161,-0.1404419,18.375,2.65625,-1.078125
658,658,1727897886240,0.115478516,-0.9060669,-0.15411377,11.0625,4.203125,-0.828125
659,659,1727897886280,0.15478516,-0.9072876,-0.12579346,8.0625,4.703125,-1.421875
660,660,1727897886320,0.16967773,-0.9685669,-0.17803955,5.875,3.015625,-1.1875
661,661,1727897886360,0.14160156,-0.9939575,-0.144104,0.90625,4.5625,-4.109375
662,662,1727897886400,0.060302734,-1.0046997,-0.15679932,-1.796875,9.734375,-9.078125
663,663,1727897886440,0.0871582,-1.0549927,-0.21002197,-5.390625,8.359375,-4.84375
664,664,1727897886480,0.1538086,-1.1130981,-0.25030518,-3.140625,5.6875,-1.53125
665,665,1727897886520,0.19116211,-1.1243286,-0.25421143,0.75,2.71875,-4.59375
666,666,1727897886560,0.140625,-1.1533813,-0.2756958,-1.375,3.578125,-2.765625
667,667,1727897886600,0.1665039,-1.0879517,-0.31378174,-3.578125,2.71875,-2.90625
668,668,1727897886640,0.14794922,-1.008606,-0.2949829,-13.125,2.46875,-2.515625
669,669,1727897886680,0.15039062,-0.9702759,-0.2871704,-12.453125,-0.015625,1.421875
670,670,1727897886720,0.12817383,-0.8909302,-0.27349854,-9.84375,-1.0,1.25
671,671,1727897886760,0.06542969,-0.86798096,-0.28912354,-5.921875,-1.4375,-0.609375
672,672,1727897886800,0.06738281,-0.89849854,-0.2456665,-9.09375,-1.09375,-1.84375
673,673,1727897886840,0.11987305,-0.911438,-0.255188,-3.5625,0.09375,-1.3125
674,674,1727897886880,0.100097656,-0.8352661,-0.23077393,-7.703125,1.671875,-5.140625
675,675,1727897886920,-0.014404297,-0.83135986,-0.19537354,-5.640625,3.890625,-1.75
676,676,1727897886960,0.037841797,-0.90948486,-0.16802979,1.390625,5.125,1.1875
677,677,1727897887000,0.14624023,-0.99542236,-0.16290283,-1.71875,-2.921875,3.578125
678,678,1727897887040,0.15795898,-0.9578247,-0.12896729,-1.9375,-7.703125,1.390625
679,679,1727897887080,0.037597656,-0.91973877,-0.13580322,2.8125,-6.703125,-1.515625
680,680,1727897887120,-0.009765625,-0.90948486,-0.14190674,-4.9375,-4.40625,-0.875
681,681,1727897887160,0.060546875,-0.9277954,-0.09967041,1.234375,-1.515625,1.734375
682,682,1727897887200,0.08984375,-0.9631958,-0.116760254,2.109375,-5.46875,1.21875
683,683,1727897887240,0.021240234,-0.9224243,-0.09649658,0.34375,-3.65625,-0.796875
684,684,1727897887280,-0.02368164,-0.9365845,-0.10797119,-2.234375,0.875,0.8125
685,685,1727897887320,0.02758789,-0.98394775,-0.08135986,-4.234375,1.4375,2.328125
686,686,1727897887360,0.01977539,-0.9780884,-0.061828613,1.5625,0.546875,2.0
687,687,1727897887400,0.0041503906,-0.95391846,-0.06549072,-2.9375,0.953125,4.8125
688,688,1727897887440,0.052001953,-0.9714966,-0.034240723,-9.96875,0.53125,6.25
689,689,1727897887480,0.10180664,-0.98150635,-0.117004395,-16.59375,-3.65625,7.109375
690,690,1727897887520,0.122558594,-1.0425415,-0.025939941,-3.796875,1.28125,6.984375
691,691,1727897887560,0.13623047,-1.107727,-0.06451416,1.9375,-8.6875,-1.21875
692,692,1727897887600,0.04296875,-1.1126099,-0.08746338,-2.328125,-8.296875,-1.53125
693,693,1727897887640,0.053466797,-1.0767212,-0.07330322,2.890625,1.75,0.90625
694,694,1727897887680,0.1862793,-1.1277466,-0.11553955,-6.96875,-2.4375,0.203125
695,695,1727897887720,0.19921875,-1.1836548,-0.06842041,-7.890625,-6.15625,-1.453125
696,696,1727897887760,0.11621094,-1.1694946,-0.074279785,-0.75,-2.4375,-1.703125
697,697,1727897887800,0.2043457,-1.1035767,-0.12261963,5.828125,0.453125,1.609375
698,698,1727897887840,0.36010742,-0.9668579,-0.14752197,5.296875,-1.796875,0.65625
699,699,1727897887880,0.32714844,-0.897522,-0.10211182,0.390625,-10.328125,1.390625
700,700,1727897887920,0.23925781,-0.89556885,-0.05279541,1.890625,-19.015625,1.640625
701,701,1727897887960,0.16601562,-0.84820557,-0.01739502,7.65625,-10.03125,-1.078125
702,702,1727897888000,0.07446289,-0.82769775,-0.06768799,11.859375,1.84375,-3.296875
703,703,1727897888040,0.10644531,-0.8574829,-0.09259033,6.875,7.46875,-4.3125
704,704,1727897888080,0.18334961,-0.8760376,-0.04937744,9.140625,7.359375,-6.5
705,705,1727897888120,0.21118164,-0.927063,-0.054504395,8.28125,3.375,-6.25
706,706,1727897888160,0.20092773,-0.92266846,-0.046691895,14.015625,1.8125,-3.9375
707,707,1727897888200,0.10205078,-0.87750244,-0.08331299,7.734375,1.234375,-5.828125
708,708,1727897888240,0.056640625,-0.9155884,-0.089904785,9.25,1.390625,-3.34375
709,709,1727897888280,0.049804688,-0.9006958,-0.101135254,17.3125,3.421875,-2.921875
710,710,1727897888320,0.099609375,-0.93878174,-0.113586426,14.4375,3.875,-0.609375
711,711,1727897888360,0.10058594,-0.94000244,-0.1116333,9.0,4.609375,-1.0625
712,712,1727897888400,0.064941406,-0.98443604,-0.13311768,4.859375,4.671875,-2.734375
713,713,1727897888440,0.044189453,-0.95684814,-0.11651611,2.5625,4.75,-3.421875
714,714,1727897888480,0.03857422,-0.9417114,-0.1038208,4.5625,5.65625,-0.765625
715,715,1727897888520,0.052978516,-0.93634033,-0.07183838,0.25,9.25,-3.625
716,716,1727897888560,0.057373047,-0.9902954,-0.07940674,-12.09375,7.84375,-3.765625
717,717,1727897888600,0.03881836,-1.02594,-0.09210205,-8.125,8.09375,-4.234375
718,718,1727897888640,0.0847168,-1.0635376,-0.15509033,-1.53125,4.3125,3.65625
719,719,1727897888680,0.10131836,-1.1587524,-0.18292236,-4.375,1.796875,-0.28125
720,720,1727897888720,0.0146484375,-1.1436157,-0.16925049,14.0625,3.640625,-1.6875
721,721,1727897888760,0.119140625,-1.133606,-0.24005127,4.40625,1.8125,6.953125
722,722,1727897888800,0.17138672,-1.1206665,-0.24932861,-1.203125,6.609375,-1.03125
723,723,1727897888840,0.14160156,-1.09552,-0.2539673,5.34375,0.21875,2.609375
724,724,1727897888880,0.16333008,-1.0366821,-0.23443604,0.078125,-1.578125,4.328125
725,725,1727897888920,0.115234375,-0.9812622,-0.28009033,-4.9375,-3.421875,2.4375
726,726,1727897888960,0.022460938,-0.86187744,-0.255188,-8.703125,-2.1875,6.75
727,727,1727897889000,0.037109375,-0.8076782,-0.23956299,-13.640625,3.78125,2.359375
728,728,1727897889040,0.095947266,-0.87286377,-0.24029541,-13.859375,5.0,-4.84375
729,729,1727897889080,0.10131836,-0.8740845,-0.17559814,-14.21875,2.9375,-3.65625
730,730,1727897889120,0.06518555,-0.86431885,-0.15655518,0.734375,4.078125,-1.671875
731,731,1727897889160,0.080322266,-0.9006958,-0.15216064,-0.53125,-2.234375,4.0
732,732,1727897889200,0.14208984,-0.97369385,-0.11016846,-4.859375,-8.6875,6.515625
733,733,1727897889240,0.09008789,-0.9932251,-0.09942627,-4.5,-12.28125,4.5
734,734,1727897889280,0.010498047,-0.9221802,-0.08380127,3.96875,-8.296875,0.328125
735,735,1727897889320,0.0078125,-0.9055786,-0.09893799,5.390625,-3.390625,-0.265625
736,736,1727897889360,0.06689453,-0.9307251,-0.07867432,3.078125,-2.375,1.828125
737,737,1727897889400,0.08911133,-0.9397583,-0.051086426,2.109375,-4.421875,0.875
738,738,1727897889440,0.015625,-0.9133911,-0.058166504,2.15625,-3.9375,-0.71875
739,739,1727897889480,-0.022216797,-0.94122314,-0.09454346,0.921875,-1.28125,1.546875
740,740,1727897889520,0.0087890625,-0.9871216,-0.06793213,-3.359375,0.109375,0.828125
741,741,1727897889560,0.014404297,-1.0010376,-0.0725708,11.25,-0.171875,-0.234375
742,742,1727897889600,0.020019531,-1.0003052,-0.09307861,9.8125,-2.15625,0.1875
743,743,1727897889640,0.051757812,-0.9937134,-0.06304932,-7.3125,-4.515625,2.640625
744,744,1727897889680,0.12915039,-1.0154419,-0.10772705,-7.46875,-7.671875,6.1875
745,745,1727897889720,0.15258789,-1.1101685,-0.116760254,-3.5625,-8.9375,3.59375
746,746,1727897889760,0.15625,-1.149231,-0.08062744,-8.34375,-15.59375,-0.53125
747,747,1727897889800,0.018554688,-1.2009888,-0.081604004,4.6875,-8.640625,-4.03125
748,748,1727897889840,0.049560547,-1.185852,-0.12823486,0.109375,1.703125,0.125
749,749,1727897889880,0.15014648,-1.130188,-0.14117432,-3.171875,6.078125,-0.90625
750,750,1727897889920,0.21289062,-1.0784302,-0.15020752,4.765625,2.875,-1.34375
751,751,1727897889960,0.30688477,-0.96661377,-0.15997314,7.03125,0.640625,1.578125
752,752,1727897890000,0.37329102,-0.8945923,-0.15533447,7.046875,-3.03125,3.171875
753,753,1727897890040,0.29467773,-0.8899536,-0.144104,3.609375,-9.171875,3.828125
754,754,1727897890080,0.17871094,-0.8562622,-0.11871338,5.1875,-11.3125,3.75
755,755,1727897890120,0.06982422,-0.8220825,-0.10235596,10.96875,-0.859375,-1.609375
756,756,1727897890160,0.09765625,-0.85113525,-0.12652588,14.984375,8.859375,-2.125
757,757,1727897890200,0.19921875,-0.847229,-0.14361572,8.859375,8.09375,-0.484375
758,758,1727897890240,0.22607422,-0.8875122,-0.08795166,4.9375,6.390625,-2.046875
759,759,1727897890280,0.20263672,-0.9241333,-0.13604736,6.75,1.640625,0.28125
