,Unnamed: 0,timestamp,accel_x,accel_y,accel_z,gyro_x,gyro_y,gyro_z
0,0,1727898596811,0.25146484,-0.95269775,-0.43878174,-1.96875,-3.125,8.578125
1,1,1727898596851,0.25463867,-0.9505005,-0.394104,-0.703125,-2.1875,8.03125
2,2,1727898596891,0.2746582,-0.8928833,-0.39312744,-0.28125,-5.53125,5.90625
3,3,1727898596931,0.18945312,-0.862854,-0.36090088,2.15625,-0.25,2.828125
4,4,1727898596971,0.13232422,-0.85650635,-0.36065674,4.9375,-0.4375,-0.09375
5,5,1727898597011,0.22338867,-0.81451416,-0.43170166,-2.21875,1.375,-1.84375
6,6,1727898597051,0.20898438,-0.84747314,-0.31329346,2.734375,4.296875,-1.0625
7,7,1727898597091,0.23071289,-0.8899536,-0.2695923,-4.28125,0.09375,-2.53125
8,8,1727898597131,0.15283203,-0.8870239,-0.27349854,-2.25,-2.515625,-8.234375
9,9,1727898597171,0.07470703,-0.87677,-0.25543213,-2.5,5.234375,-11.828125
10,10,1727898597211,0.107177734,-0.831604,-0.31207275,-0.078125,6.4375,-9.8125
11,11,1727898597251,0.14379883,-0.83258057,-0.2774048,-3.375,3.6875,-5.84375
12,12,1727898597291,0.15356445,-0.8735962,-0.31695557,1.734375,-3.4375,-3.3125
13,13,1727898597331,0.099609375,-0.895813,-0.28863525,-2.328125,3.203125,-3.546875
14,14,1727898597371,0.14282227,-0.90948486,-0.25543213,0.890625,-1.8125,-6.109375
15,15,1727898597411,0.09106445,-0.95635986,-0.24151611,-2.671875,-1.390625,-3.359375
16,16,1727898597451,0.055664062,-0.94976807,-0.28692627,0.625,3.484375,-1.078125
17,17,1727898597491,0.1628418,-0.93170166,-0.2852173,1.625,-7.3125,-0.171875
18,18,1727898597531,0.0625,-0.9031372,-0.19976807,-1.34375,-2.546875,1.21875
19,19,1727898597571,0.07421875,-0.9390259,-0.23272705,-2.0,3.984375,1.78125
20,20,1727898597611,0.0637207,-0.927063,-0.2744751,-2.9375,-4.015625,3.0625
21,21,1727898597651,0.1171875,-0.9151001,-0.22125244,1.265625,0.6875,2.09375
22,22,1727898597691,0.08178711,-0.96710205,-0.19683838,-3.796875,0.296875,1.25
23,23,1727898597731,0.04296875,-0.9805298,-0.19464111,-2.359375,4.484375,-1.09375
24,24,1727898597771,0.08984375,-0.97735596,-0.20758057,-2.5625,2.28125,-0.578125
25,25,1727898597811,0.07788086,-0.9612427,-0.19976807,-0.8125,3.71875,1.1875
26,26,1727898597851,0.110839844,-0.9585571,-0.21099854,1.578125,5.234375,2.515625
27,27,1727898597891,0.12011719,-0.95098877,-0.17144775,0.1875,0.875,3.734375
28,28,1727898597931,0.14453125,-0.9595337,-0.17486572,2.875,-0.390625,2.609375
29,29,1727898597971,0.08911133,-0.923645,-0.16802979,5.046875,1.34375,1.6875
30,30,1727898598011,0.1352539,-0.96539307,-0.21148682,6.15625,5.53125,2.34375
31,31,1727898598051,0.16821289,-1.029602,-0.24371338,9.046875,-6.828125,3.375
32,32,1727898598091,0.044189453,-1.0713501,-0.24932861,6.796875,7.453125,1.109375
33,33,1727898598131,0.07324219,-1.1245728,-0.23052979,2.234375,10.875,-2.59375
34,34,1727898598171,0.123046875,-1.1831665,-0.2498169,5.453125,6.5,-3.28125
35,35,1727898598211,0.16455078,-1.1975708,-0.38287354,-2.296875,-2.625,-7.046875
36,36,1727898598251,0.14624023,-1.1929321,-0.32403564,4.15625,4.109375,-8.828125
37,37,1727898598291,0.053710938,-0.9517212,-0.2798462,-2.40625,10.078125,-10.25
38,38,1727898598331,0.09033203,-0.84942627,-0.36016846,-4.890625,5.140625,-6.046875
39,39,1727898598371,0.036376953,-0.8569946,-0.35894775,-1.484375,7.9375,-4.21875
40,40,1727898598411,0.012451172,-0.80670166,-0.42266846,-2.046875,13.21875,-3.75
41,41,1727898598451,0.005126953,-0.7913208,-0.35064697,-1.8125,15.6875,-1.96875
42,42,1727898598491,0.02319336,-0.8369751,-0.36212158,-2.46875,8.71875,0.484375
43,43,1727898598531,0.024169922,-0.90167236,-0.31085205,0.625,6.390625,2.984375
44,44,1727898598571,0.030517578,-0.8892212,-0.29449463,0.34375,5.203125,3.140625
45,45,1727898598611,0.032470703,-0.89678955,-0.27471924,-0.734375,0.75,3.015625
46,46,1727898598651,-0.022949219,-0.8555298,-0.2588501,1.0625,1.390625,1.5
47,47,1727898598691,0.03540039,-0.8760376,-0.26568604,3.34375,-0.46875,0.578125
48,48,1727898598731,0.013183594,-0.86846924,-0.25665283,0.125,-3.171875,0.75
49,49,1727898598771,-0.026367188,-0.87164307,-0.24517822,2.59375,-0.96875,-0.109375
50,50,1727898598811,0.0075683594,-0.94854736,-0.26885986,-0.25,-1.078125,-0.1875
51,51,1727898598851,-0.024414062,-0.93756104,-0.286438,-4.421875,-0.734375,0.53125
52,52,1727898598891,0.064453125,-0.9324341,-0.2625122,3.90625,-2.5,2.078125
53,53,1727898598931,0.07080078,-0.93170166,-0.22662354,-2.359375,-4.34375,4.296875
54,54,1727898598971,0.040527344,-0.95269775,-0.22418213,-2.75,-1.859375,3.96875
55,55,1727898599011,-0.011230469,-0.93341064,-0.24810791,-1.1875,-5.796875,-0.25
56,56,1727898599051,0.014892578,-1.0298462,-0.23272705,-0.140625,-5.453125,-1.875
57,57,1727898599091,0.02758789,-0.9631958,-0.2925415,4.65625,-7.0,-2.40625
58,58,1727898599131,0.026123047,-0.97052,-0.2546997,5.0625,-5.75,0.421875
59,59,1727898599171,0.021240234,-0.9727173,-0.24176025,3.546875,-9.390625,0.65625
60,60,1727898599211,0.029296875,-0.942688,-0.27764893,4.765625,-7.15625,0.5625
61,61,1727898599251,0.053466797,-0.9795532,-0.23883057,5.546875,-10.53125,0.890625
62,62,1727898599291,-0.01977539,-1.0176392,-0.2420044,-1.109375,-5.078125,-0.484375
63,63,1727898599331,0.019042969,-1.0112915,-0.28497314,5.484375,-3.84375,-0.5
64,64,1727898599371,0.10668945,-1.03302,-0.31158447,2.6875,-6.6875,4.078125
65,65,1727898599411,0.10620117,-1.0562134,-0.3328247,-0.21875,-2.171875,6.328125
66,66,1727898599451,0.0390625,-1.0437622,-0.362854,1.84375,1.609375,6.28125
67,67,1727898599491,0.111572266,-1.0098267,-0.38824463,1.34375,2.40625,3.734375
68,68,1727898599531,0.19482422,-1.0210571,-0.3406372,-2.390625,-0.90625,6.6875
69,69,1727898599571,0.2578125,-1.0147095,-0.30889893,-7.453125,-0.671875,10.65625
70,70,1727898599611,0.21020508,-0.9421997,-0.270813,-7.921875,1.625,11.25
71,71,1727898599651,0.18237305,-0.8928833,-0.3274536,0.71875,-2.640625,6.5625
72,72,1727898599691,0.22924805,-0.8147583,-0.37750244,4.546875,-3.09375,4.734375
73,73,1727898599731,0.23852539,-0.84625244,-0.30645752,-0.890625,-1.6875,4.25
74,74,1727898599771,0.19628906,-0.831604,-0.2732544,0.453125,-5.8125,1.140625
75,75,1727898599811,0.14086914,-0.76519775,-0.27130127,2.203125,-3.296875,-4.125
76,76,1727898599851,0.16259766,-0.81988525,-0.30010986,0.53125,-4.859375,-6.59375
77,77,1727898599891,0.21459961,-0.88165283,-0.2564087,1.15625,-2.984375,-2.265625
78,78,1727898599931,0.28735352,-0.92022705,-0.25372314,-4.546875,-5.28125,-1.515625
79,79,1727898599971,0.14624023,-0.9260864,-0.20880127,-0.796875,-4.78125,-5.125
80,80,1727898600011,0.12182617,-0.96295166,-0.24346924,-1.078125,2.4375,-5.828125
81,81,1727898600051,0.10498047,-0.91241455,-0.2144165,-4.296875,3.625,-6.625
82,82,1727898600091,0.13671875,-0.89312744,-0.2312622,-3.40625,2.078125,-5.09375
83,83,1727898600131,0.15454102,-0.91363525,-0.20587158,-3.8125,0.6875,-1.4375
84,84,1727898600171,0.17553711,-0.95269775,-0.20391846,2.765625,-1.609375,1.28125
85,85,1727898600211,0.14575195,-0.9578247,-0.1638794,-2.171875,1.03125,1.203125
86,86,1727898600251,0.12060547,-0.95977783,-0.17999268,4.9375,1.171875,0.546875
87,87,1727898600291,0.15136719,-0.9717407,-0.16949463,1.84375,-0.8125,1.875
88,88,1727898600331,0.110839844,-0.95147705,-0.15362549,1.0625,0.28125,1.84375
89,89,1727898600371,0.13842773,-0.9043579,-0.17828369,2.8125,0.09375,1.5625
90,90,1727898600411,0.099853516,-0.88653564,-0.14703369,-1.296875,2.828125,-0.0625
91,91,1727898600451,0.064453125,-1.0308228,-0.16143799,-0.78125,1.84375,-2.328125
92,92,1727898600491,0.10107422,-0.9011841,-0.24298096,-1.421875,7.328125,-2.65625
93,93,1727898600531,0.16870117,-0.9133911,-0.2288208,5.765625,6.28125,0.40625
94,94,1727898600571,0.1184082,-0.9829712,-0.16461182,3.984375,4.96875,0.234375
95,95,1727898600611,0.1328125,-1.019104,-0.16070557,2.59375,3.328125,-3.515625
96,96,1727898600651,0.13916016,-0.9246216,-0.17901611,3.0,1.953125,-3.84375
97,97,1727898600691,0.16455078,-1.0205688,-0.20172119,4.046875,1.71875,0.953125
98,98,1727898600731,0.1274414,-1.0339966,-0.2234497,6.0,-1.59375,-1.71875
99,99,1727898600771,0.10913086,-1.0647583,-0.13702393,-0.953125,5.40625,-3.484375
100,100,1727898600811,0.14916992,-1.0298462,-0.12823486,-1.375,-1.078125,-2.21875
101,101,1727898600851,0.13671875,-0.99786377,-0.17852783,-0.9375,-2.171875,0.96875
102,102,1727898600891,0.11694336,-1.0979614,-0.22418213,0.390625,5.34375,0.34375
103,103,1727898600931,0.15527344,-1.1060181,-0.33599854,3.25,-2.53125,-3.015625
104,104,1727898600971,0.13867188,-1.130188,-0.33892822,3.25,5.5625,-4.96875
105,105,1727898601011,0.09716797,-0.98565674,-0.39508057,1.078125,6.359375,-8.328125
106,106,1727898601051,0.11254883,-0.9385376,-0.37261963,-2.234375,5.265625,-7.921875
107,107,1727898601091,0.09692383,-0.8994751,-0.37506104,-1.46875,6.984375,-2.71875
108,108,1727898601131,0.10668945,-0.84942627,-0.33892822,-1.65625,8.203125,-0.453125
109,109,1727898601171,0.04321289,-0.8804321,-0.36016846,-3.765625,5.15625,-1.671875
110,110,1727898601211,0.045654297,-0.8652954,-0.36749268,-1.21875,7.828125,-1.78125
111,111,1727898601251,0.088378906,-0.91900635,-0.3110962,2.921875,1.328125,-1.359375
112,112,1727898601291,0.046875,-0.9216919,-0.2774048,0.25,0.28125,-0.3125
113,113,1727898601331,0.008300781,-0.8953247,-0.2727661,0.375,2.96875,-2.671875
114,114,1727898601371,0.017822266,-0.90167236,-0.24078369,1.015625,1.875,-2.84375
115,115,1727898601411,0.028320312,-0.9011841,-0.24273682,-0.546875,-0.25,-2.90625
116,116,1727898601451,0.04321289,-0.82232666,-0.2600708,3.421875,-0.609375,-2.9375
117,117,1727898601491,0.020507812,-0.8609009,-0.19976807,-0.921875,0.75,-1.34375
118,118,1727898601531,0.013183594,-0.87872314,-0.27960205,-0.140625,-1.046875,-1.453125
119,119,1727898601571,0.057128906,-0.8882446,-0.31866455,1.125,-0.1875,-1.28125
120,120,1727898601611,0.019042969,-0.9636841,-0.19854736,-4.0625,-1.828125,-1.078125
121,121,1727898601651,0.053955078,-0.9299927,-0.22247314,-4.96875,0.546875,0.046875
122,122,1727898601691,0.08178711,-0.9607544,-0.25665283,-3.5625,-5.125,-0.125
123,123,1727898601731,0.07739258,-0.9776001,-0.22833252,-1.9375,-6.8125,-0.109375
124,124,1727898601771,0.060302734,-0.9102173,-0.1921997,-0.90625,-2.625,1.765625
125,125,1727898601811,0.006591797,-0.93536377,-0.190979,1.453125,-9.4375,-0.09375
126,126,1727898601851,-0.013427734,-0.9614868,-0.20172119,0.21875,-4.703125,-0.96875
127,127,1727898601891,0.029296875,-0.97857666,-0.23516846,3.40625,-7.03125,0.484375
128,128,1727898601931,0.005859375,-0.9385376,-0.21514893,4.703125,-6.25,-0.203125
129,129,1727898601971,-0.037597656,-0.9920044,-0.17388916,3.296875,2.21875,0.75
130,130,1727898602011,0.009033203,-1.000061,-0.21221924,4.96875,-3.15625,0.5625
131,131,1727898602051,0.06665039,-1.0054321,-0.2300415,1.21875,-3.078125,2.828125
132,132,1727898602091,0.03100586,-1.0317993,-0.21417236,1.515625,-5.609375,1.71875
133,133,1727898602131,0.009033203,-0.9751587,-0.1741333,1.515625,-3.3125,0.765625
134,134,1727898602171,0.044189453,-1.0435181,-0.2156372,3.328125,-9.515625,0.4375
135,135,1727898602211,0.0546875,-0.9963989,-0.22808838,1.1875,-3.640625,3.5625
136,136,1727898602251,0.02758789,-1.034729,-0.24664307,-3.84375,5.703125,4.25
137,137,1727898602291,0.055419922,-1.1272583,-0.25445557,-0.03125,-1.125,4.59375
138,138,1727898602331,0.107910156,-1.185852,-0.23468018,-9.515625,3.109375,7.234375
139,139,1727898602371,0.12768555,-1.2546997,-0.3352661,-9.359375,-1.828125,6.34375
140,140,1727898602411,0.21923828,-0.9702759,-0.3184204,-6.8125,-3.375,3.28125
141,141,1727898602451,0.20898438,-0.86187744,-0.18243408,-1.625,-3.1875,5.0
142,142,1727898602491,0.17602539,-0.9295044,-0.21392822,4.140625,-3.65625,3.90625
143,143,1727898602531,0.16918945,-0.881897,-0.25689697,12.9375,-3.71875,-1.078125
144,144,1727898602571,0.11376953,-0.84503174,-0.23223877,6.640625,1.78125,-2.984375
145,145,1727898602611,0.11303711,-0.86309814,-0.2432251,3.890625,4.640625,-3.921875
146,146,1727898602651,0.19384766,-0.82159424,-0.24078369,0.0625,2.578125,-0.046875
147,147,1727898602691,0.19140625,-0.91119385,-0.18511963,-6.625,2.09375,4.75
148,148,1727898602731,0.1940918,-0.8369751,-0.1897583,-3.4375,-0.828125,4.03125
149,149,1727898602771,0.16333008,-0.87384033,-0.18780518,-2.03125,0.65625,1.53125
150,150,1727898602811,0.14477539,-0.8406372,-0.18609619,1.8125,1.765625,0.15625
151,151,1727898602851,0.16015625,-0.87872314,-0.21246338,2.28125,1.40625,0.109375
152,152,1727898602891,0.16333008,-0.861145,-0.1729126,7.109375,-0.671875,1.609375
153,153,1727898602931,0.17163086,-0.99786377,-0.2029419,-0.34375,-5.3125,1.328125
154,154,1727898602971,0.14868164,-0.90948486,-0.2546997,1.328125,-8.34375,-1.640625
155,155,1727898603011,0.17260742,-0.942688,-0.2288208,5.265625,2.875,2.09375
156,156,1727898603051,0.13916016,-0.95806885,-0.20684814,8.21875,-1.46875,-0.078125
157,157,1727898603091,0.11743164,-0.9414673,-0.19464111,6.625,2.234375,0.046875
158,158,1727898603131,0.1430664,-0.8882446,-0.20245361,3.515625,4.953125,-0.578125
159,159,1727898603171,0.114990234,-0.9505005,-0.17486572,-0.375,-0.71875,-2.234375
160,160,1727898603211,0.061523438,-0.8862915,-0.1651001,0.328125,11.6875,-4.625
161,161,1727898603251,0.11279297,-0.93756104,-0.21368408,2.265625,8.078125,-4.609375
162,162,1727898603291,0.13061523,-0.97662354,-0.18634033,-2.359375,5.359375,-3.609375
163,163,1727898603331,0.12402344,-1.029602,-0.17559814,1.328125,4.515625,-4.171875
164,164,1727898603371,0.17333984,-0.9902954,-0.27886963,4.625,1.671875,-4.390625
165,165,1727898603411,0.076171875,-0.9783325,-0.25860596,5.390625,8.015625,-1.984375
166,166,1727898603451,0.08154297,-0.9631958,-0.2197876,7.484375,2.828125,-3.140625
167,167,1727898603491,0.13745117,-0.94073486,-0.20440674,2.578125,-3.921875,-2.078125
168,168,1727898603531,0.13330078,-0.9963989,-0.19268799,2.578125,-0.890625,0.203125
169,169,1727898603571,0.064941406,-0.98272705,-0.3045044,0.71875,5.828125,-1.703125
170,170,1727898603611,0.060302734,-1.0012817,-0.23614502,-0.328125,2.90625,-1.015625
171,171,1727898603651,0.1184082,-1.0007935,-0.24346924,0.734375,-0.9375,-0.625
172,172,1727898603691,0.10058594,-0.9578247,-0.2715454,-2.328125,1.8125,-2.609375
173,173,1727898603731,0.119384766,-1.0183716,-0.24908447,0.171875,0.890625,-1.03125
174,174,1727898603771,0.13305664,-1.0171509,-0.2546997,-1.1875,-2.5625,-0.390625
175,175,1727898603811,0.13793945,-1.0632935,-0.255188,0.359375,-8.625,-1.984375
176,176,1727898603851,0.09667969,-1.0115356,-0.31427002,2.75,-5.625,-4.984375
177,177,1727898603891,0.11376953,-1.0164185,-0.33013916,5.484375,-2.21875,-5.234375
178,178,1727898603931,0.10888672,-1.034729,-0.35968018,7.46875,-6.109375,-3.734375
179,179,1727898603971,0.016601562,-0.97247314,-0.38897705,7.734375,4.140625,-5.3125
180,180,1727898604011,0.017333984,-0.94537354,-0.35821533,8.96875,10.375,-6.234375
181,181,1727898604051,0.036376953,-0.94659424,-0.38433838,4.765625,8.375,-2.9375
182,182,1727898604091,0.015380859,-0.85235596,-0.37823486,4.640625,9.71875,-1.8125
183,183,1727898604131,0.049316406,-0.8543091,-0.30718994,-0.59375,8.703125,-2.21875
184,184,1727898604171,0.024414062,-0.85894775,-0.31011963,-1.921875,7.421875,-1.421875
185,185,1727898604211,0.024414062,-0.90948486,-0.3164673,1.46875,6.109375,-2.0
186,186,1727898604251,-0.068847656,-0.83428955,-0.31549072,-2.46875,8.90625,-3.46875
187,187,1727898604291,0.028076172,-0.9143677,-0.28863525,5.484375,6.203125,-0.953125
188,188,1727898604331,0.06298828,-0.847229,-0.31329346,2.0625,1.3125,-1.109375
189,189,1727898604371,-0.036132812,-0.8435669,-0.27545166,-0.34375,4.296875,-3.234375
190,190,1727898604411,-0.06225586,-0.8723755,-0.32110596,1.6875,1.578125,-5.046875
191,191,1727898604451,-0.115478516,-0.9209595,-0.26031494,-0.25,6.6875,-4.703125
192,192,1727898604491,-0.029541016,-0.95513916,-0.2979126,1.328125,-1.53125,-4.5
193,193,1727898604531,-0.017578125,-0.9168091,-0.28326416,-0.03125,-0.078125,-1.921875
194,194,1727898604571,-0.028320312,-0.9258423,-0.25274658,-0.296875,0.578125,-1.03125
195,195,1727898604611,-0.028320312,-0.9546509,-0.28692627,0.3125,-3.890625,-0.015625
196,196,1727898604651,-0.028808594,-0.90411377,-0.27520752,1.234375,-0.40625,2.734375
197,197,1727898604691,-0.03149414,-0.9685669,-0.27105713,-0.359375,-8.75,1.5625
198,198,1727898604731,-0.036865234,-0.9505005,-0.26397705,-2.109375,-7.53125,0.609375
199,199,1727898604771,-0.06738281,-0.9446411,-0.2029419,1.03125,-4.3125,0.421875
200,200,1727898604811,-0.037353516,-0.9277954,-0.24859619,-3.203125,-9.625,1.109375
201,201,1727898604851,-0.05493164,-0.97735596,-0.26837158,-0.46875,-9.859375,1.984375
202,202,1727898604891,-0.009521484,-0.95025635,-0.33917236,3.640625,-11.203125,1.953125
203,203,1727898604931,-0.0043945312,-0.9915161,-0.23638916,-1.40625,-7.546875,1.84375
204,204,1727898604971,-0.06591797,-0.97906494,-0.24835205,-0.421875,-4.75,0.65625
205,205,1727898605011,-0.00390625,-0.94610596,-0.26983643,0.1875,-5.390625,0.75
206,206,1727898605051,-0.0012207031,-0.9463501,-0.26715088,-2.109375,-7.90625,2.46875
207,207,1727898605091,-0.020019531,-1.0359497,-0.30181885,1.0625,-3.546875,2.40625
208,208,1727898605131,0.04345703,-1.0171509,-0.3267212,-1.515625,-1.46875,2.828125
209,209,1727898605171,0.01977539,-1.0527954,-0.29766846,-2.171875,-1.9375,4.703125
210,210,1727898605211,0.03955078,-1.1201782,-0.32965088,-2.125,1.921875,6.875
211,211,1727898605251,0.11230469,-1.1062622,-0.38970947,-2.078125,-1.84375,9.90625
212,212,1727898605291,0.1940918,-1.1033325,-0.39898682,-2.9375,-5.625,8.5625
213,213,1727898605331,0.2421875,-0.94000244,-0.29595947,-3.921875,-6.5,7.421875
214,214,1727898605371,0.14331055,-0.92388916,-0.2979126,1.53125,-7.609375,6.0625
215,215,1727898605411,0.16235352,-0.8875122,-0.33721924,4.453125,-5.109375,2.03125
216,216,1727898605451,0.10546875,-0.83184814,-0.32940674,4.203125,0.15625,-2.375
217,217,1727898605491,0.15771484,-0.87164307,-0.2522583,0.984375,4.625,-0.96875
218,218,1727898605531,0.1784668,-0.89068604,-0.2649536,-7.125,-4.3125,-1.09375
219,219,1727898605571,0.13061523,-0.84088135,-0.26715088,2.453125,2.421875,0.421875
220,220,1727898605611,0.24926758,-0.9380493,-0.26348877,-3.859375,-6.515625,2.421875
221,221,1727898605651,0.09692383,-0.9312134,-0.19366455,-5.875,-1.4375,-0.5
222,222,1727898605691,0.087402344,-0.8760376,-0.24346924,-2.609375,3.328125,-2.90625
223,223,1727898605731,0.111816406,-0.85162354,-0.23272705,-2.234375,-1.265625,-3.40625
224,224,1727898605771,0.13452148,-0.9053345,-0.17608643,-4.765625,-3.1875,-0.0625
225,225,1727898605811,0.119140625,-0.8760376,-0.16217041,-4.515625,-2.671875,-0.953125
226,226,1727898605851,0.12939453,-0.9109497,-0.19732666,-2.375,-2.0,-1.109375
227,227,1727898605891,0.11401367,-0.93463135,-0.20562744,-0.625,-5.53125,-0.515625
228,228,1727898605931,0.09399414,-0.9258423,-0.16778564,-1.546875,-2.90625,-0.515625
229,229,1727898605971,0.079833984,-0.93634033,-0.17095947,0.328125,-3.5625,-2.96875
230,230,1727898606011,0.08618164,-0.9260864,-0.15167236,-1.546875,1.71875,-2.921875
231,231,1727898606051,0.06616211,-1.0234985,-0.14117432,-2.40625,3.046875,-2.46875
232,232,1727898606091,0.0703125,-0.93170166,-0.14996338,1.46875,0.171875,-5.015625
233,233,1727898606131,0.09082031,-0.94659424,-0.12164307,-1.203125,6.890625,-2.0
234,234,1727898606171,0.1081543,-0.9458618,-0.15582275,-1.234375,-1.625,-2.5
235,235,1727898606211,0.0871582,-1.0064087,-0.14483643,-0.203125,6.9375,-1.1875
236,236,1727898606251,0.1262207,-0.9607544,-0.25054932,1.71875,1.234375,-0.609375
237,237,1727898606291,0.0107421875,-0.98443604,-0.16607666,1.78125,11.921875,0.515625
238,238,1727898606331,0.07299805,-0.9920044,-0.09161377,-0.234375,9.15625,0.828125
239,239,1727898606371,0.123291016,-0.92437744,-0.17510986,1.515625,0.0,1.734375
240,240,1727898606411,0.119140625,-0.9651489,-0.2053833,-0.234375,6.234375,2.828125
241,241,1727898606451,0.08227539,-0.9849243,-0.2000122,0.296875,5.484375,1.4375
242,242,1727898606491,0.050048828,-1.0335083,-0.11798096,-0.046875,10.921875,0.96875
243,243,1727898606531,0.09741211,-1.0703735,-0.15020752,-0.078125,6.5,-0.203125
244,244,1727898606571,0.14282227,-1.1018677,-0.14361572,-0.28125,2.1875,0.28125
245,245,1727898606611,0.18896484,-1.2105103,-0.2107544,-1.765625,1.53125,1.9375
246,246,1727898606651,0.12768555,-1.1226196,-0.21368408,2.28125,-0.234375,-2.046875
247,247,1727898606691,0.08276367,-1.0828247,-0.23712158,1.90625,2.59375,-6.1875
248,248,1727898606731,0.032714844,-0.9055786,-0.3381958,8.359375,8.671875,-6.078125
249,249,1727898606771,0.09008789,-0.8501587,-0.36798096,4.234375,4.640625,-1.578125
250,250,1727898606811,0.11450195,-0.88946533,-0.34747314,8.90625,8.90625,2.0
251,251,1727898606851,0.14501953,-0.8804321,-0.34136963,2.765625,4.9375,2.96875
252,252,1727898606891,0.13891602,-0.9710083,-0.25128174,2.640625,0.140625,3.71875
253,253,1727898606931,0.059570312,-0.9258423,-0.3135376,2.890625,-1.296875,3.265625
254,254,1727898606971,0.034179688,-0.9180298,-0.3045044,2.625,-2.53125,-0.765625
255,255,1727898607011,-0.0031738281,-0.850647,-0.2654419,3.078125,1.0,-2.828125
256,256,1727898607051,0.075927734,-0.84747314,-0.23272705,8.484375,-3.515625,-1.765625
257,257,1727898607091,0.06713867,-0.833313,-0.23883057,2.28125,0.828125,1.53125
258,258,1727898607131,0.046142578,-0.8765259,-0.25372314,2.296875,-0.578125,1.8125
259,259,1727898607171,0.064208984,-0.88726807,-0.24957275,4.0625,-5.5625,1.75
260,260,1727898607211,0.12817383,-0.95098877,-0.29986572,-9.453125,-6.640625,4.265625
261,261,1727898607251,-0.0041503906,-0.9951782,-0.17901611,-14.46875,-4.59375,2.21875
262,262,1727898607291,-0.0073242188,-0.8779907,-0.2078247,-0.78125,9.34375,6.03125
263,263,1727898607331,0.15698242,-0.9451294,-0.15997314,0.796875,-5.296875,2.828125
264,264,1727898607371,0.14086914,-0.92926025,-0.17852783,-6.65625,5.15625,2.28125
265,265,1727898607411,0.11230469,-0.9163208,-0.23297119,2.734375,-2.125,-0.328125
266,266,1727898607451,0.07373047,-0.94122314,-0.16070557,4.328125,1.15625,-1.21875
267,267,1727898607491,0.07788086,-0.94659424,-0.22198486,2.59375,1.296875,-1.109375
268,268,1727898607531,0.059570312,-0.9534302,-0.21002197,4.84375,0.453125,-0.953125
269,269,1727898607571,0.08081055,-0.9793091,-0.16436768,2.703125,-1.109375,-1.171875
270,270,1727898607611,0.087890625,-0.9690552,-0.19464111,3.765625,-1.15625,-0.8125
271,271,1727898607651,0.0637207,-0.94659424,-0.18048096,5.34375,-0.0625,-0.34375
272,272,1727898607691,0.056884766,-0.9841919,-0.20318604,3.984375,-0.15625,1.21875
273,273,1727898607731,0.08203125,-0.97442627,-0.2883911,10.4375,-3.6875,-0.703125
274,274,1727898607771,0.11401367,-1.0171509,-0.21734619,3.0,1.546875,1.8125
275,275,1727898607811,0.08959961,-0.9998169,-0.21099854,2.890625,-5.078125,2.21875
276,276,1727898607851,0.080078125,-0.987854,-0.20465088,2.1875,-5.59375,-0.28125
277,277,1727898607891,0.072753906,-1.0027466,-0.20928955,2.09375,-5.921875,-1.1875
278,278,1727898607931,0.0793457,-1.0061646,-0.23712158,4.265625,-1.703125,0.5
279,279,1727898607971,0.075683594,-1.048645,-0.29058838,2.78125,3.296875,-0.25
280,280,1727898608011,0.099121094,-1.185852,-0.2954712,-1.0,-0.859375,-1.484375
281,281,1727898608051,0.107177734,-1.1973267,-0.33624268,-3.515625,5.109375,0.671875
282,282,1727898608091,0.08203125,-1.0078735,-0.37750244,-1.4375,3.859375,-1.734375
283,283,1727898608131,0.20654297,-0.83428955,-0.39849854,2.96875,-0.328125,-2.828125
284,284,1727898608171,0.23999023,-0.897522,-0.36676025,6.859375,-1.203125,2.828125
285,285,1727898608211,0.20043945,-0.9102173,-0.36358643,3.78125,-6.859375,-3.0625
286,286,1727898608251,0.21582031,-0.89019775,-0.3496704,3.71875,-4.53125,-8.546875
287,287,1727898608291,0.12915039,-0.8513794,-0.2901001,-0.328125,3.328125,-10.6875
288,288,1727898608331,0.076416016,-0.9031372,-0.3291626,3.75,8.984375,-7.078125
289,289,1727898608371,0.17529297,-0.8110962,-0.26446533,5.953125,-0.765625,-1.890625
290,290,1727898608411,0.10571289,-0.8928833,-0.2107544,0.609375,-10.5,2.828125
291,291,1727898608451,0.07348633,-0.7942505,-0.26275635,-0.265625,2.421875,1.40625
292,292,1727898608491,0.100097656,-0.86798096,-0.20684814,-0.90625,-6.171875,-2.125
293,293,1727898608531,0.08081055,-0.86968994,-0.23492432,-1.546875,-1.390625,0.453125
294,294,1727898608571,0.10595703,-0.93463135,-0.28619385,-5.4375,-6.234375,1.21875
295,295,1727898608611,0.08325195,-0.90704346,-0.22369385,-4.421875,-4.65625,1.21875
296,296,1727898608651,0.09350586,-0.95440674,-0.2263794,0.546875,-4.640625,3.09375
297,297,1727898608691,0.09716797,-0.9182739,-0.2546997,0.40625,-7.34375,3.9375
298,298,1727898608731,0.08984375,-0.973938,-0.21221924,3.046875,-3.8125,5.875
299,299,1727898608771,0.07885742,-0.9048462,-0.22174072,4.765625,-2.625,2.1875
300,300,1727898608811,0.1171875,-0.9002075,-0.2029419,5.28125,-1.78125,0.296875
301,301,1727898608851,0.1274414,-0.9360962,-0.20025635,2.140625,-0.09375,1.109375
302,302,1727898608891,0.06933594,-0.9468384,-0.25177002,-3.734375,-1.28125,-0.90625
303,303,1727898608931,0.07373047,-0.91412354,-0.22515869,-0.046875,9.015625,-2.546875
304,304,1727898608971,0.11791992,-0.92193604,-0.25274658,0.671875,-2.046875,-1.921875
305,305,1727898609011,0.15722656,-0.97125244,-0.24859619,-0.09375,7.0,3.265625
306,306,1727898609051,0.13574219,-0.9627075,-0.29229736,2.78125,2.4375,1.453125
307,307,1727898609091,0.12011719,-0.94732666,-0.2695923,2.84375,5.140625,-0.625
308,308,1727898609131,0.13452148,-0.897522,-0.29205322,1.640625,-0.671875,0.4375
309,309,1727898609171,0.12573242,-0.9121704,-0.23614502,1.84375,1.640625,1.5
310,310,1727898609211,0.11694336,-0.94488525,-0.24420166,-0.265625,5.890625,0.609375
311,311,1727898609251,0.08105469,-0.93048096,-0.24273682,-2.015625,6.953125,-0.734375
312,312,1727898609291,0.09301758,-0.93536377,-0.2432251,-0.203125,3.0,-2.375
313,313,1727898609331,0.111083984,-0.97857666,-0.22735596,0.34375,3.375,-1.4375
314,314,1727898609371,0.08178711,-0.9985962,-0.19122314,-1.546875,6.4375,-0.625
315,315,1727898609411,0.06567383,-0.9697876,-0.22930908,-0.65625,4.40625,-3.25
316,316,1727898609451,0.09790039,-0.94195557,-0.2883911,3.109375,1.984375,-5.703125
317,317,1727898609491,0.083740234,-0.9937134,-0.24176025,6.5,0.71875,-6.65625
318,318,1727898609531,0.1796875,-1.1472778,-0.31573486,-2.421875,-0.59375,-5.90625
319,319,1727898609571,0.16552734,-1.2173462,-0.26275635,1.078125,-6.125,-7.28125
320,320,1727898609611,0.12866211,-1.1721802,-0.3196411,0.484375,-1.1875,-9.828125
321,321,1727898609651,0.13354492,-1.0952759,-0.32232666,0.640625,-5.703125,-8.265625
322,322,1727898609691,0.009277344,-1.0090942,-0.3267212,0.84375,1.65625,-8.90625
323,323,1727898609731,0.038330078,-0.94488525,-0.3970337,-1.578125,-0.53125,-8.953125
324,324,1727898609771,0.072753906,-0.87628174,-0.33306885,-0.65625,-3.0625,-5.765625
325,325,1727898609811,0.030761719,-0.81085205,-0.3255005,-1.921875,-2.203125,-2.390625
326,326,1727898609851,-0.036376953,-0.8735962,-0.3008423,-2.375,6.421875,0.71875
327,327,1727898609891,-0.048339844,-0.89385986,-0.32696533,-3.015625,8.890625,-1.03125
328,328,1727898609931,0.040039062,-0.8345337,-0.2925415,2.46875,1.984375,-0.09375
329,329,1727898609971,-0.0087890625,-0.88238525,-0.21002197,-3.140625,4.796875,3.609375
330,330,1727898610011,-0.08300781,-0.90631104,-0.26690674,-3.296875,8.40625,2.359375
331,331,1727898610051,-0.0087890625,-0.86968994,-0.2835083,4.84375,7.59375,0.453125
332,332,1727898610091,-0.00048828125,-0.90509033,-0.2041626,3.328125,6.359375,3.03125
333,333,1727898610131,0.087890625,-0.9260864,-0.27056885,1.78125,0.15625,6.109375
334,334,1727898610171,-0.005859375,-0.9092407,-0.22076416,0.359375,-2.609375,1.65625
335,335,1727898610211,0.03491211,-0.831604,-0.23590088,0.359375,1.3125,0.875
336,336,1727898610251,-0.041259766,-0.9612427,-0.22052002,7.078125,2.078125,2.59375
337,337,1727898610291,-0.051757812,-1.0046997,-0.2810669,0.703125,11.375,3.359375
338,338,1727898610331,0.037109375,-0.9812622,-0.25323486,3.453125,-0.53125,2.390625
339,339,1727898610371,0.076171875,-0.91729736,-0.20098877,-1.625,-1.109375,2.8125
340,340,1727898610411,0.008056641,-0.9077759,-0.21905518,-1.109375,2.75,1.03125
341,341,1727898610451,0.0024414062,-0.90216064,-0.20758057,-0.796875,-0.953125,-2.0
342,342,1727898610491,0.028808594,-0.8726196,-0.1951294,1.25,-7.03125,-3.46875
343,343,1727898610531,-0.012207031,-0.9985962,-0.21173096,-0.140625,-4.1875,-0.640625
344,344,1727898610571,-0.020507812,-0.96173096,-0.27838135,3.84375,-8.140625,-3.328125
345,345,1727898610611,0.15527344,-0.89556885,-0.43634033,6.171875,5.84375,-2.859375
346,346,1727898610651,0.15258789,-0.88897705,-0.32403564,2.171875,5.375,-2.578125
347,347,1727898610691,0.14160156,-0.8726196,-0.29693604,0.15625,6.9375,-0.515625
348,348,1727898610731,0.049804688,-0.8970337,-0.3345337,1.703125,9.859375,-1.359375
349,349,1727898610771,0.119384766,-0.9038696,-0.3718872,6.75,6.296875,-0.171875
350,350,1727898610811,0.09863281,-0.94317627,-0.32867432,-0.765625,10.875,2.46875
351,351,1727898610851,0.14013672,-0.87579346,-0.31158447,1.890625,2.984375,0.703125
352,352,1727898610891,0.15209961,-0.81988525,-0.27252197,-4.3125,4.203125,2.46875
353,353,1727898610931,0.048339844,-0.86260986,-0.2588501,-4.296875,3.6875,-3.03125
354,354,1727898610971,0.09350586,-0.9077759,-0.28448486,2.453125,3.578125,-6.40625
355,355,1727898611011,0.12060547,-0.86676025,-0.26080322,1.09375,-0.453125,-4.0
356,356,1727898611051,0.06713867,-0.9109497,-0.25177002,-1.796875,0.171875,-1.578125
357,357,1727898611091,0.080566406,-0.8682251,-0.23052979,1.65625,-2.296875,-3.078125
358,358,1727898611131,0.008056641,-0.87286377,-0.20977783,1.09375,2.578125,-3.953125
359,359,1727898611171,0.04296875,-0.9558716,-0.30255127,-0.8125,6.171875,-2.375
360,360,1727898611211,0.12451172,-0.9373169,-0.26568604,1.375,-2.484375,1.1875
361,361,1727898611251,0.078125,-0.97491455,-0.18585205,-2.125,-3.625,2.234375
362,362,1727898611291,0.013671875,-0.97125244,-0.22491455,-1.203125,-0.21875,1.3125
363,363,1727898611331,0.09692383,-0.97784424,-0.26934814,0.953125,-9.4375,1.796875
364,364,1727898611371,0.03540039,-0.97662354,-0.20391846,5.046875,-4.4375,0.171875
365,365,1727898611411,0.05444336,-0.96881104,-0.22955322,2.546875,-3.15625,0.1875
366,366,1727898611451,0.11450195,-0.9258423,-0.25958252,8.84375,-10.578125,-1.5625
367,367,1727898611491,0.099853516,-0.97125244,-0.190979,2.390625,-5.84375,0.296875
368,368,1727898611531,0.041748047,-0.98443604,-0.29473877,-2.375,-9.265625,-2.484375
369,369,1727898611571,-0.010253906,-0.9717407,-0.25860596,6.484375,-4.796875,-4.390625
370,370,1727898611611,0.03515625,-0.9873657,-0.2871704,2.875,-3.4375,-2.328125
371,371,1727898611651,0.06567383,-1.0232544,-0.27374268,1.890625,-0.4375,-1.296875
372,372,1727898611691,0.15332031,-1.0530396,-0.30499268,1.421875,-3.03125,0.09375
373,373,1727898611731,0.12719727,-1.0679321,-0.33868408,-1.125,-4.546875,0.609375
374,374,1727898611771,0.18676758,-1.0232544,-0.41046143,-3.59375,-3.234375,-1.625
375,375,1727898611811,0.15063477,-0.9898071,-0.43536377,-6.40625,1.359375,0.390625
376,376,1727898611851,0.2722168,-0.9685669,-0.35845947,4.5,-9.65625,0.734375
377,377,1727898611891,0.23950195,-0.95391846,-0.33599854,0.203125,-12.578125,-0.6875
378,378,1727898611931,0.21484375,-0.880188,-0.3965454,5.21875,-11.34375,-4.6875
379,379,1727898611971,0.14819336,-0.92266846,-0.37091064,5.171875,-5.1875,-6.734375
380,380,1727898612011,0.13549805,-0.9204712,-0.3423462,-1.046875,-2.359375,-4.921875
381,381,1727898612051,0.17602539,-0.8916626,-0.30499268,-2.328125,-3.046875,-2.40625
382,382,1727898612091,0.18310547,-0.91412354,-0.25372314,-4.359375,1.09375,1.578125
383,383,1727898612131,0.19116211,-0.8936157,-0.25836182,-4.453125,-1.984375,2.453125
384,384,1727898612171,0.13549805,-0.86846924,-0.23199463,-12.453125,-2.78125,0.53125
385,385,1727898612211,0.12890625,-0.86798096,-0.23858643,-6.203125,1.296875,-0.5
386,386,1727898612251,0.13989258,-0.8674927,-0.24053955,-7.28125,-2.96875,-0.1875
387,387,1727898612291,0.13574219,-0.86553955,-0.20489502,-6.390625,1.6875,1.5
388,388,1727898612331,0.1616211,-0.9067993,-0.2522583,-3.140625,-5.640625,0.375
389,389,1727898612371,-0.016845703,-0.91485596,-0.2822876,-1.28125,3.03125,-2.875
390,390,1727898612411,0.00390625,-0.84259033,-0.2715454,-1.953125,5.234375,-2.515625
391,391,1727898612451,0.039794922,-0.82159424,-0.27618408,0.140625,-0.015625,-1.171875
392,392,1727898612491,0.041015625,-0.8233032,-0.24249268,1.484375,-0.734375,1.203125
393,393,1727898612531,-0.0061035156,-0.895813,-0.30767822,-1.109375,0.0625,2.109375
394,394,1727898612571,0.029541016,-0.9273071,-0.31451416,-0.015625,-2.671875,1.046875
395,395,1727898612611,0.011962891,-0.9246216,-0.24298096,0.0,-3.546875,-0.0625
396,396,1727898612651,0.0234375,-0.9155884,-0.26031494,0.171875,-2.109375,-1.21875
397,397,1727898612691,0.0,-0.98760986,-0.24859619,-0.328125,0.875,-0.03125
398,398,1727898612731,-0.052001953,-0.93951416,-0.23101807,3.6875,2.28125,0.03125
399,399,1727898612771,0.045410156,-0.9221802,-0.2576294,-0.578125,-8.140625,0.515625
400,400,1727898612811,0.030761719,-0.9746704,-0.19195557,1.78125,-5.640625,2.0
401,401,1727898612851,-0.041503906,-0.9343872,-0.22711182,-3.203125,-0.046875,-0.34375
402,402,1727898612891,0.020263672,-0.9277954,-0.24102783,0.953125,-10.0,-1.828125
403,403,1727898612931,0.022216797,-0.9619751,-0.26812744,4.015625,-6.6875,1.390625
404,404,1727898612971,0.011474609,-1.0025024,-0.23345947,-0.09375,-5.984375,1.3125
405,405,1727898613011,-0.0017089844,-0.9834595,-0.17974854,-0.5,-7.703125,-1.875
406,406,1727898613051,-0.011230469,-0.99713135,-0.20831299,-1.765625,-6.4375,-2.390625
407,407,1727898613091,-0.0146484375,-1.0628052,-0.25689697,-7.046875,-2.796875,-0.53125
408,408,1727898613131,0.048828125,-1.1087036,-0.29766846,-6.875,-1.34375,5.375
409,409,1727898613171,0.075683594,-1.1704712,-0.2805786,-10.140625,-5.890625,7.453125
410,410,1727898613211,0.09667969,-1.2219849,-0.26080322,-15.984375,-8.421875,8.578125
411,411,1727898613251,0.21362305,-1.0986938,-0.36676025,-8.6875,-17.96875,9.96875
412,412,1727898613291,0.20263672,-0.9512329,-0.22613525,-16.765625,-7.03125,1.78125
413,413,1727898613331,0.17626953,-0.9109497,-0.16827393,8.203125,-2.125,1.375
414,414,1727898613371,0.22485352,-0.8652954,-0.29766846,2.71875,-6.8125,0.46875
415,415,1727898613411,0.19067383,-0.85723877,-0.21490479,4.9375,3.40625,2.953125
416,416,1727898613451,0.20727539,-0.8909302,-0.24395752,1.3125,-0.5625,-1.0625
417,417,1727898613491,0.17504883,-0.90216064,-0.18658447,2.90625,0.296875,-1.546875
418,418,1727898613531,0.14819336,-0.9229126,-0.17633057,3.125,1.515625,-2.78125
419,419,1727898613571,0.17553711,-0.9209595,-0.19342041,2.03125,0.359375,-1.578125
420,420,1727898613611,0.20678711,-0.8826294,-0.2107544,3.078125,-4.078125,0.40625
421,421,1727898613651,0.17919922,-0.91607666,-0.13311768,4.96875,-4.59375,2.3125
422,422,1727898613691,0.1274414,-0.9014282,-0.12506104,9.0,-4.40625,4.03125
423,423,1727898613731,0.048339844,-0.8635864,-0.16412354,5.796875,-1.703125,-1.96875
424,424,1727898613771,0.10595703,-0.8550415,-0.22320557,5.734375,-0.3125,-2.65625
425,425,1727898613811,0.14331055,-0.9417114,-0.15875244,3.640625,-2.59375,0.75
426,426,1727898613851,0.10620117,-0.92144775,-0.15582275,2.96875,0.15625,1.9375
427,427,1727898613891,0.12524414,-0.96710205,-0.13409424,5.234375,1.140625,2.84375
428,428,1727898613931,0.08959961,-0.9446411,-0.16851807,7.90625,1.453125,0.671875
429,429,1727898613971,0.12841797,-0.8635864,-0.24859619,-2.984375,3.046875,-2.421875
430,430,1727898614011,0.13256836,-0.9534302,-0.17144775,7.390625,3.875,1.59375
431,431,1727898614051,0.14624023,-0.9048462,-0.20391846,-0.0625,3.609375,1.53125
432,432,1727898614091,0.051757812,-0.96417236,-0.1453247,-1.78125,15.3125,0.53125
433,433,1727898614131,0.09790039,-0.9751587,-0.2234497,3.9375,3.46875,-2.75
434,434,1727898614171,0.19067383,-1.0176392,-0.25567627,1.234375,5.53125,-0.3125
435,435,1727898614211,0.04321289,-0.986145,-0.21368408,0.3125,15.796875,-0.390625
436,436,1727898614251,0.08862305,-0.9163208,-0.22857666,4.546875,10.875,-2.234375
437,437,1727898614291,0.16699219,-0.91192627,-0.22930908,3.6875,2.796875,1.21875
438,438,1727898614331,0.10473633,-0.9390259,-0.2630005,2.78125,6.671875,1.359375
439,439,1727898614371,0.14257812,-0.95269775,-0.33624268,2.6875,4.546875,-1.796875
440,440,1727898614411,0.16064453,-0.97052,-0.25665283,1.53125,3.875,-2.15625
441,441,1727898614451,0.08911133,-1.0386353,-0.24810791,-0.4375,6.359375,-0.734375
442,442,1727898614491,0.11767578,-1.1165161,-0.30377197,1.5625,4.3125,-3.046875
443,443,1727898614531,0.16723633,-1.1792603,-0.2720337,3.4375,3.203125,-2.1875
444,444,1727898614571,0.14575195,-1.211731,-0.32452393,-1.578125,-0.125,-3.3125
445,445,1727898614611,0.107666016,-1.1970825,-0.30963135,4.265625,5.96875,-7.96875
446,446,1727898614651,0.060546875,-0.96417236,-0.33258057,1.609375,15.125,-8.265625
447,447,1727898614691,0.055419922,-0.8311157,-0.31915283,4.84375,11.1875,-4.4375
448,448,1727898614731,0.07348633,-0.85235596,-0.3735962,3.21875,7.765625,-0.171875
449,449,1727898614771,0.02734375,-0.80914307,-0.3484497,2.15625,12.875,1.78125
450,450,1727898614811,0.10864258,-0.83795166,-0.31622314,-2.296875,7.84375,4.9375
451,451,1727898614851,0.083740234,-0.85650635,-0.29693604,1.34375,0.15625,4.421875
452,452,1727898614891,0.028564453,-0.92510986,-0.30377197,-0.09375,2.90625,3.34375
453,453,1727898614931,0.00390625,-0.82281494,-0.32720947,2.859375,2.890625,0.40625
454,454,1727898614971,0.028564453,-0.8987427,-0.23272705,3.171875,0.921875,2.078125
455,455,1727898615011,0.0056152344,-0.88848877,-0.26715088,-0.421875,6.0625,2.296875
456,456,1727898615051,-0.0021972656,-0.88653564,-0.27911377,-2.34375,6.609375,-0.6875
457,457,1727898615091,0.040039062,-0.8753052,-0.23492432,-3.609375,2.890625,-2.65625
458,458,1727898615131,0.020751953,-0.8804321,-0.2300415,-1.546875,-0.015625,-2.328125
459,459,1727898615171,0.048583984,-0.9260864,-0.27252197,-2.140625,-4.0,-2.640625
460,460,1727898615211,0.013671875,-0.92022705,-0.29083252,3.515625,4.515625,-0.625
461,461,1727898615251,0.07446289,-0.94732666,-0.22003174,5.796875,-6.21875,-0.296875
462,462,1727898615291,0.037597656,-0.90826416,-0.24346924,2.546875,-3.640625,0.828125
463,463,1727898615331,0.020751953,-0.94073486,-0.22930908,3.21875,-6.1875,-1.53125
464,464,1727898615371,-0.0024414062,-0.9385376,-0.21612549,-2.1875,-5.9375,-1.984375
465,465,1727898615411,0.008056641,-0.99420166,-0.2468872,-1.390625,-11.1875,-2.15625
466,466,1727898615451,-0.010986328,-0.94732666,-0.23809814,-1.59375,-11.921875,-2.546875
467,467,1727898615491,-0.041259766,-0.987854,-0.23394775,1.84375,-3.625,-0.40625
468,468,1727898615531,0.088134766,-1.0059204,-0.37261963,1.21875,-11.203125,1.390625
469,469,1727898615571,0.038330078,-1.0254517,-0.18463135,1.21875,-7.515625,1.71875
470,470,1727898615611,0.01171875,-1.0310669,-0.23321533,-0.03125,-10.046875,-1.140625
471,471,1727898615651,0.03173828,-1.0471802,-0.32940674,-4.78125,-10.96875,-3.546875
472,472,1727898615691,0.04711914,-1.112854,-0.29400635,-6.0,-5.21875,-1.671875
473,473,1727898615731,0.04296875,-1.1604614,-0.29107666,-4.671875,-0.53125,1.078125
474,474,1727898615771,0.16113281,-1.0425415,-0.4385376,-4.34375,-11.5625,2.78125
475,475,1727898615811,0.22607422,-0.98223877,-0.3591919,10.8125,-8.015625,7.59375
476,476,1727898615851,0.28149414,-0.92315674,-0.35528564,4.640625,-11.265625,8.703125
477,477,1727898615891,0.16992188,-0.90216064,-0.2576294,4.890625,-5.953125,2.109375
478,478,1727898615931,0.140625,-0.8887329,-0.20806885,1.875,-2.78125,-2.96875
479,479,1727898615971,0.14477539,-0.8308716,-0.2991333,-3.015625,-3.625,-4.546875
480,480,1727898616011,0.07739258,-0.82769775,-0.26226807,-1.125,0.9375,-3.734375
481,481,1727898616051,0.1784668,-0.8880005,-0.2498169,-5.390625,3.15625,-1.296875
482,482,1727898616091,0.14624023,-0.8821411,-0.24542236,-2.796875,-0.140625,-0.328125
483,483,1727898616131,0.15332031,-0.88653564,-0.23565674,-0.15625,1.203125,-0.296875
484,484,1727898616171,0.14770508,-0.86920166,-0.23931885,1.546875,-0.765625,1.53125
485,485,1727898616211,0.10522461,-0.84698486,-0.22052002,5.421875,-4.90625,-1.140625
486,486,1727898616251,0.12158203,-0.8555298,-0.2276001,3.203125,-3.03125,-0.296875
487,487,1727898616291,0.08300781,-0.90948486,-0.17926025,1.0625,-5.0625,-0.90625
488,488,1727898616331,0.08276367,-0.9702759,-0.20831299,3.828125,-1.78125,-1.9375
489,489,1727898616371,0.09008789,-0.91070557,-0.22247314,-0.65625,0.65625,-3.71875
490,490,1727898616411,0.12670898,-0.9885864,-0.17340088,5.015625,-1.25,-1.125
491,491,1727898616451,-0.013916016,-0.95562744,-0.18170166,-2.203125,5.6875,-0.390625
492,492,1727898616491,0.084228516,-0.95684814,-0.25372314,4.28125,-0.8125,-1.25
493,493,1727898616531,0.033691406,-0.9104614,-0.17974854,-3.09375,10.5,-0.5625
494,494,1727898616571,0.123046875,-0.95269775,-0.15216064,3.078125,3.46875,2.078125
495,495,1727898616611,0.060058594,-0.9536743,-0.11627197,-6.578125,4.15625,2.859375
496,496,1727898616651,0.14868164,-1.0037231,-0.2637329,4.8125,0.4375,1.734375
497,497,1727898616691,0.14501953,-0.9685669,-0.32452393,3.359375,5.71875,4.703125
498,498,1727898616731,0.07299805,-0.9841919,-0.17706299,6.1875,10.46875,3.3125
499,499,1727898616771,0.16333008,-0.96832275,-0.17828369,3.890625,3.40625,3.515625
500,500,1727898616811,0.14404297,-0.9402466,-0.2354126,2.15625,6.1875,2.90625
501,501,1727898616851,0.1262207,-1.031311,-0.25006104,-1.4375,4.703125,1.078125
502,502,1727898616891,0.12719727,-0.9776001,-0.26885986,0.6875,4.40625,0.328125
503,503,1727898616931,0.15722656,-1.114563,-0.27960205,2.90625,-1.6875,-2.28125
504,504,1727898616971,0.1640625,-1.111145,-0.32940674,-3.0625,-0.90625,-2.625
505,505,1727898617011,0.115722656,-1.1084595,-0.30352783,-0.109375,5.640625,-5.5
506,506,1727898617051,0.11816406,-1.1008911,-0.3850708,-0.359375,6.640625,-3.78125
507,507,1727898617091,0.044433594,-0.944397,-0.41461182,-0.890625,14.96875,-3.75
508,508,1727898617131,0.06933594,-0.8587036,-0.5161743,-0.34375,18.546875,-0.078125
509,509,1727898617171,0.064697266,-0.8777466,-0.2888794,3.453125,21.015625,0.390625
510,510,1727898617211,0.091796875,-0.81134033,-0.3201294,3.734375,16.125,3.0
511,511,1727898617251,0.092041016,-0.8953247,-0.26202393,2.921875,8.25,3.734375
512,512,1727898617291,0.08520508,-0.8526001,-0.31304932,-0.96875,-5.078125,0.15625
513,513,1727898617331,0.041015625,-0.83843994,-0.29327393,1.4375,-3.296875,-4.96875
514,514,1727898617371,0.01977539,-0.866272,-0.29058838,-0.703125,-1.75,-4.109375
515,515,1727898617411,-0.03955078,-0.8792114,-0.33599854,1.09375,1.765625,-5.046875
516,516,1727898617451,0.0007324219,-0.85357666,-0.33380127,3.90625,4.46875,-1.5
517,517,1727898617491,0.020019531,-0.8982544,-0.30059814,2.328125,2.984375,-0.046875
518,518,1727898617531,0.017822266,-0.9319458,-0.2810669,4.1875,1.671875,0.796875
519,519,1727898617571,0.008544922,-0.89019775,-0.29473877,1.671875,2.328125,-1.453125
520,520,1727898617611,0.021240234,-0.92022705,-0.237854,3.671875,0.765625,-3.65625
521,521,1727898617651,0.020507812,-0.89801025,-0.2786255,3.078125,-2.078125,-3.96875
522,522,1727898617691,-0.021972656,-0.9631958,-0.29815674,6.5625,3.296875,-3.640625
523,523,1727898617731,0.024414062,-0.94732666,-0.2859497,6.734375,-5.5625,-3.140625
524,524,1727898617771,-0.01977539,-0.9158325,-0.22784424,4.21875,-4.703125,-0.515625
525,525,1727898617811,-0.060791016,-0.9522095,-0.2625122,6.3125,-1.875,-0.578125
526,526,1727898617851,-0.010009766,-0.93536377,-0.25738525,4.546875,-7.265625,-1.578125
527,527,1727898617891,-0.027832031,-0.9402466,-0.22833252,0.859375,-9.21875,-0.140625
528,528,1727898617931,-0.017578125,-0.98443604,-0.23614502,1.09375,-11.25,0.34375
529,529,1727898617971,-0.057128906,-0.9429321,-0.2456665,3.984375,-5.625,0.140625
530,530,1727898618011,-0.022949219,-0.9771118,-0.29107666,6.296875,-3.203125,1.265625
531,531,1727898618051,0.030517578,-0.9036255,-0.25299072,-3.1875,-8.53125,3.984375
532,532,1727898618091,-0.064697266,-0.9746704,-0.269104,-0.953125,-3.171875,3.640625
533,533,1727898618131,0.033935547,-0.9949341,-0.4258423,-2.671875,-0.078125,2.9375
534,534,1727898618171,0.025146484,-1.038147,-0.30596924,-8.484375,-5.46875,2.515625
535,535,1727898618211,0.049804688,-1.2053833,-0.35479736,-6.484375,-0.71875,4.53125
536,536,1727898618251,0.07519531,-1.1079712,-0.49835205,-10.828125,-4.34375,2.953125
537,537,1727898618291,0.09863281,-1.1184692,-0.39337158,-10.5,-3.5,-1.078125
538,538,1727898618331,0.09375,-1.0979614,-0.34283447,5.390625,3.84375,-6.015625
539,539,1727898618371,0.09033203,-0.9561157,-0.35821533,8.09375,8.96875,-6.984375
540,540,1727898618411,0.045654297,-0.9356079,-0.38116455,9.046875,12.46875,-2.890625
541,541,1727898618451,0.061523438,-0.8735962,-0.44854736,7.375,11.046875,-4.109375
542,542,1727898618491,0.12988281,-0.8328247,-0.4019165,2.25,9.359375,-1.03125
543,543,1727898618531,0.08276367,-0.8386841,-0.34576416,0.328125,4.328125,0.46875
544,544,1727898618571,0.03173828,-0.8753052,-0.34161377,-0.828125,-1.375,-4.125
545,545,1727898618611,0.052734375,-0.8587036,-0.317688,0.9375,2.515625,-2.671875
546,546,1727898618651,0.06591797,-0.76397705,-0.31939697,-6.484375,-6.890625,-2.875
547,547,1727898618691,-0.008544922,-0.91485596,-0.27667236,-2.796875,-0.765625,-3.265625
548,548,1727898618731,0.022705078,-0.89508057,-0.3587036,-0.078125,1.125,-5.03125
549,549,1727898618771,0.03564453,-0.86187744,-0.2654419,1.9375,-3.84375,-4.984375
550,550,1727898618811,0.015625,-0.894104,-0.19854736,0.0,-1.796875,-2.421875
551,551,1727898618851,0.03515625,-0.864563,-0.24908447,-1.203125,-3.25,-2.390625
552,552,1727898618891,0.011474609,-0.9204712,-0.270813,-0.9375,-4.484375,-4.046875
553,553,1727898618931,-0.03564453,-0.95196533,-0.23223877,-1.46875,3.921875,-1.296875
554,554,1727898618971,0.030517578,-1.0027466,-0.24493408,-1.328125,-1.859375,0.515625
555,555,1727898619011,0.03173828,-0.89019775,-0.27960205,-0.8125,-5.484375,1.34375
556,556,1727898619051,-0.006591797,-0.9846802,-0.20977783,1.1875,2.59375,1.625
557,557,1727898619091,0.03466797,-0.92437744,-0.22955322,-1.84375,-4.515625,-1.328125
558,558,1727898619131,-0.00390625,-0.9470825,-0.18170166,-4.359375,-1.859375,-0.828125
559,559,1727898619171,0.00390625,-0.8960571,-0.22027588,2.0,-5.109375,-2.625
560,560,1727898619211,-0.044189453,-0.92755127,-0.21417236,3.0625,-4.09375,-0.421875
561,561,1727898619251,-0.0234375,-1.0403442,-0.35211182,19.25,-0.625,2.25
562,562,1727898619291,-0.03149414,-1.0293579,-0.30792236,6.5,-0.546875,2.125
563,563,1727898619331,-0.0009765625,-1.0796509,-0.23297119,5.234375,-1.734375,0.578125
564,564,1727898619371,-0.010986328,-1.0076294,-0.29986572,3.90625,-5.03125,-0.6875
565,565,1727898619411,0.060302734,-0.991272,-0.25567627,-0.6875,-4.984375,-0.421875
566,566,1727898619451,0.045654297,-1.0244751,-0.29864502,-0.46875,-5.890625,0.765625
567,567,1727898619491,0.06542969,-1.0855103,-0.36212158,-2.625,-3.828125,-0.796875
568,568,1727898619531,0.037353516,-1.0652466,-0.35186768,-1.3125,-1.453125,-0.03125
569,569,1727898619571,0.04663086,-0.99346924,-0.3945923,2.1875,-3.0,-0.59375
570,570,1727898619611,0.3239746,-0.9116821,-0.40948486,1.640625,-18.765625,2.96875
571,571,1727898619651,0.25976562,-0.93536377,-0.3189087,2.078125,-12.765625,7.703125
572,572,1727898619691,0.14453125,-0.90460205,-0.33184814,2.8125,-10.3125,3.09375
573,573,1727898619731,0.11743164,-0.83013916,-0.34625244,4.359375,-9.484375,-1.296875
574,574,1727898619771,0.12817383,-0.84552,-0.33233643,-4.25,-6.015625,0.375
575,575,1727898619811,0.11376953,-0.90997314,-0.31304932,-0.8125,-1.640625,-0.984375
576,576,1727898619851,0.19799805,-0.9151001,-0.31988525,-2.140625,-1.34375,-1.375
577,577,1727898619891,0.14892578,-0.9180298,-0.25250244,-1.828125,-0.4375,-0.453125
578,578,1727898619931,0.103759766,-0.87457275,-0.22393799,0.078125,2.46875,-0.125
579,579,1727898619971,0.071777344,-0.8694458,-0.24664307,3.59375,2.875,-0.90625
580,580,1727898620011,0.11401367,-0.84039307,-0.27349854,2.328125,0.03125,0.453125
581,581,1727898620051,0.12231445,-0.90875244,-0.2522583,1.953125,0.015625,-0.140625
582,582,1727898620091,0.14038086,-0.9053345,-0.2678833,2.609375,-5.375,0.609375
583,583,1727898620131,0.10522461,-0.9143677,-0.22247314,3.65625,-0.03125,-3.96875
584,584,1727898620171,0.080078125,-0.89556885,-0.22149658,8.0625,-0.625,-5.015625
585,585,1727898620211,0.11621094,-0.9234009,-0.26055908,0.5625,-3.40625,-2.765625
586,586,1727898620251,0.07739258,-0.90582275,-0.27008057,5.328125,-4.984375,-3.40625
587,587,1727898620291,0.07324219,-0.8882446,-0.22711182,0.109375,-1.75,-3.25
588,588,1727898620331,0.041748047,-0.97491455,-0.23614502,-2.921875,-1.453125,-3.71875
589,589,1727898620371,0.041503906,-0.9180298,-0.20684814,-3.5625,4.453125,-4.375
590,590,1727898620411,0.080322266,-0.973938,-0.17193604,-0.203125,3.3125,-3.328125
591,591,1727898620451,0.04321289,-0.98150635,-0.14508057,-5.953125,9.328125,-0.5625
592,592,1727898620491,0.055664062,-0.97125244,-0.18829346,-1.421875,4.15625,-3.40625
593,593,1727898620531,0.10449219,-0.9487915,-0.26104736,-2.15625,5.625,-0.0625
594,594,1727898620571,0.0041503906,-0.9963989,-0.17193604,-1.953125,11.515625,1.78125
595,595,1727898620611,0.0063476562,-0.9714966,-0.25054932,3.15625,9.296875,-1.125
596,596,1727898620651,0.14794922,-1.0344849,-0.2354126,-0.578125,5.796875,1.46875
597,597,1727898620691,0.14086914,-1.1853638,-0.3189087,-1.21875,3.484375,3.84375
598,598,1727898620731,0.079833984,-1.125061,-0.39874268,0.15625,0.765625,-5.0
599,599,1727898620771,0.055908203,-1.1270142,-0.31256104,2.28125,9.984375,-8.0625
600,600,1727898620811,-0.0031738281,-1.1216431,-0.315979,1.796875,12.1875,-9.078125
601,601,1727898620851,-0.056152344,-0.99298096,-0.35357666,4.046875,15.609375,-12.09375
602,602,1727898620891,-0.06567383,-0.7974243,-0.3743286,3.703125,15.65625,-9.296875
603,603,1727898620931,0.028076172,-0.802063,-0.42974854,-0.265625,10.265625,-4.234375
604,604,1727898620971,0.024169922,-0.82403564,-0.31793213,2.53125,6.125,-4.265625
605,605,1727898621011,-0.0703125,-0.8694458,-0.31451416,-4.53125,13.859375,-1.890625
606,606,1727898621051,-0.119384766,-0.84454346,-0.3381958,-4.609375,13.546875,-1.03125
607,607,1727898621091,-0.07495117,-0.911438,-0.31402588,-1.296875,3.0625,-1.125
608,608,1727898621131,-0.09326172,-0.9143677,-0.22491455,-2.71875,5.390625,-1.0
609,609,1727898621171,-0.049804688,-0.89556885,-0.3086548,-2.671875,1.921875,-0.390625
610,610,1727898621211,-0.052978516,-0.93756104,-0.3418579,-2.9375,1.09375,1.234375
611,611,1727898621251,-0.07885742,-0.9710083,-0.24835205,2.359375,-0.6875,1.71875
612,612,1727898621291,-0.06616211,-0.8765259,-0.21026611,1.59375,-2.671875,3.375
613,613,1727898621331,-0.05859375,-0.89434814,-0.22711182,3.3125,-6.453125,4.71875
614,614,1727898621371,-0.057617188,-0.8623657,-0.2654419,3.53125,-6.75,4.28125
615,615,1727898621411,-0.083740234,-0.9380493,-0.17559814,1.84375,-3.359375,3.203125
616,616,1727898621451,-0.067871094,-0.9656372,-0.24395752,-0.734375,-3.375,1.71875
617,617,1727898621491,-0.052490234,-0.99468994,-0.25543213,4.5,-4.59375,0.21875
618,618,1727898621531,-0.034423828,-0.94000244,-0.1729126,3.03125,-6.734375,2.984375
619,619,1727898621571,-0.04248047,-0.9439087,-0.20025635,0.0625,-6.125,3.453125
620,620,1727898621611,-0.09741211,-0.9043579,-0.21710205,1.21875,-3.28125,1.6875
621,621,1727898621651,-0.056884766,-0.98443604,-0.16192627,0.03125,-6.875,0.3125
622,622,1727898621691,-0.061767578,-1.0095825,-0.22198486,-1.28125,-9.828125,-1.21875
623,623,1727898621731,-0.040039062,-1.0066528,-0.16949463,3.109375,-8.78125,0.59375
624,624,1727898621771,-0.032714844,-0.9553833,-0.20025635,-3.21875,-9.15625,2.953125
625,625,1727898621811,-0.06689453,-0.9915161,-0.25250244,1.625,-10.203125,0.328125
626,626,1727898621851,0.036865234,-1.0108032,-0.26397705,-1.78125,-7.671875,3.921875
627,627,1727898621891,0.09863281,-1.0132446,-0.3196411,-4.5625,-12.953125,5.859375
628,628,1727898621931,-0.05078125,-1.2241821,-0.32354736,-0.765625,-5.953125,6.453125
629,629,1727898621971,0.022949219,-1.2105103,-0.4505005,0.40625,-7.15625,1.84375
630,630,1727898622011,0.115234375,-1.1592407,-0.41412354,17.1875,-7.84375,4.390625
631,631,1727898622051,0.24243164,-0.9380493,-0.33062744,3.203125,-14.75,7.171875
632,632,1727898622091,0.2836914,-0.83599854,-0.2991333,2.796875,-15.90625,4.78125
633,633,1727898622131,0.234375,-0.88116455,-0.37286377,3.015625,-12.71875,4.078125
634,634,1727898622171,0.12036133,-0.8699341,-0.284729,0.921875,-9.171875,-0.015625
635,635,1727898622211,0.088378906,-0.9456177,-0.30499268,-4.90625,-3.3125,-1.34375
636,636,1727898622251,0.09692383,-0.8657837,-0.2871704,-1.46875,1.859375,-1.40625
637,637,1727898622291,0.14868164,-0.8755493,-0.24420166,-3.59375,1.65625,2.8125
638,638,1727898622331,0.16699219,-0.861145,-0.22247314,0.265625,-1.1875,5.28125
639,639,1727898622371,0.1003418,-0.84381104,-0.20855713,5.078125,1.71875,1.1875
640,640,1727898622411,0.18798828,-0.7918091,-0.25811768,15.671875,-2.09375,3.484375
641,641,1727898622451,0.1237793,-0.8633423,-0.19659424,2.375,-2.90625,1.21875
642,642,1727898622491,0.04345703,-0.8699341,-0.3086548,2.34375,2.75,-4.0
643,643,1727898622531,0.09667969,-0.8574829,-0.3057251,2.953125,3.015625,-5.078125
644,644,1727898622571,0.14501953,-0.9290161,-0.22784424,-0.40625,3.875,-1.609375
645,645,1727898622611,0.09814453,-0.9368286,-0.22613525,2.28125,3.375,-2.234375
646,646,1727898622651,0.09887695,-0.954895,-0.21929932,2.765625,12.171875,-2.015625
647,647,1727898622691,0.09033203,-0.9495239,-0.2810669,0.671875,8.609375,-3.453125
648,648,1727898622731,0.049316406,-0.97247314,-0.17974854,3.828125,7.265625,-5.34375
649,649,1727898622771,0.064941406,-0.954895,-0.222229,-6.78125,5.546875,0.109375
650,650,1727898622811,0.030273438,-0.9734497,-0.1831665,-15.3125,3.59375,-1.25
651,651,1727898622851,0.03540039,-0.960022,-0.15020752,-7.484375,5.640625,-0.953125
652,652,1727898622891,0.0703125,-0.9819946,-0.21221924,-4.5625,-1.296875,1.28125
653,653,1727898622931,0.12451172,-0.9631958,-0.22515869,-2.703125,-0.375,4.125
654,654,1727898622971,0.060791016,-1.0193481,-0.10284424,-4.734375,4.078125,3.609375
655,655,1727898623011,0.07861328,-1.0161743,-0.15240479,-0.84375,3.09375,1.6875
656,656,1727898623051,0.11621094,-0.9788208,-0.24005127,-2.953125,1.859375,-0.359375
657,657,1727898623091,0.10498047,-1.0444946,-0.21026611,-3.90625,7.546875,2.6875
658,658,1727898623131,0.10644531,-1.0513306,-0.22833252,-0.6875,8.421875,3.65625
659,659,1727898623171,0.19213867,-1.145813,-0.28961182,3.640625,-0.9375,0.921875
660,660,1727898623211,0.19750977,-1.1243286,-0.25836182,0.921875,1.484375,-1.65625
661,661,1727898623251,0.114990234,-0.9998169,-0.3430786,5.1875,-2.375,-5.578125
662,662,1727898623291,0.107910156,-0.92022705,-0.45513916,5.53125,2.140625,-5.46875
663,663,1727898623331,0.055419922,-0.8870239,-0.39996338,6.671875,10.5,-2.65625
664,664,1727898623371,0.064941406,-0.8550415,-0.4187622,1.8125,15.421875,1.96875
665,665,1727898623411,0.10058594,-0.84552,-0.3850708,1.90625,13.421875,2.140625
666,666,1727898623451,0.10571289,-0.9085083,-0.29644775,-0.046875,6.3125,-0.484375
667,667,1727898623491,0.14282227,-0.8735962,-0.30841064,2.96875,2.0625,3.609375
668,668,1727898623531,0.0234375,-0.881897,-0.2756958,-2.296875,0.75,1.59375
669,669,1727898623571,0.009765625,-0.83966064,-0.3032837,-0.6875,-2.03125,-3.09375
670,670,1727898623611,0.034423828,-0.87384033,-0.2732544,1.28125,-0.6875,-3.5
671,671,1727898623651,0.0056152344,-0.8599243,-0.25372314,0.1875,3.140625,-1.9375
672,672,1727898623691,0.0107421875,-0.8843384,-0.24615479,2.546875,5.15625,-0.171875
673,673,1727898623731,0.032226562,-0.894104,-0.2341919,2.484375,1.609375,0.59375
674,674,1727898623771,0.047851562,-0.92559814,-0.23956299,1.015625,-0.875,-0.375
675,675,1727898623811,0.060058594,-0.96417236,-0.21270752,2.3125,-2.5625,-0.890625
676,676,1727898623851,0.024414062,-0.93414307,-0.19171143,4.53125,-2.96875,-2.25
677,677,1727898623891,-0.03930664,-0.9602661,-0.21490479,-6.875,-4.125,-4.171875
678,678,1727898623931,-0.0009765625,-0.96832275,-0.20831299,1.78125,-1.640625,-5.125
679,679,1727898623971,-0.0009765625,-0.93414307,-0.18365479,-4.796875,-4.375,-4.0625
680,680,1727898624011,0.030517578,-0.99102783,-0.19024658,-1.828125,-9.578125,-4.8125
681,681,1727898624051,-0.021972656,-0.9417114,-0.1350708,0.015625,-1.90625,0.8125
682,682,1727898624091,-0.0029296875,-1.0376587,-0.2617798,7.703125,-7.015625,2.671875
683,683,1727898624131,0.09277344,-0.97125244,-0.302063,8.890625,-16.890625,3.6875
684,684,1727898624171,-0.025146484,-1.06427,-0.2131958,1.328125,-5.203125,3.234375
685,685,1727898624211,-0.011230469,-1.0479126,-0.30596924,7.8125,-12.15625,2.3125
686,686,1727898624251,0.032958984,-1.1123657,-0.28497314,1.015625,-14.609375,2.703125
687,687,1727898624291,0.03173828,-1.1123657,-0.30377197,-15.46875,-9.03125,-0.203125
688,688,1727898624331,-0.0043945312,-1.1572876,-0.26104736,-2.3125,5.25,1.109375
689,689,1727898624371,0.24780273,-1.0317993,-0.3399048,-5.171875,-7.75,5.296875
690,690,1727898624411,0.21435547,-0.8701782,-0.20806885,-4.21875,-3.984375,6.984375
691,691,1727898624451,0.16796875,-0.9512329,-0.22784424,6.28125,-2.796875,5.25
692,692,1727898624491,0.23730469,-0.9085083,-0.37408447,1.3125,-9.796875,4.859375
693,693,1727898624531,0.24145508,-0.89727783,-0.27716064,6.75,-10.125,3.96875
694,694,1727898624571,0.1743164,-0.87872314,-0.21929932,0.796875,-5.3125,2.25
695,695,1727898624611,0.1340332,-0.86016846,-0.23516846,6.96875,-4.5,-1.28125
696,696,1727898624651,0.15234375,-0.85943604,-0.21466064,6.546875,4.265625,-1.140625
697,697,1727898624691,0.24682617,-0.8731079,-0.1897583,-0.796875,3.671875,0.078125
698,698,1727898624731,0.20239258,-0.87945557,-0.25030518,-3.9375,-1.4375,2.15625
699,699,1727898624771,0.091552734,-0.86431885,-0.21539307,1.640625,2.71875,-0.5625
700,700,1727898624811,0.11303711,-0.83966064,-0.2341919,4.28125,2.5625,-1.515625
701,701,1727898624851,0.19921875,-0.8460083,-0.2234497,2.40625,-2.140625,1.953125
702,702,1727898624891,0.12988281,-0.91290283,-0.2156372,2.765625,-1.34375,0.109375
703,703,1727898624931,0.15649414,-0.9338989,-0.24053955,5.375,-0.359375,-1.265625
704,704,1727898624971,0.13256836,-0.942688,-0.21636963,5.71875,0.3125,-0.46875
705,705,1727898625011,0.123046875,-0.91290283,-0.20758057,8.203125,2.40625,-1.328125
706,706,1727898625051,0.16357422,-0.9216919,-0.222229,12.59375,-1.375,0.484375
707,707,1727898625091,0.1340332,-0.9019165,-0.12945557,6.015625,2.328125,-4.046875
708,708,1727898625131,0.09790039,-1.0081177,-0.19927979,0.1875,-8.203125,-8.765625
709,709,1727898625171,0.0,-0.93634033,-0.21466064,-8.796875,3.6875,-8.1875
710,710,1727898625211,0.05859375,-0.97076416,-0.23516846,-0.65625,9.96875,-4.84375
711,711,1727898625251,0.16552734,-1.0252075,-0.21710205,-1.96875,2.0625,1.03125
712,712,1727898625291,0.08862305,-0.96588135,-0.16900635,-3.140625,8.71875,-0.9375
713,713,1727898625331,0.10205078,-0.89971924,-0.27423096,3.890625,0.96875,-5.515625
714,714,1727898625371,0.17797852,-1.0493774,-0.2979126,3.984375,6.546875,0.453125
715,715,1727898625411,0.11425781,-1.0899048,-0.28692627,2.21875,4.34375,-0.53125
716,716,1727898625451,0.17016602,-1.0967407,-0.25177002,-2.546875,1.171875,-2.453125
717,717,1727898625491,0.19042969,-1.0862427,-0.37091064,3.125,-2.359375,-2.25
718,718,1727898625531,0.1184082,-1.0759888,-0.3670044,5.046875,1.96875,-4.703125
719,719,1727898625571,0.075683594,-0.9976196,-0.3706665,5.90625,0.46875,-6.1875
720,720,1727898625611,0.0625,-0.89385986,-0.38311768,4.703125,5.03125,-4.328125
721,721,1727898625651,0.088378906,-0.9053345,-0.4446411,3.078125,1.1875,-4.125
722,722,1727898625691,0.010009766,-0.8880005,-0.42266846,1.984375,10.640625,-3.890625
723,723,1727898625731,-0.008056641,-0.82696533,-0.44317627,-0.375,18.296875,-2.6875
724,724,1727898625771,-0.00048828125,-0.8401489,-0.3809204,2.671875,11.515625,-0.5
725,725,1727898625811,0.028564453,-0.92559814,-0.3508911,-0.109375,9.765625,0.328125
726,726,1727898625851,0.027832031,-0.85772705,-0.2979126,3.125,1.578125,-2.453125
727,727,1727898625891,0.0031738281,-0.85650635,-0.2954712,-0.390625,3.390625,-4.828125
728,728,1727898625931,-0.035888672,-0.8418579,-0.27886963,-2.546875,4.984375,-4.609375
729,729,1727898625971,-0.052734375,-0.86553955,-0.31402588,-4.140625,1.578125,-7.03125
730,730,1727898626011,-0.03857422,-0.84625244,-0.30645752,-0.546875,2.484375,-5.359375
731,731,1727898626051,-0.044921875,-0.89849854,-0.27008057,0.421875,4.984375,-3.09375
732,732,1727898626091,-0.045898438,-0.8970337,-0.28326416,2.234375,3.0625,-0.125
733,733,1727898626131,-0.06958008,-0.9036255,-0.31256104,0.359375,4.09375,0.25
734,734,1727898626171,-0.03173828,-0.9248657,-0.2852173,1.4375,1.15625,2.65625
735,735,1727898626211,-0.038085938,-0.91656494,-0.32891846,-0.40625,1.453125,1.125
736,736,1727898626251,-0.032714844,-0.9429321,-0.26031494,4.84375,-2.609375,-0.53125
737,737,1727898626291,-0.027832031,-0.90704346,-0.26104736,0.046875,1.09375,1.0
738,738,1727898626331,-0.076660156,-0.90509033,-0.26885986,1.015625,2.109375,-1.140625
739,739,1727898626371,-0.032958984,-0.9204712,-0.20953369,-0.71875,-3.296875,1.578125
740,740,1727898626411,-0.07324219,-0.9470825,-0.237854,-3.625,-3.375,2.8125
741,741,1727898626451,-0.05419922,-0.99005127,-0.3291626,-0.8125,-12.171875,-2.578125
742,742,1727898626491,-0.03149414,-1.0474243,-0.31280518,6.03125,-5.53125,-0.484375
743,743,1727898626531,-0.032470703,-1.0254517,-0.26519775,-0.375,-3.96875,2.6875
744,744,1727898626571,-0.064941406,-1.0044556,-0.26153564,-1.1875,-7.21875,1.078125
745,745,1727898626611,-0.0041503906,-0.96881104,-0.32305908,0.40625,-5.734375,0.921875
746,746,1727898626651,-0.0146484375,-1.1030884,-0.36358643,-1.78125,-5.6875,2.921875
747,747,1727898626691,-0.01977539,-1.1951294,-0.3826294,0.71875,-6.3125,4.21875
748,748,1727898626731,0.06542969,-1.2102661,-0.46636963,1.09375,-2.734375,6.765625
749,749,1727898626771,0.114746094,-1.0562134,-0.40948486,6.90625,-11.609375,5.125
750,750,1727898626811,0.15625,-0.83721924,-0.3213501,2.390625,-12.421875,9.484375
751,751,1727898626851,0.15673828,-0.9216919,-0.27301025,1.734375,-3.828125,12.328125
752,752,1727898626891,0.12841797,-0.829895,-0.43756104,0.0,-5.75,7.046875
753,753,1727898626931,0.19238281,-0.8545532,-0.34820557,1.4375,-6.015625,3.6875
754,754,1727898626971,0.13330078,-0.87579346,-0.3352661,-3.859375,1.015625,2.546875
755,755,1727898627011,0.11035156,-0.8154907,-0.31036377,-4.171875,4.078125,-1.484375
756,756,1727898627051,0.1262207,-0.82696533,-0.2756958,-1.640625,0.96875,-2.84375
757,757,1727898627091,0.18798828,-0.88287354,-0.2625122,-3.75,-2.53125,0.921875
758,758,1727898627131,0.13989258,-0.8880005,-0.25372314,-1.0,-0.8125,2.359375
759,759,1727898627171,0.12915039,-0.81573486,-0.24761963,-1.25,-3.015625,-0.171875
760,760,1727898627211,0.10229492,-0.8579712,-0.20025635,2.140625,-1.234375,-0.75
761,761,1727898627251,0.099365234,-0.866272,-0.24517822,-0.125,-3.890625,-0.828125
762,762,1727898627291,0.103027344,-0.9319458,-0.24249268,-0.671875,-2.0625,-1.0
763,763,1727898627331,0.09716797,-0.96099854,-0.24273682,3.03125,-4.421875,-1.21875
764,764,1727898627371,0.11987305,-0.93048096,-0.26983643,-1.59375,-6.46875,-1.390625
765,765,1727898627411,0.07421875,-0.9883423,-0.21221924,3.0,0.46875,-1.09375
766,766,1727898627451,0.075927734,-0.8821411,-0.22320557,3.03125,4.703125,-3.046875
767,767,1727898627491,0.109375,-0.9277954,-0.17340088,4.75,-1.28125,-1.953125
768,768,1727898627531,0.03564453,-0.9348755,-0.15631104,-4.546875,5.859375,-2.25
769,769,1727898627571,0.07861328,-1.0147095,-0.17193604,-7.640625,5.453125,-3.9375
