,Unnamed: 0,timestamp,accel_x,accel_y,accel_z,gyro_x,gyro_y,gyro_z
0,0,1727977739706,-0.15673828,-0.8921509,0.14642334,5.578125,4.125,0.390625
1,1,1727977739746,-0.1237793,-0.9060669,0.18084717,13.3125,10.234375,1.03125
2,2,1727977739786,-0.11450195,-0.9585571,0.016784668,19.328125,9.9375,0.3125
3,3,1727977739826,0.07080078,-1.0054321,0.022888184,4.65625,2.171875,8.140625
4,4,1727977739866,-0.20141602,-1.175354,-0.01739502,8.171875,12.21875,0.953125
5,5,1727977739906,-0.14648438,-1.1362915,-0.06695557,14.125,18.515625,2.609375
6,6,1727977739946,0.25805664,-1.2214966,-0.1453247,11.5,5.515625,10.890625
7,7,1727977739986,0.28222656,-1.3276978,-0.22149658,-1.3125,-0.421875,2.484375
8,8,1727977740026,0.1640625,-1.3892212,-0.101135254,3.484375,-5.09375,1.703125
9,9,1727977740066,0.010253906,-1.2124634,-0.2612915,-5.203125,0.578125,-1.453125
10,10,1727977740106,-0.068359375,-1.0557251,-0.21685791,7.71875,3.796875,1.03125
11,11,1727977740146,0.06591797,-1.0796509,-0.21270752,4.78125,7.65625,2.015625
12,12,1727977740186,-0.025634766,-1.0337524,-0.08062744,-1.203125,15.984375,-1.140625
13,13,1727977740226,-0.087890625,-0.96295166,-0.090148926,4.125,16.921875,-0.125
14,14,1727977740266,-0.032714844,-0.9312134,-0.081604004,3.0,16.234375,1.859375
15,15,1727977740306,-0.026367188,-0.8882446,-0.10211182,7.171875,17.4375,0.046875
16,16,1727977740346,-0.067871094,-0.78790283,-0.07476807,9.453125,25.953125,0.171875
17,17,1727977740386,-0.12646484,-0.7883911,-0.11065674,5.828125,27.96875,-3.25
18,18,1727977740426,-0.013671875,-0.77178955,-0.14239502,8.453125,23.625,-0.015625
19,19,1727977740466,0.00024414062,-0.7407837,-0.06964111,5.046875,20.40625,1.3125
20,20,1727977740506,-0.071777344,-0.7996216,-0.13970947,-5.640625,15.21875,0.875
21,21,1727977740546,-0.08251953,-0.8374634,-0.14752197,4.34375,15.96875,1.578125
22,22,1727977740586,-0.046142578,-0.96832275,-0.15802002,-11.625,7.0625,2.5625
23,23,1727977740626,0.022460938,-1.0213013,-0.09136963,2.484375,-0.390625,0.765625
24,24,1727977740666,-0.36767578,-0.9126587,-0.08331299,-5.796875,7.609375,2.09375
25,25,1727977740706,-0.21655273,-1.222229,-0.17388916,-14.734375,-3.6875,7.15625
26,26,1727977740746,0.27392578,-1.1973267,-0.14434814,-3.125,-2.640625,7.234375
27,27,1727977740786,-0.087646484,-1.0645142,-0.062561035,-10.546875,-14.671875,3.296875
28,28,1727977740826,-0.09106445,-1.3372192,-0.28692627,-8.15625,-14.921875,11.4375
29,29,1727977740866,0.3557129,-1.3486938,-0.1663208,-2.921875,-19.6875,12.71875
30,30,1727977740906,0.095214844,-1.1741333,-0.17193604,-7.359375,-19.421875,-3.515625
31,31,1727977740946,0.21777344,-1.0462036,-0.19390869,4.5625,-27.953125,2.40625
32,32,1727977740986,0.28637695,-0.973938,-0.1531372,-2.484375,-25.9375,0.84375
33,33,1727977741026,0.05102539,-0.84381104,-0.16973877,-3.375,-30.8125,-7.90625
34,34,1727977741066,0.07519531,-0.86187744,-0.062561035,-3.953125,-20.1875,-1.234375
35,35,1727977741106,0.13476562,-0.8394165,-0.038391113,-3.71875,-30.9375,-3.84375
36,36,1727977741146,0.029296875,-0.81500244,-0.022521973,-4.578125,-22.921875,-3.359375
37,37,1727977741186,-0.09301758,-0.73321533,-0.12896729,-2.171875,-23.515625,-0.375
38,38,1727977741226,0.06665039,-0.829895,-0.022521973,7.953125,-12.125,0.6875
39,39,1727977741266,-0.033447266,-0.87091064,0.0014038086,2.625,-7.625,3.703125
40,40,1727977741306,0.02368164,-0.8418579,-0.02130127,5.984375,-4.84375,6.59375
41,41,1727977741346,0.03491211,-0.9302368,0.014831543,4.890625,-0.046875,7.671875
42,42,1727977741386,-0.043945312,-0.94903564,-0.0115356445,5.84375,8.421875,7.53125
43,43,1727977741426,-0.01977539,-0.88360596,-0.0713501,10.0625,-2.359375,9.59375
44,44,1727977741466,0.14379883,-0.97491455,0.027282715,7.328125,-0.875,9.421875
45,45,1727977741506,-0.15209961,-1.050354,0.11639404,-0.453125,12.359375,-6.953125
46,46,1727977741546,-0.08496094,-1.0840454,-0.05645752,11.890625,16.296875,-2.859375
47,47,1727977741586,0.14379883,-1.4512329,-0.1831665,8.71875,16.90625,3.1875
48,48,1727977741626,0.16259766,-1.4070435,-0.25494385,-2.375,16.296875,-4.125
49,49,1727977741666,0.1628418,-1.0784302,-0.21246338,1.5,11.828125,-6.265625
50,50,1727977741706,0.22241211,-1.0188599,-0.2925415,7.59375,10.984375,6.59375
51,51,1727977741746,0.12548828,-1.1885376,-0.411438,-6.875,15.8125,-1.546875
52,52,1727977741786,0.08935547,-1.1677856,-0.35601807,-2.46875,8.515625,-2.9375
53,53,1727977741826,0.13745117,-1.0090942,-0.19683838,2.640625,5.890625,-7.546875
54,54,1727977741866,0.06225586,-0.8833618,-0.12188721,-6.578125,3.171875,-5.359375
55,55,1727977741906,-0.09423828,-0.7991333,-0.059143066,-6.359375,8.765625,-7.328125
56,56,1727977741946,-0.16333008,-0.6777954,-0.08892822,-1.625,18.03125,-8.703125
57,57,1727977741986,-0.06762695,-0.6296997,-0.1362915,4.28125,25.78125,-6.28125
58,58,1727977742026,-0.041015625,-0.71954346,-0.19390869,-7.265625,19.703125,-2.796875
59,59,1727977742066,0.037353516,-0.85479736,-0.18927002,-1.59375,11.71875,-2.75
60,60,1727977742106,-0.008300781,-0.894104,-0.11920166,-5.078125,5.703125,1.546875
61,61,1727977742146,-0.12963867,-1.0046997,-0.13848877,-2.71875,8.015625,-1.203125
62,62,1727977742186,-0.1315918,-0.9006958,-0.15484619,3.578125,6.9375,3.140625
63,63,1727977742226,-0.0637207,-0.9234009,-0.105041504,7.734375,-0.84375,5.4375
64,64,1727977742266,-0.092041016,-0.9771118,-0.16265869,6.015625,-1.546875,7.6875
65,65,1727977742306,-0.13623047,-1.0908813,-0.061584473,7.734375,-2.609375,0.90625
66,66,1727977742346,-0.25390625,-1.0776978,-0.14337158,-6.015625,-0.03125,-2.59375
67,67,1727977742386,-0.005859375,-1.1345825,-0.18463135,-16.484375,-6.0,5.5625
68,68,1727977742426,0.2956543,-1.2979126,-0.16314697,-2.09375,-11.46875,4.328125
69,69,1727977742466,-0.09106445,-1.1472778,-0.22174072,-13.140625,-15.078125,0.796875
70,70,1727977742506,0.119384766,-1.2009888,-0.2666626,-6.171875,-21.046875,15.390625
71,71,1727977742546,0.15258789,-1.1470337,-0.13848877,-19.046875,-15.390625,2.359375
72,72,1727977742586,0.15551758,-1.0784302,-0.097229004,-13.3125,-19.484375,5.734375
73,73,1727977742626,0.3540039,-1.0569458,-0.04888916,-11.171875,-23.453125,9.734375
74,74,1727977742666,0.12182617,-0.9595337,0.016540527,-12.78125,-21.40625,-0.375
75,75,1727977742706,-0.0031738281,-0.97979736,-0.053527832,-15.5625,-27.734375,-2.5625
76,76,1727977742746,0.030517578,-0.8862915,0.011413574,-1.703125,-17.765625,-0.65625
77,77,1727977742786,0.09692383,-0.85113525,-0.018127441,-5.046875,-25.9375,2.53125
78,78,1727977742826,0.13183594,-0.86505127,0.01361084,-5.6875,-28.015625,2.453125
79,79,1727977742866,0.05419922,-0.8435669,0.039245605,0.09375,-28.96875,2.4375
80,80,1727977742906,-0.04296875,-0.8274536,0.027526855,1.875,-24.765625,0.5625
81,81,1727977742946,0.06298828,-0.85406494,0.04925537,2.703125,-19.5,3.828125
82,82,1727977742986,-0.044189453,-0.8069458,0.014099121,-4.796875,-8.421875,2.6875
83,83,1727977743026,0.059814453,-0.9092407,0.06561279,3.921875,-5.609375,9.46875
84,84,1727977743066,0.0021972656,-0.8245239,0.11566162,3.0,5.390625,1.953125
85,85,1727977743106,-0.03515625,-0.8596802,0.09490967,7.984375,1.0,9.125
86,86,1727977743146,0.021972656,-1.0064087,0.14276123,5.65625,6.53125,4.875
87,87,1727977743186,-0.10571289,-1.0842896,0.12030029,1.953125,16.890625,-4.578125
88,88,1727977743226,0.040039062,-1.2307739,-0.054748535,6.296875,9.0625,-2.703125
89,89,1727977743266,0.33496094,-1.5046997,-0.06402588,-0.5625,9.109375,6.1875
90,90,1727977743306,0.076660156,-1.2842407,-0.069885254,7.859375,14.140625,-11.84375
91,91,1727977743346,0.15356445,-0.88726807,-0.06768799,6.46875,11.046875,-3.234375
92,92,1727977743386,0.3371582,-1.1602173,-0.21954346,2.046875,7.8125,2.484375
93,93,1727977743426,0.13256836,-1.1409302,-0.24176025,3.4375,12.640625,-10.28125
94,94,1727977743466,0.095947266,-0.9248657,-0.17584229,8.4375,12.4375,-5.765625
95,95,1727977743506,0.08203125,-0.9529419,-0.1296997,11.921875,15.21875,-5.140625
96,96,1727977743546,0.012939453,-0.987854,-0.13311768,7.5,16.859375,-8.0625
97,97,1727977743586,-0.09887695,-0.88287354,-0.12042236,12.109375,25.375,-5.875
98,98,1727977743626,-0.12475586,-0.7954712,-0.11651611,17.140625,32.421875,-5.875
99,99,1727977743666,0.07421875,-0.85357666,-0.17681885,7.4375,33.359375,-2.28125
100,100,1727977743706,-0.047851562,-0.82598877,-0.11553955,7.765625,35.390625,-1.328125
101,101,1727977743746,-0.048828125,-0.82769775,-0.20123291,2.4375,28.71875,-0.71875
102,102,1727977743786,0.060546875,-0.866272,-0.18902588,1.0625,24.15625,2.734375
103,103,1727977743826,-0.049804688,-0.8543091,-0.15093994,0.234375,15.609375,1.859375
104,104,1727977743866,-0.016601562,-0.94000244,-0.18829346,4.375,10.0,5.546875
105,105,1727977743906,-0.0021972656,-0.9524536,-0.16925049,-0.734375,2.765625,6.265625
106,106,1727977743946,-0.043701172,-0.95880127,-0.16143799,-4.265625,-3.953125,3.171875
107,107,1727977743986,-0.20507812,-0.97662354,-0.16778564,-8.25,-4.421875,-0.640625
108,108,1727977744026,-0.21044922,-1.0564575,-0.14923096,-5.90625,-2.0,-1.515625
109,109,1727977744066,0.041748047,-1.1421509,-0.20831299,-10.46875,-5.34375,6.28125
110,110,1727977744106,0.106933594,-1.161438,-0.112854004,-12.125,-12.78125,0.046875
111,111,1727977744146,-0.16894531,-1.2903442,-0.20269775,-9.75,-10.265625,-4.5
112,112,1727977744186,0.12475586,-1.2896118,-0.27545166,0.078125,-13.765625,12.796875
113,113,1727977744226,0.390625,-1.173645,-0.12823486,-7.0,-17.046875,4.421875
114,114,1727977744266,-0.1184082,-1.0618286,-0.1428833,-5.65625,-13.609375,1.515625
115,115,1727977744306,-0.018066406,-0.9126587,-0.16461182,5.0,-6.125,5.5
116,116,1727977744346,0.28051758,-0.95440674,-0.12286377,0.953125,-5.5,0.8125
117,117,1727977744386,0.06738281,-0.98101807,-0.105529785,-6.296875,-12.578125,-1.484375
118,118,1727977744426,0.103515625,-0.91485596,-0.08673096,-6.1875,-14.5,-0.359375
119,119,1727977744466,0.11401367,-0.8623657,-0.040100098,-6.609375,-21.90625,0.109375
120,120,1727977744506,0.032226562,-0.83599854,-0.04547119,-5.46875,-20.90625,-3.53125
121,121,1727977744546,0.024414062,-0.79229736,-0.0791626,-0.5625,-27.28125,-3.5
122,122,1727977744586,0.059326172,-0.8699341,0.0067749023,-4.390625,-19.78125,-3.09375
123,123,1727977744626,-0.06542969,-0.8430786,-0.015686035,-3.546875,-15.875,-3.171875
124,124,1727977744666,0.01171875,-0.89019775,0.005554199,-11.3125,-16.59375,1.859375
125,125,1727977744706,0.0029296875,-0.9133911,0.04901123,-4.703125,-6.90625,-1.46875
126,126,1727977744746,-0.059570312,-0.8880005,0.0004272461,3.359375,-6.34375,1.328125
127,127,1727977744786,0.025878906,-0.93756104,0.10443115,-8.59375,-9.953125,4.515625
128,128,1727977744826,-0.056152344,-1.0366821,0.109802246,2.640625,-0.203125,-3.9375
129,129,1727977744866,-0.203125,-1.0474243,0.04071045,5.671875,-2.1875,-3.21875
130,130,1727977744906,0.12866211,-1.1055298,-0.07086182,6.765625,-2.84375,-4.671875
131,131,1727977744946,-0.015625,-1.4170532,-0.012512207,6.71875,4.734375,-6.828125
132,132,1727977744986,-0.08251953,-1.3433228,-0.22149658,4.296875,11.78125,0.15625
133,133,1727977745026,0.15698242,-1.0842896,-0.15045166,-11.9375,10.890625,-5.953125
134,134,1727977745066,0.2175293,-1.1521606,-0.24273682,-18.203125,17.0,0.328125
135,135,1727977745106,0.052001953,-1.1223755,-0.21051025,-12.546875,11.421875,-3.984375
136,136,1727977745146,0.031982422,-1.0584106,-0.1951294,-9.109375,11.03125,-4.75
137,137,1727977745186,-0.05834961,-0.90997314,-0.06939697,3.28125,13.671875,-6.796875
138,138,1727977745226,-0.03149414,-0.8652954,-0.057434082,6.578125,13.109375,-6.265625
139,139,1727977745266,-0.01953125,-0.770813,-0.09820557,8.046875,13.890625,-8.53125
140,140,1727977745306,-0.06225586,-0.76446533,-0.05328369,10.90625,13.40625,-8.90625
141,141,1727977745346,-0.03515625,-0.80914307,-0.07745361,10.15625,16.546875,-9.28125
142,142,1727977745386,-0.07714844,-0.8218384,-0.05987549,3.421875,17.265625,-8.21875
143,143,1727977745426,-0.15234375,-0.9031372,-0.08453369,-7.03125,20.984375,-6.84375
144,144,1727977745466,-0.25268555,-0.99176025,-0.15435791,8.4375,22.53125,-7.859375
145,145,1727977745506,0.17504883,-1.0508423,-0.13775635,18.078125,10.078125,-1.75
146,146,1727977745546,0.03955078,-0.72442627,0.008728027,17.234375,10.734375,1.203125
147,147,1727977745586,-0.020263672,-0.73638916,-0.051330566,11.203125,12.15625,-2.609375
148,148,1727977745626,-0.09399414,-0.7666626,-0.097961426,-0.84375,24.53125,-10.28125
149,149,1727977745666,-0.19067383,-0.84332275,-0.1716919,4.828125,29.921875,-8.90625
150,150,1727977745706,-0.008300781,-0.8699341,-0.19000244,12.09375,31.765625,-2.59375
151,151,1727977745746,-0.010253906,-0.82403564,-0.09893799,9.765625,24.9375,-0.0625
152,152,1727977745786,-0.06982422,-0.847229,-0.10430908,0.703125,24.34375,5.046875
153,153,1727977745826,-0.049560547,-0.85650635,-0.14971924,-0.8125,18.703125,5.640625
154,154,1727977745866,-0.0925293,-0.94073486,-0.19732666,-7.71875,11.796875,5.953125
155,155,1727977745906,0.11743164,-0.9155884,-0.21173096,3.03125,-4.25,13.75
156,156,1727977745946,0.119140625,-1.0891724,-0.039367676,-20.109375,-17.0,6.609375
157,157,1727977745986,-0.48754883,-1.260315,-0.12506104,-2.75,0.34375,-1.265625
158,158,1727977746026,-0.06738281,-1.0320435,-0.081604004,-2.65625,-2.828125,10.09375
159,159,1727977746066,0.33544922,-1.0950317,-0.0012817383,-9.015625,-1.984375,1.1875
160,160,1727977746106,-0.38208008,-1.1084595,-0.22418213,-12.40625,-6.140625,5.90625
161,161,1727977746146,0.39746094,-1.2820435,-0.30621338,-4.84375,-18.984375,21.46875
162,162,1727977746186,0.3947754,-1.2200317,-0.033996582,-4.890625,-16.609375,3.9375
163,163,1727977746226,-0.083740234,-1.1018677,-0.18365479,-1.828125,-17.734375,6.328125
164,164,1727977746266,0.34057617,-1.036438,-0.10455322,3.875,-11.65625,10.953125
165,165,1727977746306,0.18286133,-0.9614868,-0.059631348,2.390625,-9.390625,-0.953125
166,166,1727977746346,0.06689453,-0.96539307,-0.11138916,1.84375,-14.125,0.515625
167,167,1727977746386,0.18554688,-0.9348755,-0.066467285,4.515625,-9.515625,0.65625
168,168,1727977746426,0.15820312,-0.8596802,-0.050842285,-0.28125,-9.734375,-3.484375
169,169,1727977746466,0.111572266,-0.7683716,-0.10015869,-1.265625,-14.46875,-3.34375
170,170,1727977746506,0.17895508,-0.8140259,-0.081848145,-3.8125,-14.375,-3.09375
171,171,1727977746546,0.09375,-0.8850708,-0.11578369,-0.015625,-16.828125,-3.84375
172,172,1727977746586,0.15527344,-0.8665161,-0.065979004,6.65625,-18.296875,0.484375
173,173,1727977746626,0.10107422,-0.85894775,-0.070617676,2.421875,-14.734375,2.109375
174,174,1727977746666,0.041259766,-0.84332275,-0.085754395,1.015625,-14.1875,3.5625
175,175,1727977746706,0.07495117,-0.8792114,-0.054992676,1.125,-8.765625,7.15625
176,176,1727977746746,0.05126953,-0.87994385,-0.031311035,3.3125,-2.953125,4.1875
177,177,1727977746786,0.07299805,-0.9163208,-0.017150879,3.09375,-2.265625,6.53125
178,178,1727977746826,0.10571289,-0.9517212,0.03753662,2.375,3.171875,2.8125
179,179,1727977746866,0.010253906,-1.0401001,0.034118652,6.84375,3.953125,-1.046875
180,180,1727977746906,0.020263672,-1.130188,-0.05279541,4.90625,10.015625,-2.421875
181,181,1727977746946,0.1652832,-1.2424927,-0.18243408,4.1875,5.1875,1.46875
182,182,1727977746986,0.107910156,-1.5183716,-0.16412354,-6.578125,17.65625,2.140625
183,183,1727977747026,-0.0024414062,-1.2713013,-0.29278564,11.171875,23.046875,-16.140625
184,184,1727977747066,0.4975586,-0.99346924,-0.21002197,10.59375,5.171875,5.828125
185,185,1727977747106,0.40039062,-1.0410767,-0.25543213,-4.921875,8.78125,3.015625
186,186,1727977747146,-0.1237793,-1.1243286,-0.35650635,-3.078125,17.0,-6.53125
187,187,1727977747186,0.15917969,-0.9151001,-0.26690674,7.140625,10.671875,-4.09375
188,188,1727977747226,0.22998047,-0.80548096,-0.1272583,1.765625,7.59375,-5.59375
189,189,1727977747266,-0.021484375,-0.83013916,-0.1519165,-1.09375,7.890625,-4.84375
190,190,1727977747306,-0.07446289,-0.7991333,-0.16168213,-10.0,10.703125,-10.515625
191,191,1727977747346,-0.00390625,-0.7510376,-0.1182251,-1.78125,12.125,-7.375
192,192,1727977747386,-0.004638672,-0.8272095,-0.11236572,-13.328125,11.046875,-10.078125
193,193,1727977747426,-0.04272461,-0.8657837,-0.120910645,-6.671875,16.984375,-6.578125
194,194,1727977747466,-0.049072266,-0.9338989,-0.12652588,-9.71875,14.6875,-6.609375
195,195,1727977747506,0.0690918,-0.9390259,-0.13848877,3.984375,12.484375,-0.3125
196,196,1727977747546,0.029541016,-0.9038696,-0.113342285,-3.65625,4.484375,3.921875
197,197,1727977747586,-0.04663086,-0.96539307,-0.105773926,-0.625,0.890625,2.375
198,198,1727977747626,-0.140625,-0.98760986,-0.15924072,-5.46875,-0.203125,5.921875
199,199,1727977747666,-0.016601562,-1.0379028,-0.04083252,1.109375,-2.875,-0.328125
200,200,1727977747706,-0.14990234,-0.90875244,-0.13116455,-7.53125,-3.15625,-0.78125
201,201,1727977747746,-0.015136719,-0.95513916,-0.14678955,-2.265625,-16.515625,8.984375
202,202,1727977747786,0.17480469,-1.1714478,-0.16168213,-19.375,-25.3125,15.203125
203,203,1727977747826,0.37402344,-1.2857056,-0.0178833,-6.34375,-24.75,13.296875
204,204,1727977747866,-0.30908203,-0.8484497,-0.007873535,-6.0625,-10.5,-0.59375
205,205,1727977747906,0.13720703,-1.0122681,-0.25079346,10.96875,-17.078125,21.6875
206,206,1727977747946,0.4020996,-1.0750122,-0.07281494,-2.453125,-3.46875,3.0
207,207,1727977747986,-0.076660156,-1.0396118,-0.10308838,-7.609375,-3.59375,2.984375
208,208,1727977748026,0.24316406,-1.0408325,-0.12042236,-4.8125,-6.046875,10.015625
209,209,1727977748066,0.15429688,-1.1629028,-0.09869385,-7.75,-1.203125,1.4375
210,210,1727977748106,0.32714844,-1.131897,-0.15142822,-2.265625,-8.75,2.984375
211,211,1727977748146,0.4921875,-1.0579224,-0.1026001,0.15625,-16.015625,5.953125
212,212,1727977748186,0.21606445,-1.000061,-0.0068969727,-9.265625,-15.734375,-6.5
213,213,1727977748226,0.12963867,-1.0288696,-0.046936035,-0.59375,-21.421875,-0.265625
214,214,1727977748266,0.17675781,-0.911438,-0.055480957,-0.375,-28.28125,-2.390625
215,215,1727977748306,0.23095703,-0.8411255,-0.06378174,3.328125,-30.625,5.8125
216,216,1727977748346,0.048095703,-0.9221802,0.022155762,-6.140625,-27.1875,-0.25
217,217,1727977748386,-0.09472656,-0.76446533,0.046569824,4.234375,-12.234375,-1.5
218,218,1727977748426,-0.11645508,-0.6555786,0.04144287,2.390625,-9.390625,0.890625
219,219,1727977748466,0.12207031,-0.8147583,0.06365967,1.90625,-7.90625,3.53125
220,220,1727977748506,0.064453125,-0.7996216,0.06585693,3.65625,0.0,-1.40625
221,221,1727977748546,0.00024414062,-0.8640747,0.12176514,-4.6875,-1.578125,-1.5
222,222,1727977748586,-0.025146484,-1.1016235,0.14447021,-9.015625,4.046875,-11.171875
223,223,1727977748626,0.044433594,-1.1367798,0.0045776367,0.109375,1.578125,-7.296875
224,224,1727977748666,0.20117188,-1.3257446,0.0138549805,-1.59375,1.984375,3.78125
225,225,1727977748706,-0.0043945312,-1.468811,-0.0115356445,4.71875,15.203125,-4.03125
226,226,1727977748746,0.26586914,-1.1321411,-0.15362549,1.671875,6.625,-1.6875
227,227,1727977748786,0.37304688,-0.9351196,-0.11480713,8.25,6.09375,10.0
228,228,1727977748826,0.31713867,-1.0974731,-0.17999268,7.625,7.546875,-0.828125
229,229,1727977748866,0.19335938,-1.1057739,-0.17633057,9.515625,11.75,-1.953125
230,230,1727977748906,0.10229492,-0.9360962,-0.16363525,16.078125,13.5625,-3.328125
231,231,1727977748946,0.14672852,-0.9234009,-0.17095947,13.65625,14.234375,-4.359375
232,232,1727977748986,0.12597656,-0.85943604,-0.16143799,13.28125,13.1875,-6.296875
233,233,1727977749026,0.056884766,-0.7625122,-0.1182251,16.28125,20.828125,-4.015625
234,234,1727977749066,0.026855469,-0.76226807,-0.1453247,9.796875,22.03125,-8.5
235,235,1727977749106,-0.056884766,-0.79229736,-0.19122314,8.375,29.734375,-5.46875
236,236,1727977749146,0.016601562,-0.86065674,-0.19122314,3.71875,28.5625,-4.359375
237,237,1727977749186,0.05126953,-0.9246216,-0.1807251,0.75,22.65625,-1.609375
238,238,1727977749226,0.010009766,-0.94244385,-0.17877197,5.71875,21.90625,2.859375
239,239,1727977749266,-0.051757812,-1.0003052,-0.1885376,1.890625,17.984375,2.390625
240,240,1727977749306,0.0107421875,-1.0032349,-0.190979,10.328125,17.21875,6.546875
241,241,1727977749346,-0.050048828,-0.87164307,-0.22076416,1.703125,10.21875,9.890625
242,242,1727977749386,0.014160156,-0.9192505,-0.20880127,-0.921875,5.59375,7.265625
243,243,1727977749426,0.060546875,-1.0186157,-0.14776611,-7.046875,-2.5625,4.890625
244,244,1727977749466,-0.10498047,-0.94781494,-0.1651001,-12.203125,-8.5625,2.921875
245,245,1727977749506,-0.17700195,-0.93170166,-0.22857666,-7.125,2.265625,7.21875
246,246,1727977749546,0.3017578,-1.0803833,-0.23614502,-12.34375,-7.859375,11.875
247,247,1727977749586,0.13476562,-1.0964966,-0.074035645,-15.484375,-15.375,-3.78125
248,248,1727977749626,-0.34057617,-0.8867798,-0.21368408,-1.09375,-3.96875,1.484375
249,249,1727977749666,0.3491211,-1.0481567,-0.2600708,-7.875,-9.90625,10.34375
250,250,1727977749706,0.21826172,-1.2471313,-0.17340088,-10.34375,-14.390625,-2.40625
251,251,1727977749746,0.0024414062,-1.2700806,-0.24859619,-6.40625,-11.109375,5.65625
252,252,1727977749786,0.26831055,-1.1795044,-0.18096924,-7.71875,-6.609375,4.3125
253,253,1727977749826,0.0769043,-1.0532837,-0.18023682,0.234375,-1.34375,3.828125
254,254,1727977749866,0.24194336,-1.050354,-0.16851807,12.953125,-4.234375,6.25
255,255,1727977749906,0.3125,-0.9817505,-0.20587158,5.390625,-9.171875,1.25
256,256,1727977749946,0.29077148,-0.9295044,-0.1609497,-2.34375,-17.015625,-2.4375
257,257,1727977749986,0.111572266,-0.9299927,-0.117004395,-4.5,-19.5,-5.171875
258,258,1727977750026,0.109375,-0.87042236,-0.11456299,-3.09375,-21.6875,-2.625
259,259,1727977750066,0.25756836,-0.81378174,-0.09967041,-1.40625,-28.28125,-3.078125
260,260,1727977750106,0.1875,-0.84332275,-0.085510254,0.40625,-34.5625,-3.40625
261,261,1727977750146,0.084472656,-0.8875122,-0.05987549,-4.734375,-34.109375,-2.578125
262,262,1727977750186,0.0043945312,-0.82891846,-0.059631348,-4.1875,-24.9375,-1.015625
263,263,1727977750226,-0.029541016,-0.800354,-0.03692627,-3.703125,-22.828125,0.59375
264,264,1727977750266,0.04736328,-0.9138794,0.018249512,-5.859375,-9.984375,2.625
265,265,1727977750306,0.015380859,-0.87701416,-0.008361816,-4.546875,-6.21875,6.46875
266,266,1727977750346,0.13769531,-0.93634033,0.08880615,-9.671875,-2.390625,4.890625
267,267,1727977750386,0.0024414062,-0.90045166,0.055358887,9.703125,6.671875,-2.734375
268,268,1727977750426,-0.017822266,-0.9031372,0.028259277,9.015625,5.21875,0.515625
269,269,1727977750466,0.11352539,-1.1035767,-0.015197754,5.953125,9.140625,-8.75
270,270,1727977750506,-0.017578125,-1.2984009,-0.11602783,1.921875,11.8125,-6.328125
271,271,1727977750546,0.29077148,-1.2588501,-0.10479736,9.71875,10.875,5.890625
272,272,1727977750586,0.15405273,-1.196106,-0.019836426,-0.734375,14.75,-8.40625
273,273,1727977750626,0.16333008,-1.3535767,-0.25494385,-9.1875,8.421875,4.140625
274,274,1727977750666,0.28344727,-1.1604614,-0.32086182,-13.859375,19.640625,-1.171875
275,275,1727977750706,0.28149414,-0.91119385,-0.23614502,-13.4375,16.765625,-1.8125
276,276,1727977750746,0.30737305,-1.0120239,-0.18927002,-10.59375,14.046875,0.09375
277,277,1727977750786,0.045166016,-1.0188599,-0.19317627,-8.25,16.421875,-6.4375
278,278,1727977750826,0.05883789,-0.81915283,-0.13433838,8.453125,16.390625,-5.375
279,279,1727977750866,0.10449219,-0.741272,-0.09136963,8.15625,13.1875,-6.09375
280,280,1727977750906,0.012939453,-0.7127075,-0.07940674,6.90625,13.578125,-9.984375
281,281,1727977750946,-0.020263672,-0.7695923,-0.14263916,-3.4375,18.046875,-9.25
282,282,1727977750986,0.015625,-0.8147583,-0.13409424,-2.203125,22.8125,-8.875
283,283,1727977751026,-0.0009765625,-0.8616333,-0.12994385,-7.40625,25.4375,-8.265625
284,284,1727977751066,-0.020751953,-0.93927,-0.08282471,0.328125,25.109375,-3.40625
285,285,1727977751106,-0.08227539,-1.0049438,-0.06890869,0.296875,25.453125,-6.765625
286,286,1727977751146,-0.034423828,-1.0317993,-0.101379395,3.296875,23.34375,0.375
287,287,1727977751186,-0.012207031,-0.9324341,-0.058410645,7.734375,13.828125,5.375
288,288,1727977751226,0.011230469,-0.9089966,-0.06939697,8.25,6.765625,9.546875
289,289,1727977751266,0.060546875,-0.9602661,-0.15484619,1.0,-0.75,12.953125
290,290,1727977751306,0.010986328,-1.0508423,-0.0713501,-1.546875,-2.375,7.828125
291,291,1727977751346,-0.13012695,-1.0252075,-0.058410645,-6.703125,-7.140625,4.0
292,292,1727977751386,-0.20483398,-1.0640259,-0.13140869,-2.0625,10.65625,3.28125
293,293,1727977751426,0.11328125,-1.1865845,-0.17755127,-10.515625,-4.5625,11.28125
294,294,1727977751466,0.11450195,-1.2246704,0.0026245117,-6.625,-6.765625,-2.109375
295,295,1727977751506,-0.19482422,-1.0183716,-0.19805908,-5.0625,-5.953125,8.03125
296,296,1727977751546,0.44604492,-1.2764282,-0.24102783,-6.5,-17.1875,24.25
297,297,1727977751586,0.19848633,-1.2966919,0.024841309,-9.015625,-6.25,3.0625
298,298,1727977751626,-0.0073242188,-1.0515747,-0.13726807,1.46875,-6.140625,10.90625
299,299,1727977751666,0.33911133,-0.9458618,-0.13092041,7.5625,-2.4375,6.140625
300,300,1727977751706,0.28198242,-0.9209595,-0.16143799,-2.171875,-8.75,-3.796875
301,301,1727977751746,0.17456055,-0.9155884,-0.058166504,-7.65625,-12.046875,-3.984375
302,302,1727977751786,0.24707031,-0.9121704,-0.011047363,-4.0625,-18.421875,-0.5
303,303,1727977751826,0.15551758,-0.86920166,-0.0725708,-12.671875,-26.390625,-2.84375
304,304,1727977751866,0.087402344,-0.8225708,-0.066711426,-3.890625,-25.234375,-1.09375
305,305,1727977751906,0.06762695,-0.83477783,-0.022033691,1.203125,-23.265625,-1.09375
306,306,1727977751946,0.018066406,-0.8530884,0.0018920898,-1.859375,-22.4375,-0.5
307,307,1727977751986,0.0048828125,-0.8599243,0.021911621,-5.59375,-11.15625,-2.578125
308,308,1727977752026,0.018310547,-0.92315674,0.020446777,-9.671875,-6.640625,-1.265625
309,309,1727977752066,0.057617188,-0.8867798,0.08343506,1.1875,-1.03125,-1.578125
310,310,1727977752106,0.035888672,-0.89727783,0.047790527,-10.078125,-1.390625,0.421875
311,311,1727977752146,0.083984375,-0.94000244,0.15618896,2.625,3.25,1.28125
312,312,1727977752186,-0.009033203,-0.9187622,0.12982178,-3.234375,6.09375,0.234375
313,313,1727977752226,0.017089844,-0.93414307,0.20062256,7.609375,13.71875,-3.015625
314,314,1727977752266,-0.15161133,-0.9585571,0.07489014,-0.65625,10.578125,-0.609375
315,315,1727977752306,0.08227539,-1.2246704,0.14593506,-0.9375,15.09375,2.4375
316,316,1727977752346,-0.025634766,-1.2459106,-0.010803223,-4.09375,17.015625,-10.0625
317,317,1727977752386,0.055419922,-1.3609009,0.048034668,0.703125,23.484375,5.328125
318,318,1727977752426,0.14648438,-1.4192505,-0.20025635,-0.65625,25.359375,-5.515625
319,319,1727977752466,-0.24829102,-0.92071533,0.08319092,6.890625,-1.984375,8.8125
320,320,1727977752506,-0.24145508,-0.9331665,0.09197998,0.296875,-8.28125,10.421875
321,321,1727977752546,-0.2565918,-0.85284424,0.124694824,3.375,-6.140625,11.453125
322,322,1727977752586,-0.39501953,-0.8887329,0.077819824,3.953125,-3.703125,15.25
323,323,1727977752626,-0.12011719,-1.0598755,0.081726074,1.734375,-14.828125,16.5
324,324,1727977752666,-0.09887695,-1.203186,0.058532715,2.046875,-5.40625,16.265625
325,325,1727977752706,-0.1706543,-1.0403442,-0.097473145,19.796875,-9.0625,15.328125
326,326,1727977752746,0.083984375,-1.0996704,-0.09454346,9.703125,-18.390625,23.046875
327,327,1727977752786,-0.04736328,-1.2810669,-0.09112549,-1.9375,-6.5625,12.078125
328,328,1727977752826,-0.034423828,-1.2302856,-0.17266846,13.96875,-7.71875,11.546875
329,329,1727977752866,0.25830078,-1.1516724,-0.16241455,7.953125,-10.390625,13.765625
330,330,1727977752906,0.30371094,-1.2495728,-0.22076416,5.65625,-15.46875,11.28125
331,331,1727977752946,0.26879883,-1.1411743,-0.21514893,-2.796875,-18.203125,7.953125
332,332,1727977752986,0.22192383,-1.0735474,-0.12579346,4.40625,-16.5625,7.46875
333,333,1727977753026,0.19555664,-0.98321533,-0.06402588,-0.28125,-13.3125,3.53125
334,334,1727977753066,0.13891602,-0.9138794,-0.0803833,-2.296875,-15.8125,-1.453125
335,335,1727977753106,0.23242188,-0.8706665,-0.094055176,6.59375,-19.40625,-0.21875
336,336,1727977753146,0.20874023,-0.8394165,-0.043273926,4.40625,-21.25,3.5
337,337,1727977753186,0.091308594,-0.81915283,-0.081848145,1.328125,-24.90625,1.171875
338,338,1727977753226,0.06689453,-0.831604,-0.0071411133,2.109375,-20.171875,0.28125
339,339,1727977753266,0.025878906,-0.8189087,-0.026916504,3.03125,-13.015625,2.328125
340,340,1727977753306,-0.041015625,-0.7522583,-0.04473877,6.203125,-3.46875,4.84375
341,341,1727977753346,0.053955078,-0.8069458,-0.059631348,6.046875,-3.1875,5.359375
342,342,1727977753386,0.19897461,-0.91607666,-0.014221191,-5.390625,-1.125,4.484375
343,343,1727977753426,-0.00024414062,-0.86676025,0.062927246,2.75,1.78125,-0.640625
344,344,1727977753466,-0.11791992,-0.9668579,0.03778076,-4.140625,6.734375,-5.078125
345,345,1727977753506,-0.11694336,-1.0083618,0.028747559,1.40625,15.515625,-7.4375
346,346,1727977753546,0.07714844,-1.1619263,-0.07476807,2.203125,11.078125,-4.140625
347,347,1727977753586,0.22729492,-1.454895,-0.023986816,-5.109375,3.265625,-3.953125
348,348,1727977753626,0.06591797,-1.4653931,-0.22906494,3.15625,10.78125,-5.5
349,349,1727977753666,0.1394043,-1.0596313,-0.23858643,7.90625,4.375,-3.546875
350,350,1727977753706,0.26757812,-1.0325317,-0.23687744,-1.25,11.8125,2.890625
351,351,1727977753746,0.17407227,-1.232727,-0.33868408,-3.515625,22.34375,-1.171875
352,352,1727977753786,0.16748047,-1.02594,-0.3086548,5.4375,14.046875,-6.28125
353,353,1727977753826,0.0234375,-0.91192627,-0.16729736,0.59375,11.40625,-7.21875
354,354,1727977753866,-0.0041503906,-0.83428955,-0.097229004,1.875,9.921875,-4.765625
355,355,1727977753906,0.033447266,-0.7959595,-0.11090088,8.484375,10.046875,-4.59375
356,356,1727977753946,-0.07446289,-0.75445557,-0.04083252,5.328125,20.75,-8.390625
357,357,1727977753986,-0.0847168,-0.8230591,-0.19171143,-16.5625,17.265625,-11.921875
358,358,1727977754026,-0.056640625,-0.79400635,-0.051574707,-11.75,30.046875,-11.890625
359,359,1727977754066,-0.0949707,-0.88409424,-0.097717285,-0.484375,30.53125,-2.578125
360,360,1727977754106,-0.040527344,-0.9302368,-0.14654541,-10.578125,25.703125,-2.75
361,361,1727977754146,-0.040283203,-0.9644165,-0.14093018,-8.0,12.28125,0.796875
362,362,1727977754186,-0.0234375,-0.88409424,-0.059387207,3.765625,12.09375,8.21875
363,363,1727977754226,-0.11669922,-0.91656494,-0.09942627,-3.703125,12.5,5.03125
364,364,1727977754266,-0.04711914,-1.0200806,-0.101867676,-8.265625,7.875,8.40625
365,365,1727977754306,0.029052734,-0.9368286,-0.054016113,2.515625,-0.6875,5.453125
366,366,1727977754346,-0.1784668,-0.95269775,-0.06329346,0.578125,-4.4375,7.140625
367,367,1727977754386,-0.08203125,-1.1074829,-0.13677979,-8.8125,-5.171875,8.359375
368,368,1727977754426,0.14550781,-1.2080688,-0.047668457,-10.171875,-14.921875,10.21875
369,369,1727977754466,0.037841797,-1.1328735,0.03778076,-14.53125,-20.015625,3.21875
370,370,1727977754506,-0.15966797,-1.1487427,-0.14752197,-12.78125,-21.4375,7.15625
371,371,1727977754546,0.31420898,-1.255188,-0.15460205,1.078125,-20.234375,14.921875
372,372,1727977754586,0.11425781,-1.0610962,-0.05718994,1.71875,-16.28125,4.59375
373,373,1727977754626,-0.010986328,-1.0645142,-0.14093018,-0.609375,-7.421875,7.15625
374,374,1727977754666,0.23535156,-1.0015259,-0.08282471,-1.90625,-4.828125,9.4375
375,375,1727977754706,0.16064453,-1.0195923,-0.0025024414,1.96875,-2.609375,6.46875
376,376,1727977754746,0.1665039,-0.92022705,-0.03326416,-2.234375,-0.515625,2.671875
377,377,1727977754786,0.28808594,-0.90411377,-0.10040283,-8.4375,-8.828125,3.6875
378,378,1727977754826,0.21118164,-0.93292236,0.005065918,-5.109375,-9.171875,-1.046875
379,379,1727977754866,0.16967773,-0.85406494,-0.02545166,-2.09375,-16.15625,-1.640625
380,380,1727977754906,0.20117188,-0.8460083,-0.085754395,2.515625,-24.25,2.46875
381,381,1727977754946,0.12109375,-0.94317627,0.004333496,1.921875,-26.5625,3.59375
382,382,1727977754986,0.083740234,-0.89849854,-0.034484863,-4.953125,-24.015625,3.859375
383,383,1727977755026,0.048095703,-0.88604736,-0.0029907227,0.953125,-24.796875,6.359375
384,384,1727977755066,0.09716797,-0.9216919,0.043395996,-2.65625,-18.125,2.375
385,385,1727977755106,0.025390625,-0.87872314,0.030456543,7.59375,-13.3125,4.40625
386,386,1727977755146,0.13183594,-0.97125244,0.07098389,4.703125,-12.421875,5.703125
387,387,1727977755186,0.041992188,-0.86920166,0.07977295,6.96875,-6.421875,1.578125
388,388,1727977755226,0.06640625,-0.9072876,0.047546387,4.640625,-7.75,6.9375
389,389,1727977755266,0.07080078,-1.0525513,0.1486206,-2.4375,-5.4375,-2.03125
390,390,1727977755306,-0.16186523,-0.9866333,0.09222412,-5.859375,10.453125,-10.25
391,391,1727977755346,0.0031738281,-1.0845337,0.051452637,2.84375,8.171875,-6.984375
392,392,1727977755386,0.22485352,-1.3118286,0.02947998,-11.109375,5.015625,-9.453125
393,393,1727977755426,0.15600586,-1.5703735,-0.01373291,-4.28125,14.078125,-9.890625
394,394,1727977755466,0.053222656,-1.0708618,-0.120666504,2.671875,11.640625,-18.0625
395,395,1727977755506,0.3635254,-1.0564575,-0.11553955,9.640625,14.671875,4.15625
396,396,1727977755546,0.20117188,-1.1482544,-0.14849854,11.234375,19.15625,-5.6875
397,397,1727977755586,0.15039062,-1.0933228,-0.24053955,0.109375,18.5,-2.296875
398,398,1727977755626,0.10546875,-0.8899536,-0.109436035,10.6875,15.875,-3.859375
399,399,1727977755666,0.0769043,-0.9146118,-0.13873291,6.1875,10.140625,-3.59375
400,400,1727977755706,-0.006591797,-0.79644775,-0.09088135,5.28125,15.296875,-6.140625
401,401,1727977755746,-0.015380859,-0.66534424,-0.124572754,13.28125,18.421875,-1.5
402,402,1727977755786,0.10229492,-0.7695923,-0.073791504,13.65625,13.578125,-0.09375
403,403,1727977755826,-0.10961914,-0.81256104,-0.07720947,9.3125,21.828125,-3.90625
404,404,1727977755866,-0.114746094,-0.88531494,-0.17340088,11.25,23.0,0.265625
405,405,1727977755906,0.16845703,-0.94073486,-0.13018799,15.78125,20.296875,3.0
406,406,1727977755946,-0.12426758,-0.98150635,-0.13824463,11.9375,21.75,0.4375
407,407,1727977755986,-0.080078125,-0.9924927,-0.23565674,8.75,17.90625,5.5625
408,408,1727977756026,0.07397461,-0.9834595,-0.13873291,13.09375,16.53125,4.9375
409,409,1727977756066,-0.107666016,-0.9024048,-0.17779541,8.953125,16.671875,5.890625
410,410,1727977756106,-0.03515625,-0.9312134,-0.27398682,2.09375,7.046875,9.171875
411,411,1727977756146,0.06958008,-0.94488525,-0.19708252,2.59375,6.203125,3.140625
412,412,1727977756186,-0.06323242,-0.9402466,-0.16534424,-2.84375,-3.265625,3.203125
413,413,1727977756226,-0.05859375,-1.1314087,-0.25665283,-10.09375,0.796875,3.015625
414,414,1727977756266,0.08642578,-1.223938,-0.33648682,-3.0,-6.203125,8.625
415,415,1727977756306,0.26098633,-1.3013306,-0.23199463,-11.1875,-13.171875,0.53125
416,416,1727977756346,-0.19824219,-1.1428833,-0.2786255,-5.125,-6.21875,4.78125
417,417,1727977756386,0.09887695,-1.0310669,-0.3633423,-2.21875,-10.6875,16.578125
418,418,1727977756426,0.32836914,-1.0232544,-0.21685791,-9.203125,-9.546875,5.921875
419,419,1727977756466,0.049316406,-1.0435181,-0.23638916,-9.59375,-7.859375,4.296875
420,420,1727977756506,0.20214844,-0.9402466,-0.19854736,-8.296875,-7.90625,4.25
421,421,1727977756546,0.23632812,-0.9277954,-0.19732666,-14.75,-7.84375,1.21875
422,422,1727977756586,0.15332031,-0.9639282,-0.1765747,-21.828125,-12.609375,-2.390625
423,423,1727977756626,0.14550781,-0.8584595,-0.06060791,-13.734375,-12.609375,-3.109375
424,424,1727977756666,0.21582031,-0.847229,-0.109436035,-25.5,-19.453125,-6.59375
425,425,1727977756706,0.2109375,-0.8179321,-0.08258057,-8.40625,-24.671875,-0.421875
426,426,1727977756746,0.19311523,-0.8945923,-0.0095825195,-4.5625,-33.28125,-1.484375
427,427,1727977756786,-0.024414062,-0.8596802,-0.04840088,-5.78125,-34.46875,-0.03125
428,428,1727977756826,0.037353516,-0.83843994,0.010192871,-14.0,-33.34375,2.953125
429,429,1727977756866,-0.03540039,-0.8291626,0.039489746,-9.875,-21.78125,1.609375
430,430,1727977756906,0.0056152344,-0.958313,0.036315918,-6.640625,-19.046875,9.109375
431,431,1727977756946,0.12426758,-0.99053955,0.1449585,-4.953125,-12.765625,4.140625
432,432,1727977756986,-0.0034179688,-0.9192505,0.13104248,-4.203125,-8.6875,4.15625
433,433,1727977757026,0.08276367,-0.9673462,0.19891357,-1.28125,-4.671875,1.28125
434,434,1727977757066,-0.056640625,-0.9234009,0.19158936,6.546875,2.5625,-3.734375
435,435,1727977757106,0.0078125,-1.083313,0.20550537,-5.375,2.78125,0.265625
436,436,1727977757146,0.041259766,-1.2622681,0.11004639,7.734375,15.75,-8.703125
437,437,1727977757186,0.28320312,-1.47052,-0.116760254,-0.71875,11.609375,6.6875
438,438,1727977757226,0.18920898,-1.4829712,-0.03765869,-5.875,28.640625,-2.34375
439,439,1727977757266,0.080322266,-0.85723877,-0.19342041,-0.140625,20.796875,-9.28125
440,440,1727977757306,0.46044922,-0.9338989,-0.03375244,8.765625,18.515625,17.265625
441,441,1727977757346,0.1628418,-1.1226196,-0.04522705,3.328125,22.15625,-2.484375
442,442,1727977757386,0.044921875,-0.923645,-0.20513916,11.15625,26.265625,-5.03125
443,443,1727977757426,0.06542969,-0.75616455,-0.074279785,12.9375,25.203125,-9.234375
444,444,1727977757466,0.1171875,-0.8875122,-0.097717285,13.078125,28.34375,-12.671875
445,445,1727977757506,-0.048339844,-0.7822876,-0.08746338,3.453125,34.3125,-10.375
446,446,1727977757546,0.026367188,-0.79888916,-0.09967041,1.265625,31.984375,-10.5
447,447,1727977757586,-0.020019531,-0.88482666,-0.08892822,4.796875,39.390625,-12.203125
448,448,1727977757626,-0.015136719,-0.9109497,-0.15655518,3.953125,36.859375,-7.84375
449,449,1727977757666,0.045898438,-0.95684814,-0.061828613,10.078125,31.609375,-1.546875
450,450,1727977757706,-0.08178711,-0.93414307,-0.06695557,9.609375,30.4375,-3.484375
451,451,1727977757746,-0.009033203,-0.9319458,-0.16436768,0.765625,24.984375,2.609375
452,452,1727977757786,0.060546875,-0.99884033,-0.058410645,11.8125,18.34375,2.609375
453,453,1727977757826,-0.0012207031,-0.9343872,-0.14752197,6.390625,12.75,5.265625
454,454,1727977757866,0.05908203,-0.94122314,-0.16925049,2.0,-0.03125,7.5625
455,455,1727977757906,-0.041259766,-0.9192505,-0.09210205,-0.484375,-2.46875,6.21875
456,456,1727977757946,-0.24560547,-0.9885864,-0.15460205,-2.59375,-1.359375,7.09375
457,457,1727977757986,-0.1105957,-1.0794067,-0.11016846,-6.296875,-6.078125,6.953125
458,458,1727977758026,-0.08935547,-1.1067505,-0.11627197,-2.671875,6.828125,12.15625
459,459,1727977758066,0.095947266,-1.2583618,-0.17633057,-6.6875,-4.171875,12.03125
460,460,1727977758106,0.044921875,-1.2337036,-0.14263916,-7.078125,-2.0,3.71875
461,461,1727977758146,-0.020751953,-1.1204224,-0.29815674,-1.828125,-2.640625,14.328125
462,462,1727977758186,0.37036133,-1.2102661,-0.24957275,-1.25,-11.03125,15.78125
463,463,1727977758226,0.4453125,-1.194397,-0.121398926,-5.203125,-12.078125,9.3125
464,464,1727977758266,0.1105957,-0.9692993,-0.21661377,4.03125,-11.828125,5.359375
465,465,1727977758306,0.35717773,-0.9360962,-0.20025635,1.265625,-15.09375,5.96875
466,466,1727977758346,0.25,-0.972229,-0.12335205,-3.328125,-17.21875,-2.484375
467,467,1727977758386,0.12548828,-0.8543091,-0.12554932,-9.34375,-21.40625,-0.640625
468,468,1727977758426,0.19604492,-0.7908325,-0.049865723,-10.46875,-23.296875,2.546875
469,469,1727977758466,0.14013672,-0.82110596,-0.043273926,-4.6875,-23.796875,-1.484375
470,470,1727977758506,0.084228516,-0.8491821,-0.06500244,-2.625,-25.6875,-4.1875
471,471,1727977758546,0.08300781,-0.8518677,0.02142334,-2.203125,-16.5,-2.9375
472,472,1727977758586,-0.0043945312,-0.83380127,0.012878418,-7.15625,-13.9375,-5.75
473,473,1727977758626,0.049804688,-0.87823486,0.04852295,-0.171875,-4.96875,-1.984375
474,474,1727977758666,0.04345703,-0.86187744,0.039978027,-3.9375,-1.125,-2.453125
475,475,1727977758706,0.04711914,-0.8687134,0.03265381,-2.53125,1.5625,0.59375
476,476,1727977758746,0.07348633,-0.90338135,0.070251465,1.109375,3.609375,2.59375
477,477,1727977758786,0.018310547,-0.9483032,0.07269287,3.28125,5.390625,-1.03125
478,478,1727977758826,-0.0087890625,-1.0130005,0.11468506,-4.78125,8.53125,-0.625
479,479,1727977758866,-0.095947266,-1.0393677,0.13494873,6.921875,22.65625,-2.53125
480,480,1727977758906,-0.045410156,-1.1289673,0.10418701,4.421875,18.796875,1.328125
481,481,1727977758946,0.10839844,-1.3049927,0.04095459,-1.5,32.484375,-3.96875
482,482,1727977758986,0.017822266,-1.4649048,-0.105529785,-0.375,29.09375,-1.90625
483,483,1727977759026,0.3005371,-1.4331665,-0.300354,-0.65625,24.265625,-4.0625
484,484,1727977759066,0.38305664,-1.0916138,-0.29986572,-11.78125,19.921875,-2.859375
485,485,1727977759106,0.23242188,-0.95440674,-0.33599854,-0.84375,12.296875,1.546875
486,486,1727977759146,0.15966797,-0.91851807,-0.26348877,-3.21875,9.390625,-3.890625
487,487,1727977759186,-0.0078125,-0.9307251,-0.1975708,-5.078125,14.21875,-4.3125
488,488,1727977759226,-0.09033203,-0.8701782,-0.07501221,-25.09375,25.59375,-12.28125
489,489,1727977759266,-0.1003418,-0.7769165,-0.046203613,-22.59375,33.4375,-16.3125
490,490,1727977759306,-0.092041016,-0.94537354,-0.16583252,9.265625,25.109375,-1.984375
491,491,1727977759346,-0.022705078,-0.9927368,-0.12213135,10.859375,18.015625,2.75
492,492,1727977759386,-0.1472168,-0.9812622,-0.12921143,14.390625,14.359375,2.140625
493,493,1727977759426,-0.115722656,-0.91900635,-0.15631104,14.53125,10.171875,4.703125
494,494,1727977759466,-0.046875,-0.96759033,-0.17730713,15.546875,4.890625,5.34375
495,495,1727977759506,-0.111328125,-0.93341064,-0.17584229,13.4375,-2.078125,7.703125
496,496,1727977759546,-0.08203125,-0.9500122,-0.16534424,5.34375,-7.765625,7.21875
497,497,1727977759586,-0.103027344,-0.9241333,-0.17315674,10.125,-10.890625,9.4375
498,498,1727977759626,-0.10253906,-0.90289307,-0.17559814,9.09375,-17.078125,12.40625
499,499,1727977759666,-0.12036133,-0.9524536,-0.23199463,8.09375,-12.734375,14.5625
500,500,1727977759706,0.0036621094,-1.0315552,-0.33770752,8.71875,-19.40625,19.8125
501,501,1727977759746,0.1003418,-1.1467896,-0.23809814,-1.53125,-18.265625,11.515625
502,502,1727977759786,-0.13720703,-1.1841431,-0.2962036,5.09375,-1.453125,13.171875
503,503,1727977759826,0.1352539,-1.1633911,-0.40802002,-0.8125,-9.609375,17.078125
504,504,1727977759866,0.26220703,-1.1030884,-0.24029541,-9.34375,-9.09375,13.84375
505,505,1727977759906,0.083984375,-1.1387329,-0.34259033,-0.703125,1.578125,7.765625
506,506,1727977759946,0.4362793,-1.0012817,-0.36505127,2.203125,-4.421875,9.40625
507,507,1727977759986,0.4111328,-0.9077759,-0.35723877,0.671875,-9.09375,3.34375
508,508,1727977760026,0.30810547,-0.940979,-0.30499268,-4.125,-14.453125,0.84375
509,509,1727977760066,0.26611328,-0.9456177,-0.19439697,-6.203125,-15.5,0.40625
510,510,1727977760106,0.19506836,-0.9155884,-0.22027588,-8.015625,-15.65625,-5.546875
511,511,1727977760146,0.18774414,-0.8665161,-0.17755127,-7.125,-11.125,-2.453125
512,512,1727977760186,0.15625,-0.85357666,-0.26080322,-4.703125,-15.453125,-3.3125
513,513,1727977760226,0.2211914,-0.8748169,-0.15020752,-5.828125,-14.71875,-1.8125
514,514,1727977760266,0.09765625,-0.8413696,-0.16436768,-6.671875,-18.359375,0.296875
515,515,1727977760306,0.12768555,-0.8518677,-0.08721924,-2.34375,-11.640625,3.40625
516,516,1727977760346,0.10864258,-0.83917236,-0.12628174,0.75,-6.09375,-0.125
517,517,1727977760386,0.21044922,-0.8135376,-0.06817627,1.671875,-5.875,4.859375
518,518,1727977760426,0.15771484,-0.8320923,-0.053771973,-5.640625,-1.375,-0.34375
519,519,1727977760466,0.13989258,-0.8599243,-0.042785645,0.953125,6.109375,-1.875
520,520,1727977760506,0.0859375,-0.975647,-0.024230957,-6.953125,9.65625,-4.234375
521,521,1727977760546,0.08984375,-1.0527954,-0.116760254,-5.078125,8.484375,-9.359375
522,522,1727977760586,0.17578125,-1.0791626,-0.14581299,3.46875,-8.484375,2.953125
523,523,1727977760626,0.25634766,-1.5681763,-0.20977783,-9.859375,-6.34375,4.703125
524,524,1727977760666,0.18139648,-1.4172974,-0.28668213,-16.34375,7.21875,-12.421875
525,525,1727977760706,0.29907227,-0.98687744,-0.20220947,-26.09375,2.171875,-4.953125
526,526,1727977760746,0.39453125,-1.0205688,-0.22247314,-5.921875,5.25,3.6875
527,527,1727977760786,0.21362305,-1.1304321,-0.30059814,-3.515625,12.453125,-3.65625
528,528,1727977760826,0.3334961,-0.99005127,-0.1975708,1.875,8.59375,-5.421875
529,529,1727977760866,0.2084961,-0.8731079,-0.13726807,-5.03125,11.609375,-6.984375
530,530,1727977760906,-0.022705078,-0.75250244,-0.061340332,-1.328125,12.859375,-10.296875
531,531,1727977760946,-0.12915039,-0.76934814,-0.08892822,-4.75,19.3125,-15.296875
532,532,1727977760986,0.064697266,-0.8106079,-0.08892822,-6.25,21.390625,-16.359375
533,533,1727977761026,0.0126953125,-0.7871704,-0.054504395,-7.125,25.765625,-14.84375
534,534,1727977761066,-0.0034179688,-0.83551025,-0.022766113,-5.1875,25.96875,-13.84375
535,535,1727977761106,-0.051757812,-0.90167236,-0.046691895,-3.625,27.15625,-7.484375
536,536,1727977761146,0.0009765625,-1.0220337,-0.06304932,6.296875,24.53125,-3.234375
537,537,1727977761186,0.03857422,-0.9697876,-0.010559082,16.234375,21.46875,1.9375
538,538,1727977761226,-0.10058594,-0.9143677,-0.015686035,10.0625,14.90625,3.390625
539,539,1727977761266,-0.08886719,-0.9661255,-0.11016846,0.46875,12.109375,6.046875
540,540,1727977761306,-0.043945312,-0.9163208,-0.121398926,-5.765625,1.875,7.59375
541,541,1727977761346,0.03515625,-1.0007935,-0.066711426,-11.734375,-5.8125,6.609375
542,542,1727977761386,-0.09423828,-1.1062622,-0.012512207,-20.75,-7.078125,-4.21875
543,543,1727977761426,-0.20288086,-1.1055298,-0.10333252,-8.703125,-5.546875,-1.921875
544,544,1727977761466,0.0949707,-1.2185669,-0.051574707,-4.453125,-16.578125,6.15625
545,545,1727977761506,0.042236328,-1.1900024,-0.06451416,-12.734375,-7.203125,-6.265625
546,546,1727977761546,-0.0078125,-1.1382446,-0.28448486,-0.703125,-13.765625,12.6875
547,547,1727977761586,0.3203125,-1.3186646,-0.11651611,-1.328125,-21.03125,9.875
548,548,1727977761626,0.092041016,-1.0806274,-0.049621582,-4.1875,-15.390625,2.953125
549,549,1727977761666,0.23388672,-0.92193604,-0.16705322,-2.0,-26.4375,11.09375
550,550,1727977761706,0.4267578,-1.0105591,-0.08111572,3.625,-22.28125,9.46875
551,551,1727977761746,-0.057861328,-0.9944458,-0.02178955,-6.078125,-20.890625,-0.328125
552,552,1727977761786,0.06201172,-0.928772,-0.05621338,-7.765625,-12.546875,0.6875
553,553,1727977761826,0.13061523,-0.8909302,0.050476074,2.78125,-10.796875,2.984375
554,554,1727977761866,0.2512207,-0.8518677,0.03704834,6.859375,-12.53125,6.0625
555,555,1727977761906,0.12036133,-0.79278564,-0.0178833,-5.046875,-18.015625,7.40625
556,556,1727977761946,0.06713867,-0.7593384,0.009460449,3.015625,-10.859375,4.828125
557,557,1727977761986,0.06640625,-0.829895,-0.019348145,-1.375,-11.515625,4.65625
558,558,1727977762026,0.15258789,-0.87994385,0.070251465,0.875,-5.375,2.546875
559,559,1727977762066,-0.021484375,-0.86016846,-0.012756348,-5.09375,-4.125,1.25
560,560,1727977762106,0.14404297,-0.91656494,0.043884277,3.40625,-0.84375,4.109375
561,561,1727977762146,0.056640625,-0.93414307,0.08001709,5.453125,9.015625,-3.265625
562,562,1727977762186,0.0793457,-0.89923096,0.04925537,8.4375,4.46875,0.671875
563,563,1727977762226,0.15014648,-0.9573364,0.07684326,1.84375,8.921875,-3.328125
564,564,1727977762266,-0.0021972656,-1.0652466,0.03704834,-0.6875,10.9375,-2.71875
565,565,1727977762306,-0.01586914,-1.0818481,0.010437012,-6.4375,15.15625,-8.890625
566,566,1727977762346,0.1081543,-1.2224731,-0.11627197,1.046875,16.78125,-5.265625
567,567,1727977762386,0.4284668,-1.3118286,0.028747559,-9.671875,2.734375,7.953125
568,568,1727977762426,0.0073242188,-1.5476685,-0.009094238,-10.0,9.90625,-11.875
569,569,1727977762466,0.1171875,-1.1660767,-0.16925049,3.484375,5.75,2.125
570,570,1727977762506,0.47851562,-0.9241333,-0.11602783,7.546875,3.9375,3.6875
571,571,1727977762546,0.046142578,-0.848938,-0.13995361,11.359375,8.734375,-2.203125
572,572,1727977762586,0.119140625,-0.90460205,-0.1807251,8.515625,10.609375,4.40625
573,573,1727977762626,0.13427734,-0.880188,-0.13580322,13.765625,17.125,-3.046875
574,574,1727977762666,0.038085938,-0.850647,-0.09967041,11.75,19.25,0.96875
575,575,1727977762706,-0.01953125,-0.9338989,-0.08892822,9.078125,27.265625,-7.140625
576,576,1727977762746,-0.11767578,-0.8250122,-0.09844971,17.390625,35.96875,-8.4375
577,577,1727977762786,0.109375,-0.8303833,-0.1975708,4.625,28.109375,0.3125
578,578,1727977762826,0.08154297,-0.95806885,-0.13555908,2.59375,27.296875,-4.9375
579,579,1727977762866,-0.030273438,-0.9043579,-0.16827393,2.0625,20.109375,-1.25
580,580,1727977762906,0.020507812,-0.9155884,-0.1350708,-0.265625,15.34375,-2.125
581,581,1727977762946,-0.006591797,-0.95684814,-0.19537354,3.921875,11.5,0.234375
582,582,1727977762986,-0.032714844,-0.93536377,-0.16290283,2.015625,6.75,2.6875
583,583,1727977763026,-0.052734375,-0.8999634,-0.21807861,4.796875,9.40625,-0.328125
584,584,1727977763066,0.0068359375,-0.90509033,-0.18267822,4.75,-1.859375,2.25
585,585,1727977763106,-0.048583984,-0.92193604,-0.12677002,3.65625,-1.828125,-2.09375
586,586,1727977763146,-0.19311523,-0.91534424,-0.24908447,0.234375,-9.53125,3.53125
587,587,1727977763186,0.0769043,-1.0547485,-0.24957275,-3.359375,-10.3125,5.515625
588,588,1727977763226,0.19238281,-1.1218872,-0.22027588,-4.703125,-16.203125,7.375
589,589,1727977763266,-0.13891602,-1.1502075,-0.190979,-1.28125,-7.640625,-1.25
590,590,1727977763306,0.031982422,-1.1973267,-0.38702393,1.390625,-10.640625,8.046875
591,591,1727977763346,0.3244629,-1.4055786,-0.21221924,-10.4375,-11.84375,5.796875
592,592,1727977763386,0.13232422,-1.27594,-0.22369385,-5.328125,-12.15625,3.53125
593,593,1727977763426,0.07055664,-0.88775635,-0.23834229,7.71875,-11.453125,6.953125
594,594,1727977763466,0.27172852,-0.8442993,-0.22149658,4.25,-5.828125,4.078125
595,595,1727977763506,0.20581055,-0.9180298,-0.18389893,0.59375,-9.078125,3.125
596,596,1727977763546,0.05810547,-0.87701416,-0.1506958,-6.125,-15.25,-5.453125
597,597,1727977763586,0.13574219,-0.8701782,-0.11627197,-7.828125,-17.609375,-2.796875
598,598,1727977763626,0.15673828,-0.8467407,-0.10748291,-20.578125,-27.453125,-3.34375
599,599,1727977763666,0.23706055,-0.84747314,-0.093811035,-24.109375,-30.1875,-1.5625
600,600,1727977763706,0.10571289,-0.88238525,0.0018920898,-8.46875,-19.515625,0.21875
601,601,1727977763746,0.08642578,-0.95196533,-0.066467285,-7.40625,-13.34375,-3.5625
602,602,1727977763786,0.036621094,-0.9072876,-0.08404541,-9.53125,-10.59375,1.609375
603,603,1727977763826,0.13061523,-0.8875122,0.011169434,-7.4375,-9.84375,2.328125
604,604,1727977763866,0.030029297,-0.90167236,0.032165527,-4.578125,-4.234375,1.0
605,605,1727977763906,0.1586914,-0.91851807,0.0018920898,-3.4375,-9.09375,6.140625
606,606,1727977763946,0.096191406,-0.93829346,0.12982178,-5.640625,0.765625,-2.59375
607,607,1727977763986,-0.037841797,-0.89385986,0.04559326,-4.921875,1.0625,-4.125
608,608,1727977764026,0.07055664,-1.0523071,0.06390381,-8.359375,5.515625,-4.671875
609,609,1727977764066,-0.067871094,-1.24469,0.07611084,-17.265625,14.125,-15.734375
610,610,1727977764106,0.17260742,-1.2896118,-0.03668213,-22.34375,6.484375,-7.59375
611,611,1727977764146,0.3935547,-1.583313,0.13861084,-26.09375,9.8125,1.9375
612,612,1727977764186,-0.25976562,-1.1045532,-0.051086426,-4.796875,16.40625,-25.359375
613,613,1727977764226,0.4194336,-0.88653564,-0.1182251,-0.484375,9.421875,10.3125
614,614,1727977764266,0.31884766,-1.0559692,-0.042785645,7.375,10.890625,-5.578125
615,615,1727977764306,0.053466797,-0.99420166,-0.117492676,-4.9375,4.359375,-4.796875
616,616,1727977764346,0.08227539,-0.9085083,-0.05621338,8.546875,1.640625,1.546875
617,617,1727977764386,0.036865234,-0.83917236,0.022888184,3.765625,4.375,-4.78125
618,618,1727977764426,-0.10253906,-0.7661743,0.045837402,5.90625,7.203125,-6.5
619,619,1727977764466,-0.09667969,-0.798645,-0.0044555664,3.71875,14.5625,-9.328125
620,620,1727977764506,-0.015625,-0.8579712,-0.012512207,5.765625,12.8125,-8.34375
621,621,1727977764546,0.03881836,-0.909729,-0.0049438477,4.859375,11.921875,-4.15625
622,622,1727977764586,-0.013671875,-0.8999634,0.01751709,11.078125,14.953125,-5.8125
623,623,1727977764626,-0.084472656,-0.90997314,-0.038635254,4.734375,14.21875,-2.53125
624,624,1727977764666,0.092285156,-0.97076416,-0.04815674,7.609375,4.953125,-0.203125
625,625,1727977764706,-0.04736328,-0.9636841,-0.026184082,9.953125,5.953125,3.203125
626,626,1727977764746,-0.0031738281,-0.9871216,0.027282715,5.28125,-1.671875,3.0
627,627,1727977764786,-0.06982422,-0.95196533,-0.03643799,0.359375,3.1875,3.203125
628,628,1727977764826,-0.13549805,-1.013977,0.024353027,-3.484375,-0.46875,4.515625
629,629,1727977764866,-0.014892578,-1.0718384,0.041931152,-6.03125,-1.390625,0.46875
630,630,1727977764906,-0.115722656,-0.8953247,0.07220459,-8.453125,0.75,-2.984375
631,631,1727977764946,-0.08154297,-1.0574341,0.038513184,-6.1875,-5.75,1.890625
632,632,1727977764986,-0.049072266,-1.170227,0.010192871,-16.265625,-6.453125,2.375
633,633,1727977765026,0.21948242,-1.430481,-0.005432129,-12.578125,-12.828125,1.75
634,634,1727977765066,-0.06616211,-1.2107544,-0.00079345703,-5.046875,-10.015625,0.328125
635,635,1727977765106,0.0063476562,-1.1785278,-0.16705322,8.96875,-12.46875,14.5
636,636,1727977765146,0.46777344,-1.1377563,-0.077941895,8.53125,-19.25,11.65625
637,637,1727977765186,0.08520508,-0.96417236,-0.055480957,5.390625,-20.0,1.34375
638,638,1727977765226,0.07543945,-0.96099854,-0.17926025,2.65625,-23.546875,9.484375
639,639,1727977765266,0.24926758,-0.9319458,-0.03643799,6.203125,-21.90625,5.359375
640,640,1727977765306,0.044189453,-0.93878174,-0.054016113,-10.859375,-27.390625,3.015625
641,641,1727977765346,0.049804688,-0.9536743,0.008728027,-6.9375,-26.21875,0.609375
642,642,1727977765386,0.11791992,-0.8152466,-0.010314941,0.21875,-30.21875,0.625
643,643,1727977765426,0.051757812,-0.7944946,0.019470215,1.984375,-30.53125,-0.390625
644,644,1727977765466,0.016601562,-0.82110596,0.034118652,3.859375,-30.46875,-0.703125
645,645,1727977765506,-0.0009765625,-0.8508911,0.053894043,4.03125,-22.921875,1.4375
646,646,1727977765546,0.033935547,-0.8928833,0.01727295,-2.703125,-21.859375,1.359375
647,647,1727977765586,0.06762695,-0.9260864,0.062927246,2.765625,-15.5,3.875
648,648,1727977765626,-0.036132812,-0.87335205,0.08660889,-1.03125,-8.53125,4.65625
649,649,1727977765666,0.012939453,-0.878479,0.050720215,-3.359375,-7.140625,5.234375
650,650,1727977765706,0.0793457,-1.0361938,0.1305542,-0.484375,-3.5625,6.5625
651,651,1727977765746,-0.12402344,-1.086731,0.22723389,1.734375,11.46875,-5.890625
652,652,1727977765786,-0.14257812,-1.1672974,-6.1035156e-05,5.609375,19.375,-4.8125
653,653,1727977765826,0.25390625,-1.2940063,-0.051818848,11.5625,16.671875,1.09375
654,654,1727977765866,0.27612305,-1.576477,-0.113586426,4.640625,23.828125,2.75
655,655,1727977765906,0.04321289,-0.954895,-0.13165283,14.546875,19.296875,-11.234375
656,656,1727977765946,0.4489746,-1.078186,-0.15679932,10.265625,18.625,7.875
657,657,1727977765986,-0.0021972656,-1.1448364,-0.18096924,11.5625,29.140625,-9.71875
658,658,1727977766026,-0.115234375,-0.9602661,-0.18292236,5.515625,31.21875,-6.0
659,659,1727977766066,-0.0073242188,-0.86798096,-0.15777588,13.828125,32.171875,-3.015625
660,660,1727977766106,0.026855469,-0.8843384,-0.1116333,10.734375,35.546875,-5.5
661,661,1727977766146,-0.03100586,-0.73638916,-0.12286377,11.65625,31.0625,-3.46875
662,662,1727977766186,0.01171875,-0.75860596,-0.14801025,13.703125,38.90625,-4.96875
663,663,1727977766226,-0.09399414,-0.76104736,-0.116760254,12.4375,39.796875,-1.390625
664,664,1727977766266,-0.032958984,-0.8616333,-0.2703247,7.078125,34.453125,-5.40625
665,665,1727977766306,0.09277344,-0.86724854,-0.14752197,7.25,24.390625,0.796875
666,666,1727977766346,-0.0871582,-0.9680786,-0.15533447,-3.109375,23.4375,-0.875
667,667,1727977766386,-0.23095703,-0.97784424,-0.15655518,-0.90625,22.390625,-0.625
668,668,1727977766426,-0.05419922,-0.9014282,-0.16217041,1.9375,23.015625,3.890625
669,669,1727977766466,-0.063964844,-0.9570923,-0.08282471,-2.625,15.828125,-0.671875
670,670,1727977766506,-0.016357422,-0.92022705,-0.09161377,9.453125,16.203125,7.859375
671,671,1727977766546,-0.06762695,-0.9299927,-0.07183838,1.125,11.859375,6.25
672,672,1727977766586,-0.051513672,-0.9763794,-0.117492676,-7.8125,7.09375,5.9375
673,673,1727977766626,-0.0087890625,-1.0230103,-0.08843994,-7.0,6.09375,7.25
674,674,1727977766666,-0.084472656,-0.9829712,0.001159668,5.328125,2.78125,6.671875
675,675,1727977766706,-0.028076172,-1.0650024,-0.026428223,-10.625,-5.21875,6.234375
676,676,1727977766746,-0.068359375,-1.1047974,-0.034484863,6.3125,-4.421875,7.5
677,677,1727977766786,0.18383789,-1.175354,-0.031799316,-9.8125,-12.125,8.171875
678,678,1727977766826,0.068603516,-1.2949829,-0.03253174,-15.078125,-10.046875,0.484375
679,679,1727977766866,-0.07373047,-1.2449341,-0.17852783,2.34375,-13.5,7.96875
680,680,1727977766906,0.2998047,-1.1919556,-0.13946533,-0.34375,-11.9375,12.21875
681,681,1727977766946,0.36914062,-1.0960083,-0.06402588,-3.53125,-13.28125,7.015625
682,682,1727977766986,0.16503906,-1.0310669,-0.09063721,-1.328125,-13.75,6.390625
683,683,1727977767026,0.17358398,-0.9055786,-0.09918213,10.078125,-11.15625,4.5625
684,684,1727977767066,0.18676758,-0.8845825,-0.061340332,-0.171875,-16.28125,3.703125
685,685,1727977767106,0.15234375,-1.0132446,0.018737793,-7.890625,-8.4375,1.078125
686,686,1727977767146,0.01586914,-0.82940674,-0.0044555664,5.0,-12.0625,0.171875
687,687,1727977767186,0.22485352,-0.78082275,-0.019836426,5.3125,-16.90625,2.84375
688,688,1727977767226,0.13427734,-0.8377075,0.03387451,7.96875,-13.453125,-1.15625
689,689,1727977767266,0.05834961,-0.82037354,-0.046936035,5.546875,-20.0625,0.828125
690,690,1727977767306,0.14868164,-0.8562622,-0.011047363,5.25,-16.59375,2.265625
691,691,1727977767346,0.011474609,-0.8718872,-0.0064086914,5.171875,-9.859375,-0.25
692,692,1727977767386,0.0949707,-0.9143677,-0.04473877,3.03125,-15.0,4.921875
693,693,1727977767426,0.13452148,-0.911438,-0.002746582,-1.3125,-7.875,6.265625
694,694,1727977767466,0.007080078,-0.9680786,0.078063965,3.28125,-1.453125,5.5625
695,695,1727977767506,0.04711914,-0.96417236,0.06414795,4.890625,-1.109375,8.921875
696,696,1727977767546,0.04345703,-0.96759033,0.105163574,0.265625,14.234375,-0.5
697,697,1727977767586,-0.07080078,-1.0274048,0.022644043,-9.453125,20.984375,-5.078125
698,698,1727977767626,0.26220703,-1.1668091,-0.08087158,0.796875,15.484375,-2.328125
699,699,1727977767666,0.3310547,-1.5525513,-0.10748291,-15.8125,17.0,-1.84375
700,700,1727977767706,0.021728516,-1.3157349,-0.12335205,6.0625,23.890625,-14.15625
701,701,1727977767746,0.2446289,-0.9109497,-0.2000122,7.40625,16.984375,-2.84375
702,702,1727977767786,0.4194336,-1.0283813,-0.22906494,13.59375,8.71875,5.484375
703,703,1727977767826,0.20776367,-1.1109009,-0.23712158,7.328125,14.78125,-3.71875
704,704,1727977767866,0.07788086,-0.90167236,-0.25030518,9.828125,15.265625,-5.609375
705,705,1727977767906,0.11035156,-0.86505127,-0.2539673,21.25,22.125,-6.390625
706,706,1727977767946,0.11206055,-0.82403564,-0.14752197,15.75,19.25,-7.953125
707,707,1727977767986,-0.0068359375,-0.7246704,-0.22491455,10.703125,16.703125,-1.421875
708,708,1727977768026,0.016357422,-0.7788696,-0.13824463,10.125,13.453125,-6.375
709,709,1727977768066,0.052978516,-0.8015747,-0.18341064,5.828125,17.21875,-1.515625
710,710,1727977768106,0.080566406,-0.92193604,-0.20489502,0.703125,13.171875,-0.8125
711,711,1727977768146,0.006591797,-0.9209595,-0.21221924,2.171875,11.28125,-1.03125
712,712,1727977768186,0.04345703,-0.95513916,-0.2144165,6.171875,8.71875,2.96875
713,713,1727977768226,0.0234375,-0.94659424,-0.2000122,2.1875,7.625,3.484375
714,714,1727977768266,-0.048583984,-0.88897705,-0.24371338,10.09375,5.890625,6.953125
715,715,1727977768306,0.030029297,-0.90997314,-0.2727661,3.671875,1.390625,9.96875
716,716,1727977768346,0.032470703,-0.89678955,-0.24127197,-0.1875,-2.875,9.46875
717,717,1727977768386,0.009765625,-0.9727173,-0.24639893,-6.765625,-9.21875,8.265625
718,718,1727977768426,0.05859375,-1.0750122,-0.15411377,-11.046875,-12.90625,4.46875
719,719,1727977768466,-0.099609375,-1.100647,-0.14703369,-13.03125,-6.90625,1.984375
720,720,1727977768506,-0.042236328,-1.1616821,-0.18658447,-36.921875,-18.828125,5.125
721,721,1727977768546,0.3317871,-1.336731,-0.077697754,-42.140625,-21.65625,-1.171875
722,722,1727977768586,-0.21899414,-1.1399536,-0.2156372,-39.203125,-5.171875,-11.03125
723,723,1727977768626,0.2861328,-1.0767212,-0.26153564,2.734375,-8.96875,10.109375
724,724,1727977768666,0.38500977,-1.1411743,-0.062805176,-5.5625,-7.34375,-1.78125
725,725,1727977768706,0.064941406,-1.1030884,-0.13140869,-11.734375,-10.046875,-8.109375
726,726,1727977768746,0.3071289,-0.9963989,-0.1116333,-12.9375,-10.78125,-3.796875
727,727,1727977768786,0.22094727,-0.9397583,-0.030090332,-6.53125,-8.53125,-3.84375
728,728,1727977768826,0.06567383,-0.9351196,0.0028686523,-14.375,-12.65625,-4.046875
729,729,1727977768866,0.10253906,-0.84991455,0.011169434,-4.5,-11.65625,0.921875
730,730,1727977768906,0.05908203,-0.7905884,0.035095215,-7.359375,-10.03125,-0.984375
731,731,1727977768946,0.1315918,-0.8062134,0.015563965,-1.5625,-14.875,0.328125
732,732,1727977768986,0.040771484,-0.7752075,0.04827881,3.78125,-8.3125,2.953125
733,733,1727977769026,0.09301758,-0.7866821,0.044128418,-4.984375,-10.703125,2.234375
734,734,1727977769066,0.033935547,-0.9060669,0.042907715,-1.1875,-4.28125,1.875
735,735,1727977769106,0.057373047,-0.8982544,0.047790527,4.484375,-6.125,4.796875
736,736,1727977769146,0.111083984,-0.94903564,0.101501465,1.4375,-5.46875,6.859375
737,737,1727977769186,-0.028808594,-0.94244385,0.09661865,0.984375,-0.546875,5.328125
738,738,1727977769226,0.1274414,-0.9590454,0.14910889,-0.75,-2.453125,8.109375
739,739,1727977769266,-0.015625,-0.9656372,0.16888428,2.8125,8.140625,-3.5625
740,740,1727977769306,-0.10107422,-1.0691528,0.121276855,-15.6875,11.0625,-5.40625
741,741,1727977769346,0.12548828,-1.1558228,0.06390381,-3.453125,4.125,-8.90625
742,742,1727977769386,0.22802734,-1.491272,0.010437012,3.734375,-4.390625,-0.28125
743,743,1727977769426,0.10668945,-1.6367798,-0.051574707,-3.390625,9.71875,-2.53125
744,744,1727977769466,0.26464844,-1.0317993,-0.11212158,6.046875,-9.515625,-9.375
745,745,1727977769506,0.3996582,-0.78302,0.13372803,18.453125,1.0625,8.796875
746,746,1727977769546,0.045654297,-1.0476685,-0.17803955,-7.28125,7.265625,-5.96875
747,747,1727977769586,0.096191406,-0.9636841,-0.12579346,14.875,8.984375,-2.171875
748,748,1727977769626,0.018066406,-0.8399048,-0.057678223,3.328125,13.9375,-5.984375
749,749,1727977769666,-0.03466797,-0.9607544,-0.06939697,-1.640625,13.984375,-9.6875
