,Unnamed: 0,timestamp,accel_x,accel_y,accel_z,gyro_x,gyro_y,gyro_z
0,0,1727870818906,-0.27197266,-1.3140259,-0.473938,1.265625,-5.9375,13.328125
1,1,1727870818946,-0.21313477,-1.406311,-0.72369385,-2.125,2.015625,13.53125
2,2,1727870818986,-0.057128906,-1.0691528,-0.7498169,-4.5,9.4375,14.046875
3,3,1727870819026,0.14990234,-0.7576294,-0.5869751,-7.5,1.328125,10.453125
4,4,1727870819066,0.13842773,-0.72735596,-0.4212036,-1.28125,-13.046875,7.578125
5,5,1727870819106,-0.008544922,-0.8242798,-0.37213135,0.625,-12.21875,3.375
6,6,1727870819146,0.011230469,-0.9146118,-0.38702393,-5.796875,-7.625,-0.34375
7,7,1727870819186,-0.008300781,-0.89385986,-0.3262329,-2.609375,-0.65625,-1.875
8,8,1727870819226,-0.0007324219,-0.8167114,-0.30474854,0.203125,-1.453125,-0.9375
9,9,1727870819266,-0.029785156,-0.8272095,-0.29693604,10.421875,-0.421875,-0.1875
10,10,1727870819306,0.03930664,-0.8274536,-0.27886963,6.0625,-3.140625,3.953125
11,11,1727870819346,-0.04321289,-0.7229614,-0.28179932,0.875,-2.640625,8.953125
12,12,1727870819386,-0.040771484,-0.72198486,-0.284729,-0.234375,0.28125,8.1875
13,13,1727870819426,-0.012207031,-0.7149048,-0.2798462,1.65625,2.140625,7.046875
14,14,1727870819466,-0.0017089844,-0.8208618,-0.2925415,2.9375,1.921875,3.859375
15,15,1727870819506,-0.03466797,-0.89019775,-0.28497314,4.890625,5.921875,1.453125
16,16,1727870819546,-0.0061035156,-1.0127563,-0.36309814,7.734375,7.125,0.328125
17,17,1727870819586,0.18457031,-1.1653442,-0.5947876,5.40625,-6.40625,-3.71875
18,18,1727870819626,0.033203125,-1.3933716,-0.56622314,-1.015625,0.4375,-3.359375
19,19,1727870819666,-0.011230469,-1.2271118,-0.62335205,-14.859375,-2.53125,-8.28125
20,20,1727870819706,-0.014160156,-0.8616333,-0.5108032,-11.9375,6.109375,-4.296875
21,21,1727870819746,0.033203125,-0.81500244,-0.45855713,-5.84375,7.96875,-0.296875
22,22,1727870819786,-0.0068359375,-0.6585083,-0.4541626,-1.1875,7.875,-2.4375
23,23,1727870819826,-0.12158203,-0.69122314,-0.37335205,12.0625,10.03125,-4.015625
24,24,1727870819866,-0.20043945,-0.9026489,-0.31011963,12.65625,16.578125,-8.953125
25,25,1727870819906,-0.103515625,-0.8960571,-0.3345337,1.234375,15.6875,-3.765625
26,26,1727870819946,-0.095458984,-0.81866455,-0.35406494,3.59375,13.875,0.25
27,27,1727870819986,-0.08666992,-0.79351807,-0.31402588,4.890625,13.484375,0.546875
28,28,1727870820026,-0.06274414,-0.72540283,-0.3015747,5.25,9.75,1.15625
29,29,1727870820066,-0.12719727,-0.70147705,-0.31573486,9.8125,6.296875,-1.375
30,30,1727870820106,-0.15478516,-0.7546997,-0.3430786,13.359375,3.40625,-6.3125
31,31,1727870820146,-0.1586914,-0.8418579,-0.36993408,11.75,0.71875,-6.453125
32,32,1727870820186,-0.234375,-0.8374634,-0.4072876,8.03125,1.15625,-0.625
33,33,1727870820226,-0.2746582,-0.8569946,-0.4258423,10.140625,4.875,3.71875
34,34,1727870820266,-0.17993164,-1.0288696,-0.4673462,7.6875,-3.65625,2.828125
35,35,1727870820306,-0.22827148,-1.2571411,-0.6182251,5.875,-2.296875,6.765625
36,36,1727870820346,-0.2434082,-1.3589478,-0.77716064,-3.015625,1.640625,9.359375
37,37,1727870820386,-0.15039062,-1.081604,-0.7136841,-13.6875,3.25,7.625
38,38,1727870820426,0.07910156,-0.8467407,-0.647522,-16.953125,-4.015625,6.3125
39,39,1727870820466,0.16259766,-0.6694946,-0.5593872,-15.359375,-13.59375,8.03125
40,40,1727870820506,0.016845703,-0.7461548,-0.38824463,-3.71875,-11.609375,5.671875
41,41,1727870820546,-0.10058594,-0.8591919,-0.33502197,-5.421875,1.09375,5.4375
42,42,1727870820586,0.04711914,-0.8164673,-0.33184814,-3.0625,-3.796875,3.578125
43,43,1727870820626,0.021728516,-0.82110596,-0.31524658,-1.75,-2.0,-0.71875
44,44,1727870820666,-0.2163086,-0.97613525,-0.43023682,2.375,-1.390625,-6.03125
45,45,1727870820706,-0.24121094,-1.1611938,-0.52227783,-4.4375,-6.90625,-4.609375
46,46,1727870820746,-0.107910156,-1.3289185,-0.659729,-14.328125,-5.0625,-0.109375
47,47,1727870820786,-0.11010742,-1.3008423,-0.7468872,-11.515625,-4.90625,6.796875
48,48,1727870820826,-0.03857422,-1.0977173,-0.67755127,-15.625,-11.578125,0.28125
49,49,1727870820866,0.1508789,-0.81744385,-0.61431885,-21.484375,-19.640625,-2.21875
50,50,1727870820906,0.18530273,-0.64923096,-0.5125122,-3.546875,-26.546875,-2.125
51,51,1727870820946,-0.01928711,-0.84503174,-0.28814697,-4.328125,-16.6875,6.6875
52,52,1727870820986,-0.05078125,-0.81207275,-0.28131104,-12.734375,-23.8125,-5.125
53,53,1727870821026,0.0009765625,-0.86260986,-0.24395752,-4.96875,-18.21875,-2.34375
54,54,1727870821066,-0.031982422,-0.79766846,-0.28912354,-7.625,-15.375,-4.8125
55,55,1727870821106,-0.0075683594,-0.7337036,-0.2649536,-2.453125,-15.78125,-4.234375
56,56,1727870821146,-0.0043945312,-0.7703247,-0.28912354,-5.484375,-19.65625,-0.265625
57,57,1727870821186,0.01928711,-0.75738525,-0.22003174,0.140625,-15.578125,0.0
58,58,1727870821226,-0.029785156,-0.77545166,-0.19073486,2.09375,-3.453125,7.171875
59,59,1727870821266,-0.076416016,-0.8694458,-0.14923096,6.796875,-5.21875,6.328125
60,60,1727870821306,0.04736328,-0.99542236,-0.19000244,8.828125,4.5,5.171875
61,61,1727870821346,0.107910156,-1.0105591,-0.28692627,8.890625,5.421875,4.15625
62,62,1727870821386,0.07104492,-1.0254517,-0.48687744,13.234375,-2.6875,2.921875
63,63,1727870821426,0.11425781,-1.3550415,-0.62701416,9.625,-5.5,-0.65625
64,64,1727870821466,-0.04345703,-1.1917114,-0.57891846,-6.90625,12.15625,-1.84375
65,65,1727870821506,0.14208984,-0.93292236,-0.47613525,-7.234375,16.125,-6.609375
66,66,1727870821546,0.13842773,-0.7774048,-0.49005127,1.9375,11.71875,-4.109375
67,67,1727870821586,-0.087890625,-0.69732666,-0.46270752,9.640625,17.390625,-5.90625
68,68,1727870821626,-0.1159668,-0.7810669,-0.3892212,8.5,16.84375,-10.546875
69,69,1727870821666,-0.092041016,-0.8796997,-0.35601807,1.171875,19.671875,-5.625
70,70,1727870821706,-0.017089844,-0.78985596,-0.3399048,1.9375,11.34375,0.78125
71,71,1727870821746,-0.1262207,-0.7781372,-0.30230713,13.28125,12.71875,3.53125
72,72,1727870821786,-0.12011719,-0.7605591,-0.34869385,5.5,15.6875,4.234375
73,73,1727870821826,-0.09692383,-0.65093994,-0.2954712,5.640625,8.625,1.46875
74,74,1727870821866,-0.1706543,-0.67852783,-0.31573486,10.359375,2.65625,-0.65625
75,75,1727870821906,-0.17651367,-0.848938,-0.37774658,10.671875,3.734375,-2.5
76,76,1727870821946,-0.114746094,-0.96832275,-0.45074463,7.140625,1.1875,-3.65625
77,77,1727870821986,-0.17016602,-1.024231,-0.46392822,3.59375,5.71875,-0.078125
78,78,1727870822026,-0.1953125,-1.0479126,-0.4661255,-3.09375,2.046875,7.484375
79,79,1727870822066,-0.21826172,-1.1621704,-0.52911377,0.796875,2.59375,8.109375
80,80,1727870822106,0.037109375,-1.2217407,-0.88287354,-6.53125,-5.25,10.125
81,81,1727870822146,0.005859375,-0.99957275,-0.631897,-4.9375,3.09375,7.9375
82,82,1727870822186,0.17236328,-0.7827759,-0.59991455,-8.78125,-6.34375,5.234375
83,83,1727870822226,0.1821289,-0.7476196,-0.47711182,-6.3125,-14.75,2.890625
84,84,1727870822266,0.03515625,-0.8076782,-0.39068604,-5.21875,-14.5625,-1.28125
85,85,1727870822306,-0.036132812,-0.7905884,-0.29986572,-7.1875,-10.765625,-4.96875
86,86,1727870822346,-0.03173828,-0.7871704,-0.25860596,-2.453125,-2.140625,-2.03125
87,87,1727870822386,0.007080078,-0.7090454,-0.28497314,-1.609375,-6.765625,-1.671875
88,88,1727870822426,-0.0007324219,-0.7546997,-0.3032837,-2.6875,-8.828125,0.890625
89,89,1727870822466,-0.029541016,-0.7630005,-0.32867432,-2.75,-9.046875,2.390625
90,90,1727870822506,-0.038085938,-0.80841064,-0.300354,-5.515625,0.4375,7.8125
91,91,1727870822546,0.031982422,-0.87823486,-0.30255127,-3.28125,-4.390625,6.0625
92,92,1727870822586,0.040527344,-0.91607666,-0.30230713,0.4375,-3.953125,4.3125
93,93,1727870822626,0.04272461,-0.96173096,-0.2781372,3.640625,5.828125,2.65625
94,94,1727870822666,0.096191406,-0.97613525,-0.33770752,-1.53125,5.640625,1.6875
95,95,1727870822706,0.16772461,-1.1438599,-0.4805298,-0.359375,3.078125,-5.546875
96,96,1727870822746,0.12402344,-1.2420044,-0.5911255,-3.65625,2.28125,-5.625
97,97,1727870822786,0.012207031,-1.0916138,-0.5628052,-4.734375,12.25,-10.9375
98,98,1727870822826,0.083496094,-1.0271606,-0.52227783,-9.71875,14.5625,-5.671875
99,99,1727870822866,-0.03100586,-0.78082275,-0.57403564,-11.125,19.1875,-0.015625
100,100,1727870822906,-0.114990234,-0.7317505,-0.3862915,-4.640625,13.78125,-9.421875
101,101,1727870822946,-0.078125,-0.8345337,-0.33111572,0.171875,15.765625,-8.34375
102,102,1727870822986,-0.03955078,-0.81085205,-0.3196411,-1.578125,14.484375,-3.484375
103,103,1727870823026,-0.072753906,-0.7346802,-0.30255127,3.65625,11.703125,-0.328125
104,104,1727870823066,-0.111328125,-0.7012329,-0.29083252,7.5,11.484375,-3.03125
105,105,1727870823106,-0.10644531,-0.72906494,-0.2954712,9.578125,7.203125,-2.28125
106,106,1727870823146,-0.12719727,-0.76641846,-0.29205322,9.84375,3.140625,-2.875
107,107,1727870823186,-0.1418457,-0.7974243,-0.32037354,6.90625,-0.21875,-2.90625
108,108,1727870823226,-0.17529297,-0.80914307,-0.3352661,7.0625,1.5625,-3.40625
109,109,1727870823266,-0.17749023,-0.90338135,-0.31622314,10.84375,8.375,-1.234375
110,110,1727870823306,-0.22070312,-1.0264282,-0.38238525,7.40625,3.796875,3.6875
111,111,1727870823346,-0.18481445,-0.97320557,-0.47564697,1.625,-2.65625,6.421875
112,112,1727870823386,-0.16064453,-1.1433716,-0.5552368,2.984375,-5.84375,-1.796875
113,113,1727870823426,-0.11669922,-1.2756958,-0.7463989,-0.578125,-2.421875,3.890625
114,114,1727870823466,-0.045654297,-1.0881958,-0.7070923,-9.34375,-8.15625,0.359375
115,115,1727870823506,0.07885742,-0.9089966,-0.57110596,-6.578125,-10.046875,2.53125
116,116,1727870823546,0.14282227,-0.7280884,-0.49053955,-1.453125,-21.140625,3.703125
117,117,1727870823586,-0.0017089844,-0.7620239,-0.41119385,3.15625,-23.609375,-1.21875
118,118,1727870823626,-0.03857422,-0.81915283,-0.38043213,-1.1875,-18.28125,-2.40625
119,119,1727870823666,-0.012939453,-0.847229,-0.33380127,-0.4375,-15.78125,-2.1875
120,120,1727870823706,-0.040527344,-0.8242798,-0.28961182,-2.234375,-11.0625,-1.703125
121,121,1727870823746,-0.01928711,-0.7522583,-0.286438,-5.578125,-14.46875,-0.40625
122,122,1727870823786,-0.019042969,-0.72906494,-0.26470947,-6.6875,-14.78125,1.546875
123,123,1727870823826,-0.06713867,-0.72491455,-0.26519775,-4.640625,-12.921875,2.265625
124,124,1727870823866,-0.041748047,-0.7979126,-0.2781372,-3.640625,-9.203125,3.203125
125,125,1727870823906,-0.0014648438,-0.88360596,-0.28570557,0.640625,-4.140625,6.109375
126,126,1727870823946,0.020019531,-0.90826416,-0.32843018,2.4375,-5.03125,2.09375
127,127,1727870823986,0.020019531,-1.0493774,-0.31402588,8.125,3.125,-2.703125
128,128,1727870824026,0.01586914,-1.0654907,-0.44073486,0.859375,-0.734375,0.109375
129,129,1727870824066,0.16503906,-1.1033325,-0.64141846,-1.4375,-5.015625,0.421875
130,130,1727870824106,-0.03100586,-1.2422485,-0.6199341,6.8125,5.984375,2.46875
131,131,1727870824146,0.07348633,-1.0757446,-0.65875244,3.5625,11.59375,-1.296875
132,132,1727870824186,0.0146484375,-0.96099854,-0.52178955,-1.203125,21.515625,6.75
133,133,1727870824226,-0.07836914,-0.7046509,-0.4973755,-7.8125,19.328125,1.0625
134,134,1727870824266,-0.06274414,-0.6206665,-0.42510986,0.515625,22.421875,-4.328125
135,135,1727870824306,-0.06689453,-0.7781372,-0.331604,2.625,26.59375,-1.328125
136,136,1727870824346,-0.017089844,-0.72979736,-0.34869385,-4.203125,11.90625,1.421875
137,137,1727870824386,-0.079833984,-0.6897583,-0.37213135,7.40625,8.703125,0.484375
138,138,1727870824426,-0.022460938,-0.7962036,-0.32769775,7.28125,11.625,-2.03125
139,139,1727870824466,-0.037353516,-0.736145,-0.31036377,2.4375,5.0,-0.40625
140,140,1727870824506,-0.14624023,-0.6983032,-0.286438,3.46875,3.96875,-0.9375
141,141,1727870824546,-0.18115234,-0.74957275,-0.28155518,5.0625,9.34375,-2.09375
142,142,1727870824586,-0.1550293,-0.8772583,-0.35772705,5.359375,8.703125,-0.8125
143,143,1727870824626,-0.19482422,-0.92974854,-0.40753174,2.328125,6.296875,0.140625
144,144,1727870824666,-0.16967773,-1.0584106,-0.46124268,-3.0625,3.140625,3.453125
145,145,1727870824706,-0.13745117,-1.239563,-0.5432739,-5.0625,-0.1875,4.609375
146,146,1727870824746,-0.1538086,-1.2888794,-0.5601196,-6.65625,6.59375,9.375
147,147,1727870824786,-0.0793457,-1.187561,-0.8284302,-11.859375,-3.015625,6.828125
148,148,1727870824826,-0.047607422,-0.6956177,-0.35162354,8.46875,7.9375,4.453125
149,149,1727870824866,-0.050048828,-0.66290283,-0.31671143,8.8125,2.984375,1.703125
150,150,1727870824906,-0.14794922,-0.7112427,-0.3164673,13.34375,-4.8125,-2.8125
151,151,1727870824946,-0.21362305,-0.8428345,-0.34161377,12.859375,0.140625,-4.828125
152,152,1727870824986,-0.27148438,-0.8032837,-0.3875122,7.265625,7.140625,-2.21875
153,153,1727870825026,-0.119384766,-0.82818604,-0.49127197,7.859375,4.90625,-3.625
154,154,1727870825066,-0.19946289,-1.0181274,-0.5745239,1.546875,0.875,-1.40625
155,155,1727870825106,-0.19824219,-1.1150513,-0.59454346,0.078125,6.625,0.359375
156,156,1727870825146,-0.15600586,-1.0962524,-0.7444458,8.1875,6.609375,4.171875
157,157,1727870825186,-0.01928711,-1.1055298,-0.8897095,-6.15625,1.296875,4.09375
158,158,1727870825226,0.036865234,-1.0222778,-0.7385864,-4.640625,-10.84375,-7.046875
159,159,1727870825266,0.099365234,-0.9180298,-0.62506104,-11.140625,-4.90625,2.46875
160,160,1727870825306,0.045898438,-0.65460205,-0.5459595,-16.09375,-15.953125,3.234375
161,161,1727870825346,-0.059814453,-0.75372314,-0.3904419,-11.90625,-17.3125,-1.953125
162,162,1727870825386,-0.02319336,-0.8286743,-0.3279419,-13.71875,-19.78125,-6.609375
163,163,1727870825426,-0.048828125,-0.77667236,-0.2654419,-11.28125,-13.453125,-3.59375
164,164,1727870825466,-0.030517578,-0.6992798,-0.25787354,-8.296875,-9.34375,-0.0625
165,165,1727870825506,-0.025634766,-0.69244385,-0.24932861,-5.21875,-11.609375,2.625
166,166,1727870825546,-0.087890625,-0.6904907,-0.25958252,-3.71875,-11.203125,3.859375
167,167,1727870825586,-0.03857422,-0.68756104,-0.2571411,0.34375,-7.6875,2.9375
168,168,1727870825626,-0.022460938,-0.8135376,-0.2546997,2.21875,-9.015625,0.375
169,169,1727870825666,-0.034179688,-0.9151001,-0.3086548,-1.953125,-6.265625,0.0
170,170,1727870825706,0.021484375,-0.9168091,-0.32183838,4.828125,0.25,-0.140625
171,171,1727870825746,0.052734375,-1.0532837,-0.333313,4.203125,-4.421875,2.5
172,172,1727870825786,-0.0029296875,-1.053772,-0.3225708,1.90625,-1.828125,0.34375
173,173,1727870825826,0.03466797,-0.973938,-0.38433838,3.515625,3.671875,-1.125
174,174,1727870825866,0.125,-1.086731,-0.4463501,0.703125,-9.625,-1.546875
175,175,1727870825906,-0.040771484,-1.3416138,-0.46148682,-3.125,2.390625,-3.1875
176,176,1727870825946,-0.015136719,-0.9109497,-0.55596924,1.5,5.96875,-9.203125
177,177,1727870825986,0.037353516,-1.0747681,-0.5689087,6.390625,20.703125,0.578125
178,178,1727870826026,-0.0031738281,-0.9302368,-0.5684204,-4.171875,16.25,1.921875
179,179,1727870826066,-0.10644531,-0.6253052,-0.59576416,-11.375,18.75,-0.125
180,180,1727870826106,-0.21972656,-0.8152466,-0.46002197,2.890625,19.890625,-5.21875
181,181,1727870826146,-0.19677734,-1.019104,-0.3237915,3.40625,24.5,-7.5
182,182,1727870826186,-0.11376953,-0.76348877,-0.3411255,-1.609375,23.796875,2.4375
183,183,1727870826226,-0.08081055,-0.66607666,-0.40533447,8.09375,25.0625,4.921875
184,184,1727870826266,-0.046142578,-0.67144775,-0.32891846,13.21875,15.234375,0.8125
185,185,1727870826306,-0.125,-0.7107544,-0.32696533,18.953125,8.984375,-1.03125
186,186,1727870826346,-0.14233398,-0.6358032,-0.41070557,11.40625,7.109375,-5.734375
187,187,1727870826386,-0.14086914,-0.6746216,-0.39996338,20.140625,10.359375,-3.859375
188,188,1727870826426,-0.20874023,-0.7756958,-0.3633423,15.640625,6.8125,0.46875
189,189,1727870826466,-0.30664062,-0.92559814,-0.39312744,11.953125,0.5625,0.96875
190,190,1727870826506,-0.31933594,-0.89263916,-0.39093018,4.0625,6.546875,3.03125
191,191,1727870826546,-0.2722168,-1.1187134,-0.4602661,-1.421875,2.71875,8.515625
192,192,1727870826586,-0.013427734,-0.7476196,-0.2962036,-6.5625,8.390625,7.40625
193,193,1727870826626,-0.005126953,-0.6734009,-0.24176025,-1.40625,2.0,6.34375
194,194,1727870826666,-0.014160156,-0.83306885,-0.19561768,-2.125,-0.203125,7.25
195,195,1727870826706,-0.06982422,-0.7630005,-0.30963135,-5.984375,1.703125,8.40625
196,196,1727870826746,0.011962891,-0.76519775,-0.3057251,-2.015625,3.296875,6.484375
197,197,1727870826786,0.048828125,-0.9089966,-0.29327393,-3.0,4.78125,5.28125
198,198,1727870826826,0.049804688,-0.92144775,-0.3086548,-4.1875,3.796875,5.140625
199,199,1727870826866,0.015380859,-0.9522095,-0.315979,6.078125,8.6875,-0.234375
200,200,1727870826906,0.0107421875,-0.9817505,-0.28033447,3.96875,13.078125,-1.90625
201,201,1727870826946,0.17236328,-1.1118774,-0.49957275,5.546875,-1.84375,-5.640625
202,202,1727870826986,-0.049804688,-1.4338989,-0.5755005,8.28125,3.625,-10.734375
203,203,1727870827026,-0.015380859,-1.1016235,-0.6380005,-1.71875,14.9375,-6.953125
204,204,1727870827066,0.01928711,-0.9885864,-0.5459595,-2.546875,20.21875,1.203125
205,205,1727870827106,-0.0637207,-0.788147,-0.5130005,-2.453125,21.71875,3.078125
206,206,1727870827146,-0.09277344,-0.62994385,-0.42926025,7.796875,30.265625,3.1875
207,207,1727870827186,-0.10424805,-0.75177,-0.33966064,12.578125,27.375,-0.453125
208,208,1727870827226,-0.07470703,-0.8352661,-0.3657837,3.984375,20.953125,2.21875
209,209,1727870827266,-0.044921875,-0.7559204,-0.38702393,4.28125,12.828125,2.875
210,210,1727870827306,-0.08544922,-0.73028564,-0.34039307,7.9375,10.796875,-0.421875
211,211,1727870827346,-0.06713867,-0.7234497,-0.284729,6.0,6.96875,-2.390625
212,212,1727870827386,-0.08886719,-0.7139282,-0.29595947,5.40625,2.375,-0.890625
213,213,1727870827426,-0.13769531,-0.7329712,-0.3735962,5.40625,-0.734375,-2.90625
214,214,1727870827466,-0.14428711,-0.82281494,-0.40924072,10.40625,-0.375,-4.796875
215,215,1727870827506,-0.17626953,-0.9429321,-0.4607544,4.328125,-4.0625,-5.734375
216,216,1727870827546,-0.22143555,-0.9834595,-0.46417236,6.84375,-1.0625,0.09375
217,217,1727870827586,-0.2631836,-1.1138306,-0.4385376,4.046875,3.546875,0.453125
218,218,1727870827626,-0.13012695,-1.1885376,-0.6609497,-2.59375,5.3125,6.59375
219,219,1727870827666,-0.18139648,-1.0610962,-0.6843872,-1.1875,7.15625,6.046875
220,220,1727870827706,-0.041259766,-1.0200806,-0.7398071,-8.15625,0.765625,3.0
221,221,1727870827746,0.16577148,-0.7822876,-0.642395,-6.1875,-7.3125,4.84375
222,222,1727870827786,0.14941406,-0.72906494,-0.5305786,-4.328125,-10.578125,5.859375
223,223,1727870827826,0.05834961,-0.74102783,-0.39190674,-7.140625,-14.21875,1.4375
224,224,1727870827866,0.004638672,-0.7984009,-0.34136963,-6.09375,-16.171875,-4.359375
225,225,1727870827906,-0.0041503906,-0.8311157,-0.24908447,-4.859375,-11.984375,-4.75
226,226,1727870827946,-0.06347656,-0.78082275,-0.33111572,-7.796875,-10.21875,-5.171875
227,227,1727870827986,-0.014404297,-0.7962036,-0.35577393,-9.4375,-10.90625,-3.25
228,228,1727870828026,-0.05029297,-0.8538208,-0.29864502,-6.6875,-6.625,0.328125
229,229,1727870828066,-0.041503906,-0.87091064,-0.26690674,-5.90625,-5.75,2.015625
230,230,1727870828106,-0.009033203,-0.84259033,-0.2420044,-6.015625,-6.0625,3.640625
231,231,1727870828146,0.0053710938,-0.91363525,-0.26837158,-7.59375,-5.140625,5.046875
232,232,1727870828186,0.014892578,-0.82232666,-0.2937622,-1.9375,-0.9375,4.578125
233,233,1727870828226,0.014160156,-0.87042236,-0.26031494,3.4375,2.34375,1.421875
234,234,1727870828266,0.07080078,-1.0083618,-0.43267822,8.265625,1.390625,-0.78125
235,235,1727870828306,0.1899414,-1.1575317,-0.55352783,5.078125,-8.3125,-4.625
236,236,1727870828346,-0.07495117,-1.3477173,-0.5598755,-3.859375,7.484375,-3.921875
237,237,1727870828386,-0.008544922,-1.0120239,-0.5408325,-6.015625,6.046875,-6.84375
238,238,1727870828426,-0.049072266,-0.93414307,-0.5371704,-1.28125,9.5625,2.28125
239,239,1727870828466,-0.05053711,-0.7876587,-0.49493408,-6.96875,12.6875,-2.21875
240,240,1727870828506,-0.063964844,-0.675354,-0.41827393,-2.40625,11.609375,-3.921875
241,241,1727870828546,-0.13183594,-0.76153564,-0.347229,4.640625,9.625,-7.828125
242,242,1727870828586,-0.12866211,-0.82647705,-0.28497314,0.671875,10.171875,-8.578125
243,243,1727870828626,-0.11376953,-0.7686157,-0.31378174,0.453125,12.0,-3.828125
244,244,1727870828666,-0.11425781,-0.78741455,-0.29058838,3.671875,9.96875,-4.671875
245,245,1727870828706,-0.13208008,-0.7678833,-0.26031494,0.1875,5.890625,-2.21875
246,246,1727870828746,-0.14697266,-0.75201416,-0.31622314,1.859375,5.515625,-1.828125
247,247,1727870828786,-0.1665039,-0.80670166,-0.27618408,9.59375,4.359375,-2.671875
248,248,1727870828826,-0.15649414,-0.8609009,-0.30670166,10.84375,1.578125,-5.03125
249,249,1727870828866,-0.17993164,-0.89727783,-0.37261963,14.421875,4.046875,-3.390625
250,250,1727870828906,-0.2097168,-0.8911743,-0.38189697,13.15625,3.703125,0.78125
251,251,1727870828946,-0.2565918,-0.96343994,-0.3718872,7.421875,3.140625,3.75
252,252,1727870828986,-0.20214844,-1.0440063,-0.47052002,-0.765625,-2.59375,1.84375
253,253,1727870829026,-0.22216797,-1.072815,-0.49127197,1.8125,6.359375,5.375
254,254,1727870829066,-0.12548828,-1.135315,-0.69000244,-3.15625,-0.46875,3.703125
255,255,1727870829106,-0.1706543,-1.1030884,-0.6760864,-4.140625,-5.859375,-1.5625
256,256,1727870829146,-0.04321289,-1.0559692,-0.6983032,-2.09375,-8.40625,-2.03125
257,257,1727870829186,0.07763672,-0.91900635,-0.6255493,-5.1875,-13.640625,5.078125
258,258,1727870829226,0.091552734,-0.8147583,-0.4961548,-8.46875,-11.671875,9.96875
259,259,1727870829266,0.05053711,-0.72613525,-0.40509033,-11.9375,-16.84375,4.0
260,260,1727870829306,0.034423828,-0.848938,-0.28936768,-9.78125,-17.5,2.125
261,261,1727870829346,-0.052490234,-0.9258423,-0.22589111,-5.40625,-15.75,-3.96875
262,262,1727870829386,-0.10180664,-0.8530884,-0.3093872,-8.9375,-6.53125,-7.078125
263,263,1727870829426,-0.010009766,-0.81329346,-0.2625122,-5.921875,-6.875,-6.0625
264,264,1727870829466,-0.021484375,-0.7871704,-0.27667236,-11.21875,-7.75,-0.21875
265,265,1727870829506,-0.046142578,-0.7090454,-0.28204346,-8.609375,-7.484375,4.046875
266,266,1727870829546,-0.001953125,-0.72003174,-0.23687744,-2.46875,-6.359375,5.109375
267,267,1727870829586,-0.059814453,-0.83599854,-0.21002197,1.859375,-5.5625,4.28125
268,268,1727870829626,-0.049560547,-0.94195557,-0.2354126,6.578125,5.28125,6.203125
269,269,1727870829666,0.03955078,-0.909729,-0.32720947,6.203125,8.28125,6.546875
270,270,1727870829706,0.068115234,-1.0481567,-0.33477783,3.0,-0.75,5.078125
271,271,1727870829746,0.2512207,-1.0845337,-0.49273682,-0.015625,-9.140625,2.71875
272,272,1727870829786,-0.0546875,-1.2471313,-0.4553833,-1.359375,-4.078125,1.6875
273,273,1727870829826,0.025634766,-1.0745239,-0.52789307,-1.1875,4.875,-2.890625
274,274,1727870829866,0.09887695,-1.0964966,-0.5142212,6.984375,3.25,-0.0625
275,275,1727870829906,-0.039794922,-0.92388916,-0.51812744,-0.953125,2.703125,1.640625
276,276,1727870829946,-0.09301758,-0.73638916,-0.50909424,0.8125,16.828125,0.109375
277,277,1727870829986,-0.07519531,-0.6814575,-0.45343018,5.953125,14.703125,-2.515625
278,278,1727870830026,-0.12695312,-0.81866455,-0.36187744,9.328125,16.5,-5.5625
279,279,1727870830066,-0.09692383,-0.79229736,-0.317688,4.84375,17.25,-2.953125
280,280,1727870830106,-0.06958008,-0.75323486,-0.3562622,4.03125,16.21875,-1.71875
281,281,1727870830146,-0.05102539,-0.7251587,-0.34576416,6.9375,11.8125,-1.59375
282,282,1727870830186,-0.057128906,-0.74102783,-0.3237915,8.6875,10.578125,-1.78125
283,283,1727870830226,-0.10888672,-0.77838135,-0.34014893,7.609375,6.15625,-3.109375
284,284,1727870830266,-0.14501953,-0.8015747,-0.37554932,6.609375,1.421875,-4.234375
285,285,1727870830306,-0.12597656,-0.79229736,-0.3706665,8.53125,2.703125,-4.921875
286,286,1727870830346,-0.14819336,-0.864563,-0.41046143,4.6875,-0.125,-4.921875
287,287,1727870830386,-0.15966797,-0.90509033,-0.40679932,4.4375,-0.484375,-4.1875
288,288,1727870830426,-0.23291016,-1.0195923,-0.41949463,0.703125,1.890625,-0.21875
289,289,1727870830466,-0.22558594,-1.1680298,-0.5327759,-5.453125,3.296875,3.46875
290,290,1727870830506,-0.13549805,-1.1953735,-0.63653564,0.78125,7.09375,10.875
291,291,1727870830546,-0.11987305,-1.1248169,-0.7749634,-1.53125,8.375,17.203125
292,292,1727870830586,-0.03540039,-1.1030884,-0.74664307,-1.75,-3.40625,3.09375
293,293,1727870830626,0.08129883,-0.94366455,-0.5820923,-8.09375,-8.65625,3.921875
294,294,1727870830666,0.022216797,-0.7581177,-0.51397705,-11.46875,-6.25,6.5
295,295,1727870830706,-0.022949219,-0.67510986,-0.43145752,-7.578125,-10.125,2.265625
296,296,1727870830746,0.021484375,-0.7979126,-0.36749268,-5.71875,-11.28125,2.234375
297,297,1727870830786,0.05053711,-0.7971802,-0.30963135,-6.03125,-9.65625,4.09375
298,298,1727870830826,-0.0041503906,-0.74957275,-0.2539673,-6.453125,-7.296875,2.390625
299,299,1727870830866,0.036132812,-0.73760986,-0.31304932,-5.28125,-11.890625,0.296875
300,300,1727870830906,0.009521484,-0.7449341,-0.237854,1.84375,-9.890625,1.8125
301,301,1727870830946,-0.048828125,-0.80963135,-0.2625122,2.53125,-9.4375,2.578125
302,302,1727870830986,-0.040771484,-0.7776489,-0.28179932,2.734375,-1.609375,2.734375
303,303,1727870831026,-0.020263672,-0.76519775,-0.27716064,5.96875,-2.34375,2.0
304,304,1727870831066,-0.0087890625,-0.9031372,-0.3086548,3.609375,-3.75,-2.484375
305,305,1727870831106,0.03149414,-0.94976807,-0.35479736,6.453125,6.3125,-1.53125
306,306,1727870831146,0.07543945,-0.9495239,-0.37042236,7.59375,2.125,-1.265625
307,307,1727870831186,0.10424805,-1.0144653,-0.4607544,5.828125,1.25,-1.6875
308,308,1727870831226,0.15063477,-1.1282349,-0.52593994,3.53125,-1.828125,-0.859375
309,309,1727870831266,0.03466797,-1.2803345,-0.6201782,-4.484375,-6.828125,-4.65625
310,310,1727870831306,0.026367188,-0.9939575,-0.6253052,-5.53125,2.859375,-4.78125
311,311,1727870831346,0.040527344,-0.9949341,-0.4920044,-2.34375,13.265625,-15.921875
312,312,1727870831386,-0.09765625,-1.2302856,-0.48394775,6.59375,16.0,-8.5625
313,313,1727870831426,-0.10913086,-1.1275024,-0.5281372,-4.296875,28.90625,-3.5
314,314,1727870831466,-0.2133789,-0.7007446,-0.44586182,0.53125,34.375,10.5625
315,315,1727870831506,-0.31933594,-0.66851807,-0.47955322,6.71875,40.15625,19.96875
316,316,1727870831546,-0.20019531,-0.73565674,-0.5064087,13.453125,27.53125,4.921875
317,317,1727870831586,-0.123291016,-0.8740845,-0.43145752,18.515625,26.125,-2.28125
318,318,1727870831626,-0.14135742,-0.81451416,-0.42388916,9.8125,30.734375,7.5
319,319,1727870831666,-0.18066406,-0.7595825,-0.3928833,16.171875,26.53125,10.0
320,320,1727870831706,-0.20458984,-0.86383057,-0.3743286,17.625,21.25,5.96875
321,321,1727870831746,-0.18188477,-0.8616333,-0.36236572,11.828125,17.09375,5.28125
322,322,1727870831786,-0.22021484,-0.74176025,-0.35162354,16.515625,13.84375,3.515625
323,323,1727870831826,-0.1940918,-0.848938,-0.4414673,14.8125,9.4375,4.671875
324,324,1727870831866,-0.16918945,-0.92437744,-0.39483643,12.28125,5.28125,6.484375
325,325,1727870831906,-0.22827148,-0.91973877,-0.38848877,-2.390625,-4.640625,4.234375
326,326,1727870831946,-0.2331543,-0.8447876,-0.32574463,-3.5625,-4.890625,6.453125
327,327,1727870831986,-0.18481445,-0.92974854,-0.38238525,-2.953125,-9.625,6.46875
328,328,1727870832026,-0.22094727,-0.909729,-0.46832275,3.0,-8.109375,13.25
329,329,1727870832066,-0.24731445,-1.0918579,-0.48443604,2.0,-2.546875,13.1875
330,330,1727870832106,-0.33813477,-1.2918091,-0.5930786,-10.65625,-9.828125,9.984375
331,331,1727870832146,-0.28198242,-1.1934204,-0.7776489,3.265625,4.625,9.0
332,332,1727870832186,0.032470703,-1.0991821,-0.866272,3.453125,10.34375,11.796875
333,333,1727870832226,0.1550293,-0.92071533,-0.77593994,0.796875,1.921875,7.515625
334,334,1727870832266,0.19506836,-0.66363525,-0.6929321,-3.21875,-1.9375,9.625
335,335,1727870832306,0.06762695,-0.72979736,-0.4854126,-5.984375,-5.15625,4.515625
336,336,1727870832346,0.034423828,-0.8401489,-0.50860596,-8.375,-5.671875,1.578125
337,337,1727870832386,0.014160156,-0.8206177,-0.4006958,-4.46875,-3.640625,4.46875
338,338,1727870832426,-0.0036621094,-0.74102783,-0.37579346,-15.59375,-6.40625,5.203125
339,339,1727870832466,0.0061035156,-0.64727783,-0.30743408,-15.921875,-9.25,5.6875
340,340,1727870832506,-0.046875,-0.7337036,-0.22515869,-15.734375,-8.65625,6.59375
341,341,1727870832546,-0.05883789,-0.7022095,-0.2571411,-11.953125,-1.75,9.609375
342,342,1727870832586,0.03100586,-0.66778564,-0.28424072,-7.171875,-0.25,8.859375
343,343,1727870832626,0.021972656,-0.8140259,-0.25372314,-1.53125,5.765625,9.15625
344,344,1727870832666,0.037353516,-0.8670044,-0.24859619,0.59375,11.828125,8.890625
345,345,1727870832706,0.1081543,-0.9546509,-0.28668213,2.28125,12.53125,6.484375
346,346,1727870832746,0.060546875,-1.0349731,-0.3279419,5.84375,14.5625,4.765625
347,347,1727870832786,0.21166992,-0.98565674,-0.5027466,6.875,8.421875,3.015625
348,348,1727870832826,0.12451172,-1.065979,-0.52716064,5.09375,5.21875,4.453125
349,349,1727870832866,0.036132812,-1.1101685,-0.56134033,7.75,15.78125,0.890625
350,350,1727870832906,0.11743164,-1.0618286,-0.5510864,5.640625,15.671875,1.328125
351,351,1727870832946,0.06591797,-0.96099854,-0.5166626,1.53125,18.1875,2.375
352,352,1727870832986,-0.021240234,-0.82818604,-0.52911377,-1.953125,23.046875,3.8125
353,353,1727870833026,-0.08862305,-0.68927,-0.5491333,-6.21875,29.109375,2.5625
354,354,1727870833066,-0.07055664,-0.61553955,-0.47857666,4.4375,34.171875,0.15625
355,355,1727870833106,-0.12670898,-0.7883911,-0.38238525,5.890625,32.796875,-0.296875
356,356,1727870833146,-0.09326172,-0.8706665,-0.3821411,2.453125,30.46875,4.21875
357,357,1727870833186,-0.07348633,-0.76031494,-0.4216919,1.6875,26.828125,8.015625
358,358,1727870833226,-0.037597656,-0.7930298,-0.3867798,8.046875,21.328125,4.765625
359,359,1727870833266,-0.07055664,-0.8101196,-0.3880005,4.140625,19.15625,4.59375
360,360,1727870833306,-0.0925293,-0.75177,-0.394104,5.453125,14.65625,5.0
361,361,1727870833346,-0.14697266,-0.7625122,-0.440979,1.421875,13.53125,3.6875
362,362,1727870833386,-0.17285156,-0.74005127,-0.33721924,6.53125,10.765625,1.625
363,363,1727870833426,-0.100097656,-0.78253174,-0.33380127,5.921875,8.890625,1.28125
364,364,1727870833466,-0.13598633,-0.8609009,-0.3953247,11.578125,1.390625,0.171875
365,365,1727870833506,-0.1887207,-0.9920044,-0.47808838,12.15625,1.828125,0.5625
366,366,1727870833546,-0.12915039,-1.112854,-0.5317993,12.65625,2.984375,2.96875
367,367,1727870833586,-0.15283203,-1.0982056,-0.6067505,3.765625,-2.078125,7.96875
368,368,1727870833626,-0.19677734,-1.0686646,-0.75006104,3.421875,-6.65625,7.46875
369,369,1727870833666,0.050048828,-0.9470825,-0.92803955,13.765625,1.921875,15.203125
370,370,1727870833706,0.2109375,-0.90631104,-0.8045044,11.09375,-16.78125,13.078125
371,371,1727870833746,0.03857422,-0.83428955,-0.614563,-0.375,-7.046875,7.65625
372,372,1727870833786,0.17504883,-0.7334595,-0.5874634,-6.3125,-10.21875,1.3125
373,373,1727870833826,0.16870117,-0.8064575,-0.4824829,-3.9375,-10.5,1.390625
374,374,1727870833866,0.05053711,-0.78448486,-0.43463135,-9.078125,-10.28125,-3.03125
375,375,1727870833906,0.03173828,-0.7334595,-0.37286377,-8.96875,-11.390625,-4.0625
376,376,1727870833946,0.051513672,-0.7197876,-0.38189697,-9.46875,-13.453125,-3.9375
377,377,1727870833986,0.016357422,-0.71661377,-0.34210205,-8.90625,-14.359375,0.265625
378,378,1727870834026,-0.021728516,-0.7659302,-0.31622314,-10.890625,-8.28125,1.859375
379,379,1727870834066,0.008544922,-0.61505127,-0.29327393,-6.9375,-2.171875,4.296875
380,380,1727870834106,0.012207031,-0.6448364,-0.2810669,4.609375,3.09375,6.390625
381,381,1727870834146,0.060791016,-0.78912354,-0.26861572,11.21875,5.1875,3.234375
382,382,1727870834186,0.08520508,-0.8533325,-0.30743408,12.546875,6.609375,1.625
383,383,1727870834226,0.06567383,-0.92803955,-0.39801025,6.0,2.0625,2.53125
384,384,1727870834266,0.056152344,-0.89434814,-0.5510864,6.375,9.015625,3.640625
385,385,1727870834306,0.09838867,-1.0220337,-0.487854,10.828125,-0.171875,-0.65625
386,386,1727870834346,-0.064697266,-1.3096313,-0.64508057,2.015625,5.671875,-8.0625
387,387,1727870834386,0.037109375,-0.9517212,-0.74005127,-11.875,14.734375,-0.421875
388,388,1727870834426,0.1303711,-1.1817017,-0.6560669,-3.953125,13.921875,8.265625
389,389,1727870834466,0.08862305,-0.99102783,-0.78448486,-15.796875,12.015625,8.546875
390,390,1727870834506,-0.10449219,-0.7258911,-0.8423462,-11.96875,31.09375,7.84375
391,391,1727870834546,-0.11694336,-0.73443604,-0.67559814,0.046875,36.3125,2.1875
392,392,1727870834586,-0.09765625,-0.7012329,-0.53326416,-4.953125,38.578125,1.4375
393,393,1727870834626,-0.11352539,-0.74591064,-0.45562744,-6.5,33.546875,3.03125
394,394,1727870834666,-0.111083984,-0.6382446,-0.427063,-11.796875,34.0,5.375
395,395,1727870834706,-0.09716797,-0.6148071,-0.3826294,-9.3125,29.125,5.6875
396,396,1727870834746,-0.10424805,-0.6921997,-0.33917236,-10.8125,28.015625,7.453125
397,397,1727870834786,-0.114746094,-0.6489868,-0.34039307,-12.296875,29.59375,9.765625
398,398,1727870834826,-0.104003906,-0.68414307,-0.36553955,-9.3125,24.453125,7.390625
399,399,1727870834866,-0.08129883,-0.7300415,-0.37823486,-7.046875,16.671875,5.9375
400,400,1727870834906,-0.14672852,-0.86846924,-0.32086182,-1.90625,9.515625,4.453125
401,401,1727870834946,-0.21459961,-0.8965454,-0.27667236,-5.390625,9.46875,3.265625
402,402,1727870834986,-0.24047852,-0.8550415,-0.26202393,-12.640625,9.03125,4.78125
403,403,1727870835026,-0.2680664,-0.87213135,-0.19342041,-7.484375,9.734375,6.921875
404,404,1727870835066,-0.2590332,-0.89556885,-0.25738525,-1.828125,6.953125,8.421875
405,405,1727870835106,-0.20629883,-1.0562134,-0.30548096,4.046875,9.46875,10.890625
406,406,1727870835146,-0.25146484,-1.2112427,-0.30645752,-2.140625,7.1875,9.875
407,407,1727870835186,-0.33911133,-1.1924438,-0.31256104,-10.90625,11.46875,15.078125
408,408,1727870835226,-0.06958008,-1.100647,-0.70684814,-6.96875,16.1875,19.15625
409,409,1727870835266,0.08618164,-1.0088501,-0.6914673,-5.640625,10.671875,9.59375
410,410,1727870835306,0.099609375,-0.74102783,-0.5745239,-8.234375,15.375,5.3125
411,411,1727870835346,0.12524414,-0.8184204,-0.33502197,-6.875,6.390625,4.859375
412,412,1727870835386,-0.10498047,-0.9558716,-0.48150635,-17.203125,8.453125,4.0
413,413,1727870835426,0.037353516,-0.8430786,-0.45611572,-3.734375,18.6875,6.125
414,414,1727870835466,0.033447266,-0.800354,-0.35284424,-4.6875,16.703125,10.296875
415,415,1727870835506,0.037597656,-0.803772,-0.26446533,-1.15625,13.3125,12.5625
416,416,1727870835546,-0.014160156,-0.8875122,-0.2029419,-1.328125,9.5625,13.09375
417,417,1727870835586,-0.11694336,-0.89141846,-0.17584229,-4.296875,17.90625,9.984375
418,418,1727870835626,-0.16748047,-0.75860596,-0.22369385,-2.46875,23.65625,10.421875
419,419,1727870835666,-0.0078125,-0.8201294,-0.2901001,5.34375,25.59375,12.65625
420,420,1727870835706,0.010253906,-0.97052,-0.24957275,2.546875,24.171875,12.375
421,421,1727870835746,-0.068847656,-0.958313,-0.23052979,-2.71875,28.90625,8.609375
422,422,1727870835786,-0.064453125,-0.99957275,-0.19195557,-3.390625,33.828125,4.46875
423,423,1727870835826,-0.11401367,-0.9578247,-0.12652588,-3.609375,36.59375,5.28125
424,424,1727870835866,-0.09790039,-0.8880005,-0.28961182,7.578125,35.140625,5.0625
425,425,1727870835906,0.20019531,-0.93463135,-0.47247314,16.578125,16.421875,6.3125
426,426,1727870835946,0.0017089844,-1.362854,-0.41168213,10.140625,11.5625,3.328125
427,427,1727870835986,0.048339844,-1.1199341,-0.6543579,17.484375,9.953125,-2.03125
428,428,1727870836026,0.061279297,-1.2852173,-0.59454346,19.5625,10.171875,1.328125
429,429,1727870836066,-0.0073242188,-1.1384888,-0.62750244,2.328125,9.484375,5.3125
430,430,1727870836106,-0.16577148,-0.7871704,-0.64385986,1.234375,18.0625,6.09375
431,431,1727870836146,-0.12426758,-0.70269775,-0.6404419,1.96875,31.5625,5.125
432,432,1727870836186,-0.17382812,-0.7390747,-0.50567627,4.921875,31.796875,1.890625
433,433,1727870836226,-0.11230469,-0.7817993,-0.42559814,8.203125,28.359375,0.484375
434,434,1727870836266,0.030273438,-0.69537354,-0.4216919,5.265625,31.328125,12.375
435,435,1727870836306,-0.078125,-0.61260986,-0.3526001,19.234375,22.28125,11.515625
436,436,1727870836346,-0.06567383,-0.76519775,-0.38458252,15.546875,16.40625,4.640625
437,437,1727870836386,-0.0390625,-0.7163696,-0.4336548,7.234375,11.9375,3.84375
438,438,1727870836426,-0.13208008,-0.64312744,-0.42340088,8.609375,5.140625,2.078125
439,439,1727870836466,-0.13012695,-0.7473755,-0.44903564,7.65625,5.546875,-3.625
440,440,1727870836506,-0.10058594,-0.8069458,-0.45489502,2.546875,2.796875,-2.84375
441,441,1727870836546,-0.17651367,-0.8255005,-0.42022705,1.328125,1.640625,-0.125
442,442,1727870836586,-0.20288086,-0.8623657,-0.5195923,1.6875,0.578125,0.96875
443,443,1727870836626,-0.15942383,-1.0581665,-0.58258057,3.734375,-2.828125,2.625
444,444,1727870836666,-0.19213867,-1.3074341,-0.7420044,-13.296875,-11.453125,2.296875
445,445,1727870836706,-0.09326172,-1.2730103,-0.8074341,-12.421875,-0.125,5.796875
446,446,1727870836746,0.056396484,-1.0598755,-0.8069458,-16.859375,8.65625,9.65625
447,447,1727870836786,0.20141602,-0.7954712,-0.61260986,-7.125,-17.578125,1.84375
448,448,1727870836826,0.0637207,-0.7468872,-0.5742798,-10.90625,-26.765625,-5.109375
449,449,1727870836866,0.06738281,-0.7461548,-0.44830322,-7.5,-20.078125,-4.796875
450,450,1727870836906,0.00048828125,-0.7671509,-0.35430908,-10.609375,-24.390625,-5.484375
451,451,1727870836946,0.0031738281,-0.8267212,-0.27667236,-7.390625,-21.734375,-3.890625
452,452,1727870836986,-0.0029296875,-0.7168579,-0.2571411,-12.109375,-18.375,-2.796875
453,453,1727870837026,-0.0078125,-0.70391846,-0.25152588,-12.578125,-20.390625,-5.796875
454,454,1727870837066,-0.04663086,-0.7359009,-0.2793579,-13.8125,-25.265625,-7.578125
455,455,1727870837106,-0.07885742,-0.7859497,-0.23321533,-8.359375,-14.84375,-3.6875
456,456,1727870837146,-0.024658203,-0.8345337,-0.23834229,-4.125,-7.875,-3.859375
457,457,1727870837186,0.02319336,-0.89801025,-0.23980713,-2.96875,-7.0,-0.78125
458,458,1727870837226,-0.016845703,-0.9043579,-0.18634033,-4.140625,-2.296875,1.125
459,459,1727870837266,0.01586914,-0.8838501,-0.21881104,1.09375,0.703125,-0.328125
460,460,1727870837306,0.047851562,-0.94195557,-0.23565674,4.0625,0.8125,-0.890625
461,461,1727870837346,0.14257812,-0.99346924,-0.30596924,2.078125,0.015625,0.90625
462,462,1727870837386,0.20629883,-1.1433716,-0.394104,7.15625,-9.484375,-2.15625
463,463,1727870837426,-0.048095703,-1.2119751,-0.32867432,2.609375,-5.96875,-5.21875
464,464,1727870837466,0.044921875,-1.076477,-0.55255127,13.65625,2.21875,-0.5625
465,465,1727870837506,0.071777344,-1.1531372,-0.5132446,11.875,1.296875,4.34375
466,466,1727870837546,-0.049560547,-0.9612427,-0.56036377,6.5625,5.75,3.046875
467,467,1727870837586,-0.06542969,-0.76763916,-0.56988525,10.53125,12.96875,1.71875
468,468,1727870837626,-0.13696289,-0.7197876,-0.56817627,12.890625,18.515625,0.71875
469,469,1727870837666,-0.17285156,-0.74224854,-0.4517212,13.375,25.65625,-3.015625
470,470,1727870837706,-0.16503906,-0.83062744,-0.3682251,8.171875,28.078125,-1.875
471,471,1727870837746,-0.049072266,-0.755188,-0.39483643,-1.21875,20.65625,2.265625
472,472,1727870837786,-0.076171875,-0.7385864,-0.38067627,6.046875,18.203125,4.453125
473,473,1727870837826,-0.083984375,-0.7695923,-0.39556885,5.484375,17.34375,4.421875
474,474,1727870837866,-0.060302734,-0.7241821,-0.4006958,8.21875,14.125,3.46875
475,475,1727870837906,-0.10864258,-0.76031494,-0.40142822,7.375,7.28125,1.359375
476,476,1727870837946,-0.1472168,-0.8045044,-0.39361572,8.375,6.265625,-0.875
477,477,1727870837986,-0.14770508,-0.8521118,-0.4138794,1.171875,8.046875,-1.328125
478,478,1727870838026,-0.17822266,-0.83721924,-0.45196533,5.0625,8.203125,-0.140625
479,479,1727870838066,-0.23095703,-0.91363525,-0.44610596,7.25,10.125,3.71875
480,480,1727870838106,-0.24023438,-1.024231,-0.5630493,-1.796875,4.125,6.3125
481,481,1727870838146,-0.20336914,-1.0090942,-0.5901489,4.75,4.640625,4.5625
482,482,1727870838186,-0.042236328,-1.0090942,-0.7752075,4.265625,2.25,12.6875
483,483,1727870838226,-0.055419922,-1.085022,-0.7918091,-2.234375,-2.734375,12.078125
484,484,1727870838266,-0.064208984,-1.0281372,-0.6680298,0.28125,-6.203125,3.140625
485,485,1727870838306,0.11279297,-0.881897,-0.7114868,-8.125,-6.4375,5.59375
486,486,1727870838346,0.18945312,-0.74005127,-0.6140747,-9.296875,-13.421875,4.953125
487,487,1727870838386,0.10839844,-0.7444458,-0.4644165,-12.328125,-14.40625,-0.984375
488,488,1727870838426,0.044921875,-0.79107666,-0.41119385,-13.640625,-16.921875,-3.90625
489,489,1727870838466,0.06298828,-0.7979126,-0.37164307,-8.53125,-15.40625,-3.671875
490,490,1727870838506,-0.015625,-0.8062134,-0.29742432,-10.703125,-11.078125,-2.46875
491,491,1727870838546,-0.025390625,-0.73638916,-0.30059814,-8.1875,-11.78125,-5.265625
492,492,1727870838586,0.010253906,-0.7593384,-0.29986572,-5.984375,-9.765625,-2.46875
493,493,1727870838626,-0.010009766,-0.7637329,-0.27960205,-4.359375,-10.390625,1.28125
494,494,1727870838666,-0.044921875,-0.7949829,-0.27008057,-6.078125,-7.171875,2.640625
495,495,1727870838706,-0.052246094,-0.84552,-0.2666626,-5.296875,-1.375,5.03125
496,496,1727870838746,0.036132812,-0.84259033,-0.31085205,-4.03125,0.96875,6.34375
497,497,1727870838786,0.0625,-0.89019775,-0.27374268,0.625,4.375,6.578125
498,498,1727870838826,0.049804688,-0.9512329,-0.25299072,4.171875,6.3125,5.5625
499,499,1727870838866,0.103027344,-0.95269775,-0.27838135,2.390625,0.828125,2.84375
500,500,1727870838906,0.12719727,-1.1575317,-0.4578247,-3.78125,-1.875,-2.1875
501,501,1727870838946,-0.016113281,-1.3381958,-0.5149536,-1.71875,7.375,-2.3125
502,502,1727870838986,0.072753906,-0.97003174,-0.59820557,-6.5,7.109375,-2.40625
503,503,1727870839026,0.21435547,-1.104065,-0.52178955,4.734375,10.671875,5.640625
504,504,1727870839066,0.0061035156,-1.0298462,-0.5274048,-3.640625,16.09375,4.703125
505,505,1727870839106,-0.061035156,-0.7908325,-0.5042114,-8.359375,27.578125,0.3125
506,506,1727870839146,-0.026367188,-0.67266846,-0.4319458,-7.78125,25.265625,-2.46875
507,507,1727870839186,-0.056396484,-0.77008057,-0.3189087,2.40625,22.703125,-5.65625
508,508,1727870839226,-0.07470703,-0.80548096,-0.34381104,8.265625,23.921875,-5.703125
509,509,1727870839266,-0.07788086,-0.70196533,-0.3411255,7.265625,21.765625,-5.6875
510,510,1727870839306,-0.06567383,-0.7058716,-0.348938,11.78125,17.609375,-6.265625
511,511,1727870839346,-0.09082031,-0.7984009,-0.3484497,10.125,16.6875,-4.3125
512,512,1727870839386,-0.118652344,-0.7827759,-0.3809204,6.203125,14.34375,-2.671875
513,513,1727870839426,-0.12231445,-0.75909424,-0.39385986,7.75,10.84375,-4.140625
514,514,1727870839466,-0.14379883,-0.85040283,-0.40264893,9.15625,11.015625,-3.765625
515,515,1727870839506,-0.15600586,-0.819397,-0.40289307,5.84375,9.265625,-1.359375
516,516,1727870839546,-0.19604492,-0.8689575,-0.42095947,4.046875,5.203125,-1.125
517,517,1727870839586,-0.22314453,-0.92755127,-0.42486572,1.6875,1.015625,0.640625
518,518,1727870839626,-0.21411133,-0.9319458,-0.42877197,-1.875,-0.046875,1.4375
519,519,1727870839666,-0.14697266,-1.1206665,-0.48858643,-0.390625,0.21875,3.6875
520,520,1727870839706,-0.19018555,-1.2149048,-0.49639893,-0.703125,-0.96875,8.546875
521,521,1727870839746,-0.20043945,-1.2317505,-0.7192993,-9.921875,-0.53125,10.796875
522,522,1727870839786,-0.0925293,-0.95391846,-0.73223877,-13.0,-2.515625,9.6875
523,523,1727870839826,0.122558594,-0.8296509,-0.7271118,-10.015625,-14.359375,5.28125
524,524,1727870839866,0.08862305,-0.80255127,-0.5784302,-7.390625,-11.015625,3.328125
525,525,1727870839906,-0.0034179688,-0.82940674,-0.47052002,-9.984375,-15.5625,-0.015625
526,526,1727870839946,-0.0009765625,-0.86968994,-0.3735962,-16.875,-16.453125,-4.078125
527,527,1727870839986,0.015625,-0.8179321,-0.30792236,-14.859375,-18.296875,-4.515625
528,528,1727870840026,-0.0625,-0.81256104,-0.22271729,-11.21875,-12.4375,-3.71875
529,529,1727870840066,-0.050048828,-0.8027954,-0.2456665,-9.671875,-12.328125,-3.953125
530,530,1727870840106,-0.032226562,-0.7883911,-0.2564087,-4.53125,-15.71875,-2.578125
531,531,1727870840146,-0.08178711,-0.79473877,-0.2341919,2.546875,-7.03125,0.46875
532,532,1727870840186,-0.052734375,-0.7761841,-0.23516846,3.03125,-5.859375,2.625
533,533,1727870840226,-0.00390625,-0.81036377,-0.22589111,4.296875,-3.96875,5.796875
534,534,1727870840266,-0.047851562,-0.8652954,-0.23150635,6.734375,3.421875,6.0
535,535,1727870840306,-0.040283203,-0.9402466,-0.27618408,6.515625,9.3125,4.890625
536,536,1727870840346,0.020263672,-0.95147705,-0.31134033,8.328125,15.046875,4.234375
537,537,1727870840386,0.1381836,-1.0159302,-0.4175415,3.765625,4.671875,2.203125
538,538,1727870840426,-0.012451172,-1.2144165,-0.47662354,7.109375,4.078125,3.78125
539,539,1727870840466,-0.0107421875,-1.041565,-0.53741455,4.109375,10.90625,-1.265625
540,540,1727870840506,0.07421875,-1.0855103,-0.5100708,11.140625,6.546875,1.765625
541,541,1727870840546,-0.034423828,-1.0476685,-0.5352173,9.9375,9.0625,3.859375
542,542,1727870840586,-0.088134766,-0.8093872,-0.5484009,8.40625,15.546875,3.546875
543,543,1727870840626,-0.14233398,-0.67681885,-0.5581665,6.21875,19.640625,2.5
544,544,1727870840666,-0.114990234,-0.73516846,-0.4812622,14.171875,20.671875,-3.625
545,545,1727870840706,-0.118652344,-0.8413696,-0.3711548,11.453125,23.296875,-1.609375
546,546,1727870840746,-0.1105957,-0.76812744,-0.40631104,3.6875,19.40625,2.453125
547,547,1727870840786,-0.123291016,-0.7210083,-0.3723755,8.640625,19.625,2.15625
548,548,1727870840826,-0.1015625,-0.6795044,-0.34576416,7.28125,18.1875,3.71875
549,549,1727870840866,-0.11669922,-0.7258911,-0.41851807,6.96875,15.0,4.03125
550,550,1727870840906,-0.17407227,-0.74468994,-0.3916626,11.40625,12.578125,3.890625
551,551,1727870840946,-0.18066406,-0.7554321,-0.4414673,8.34375,12.359375,3.46875
552,552,1727870840986,-0.15478516,-0.788147,-0.49884033,7.890625,11.578125,3.53125
553,553,1727870841026,-0.15917969,-0.84942627,-0.45880127,8.8125,9.078125,1.578125
554,554,1727870841066,-0.20288086,-0.8740845,-0.4595337,6.1875,7.0625,4.578125
555,555,1727870841106,-0.17480469,-0.9517212,-0.55133057,0.875,-1.15625,6.265625
556,556,1727870841146,-0.28515625,-1.0344849,-0.6548462,7.078125,1.921875,11.359375
557,557,1727870841186,-0.16235352,-1.2219849,-0.7871704,3.59375,8.234375,14.53125
558,558,1727870841226,-0.15185547,-1.0176392,-0.89801025,-4.5,6.359375,16.609375
559,559,1727870841266,0.07006836,-0.8953247,-0.8718872,-3.109375,-0.625,12.015625
560,560,1727870841306,0.16479492,-0.8501587,-0.704895,-6.59375,-8.828125,8.078125
561,561,1727870841346,0.064697266,-0.7034302,-0.68292236,-12.1875,-9.4375,5.953125
562,562,1727870841386,0.022216797,-0.692688,-0.55133057,-11.09375,-12.734375,-0.46875
563,563,1727870841426,0.056884766,-0.8569946,-0.46905518,-12.546875,-9.640625,-4.84375
564,564,1727870841466,-0.015625,-0.815979,-0.40142822,-16.390625,-5.125,-6.328125
565,565,1727870841506,-0.0021972656,-0.7229614,-0.3406372,-17.828125,-7.265625,-3.109375
566,566,1727870841546,-0.06640625,-0.65045166,-0.26348877,-17.1875,-8.75,0.84375
567,567,1727870841586,-0.06518555,-0.66363525,-0.21807861,-13.375,-9.765625,1.4375
568,568,1727870841626,-0.08325195,-0.7144165,-0.23736572,-10.984375,-4.234375,2.375
569,569,1727870841666,-0.041015625,-0.7073364,-0.24908447,-2.59375,-1.015625,4.734375
570,570,1727870841706,-0.009765625,-0.79278564,-0.23345947,7.546875,1.140625,6.359375
571,571,1727870841746,-0.00048828125,-0.862854,-0.2871704,9.578125,-2.5,5.4375
572,572,1727870841786,0.020751953,-0.95440674,-0.3008423,7.40625,-4.0,3.390625
573,573,1727870841826,-0.032226562,-0.9480591,-0.30645752,8.515625,3.40625,2.296875
574,574,1727870841866,0.02709961,-0.8953247,-0.42388916,9.390625,2.578125,-1.328125
575,575,1727870841906,0.0107421875,-1.203186,-0.45733643,10.3125,1.296875,-2.65625
576,576,1727870841946,-0.055419922,-1.2366333,-0.65753174,2.625,11.171875,-5.171875
577,577,1727870841986,0.024658203,-1.0784302,-0.6807251,0.421875,17.640625,2.734375
578,578,1727870842026,0.10620117,-1.2146606,-0.70977783,-6.71875,9.90625,8.25
579,579,1727870842066,-0.038330078,-0.9194946,-0.6968384,-13.5625,18.40625,2.5625
580,580,1727870842106,-0.12060547,-0.74005127,-0.6536255,-16.109375,29.578125,1.15625
581,581,1727870842146,-0.17456055,-0.65802,-0.5335083,-12.328125,32.671875,0.484375
582,582,1727870842186,-0.17871094,-0.6939087,-0.45025635,-7.15625,35.484375,0.578125
583,583,1727870842226,-0.13232422,-0.8272095,-0.40093994,-4.75,31.234375,-1.265625
584,584,1727870842266,-0.10473633,-0.7229614,-0.32086182,-9.671875,29.203125,3.0
585,585,1727870842306,-0.16967773,-0.6355591,-0.31256104,-5.15625,30.5625,3.296875
586,586,1727870842346,-0.17333984,-0.7620239,-0.30499268,-2.984375,32.59375,4.734375
587,587,1727870842386,-0.15478516,-0.76446533,-0.31280518,-3.25,27.734375,6.71875
588,588,1727870842426,-0.18652344,-0.70098877,-0.3267212,-3.765625,22.109375,6.5
589,589,1727870842466,-0.17993164,-0.788147,-0.2727661,-1.296875,18.296875,4.0625
590,590,1727870842506,-0.21948242,-0.8731079,-0.2588501,-4.984375,14.984375,5.53125
591,591,1727870842546,-0.27416992,-0.8887329,-0.21368408,-7.78125,12.28125,6.984375
592,592,1727870842586,-0.29467773,-0.8340454,-0.14801025,-14.4375,9.515625,9.171875
593,593,1727870842626,-0.28027344,-0.82110596,-0.15899658,-6.078125,9.234375,10.34375
594,594,1727870842666,-0.18432617,-0.8965454,-0.27520752,5.265625,2.59375,13.328125
595,595,1727870842706,-0.21533203,-1.079895,-0.26055908,14.09375,6.640625,16.53125
596,596,1727870842746,-0.32055664,-1.227356,-0.1572876,9.375,3.828125,9.765625
597,597,1727870842786,-0.4038086,-1.2544556,-0.16778564,-6.25,8.953125,10.171875
598,598,1727870842826,-0.13793945,-1.1914673,-0.60357666,-7.640625,17.5,23.25
599,599,1727870842866,-0.040771484,-1.0569458,-0.6526489,-2.515625,4.296875,10.640625
600,600,1727870842906,0.014404297,-0.8164673,-0.61383057,-8.953125,21.671875,4.640625
601,601,1727870842946,0.29223633,-0.798645,-0.49517822,-5.453125,8.453125,1.59375
602,602,1727870842986,0.022705078,-0.93707275,-0.32305908,-7.109375,6.703125,5.96875
603,603,1727870843026,-0.08984375,-0.89385986,-0.47833252,-9.109375,18.0625,3.65625
604,604,1727870843066,0.032714844,-0.79107666,-0.36993408,-1.828125,25.078125,6.34375
605,605,1727870843106,0.017089844,-0.73223877,-0.2744751,0.84375,15.90625,8.484375
606,606,1727870843146,0.049804688,-0.8460083,-0.23956299,4.09375,8.578125,11.796875
607,607,1727870843186,-0.046142578,-0.8921509,-0.21514893,0.921875,12.5,14.1875
608,608,1727870843226,-0.15454102,-0.8245239,-0.18756104,3.515625,19.15625,10.78125
609,609,1727870843266,-0.07299805,-0.80010986,-0.1951294,4.0,19.84375,9.203125
610,610,1727870843306,-0.035888672,-0.9241333,-0.26837158,-1.1875,24.640625,12.828125
611,611,1727870843346,-0.06665039,-0.9104614,-0.22393799,0.109375,30.53125,11.328125
612,612,1727870843386,-0.0847168,-0.9800415,-0.21685791,-1.6875,33.3125,6.90625
613,613,1727870843426,-0.072021484,-0.96173096,-0.15753174,-1.765625,34.65625,5.375
614,614,1727870843466,-0.08081055,-0.9204712,-0.17974854,5.234375,34.28125,6.703125
615,615,1727870843506,0.10180664,-0.9456177,-0.40289307,12.875,21.265625,8.859375
616,616,1727870843546,0.10498047,-1.2744751,-0.45611572,19.109375,6.15625,5.53125
617,617,1727870843586,0.043945312,-1.3262329,-0.62384033,15.78125,7.609375,-1.640625
618,618,1727870843626,0.026123047,-1.0886841,-0.73883057,17.34375,7.6875,0.671875
619,619,1727870843666,0.099853516,-1.2356567,-0.647522,8.625,10.9375,6.6875
620,620,1727870843706,-0.14916992,-0.8352661,-0.68878174,-0.625,24.296875,11.96875
621,621,1727870843746,-0.110839844,-0.5171509,-0.5474243,6.140625,26.96875,9.890625
622,622,1727870843786,-0.12084961,-0.63653564,-0.5195923,11.421875,27.453125,6.34375
623,623,1727870843826,-0.07836914,-0.8171997,-0.43121338,10.59375,24.6875,3.453125
624,624,1727870843866,-0.016601562,-0.74053955,-0.43218994,-1.09375,23.609375,8.0
625,625,1727870843906,-0.03125,-0.6123657,-0.36724854,6.9375,17.8125,5.328125
626,626,1727870843946,-0.045166016,-0.737854,-0.3760376,6.421875,12.671875,-0.671875
627,627,1727870843986,-0.026611328,-0.6963501,-0.35601807,4.609375,10.03125,-1.109375
628,628,1727870844026,-0.06616211,-0.6851196,-0.3796997,6.15625,4.78125,-1.484375
629,629,1727870844066,-0.14550781,-0.7571411,-0.36187744,7.140625,2.859375,-5.9375
630,630,1727870844106,-0.1496582,-0.82159424,-0.37457275,7.921875,5.328125,-5.109375
631,631,1727870844146,-0.18701172,-0.8796997,-0.42486572,7.734375,2.171875,-3.3125
632,632,1727870844186,-0.21240234,-1.071106,-0.5095825,6.203125,-1.328125,-1.734375
633,633,1727870844226,-0.13793945,-1.1140747,-0.5984497,4.5,-4.765625,-0.296875
634,634,1727870844266,-0.109375,-1.2661743,-0.6519165,-1.96875,-2.34375,9.5625
635,635,1727870844306,-0.1694336,-0.98223877,-0.7901001,0.84375,0.921875,17.546875
636,636,1727870844346,0.053466797,-0.9451294,-0.91900635,-3.0,-9.625,-2.390625
637,637,1727870844386,0.25317383,-0.9065552,-0.7095337,2.140625,-16.59375,0.75
638,638,1727870844426,0.087646484,-0.69073486,-0.4985962,-12.953125,-26.9375,1.1875
639,639,1727870844466,-0.0056152344,-0.6958618,-0.4517212,-15.234375,-25.296875,-4.953125
640,640,1727870844506,0.0715332,-0.93048096,-0.38336182,3.1875,-25.359375,-10.390625
641,641,1727870844546,0.038085938,-0.88897705,-0.3369751,-8.609375,-24.0,-6.3125
642,642,1727870844586,-0.046142578,-0.71710205,-0.3399048,-14.125,-21.375,-4.8125
643,643,1727870844626,-0.023925781,-0.6358032,-0.3213501,-10.046875,-21.125,-1.34375
644,644,1727870844666,-0.021972656,-0.6604614,-0.25689697,-10.109375,-23.140625,1.640625
645,645,1727870844706,-0.21850586,-1.0291138,-0.5112915,-2.90625,-15.484375,-0.203125
646,646,1727870844746,-0.23754883,-1.1045532,-0.6643677,12.59375,-13.59375,6.15625
647,647,1727870844786,-0.08276367,-1.2136841,-0.8093872,10.203125,-5.9375,9.84375
648,648,1727870844826,-0.075683594,-1.0999146,-0.8245239,0.8125,-18.78125,4.140625
649,649,1727870844866,0.2770996,-0.9973755,-0.72979736,4.21875,-24.796875,-1.640625
650,650,1727870844906,0.14672852,-0.78985596,-0.5725708,-10.453125,-21.21875,3.125
651,651,1727870844946,0.032470703,-0.61602783,-0.46002197,-11.578125,-25.5625,-5.328125
652,652,1727870844986,0.037109375,-0.84088135,-0.395813,-7.546875,-28.21875,-9.640625
653,653,1727870845026,-0.028320312,-0.84576416,-0.26885986,-9.21875,-25.328125,-11.0625
654,654,1727870845066,-0.013671875,-0.6638794,-0.31573486,-8.46875,-21.25,-6.875
655,655,1727870845106,-0.017822266,-0.7127075,-0.27886963,-1.984375,-23.421875,-5.265625
656,656,1727870845146,-0.03149414,-0.7542114,-0.3093872,-1.109375,-20.40625,-2.75
657,657,1727870845186,-0.0021972656,-0.694397,-0.30059814,-0.140625,-16.296875,-1.546875
658,658,1727870845226,0.026123047,-0.73883057,-0.29864502,6.09375,-14.71875,2.3125
659,659,1727870845266,0.061767578,-0.82647705,-0.3887329,9.125,-13.359375,3.796875
660,660,1727870845306,0.05029297,-0.86138916,-0.35064697,12.765625,-7.015625,4.0
661,661,1727870845346,0.12695312,-0.9338989,-0.32843018,12.328125,5.3125,3.109375
662,662,1727870845386,0.07104492,-1.015686,-0.5437622,6.5,-0.390625,-4.484375
663,663,1727870845426,0.2175293,-1.1748657,-0.62945557,9.75,-10.265625,-6.578125
664,664,1727870845466,-0.053710938,-1.2832642,-0.74713135,-0.0625,3.09375,-8.25
665,665,1727870845506,0.09790039,-0.96661377,-0.6831665,-3.15625,9.3125,-14.1875
666,666,1727870845546,0.10107422,-0.9343872,-0.58966064,-4.09375,16.671875,1.546875
667,667,1727870845586,-0.0075683594,-0.71881104,-0.53790283,-7.15625,15.71875,-1.125
668,668,1727870845626,-0.10888672,-0.6189575,-0.54156494,-2.8125,22.015625,-5.28125
669,669,1727870845666,-0.12133789,-0.7866821,-0.4121704,8.5625,28.125,-12.875
670,670,1727870845706,-0.061279297,-0.8201294,-0.39337158,-1.90625,19.5625,-10.25
671,671,1727870845746,-0.08984375,-0.68585205,-0.4319458,-0.234375,14.125,-4.40625
672,672,1727870845786,-0.1237793,-0.6958618,-0.3574829,6.9375,9.09375,-4.234375
673,673,1727870845826,-0.15014648,-0.6790161,-0.3682251,6.4375,6.1875,-0.875
674,674,1727870845866,-0.1796875,-0.67633057,-0.39190674,7.140625,5.5,-0.859375
675,675,1727870845906,-0.14355469,-0.7859497,-0.41290283,9.296875,2.328125,-2.890625
676,676,1727870845946,-0.15649414,-0.80718994,-0.44244385,3.390625,0.0,-1.109375
677,677,1727870845986,-0.16577148,-0.7996216,-0.4541626,3.625,1.484375,-0.296875
678,678,1727870846026,-0.24487305,-0.9404907,-0.489563,4.046875,1.09375,1.28125
679,679,1727870846066,-0.22729492,-1.0984497,-0.5911255,3.234375,-6.953125,3.125
680,680,1727870846106,-0.28710938,-1.1812134,-0.64508057,-0.34375,2.4375,6.765625
681,681,1727870846146,-0.08886719,-1.2896118,-0.93927,-4.71875,-0.25,10.171875
682,682,1727870846186,0.08276367,-0.9299927,-0.76763916,-15.0,-4.203125,6.3125
683,683,1727870846226,0.114746094,-0.72613525,-0.6292114,-13.5,-12.734375,7.0
684,684,1727870846266,0.11669922,-0.71954346,-0.61846924,-10.0625,-25.390625,2.28125
685,685,1727870846306,0.057617188,-0.70928955,-0.49053955,-2.625,-21.390625,1.40625
686,686,1727870846346,0.0078125,-0.8303833,-0.38531494,-3.75,-25.59375,-4.890625
687,687,1727870846386,0.009521484,-0.76568604,-0.35894775,-11.71875,-19.65625,-3.140625
688,688,1727870846426,0.0068359375,-0.7095337,-0.3225708,-10.15625,-16.8125,-0.984375
689,689,1727870846466,-0.021728516,-0.69000244,-0.27593994,-8.34375,-17.546875,-0.109375
690,690,1727870846506,0.0034179688,-0.6983032,-0.2954712,-5.796875,-15.0625,2.125
691,691,1727870846546,0.010498047,-0.69903564,-0.2888794,-2.890625,-14.890625,2.828125
692,692,1727870846586,0.018554688,-0.798645,-0.302063,-0.953125,-16.140625,2.78125
693,693,1727870846626,0.01586914,-0.8255005,-0.2913208,3.34375,-12.484375,2.8125
694,694,1727870846666,0.0068359375,-0.9182739,-0.35162354,4.15625,-8.984375,1.953125
695,695,1727870846706,0.013427734,-0.9985962,-0.32183838,6.296875,-2.25,0.546875
696,696,1727870846746,0.057861328,-0.9163208,-0.2937622,3.140625,4.75,-5.75
697,697,1727870846786,0.1899414,-1.003479,-0.5239868,3.59375,1.703125,-7.609375
698,698,1727870846826,0.09057617,-1.1904907,-0.5195923,4.171875,-6.0625,-3.578125
699,699,1727870846866,-0.01977539,-1.1560669,-0.64971924,-7.0,8.296875,-8.015625
700,700,1727870846906,0.10913086,-1.024231,-0.54278564,3.890625,13.359375,-6.265625
701,701,1727870846946,0.08569336,-1.072815,-0.51104736,-5.546875,6.25,-0.578125
702,702,1727870846986,0.0041503906,-0.8467407,-0.57647705,-12.03125,6.765625,-4.09375
703,703,1727870847026,-0.00024414062,-0.6643677,-0.50250244,-8.28125,14.359375,-7.46875
704,704,1727870847066,-0.03173828,-0.6567993,-0.35943604,-3.390625,15.015625,-8.234375
705,705,1727870847106,-0.12890625,-0.77130127,-0.33258057,1.03125,12.46875,-10.921875
706,706,1727870847146,-0.057128906,-0.84039307,-0.34039307,-1.375,14.78125,-7.046875
707,707,1727870847186,-0.049072266,-0.8687134,-0.40142822,-3.9375,4.71875,-4.109375
708,708,1727870847226,-0.107421875,-0.7944946,-0.3665161,2.421875,7.90625,-3.796875
709,709,1727870847266,-0.106933594,-0.83917236,-0.36260986,0.421875,0.765625,-1.40625
710,710,1727870847306,-0.15454102,-0.8308716,-0.29278564,3.0625,0.5625,-2.78125
711,711,1727870847346,-0.18701172,-0.7905884,-0.32305908,-1.90625,-0.234375,-3.03125
712,712,1727870847386,-0.21533203,-0.76275635,-0.3098755,0.171875,0.90625,-1.984375
713,713,1727870847426,-0.2084961,-0.8086548,-0.20391846,8.546875,1.90625,-6.671875
714,714,1727870847466,-0.16308594,-0.96539307,-0.31085205,3.15625,7.015625,-5.140625
715,715,1727870847506,-0.24267578,-0.9175415,-0.4920044,6.78125,2.453125,-0.125
716,716,1727870847546,-0.20922852,-1.2593384,-0.69122314,21.171875,20.515625,2.71875
717,717,1727870847586,-0.12524414,-1.3152466,-0.6799927,4.90625,6.734375,4.203125
718,718,1727870847626,-0.06665039,-1.0200806,-0.78375244,-1.140625,10.015625,10.671875
719,719,1727870847666,0.12109375,-0.9338989,-0.74591064,2.3125,-3.390625,9.921875
720,720,1727870847706,0.21655273,-0.911438,-0.6079712,-4.6875,-13.375,6.078125
721,721,1727870847746,0.09375,-0.73565674,-0.44659424,-6.578125,-17.375,3.625
722,722,1727870847786,0.007080078,-0.79229736,-0.35772705,-9.484375,-18.25,-2.015625
723,723,1727870847826,-0.059570312,-0.8467407,-0.27520752,-8.953125,-14.328125,-5.25
724,724,1727870847866,-0.042236328,-0.819397,-0.28399658,-8.78125,-11.015625,-4.96875
725,725,1727870847906,0.009033203,-0.82354736,-0.28326416,-3.53125,-11.5625,-3.1875
726,726,1727870847946,-0.041748047,-0.7727661,-0.2703247,-4.359375,-14.703125,0.875
727,727,1727870847986,-0.09106445,-0.7632446,-0.25494385,-2.015625,-10.8125,1.859375
728,728,1727870848026,-0.053466797,-0.7529907,-0.2276001,-0.84375,-8.515625,1.984375
729,729,1727870848066,-0.05126953,-0.7683716,-0.28570557,0.890625,-5.8125,4.921875
