,Unnamed: 0,timestamp,accel_x,accel_y,accel_z,gyro_x,gyro_y,gyro_z
0,0,1727965880759,-0.15161133,-0.58721924,0.15325928,-9.703125,-18.046875,13.546875
1,1,1727965880799,-0.6879883,-0.8674927,0.2675171,-1.671875,-6.8125,2.875
2,2,1727965880839,-0.5986328,-0.8965454,0.25164795,-20.890625,3.90625,-4.265625
3,3,1727965880879,-0.0078125,-0.57818604,0.17181396,-6.703125,17.0625,0.46875
4,4,1727965880919,0.10083008,-0.4319458,0.078063965,3.875,-10.546875,-4.765625
5,5,1727965880959,0.07080078,-0.47052002,0.12200928,6.453125,-3.984375,-2.578125
6,6,1727965880999,-0.12231445,-0.65802,0.24798584,5.03125,-13.359375,4.828125
7,7,1727965881039,-0.48461914,-1.3250122,0.2579956,26.484375,-27.375,8.65625
8,8,1727965881079,-0.61572266,-2.0,0.5219116,28.140625,-18.125,-6.8125
9,9,1727965881119,-0.38989258,-1.144104,0.3283081,-11.171875,17.4375,-15.078125
10,10,1727965881159,-0.39794922,-1.392395,-0.066467285,-8.46875,9.921875,-4.390625
11,11,1727965881199,-0.24267578,-1.6777954,0.2243042,25.890625,0.484375,4.59375
12,12,1727965881239,-0.22558594,-0.8648071,0.0006713867,-21.390625,33.28125,0.375
13,13,1727965881279,-0.2915039,-0.46099854,-0.23052979,-12.15625,18.640625,0.078125
14,14,1727965881319,-0.31323242,-0.58599854,-0.10089111,28.15625,5.625,-6.78125
15,15,1727965881359,-0.38842773,-0.90289307,0.18182373,3.671875,-3.90625,-5.140625
16,16,1727965881399,-0.3383789,-1.0669556,0.26434326,-11.390625,5.6875,3.4375
17,17,1727965881439,-0.111083984,-0.6272583,0.14935303,-5.046875,19.984375,12.90625
18,18,1727965881479,-0.12060547,-0.40289307,-0.043029785,-1.9375,7.09375,11.5625
19,19,1727965881519,-0.18188477,-0.44854736,-0.06939697,9.546875,7.328125,5.421875
20,20,1727965881559,-0.33032227,-0.8027954,0.010192871,22.015625,-3.921875,-2.8125
21,21,1727965881599,-0.5996094,-1.3086548,0.15911865,12.234375,-9.421875,-2.171875
22,22,1727965881639,-0.54052734,-1.4141235,0.2189331,1.40625,11.96875,5.375
23,23,1727965881679,-0.4428711,-1.3162231,-0.014709473,-15.921875,13.640625,-9.25
24,24,1727965881719,-0.4794922,-1.3626099,-0.089660645,-21.453125,-3.140625,-11.8125
25,25,1727965881759,-0.08081055,-1.7078247,0.24334717,3.71875,1.34375,-1.25
26,26,1727965881799,0.21459961,-0.9246216,0.18621826,-15.78125,-2.546875,-0.453125
27,27,1727965881839,0.22973633,-0.67510986,0.15374756,-5.15625,3.125,5.890625
28,28,1727965881879,-0.039794922,-0.84820557,0.040222168,-2.234375,-14.859375,5.375
29,29,1727965881919,-0.6203613,-0.91607666,0.21429443,-10.6875,-17.328125,-1.578125
30,30,1727965881959,-0.60009766,-0.87701416,0.2255249,-11.203125,-11.03125,-3.34375
31,31,1727965881999,-0.12060547,-0.5811157,0.1630249,-13.46875,22.921875,0.375
32,32,1727965882039,0.064453125,-0.4758911,0.034606934,-5.4375,0.609375,-4.4375
33,33,1727965882079,0.028564453,-0.42681885,0.11175537,6.109375,2.390625,-1.71875
34,34,1727965882119,-0.107421875,-0.59942627,0.23162842,5.5625,-5.1875,2.5625
35,35,1727965882159,-0.28637695,-0.9614868,0.35882568,3.25,-23.3125,6.859375
36,36,1727965882199,-0.4038086,-1.5371704,0.39276123,19.65625,-23.390625,7.015625
37,37,1727965882239,-0.5163574,-1.8574829,0.3751831,10.96875,-6.46875,0.3125
38,38,1727965882279,-0.47045898,-1.1370239,0.23626709,-6.8125,10.265625,-9.84375
39,39,1727965882319,-0.4074707,-1.5628052,0.07952881,-0.34375,-3.4375,3.421875
40,40,1727965882359,-0.22973633,-1.6087036,0.24969482,11.0,6.328125,-0.84375
41,41,1727965882399,-0.1875,-0.6030884,-0.047668457,-26.328125,42.15625,-3.375
42,42,1727965882439,-0.26367188,-0.41729736,-0.16290283,-6.140625,13.765625,-4.84375
43,43,1727965882479,-0.27685547,-0.55059814,-0.058654785,22.46875,-1.875,-12.703125
44,44,1727965882519,-0.4008789,-0.88604736,0.18939209,2.984375,-2.734375,-9.3125
45,45,1727965882559,-0.36743164,-1.2341919,0.32073975,-9.890625,1.6875,8.453125
46,46,1727965882599,-0.08569336,-0.68414307,0.16790771,-5.5625,10.34375,11.9375
47,47,1727965882639,-0.17871094,-0.3711548,0.013122559,-1.46875,0.65625,6.484375
48,48,1727965882679,-0.30419922,-0.42755127,0.0072631836,12.546875,7.6875,-1.703125
49,49,1727965882719,-0.38378906,-0.6729126,0.105651855,11.546875,2.875,-1.984375
50,50,1727965882759,-0.60009766,-1.1519165,0.21160889,10.484375,-10.4375,2.0625
51,51,1727965882799,-0.5300293,-1.5217896,0.21942139,3.078125,7.078125,10.109375
52,52,1727965882839,-0.38452148,-1.3320923,0.15008545,-7.890625,11.515625,-5.328125
53,53,1727965882879,-0.44213867,-1.3098755,-0.07330322,-33.578125,2.34375,-11.1875
54,54,1727965882919,-0.5234375,-1.3953247,0.19818115,-14.75,3.390625,-2.921875
55,55,1727965882959,0.07495117,-1.3093872,0.33538818,6.625,0.0625,-6.703125
56,56,1727965882999,0.1340332,-0.68951416,0.18206787,-17.8125,4.96875,-2.203125
57,57,1727965883039,0.10620117,-0.85040283,0.04901123,-8.3125,2.953125,8.625
58,58,1727965883079,-0.28125,-0.7178345,0.109558105,-1.21875,-16.5625,9.171875
59,59,1727965883119,-0.5683594,-0.9771118,0.34979248,2.578125,-6.75,3.984375
60,60,1727965883159,-0.48120117,-0.76690674,0.3036499,-15.265625,1.5625,-3.71875
61,61,1727965883199,-0.15405273,-0.54351807,0.23724365,-16.65625,17.828125,-3.0625
62,62,1727965883239,0.029296875,-0.46783447,0.12982178,-3.0,5.390625,-2.25
63,63,1727965883279,0.024902344,-0.49664307,0.11077881,1.609375,-3.421875,-0.75
64,64,1727965883319,-0.15307617,-0.65093994,0.34197998,1.84375,-11.890625,5.375
65,65,1727965883359,-0.3088379,-1.1311646,0.49627686,24.109375,-20.078125,8.40625
66,66,1727965883399,-0.5109863,-1.7642212,0.41497803,20.328125,-22.3125,4.59375
67,67,1727965883439,-0.5605469,-1.4021606,0.4557495,11.671875,-0.203125,-2.53125
68,68,1727965883479,-0.4033203,-1.0691528,0.18890381,0.796875,6.1875,-1.90625
69,69,1727965883519,-0.18847656,-1.6472778,0.11029053,7.375,-6.515625,8.90625
70,70,1727965883559,-0.26586914,-1.4265747,0.21282959,15.890625,14.578125,-3.28125
71,71,1727965883599,-0.2824707,-0.5779419,-0.08721924,-15.75,36.03125,-2.203125
72,72,1727965883639,-0.30444336,-0.52667236,-0.17144775,8.421875,14.890625,0.265625
73,73,1727965883679,-0.38012695,-0.68463135,-0.015197754,15.34375,3.015625,-8.921875
74,74,1727965883719,-0.34423828,-0.9151001,0.22869873,2.046875,-8.640625,-10.875
75,75,1727965883759,-0.27172852,-0.90093994,0.25115967,0.828125,2.359375,8.375
76,76,1727965883799,-0.09350586,-0.47125244,0.10296631,4.890625,10.53125,18.65625
77,77,1727965883839,-0.12597656,-0.3887329,-0.03692627,7.25,8.59375,11.90625
78,78,1727965883879,-0.296875,-0.5588989,-0.03643799,13.75,7.140625,2.921875
79,79,1727965883919,-0.4638672,-0.9805298,0.006286621,16.546875,-8.484375,-2.09375
80,80,1727965883959,-0.62280273,-1.4434204,0.20599365,12.03125,-9.84375,7.703125
81,81,1727965883999,-0.47973633,-1.2698364,0.18304443,6.546875,16.40625,2.625
82,82,1727965884039,-0.4440918,-1.2852173,-0.10772705,-17.171875,12.9375,-10.125
83,83,1727965884079,-0.5605469,-1.2647095,-0.07891846,-21.546875,3.0,-6.078125
84,84,1727965884119,-0.044921875,-1.6531372,0.23822021,-1.03125,-7.03125,-2.875
85,85,1727965884159,0.12841797,-1.1101685,0.23846436,-4.359375,5.25,-9.015625
86,86,1727965884199,0.103759766,-0.7468872,0.06829834,-13.609375,21.71875,0.578125
87,87,1727965884239,-0.027832031,-0.86602783,0.014831543,-3.296875,-6.828125,7.28125
88,88,1727965884279,-0.36401367,-0.97857666,0.19598389,3.375,-16.484375,5.46875
89,89,1727965884319,-0.75512695,-1.286438,0.04949951,-12.296875,25.84375,-0.09375
90,90,1727965884359,-0.24291992,-1.647522,-0.04156494,-6.015625,0.859375,-3.4375
91,91,1727965884399,0.21289062,-1.1416626,0.10662842,2.46875,9.328125,-10.609375
92,92,1727965884439,0.20141602,-0.74591064,-0.0032348633,-4.640625,15.34375,-7.359375
93,93,1727965884479,-0.16137695,-0.767395,0.06903076,1.546875,13.328125,2.390625
94,94,1727965884519,-0.52734375,-0.9612427,0.17840576,4.078125,-1.671875,5.140625
95,95,1727965884559,-0.5144043,-0.95758057,0.27850342,-11.078125,10.9375,-1.9375
96,96,1727965884599,-0.18676758,-0.7012329,0.13690186,-13.265625,26.15625,-10.078125
97,97,1727965884639,-0.055419922,-0.58599854,0.006286621,-6.703125,21.828125,-6.625
98,98,1727965884679,-0.0007324219,-0.51031494,0.090026855,4.171875,14.421875,0.90625
99,99,1727965884719,-0.067871094,-0.67926025,0.2489624,8.65625,-2.203125,2.3125
100,100,1727965884759,-0.18457031,-0.77667236,0.33099365,1.078125,-3.4375,6.390625
101,101,1727965884799,-0.3942871,-0.96221924,0.2819214,17.8125,-1.75,6.90625
102,102,1727965884839,-0.5473633,-1.3067017,0.2994995,15.34375,1.546875,-3.984375
103,103,1727965884879,-0.4074707,-1.3411255,0.35980225,7.390625,0.109375,-12.828125
104,104,1727965884919,-0.2836914,-1.4595337,0.24700928,0.484375,-0.265625,-6.765625
105,105,1727965884959,-0.42236328,-1.5859985,0.14251709,4.78125,11.5625,8.8125
106,106,1727965884999,-0.3881836,-1.2991333,0.09661865,-5.625,31.515625,-6.03125
107,107,1727965885039,-0.24511719,-0.7564087,-0.023986816,-9.609375,21.546875,-9.640625
108,108,1727965885079,-0.068115234,-0.5779419,-0.120910645,12.09375,1.546875,3.953125
109,109,1727965885119,-0.2705078,-0.8887329,-0.02935791,18.484375,5.671875,9.90625
110,110,1727965885159,-0.39379883,-1.0039673,0.14251709,1.859375,10.5625,2.703125
111,111,1727965885199,-0.40600586,-0.8189087,0.23822021,-0.625,-1.109375,1.984375
112,112,1727965885239,-0.24926758,-0.47686768,0.15008545,1.90625,9.90625,8.984375
113,113,1727965885279,-0.18847656,-0.43585205,0.024353027,9.1875,20.59375,5.765625
114,114,1727965885319,-0.15014648,-0.58258057,0.0040893555,12.265625,12.4375,2.265625
115,115,1727965885359,-0.22290039,-0.8010864,0.0045776367,15.390625,-2.65625,1.296875
116,116,1727965885399,-0.4428711,-1.0916138,0.09490967,15.796875,-8.84375,3.796875
117,117,1727965885439,-0.44091797,-1.3067017,0.21160889,10.15625,-1.1875,5.453125
118,118,1727965885479,-0.5119629,-1.43927,0.113464355,-8.015625,5.953125,-6.46875
119,119,1727965885519,-0.55737305,-1.2957153,-0.062072754,-28.734375,6.40625,-8.125
120,120,1727965885559,-0.4248047,-1.435852,0.105895996,-20.96875,4.796875,-3.234375
121,121,1727965885599,0.0087890625,-1.4663696,0.24481201,-2.1875,-0.421875,-8.71875
122,122,1727965885639,0.06225586,-0.9402466,0.11541748,-11.09375,6.390625,-9.328125
123,123,1727965885679,0.19799805,-0.7564087,0.004333496,-16.09375,8.65625,0.0
124,124,1727965885719,-0.08300781,-0.8792114,0.09686279,-0.15625,-21.5,1.65625
125,125,1727965885759,-0.44580078,-0.9360962,0.3007202,-8.953125,-8.71875,2.828125
126,126,1727965885799,-0.49780273,-0.80352783,0.24798584,-16.546875,0.75,11.609375
127,127,1727965885839,-0.16088867,-0.50177,0.21185303,-19.109375,21.75,8.03125
128,128,1727965885879,-0.013183594,-0.32281494,0.04534912,5.0,-8.359375,-4.71875
129,129,1727965885919,0.01953125,-0.40338135,0.08734131,-11.625,5.515625,-6.3125
130,130,1727965885959,-0.06958008,-0.58599854,0.32244873,-18.15625,-2.765625,3.96875
131,131,1727965885999,-0.24169922,-0.94659424,0.5180054,15.359375,-24.046875,10.671875
132,132,1727965886039,-0.43164062,-1.5562134,0.44769287,46.125,-30.359375,7.671875
133,133,1727965886079,-0.49853516,-1.5715942,0.43060303,28.125,-8.25,-6.53125
134,134,1727965886119,-0.37719727,-1.2871704,0.12689209,-7.46875,-6.21875,-16.453125
135,135,1727965886159,-0.47558594,-1.6521606,0.22235107,5.515625,-4.046875,8.21875
136,136,1727965886199,-0.2783203,-1.4817505,0.22943115,24.6875,4.21875,8.140625
137,137,1727965886239,-0.1862793,-0.8538208,-0.05255127,-23.078125,37.671875,-13.8125
138,138,1727965886279,-0.140625,-0.43145752,-0.21343994,-10.453125,18.8125,-8.65625
139,139,1727965886319,-0.31640625,-0.6663208,-0.14630127,22.0625,0.53125,2.046875
140,140,1727965886359,-0.31518555,-1.0513306,0.09246826,8.921875,-5.640625,8.3125
141,141,1727965886399,-0.2993164,-1.1621704,0.26776123,-1.5625,-15.625,10.765625
142,142,1727965886439,-0.11621094,-0.70513916,0.137146,-1.078125,-5.984375,12.0625
143,143,1727965886479,-0.23535156,-0.46221924,0.02557373,0.328125,3.78125,8.328125
144,144,1727965886519,-0.3293457,-0.4055786,0.01361084,2.8125,17.8125,-2.78125
145,145,1727965886559,-0.33618164,-0.56256104,0.026794434,10.28125,6.34375,-6.890625
146,146,1727965886599,-0.3190918,-0.8093872,-0.014465332,18.890625,-6.359375,0.09375
147,147,1727965886639,-0.3491211,-1.1204224,0.03338623,24.3125,-2.8125,8.4375
148,148,1727965886679,-0.39257812,-1.5422974,0.22747803,5.859375,6.953125,-1.5
149,149,1727965886719,-0.44580078,-1.4863892,0.10394287,-16.9375,1.359375,-7.65625
150,150,1727965886759,-0.4465332,-1.2876587,-0.085754395,-19.796875,6.40625,-1.28125
151,151,1727965886799,-0.47021484,-1.3179321,-0.003967285,-18.0625,-0.421875,-0.6875
152,152,1727965886839,-0.079833984,-1.4263306,0.12957764,-0.90625,-5.828125,-8.03125
153,153,1727965886879,0.14453125,-1.0090942,0.109558105,-10.828125,9.171875,-7.6875
154,154,1727965886919,0.20166016,-0.6682739,0.00579834,-15.546875,-0.109375,1.84375
155,155,1727965886959,-0.111572266,-0.7871704,0.050231934,-0.734375,-28.671875,3.0
156,156,1727965886999,-0.55688477,-0.9212036,0.28460693,1.25,-6.15625,0.546875
157,157,1727965887039,-0.5317383,-0.9456177,0.21331787,-9.875,-8.515625,4.921875
158,158,1727965887079,-0.16333008,-0.5835571,0.14569092,-25.71875,17.4375,-2.390625
159,159,1727965887119,0.0031738281,-0.37286377,0.016540527,-3.9375,0.03125,-7.953125
160,160,1727965887159,0.056152344,-0.39434814,0.05340576,-6.3125,5.859375,-2.359375
161,161,1727965887199,-0.040527344,-0.5772095,0.2321167,1.015625,-5.796875,6.40625
162,162,1727965887239,-0.28881836,-0.97906494,0.40472412,10.421875,-23.953125,9.109375
163,163,1727965887279,-0.5119629,-1.7061157,0.37908936,18.140625,-29.875,4.65625
164,164,1727965887319,-0.58032227,-1.6934204,0.447937,21.734375,-1.546875,-1.515625
165,165,1727965887359,-0.38330078,-1.1043091,0.1408081,-5.921875,14.5625,-8.65625
166,166,1727965887399,-0.2836914,-1.3032837,-0.0037231445,-11.234375,3.6875,4.40625
167,167,1727965887439,-0.11694336,-1.5361938,0.14935303,13.3125,2.03125,3.21875
168,168,1727965887479,-0.16699219,-0.95196533,0.0099487305,-7.484375,23.34375,-3.53125
169,169,1727965887519,-0.26879883,-0.5459595,-0.15533447,-2.046875,13.359375,-0.5
170,170,1727965887559,-0.48339844,-0.77349854,-0.08843994,20.171875,13.578125,-4.640625
171,171,1727965887599,-0.44873047,-0.928772,0.09442139,1.546875,0.09375,-4.921875
172,172,1727965887639,-0.296875,-0.91607666,0.22381592,-4.484375,-1.859375,5.0
173,173,1727965887679,-0.048828125,-0.64556885,0.09954834,6.03125,12.40625,12.4375
174,174,1727965887719,-0.16088867,-0.4932251,-0.0115356445,5.0625,15.78125,9.21875
175,175,1727965887759,-0.28393555,-0.50079346,-0.041809082,7.71875,15.25,-1.296875
176,176,1727965887799,-0.37060547,-0.72369385,0.053894043,8.0625,-0.078125,-4.09375
177,177,1727965887839,-0.4177246,-0.93707275,0.08880615,12.140625,-2.984375,0.671875
178,178,1727965887879,-0.39624023,-1.1992798,0.113220215,20.265625,1.875,8.734375
179,179,1727965887919,-0.3918457,-1.3052368,0.18548584,0.8125,9.375,0.359375
180,180,1727965887959,-0.43701172,-1.317688,-0.023986816,-18.875,7.5625,-8.65625
181,181,1727965887999,-0.5476074,-1.3030396,-0.1560669,-24.234375,6.515625,-1.828125
182,182,1727965888039,-0.31420898,-1.5122681,0.12738037,-11.078125,-7.609375,3.078125
183,183,1727965888079,0.072509766,-1.440979,0.2526245,-0.265625,-6.234375,-12.453125
184,184,1727965888119,0.088134766,-0.8184204,0.11151123,-15.84375,10.28125,-3.015625
185,185,1727965888159,0.15820312,-0.87579346,-0.03692627,-16.28125,4.75,9.90625
186,186,1727965888199,-0.22045898,-0.81866455,0.0836792,-3.765625,-27.875,7.015625
187,187,1727965888239,-0.5839844,-0.8257446,0.31292725,-7.3125,2.859375,3.21875
188,188,1727965888279,-0.46875,-0.7490845,0.25897217,-14.765625,15.6875,0.609375
189,189,1727965888319,-0.08520508,-0.47979736,0.16937256,-23.09375,22.609375,0.625
190,190,1727965888359,0.07055664,-0.41656494,0.06048584,-1.40625,1.375,-8.234375
191,191,1727965888399,0.09277344,-0.49127197,0.14031982,-7.6875,7.5625,-3.125
192,192,1727965888439,-0.09863281,-0.7107544,0.3192749,-11.5,-4.6875,7.484375
193,193,1727965888479,-0.28222656,-1.1135864,0.510437,11.671875,-22.984375,13.421875
194,194,1727965888519,-0.5332031,-1.6521606,0.47210693,35.703125,-19.40625,2.59375
195,195,1727965888559,-0.45288086,-1.3220825,0.4039917,29.328125,1.03125,-11.21875
196,196,1727965888599,-0.30419922,-1.1658325,0.15252686,-0.421875,2.328125,-14.703125
197,197,1727965888639,-0.17797852,-1.6585083,0.038513184,6.96875,-8.84375,6.6875
198,198,1727965888679,-0.22924805,-1.4307251,0.13372803,17.0,18.546875,7.6875
199,199,1727965888719,-0.2697754,-0.6643677,-0.07330322,-20.65625,26.75,-9.953125
200,200,1727965888759,-0.32250977,-0.6038208,-0.14874268,3.8125,5.109375,-13.109375
201,201,1727965888799,-0.4248047,-0.7732544,-0.026672363,12.734375,9.734375,-9.71875
202,202,1727965888839,-0.3828125,-0.9680786,0.19500732,4.8125,-11.671875,-0.609375
203,203,1727965888879,-0.24169922,-0.94317627,0.246521,0.15625,-3.234375,12.953125
204,204,1727965888919,-0.17919922,-0.67388916,0.07757568,3.953125,10.171875,9.203125
205,205,1727965888959,-0.30639648,-0.5811157,-0.047912598,5.046875,14.59375,-4.75
206,206,1727965888999,-0.36401367,-0.5803833,-0.0068969727,-0.15625,12.578125,-9.484375
207,207,1727965889039,-0.4074707,-0.71539307,0.09442139,3.859375,-0.125,-0.5
208,208,1727965889079,-0.34033203,-0.8772583,0.08782959,15.0,5.03125,8.1875
209,209,1727965889119,-0.23828125,-0.9065552,0.04095459,11.0,13.890625,11.65625
210,210,1727965889159,-0.171875,-0.87994385,0.1984253,1.515625,-2.59375,-10.921875
211,211,1727965889199,-0.35595703,-0.861145,0.19329834,-22.859375,32.21875,2.296875
212,212,1727965889239,-0.37182617,-0.7888794,0.3842163,-22.921875,21.59375,3.6875
213,213,1727965889279,-0.22998047,-0.66973877,0.46258545,6.5625,-3.03125,-8.015625
214,214,1727965889319,-0.15039062,-0.7107544,0.3685913,21.421875,2.65625,-12.671875
215,215,1727965889359,-0.100097656,-0.8015747,0.35028076,9.84375,7.109375,-9.828125
216,216,1727965889399,-0.2915039,-1.0100708,0.36883545,10.46875,-2.671875,-8.5
217,217,1727965889439,-0.53344727,-1.5059204,0.3595581,27.40625,-13.5,-0.078125
218,218,1727965889479,-0.6196289,-2.0,0.42645264,0.21875,10.796875,14.40625
219,219,1727965889519,-0.34716797,-1.4717407,0.29241943,12.34375,4.0625,-12.9375
220,220,1727965889559,-0.30639648,-0.9939575,0.07244873,15.6875,21.46875,-19.203125
221,221,1727965889599,-0.14624023,-0.5894165,-0.039367676,17.109375,29.03125,-4.25
222,222,1727965889639,-0.15112305,-0.62164307,-0.112854004,9.40625,14.375,7.3125
223,223,1727965889679,-0.27124023,-0.8250122,-0.031555176,-9.359375,2.28125,0.90625
224,224,1727965889719,-0.41748047,-0.862854,0.20672607,8.1875,-6.625,-4.09375
225,225,1727965889759,-0.34277344,-0.94366455,0.20819092,10.15625,3.640625,5.609375
226,226,1727965889799,-0.16479492,-0.59625244,0.11590576,-0.171875,5.5625,10.953125
227,227,1727965889839,-0.18164062,-0.60943604,0.055847168,6.828125,15.9375,6.15625
228,228,1727965889879,-0.23022461,-0.7793579,-0.023254395,6.96875,-1.984375,0.140625
229,229,1727965889919,-0.26611328,-0.8699341,0.03753662,7.84375,-8.015625,-0.671875
230,230,1727965889959,-0.39086914,-0.86798096,0.16864014,13.671875,6.734375,5.609375
231,231,1727965889999,-0.44506836,-0.9299927,0.22698975,11.359375,11.484375,1.21875
232,232,1727965890039,-0.47387695,-1.1887817,0.12054443,1.59375,6.09375,-6.984375
233,233,1727965890079,-0.47045898,-1.3286743,-0.026184082,-4.890625,-7.546875,-1.9375
234,234,1727965890119,-0.47485352,-1.326477,0.04901123,-6.40625,11.203125,2.671875
235,235,1727965890159,-0.18652344,-1.4702759,0.09100342,-4.515625,-8.234375,2.125
236,236,1727965890199,0.06958008,-1.4209595,0.20477295,5.8125,-18.75,-9.703125
237,237,1727965890239,0.023925781,-0.829895,0.066589355,-11.703125,1.6875,-8.546875
238,238,1727965890279,0.0017089844,-0.6758423,0.07537842,-5.75,-1.34375,5.25
239,239,1727965890319,-0.19433594,-0.861145,0.17889404,2.90625,-16.703125,5.3125
240,240,1727965890359,-0.53759766,-1.079895,0.20697021,-8.296875,-17.671875,-1.28125
241,241,1727965890399,-0.43310547,-0.86676025,0.14520264,-23.0,-4.15625,-2.1875
242,242,1727965890439,-0.15209961,-0.5552368,0.11663818,-2.1875,16.96875,-7.75
243,243,1727965890479,-0.012207031,-0.5120239,0.06341553,4.359375,4.40625,-8.0625
244,244,1727965890519,0.016845703,-0.5745239,0.10614014,-5.4375,-0.28125,1.796875
245,245,1727965890559,-0.09399414,-0.7280884,0.27752686,6.40625,-15.140625,8.71875
246,246,1727965890599,-0.27514648,-0.95684814,0.35784912,14.109375,-17.5625,9.109375
247,247,1727965890639,-0.4375,-1.2439575,0.32391357,14.734375,-20.140625,5.3125
248,248,1727965890679,-0.42285156,-1.3335571,0.19818115,8.8125,-11.46875,-0.75
249,249,1727965890719,-0.4645996,-1.4121704,0.24481201,5.78125,-2.859375,-6.75
250,250,1727965890759,-0.46484375,-1.4592896,0.13812256,-2.265625,6.109375,3.828125
251,251,1727965890799,-0.2578125,-1.5088501,0.10418701,-1.65625,7.859375,6.875
252,252,1727965890839,-0.18896484,-1.1865845,0.05609131,-7.40625,15.15625,-7.328125
253,253,1727965890879,-0.25952148,-0.6760864,-0.08770752,-4.09375,17.140625,-6.609375
254,254,1727965890919,-0.24829102,-0.6248169,-0.21466064,13.875,8.5625,6.59375
255,255,1727965890959,-0.3659668,-0.89556885,-0.05718994,5.703125,5.59375,11.328125
256,256,1727965890999,-0.37353516,-1.0840454,0.16888428,8.421875,-14.71875,-2.828125
257,257,1727965891039,-0.26660156,-0.7149048,0.1774292,4.71875,-1.375,-0.828125
258,258,1727965891079,-0.2133789,-0.39898682,0.08026123,-6.875,7.8125,8.296875
259,259,1727965891119,-0.21704102,-0.284729,-0.010803223,-5.359375,22.0625,8.203125
260,260,1727965891159,-0.11376953,-0.5054321,-0.08843994,12.140625,14.046875,3.34375
261,261,1727965891199,-0.16430664,-0.9402466,-0.093566895,17.171875,-18.609375,0.109375
262,262,1727965891239,-0.27685547,-1.4981079,0.057800293,4.28125,-26.15625,6.9375
263,263,1727965891279,-0.47998047,-1.3530884,0.3168335,5.734375,0.796875,11.0625
264,264,1727965891319,-0.60253906,-1.0842896,0.3007202,-16.5,-1.53125,0.90625
265,265,1727965891359,-0.64208984,-1.0662231,0.051452637,-3.484375,5.78125,-8.96875
266,266,1727965891399,-0.80688477,-1.1602173,-0.14678955,-20.46875,20.921875,11.5
267,267,1727965891439,-0.19140625,-1.8154907,-0.008117676,-16.671875,-14.875,22.171875
268,268,1727965891479,0.25048828,-1.3511353,0.11883545,11.984375,-0.09375,-0.6875
269,269,1727965891519,0.13085938,-0.7385864,-0.037902832,-9.265625,1.6875,-20.8125
270,270,1727965891559,0.029296875,-0.75665283,0.059509277,-5.09375,12.234375,-10.28125
271,271,1727965891599,-0.26489258,-0.9199829,0.2164917,-13.5625,-2.0625,-4.15625
272,272,1727965891639,-0.55078125,-0.73809814,0.1942749,-20.078125,2.3125,-4.4375
273,273,1727965891679,-0.43188477,-0.57037354,0.06512451,-15.609375,24.390625,-11.609375
274,274,1727965891719,-0.04345703,-0.46343994,0.04510498,-9.453125,26.671875,-13.5625
275,275,1727965891759,0.095458984,-0.52716064,0.10760498,3.515625,6.03125,-11.3125
276,276,1727965891799,0.10083008,-0.7293091,0.15545654,2.125,-6.25,3.0625
277,277,1727965891839,-0.07543945,-0.9331665,0.28729248,-10.015625,-10.421875,17.203125
278,278,1727965891879,-0.2878418,-1.1033325,0.42181396,3.71875,-15.90625,14.671875
279,279,1727965891919,-0.5588379,-0.95880127,0.38275146,15.75,-9.390625,0.96875
280,280,1727965891959,-0.74731445,-0.85284424,0.40447998,11.765625,6.84375,-8.453125
281,281,1727965891999,-0.45776367,-0.8599243,0.2411499,1.09375,11.390625,14.890625
282,282,1727965892039,-0.7224121,-1.0964966,0.47576904,12.6875,4.625,-7.953125
283,283,1727965892079,-0.44750977,-0.9390259,0.33319092,-7.6875,14.421875,-11.96875
284,284,1727965892119,-0.21484375,-0.68707275,0.20184326,-5.5625,16.828125,-0.875
285,285,1727965892159,-0.23242188,-0.6309204,0.19500732,10.90625,14.15625,-0.78125
286,286,1727965892199,-0.28637695,-0.84161377,0.31903076,7.5625,11.53125,-3.359375
287,287,1727965892239,-0.453125,-1.2822876,0.38494873,16.625,-1.1875,-4.5625
288,288,1727965892279,-0.6257324,-1.5076294,0.33441162,14.875,10.234375,0.359375
289,289,1727965892319,-0.43139648,-1.7234497,0.05316162,-15.390625,12.296875,17.53125
290,290,1727965892359,-0.09277344,-1.2908325,0.14154053,-11.53125,3.984375,-6.796875
291,291,1727965892399,-0.34033203,-1.2092896,-0.0947876,11.375,8.71875,-17.46875
292,292,1727965892439,-0.56396484,-0.82598877,-0.28497314,0.5,6.109375,22.328125
293,293,1727965892479,-0.36938477,-0.8115845,-0.14385986,-6.109375,31.296875,31.03125
294,294,1727965892519,-0.2241211,-0.7288208,-0.016906738,-4.1875,-16.71875,-8.53125
295,295,1727965892559,-0.26660156,-0.7007446,0.10369873,23.78125,-29.03125,-21.265625
296,296,1727965892599,-0.21899414,-0.6543579,0.1593628,9.515625,19.421875,6.90625
297,297,1727965892639,-0.25195312,-0.6243286,0.098083496,-0.625,11.875,18.078125
298,298,1727965892679,-0.21826172,-0.65338135,0.101745605,-0.484375,-0.046875,11.328125
299,299,1727965892719,-0.11621094,-0.70758057,-0.032287598,5.0,-14.84375,13.796875
300,300,1727965892759,-0.2565918,-0.88067627,-0.13995361,12.265625,-24.703125,11.296875
301,301,1727965892799,-0.5900879,-1.1887817,0.117614746,19.21875,-9.34375,-2.59375
302,302,1727965892839,-0.74609375,-1.3787231,0.30877686,-1.5625,0.421875,-6.46875
303,303,1727965892879,-0.58862305,-1.1526489,0.046081543,-24.71875,19.5625,-7.546875
304,304,1727965892919,-0.42114258,-1.076477,-0.1572876,-20.421875,16.203125,-0.71875
305,305,1727965892959,0.0043945312,-1.8552856,0.08123779,-2.578125,-22.171875,0.734375
306,306,1727965892999,0.040527344,-1.3423462,0.19671631,-7.421875,-1.5625,-11.953125
307,307,1727965893039,0.15063477,-0.6699829,0.062927246,-33.0625,13.828125,-6.546875
308,308,1727965893079,0.12231445,-0.74835205,0.12713623,-15.53125,-5.578125,4.015625
309,309,1727965893119,-0.3017578,-0.7559204,0.11077881,3.953125,-34.359375,3.796875
310,310,1727965893159,-0.73046875,-0.9783325,0.277771,-13.765625,4.125,2.5
311,311,1727965893199,-0.4489746,-0.6902466,0.24066162,-15.5625,17.984375,-4.703125
312,312,1727965893239,-0.06225586,-0.45367432,0.14715576,-12.828125,17.5625,-9.015625
313,313,1727965893279,0.10913086,-0.39556885,0.11566162,-2.078125,1.921875,-2.8125
314,314,1727965893319,0.1303711,-0.58843994,0.19451904,9.875,-6.859375,8.3125
315,315,1727965893359,-0.10229492,-0.833313,0.322937,5.296875,-16.90625,17.234375
316,316,1727965893399,-0.41235352,-1.3147583,0.38983154,14.734375,-23.9375,10.359375
317,317,1727965893439,-0.61499023,-1.5610962,0.44525146,20.1875,-10.75,-0.46875
318,318,1727965893479,-0.47436523,-1.1651001,0.3866577,0.0625,6.0625,-4.8125
319,319,1727965893519,-0.24658203,-1.1148071,0.2374878,8.1875,-1.640625,-6.140625
320,320,1727965893559,-0.08178711,-1.9170532,0.26531982,2.84375,-6.53125,7.46875
321,321,1727965893599,-0.33666992,-1.409729,0.21258545,-1.078125,19.25,0.65625
322,322,1727965893639,-0.27514648,-0.442688,-0.07110596,-25.703125,27.84375,-7.5
323,323,1727965893679,-0.3720703,-0.4673462,-0.08282471,21.78125,8.75,-7.296875
324,324,1727965893719,-0.3918457,-0.78253174,0.039489746,20.828125,0.765625,-7.890625
325,325,1727965893759,-0.3479004,-1.0845337,0.2518921,-13.453125,-14.5,-2.765625
326,326,1727965893799,-0.15405273,-1.017395,0.21478271,-2.40625,-0.53125,12.6875
327,327,1727965893839,-0.043945312,-0.4776001,0.06951904,10.734375,4.390625,20.0
328,328,1727965893879,-0.16821289,-0.45513916,-0.03643799,14.609375,-5.046875,9.09375
329,329,1727965893919,-0.33666992,-0.5005493,-0.012756348,4.15625,0.28125,-2.4375
330,330,1727965893959,-0.3737793,-0.7539673,0.013122559,17.859375,-7.0625,-1.796875
331,331,1727965893999,-0.41479492,-1.0286255,0.06512451,27.5625,-9.609375,9.359375
332,332,1727965894039,-0.41137695,-1.427063,0.17352295,12.890625,6.203125,7.09375
333,333,1727965894079,-0.37402344,-1.4961548,0.19622803,0.515625,6.671875,-3.5
334,334,1727965894119,-0.44580078,-1.2332153,-0.078186035,-20.796875,2.875,-1.171875
335,335,1727965894159,-0.56689453,-1.3259888,-0.0020141602,-13.21875,-5.546875,-4.8125
336,336,1727965894199,-0.15795898,-1.4734497,0.1630249,-0.28125,-12.84375,-4.390625
337,337,1727965894239,0.036132812,-1.1516724,0.109802246,-5.78125,2.78125,-3.75
338,338,1727965894279,0.16113281,-0.67193604,0.020935059,-16.0,8.953125,1.375
339,339,1727965894319,0.15600586,-0.7764282,0.054138184,-3.546875,-10.0625,2.1875
340,340,1727965894359,-0.29663086,-0.8870239,0.16937256,-9.6875,-22.703125,-7.890625
341,341,1727965894399,-0.70996094,-1.0388794,0.24383545,-20.671875,-3.296875,-4.390625
342,342,1727965894439,-0.37768555,-0.69732666,0.22064209,-12.75,18.90625,0.734375
343,343,1727965894479,-0.032958984,-0.4175415,0.053894043,0.796875,-0.34375,-2.046875
344,344,1727965894519,0.03173828,-0.38067627,-0.00592041,0.3125,-9.046875,-4.5
345,345,1727965894559,0.0234375,-0.5413208,0.14056396,4.90625,-5.203125,4.84375
346,346,1727965894599,-0.18774414,-0.83013916,0.32537842,13.15625,-13.484375,10.484375
347,347,1727965894639,-0.4494629,-1.4922485,0.30975342,26.015625,-28.5,7.484375
348,348,1727965894679,-0.5493164,-1.6802368,0.3300171,17.890625,-8.671875,3.4375
349,349,1727965894719,-0.4020996,-1.2058716,0.1161499,-6.625,19.21875,-11.921875
350,350,1727965894759,-0.32470703,-1.4016724,0.07318115,-11.265625,3.40625,-5.875
351,351,1727965894799,-0.17407227,-1.6365356,0.18206787,18.625,-2.78125,11.5625
352,352,1727965894839,-0.19067383,-1.1262817,0.086120605,-16.703125,25.15625,1.578125
353,353,1727965894879,-0.296875,-0.4446411,-0.17120361,-18.046875,22.9375,-1.015625
354,354,1727965894919,-0.48168945,-0.59698486,-0.16143799,24.109375,19.734375,-6.015625
355,355,1727965894959,-0.30810547,-0.8386841,0.004333496,17.203125,-0.390625,-7.59375
356,356,1727965894999,-0.25634766,-1.0925903,0.21087646,-3.59375,-10.1875,-3.703125
357,357,1727965895039,-0.048828125,-0.8357544,0.1359253,-3.859375,12.78125,7.84375
358,358,1727965895079,-0.17675781,-0.4607544,-0.020324707,1.09375,11.03125,13.78125
359,359,1727965895119,-0.34228516,-0.44488525,-0.03692627,12.515625,14.296875,2.515625
360,360,1727965895159,-0.4033203,-0.5984497,-0.04058838,14.140625,6.9375,-6.90625
361,361,1727965895199,-0.43896484,-0.97076416,0.008972168,11.765625,-7.296875,-4.359375
362,362,1727965895239,-0.38183594,-1.366272,0.07928467,13.765625,-4.34375,5.84375
363,363,1727965895279,-0.32128906,-1.4551392,0.21429443,-2.78125,9.78125,5.140625
364,364,1727965895319,-0.3486328,-1.2207642,-0.10211182,-28.640625,-1.390625,1.5
365,365,1727965895359,-0.58154297,-1.3220825,-0.09259033,-23.390625,-8.515625,0.53125
366,366,1727965895399,-0.083496094,-1.6004028,0.19866943,-9.453125,-8.234375,1.765625
367,367,1727965895439,-0.04663086,-1.1104126,0.20794678,-13.265625,7.546875,-9.71875
368,368,1727965895479,0.19335938,-0.8237915,0.045837402,-14.71875,15.234375,-1.625
369,369,1727965895519,0.043945312,-0.881897,0.032165527,-6.015625,-14.453125,8.421875
370,370,1727965895559,-0.23144531,-0.85601807,0.18963623,-2.921875,-22.640625,8.6875
371,371,1727965895599,-0.43920898,-0.90338135,0.18353271,-13.90625,-9.515625,-0.609375
372,372,1727965895639,-0.3618164,-0.7136841,0.23529053,-17.609375,27.46875,-3.40625
373,373,1727965895679,-0.1459961,-0.42364502,0.13153076,4.609375,-1.328125,-1.53125
374,374,1727965895719,-0.021240234,-0.46148682,0.08416748,-5.109375,1.71875,2.015625
375,375,1727965895759,-0.0012207031,-0.6174927,0.16473389,-14.140625,10.1875,1.203125
376,376,1727965895799,-0.09350586,-0.79400635,0.3283081,-6.734375,1.953125,0.375
377,377,1727965895839,-0.21875,-0.97979736,0.40472412,19.578125,-15.671875,0.4375
378,378,1727965895879,-0.27124023,-1.1216431,0.34661865,16.734375,-12.375,-1.015625
379,379,1727965895919,-0.32543945,-1.1812134,0.2975464,5.28125,-9.234375,-7.703125
380,380,1727965895959,-0.47802734,-1.321106,0.3139038,20.296875,-10.140625,-5.859375
381,381,1727965895999,-0.41357422,-1.8748169,0.23724365,12.515625,-11.234375,7.609375
382,382,1727965896039,-0.20385742,-1.7036743,0.24139404,-5.140625,6.25,1.15625
383,383,1727965896079,-0.21875,-0.89385986,0.05657959,-20.671875,30.625,-5.9375
384,384,1727965896119,-0.2006836,-0.4307251,-0.06573486,-1.59375,13.234375,-4.265625
385,385,1727965896159,-0.41088867,-0.534729,-0.12750244,40.125,2.046875,-1.65625
386,386,1727965896199,-0.47973633,-0.97369385,0.049987793,18.28125,5.90625,-6.90625
387,387,1727965896239,-0.3881836,-1.1851196,0.23358154,-3.984375,-1.734375,-6.015625
388,388,1727965896279,-0.05810547,-0.8569946,0.105895996,1.921875,9.53125,10.25
389,389,1727965896319,-0.037109375,-0.43414307,-0.047668457,3.28125,10.21875,15.09375
390,390,1727965896359,-0.23510742,-0.5105591,-0.051574707,8.265625,6.546875,3.59375
391,391,1727965896399,-0.4296875,-0.6956177,0.029724121,8.640625,4.453125,-8.71875
392,392,1727965896439,-0.47192383,-0.8965454,0.06536865,7.875,-2.640625,-4.9375
393,393,1727965896479,-0.38989258,-0.9871216,0.11834717,17.109375,1.515625,7.125
394,394,1727965896519,-0.29711914,-1.1587524,0.1437378,10.0,11.5,6.734375
395,395,1727965896559,-0.32348633,-1.33844,0.06463623,-12.90625,2.921875,-0.609375
396,396,1727965896599,-0.58374023,-1.3403931,-0.043518066,-24.078125,0.59375,-2.984375
397,397,1727965896639,-0.7175293,-1.4041138,0.013122559,-21.25,3.671875,0.375
398,398,1727965896679,0.07397461,-1.5491333,0.21966553,-21.625,-10.421875,-0.828125
399,399,1727965896719,0.19897461,-1.0881958,0.19134521,-2.453125,11.609375,-7.140625
400,400,1727965896759,0.25268555,-0.7710571,-0.015197754,-11.765625,6.90625,6.640625
401,401,1727965896799,0.016357422,-0.7522583,-0.03302002,-11.40625,-22.125,6.375
402,402,1727965896839,-0.38134766,-0.8230591,0.18304443,-9.125,-20.34375,-4.046875
403,403,1727965896879,-0.6855469,-0.9446411,0.18743896,-10.140625,-14.515625,-7.578125
404,404,1727965896919,-0.28759766,-0.66119385,0.29779053,-15.984375,25.671875,5.21875
405,405,1727965896959,0.007080078,-0.442688,0.14935303,6.84375,6.0625,7.875
406,406,1727965896999,0.057373047,-0.44171143,0.04901123,10.671875,-12.59375,2.921875
407,407,1727965897039,-0.025390625,-0.62579346,0.14447021,-10.359375,-8.609375,3.140625
408,408,1727965897079,-0.16772461,-0.8711548,0.37469482,-9.25,-9.1875,5.390625
409,409,1727965897119,-0.38745117,-1.2976685,0.42059326,31.203125,-22.53125,4.140625
410,410,1727965897159,-0.46972656,-1.1887817,0.2892456,29.203125,-13.859375,5.640625
411,411,1727965897199,-0.43115234,-1.2212524,0.23602295,23.640625,-0.96875,-0.328125
412,412,1727965897239,-0.31567383,-1.2654419,0.22723389,5.71875,2.703125,-10.140625
413,413,1727965897279,-0.50341797,-1.9102173,0.086120605,-4.734375,0.984375,-0.40625
414,414,1727965897319,-0.20727539,-1.6260376,0.18157959,19.21875,12.671875,5.53125
415,415,1727965897359,-0.29711914,-0.5906372,0.11029053,0.0,21.546875,10.90625
416,416,1727965897399,-0.17138672,-0.4475708,0.006286621,4.15625,18.9375,11.40625
417,417,1727965897439,-0.103759766,-0.59161377,-0.02154541,1.5625,6.328125,4.421875
418,418,1727965897479,-0.14575195,-0.8196411,-0.04815674,5.53125,-4.1875,3.453125
419,419,1727965897519,-0.4086914,-1.1255493,-0.011047363,16.125,-4.75,-0.65625
420,420,1727965897559,-0.5192871,-1.2632446,0.21722412,14.875,7.265625,1.765625
421,421,1727965897599,-0.4338379,-1.2539673,0.0836792,-8.421875,8.609375,-8.390625
422,422,1727965897639,-0.5083008,-1.2258911,-0.051330566,-23.203125,7.1875,-6.96875
423,423,1727965897679,-0.45092773,-1.3535767,-0.020568848,-13.609375,11.671875,2.46875
424,424,1727965897719,-0.14697266,-1.5269165,0.09490967,-7.765625,-2.59375,7.46875
425,425,1727965897759,-0.024414062,-1.2698364,0.105163574,-3.140625,5.9375,-12.46875
426,426,1727965897799,0.13989258,-0.67388916,0.042419434,-16.984375,20.421875,-9.59375
427,427,1727965897839,0.24243164,-0.8206177,0.117370605,1.15625,-12.96875,2.875
428,428,1727965897879,-0.22583008,-0.80596924,0.20111084,-4.109375,-20.546875,-1.328125
429,429,1727965897919,-0.6906738,-0.9661255,0.1852417,-15.203125,2.21875,-5.40625
430,430,1727965897959,-0.54467773,-0.79034424,0.20770264,-7.96875,12.140625,-0.34375
431,431,1727965897999,-0.024658203,-0.54644775,0.15325928,-16.734375,20.828125,-1.515625
432,432,1727965898039,0.12158203,-0.5195923,0.07659912,-8.546875,0.53125,-9.625
433,433,1727965898079,0.080078125,-0.5977173,0.120788574,-1.78125,-8.234375,3.4375
434,434,1727965898119,-0.12060547,-0.69903564,0.31292725,-4.53125,-6.546875,14.671875
435,435,1727965898159,-0.32128906,-0.90338135,0.39837646,14.234375,-15.71875,4.96875
436,436,1727965898199,-0.5136719,-1.2583618,0.41082764,20.296875,-19.140625,-7.25
437,437,1727965898239,-0.42993164,-1.5071411,0.35980225,-2.015625,-6.6875,-1.5
438,438,1727965898279,-0.20019531,-1.4529419,0.2374878,9.890625,-6.859375,0.765625
439,439,1727965898319,-0.38427734,-1.6328735,0.24603271,8.03125,-3.4375,6.8125
440,440,1727965898359,-0.34399414,-1.4238892,0.17034912,-7.640625,7.140625,5.734375
441,441,1727965898399,-0.2668457,-0.95269775,0.058288574,-21.40625,19.3125,-10.90625
442,442,1727965898439,-0.10961914,-0.6087036,-0.038391113,7.046875,1.15625,-12.34375
443,443,1727965898479,-0.26098633,-0.6511841,-0.06011963,27.40625,1.234375,3.578125
444,444,1727965898519,-0.36938477,-0.8796997,0.055114746,-4.234375,18.25,5.828125
445,445,1727965898559,-0.4362793,-0.9302368,0.2111206,-9.828125,0.09375,-1.890625
446,446,1727965898599,-0.29125977,-0.725647,0.17938232,-0.1875,-6.203125,-0.9375
447,447,1727965898639,-0.114746094,-0.47149658,0.05340576,9.59375,-2.765625,14.21875
448,448,1727965898679,-0.09863281,-0.5108032,0.027526855,10.28125,4.25,12.15625
449,449,1727965898719,-0.21533203,-0.678772,0.043395996,4.078125,10.6875,2.578125
450,450,1727965898759,-0.36889648,-0.89312744,0.00579834,19.140625,-0.53125,-4.15625
451,451,1727965898799,-0.53027344,-1.0650024,0.093688965,20.0,-8.78125,7.03125
452,452,1727965898839,-0.38134766,-1.4197388,0.16790771,7.5,5.0,5.234375
453,453,1727965898879,-0.34814453,-1.5308228,0.1251831,-2.953125,7.3125,2.609375
454,454,1727965898919,-0.47460938,-1.2241821,-0.0803833,-18.546875,11.390625,-4.46875
455,455,1727965898959,-0.37426758,-1.30719,0.014831543,-11.15625,-1.421875,2.3125
456,456,1727965898999,0.08691406,-1.4754028,0.22943115,5.890625,-13.203125,-7.359375
457,457,1727965899039,0.04663086,-0.9517212,0.028259277,-11.296875,2.46875,-10.484375
458,458,1727965899079,0.050048828,-0.6314087,0.011657715,-17.234375,5.5,-3.09375
459,459,1727965899119,-0.0925293,-0.7678833,0.1437378,-1.875,-24.125,-2.859375
460,460,1727965899159,-0.41870117,-0.9768677,0.27801514,-8.8125,-27.171875,-2.390625
461,461,1727965899199,-0.38598633,-0.9624634,0.2411499,-25.296875,-3.625,6.859375
462,462,1727965899239,-0.1899414,-0.64849854,0.13031006,-9.078125,5.171875,0.875
463,463,1727965899279,-0.06201172,-0.50567627,0.074645996,5.515625,-5.484375,-8.171875
464,464,1727965899319,-0.045654297,-0.52545166,0.09197998,2.25,-5.890625,0.515625
465,465,1727965899359,-0.1027832,-0.7114868,0.17059326,-3.5,-7.921875,10.953125
466,466,1727965899399,-0.2211914,-0.8748169,0.29681396,5.109375,-7.859375,7.375
467,467,1727965899439,-0.30615234,-1.0603638,0.2868042,15.484375,-18.125,3.21875
468,468,1727965899479,-0.2722168,-1.1851196,0.22869873,6.671875,-16.421875,2.859375
469,469,1727965899519,-0.34326172,-1.2927856,0.26507568,9.3125,-11.328125,2.046875
470,470,1727965899559,-0.39135742,-1.4341431,0.18597412,14.0625,-7.890625,2.34375
471,471,1727965899599,-0.46826172,-1.7168579,0.18939209,-4.75,-2.203125,2.125
472,472,1727965899639,-0.2915039,-1.4214478,0.19696045,1.953125,10.109375,-3.75
473,473,1727965899679,-0.26489258,-1.0098267,0.039489746,-6.234375,25.9375,-8.4375
474,474,1727965899719,-0.1706543,-0.659729,-0.16729736,-1.453125,26.171875,-7.375
475,475,1727965899759,-0.18261719,-0.69659424,-0.23052979,11.1875,20.6875,4.1875
476,476,1727965899799,-0.2163086,-0.9204712,0.015075684,3.546875,5.890625,0.390625
477,477,1727965899839,-0.33862305,-0.89971924,0.11444092,8.328125,0.328125,-9.046875
478,478,1727965899879,-0.22094727,-0.68463135,0.086364746,0.78125,10.640625,0.828125
479,479,1727965899919,-0.15795898,-0.48590088,0.0446167,-2.0625,13.171875,9.828125
480,480,1727965899959,-0.19116211,-0.5383911,0.055358887,0.96875,11.390625,6.796875
481,481,1727965899999,-0.203125,-0.6729126,-0.03326416,5.953125,7.28125,-1.3125
482,482,1727965900039,-0.3737793,-0.8213501,-0.07476807,11.765625,-6.078125,-1.328125
483,483,1727965900079,-0.49389648,-1.0320435,0.10858154,13.65625,-3.078125,5.140625
484,484,1727965900119,-0.44360352,-1.4207153,0.2748413,1.671875,7.390625,5.84375
485,485,1727965900159,-0.33666992,-1.4136353,0.15838623,-17.609375,6.921875,1.6875
486,486,1727965900199,-0.40112305,-1.1304321,-0.09039307,-27.28125,5.921875,-3.734375
487,487,1727965900239,-0.46704102,-1.1992798,-0.03375244,-28.84375,1.34375,-3.5625
488,488,1727965900279,-0.08251953,-1.7070923,0.3607788,-10.078125,-12.6875,0.859375
489,489,1727965900319,0.045898438,-1.2207642,0.18133545,-14.4375,-0.234375,-9.90625
490,490,1727965900359,-0.0107421875,-0.5862427,0.0028686523,-24.21875,11.1875,-5.640625
491,491,1727965900399,0.008544922,-0.7102661,0.0692749,-5.25,-7.25,5.375
492,492,1727965900439,-0.19726562,-0.87042236,0.22723389,2.609375,-27.34375,6.484375
493,493,1727965900479,-0.40649414,-1.0220337,0.2658081,-13.46875,-13.8125,3.03125
494,494,1727965900519,-0.37939453,-0.83843994,0.31610107,-19.671875,25.828125,-0.546875
495,495,1727965900559,-0.12402344,-0.4854126,0.19940186,-10.4375,4.953125,-2.96875
496,496,1727965900599,-0.05493164,-0.46466064,0.09442139,-5.3125,-6.59375,-2.78125
497,497,1727965900639,-0.0048828125,-0.54937744,0.19866943,-17.125,5.546875,6.5625
498,498,1727965900679,-0.053955078,-0.7617798,0.3949585,-5.578125,-5.21875,11.015625
499,499,1727965900719,-0.23388672,-0.9627075,0.45281982,16.96875,-22.03125,5.65625
500,500,1727965900759,-0.29589844,-1.0982056,0.40667725,17.578125,-19.296875,-0.171875
501,501,1727965900799,-0.3659668,-1.1431274,0.40863037,21.15625,-8.421875,-4.453125
502,502,1727965900839,-0.3034668,-1.1777954,0.2423706,30.359375,-7.375,-2.203125
503,503,1727965900879,-0.38330078,-1.8499146,0.26727295,15.890625,-21.078125,11.296875
504,504,1727965900919,-0.3071289,-1.7000122,0.39520264,10.5625,1.21875,1.890625
505,505,1727965900959,-0.36401367,-1.0422974,0.11639404,-2.796875,18.390625,-11.484375
506,506,1727965900999,-0.31201172,-0.7034302,-0.046691895,3.96875,13.1875,-11.46875
507,507,1727965901039,-0.24853516,-0.60113525,-0.19537354,6.484375,25.046875,2.203125
508,508,1727965901079,-0.2211914,-0.87994385,-0.101623535,4.90625,11.8125,7.21875
509,509,1727965901119,-0.18383789,-1.2109985,0.13006592,12.984375,-17.671875,-5.21875
510,510,1727965901159,-0.30249023,-0.9314575,0.13983154,11.015625,-9.015625,6.859375
511,511,1727965901199,-0.2175293,-0.5459595,0.10687256,2.6875,6.71875,16.5
512,512,1727965901239,-0.25708008,-0.43463135,0.030212402,0.5,8.234375,7.25
513,513,1727965901279,-0.24780273,-0.4697876,0.023376465,-9.71875,9.40625,-7.1875
514,514,1727965901319,-0.29736328,-0.642395,-0.085754395,15.828125,3.171875,-4.265625
515,515,1727965901359,-0.39770508,-0.9846802,-0.11212158,22.640625,1.28125,8.28125
516,516,1727965901399,-0.35375977,-1.303772,0.1942749,17.984375,1.71875,6.5625
517,517,1727965901439,-0.29492188,-1.5484009,0.21063232,-9.140625,1.859375,-1.28125
518,518,1727965901479,-0.39013672,-1.3545532,-0.043029785,-16.34375,-1.96875,-3.15625
519,519,1727965901519,-0.49926758,-1.1636353,-0.09552002,-14.671875,8.265625,3.671875
520,520,1727965901559,-0.15576172,-1.4683228,0.06585693,-1.734375,-10.59375,6.078125
521,521,1727965901599,0.1628418,-1.3220825,0.12567139,0.40625,-5.875,-6.859375
522,522,1727965901639,0.107421875,-0.75006104,-0.0037231445,-5.21875,4.453125,-9.171875
523,523,1727965901679,-0.037109375,-0.79229736,-0.020568848,4.0625,-4.1875,0.140625
524,524,1727965901719,-0.28149414,-1.0095825,0.12713623,-2.75,-17.515625,4.703125
525,525,1727965901759,-0.37597656,-0.9805298,0.16619873,-9.640625,-14.890625,4.625
526,526,1727965901799,-0.19750977,-0.72662354,0.09515381,-13.21875,14.875,-4.84375
527,527,1727965901839,-0.08520508,-0.5227661,0.03778076,-9.296875,8.125,-6.640625
528,528,1727965901879,-0.052490234,-0.42755127,-0.03277588,-2.375,-0.03125,0.015625
529,529,1727965901919,-0.07348633,-0.53082275,0.12835693,0.234375,0.6875,3.3125
530,530,1727965901959,-0.119384766,-0.75177,0.24969482,1.328125,-2.53125,6.015625
531,531,1727965901999,-0.2631836,-1.0405884,0.28533936,2.921875,-9.859375,2.375
532,532,1727965902039,-0.34033203,-1.2788696,0.22650146,6.953125,-6.828125,2.34375
533,533,1727965902079,-0.3227539,-1.444397,0.28753662,19.71875,-3.171875,-1.734375
534,534,1727965902119,-0.38623047,-1.3357544,0.31341553,20.96875,-8.171875,-6.359375
535,535,1727965902159,-0.32226562,-1.2554321,0.15814209,-11.421875,-4.875,-18.40625
536,536,1727965902199,-0.44995117,-1.5164185,0.22357178,-6.8125,-9.453125,1.28125
537,537,1727965902239,-0.33374023,-1.78302,0.27337646,25.734375,-8.328125,9.8125
538,538,1727965902279,-0.3239746,-1.2908325,0.026062012,-22.03125,18.921875,-15.078125
539,539,1727965902319,-0.32348633,-0.5569458,-0.13726807,-13.625,29.640625,-11.5
540,540,1727965902359,-0.2331543,-0.5593872,-0.27008057,17.078125,23.4375,2.53125
541,541,1727965902399,-0.21850586,-0.8933716,-0.108947754,9.34375,11.5625,1.234375
542,542,1727965902439,-0.26660156,-0.91290283,0.19329834,2.21875,-7.234375,-6.296875
543,543,1727965902479,-0.27172852,-0.6929321,0.17376709,4.0,7.59375,4.9375
544,544,1727965902519,-0.17358398,-0.442688,0.10028076,-4.046875,13.59375,15.171875
545,545,1727965902559,-0.19677734,-0.44073486,0.0079956055,-2.53125,16.171875,7.375
546,546,1727965902599,-0.27905273,-0.60601807,-0.06085205,3.921875,7.71875,-3.515625
547,547,1727965902639,-0.3708496,-0.86065674,-0.0049438477,10.359375,-7.09375,-3.703125
548,548,1727965902679,-0.5539551,-1.4612427,0.14398193,7.625,-12.203125,9.96875
549,549,1727965902719,-0.5258789,-1.5112915,0.31414795,-5.046875,14.125,9.984375
550,550,1727965902759,-0.42626953,-1.2922974,-0.01763916,-35.3125,13.28125,-5.453125
551,551,1727965902799,-0.47460938,-1.2141724,-0.0154418945,-39.546875,8.953125,-11.984375
552,552,1727965902839,0.024169922,-1.8904419,0.43084717,-5.078125,2.015625,-5.140625
553,553,1727965902879,0.1616211,-1.097229,0.25115967,-8.125,6.8125,-13.046875
554,554,1727965902919,0.26049805,-0.7017212,0.02142334,-25.5,11.546875,-2.484375
555,555,1727965902959,-0.015625,-0.6358032,0.07513428,-14.25,-22.609375,9.015625
556,556,1727965902999,-0.39624023,-0.6921997,0.309021,-1.125,-6.9375,2.453125
557,557,1727965903039,-0.6135254,-0.78302,0.28533936,-10.875,-16.78125,-7.171875
558,558,1727965903079,-0.40649414,-0.5610962,0.29559326,-23.234375,22.0625,-6.96875
559,559,1727965903119,0.046875,-0.36676025,0.2164917,0.0625,14.453125,2.421875
560,560,1727965903159,0.1508789,-0.5186157,0.1618042,24.515625,-20.21875,7.515625
561,561,1727965903199,0.008056641,-0.8128052,0.2453003,6.0,-16.609375,10.40625
562,562,1727965903239,-0.20605469,-1.0969849,0.48480225,-15.15625,-7.6875,8.78125
563,563,1727965903279,-0.3984375,-1.2859497,0.5512085,15.859375,-19.4375,2.734375
564,564,1727965903319,-0.5378418,-1.1838989,0.45770264,41.8125,-21.890625,-2.09375
565,565,1727965903359,-0.47192383,-1.1079712,0.24456787,7.640625,-8.625,-9.390625
566,566,1727965903399,-0.3161621,-1.3169556,0.24359131,-2.578125,-10.328125,-0.953125
567,567,1727965903439,-0.2841797,-1.829895,0.42425537,41.140625,-20.078125,14.75
568,568,1727965903479,-0.2709961,-1.4324341,0.12200928,7.578125,6.875,2.4375
569,569,1727965903519,-0.2055664,-0.62628174,-0.16314697,-30.765625,24.875,-6.390625
570,570,1727965903559,-0.22241211,-0.47979736,-0.26153564,8.0,12.53125,-1.4375
571,571,1727965903599,-0.3149414,-0.7654419,-0.085754395,21.5625,-6.203125,2.34375
572,572,1727965903639,-0.27807617,-1.0847778,0.16033936,9.421875,-22.921875,0.421875
573,573,1727965903679,-0.29101562,-0.93536377,0.2514038,5.296875,-2.984375,7.453125
574,574,1727965903719,-0.21044922,-0.47955322,0.105895996,1.765625,-4.5625,7.25
575,575,1727965903759,-0.30786133,-0.33648682,-0.04449463,2.453125,9.703125,3.296875
576,576,1727965903799,-0.29833984,-0.45147705,-0.10748291,1.515625,17.171875,-1.265625
577,577,1727965903839,-0.34472656,-0.87628174,-0.07623291,11.9375,-8.484375,2.25
578,578,1727965903879,-0.38867188,-1.2803345,0.043395996,18.625,-12.578125,11.75
579,579,1727965903919,-0.39526367,-1.2310181,0.22576904,16.90625,13.890625,8.015625
580,580,1727965903959,-0.421875,-1.291565,0.11151123,-12.9375,12.265625,-5.359375
581,581,1727965903999,-0.515625,-1.2276001,-0.04864502,-16.640625,3.359375,-2.765625
582,582,1727965904039,-0.5407715,-1.1587524,-0.07598877,-1.609375,17.484375,6.3125
583,583,1727965904079,-0.24389648,-1.4038696,-0.0044555664,-10.203125,-3.15625,5.0625
584,584,1727965904119,0.09790039,-1.5361938,0.08270264,-4.328125,-10.328125,-6.6875
585,585,1727965904159,0.1184082,-0.9019165,0.039001465,-7.6875,7.03125,-6.578125
586,586,1727965904199,0.17260742,-0.66119385,-0.008361816,-10.9375,-5.609375,4.9375
587,587,1727965904239,-0.10473633,-0.8464966,0.12420654,-4.625,-29.21875,6.640625
588,588,1727965904279,-0.5234375,-0.9155884,0.21453857,-4.046875,-10.828125,7.0
589,589,1727965904319,-0.48291016,-0.93341064,0.21746826,-17.078125,4.390625,5.078125
590,590,1727965904359,-0.24804688,-0.5811157,0.062438965,-18.265625,28.65625,-9.265625
591,591,1727965904399,-0.087890625,-0.38848877,0.008483887,-12.6875,10.796875,-18.015625
592,592,1727965904439,-0.045410156,-0.5339966,0.11590576,2.296875,9.671875,-7.765625
593,593,1727965904479,-0.0107421875,-0.7415161,0.23284912,4.625,-1.28125,10.953125
594,594,1727965904519,-0.16430664,-0.99957275,0.3439331,3.0,-14.578125,11.796875
595,595,1727965904559,-0.27075195,-1.1638794,0.31658936,4.25,-14.09375,0.25
596,596,1727965904599,-0.31298828,-1.2659302,0.20526123,4.25,-7.71875,-9.1875
597,597,1727965904639,-0.4260254,-1.2390747,0.18572998,8.234375,-3.78125,-4.875
598,598,1727965904679,-0.47705078,-1.7407837,0.2230835,10.296875,-11.125,8.765625
599,599,1727965904719,-0.22241211,-1.8152466,0.22821045,3.171875,2.875,3.171875
600,600,1727965904759,-0.28564453,-1.1028442,0.047790527,-18.40625,28.359375,-12.984375
601,601,1727965904799,-0.20629883,-0.5137329,-0.062072754,-6.71875,27.859375,-12.328125
602,602,1727965904839,-0.24365234,-0.49371338,-0.19146729,22.265625,21.328125,-3.96875
603,603,1727965904879,-0.31176758,-0.8352661,-0.06402588,15.828125,3.890625,-3.296875
604,604,1727965904919,-0.34814453,-0.9898071,0.22015381,-4.0,0.3125,-4.75
605,605,1727965904959,-0.18725586,-0.8833618,0.18328857,-3.53125,14.21875,3.1875
606,606,1727965904999,-0.083496094,-0.51446533,0.03387451,-2.6875,9.28125,10.34375
607,607,1727965905039,-0.20776367,-0.45684814,-0.024719238,3.890625,8.84375,4.890625
608,608,1727965905079,-0.34765625,-0.6421509,0.0053100586,0.03125,9.515625,-4.328125
609,609,1727965905119,-0.4951172,-0.97979736,0.13763428,4.328125,-4.21875,-7.453125
610,610,1727965905159,-0.5012207,-1.1377563,0.16546631,5.46875,0.15625,6.28125
611,611,1727965905199,-0.26708984,-1.1524048,0.20672607,8.1875,17.953125,10.546875
612,612,1727965905239,-0.19970703,-1.242981,0.1749878,-7.03125,4.078125,-0.421875
613,613,1727965905279,-0.3774414,-1.2078247,0.09051514,-26.8125,-2.625,-0.59375
614,614,1727965905319,-0.63378906,-1.2214966,0.081726074,-14.578125,7.8125,11.03125
615,615,1727965905359,-0.43066406,-1.4087524,0.1942749,-11.25,-12.3125,8.203125
616,616,1727965905399,-0.009765625,-1.5200806,0.14227295,-13.234375,-7.828125,-3.9375
617,617,1727965905439,0.17602539,-0.7949829,0.1071167,-12.6875,4.625,-3.78125
618,618,1727965905479,0.21069336,-0.6585083,0.085632324,-10.734375,-16.859375,6.09375
619,619,1727965905519,-0.07324219,-0.8518677,0.24481201,5.6875,-43.140625,0.28125
620,620,1727965905559,-0.4663086,-0.97906494,0.2086792,-6.296875,-16.40625,-3.59375
621,621,1727965905599,-0.53344727,-0.8508911,0.22601318,-22.828125,-0.046875,4.296875
622,622,1727965905639,-0.16503906,-0.49517822,0.24676514,-11.5625,13.265625,4.5
623,623,1727965905679,-0.034423828,-0.4102173,0.12005615,10.796875,-12.328125,-5.4375
624,624,1727965905719,-0.0056152344,-0.5701294,0.09613037,6.859375,-11.765625,-1.03125
625,625,1727965905759,-0.07446289,-0.74957275,0.27679443,-13.5,-4.515625,10.90625
626,626,1727965905799,-0.13476562,-0.87823486,0.43865967,3.0625,-14.4375,9.734375
627,627,1727965905839,-0.3088379,-1.1550903,0.36566162,36.203125,-31.265625,4.34375
628,628,1727965905879,-0.4880371,-1.3049927,0.29901123,31.53125,-23.625,1.625
629,629,1727965905919,-0.46899414,-1.3181763,0.15179443,6.84375,-8.671875,-5.28125
630,630,1727965905959,-0.4921875,-1.9788208,0.1593628,4.265625,-10.578125,6.703125
631,631,1727965905999,-0.26220703,-1.710022,0.28656006,32.828125,3.921875,4.828125
632,632,1727965906039,-0.19140625,-0.86920166,-0.014221191,-11.421875,29.890625,-2.359375
633,633,1727965906079,-0.2614746,-0.49249268,-0.19927979,0.34375,25.109375,-4.53125
634,634,1727965906119,-0.35766602,-0.5730591,-0.3008423,29.40625,22.15625,-5.015625
635,635,1727965906159,-0.33789062,-1.0081177,-0.08648682,2.5625,19.390625,-1.328125
636,636,1727965906199,-0.29516602,-1.0718384,0.2098999,4.078125,12.078125,-5.703125
637,637,1727965906239,-0.12719727,-0.69976807,0.08660889,14.8125,5.28125,-0.765625
638,638,1727965906279,-0.10180664,-0.39971924,-0.04840088,8.0,8.421875,9.125
639,639,1727965906319,-0.23413086,-0.36627197,-0.11383057,-6.890625,30.203125,6.859375
640,640,1727965906359,-0.3701172,-0.69122314,-0.11016846,12.8125,14.1875,2.875
641,641,1727965906399,-0.37719727,-1.0806274,-0.12042236,21.21875,-4.53125,1.171875
642,642,1727965906439,-0.29907227,-1.0701294,0.03289795,16.5625,8.859375,9.421875
643,643,1727965906479,-0.29541016,-1.1846313,0.09881592,3.546875,18.09375,6.015625
644,644,1727965906519,-0.38476562,-1.4231567,-0.05230713,-13.296875,4.53125,6.203125
645,645,1727965906559,-0.5588379,-1.2527466,-0.21221924,-8.78125,5.296875,7.359375
646,646,1727965906599,-0.6335449,-1.3665161,-0.074523926,-12.046875,5.984375,11.0625
647,647,1727965906639,0.076171875,-1.6062622,0.10028076,-1.71875,-8.953125,4.1875
648,648,1727965906679,0.083740234,-1.1213989,-0.03277588,-17.875,4.609375,-8.328125
649,649,1727965906719,0.115722656,-0.692688,-0.057678223,-6.453125,23.046875,-6.921875
650,650,1727965906759,0.020263672,-0.82232666,0.028259277,-12.0,0.578125,2.5625
651,651,1727965906799,-0.26831055,-0.84454346,0.13763428,-23.953125,-10.96875,-4.046875
652,652,1727965906839,-0.43115234,-0.76519775,0.109313965,-24.40625,12.03125,-13.46875
653,653,1727965906879,-0.26342773,-0.74591064,0.0836792,4.171875,-14.390625,-0.25
654,654,1727965906919,-0.59155273,-1.0657349,0.113464355,-15.515625,-22.28125,-3.203125
655,655,1727965906959,-0.24829102,-1.0112915,0.340271,7.53125,13.515625,-2.015625
656,656,1727965906999,-0.0012207031,-0.70562744,0.08392334,5.46875,22.109375,-5.5625
657,657,1727965907039,-0.04711914,-0.52056885,0.0021362305,-3.859375,-0.125,-0.71875
658,658,1727965907079,-0.11767578,-0.54473877,0.13275146,-3.078125,5.265625,5.140625
659,659,1727965907119,-0.19995117,-0.7583618,0.2164917,3.5,2.265625,4.203125
660,660,1727965907159,-0.24243164,-0.9380493,0.24847412,8.921875,-2.84375,5.296875
661,661,1727965907199,-0.22949219,-1.0205688,0.23358154,3.5,3.34375,3.734375
662,662,1727965907239,-0.1862793,-1.050354,0.21746826,5.46875,7.890625,-5.453125
663,663,1727965907279,-0.20410156,-1.2368774,0.22210693,5.375,-4.484375,-5.53125
664,664,1727965907319,-0.33813477,-1.4231567,0.1864624,13.796875,-8.828125,2.625
665,665,1727965907359,-0.5319824,-1.7835083,0.24627686,2.578125,2.1875,12.515625
666,666,1727965907399,-0.30737305,-1.3150024,0.26922607,7.765625,15.296875,2.328125
667,667,1727965907439,-0.16479492,-1.0391235,0.028015137,0.09375,15.375,-9.0625
668,668,1727965907479,-0.13623047,-0.79522705,-0.14849854,-2.1875,20.8125,-7.328125
669,669,1727965907519,-0.07446289,-0.7268677,-0.1897583,3.46875,18.046875,2.84375
670,670,1727965907559,-0.22290039,-0.89434814,0.02166748,10.703125,-1.8125,-1.171875
671,671,1727965907599,-0.35009766,-0.85235596,0.12689209,11.453125,0.09375,-3.34375
672,672,1727965907639,-0.39038086,-0.7202759,0.14227295,-0.390625,5.234375,7.796875
673,673,1727965907679,-0.28735352,-0.6189575,0.081726074,0.109375,24.546875,11.15625
674,674,1727965907719,-0.13623047,-0.6956177,0.041931152,-0.53125,11.78125,1.046875
675,675,1727965907759,-0.12402344,-0.7185669,0.009460449,0.015625,2.34375,-5.609375
676,676,1727965907799,-0.2277832,-0.7788696,0.015319824,15.5,6.484375,-2.40625
677,677,1727965907839,-0.30371094,-0.8982544,0.08074951,7.703125,5.53125,7.125
678,678,1727965907879,-0.29370117,-1.6887817,0.24993896,-9.15625,-7.5625,1.703125
679,679,1727965907919,-0.5019531,-1.5437622,0.23260498,-13.21875,4.65625,-2.625
680,680,1727965907959,-0.6357422,-0.9849243,-0.089660645,-21.96875,20.953125,-9.859375
681,681,1727965907999,-0.49536133,-1.0652466,0.03778076,-29.796875,6.03125,-5.984375
682,682,1727965908039,0.14624023,-1.847229,0.3007202,-4.828125,-23.0625,-11.3125
683,683,1727965908079,0.06933594,-1.1160278,0.13031006,6.890625,16.203125,0.109375
684,684,1727965908119,0.23510742,-0.5647583,-0.06329346,-25.953125,12.21875,4.390625
685,685,1727965908159,0.046875,-0.65167236,0.15985107,2.65625,-31.90625,5.828125
686,686,1727965908199,-0.3190918,-0.74005127,0.24090576,7.125,-14.453125,-4.453125
687,687,1727965908239,-0.5007324,-0.925354,0.20159912,-13.859375,-12.40625,3.046875
688,688,1727965908279,-0.38208008,-0.73687744,0.3348999,5.875,-0.796875,11.953125
689,689,1727965908319,-0.04248047,-0.46368408,0.21429443,12.515625,1.5625,-5.140625
690,690,1727965908359,-0.06958008,-0.49005127,0.038024902,20.484375,-19.078125,-7.90625
691,691,1727965908399,-0.12011719,-0.63238525,0.06781006,9.25,-3.65625,6.9375
692,692,1727965908439,-0.03100586,-0.9512329,0.2741089,2.4375,-2.53125,15.078125
693,693,1727965908479,-0.20996094,-1.4822388,0.30462646,27.609375,-35.75,6.328125
694,694,1727965908519,-0.36499023,-1.545227,0.32659912,9.828125,-18.15625,-10.03125
695,695,1727965908559,-0.33984375,-1.3225708,0.061462402,4.21875,-6.171875,-10.171875
696,696,1727965908599,-0.3623047,-1.500061,-0.01763916,-8.046875,-1.703125,6.96875
697,697,1727965908639,-0.13256836,-1.597229,0.17425537,23.3125,-10.1875,5.546875
698,698,1727965908679,-0.27734375,-0.98687744,-0.011047363,-8.140625,23.390625,-7.765625
699,699,1727965908719,-0.25952148,-0.58062744,-0.21734619,-23.640625,33.875,-8.484375
700,700,1727965908759,-0.37768555,-0.5606079,-0.24835205,17.078125,14.828125,-8.75
701,701,1727965908799,-0.29174805,-0.9483032,0.020690918,16.75,-5.625,-9.734375
702,702,1727965908839,-0.22949219,-1.022522,0.16546631,2.25,-4.3125,-0.046875
703,703,1727965908879,-0.091796875,-0.7805786,0.070495605,5.546875,5.5,11.703125
704,704,1727965908919,-0.17480469,-0.5178833,-0.09307861,0.5625,2.53125,9.3125
705,705,1727965908959,-0.33569336,-0.5112915,-0.07208252,-4.4375,8.953125,-2.671875
706,706,1727965908999,-0.42041016,-0.69415283,-0.05596924,8.046875,3.125,-6.21875
707,707,1727965909039,-0.3125,-0.88165283,0.0018920898,13.4375,-1.6875,0.46875
708,708,1727965909079,-0.2783203,-0.9055786,0.0018920898,7.640625,8.5,7.34375
709,709,1727965909119,-0.29492188,-1.1975708,0.082458496,-0.828125,6.453125,2.53125
710,710,1727965909159,-0.38671875,-1.4651489,0.051452637,-7.515625,-3.109375,-5.0625
711,711,1727965909199,-0.45922852,-1.2747192,-0.034484863,-12.984375,6.03125,7.484375
712,712,1727965909239,-0.58618164,-1.203186,-0.011047363,-14.921875,9.578125,4.984375
713,713,1727965909279,-0.19384766,-1.4978638,0.04119873,-7.875,-7.75,4.96875
714,714,1727965909319,0.028320312,-1.4580688,-0.030334473,-11.09375,-13.078125,3.03125
715,715,1727965909359,0.032470703,-0.8386841,-0.020324707,-7.0,0.28125,1.859375
716,716,1727965909399,0.15454102,-0.6055298,0.0079956055,-7.796875,-5.8125,0.921875
717,717,1727965909439,-0.10668945,-0.80059814,0.05999756,-3.078125,-28.90625,-3.515625
718,718,1727965909479,-0.48168945,-0.848938,0.16229248,-6.875,-9.34375,1.921875
719,719,1727965909519,-0.4868164,-0.911438,0.14056396,-11.296875,6.765625,7.046875
720,720,1727965909559,-0.21142578,-0.6050415,0.086120605,-12.09375,17.453125,-6.203125
721,721,1727965909599,0.0075683594,-0.5076294,0.032165527,-7.734375,3.125,-16.03125
722,722,1727965909639,0.028808594,-0.5889282,0.11468506,-11.515625,-1.796875,-5.78125
723,723,1727965909679,-0.009277344,-0.7803345,0.21331787,-7.34375,-1.3125,14.171875
724,724,1727965909719,-0.1850586,-0.9727173,0.28948975,-5.890625,-17.296875,13.203125
725,725,1727965909759,-0.38623047,-1.0896606,0.34783936,0.484375,-15.59375,1.421875
726,726,1727965909799,-0.3708496,-1.1177368,0.2321167,-4.296875,-4.203125,-6.40625
727,727,1727965909839,-0.30395508,-1.2090454,0.2514038,9.03125,-14.125,-8.078125
728,728,1727965909879,-0.3684082,-1.4429321,0.16815186,13.0,-7.046875,6.828125
729,729,1727965909919,-0.3972168,-1.8235474,0.29266357,-5.8125,8.40625,12.796875
730,730,1727965909959,-0.2932129,-1.2244263,0.2230835,-13.421875,15.46875,2.0
731,731,1727965909999,-0.23608398,-0.91534424,0.049743652,-0.5,12.578125,-13.640625
732,732,1727965910039,-0.2211914,-0.8401489,-0.0947876,23.125,12.921875,-12.84375
733,733,1727965910079,-0.19165039,-0.9143677,-0.105285645,17.09375,23.4375,-0.484375
734,734,1727965910119,-0.22802734,-1.0276489,0.013122559,-6.765625,8.671875,1.296875
735,735,1727965910159,-0.30908203,-0.7503052,0.13641357,0.53125,-0.9375,0.203125
736,736,1727965910199,-0.26220703,-0.5510864,0.047058105,22.4375,3.234375,4.046875
737,737,1727965910239,-0.25976562,-0.48687744,0.051940918,18.578125,7.328125,8.46875
738,738,1727965910279,-0.2043457,-0.4829712,0.109558105,-0.171875,6.046875,7.140625
739,739,1727965910319,-0.2331543,-0.6946411,-0.014221191,-0.59375,7.9375,-0.4375
740,740,1727965910359,-0.28320312,-0.86798096,-0.16241455,19.796875,11.046875,-1.90625
741,741,1727965910399,-0.3984375,-1.0906372,-0.051818848,25.671875,4.109375,8.71875
742,742,1727965910439,-0.45825195,-1.571106,0.124694824,3.71875,-5.015625,5.78125
743,743,1727965910479,-0.27246094,-1.6506958,0.09051514,-1.75,-0.203125,-0.078125
744,744,1727965910519,-0.41333008,-1.0796509,-0.2234497,-16.203125,11.953125,-1.890625
745,745,1727965910559,-0.48583984,-1.0510864,-0.10211182,-17.21875,-1.28125,-1.71875
746,746,1727965910599,-0.009277344,-1.5169067,0.09124756,-11.359375,-16.859375,3.03125
747,747,1727965910639,0.13842773,-1.3311157,0.13104248,-6.0,3.890625,-4.3125
748,748,1727965910679,0.16552734,-0.6165161,-0.10699463,-13.71875,1.46875,-7.0
749,749,1727965910719,0.040527344,-0.6536255,0.10662842,-12.328125,-0.90625,-3.84375
750,750,1727965910759,-0.23730469,-0.8386841,0.12054443,-3.5,-31.171875,0.125
751,751,1727965910799,-0.4326172,-0.93756104,0.18719482,-15.65625,-15.171875,6.125
752,752,1727965910839,-0.2133789,-0.7539673,0.1383667,-11.296875,5.71875,1.21875
753,753,1727965910879,-0.036132812,-0.54473877,0.015563965,4.53125,-5.03125,-6.484375
754,754,1727965910919,-0.021484375,-0.51446533,-0.008605957,-5.84375,-13.3125,-5.640625
755,755,1727965910959,-0.13012695,-0.66729736,0.19622803,2.46875,-7.375,4.1875
756,756,1727965910999,-0.18798828,-1.0459595,0.2772827,3.125,-6.875,7.546875
757,757,1727965911039,-0.24731445,-1.1450806,0.2958374,3.796875,-20.015625,-0.265625
758,758,1727965911079,-0.29663086,-1.0950317,0.24041748,11.78125,-12.96875,-5.375
759,759,1727965911119,-0.2956543,-1.0615845,0.14813232,4.21875,-1.75,-9.015625
760,760,1727965911159,-0.3564453,-1.2180786,0.011169434,9.78125,-10.078125,-6.953125
761,761,1727965911199,-0.52001953,-2.0,0.21258545,12.21875,-10.21875,10.25
762,762,1727965911239,-0.23144531,-1.6035767,0.11444092,-11.953125,15.21875,4.78125
763,763,1727965911279,-0.20092773,-0.89019775,-0.08428955,-31.5,20.234375,-8.6875
764,764,1727965911319,-0.21606445,-0.63775635,-0.22491455,4.671875,18.09375,-11.578125
765,765,1727965911359,-0.26123047,-0.6848755,-0.24761963,26.875,8.734375,-0.375
766,766,1727965911399,-0.29638672,-1.0591431,0.016052246,8.203125,-6.171875,3.375
767,767,1727965911439,-0.26782227,-0.9209595,0.15911865,-3.875,6.265625,-0.984375
768,768,1727965911479,-0.20092773,-0.6567993,0.01727295,-3.21875,2.296875,0.78125
769,769,1727965911519,-0.20385742,-0.4644165,-0.015686035,-1.234375,2.90625,5.734375
770,770,1727965911559,-0.30615234,-0.46295166,-0.016662598,3.1875,14.9375,0.421875
771,771,1727965911599,-0.3190918,-0.69366455,0.0072631836,-3.140625,8.328125,-3.328125
772,772,1727965911639,-0.3894043,-0.99713135,0.018005371,-1.171875,-2.09375,-3.390625
773,773,1727965911679,-0.34301758,-1.1480103,0.06951904,13.96875,6.625,6.390625
774,774,1727965911719,-0.29223633,-1.0393677,0.12689209,3.828125,14.5625,10.609375
775,775,1727965911759,-0.32617188,-1.0222778,0.1227417,-8.53125,3.03125,5.78125
776,776,1727965911799,-0.34887695,-1.0401001,-0.016906738,-7.609375,0.453125,1.734375
777,777,1727965911839,-0.54052734,-1.1172485,0.023864746,-0.25,11.0,7.390625
778,778,1727965911879,-0.53564453,-1.4268188,0.10321045,-13.234375,16.484375,13.234375
779,779,1727965911919,-0.17700195,-1.5574341,0.13275146,-9.234375,-4.796875,11.421875
780,780,1727965911959,0.020996094,-1.4966431,0.04534912,-9.453125,-0.90625,1.28125
781,781,1727965911999,-0.1550293,-0.9751587,0.032409668,-9.828125,9.375,-6.6875
782,782,1727965912039,-0.14257812,-0.6397095,0.025817871,-8.109375,3.234375,-6.15625
783,783,1727965912079,-0.087646484,-0.8081665,0.1539917,-4.09375,-4.578125,5.015625
784,784,1727965912119,0.014160156,-0.95025635,0.17572021,-12.625,-18.625,1.234375
785,785,1727965912159,-0.0769043,-0.8772583,0.20574951,-13.296875,-11.0625,-4.09375
786,786,1727965912199,-0.21972656,-0.5654907,0.12762451,-14.421875,5.03125,-9.15625
