,Unnamed: 0,timestamp,accel_x,accel_y,accel_z,gyro_x,gyro_y,gyro_z
0,0,1728029956630,0.18603516,-1.458313,0.059509277,-4.71875,1.671875,-1.9375
1,1,1728029956670,0.1640625,-1.3047485,-0.09039307,8.421875,-5.359375,-10.28125
2,2,1728029956710,0.056640625,-1.0679321,0.055847168,1.84375,15.390625,-19.46875
3,3,1728029956750,0.07861328,-0.944397,-0.03668213,18.75,31.921875,-17.921875
4,4,1728029956790,0.125,-0.8809204,-0.19415283,12.40625,13.859375,-7.984375
5,5,1728029956830,0.052490234,-0.8789673,-0.016662598,7.046875,4.453125,-0.5
6,6,1728029956870,-0.043701172,-0.9368286,0.08734131,0.578125,17.421875,-1.828125
7,7,1728029956910,0.013183594,-0.92071533,0.020690918,1.03125,15.296875,-2.96875
8,8,1728029956950,0.00048828125,-0.8101196,0.11883545,0.0625,10.96875,-1.109375
9,9,1728029956990,0.040771484,-0.91070557,0.11053467,4.15625,13.78125,1.578125
10,10,1728029957030,0.078125,-0.9290161,0.07196045,2.34375,7.1875,-4.4375
11,11,1728029957070,-0.029296875,-0.8965454,0.1281128,8.265625,3.546875,-3.984375
12,12,1728029957110,-0.061767578,-0.8821411,0.08441162,0.578125,1.0,7.640625
13,13,1728029957150,-0.0014648438,-0.9351196,0.13323975,-3.296875,-0.59375,12.21875
14,14,1728029957190,-0.028808594,-0.98809814,0.13226318,0.65625,-4.703125,9.671875
15,15,1728029957230,-0.1003418,-0.94317627,0.11590576,-2.109375,-2.46875,3.609375
16,16,1728029957270,-0.092041016,-1.135315,0.09832764,-6.78125,-5.859375,4.859375
17,17,1728029957310,-0.048583984,-1.0733032,0.036071777,5.265625,-3.875,3.0625
18,18,1728029957350,0.19702148,-1.1980591,0.08416748,-0.453125,11.015625,-2.59375
19,19,1728029957390,0.13549805,-1.5449829,-0.105529785,-9.875,-5.828125,8.390625
20,20,1728029957430,0.33081055,-1.2266235,-0.059143066,-0.875,-1.53125,13.078125
21,21,1728029957470,0.48461914,-1.0083618,-0.16412354,-7.734375,-18.421875,11.984375
22,22,1728029957510,0.34594727,-0.9221802,0.007507324,-3.765625,-30.53125,22.234375
23,23,1728029957550,0.33276367,-0.9031372,0.06097412,2.4375,-24.53125,17.578125
24,24,1728029957590,0.28100586,-0.86065674,0.034118652,2.1875,-27.234375,11.140625
25,25,1728029957630,0.12866211,-0.8101196,0.07928467,7.15625,-19.578125,3.171875
26,26,1728029957670,0.119140625,-0.8218384,0.09490967,3.265625,-10.390625,0.515625
27,27,1728029957710,0.30810547,-0.82110596,0.057800293,3.296875,-9.953125,2.90625
28,28,1728029957750,0.23071289,-0.7739868,0.10687256,2.265625,-16.5625,5.21875
29,29,1728029957790,0.17407227,-0.84869385,0.1329956,1.875,-12.921875,3.625
30,30,1728029957830,0.15844727,-0.86065674,0.12664795,0.03125,-10.53125,2.0625
31,31,1728029957870,0.21655273,-0.79400635,0.14422607,-0.546875,-2.875,-2.515625
32,32,1728029957910,0.20263672,-0.7737427,0.18133545,1.265625,-6.578125,-5.015625
33,33,1728029957950,0.20800781,-0.87628174,0.184021,2.34375,-2.953125,-1.609375
34,34,1728029957990,0.21606445,-0.91363525,0.18963623,2.140625,3.890625,-5.5625
35,35,1728029958030,0.21435547,-1.0374146,0.26385498,-4.21875,-0.546875,-5.390625
36,36,1728029958070,0.16235352,-1.0549927,0.26116943,-1.390625,3.5,-7.3125
37,37,1728029958110,0.2709961,-1.0779419,0.22113037,0.09375,5.4375,-6.90625
38,38,1728029958150,0.21362305,-1.4314575,0.24163818,-6.03125,-1.703125,-2.25
39,39,1728029958190,0.1640625,-1.3604126,0.023376465,-0.21875,6.15625,-13.34375
40,40,1728029958230,0.22045898,-1.131897,-0.09088135,0.34375,20.5,-17.015625
41,41,1728029958270,0.10864258,-0.99005127,-0.023254395,-3.890625,24.28125,-18.859375
42,42,1728029958310,0.12939453,-0.9483032,-0.08013916,1.5,43.171875,-20.765625
43,43,1728029958350,0.22875977,-0.8789673,-0.2053833,-1.453125,17.4375,-7.390625
44,44,1728029958390,0.09326172,-0.9182739,-0.028381348,-2.984375,3.234375,-6.34375
45,45,1728029958430,-0.020507812,-0.90875244,0.031188965,-1.65625,17.75,-9.828125
46,46,1728029958470,0.1003418,-0.8279419,0.0016479492,1.21875,15.4375,-2.34375
47,47,1728029958510,0.11010742,-0.9324341,0.059753418,0.828125,4.59375,-4.078125
48,48,1728029958550,-0.056640625,-0.88848877,0.09295654,2.015625,13.75,-10.328125
49,49,1728029958590,0.00390625,-0.8887329,0.081970215,1.703125,18.796875,-7.921875
50,50,1728029958630,0.12866211,-0.8814087,0.085876465,4.609375,9.265625,-5.75
51,51,1728029958670,0.068603516,-0.90997314,0.05633545,-2.28125,2.90625,-2.65625
52,52,1728029958710,0.013916016,-0.88604736,0.12371826,1.25,0.78125,-1.078125
53,53,1728029958750,-0.05078125,-0.92144775,0.11029053,0.234375,0.453125,2.46875
54,54,1728029958790,-0.011474609,-0.97198486,0.15570068,3.78125,-0.859375,5.1875
55,55,1728029958830,-0.091308594,-1.1306763,0.14129639,-0.46875,-4.359375,5.375
56,56,1728029958870,-0.11010742,-1.1248169,0.14569092,3.25,2.640625,4.296875
57,57,1728029958910,-0.012207031,-1.2402954,0.07977295,3.5,11.984375,8.34375
58,58,1728029958950,0.14672852,-1.5154419,0.047058105,-6.859375,9.5,2.0
59,59,1728029958990,0.12963867,-1.2183228,-0.105529785,-6.375,1.8125,8.484375
60,60,1728029959030,0.40771484,-1.0772095,-0.093566895,-5.25,-2.640625,20.3125
61,61,1728029959070,0.4008789,-0.8809204,0.050476074,-4.328125,-30.859375,21.484375
62,62,1728029959110,0.09082031,-0.92388916,0.04827881,-3.8125,-21.09375,7.296875
63,63,1728029959150,0.13745117,-0.89727783,0.030944824,7.96875,-8.921875,7.734375
64,64,1728029959190,0.24658203,-0.7703247,0.10467529,5.5,-10.984375,1.96875
65,65,1728029959230,0.11987305,-0.80426025,0.11419678,5.046875,-11.484375,-0.28125
66,66,1728029959270,0.10058594,-0.892395,0.11810303,2.90625,-5.75,6.296875
67,67,1728029959310,0.22290039,-0.7908325,0.09490967,9.515625,-9.75,4.421875
68,68,1728029959350,0.12084961,-0.7786255,0.11590576,12.46875,-17.328125,1.578125
69,69,1728029959390,0.12451172,-0.829895,0.13885498,11.015625,-7.953125,1.21875
70,70,1728029959430,0.20825195,-0.86309814,0.11907959,5.09375,-5.140625,-3.34375
71,71,1728029959470,0.28173828,-0.9060669,0.19232178,-1.703125,-6.28125,-6.421875
72,72,1728029959510,0.2680664,-0.9963989,0.2399292,2.796875,-12.390625,-6.453125
73,73,1728029959550,0.06225586,-1.0747681,0.23040771,-14.75,-16.96875,-7.46875
74,74,1728029959590,0.044921875,-1.0161743,0.22161865,12.65625,3.5,-15.296875
75,75,1728029959630,0.1706543,-1.3040161,0.09979248,-6.3125,-0.375,5.65625
76,76,1728029959670,0.36035156,-1.4612427,-0.085998535,-8.1875,3.609375,6.53125
77,77,1728029959710,0.24438477,-1.2654419,-0.27618408,3.5,2.96875,-6.515625
78,78,1728029959750,-0.09375,-1.3120728,-0.13360596,3.03125,18.53125,-27.09375
79,79,1728029959790,0.079833984,-0.9570923,-0.09429932,15.890625,38.421875,-29.34375
80,80,1728029959830,0.11450195,-0.8748169,-0.24591064,-1.1875,20.53125,-18.375
81,81,1728029959870,0.014160156,-0.8665161,0.010681152,4.859375,15.546875,-18.453125
82,82,1728029959910,-0.048339844,-0.79766846,-0.08843994,9.140625,18.265625,-8.625
83,83,1728029959950,0.064941406,-0.77349854,-0.0115356445,11.65625,11.921875,-7.234375
84,84,1728029959990,-0.09790039,-0.8272095,-0.05987549,-1.4375,12.53125,-9.890625
85,85,1728029960030,-0.12182617,-0.8147583,0.042907715,8.21875,23.828125,-6.09375
86,86,1728029960070,-0.08959961,-0.8386841,-0.0032348633,-3.484375,19.859375,-3.90625
87,87,1728029960110,-0.020507812,-0.8604126,0.024597168,4.84375,12.265625,-4.921875
88,88,1728029960150,-0.064208984,-0.9085083,0.022155762,2.8125,7.4375,2.28125
89,89,1728029960190,-0.10473633,-0.89727783,-0.0037231445,0.703125,5.65625,3.90625
90,90,1728029960230,-0.107666016,-0.95635986,0.06414795,-4.453125,1.84375,6.375
91,91,1728029960270,-0.06201172,-1.1104126,0.06317139,-1.71875,0.046875,10.0
92,92,1728029960310,-0.1081543,-1.1404419,0.10467529,-7.859375,-9.171875,11.6875
93,93,1728029960350,-0.1237793,-1.3535767,0.08343506,-8.40625,-11.6875,11.625
94,94,1728029960390,0.16040039,-1.3469849,0.062683105,6.28125,-5.625,16.046875
95,95,1728029960430,-0.0024414062,-1.2376099,-0.159729,-11.328125,-14.5,13.765625
96,96,1728029960470,0.17333984,-1.0913696,-0.15679932,7.1875,-9.828125,14.46875
97,97,1728029960510,0.39697266,-0.91607666,-0.1531372,-3.828125,-23.703125,21.578125
98,98,1728029960550,0.11279297,-0.9456177,0.034606934,-7.46875,-14.125,6.859375
99,99,1728029960590,0.06542969,-0.94659424,-0.1338501,-0.265625,-11.0,9.34375
100,100,1728029960630,0.19580078,-0.85235596,-0.007873535,2.46875,-10.734375,4.203125
101,101,1728029960670,0.11425781,-0.8040161,0.09124756,-4.203125,-2.640625,2.765625
102,102,1728029960710,0.24951172,-0.84210205,0.04559326,-6.15625,-5.875,7.84375
103,103,1728029960750,0.21435547,-0.7996216,0.046325684,-2.046875,-14.609375,3.796875
104,104,1728029960790,0.038330078,-0.77716064,0.07562256,1.546875,-9.078125,1.90625
105,105,1728029960830,0.15649414,-0.84503174,0.097839355,6.03125,-10.25,3.3125
106,106,1728029960870,0.1665039,-0.81207275,0.04510498,-6.390625,-10.453125,1.015625
107,107,1728029960910,0.1508789,-0.864563,0.1828003,2.84375,1.4375,-3.859375
108,108,1728029960950,0.24023438,-0.9602661,0.14837646,3.5625,-0.75,-0.921875
109,109,1728029960990,0.15478516,-0.911438,0.16400146,4.609375,-6.859375,-3.65625
110,110,1728029961030,-0.009277344,-1.0593872,0.27508545,6.53125,-0.921875,-9.359375
111,111,1728029961070,0.088378906,-1.3526001,0.101501465,-2.828125,7.6875,-1.21875
112,112,1728029961110,0.40893555,-1.3689575,-0.073791504,6.1875,0.640625,1.953125
113,113,1728029961150,0.23852539,-1.2444458,-0.15118408,-1.984375,-5.3125,-6.515625
114,114,1728029961190,0.08691406,-1.3460083,-0.089904785,-5.390625,17.265625,-21.609375
115,115,1728029961230,0.044921875,-1.0476685,-0.23297119,3.625,29.046875,-21.453125
116,116,1728029961270,0.14257812,-0.8804321,-0.16119385,1.890625,21.09375,-13.328125
117,117,1728029961310,-0.028564453,-1.008606,-0.11968994,-3.234375,8.734375,-13.09375
118,118,1728029961350,0.037841797,-0.88848877,-0.02178955,4.421875,17.890625,-7.53125
119,119,1728029961390,0.087646484,-0.7073364,-0.08453369,6.90625,11.15625,-7.90625
120,120,1728029961430,-0.032470703,-0.8045044,0.021911621,8.078125,7.34375,-9.421875
121,121,1728029961470,-0.09814453,-0.8179321,0.003112793,7.03125,15.515625,-7.125
122,122,1728029961510,-0.06347656,-0.77838135,0.01751709,3.71875,15.6875,-8.078125
123,123,1728029961550,-0.10107422,-0.83843994,0.042907715,-0.640625,20.4375,-10.984375
124,124,1728029961590,-0.055664062,-0.9338989,0.004333496,-2.296875,16.765625,-4.890625
125,125,1728029961630,-0.0073242188,-0.928772,-0.0056762695,-5.828125,5.359375,1.734375
126,126,1728029961670,-0.056396484,-0.95635986,0.0758667,-8.140625,5.28125,2.296875
127,127,1728029961710,-0.07763672,-1.0122681,0.109069824,-3.9375,4.46875,5.078125
128,128,1728029961750,-0.0793457,-1.0715942,0.10028076,-10.34375,-6.765625,9.296875
129,129,1728029961790,-0.12646484,-1.1550903,0.15789795,-7.03125,-8.703125,10.671875
130,130,1728029961830,-0.16748047,-1.3379517,0.10223389,-2.640625,-3.5,9.21875
131,131,1728029961870,0.048339844,-1.5303345,0.04071045,-6.671875,1.265625,8.625
132,132,1728029961910,0.20166016,-1.2930298,-0.11505127,-5.03125,-6.25,12.9375
133,133,1728029961950,0.4038086,-0.91119385,-0.21173096,-3.0,-13.953125,26.765625
134,134,1728029961990,0.36669922,-0.94659424,-0.030822754,1.109375,-36.09375,27.203125
135,135,1728029962030,0.032470703,-0.9944458,-0.0335083,-3.453125,-24.90625,10.109375
136,136,1728029962070,0.12011719,-0.7756958,-0.023010254,5.75,-12.015625,12.96875
137,137,1728029962110,0.25830078,-0.74468994,0.07684326,-1.109375,-12.046875,7.53125
138,138,1728029962150,0.16186523,-0.8599243,0.09124756,-3.203125,-11.78125,6.953125
139,139,1728029962190,0.18847656,-0.7527466,-0.0154418945,-7.390625,-16.140625,8.890625
140,140,1728029962230,0.18017578,-0.75787354,0.09466553,1.5625,-15.421875,7.796875
141,141,1728029962270,0.19482422,-0.864563,0.12664795,-5.875,-12.84375,7.75
142,142,1728029962310,0.1850586,-0.80548096,0.101989746,0.203125,-9.765625,3.09375
143,143,1728029962350,0.17041016,-0.8320923,0.14031982,0.015625,-4.953125,-0.328125
144,144,1728029962390,0.24414062,-0.880188,0.18157959,-1.09375,-5.75,-2.890625
145,145,1728029962430,0.23461914,-0.88897705,0.25335693,2.0,-5.953125,-5.203125
146,146,1728029962470,0.14916992,-0.9939575,0.33416748,-1.15625,-5.421875,-8.40625
147,147,1728029962510,0.08276367,-1.0584106,0.29803467,2.53125,-3.15625,-13.03125
148,148,1728029962550,0.23071289,-1.1558228,0.18890381,2.859375,7.65625,-8.640625
149,149,1728029962590,0.27807617,-1.4082642,0.13543701,-2.875,-1.34375,3.84375
150,150,1728029962630,0.14770508,-1.6030884,-0.06890869,-0.109375,1.953125,-12.6875
151,151,1728029962670,0.08862305,-1.1231079,0.0040893555,4.78125,27.59375,-30.609375
152,152,1728029962710,0.096191406,-0.7954712,-0.12823486,17.765625,39.0625,-28.75
153,153,1728029962750,0.14331055,-1.0288696,-0.20245361,-4.265625,13.59375,-3.484375
154,154,1728029962790,0.13500977,-0.93414307,0.04437256,9.5625,1.53125,-10.0625
155,155,1728029962830,-0.024414062,-0.7383423,0.008483887,6.515625,4.578125,-5.859375
156,156,1728029962870,-0.048828125,-0.8345337,0.035339355,0.796875,5.78125,-2.3125
157,157,1728029962910,-0.10449219,-0.8677368,0.05657959,4.59375,14.640625,-8.203125
158,158,1728029962950,-0.0107421875,-0.8652954,0.04168701,4.515625,21.328125,-4.65625
159,159,1728029962990,0.006591797,-0.86431885,0.07537842,0.515625,15.0,-8.265625
160,160,1728029963030,-0.01977539,-0.9168091,0.11810303,5.296875,13.859375,-7.1875
161,161,1728029963070,-0.01953125,-0.8858032,0.03753662,-4.09375,8.6875,2.9375
162,162,1728029963110,-0.05517578,-0.84454346,0.11468506,-0.984375,6.46875,3.921875
163,163,1728029963150,-0.10083008,-1.003479,0.10760498,-10.6875,6.578125,5.703125
164,164,1728029963190,-0.07006836,-1.0493774,0.19573975,-6.15625,3.515625,7.609375
165,165,1728029963230,-0.055419922,-1.1150513,0.15228271,-3.203125,-6.84375,8.578125
166,166,1728029963270,-0.022705078,-1.2910767,0.066101074,2.265625,-8.1875,6.078125
167,167,1728029963310,0.15185547,-1.3794556,0.04071045,0.5625,-0.296875,4.796875
168,168,1728029963350,0.15209961,-1.4519653,-0.18804932,-4.796875,5.328125,11.171875
169,169,1728029963390,0.4477539,-1.0076294,-0.20172119,-2.984375,-8.0,23.765625
170,170,1728029963430,0.22851562,-0.8394165,-0.0095825195,-8.796875,-27.5625,17.484375
171,171,1728029963470,0.14355469,-1.0276489,0.07244873,-0.40625,-1.6875,8.859375
172,172,1728029963510,0.24194336,-0.81427,-0.061828613,-4.359375,-10.25,14.09375
173,173,1728029963550,0.24536133,-0.8574829,0.0836792,1.09375,-7.265625,6.734375
174,174,1728029963590,0.20507812,-0.82403564,0.06903076,-2.15625,-11.34375,6.234375
175,175,1728029963630,0.20166016,-0.847229,0.07684326,1.96875,-13.796875,5.78125
176,176,1728029963670,0.20703125,-0.8479614,0.062194824,4.125,-10.40625,2.046875
177,177,1728029963710,0.21044922,-0.8152466,0.085876465,4.3125,-10.890625,2.640625
178,178,1728029963750,0.20629883,-0.8381958,0.11932373,2.65625,-14.6875,3.328125
179,179,1728029963790,0.19702148,-0.8352661,0.101257324,3.03125,-14.0625,-1.515625
180,180,1728029963830,0.20678711,-0.79229736,0.14935303,2.828125,-9.796875,-3.25
181,181,1728029963870,0.23852539,-0.82891846,0.15594482,1.5625,-16.734375,-0.875
182,182,1728029963910,0.22753906,-0.9417114,0.20233154,4.1875,-9.9375,-5.0625
183,183,1728029963950,0.13574219,-0.9326782,0.23529053,2.296875,-8.703125,-5.046875
184,184,1728029963990,0.107666016,-1.0862427,0.22796631,5.484375,-4.0625,-6.328125
185,185,1728029964030,0.1472168,-1.2874146,0.18304443,0.734375,-3.78125,-4.03125
186,186,1728029964070,0.3244629,-1.4265747,0.078063965,5.84375,-5.390625,3.140625
187,187,1728029964110,0.25219727,-1.3486938,-0.09869385,1.921875,-8.5,-4.328125
188,188,1728029964150,0.096191406,-1.1819458,-0.02154541,4.390625,21.375,-24.484375
189,189,1728029964190,0.037353516,-0.90826416,-0.105041504,11.390625,37.921875,-27.15625
190,190,1728029964230,0.18969727,-0.8320923,-0.1531372,-0.90625,23.78125,-12.6875
191,191,1728029964270,0.064453125,-0.9837036,-0.08404541,-1.25,9.640625,-8.78125
192,192,1728029964310,-0.026367188,-0.8423462,0.070251465,2.21875,20.828125,-8.515625
193,193,1728029964350,0.049560547,-0.8196411,0.0045776367,-1.609375,15.625,-5.140625
194,194,1728029964390,0.1015625,-0.7966919,0.047546387,2.421875,8.296875,-7.34375
195,195,1728029964430,-0.01928711,-0.91973877,0.0758667,5.078125,16.015625,-5.640625
196,196,1728029964470,-0.061035156,-0.91290283,0.07611084,3.53125,14.125,-4.84375
197,197,1728029964510,0.032958984,-0.88726807,0.04925537,6.4375,10.921875,-5.0625
198,198,1728029964550,0.08276367,-0.8760376,0.059509277,0.5,3.734375,1.640625
199,199,1728029964590,-0.055419922,-0.8843384,0.09564209,-0.65625,-4.34375,1.484375
200,200,1728029964630,-0.107910156,-0.8870239,0.09832764,-0.734375,-0.125,5.390625
201,201,1728029964670,-0.045166016,-1.0762329,0.12298584,-5.828125,-0.546875,8.90625
202,202,1728029964710,-0.03955078,-1.2156372,0.21136475,-9.28125,-5.625,4.703125
203,203,1728029964750,-0.10180664,-1.2373657,0.14544678,1.34375,-10.875,12.265625
204,204,1728029964790,-0.039794922,-1.2415161,0.06317139,-7.5,4.59375,7.859375
205,205,1728029964830,0.3166504,-1.5637817,-0.0635376,-5.21875,1.71875,-2.375
206,206,1728029964870,0.42089844,-1.164856,-0.18707275,-1.5625,-3.171875,18.875
207,207,1728029964910,0.27954102,-0.7888794,-0.0881958,-8.640625,-14.953125,23.140625
208,208,1728029964950,0.2783203,-0.97613525,-0.007385254,-4.71875,-25.78125,18.734375
209,209,1728029964990,0.22167969,-0.9133911,0.08538818,-1.703125,-11.40625,12.796875
210,210,1728029965030,0.13769531,-0.8423462,0.034851074,1.140625,-9.828125,10.78125
211,211,1728029965070,0.19604492,-0.84503174,0.078308105,-0.515625,-2.8125,3.171875
212,212,1728029965110,0.24707031,-0.83135986,0.06390381,1.265625,-6.9375,1.1875
213,213,1728029965150,0.22973633,-0.8147583,0.09051514,-0.78125,-6.703125,4.390625
214,214,1728029965190,0.22094727,-0.76568604,0.109069824,0.921875,-10.25,4.21875
215,215,1728029965230,0.18115234,-0.7815552,0.06707764,-2.6875,-8.015625,5.21875
216,216,1728029965270,0.20629883,-0.8032837,0.1449585,-1.71875,-4.59375,-0.078125
217,217,1728029965310,0.22241211,-0.73394775,0.15789795,4.046875,-4.625,-4.609375
218,218,1728029965350,0.22753906,-0.84991455,0.19915771,-0.890625,-5.796875,-1.5
219,219,1728029965390,0.23242188,-0.98028564,0.23138428,2.625,-4.78125,-7.03125
220,220,1728029965430,0.14233398,-0.9956665,0.3222046,-0.734375,-3.515625,-12.421875
221,221,1728029965470,0.13427734,-1.1311646,0.27435303,-2.25,5.6875,-9.84375
222,222,1728029965510,0.24926758,-1.322815,0.11395264,-4.9375,11.71875,-3.25
223,223,1728029965550,0.33276367,-1.4170532,-0.08087158,-12.9375,-1.515625,4.171875
224,224,1728029965590,0.18017578,-1.3442993,-0.04888916,7.828125,9.625,-18.96875
225,225,1728029965630,0.10986328,-0.98101807,-0.1338501,26.71875,23.59375,-22.65625
226,226,1728029965670,0.13867188,-0.9746704,-0.21734619,4.53125,11.53125,-8.75
227,227,1728029965710,0.07006836,-1.0032349,-0.062561035,5.3125,4.09375,-7.09375
228,228,1728029965750,-0.11010742,-0.9055786,0.06463623,2.421875,15.078125,-14.90625
229,229,1728029965790,-0.08154297,-0.7786255,0.043640137,-4.171875,25.046875,-8.5
230,230,1728029965830,0.06689453,-0.8460083,0.07562256,1.953125,24.296875,-3.53125
231,231,1728029965870,0.1237793,-0.8713989,0.054870605,0.515625,22.0,-5.171875
232,232,1728029965910,0.05493164,-0.86676025,0.0836792,1.84375,14.890625,-5.265625
233,233,1728029965950,-0.0087890625,-0.8994751,0.1317749,-3.40625,17.5,-8.921875
234,234,1728029965990,0.022460938,-0.8609009,0.14276123,-5.25,11.21875,-4.765625
235,235,1728029966030,-0.061279297,-0.82891846,0.13128662,-10.1875,6.234375,3.015625
236,236,1728029966070,-0.06933594,-0.93878174,0.16033936,-2.109375,6.65625,1.703125
237,237,1728029966110,-0.0925293,-0.99102783,0.1486206,-4.015625,-1.671875,5.4375
238,238,1728029966150,-0.07788086,-1.06427,0.3126831,2.25,-0.984375,2.34375
239,239,1728029966190,-0.14282227,-1.0964966,0.11981201,2.203125,-7.484375,7.984375
240,240,1728029966230,0.017578125,-1.3018188,0.035827637,-9.125,3.953125,6.40625
241,241,1728029966270,0.4104004,-1.6646118,-0.13604736,-27.953125,11.515625,2.203125
242,242,1728029966310,0.24609375,-1.1997681,-0.01373291,-12.546875,-13.375,18.953125
243,243,1728029966350,0.25878906,-0.8574829,-0.10015869,-19.734375,-8.234375,28.734375
244,244,1728029966390,0.35791016,-0.96221924,0.11956787,-0.71875,-22.4375,15.765625
245,245,1728029966430,0.21484375,-0.95513916,0.12249756,3.625,-19.09375,8.125
246,246,1728029966470,0.14575195,-0.89556885,0.09466553,8.234375,-12.875,7.4375
247,247,1728029966510,0.20483398,-0.89849854,0.13519287,9.9375,-8.578125,4.28125
248,248,1728029966550,0.2331543,-0.8484497,0.10809326,3.234375,-16.09375,-0.890625
249,249,1728029966590,0.17114258,-0.83477783,0.1630249,12.265625,-7.421875,0.390625
250,250,1728029966630,0.14477539,-0.76275635,0.17840576,9.234375,-13.59375,4.578125
251,251,1728029966670,0.16796875,-0.6851196,0.1383667,8.796875,-11.34375,2.15625
252,252,1728029966710,0.17895508,-0.7149048,0.14666748,4.953125,-15.0,-3.484375
253,253,1728029966750,0.16064453,-0.8062134,0.17401123,1.9375,-12.953125,-5.375
254,254,1728029966790,0.21386719,-0.85235596,0.18939209,5.640625,-8.46875,0.921875
255,255,1728029966830,0.2421875,-0.8965454,0.22698975,-1.5,-10.28125,-0.734375
256,256,1728029966870,0.036865234,-1.133606,0.34954834,-1.921875,-6.921875,-5.984375
257,257,1728029966910,0.1730957,-1.0952759,0.19500732,7.1875,-6.53125,-6.5
258,258,1728029966950,0.15649414,-1.2080688,0.21478271,-3.703125,-2.1875,-3.109375
259,259,1728029966990,0.12841797,-1.6777954,0.16888428,-10.046875,0.921875,2.0625
260,260,1728029967030,0.27856445,-1.3301392,-0.14312744,8.90625,14.46875,-20.3125
261,261,1728029967070,0.1706543,-0.9170532,0.043151855,7.578125,21.046875,-22.40625
262,262,1728029967110,0.10058594,-0.7461548,-0.1260376,13.203125,20.34375,-14.734375
263,263,1728029967150,0.12182617,-1.0159302,-0.21832275,-7.0625,8.96875,-1.671875
264,264,1728029967190,0.064453125,-0.9246216,0.1408081,8.796875,11.0,-8.625
265,265,1728029967230,-0.0021972656,-0.8731079,-0.0032348633,1.453125,8.4375,-5.046875
266,266,1728029967270,0.026855469,-0.8386841,0.06561279,-1.6875,4.453125,-6.828125
267,267,1728029967310,-0.016845703,-0.8689575,0.08758545,1.34375,12.609375,-6.359375
268,268,1728029967350,0.07128906,-0.8792114,0.08782959,0.109375,9.296875,-3.8125
269,269,1728029967390,0.018798828,-0.8323364,0.046569824,3.078125,5.375,-10.734375
270,270,1728029967430,-0.020751953,-0.8345337,0.13690186,0.234375,5.0,-4.375
271,271,1728029967470,0.0087890625,-0.88482666,0.11810303,-3.65625,2.03125,1.65625
272,272,1728029967510,-0.04272461,-0.8699341,0.09832764,-0.296875,0.09375,4.6875
273,273,1728029967550,-0.12597656,-0.9932251,0.19354248,-6.46875,-3.640625,8.046875
274,274,1728029967590,0.16455078,-1.4907837,-0.12310791,11.203125,4.765625,-2.53125
275,275,1728029967630,0.07495117,-1.451477,-0.031311035,5.125,8.578125,-14.125
276,276,1728029967670,-0.032958984,-1.0562134,-0.08648682,10.8125,32.484375,-23.71875
277,277,1728029967710,0.005859375,-1.0073853,-0.117248535,18.0625,21.65625,-9.234375
278,278,1728029967750,-0.005126953,-0.85943604,-0.15435791,0.71875,17.296875,-4.015625
279,279,1728029967790,-0.09765625,-0.8911743,0.058288574,2.234375,30.65625,-5.171875
280,280,1728029967830,0.012207031,-0.9326782,0.07635498,-7.03125,25.0,1.859375
281,281,1728029967870,0.09423828,-0.7359009,0.0446167,11.46875,15.015625,7.390625
282,282,1728029967910,0.08911133,-0.86920166,0.008972168,4.34375,12.21875,5.640625
283,283,1728029967950,-0.001953125,-0.9295044,0.044128418,4.8125,5.171875,-2.59375
284,284,1728029967990,-0.0053710938,-0.82232666,0.07293701,5.953125,8.40625,-3.765625
285,285,1728029968030,-0.0036621094,-0.88482666,0.07122803,-4.109375,3.703125,1.375
286,286,1728029968070,-0.043701172,-0.8735962,0.0680542,-2.421875,-0.15625,1.53125
287,287,1728029968110,-0.07470703,-0.960022,0.15203857,0.25,-3.578125,8.90625
288,288,1728029968150,-0.10107422,-0.98443604,0.051696777,-11.453125,-3.875,5.96875
289,289,1728029968190,-0.107910156,-0.9348755,0.14398193,2.421875,3.734375,2.375
290,290,1728029968230,-0.14697266,-1.0830688,0.07733154,-2.328125,0.46875,1.078125
291,291,1728029968270,0.016845703,-1.0808716,0.08856201,6.5625,12.421875,0.859375
292,292,1728029968310,0.046142578,-1.1941528,-0.020080566,4.75,11.0,2.0625
293,293,1728029968350,-0.030761719,-1.3694458,-0.05279541,-4.15625,-2.203125,6.71875
294,294,1728029968390,0.11328125,-1.3088989,-0.02154541,2.96875,12.609375,6.046875
295,295,1728029968430,0.30395508,-1.125061,-0.18780518,-3.328125,3.21875,7.53125
296,296,1728029968470,0.5083008,-0.95977783,-0.10821533,-13.0,-20.15625,16.71875
297,297,1728029968510,0.27685547,-0.9402466,0.02508545,-0.890625,-27.671875,15.375
298,298,1728029968550,0.17260742,-0.9651489,-0.08721924,-11.0625,-11.96875,11.46875
299,299,1728029968590,0.3564453,-0.8587036,-0.0335083,-0.34375,-17.234375,12.46875
300,300,1728029968630,0.23608398,-0.8464966,0.08685303,0.09375,-25.40625,7.75
301,301,1728029968670,0.1430664,-0.8904419,0.05218506,1.3125,-13.78125,6.796875
302,302,1728029968710,0.24389648,-0.8250122,0.038024902,6.03125,-16.671875,5.765625
303,303,1728029968750,0.21044922,-0.81573486,0.05706787,3.734375,-16.390625,7.140625
304,304,1728029968790,0.14770508,-0.8284302,0.066101074,0.96875,-15.5625,4.984375
305,305,1728029968830,0.13745117,-0.8218384,0.06097412,-1.3125,-7.0625,4.890625
306,306,1728029968870,0.18896484,-0.8574829,0.0848999,-4.609375,-8.734375,0.359375
307,307,1728029968910,0.18603516,-0.8311157,0.16619873,-3.328125,0.359375,-4.734375
308,308,1728029968950,0.27807617,-0.897522,0.17523193,-1.546875,-1.6875,-2.84375
309,309,1728029968990,0.2541504,-0.8755493,0.22332764,-5.296875,-0.375,-5.71875
310,310,1728029969030,0.14990234,-1.0205688,0.28167725,-4.078125,3.765625,-9.65625
311,311,1728029969070,0.19921875,-1.055481,0.22235107,2.953125,7.515625,-10.484375
312,312,1728029969110,0.27294922,-1.1240845,0.15716553,-1.3125,12.625,-6.5
313,313,1728029969150,0.2854004,-1.5950317,0.09295654,-20.34375,1.546875,-4.53125
314,314,1728029969190,0.17626953,-1.2854614,0.058288574,1.171875,8.5,-17.515625
315,315,1728029969230,0.109375,-1.1130981,0.054138184,6.859375,12.109375,-27.953125
316,316,1728029969270,-0.05810547,-0.90753174,-0.09112549,9.453125,24.421875,-21.75
317,317,1728029969310,0.119628906,-0.8467407,-0.16192627,4.0,27.703125,-4.5625
318,318,1728029969350,-0.004638672,-0.9951782,-0.05718994,2.78125,10.5625,-7.265625
319,319,1728029969390,-0.013671875,-0.89923096,0.022155762,0.359375,11.390625,-9.703125
320,320,1728029969430,0.09301758,-0.8418579,-0.0005493164,-1.328125,11.578125,-0.734375
321,321,1728029969470,0.099365234,-0.8982544,0.06072998,-1.75,0.578125,0.390625
322,322,1728029969510,-0.068115234,-0.86309814,0.09906006,4.5625,5.640625,-6.4375
323,323,1728029969550,-0.1081543,-0.8118286,0.10369873,8.0,14.21875,-6.78125
324,324,1728029969590,0.020751953,-0.85479736,0.09954834,8.453125,13.453125,-5.625
325,325,1728029969630,0.0075683594,-0.90948486,0.061706543,7.21875,3.8125,-2.9375
326,326,1728029969670,-0.001953125,-0.9170532,0.07171631,2.671875,4.125,-0.15625
327,327,1728029969710,-0.053222656,-0.86016846,0.101501465,6.21875,3.625,0.703125
328,328,1728029969750,-0.0703125,-0.9944458,0.098083496,4.390625,7.3125,6.1875
329,329,1728029969790,0.075683594,-1.0459595,0.07684326,-7.03125,-4.53125,7.984375
330,330,1728029969830,-0.057861328,-0.99713135,0.11151123,4.53125,-3.078125,1.078125
331,331,1728029969870,-0.14208984,-1.1658325,0.13568115,-5.28125,-5.1875,5.59375
332,332,1728029969910,0.12670898,-1.3994751,0.08392334,6.203125,-10.5625,8.0
333,333,1728029969950,0.07299805,-1.361145,-0.077941895,0.046875,-9.0625,8.109375
334,334,1728029969990,0.026367188,-1.3323364,-0.04425049,0.265625,-1.25,9.71875
335,335,1728029970030,0.4736328,-1.0266724,-0.19488525,-0.453125,-13.6875,13.890625
336,336,1728029970070,0.33813477,-0.83306885,-0.0017700195,-11.8125,-20.3125,11.390625
337,337,1728029970110,0.09277344,-0.9817505,-6.1035156e-05,-5.53125,-7.125,4.984375
338,338,1728029970150,0.26391602,-0.8648071,-0.066223145,5.734375,-9.9375,8.15625
339,339,1728029970190,0.17211914,-0.7463989,0.05218506,-1.625,-11.3125,1.9375
340,340,1728029970230,0.16821289,-0.8743286,0.055358887,1.484375,-5.359375,4.140625
341,341,1728029970270,0.23266602,-0.87164307,0.07171631,1.4375,-9.53125,6.546875
342,342,1728029970310,0.13330078,-0.7752075,0.036071777,7.9375,-11.234375,5.640625
343,343,1728029970350,0.13964844,-0.81378174,0.020202637,2.140625,-11.234375,7.328125
344,344,1728029970390,0.17236328,-0.84869385,0.09832764,6.328125,-11.46875,4.34375
345,345,1728029970430,0.17602539,-0.7866821,0.089538574,8.609375,-9.671875,-1.421875
346,346,1728029970470,0.17480469,-0.8789673,0.101257324,3.125,-7.40625,-4.09375
347,347,1728029970510,0.25927734,-0.97125244,0.11859131,2.421875,-7.5,-1.765625
348,348,1728029970550,0.19604492,-0.9680786,0.15814209,3.546875,-5.03125,-5.765625
349,349,1728029970590,0.0871582,-1.0422974,0.18182373,-6.359375,-2.8125,-8.4375
350,350,1728029970630,0.17016602,-1.1746216,0.14056396,-0.265625,4.96875,-10.625
351,351,1728029970670,0.2548828,-1.2481079,0.1149292,-5.625,1.859375,-7.296875
352,352,1728029970710,0.32958984,-1.3870239,0.04071045,-9.171875,-2.640625,-5.828125
353,353,1728029970750,0.15405273,-1.4590454,-0.12017822,-3.5625,0.03125,-9.65625
354,354,1728029970790,-0.061767578,-1.0010376,-0.047912598,10.625,27.765625,-26.875
355,355,1728029970830,-0.001953125,-0.8377075,-0.1038208,10.859375,25.09375,-12.890625
356,356,1728029970870,0.0949707,-1.0391235,-0.18585205,-2.140625,16.453125,-10.453125
357,357,1728029970910,0.021972656,-0.9624634,0.027038574,4.125,24.328125,-9.5625
358,358,1728029970950,0.060791016,-0.7625122,0.0289917,6.78125,16.03125,-4.84375
359,359,1728029970990,0.055664062,-0.7000122,-0.04034424,-4.15625,6.90625,-3.75
360,360,1728029971030,-0.045898438,-0.8526001,0.05657959,15.1875,16.828125,-3.453125
361,361,1728029971070,-0.00390625,-0.8401489,-0.007385254,2.65625,18.75,-2.609375
362,362,1728029971110,0.040771484,-0.82037354,0.02508545,5.21875,8.203125,-4.28125
363,363,1728029971150,0.0036621094,-0.9026489,0.027038574,3.0,5.640625,-1.109375
364,364,1728029971190,0.044433594,-0.90338135,0.014587402,2.109375,-2.34375,4.59375
365,365,1728029971230,-0.08300781,-0.895813,0.031433105,-0.859375,-6.765625,4.5
366,366,1728029971270,-0.07495117,-0.9944458,0.10882568,-7.03125,-5.984375,7.84375
367,367,1728029971310,-0.0703125,-1.1221313,0.077819824,-6.171875,-5.703125,5.796875
368,368,1728029971350,-0.048583984,-1.2637329,0.21966553,-1.390625,-7.40625,8.375
369,369,1728029971390,-0.018066406,-1.2710571,0.016296387,-6.0,-9.46875,7.921875
370,370,1728029971430,0.021972656,-1.303772,0.05999756,2.09375,6.703125,3.578125
371,371,1728029971470,0.06591797,-1.3518677,-0.1494751,-0.421875,-0.03125,7.015625
372,372,1728029971510,0.29760742,-1.0061646,-0.2312622,3.078125,-1.40625,18.015625
373,373,1728029971550,0.4074707,-0.83551025,-0.16021729,-8.890625,-16.015625,18.75
374,374,1728029971590,0.21459961,-1.0188599,-0.024963379,-7.0,-18.875,11.828125
375,375,1728029971630,0.17822266,-0.8870239,-0.034240723,2.734375,-4.515625,11.71875
376,376,1728029971670,0.27612305,-0.8467407,-0.057434082,1.78125,-9.40625,8.109375
377,377,1728029971710,0.18383789,-0.87384033,0.051208496,-1.578125,-11.515625,3.328125
378,378,1728029971750,0.15551758,-0.80059814,0.034362793,0.71875,-11.15625,5.28125
379,379,1728029971790,0.2277832,-0.79351807,-0.0413208,-3.34375,-13.578125,2.234375
380,380,1728029971830,0.20507812,-0.7781372,0.07537842,-1.109375,-21.484375,2.53125
381,381,1728029971870,0.14501953,-0.8115845,0.08758545,0.15625,-14.015625,3.21875
382,382,1728029971910,0.15039062,-0.8682251,0.098083496,2.625,-12.9375,-2.515625
383,383,1728029971950,0.21533203,-0.84088135,0.09490967,0.59375,-9.65625,-3.921875
384,384,1728029971990,0.21069336,-0.85479736,0.2020874,0.671875,-6.109375,-3.8125
385,385,1728029972030,0.2421875,-0.97735596,0.15252686,3.84375,-11.65625,-2.25
386,386,1728029972070,0.15112305,-1.0598755,0.17962646,4.5,-2.15625,-8.1875
387,387,1728029972110,0.19116211,-1.0784302,0.18450928,6.359375,0.234375,-9.953125
388,388,1728029972150,0.24121094,-1.3547974,0.11444092,-3.4375,-0.421875,-2.484375
389,389,1728029972190,0.3173828,-1.4251099,-0.12188721,-1.5,4.96875,-9.609375
390,390,1728029972230,0.10058594,-1.295227,-0.077941895,-2.265625,13.109375,-21.1875
391,391,1728029972270,-0.03955078,-1.0823364,-0.1428833,3.5,41.5,-30.65625
392,392,1728029972310,0.09350586,-0.86505127,-0.17828369,10.171875,38.640625,-17.546875
393,393,1728029972350,0.07373047,-0.93414307,-0.14263916,-2.53125,18.171875,-10.21875
394,394,1728029972390,0.0061035156,-0.8965454,-0.015930176,2.03125,26.859375,-7.96875
395,395,1728029972430,0.017089844,-0.7703247,-0.059143066,-0.25,28.546875,-5.75
396,396,1728029972470,0.045410156,-0.7901001,-0.019836426,-2.0,20.046875,-7.96875
397,397,1728029972510,-0.009033203,-0.8088989,0.062683105,0.453125,19.640625,-5.96875
398,398,1728029972550,0.009521484,-0.7835083,0.028503418,0.546875,18.90625,-1.4375
399,399,1728029972590,-0.0048828125,-0.8743286,0.042175293,0.453125,10.140625,-4.953125
400,400,1728029972630,-0.05053711,-0.9446411,0.046325684,-9.515625,3.53125,-2.484375
401,401,1728029972670,-0.017578125,-0.8982544,0.13909912,-0.8125,7.984375,0.265625
402,402,1728029972710,-0.05908203,-0.91973877,0.07513428,-3.84375,3.046875,4.625
403,403,1728029972750,-0.011230469,-0.99591064,0.09613037,-1.765625,-3.546875,7.515625
404,404,1728029972790,-0.032226562,-1.0076294,0.1864624,1.96875,-5.671875,7.875
405,405,1728029972830,-0.110839844,-1.1594849,0.13201904,-1.59375,-7.09375,10.125
406,406,1728029972870,-0.06713867,-1.4885864,0.16351318,-6.25,-3.859375,10.203125
407,407,1728029972910,0.061523438,-1.2202759,0.017028809,-9.9375,12.4375,9.109375
408,408,1728029972950,0.1616211,-1.3135376,-0.108947754,-16.328125,5.234375,12.203125
409,409,1728029972990,0.5358887,-1.1116333,-0.046203613,-13.21875,-13.390625,29.328125
410,410,1728029973030,0.29858398,-0.8272095,-0.042053223,-15.21875,-33.84375,22.4375
411,411,1728029973070,0.15551758,-1.1431274,0.08856201,-3.90625,-20.890625,11.9375
412,412,1728029973110,0.29858398,-0.9385376,0.06732178,0.84375,-20.609375,12.6875
413,413,1728029973150,0.15991211,-0.8196411,0.13641357,4.09375,-17.375,3.421875
414,414,1728029973190,0.09765625,-0.88775635,0.12640381,10.203125,-11.984375,5.234375
415,415,1728029973230,0.22167969,-0.80792236,0.070007324,9.9375,-6.9375,5.609375
416,416,1728029973270,0.23852539,-0.769104,0.09881592,8.34375,-11.96875,0.609375
417,417,1728029973310,0.1862793,-0.74957275,0.1408081,4.9375,-12.5625,3.71875
418,418,1728029973350,0.14013672,-0.737854,0.120788574,6.234375,-13.71875,1.421875
419,419,1728029973390,0.13671875,-0.79156494,0.13665771,1.859375,-6.640625,-1.15625
420,420,1728029973430,0.22875977,-0.9138794,0.14886475,3.875,0.421875,-2.703125
421,421,1728029973470,0.28344727,-0.8052368,0.18572998,5.21875,-2.484375,-4.984375
422,422,1728029973510,0.18237305,-0.96466064,0.29559326,7.421875,1.53125,-8.578125
423,423,1728029973550,0.14453125,-1.1416626,0.23504639,11.96875,2.28125,-14.109375
424,424,1728029973590,0.19018555,-1.4092407,0.14544678,9.578125,1.3125,-12.1875
425,425,1728029973630,0.3388672,-1.4192505,-0.15020752,10.859375,-0.296875,-5.28125
426,426,1728029973670,0.16137695,-1.3335571,-0.13995361,1.1875,3.4375,-13.734375
427,427,1728029973710,-0.004638672,-1.0327759,-0.11016846,3.3125,24.40625,-25.4375
428,428,1728029973750,0.020507812,-0.9248657,-0.16168213,4.828125,27.5625,-19.609375
429,429,1728029973790,0.0061035156,-0.9612427,-0.19073486,-2.03125,19.40625,-16.578125
430,430,1728029973830,-0.01928711,-0.95391846,-0.0134887695,6.78125,24.6875,-11.484375
431,431,1728029973870,0.04272461,-0.82354736,-0.06304932,-0.890625,12.796875,-9.515625
432,432,1728029973910,0.024658203,-0.79571533,0.0067749023,8.59375,11.484375,-10.90625
433,433,1728029973950,-0.020507812,-0.83184814,0.009216309,3.03125,10.234375,-6.125
434,434,1728029973990,-0.049804688,-0.7859497,-0.0012817383,8.484375,5.859375,-4.3125
435,435,1728029974030,-0.03881836,-0.7974243,-0.0010375977,1.265625,3.09375,-3.359375
436,436,1728029974070,-0.025878906,-0.8491821,0.051696777,5.921875,1.109375,-1.703125
437,437,1728029974110,-0.087402344,-0.9258423,0.0014038086,1.296875,-2.234375,4.40625
438,438,1728029974150,-0.123291016,-0.95635986,-0.01763916,-3.9375,-5.53125,4.9375
439,439,1728029974190,-0.10546875,-0.9656372,0.07342529,-4.90625,-2.203125,6.890625
440,440,1728029974230,-0.07446289,-1.0969849,0.13397217,-3.90625,-5.453125,10.140625
441,441,1728029974270,-0.07299805,-1.236145,0.113708496,-12.90625,-13.828125,9.65625
442,442,1728029974310,-0.053710938,-1.3069458,0.027038574,-0.4375,-11.078125,9.6875
443,443,1728029974350,0.075683594,-1.4295044,0.040222168,-7.34375,-6.34375,8.09375
444,444,1728029974390,0.19946289,-1.4727173,-0.12335205,-3.359375,-9.375,8.671875
445,445,1728029974430,0.41992188,-0.9246216,-0.20904541,2.28125,-16.390625,21.3125
446,446,1728029974470,0.13745117,-0.7835083,-0.06378174,-10.28125,-29.96875,21.953125
447,447,1728029974510,0.1027832,-1.0447388,-0.03643799,-4.984375,-13.71875,10.453125
448,448,1728029974550,0.24316406,-0.8399048,-0.089660645,-0.59375,-9.9375,12.484375
449,449,1728029974590,0.24072266,-0.7317505,0.081726074,-6.21875,-11.671875,6.109375
450,450,1728029974630,0.14990234,-0.85040283,0.08807373,-4.734375,-13.546875,9.125
451,451,1728029974670,0.17285156,-0.87628174,0.023376465,-4.90625,-11.4375,6.8125
452,452,1728029974710,0.15307617,-0.81207275,0.05999756,4.53125,-10.421875,2.78125
453,453,1728029974750,0.19750977,-0.84991455,0.113464355,-0.796875,-7.265625,5.6875
454,454,1728029974790,0.1694336,-0.79937744,0.10028076,-0.484375,-9.125,0.421875
455,455,1728029974830,0.16455078,-0.81085205,0.14300537,1.15625,-6.96875,-0.921875
456,456,1728029974870,0.24926758,-0.83721924,0.13226318,-0.59375,-5.46875,-1.546875
457,457,1728029974910,0.22363281,-0.85601807,0.16326904,2.59375,-5.859375,-3.109375
458,458,1728029974950,0.17163086,-0.92681885,0.18109131,1.359375,-6.359375,-4.03125
459,459,1728029974990,0.076416016,-1.0029907,0.2255249,2.875,0.0625,-10.875
460,460,1728029975030,0.08886719,-1.0266724,0.22894287,6.484375,3.75,-9.765625
461,461,1728029975070,0.19921875,-1.2022095,0.17523193,-3.765625,10.15625,-2.453125
462,462,1728029975110,0.24438477,-1.5811157,-0.04156494,-13.734375,-0.25,0.796875
463,463,1728029975150,0.24291992,-1.3406372,-0.0037231445,3.25,10.0625,-19.09375
464,464,1728029975190,0.12841797,-1.1633911,0.042663574,8.84375,24.765625,-25.15625
465,465,1728029975230,0.107910156,-0.87701416,-0.19708252,8.484375,33.140625,-19.265625
466,466,1728029975270,0.08544922,-0.98101807,-0.16412354,-6.609375,23.671875,-10.671875
467,467,1728029975310,0.01586914,-0.9639282,0.07611084,7.65625,26.921875,-19.21875
468,468,1728029975350,0.07080078,-0.8008423,-0.03643799,2.59375,26.9375,-8.234375
469,469,1728029975390,0.12402344,-0.800354,-0.017150879,3.1875,12.234375,-4.359375
470,470,1728029975430,0.010009766,-0.815979,0.042175293,2.625,10.921875,-5.78125
471,471,1728029975470,-0.028320312,-0.8569946,0.03289795,2.40625,7.5,-4.0
472,472,1728029975510,-0.032714844,-0.83306885,0.03753662,-6.59375,2.359375,-6.5
473,473,1728029975550,-0.041992188,-0.83917236,0.12908936,-1.09375,11.484375,-8.34375
474,474,1728029975590,-0.036621094,-0.92388916,0.062683105,-4.390625,5.6875,-2.875
475,475,1728029975630,-0.00048828125,-0.9234009,0.05682373,-3.890625,-0.28125,-0.21875
476,476,1728029975670,-0.087890625,-0.8789673,0.12225342,-1.671875,0.171875,0.34375
477,477,1728029975710,-0.06591797,-1.0198364,0.14642334,-1.109375,0.75,4.25
478,478,1728029975750,0.0068359375,-1.0525513,0.18353271,-1.5625,-4.4375,7.21875
479,479,1728029975790,-0.103515625,-1.1277466,0.13031006,-2.609375,-13.578125,10.65625
480,480,1728029975830,-0.10473633,-1.2979126,0.09613037,7.015625,-1.78125,14.953125
481,481,1728029975870,0.18188477,-1.5845337,0.1359253,-0.625,8.0625,7.140625
482,482,1728029975910,-0.00048828125,-1.3174438,-0.011047363,-9.125,-6.625,13.5625
483,483,1728029975950,0.20141602,-0.8821411,-0.17266846,9.109375,-7.078125,20.8125
484,484,1728029975990,0.25683594,-0.92510986,-0.13043213,0.53125,-7.515625,23.265625
485,485,1728029976030,0.13720703,-1.1567993,-0.0029907227,-6.40625,-13.453125,8.671875
486,486,1728029976070,0.23217773,-0.8579712,-0.07330322,-2.78125,-10.765625,13.375
487,487,1728029976110,0.18139648,-0.82354736,0.039245605,-4.84375,-14.34375,3.296875
488,488,1728029976150,0.0703125,-0.85040283,0.07659912,-4.109375,-4.71875,3.3125
489,489,1728029976190,0.17260742,-0.87213135,0.06536865,-2.28125,-6.359375,5.875
490,490,1728029976230,0.24389648,-0.85723877,0.089782715,0.171875,-7.546875,0.453125
491,491,1728029976270,0.12231445,-0.75860596,0.06341553,-2.78125,-8.84375,1.78125
492,492,1728029976310,0.14160156,-0.78375244,0.11199951,3.953125,-3.40625,1.953125
493,493,1728029976350,0.15161133,-0.83062744,0.13519287,0.046875,-8.09375,-2.890625
494,494,1728029976390,0.17089844,-0.86016846,0.14398193,0.703125,-2.171875,-3.9375
495,495,1728029976430,0.18798828,-0.8687134,0.14251709,1.796875,-2.296875,-3.609375
496,496,1728029976470,0.20581055,-0.9319458,0.18304443,2.6875,-5.203125,-2.921875
497,497,1728029976510,0.052734375,-1.0359497,0.24871826,1.984375,-5.515625,-9.4375
498,498,1728029976550,0.008056641,-1.0974731,0.2675171,2.453125,3.09375,-11.34375
499,499,1728029976590,0.16748047,-1.3081665,0.14984131,-6.203125,2.953125,-2.1875
500,500,1728029976630,0.28686523,-1.5117798,0.043151855,3.53125,1.1875,0.375
501,501,1728029976670,0.22094727,-1.3189087,-0.058166504,6.609375,-5.765625,-10.5
502,502,1728029976710,0.13208008,-1.1653442,0.0040893555,1.125,19.46875,-25.15625
503,503,1728029976750,0.07324219,-0.80718994,-0.09161377,16.109375,26.109375,-25.703125
504,504,1728029976790,0.119140625,-0.9585571,-0.253479,-3.515625,14.515625,-9.828125
505,505,1728029976830,0.03955078,-0.9277954,0.051208496,4.71875,12.875,-10.171875
506,506,1728029976870,-0.036621094,-0.75128174,-0.00079345703,8.515625,12.265625,-6.609375
507,507,1728029976910,0.056396484,-0.8088989,-0.015686035,1.09375,12.328125,-6.265625
508,508,1728029976950,0.040771484,-0.8640747,0.043395996,3.1875,6.859375,-1.078125
509,509,1728029976990,-0.040039062,-0.87750244,0.0038452148,6.640625,8.75,0.21875
510,510,1728029977030,-0.041503906,-0.8821411,0.02166748,2.828125,6.84375,-6.0625
511,511,1728029977070,-0.04345703,-0.8648071,0.055847168,2.046875,6.59375,-4.078125
512,512,1728029977110,-0.029296875,-0.8711548,0.06951904,0.21875,12.25,3.84375
513,513,1728029977150,-0.03564453,-0.8897095,0.062438965,-1.53125,-2.625,4.015625
514,514,1728029977190,-0.07861328,-0.9495239,0.054870605,-0.953125,1.6875,7.171875
515,515,1728029977230,0.037841797,-0.9524536,0.070251465,-1.4375,2.0,11.0625
516,516,1728029977270,0.033691406,-1.0320435,0.12420654,-3.140625,-10.671875,7.484375
517,517,1728029977310,-0.24047852,-1.0806274,0.15545654,-0.9375,-5.1875,6.84375
518,518,1728029977350,-0.05834961,-1.3035278,0.09100342,1.734375,0.6875,12.90625
519,519,1728029977390,0.43359375,-1.7197876,-0.12554932,-12.234375,-14.765625,9.859375
520,520,1728029977430,0.20483398,-1.3272095,-0.07281494,0.796875,-1.9375,15.171875
521,521,1728029977470,0.24902344,-0.9212036,-0.15777588,-10.640625,-11.75,21.734375
522,522,1728029977510,0.22265625,-0.87994385,-0.02545166,-8.453125,-22.21875,16.34375
523,523,1728029977550,0.11352539,-0.94659424,0.047058105,-5.328125,-5.171875,6.296875
524,524,1728029977590,0.2133789,-0.8711548,-0.030578613,-2.734375,-1.359375,5.875
525,525,1728029977630,0.3425293,-0.85650635,0.0680542,-1.90625,-7.125,5.09375
526,526,1728029977670,0.22387695,-0.85479736,0.097351074,1.1875,-13.71875,7.0625
527,527,1728029977710,0.13647461,-0.82281494,0.066101074,5.4375,-10.625,1.9375
528,528,1728029977750,0.16088867,-0.7979126,0.06317139,6.703125,-9.71875,2.46875
529,529,1728029977790,0.23657227,-0.81744385,0.10882568,3.609375,-14.703125,4.34375
530,530,1728029977830,0.19335938,-0.79034424,0.12860107,2.75,-15.609375,0.375
531,531,1728029977870,0.11303711,-0.76226807,0.14422607,-0.890625,-13.328125,-3.15625
532,532,1728029977910,0.18261719,-0.739563,0.17352295,7.03125,-7.921875,-7.203125
533,533,1728029977950,0.2121582,-0.86431885,0.19256592,-1.390625,-11.234375,-3.15625
534,534,1728029977990,0.22827148,-0.9356079,0.1954956,3.265625,-9.4375,-4.296875
535,535,1728029978030,0.07910156,-0.99298096,0.32537842,-0.375,-4.625,-8.734375
536,536,1728029978070,0.052246094,-1.1060181,0.2892456,3.1875,-7.109375,-8.8125
537,537,1728029978110,0.2644043,-1.125061,0.17181396,6.5,-2.671875,-1.703125
538,538,1728029978150,0.20532227,-1.5645142,-0.020324707,-16.46875,-15.859375,8.484375
539,539,1728029978190,0.20605469,-1.4507446,-0.02960205,4.125,5.75,-14.15625
540,540,1728029978230,0.18603516,-1.1851196,-0.03375244,14.015625,23.84375,-25.28125
541,541,1728029978270,0.088134766,-0.8418579,-0.10772705,3.515625,33.375,-22.1875
542,542,1728029978310,0.095458984,-0.9480591,-0.1741333,4.96875,16.953125,-7.34375
543,543,1728029978350,0.01171875,-0.98028564,-0.007873535,-1.90625,4.09375,-3.96875
544,544,1728029978390,-0.06616211,-0.9043579,0.059265137,-1.1875,24.46875,-8.890625
545,545,1728029978430,0.0014648438,-0.8340454,0.038269043,-0.671875,23.359375,-7.484375
546,546,1728029978470,0.087890625,-0.7620239,0.09197998,4.203125,15.5,-5.265625
547,547,1728029978510,0.08984375,-0.8513794,0.04510498,0.953125,16.140625,-1.1875
548,548,1728029978550,-0.0073242188,-0.89263916,0.07733154,-7.421875,12.125,-6.96875
549,549,1728029978590,-0.05493164,-0.86309814,0.113708496,-4.984375,10.78125,-8.65625
550,550,1728029978630,0.049072266,-0.84820557,0.10418701,-9.21875,14.53125,1.203125
551,551,1728029978670,-0.012451172,-0.87701416,0.101745605,-7.53125,-0.171875,2.4375
552,552,1728029978710,-0.09082031,-0.9663696,0.18499756,-7.109375,-1.640625,4.859375
553,553,1728029978750,-0.114990234,-0.9663696,0.21282959,-9.40625,-0.828125,4.6875
554,554,1728029978790,-0.11352539,-1.0803833,0.2711792,-5.109375,-1.296875,6.796875
555,555,1728029978830,-0.03125,-1.2070923,0.21307373,1.46875,-3.28125,2.453125
556,556,1728029978870,-0.20385742,-1.3147583,0.1293335,4.140625,4.84375,4.453125
557,557,1728029978910,0.18579102,-1.6975708,0.09539795,-5.9375,15.796875,-1.09375
558,558,1728029978950,0.36767578,-1.1807251,-0.09698486,-5.03125,-6.515625,13.484375
559,559,1728029978990,0.11669922,-0.96539307,-0.034484863,0.453125,-8.53125,7.546875
560,560,1728029979030,0.04638672,-1.4119263,-0.06427002,1.40625,12.34375,-16.671875
561,561,1728029979070,0.10058594,-1.1690063,-0.0413208,-1.59375,18.265625,-18.40625
562,562,1728029979110,0.07324219,-0.98516846,-0.043273926,2.171875,24.265625,-17.234375
563,563,1728029979150,-0.020996094,-0.9846802,-0.18658447,1.859375,18.75,-13.34375
564,564,1728029979190,-0.015136719,-0.95928955,-0.031555176,-6.03125,21.421875,-12.46875
565,565,1728029979230,0.064208984,-0.85479736,0.06585693,3.078125,14.390625,-5.125
566,566,1728029979270,0.079589844,-0.9102173,0.04437256,-1.5625,4.53125,-1.640625
567,567,1728029979310,-0.09057617,-0.75909424,0.070495605,-2.609375,11.421875,-4.265625
568,568,1728029979350,-0.13867188,-0.78009033,0.04144287,2.28125,24.78125,-6.890625
569,569,1728029979390,-0.013427734,-0.88531494,0.016540527,-3.765625,19.828125,-8.8125
570,570,1728029979430,0.0009765625,-0.8909302,0.08465576,-1.328125,17.640625,-3.8125
571,571,1728029979470,-0.010009766,-1.0054321,0.13250732,-8.890625,11.53125,-4.640625
572,572,1728029979510,-0.03125,-0.9570923,0.08343506,1.0625,8.078125,-3.640625
573,573,1728029979550,-0.05908203,-0.82940674,0.11883545,-2.65625,7.53125,3.296875
574,574,1728029979590,-0.06738281,-0.93463135,0.14715576,-3.953125,3.28125,5.765625
575,575,1728029979630,-0.09814453,-0.9536743,0.10662842,0.546875,2.53125,8.828125
576,576,1728029979670,-0.11376953,-0.9819946,0.18475342,-0.796875,-1.328125,9.171875
577,577,1728029979710,-0.036621094,-1.1384888,0.18377686,-1.828125,-11.015625,8.90625
578,578,1728029979750,-0.12841797,-1.1065063,0.13201904,6.765625,-0.25,9.875
579,579,1728029979790,-0.030517578,-1.404602,0.14251709,2.34375,10.515625,3.234375
580,580,1728029979830,0.21777344,-1.6192017,-0.16363525,-6.0,2.546875,1.28125
581,581,1728029979870,0.3564453,-1.1170044,-0.07696533,1.71875,-1.46875,10.859375
582,582,1728029979910,0.31054688,-0.88360596,-0.04840088,-4.671875,-9.4375,12.453125
583,583,1728029979950,0.12011719,-0.92437744,0.013122559,-0.265625,-26.3125,11.953125
584,584,1728029979990,0.13061523,-0.8760376,0.015563965,0.59375,-4.6875,8.09375
585,585,1728029980030,0.3100586,-0.88604736,0.0119018555,0.671875,-10.796875,8.53125
586,586,1728029980070,0.20947266,-0.86431885,0.10784912,-2.390625,-20.40625,4.21875
587,587,1728029980110,0.07397461,-0.87823486,0.1005249,-0.3125,-17.171875,4.3125
588,588,1728029980150,0.08691406,-0.82232666,0.07562256,6.25,-9.421875,3.671875
589,589,1728029980190,0.18310547,-0.79693604,0.085876465,4.890625,-7.890625,6.703125
590,590,1728029980230,0.21069336,-0.8152466,0.09686279,0.875,-15.8125,4.34375
591,591,1728029980270,0.11425781,-0.8196411,0.13543701,2.390625,-11.6875,2.59375
592,592,1728029980310,0.13330078,-0.84942627,0.070495605,-3.65625,-7.125,4.65625
593,593,1728029980350,0.23852539,-0.8484497,0.1720581,-1.359375,-7.3125,2.5
594,594,1728029980390,0.16479492,-0.94000244,0.2177124,-2.78125,-4.34375,0.890625
595,595,1728029980430,0.109375,-1.0076294,0.21356201,-2.5625,-4.578125,-1.609375
596,596,1728029980470,0.09765625,-1.0425415,0.27581787,4.375,1.984375,-6.15625
597,597,1728029980510,0.15307617,-1.1079712,0.20819092,0.109375,-2.203125,-3.046875
598,598,1728029980550,0.33276367,-1.3306274,0.18719482,-7.5625,-2.40625,6.234375
599,599,1728029980590,0.3256836,-1.4990845,-0.02178955,-9.359375,-3.140625,2.625
600,600,1728029980630,0.16918945,-1.2512817,-0.11993408,6.78125,-4.46875,-11.453125
601,601,1728029980670,0.05517578,-0.92315674,-0.016906738,1.296875,10.328125,-27.515625
602,602,1728029980710,0.1430664,-0.7649536,-0.035217285,-1.03125,23.484375,-14.453125
603,603,1728029980750,0.31420898,-1.0093384,-0.026428223,8.578125,-10.296875,-4.234375
604,604,1728029980790,0.14501953,-0.88482666,0.06585693,3.8125,-20.125,-3.625
605,605,1728029980830,0.006591797,-0.7803345,0.12200928,9.21875,-10.75,-6.984375
606,606,1728029980870,-0.017578125,-0.88604736,0.07122803,4.921875,-8.359375,-3.078125
607,607,1728029980910,-0.0031738281,-0.8623657,0.09295654,8.28125,-3.171875,-3.75
608,608,1728029980950,0.024902344,-0.84454346,0.097839355,7.921875,1.078125,-4.65625
609,609,1728029980990,-0.0026855469,-0.9326782,0.07220459,2.1875,2.453125,-7.453125
610,610,1728029981030,-0.024169922,-0.9011841,0.113220215,4.25,6.28125,-8.546875
611,611,1728029981070,-0.030273438,-0.86846924,0.10101318,0.65625,7.640625,-5.078125
612,612,1728029981110,-0.04321289,-0.9104614,0.10614014,-3.234375,5.03125,-3.875
613,613,1728029981150,-0.02368164,-0.9561157,0.12322998,-4.671875,5.484375,-2.21875
614,614,1728029981190,-0.041992188,-1.013977,0.13104248,-7.0,3.46875,2.78125
615,615,1728029981230,-0.06665039,-1.0652466,0.22991943,-9.828125,2.703125,1.75
616,616,1728029981270,-0.02709961,-1.1401978,0.16204834,-5.59375,3.03125,4.15625
617,617,1728029981310,0.16821289,-1.4292603,0.15008545,5.484375,7.265625,6.65625
618,618,1728029981350,0.0390625,-1.4675903,0.01361084,-8.09375,-2.59375,4.609375
619,619,1728029981390,0.107910156,-1.0786743,-0.08843994,-6.921875,15.359375,11.703125
620,620,1728029981430,0.36645508,-0.83917236,-0.097229004,-5.78125,-5.0,18.03125
621,621,1728029981470,0.17138672,-1.0171509,0.08074951,-8.65625,-13.890625,10.296875
622,622,1728029981510,0.07080078,-1.0025024,-0.050842285,-10.8125,0.09375,14.4375
623,623,1728029981550,0.20678711,-0.798645,0.08441162,-4.0,-8.515625,8.984375
624,624,1728029981590,0.045654297,-0.91412354,0.14666748,-3.203125,5.046875,-1.53125
625,625,1728029981630,0.13427734,-0.9678345,0.15374756,-5.15625,11.125,0.90625
626,626,1728029981670,0.19018555,-0.7576294,0.13812256,4.5,7.90625,-1.625
627,627,1728029981710,0.15258789,-0.79034424,0.16644287,6.53125,5.125,0.0625
628,628,1728029981750,0.17993164,-0.8977661,0.11541748,3.46875,3.328125,2.640625
629,629,1728029981790,0.17456055,-0.78619385,0.11785889,4.03125,5.515625,1.140625
630,630,1728029981830,0.13598633,-0.8032837,0.13348389,7.4375,4.34375,-1.046875
631,631,1728029981870,0.1862793,-0.90338135,0.15301514,-0.78125,-0.546875,-0.859375
632,632,1728029981910,0.22143555,-0.8909302,0.14984131,1.890625,-1.09375,0.0
633,633,1728029981950,0.17016602,-0.9246216,0.20281982,-3.15625,-0.359375,-2.59375
634,634,1728029981990,0.064208984,-1.0588989,0.23358154,-3.015625,1.453125,-5.40625
635,635,1728029982030,0.13452148,-1.0518188,0.2489624,1.921875,6.1875,-10.46875
636,636,1728029982070,0.12915039,-1.1123657,0.17596436,5.265625,1.140625,-8.640625
637,637,1728029982110,0.1665039,-1.4226685,0.07928467,-2.0625,0.484375,-0.78125
638,638,1728029982150,0.36621094,-1.3081665,-0.112854004,0.828125,1.15625,1.4375
639,639,1728029982190,0.09887695,-1.1455688,-0.0044555664,-4.546875,-0.28125,-13.171875
640,640,1728029982230,-0.009033203,-1.0322876,-0.022521973,6.953125,19.6875,-15.84375
641,641,1728029982270,0.2631836,-0.7732544,-0.1326294,4.984375,11.0625,-11.515625
642,642,1728029982310,0.14135742,-0.9751587,-0.07598877,4.96875,-13.09375,-4.3125
643,643,1728029982350,-0.017578125,-0.99298096,0.07342529,-1.5625,-5.0,-12.703125
644,644,1728029982390,-0.04711914,-0.7810669,-0.023986816,0.828125,9.25,-3.765625
645,645,1728029982430,0.057861328,-0.8911743,0.08880615,-2.484375,-1.78125,-1.5
646,646,1728029982470,-0.059814453,-0.8584595,0.121520996,1.109375,2.8125,-8.3125
647,647,1728029982510,-0.06982422,-0.8933716,0.09539795,8.59375,12.796875,-4.34375
648,648,1728029982550,0.036132812,-0.9348755,0.09197998,5.921875,8.484375,-3.265625
649,649,1728029982590,-0.020996094,-0.8845825,0.089782715,10.765625,6.765625,-2.96875
650,650,1728029982630,-0.037353516,-0.9038696,0.09832764,7.125,8.28125,-1.015625
651,651,1728029982670,0.0031738281,-0.83062744,0.090270996,4.234375,4.203125,2.0
652,652,1728029982710,-0.05029297,-0.9529419,0.12225342,5.125,3.09375,0.84375
653,653,1728029982750,-0.06347656,-1.0549927,0.086120605,-9.5,3.0625,1.84375
654,654,1728029982790,0.025634766,-1.0579224,0.16619873,-2.328125,5.796875,3.34375
655,655,1728029982830,-0.045410156,-1.1653442,0.17059326,-9.46875,-10.421875,5.875
656,656,1728029982870,-0.12597656,-1.2832642,0.08709717,-1.171875,0.515625,5.65625
657,657,1728029982910,0.21044922,-1.659729,0.003112793,-0.25,2.765625,4.765625
658,658,1728029982950,0.16894531,-1.288147,-0.11529541,-3.484375,-5.28125,10.796875
659,659,1728029982990,0.14160156,-0.8086548,-0.09527588,-5.140625,-4.8125,13.234375
660,660,1728029983030,0.2607422,-0.9524536,0.009460449,-11.71875,-12.046875,15.625
661,661,1728029983070,0.13452148,-1.03302,0.059509277,-5.578125,-10.078125,5.640625
662,662,1728029983110,0.045898438,-0.80841064,-0.019348145,-2.109375,1.28125,4.375
663,663,1728029983150,0.12109375,-0.78009033,0.089782715,-4.65625,2.546875,1.40625
664,664,1728029983190,0.1652832,-0.9121704,0.13665771,2.703125,2.6875,1.234375
665,665,1728029983230,0.106933594,-0.83477783,0.10272217,-2.53125,2.953125,3.25
666,666,1728029983270,0.14160156,-0.8171997,0.11248779,3.9375,4.421875,6.296875
667,667,1728029983310,0.18408203,-0.8569946,0.08831787,3.953125,-1.65625,6.296875
668,668,1728029983350,0.12548828,-0.8086548,0.14276123,4.03125,0.359375,0.34375
669,669,1728029983390,0.13720703,-0.8291626,0.12957764,2.140625,1.484375,1.59375
670,670,1728029983430,0.18847656,-0.8442993,0.12640381,2.703125,-2.390625,-0.90625
671,671,1728029983470,0.17773438,-0.90093994,0.19451904,3.859375,1.3125,-0.890625
672,672,1728029983510,0.22314453,-1.0183716,0.18450928,-1.734375,-4.046875,0.71875
673,673,1728029983550,0.16479492,-1.133606,0.20257568,-2.65625,-10.4375,-2.046875
674,674,1728029983590,0.15795898,-1.0894165,0.22503662,-1.90625,-9.84375,-6.53125
675,675,1728029983630,0.18652344,-1.3352661,0.14422607,-6.328125,-4.0,-0.9375
676,676,1728029983670,0.2434082,-1.435852,-0.10064697,1.265625,-5.015625,-4.46875
677,677,1728029983710,0.10546875,-1.2337036,-0.06304932,-7.453125,2.234375,-15.8125
678,678,1728029983750,0.12646484,-0.9331665,0.015075684,-0.828125,20.890625,-16.96875
679,679,1728029983790,0.17895508,-0.83843994,-0.10284424,5.1875,10.78125,-6.078125
680,680,1728029983830,0.092285156,-0.99468994,-0.09869385,2.875,-0.359375,-3.84375
681,681,1728029983870,0.07299805,-0.95684814,0.020446777,7.390625,5.046875,-6.796875
682,682,1728029983910,0.020996094,-0.7954712,0.02508545,5.25,3.59375,-6.515625
683,683,1728029983950,0.03955078,-0.8538208,0.113464355,4.890625,6.1875,-7.171875
684,684,1728029983990,0.0126953125,-0.8858032,0.0770874,8.140625,7.0625,-7.34375
685,685,1728029984030,0.036376953,-0.8521118,0.06390381,5.34375,6.1875,-5.71875
686,686,1728029984070,0.049316406,-0.87042236,0.11102295,4.796875,3.71875,-5.078125
687,687,1728029984110,0.017578125,-0.8987427,0.121032715,4.828125,2.75,-5.546875
688,688,1728029984150,-0.04272461,-0.86187744,0.11590576,6.75,1.9375,-1.171875
689,689,1728029984190,-0.05078125,-0.9368286,0.044128418,-1.96875,-3.5,3.796875
690,690,1728029984230,0.027832031,-0.9807739,0.14007568,-0.703125,-3.875,1.15625
691,691,1728029984270,-0.08959961,-1.0532837,0.16229248,-4.609375,-0.09375,2.109375
692,692,1728029984310,-0.001953125,-1.0879517,0.13934326,-7.859375,-6.5,6.171875
693,693,1728029984350,-0.09082031,-1.2114868,0.11956787,-7.953125,-7.40625,2.640625
694,694,1728029984390,0.09423828,-1.4094849,0.16009521,-3.96875,2.28125,0.421875
695,695,1728029984430,0.07543945,-1.4194946,-0.07647705,-9.75,1.9375,5.8125
696,696,1728029984470,0.2331543,-1.1817017,-0.11187744,-2.296875,2.1875,11.140625
697,697,1728029984510,0.35131836,-0.87750244,-0.11968994,-9.109375,-15.078125,13.453125
698,698,1728029984550,0.16870117,-0.9998169,0.085876465,-5.4375,-13.640625,11.53125
699,699,1728029984590,0.13574219,-0.95440674,0.007019043,-2.125,-5.53125,8.796875
700,700,1728029984630,0.1418457,-0.8374634,-0.00079345703,3.6875,-5.40625,5.0625
701,701,1728029984670,0.1352539,-0.83721924,0.098083496,-0.375,-3.296875,0.84375
702,702,1728029984710,0.17236328,-0.8652954,0.11273193,1.765625,-7.921875,5.578125
703,703,1728029984750,0.14648438,-0.80133057,0.11126709,-0.09375,-2.8125,3.53125
704,704,1728029984790,0.1459961,-0.7888794,0.09881592,3.0,-8.3125,4.0
705,705,1728029984830,0.18334961,-0.84747314,0.09246826,0.4375,-11.84375,3.390625
706,706,1728029984870,0.16479492,-0.8374634,0.14788818,0.671875,-9.390625,-1.953125
707,707,1728029984910,0.10986328,-0.8623657,0.16497803,1.3125,-6.609375,-1.421875
708,708,1728029984950,0.18701172,-0.9053345,0.15838623,1.3125,-7.0,-3.015625
709,709,1728029984990,0.14624023,-0.91973877,0.22137451,-0.546875,-5.90625,-3.28125
710,710,1728029985030,0.103271484,-1.0767212,0.23138428,-3.5625,-5.265625,-4.453125
711,711,1728029985070,0.06591797,-1.1021118,0.21453857,-0.65625,4.484375,-6.28125
712,712,1728029985110,0.16357422,-1.2869263,0.21722412,-6.0,5.6875,-2.234375
713,713,1728029985150,0.35742188,-1.4207153,0.029968262,-8.4375,2.9375,-2.296875
714,714,1728029985190,0.13891602,-1.34552,0.028015137,0.6875,4.890625,-8.203125
715,715,1728029985230,-0.010986328,-1.0820923,-0.020812988,1.890625,26.09375,-19.6875
716,716,1728029985270,0.068603516,-0.82769775,-0.06085205,10.59375,25.8125,-10.734375
717,717,1728029985310,0.16772461,-0.909729,-0.12921143,-1.0625,5.609375,-4.078125
718,718,1728029985350,0.08203125,-0.9717407,0.07928467,6.765625,9.328125,-4.171875
719,719,1728029985390,0.024902344,-0.79888916,0.024597168,5.25,7.453125,-3.703125
720,720,1728029985430,0.052246094,-0.786438,0.074645996,3.546875,4.828125,-5.828125
721,721,1728029985470,-0.0031738281,-0.7761841,0.105651855,8.71875,11.390625,-7.609375
722,722,1728029985510,0.024414062,-0.8665161,0.070495605,5.34375,7.953125,-4.546875
723,723,1728029985550,0.01586914,-0.8772583,0.04925537,4.5,7.4375,-5.875
724,724,1728029985590,-0.010253906,-0.89434814,0.1083374,7.171875,7.578125,-4.625
725,725,1728029985630,0.03930664,-0.95098877,0.070495605,-2.65625,1.59375,1.09375
726,726,1728029985670,-0.026367188,-0.90582275,0.12371826,5.3125,-4.421875,-0.28125
727,727,1728029985710,-0.072509766,-0.9561157,0.09906006,-9.78125,-0.1875,3.140625
728,728,1728029985750,0.060058594,-0.987854,0.13690186,-0.1875,-3.265625,5.859375
729,729,1728029985790,-0.025634766,-0.9783325,0.15496826,-6.5625,-11.671875,7.75
730,730,1728029985830,-0.13671875,-1.1155396,0.23724365,-7.171875,-12.5,9.453125
731,731,1728029985870,0.00024414062,-1.2420044,0.18255615,1.703125,1.203125,2.21875
732,732,1728029985910,0.08154297,-1.3362427,0.066589355,6.765625,-2.96875,1.90625
733,733,1728029985950,0.07836914,-1.5747681,0.062927246,-0.25,-9.09375,3.1875
734,734,1728029985990,0.25073242,-1.1594849,-0.093811035,9.375,1.09375,9.265625
735,735,1728029986030,0.34716797,-0.78497314,-0.2000122,-0.53125,-16.09375,12.78125
736,736,1728029986070,0.084228516,-1.0735474,0.04071045,-0.53125,-9.265625,7.171875
737,737,1728029986110,0.088378906,-0.9104614,-0.16705322,-8.84375,-9.046875,9.375
738,738,1728029986150,0.1472168,-0.76397705,0.027038574,5.21875,-2.203125,2.828125
739,739,1728029986190,0.16064453,-0.7671509,0.07733154,-9.40625,-1.34375,6.046875
740,740,1728029986230,0.12768555,-0.7756958,0.05291748,-3.40625,-5.984375,7.234375
741,741,1728029986270,0.079589844,-0.81329346,0.049743652,0.078125,-3.03125,6.078125
742,742,1728029986310,0.2121582,-0.85894775,0.06097412,0.5625,-4.65625,5.796875
743,743,1728029986350,0.1508789,-0.9168091,0.09320068,-1.8125,-5.40625,2.96875
744,744,1728029986390,0.12109375,-0.8550415,0.11199951,1.4375,-0.296875,-1.84375
745,745,1728029986430,0.15991211,-0.8428345,0.10369873,1.953125,-2.9375,-1.640625
746,746,1728029986470,0.14648438,-0.85528564,0.1305542,3.265625,-0.296875,-1.203125
747,747,1728029986510,0.20776367,-0.9138794,0.14886475,1.3125,0.03125,1.984375
748,748,1728029986550,0.1430664,-1.0928345,0.22698975,0.9375,-4.0625,0.390625
749,749,1728029986590,0.0043945312,-1.1292114,0.22723389,-6.703125,5.546875,-7.59375
750,750,1728029986630,0.26831055,-1.1321411,0.19573975,2.09375,7.34375,-4.125
751,751,1728029986670,0.36889648,-1.4951782,0.1593628,-3.921875,-5.71875,0.921875
752,752,1728029986710,0.20629883,-1.5044556,-0.08453369,1.875,1.265625,-3.3125
753,753,1728029986750,0.037841797,-1.1170044,-0.16607666,3.4375,19.515625,-22.140625
754,754,1728029986790,0.13696289,-0.79278564,-0.016662598,7.75,30.703125,-21.953125
755,755,1728029986830,0.22314453,-0.9299927,-0.14581299,-1.421875,9.265625,-5.75
756,756,1728029986870,0.16503906,-0.9421997,-0.02935791,6.171875,12.828125,-5.296875
757,757,1728029986910,0.048828125,-0.79693604,-0.016418457,2.640625,3.75,-5.3125
758,758,1728029986950,0.052246094,-0.76031494,-0.003479004,0.03125,1.765625,-5.53125
759,759,1728029986990,0.025146484,-0.7908325,0.05633545,4.59375,0.859375,-5.84375
