,Unnamed: 0,timestamp,accel_x,accel_y,accel_z,gyro_x,gyro_y,gyro_z
0,0,1728027343639,-0.20532227,-0.9920044,-0.10333252,6.90625,3.578125,0.34375
1,1,1728027343679,-0.19726562,-0.9680786,-0.109680176,1.984375,0.453125,2.078125
2,2,1728027343719,-0.17260742,-0.9624634,-0.15240479,8.25,3.53125,3.5
3,3,1728027343759,-0.1652832,-0.95806885,-0.16900635,8.515625,6.65625,5.9375
4,4,1728027343799,-0.15039062,-0.95880127,-0.06964111,10.1875,8.546875,5.796875
5,5,1728027343839,-0.18896484,-0.9639282,-0.13092041,0.875,-2.828125,6.96875
6,6,1728027343879,-0.20874023,-0.93536377,-0.07183838,-3.390625,0.46875,4.15625
7,7,1728027343919,-0.234375,-0.9783325,-0.090148926,-7.734375,-6.21875,4.828125
8,8,1728027343959,-0.23461914,-0.95684814,-0.11260986,-5.34375,-4.671875,2.765625
9,9,1728027343999,-0.24560547,-0.9829712,-0.112854004,0.390625,-0.921875,4.421875
10,10,1728027344039,-0.19458008,-0.9505005,-0.10064697,3.015625,1.515625,3.03125
11,11,1728027344079,-0.17358398,-1.0093384,-0.09112549,6.59375,7.15625,5.84375
12,12,1728027344119,-0.2109375,-1.0056763,-0.26153564,-0.875,6.078125,7.828125
13,13,1728027344159,0.011962891,-1.2283325,-0.4998169,-2.96875,-12.859375,12.234375
14,14,1728027344199,0.040527344,-1.5527954,-0.17608643,0.65625,-10.140625,12.3125
15,15,1728027344239,-0.033203125,-1.4043579,-0.25811768,2.859375,-15.453125,8.703125
16,16,1728027344279,0.19335938,-0.9788208,-0.39849854,5.421875,-8.609375,6.421875
17,17,1728027344319,0.24731445,-0.83673096,-0.3352661,8.921875,-4.828125,8.640625
18,18,1728027344359,0.1430664,-0.96221924,-0.19903564,8.15625,-7.703125,7.8125
19,19,1728027344399,0.0034179688,-0.925354,-0.15924072,5.90625,-10.140625,3.828125
20,20,1728027344439,0.084228516,-0.835022,-0.13873291,0.59375,-11.328125,-0.3125
21,21,1728027344479,0.061767578,-0.7246704,-0.1987915,1.140625,-11.859375,-1.890625
22,22,1728027344519,0.09814453,-0.70318604,-0.20220947,6.21875,-13.265625,-0.6875
23,23,1728027344559,0.029296875,-0.73565674,-0.13970947,5.71875,-11.828125,-0.375
24,24,1728027344599,-0.0029296875,-0.8167114,-0.12335205,5.421875,-11.125,-0.28125
25,25,1728027344639,0.018798828,-0.7979126,-0.19464111,8.140625,-10.4375,-0.96875
26,26,1728027344679,0.080078125,-0.8574829,-0.16217041,6.359375,-6.515625,-0.625
27,27,1728027344719,-0.014404297,-0.88653564,-0.113098145,1.3125,-0.734375,-3.265625
28,28,1728027344759,0.087890625,-0.8970337,-0.09844971,2.328125,1.171875,-3.234375
29,29,1728027344799,0.08251953,-0.9951782,-0.2774048,1.96875,-4.484375,-0.25
30,30,1728027344839,0.01977539,-1.1472778,-0.33673096,9.546875,-3.34375,-2.34375
31,31,1728027344879,-0.018310547,-1.1929321,-0.28692627,21.171875,5.28125,-7.984375
32,32,1728027344919,0.16064453,-1.2903442,-0.45489502,1.34375,-5.359375,1.421875
33,33,1728027344959,-0.0043945312,-1.3294067,-0.41412354,2.921875,-13.859375,-2.0625
34,34,1728027344999,-0.091552734,-0.92559814,-0.43951416,18.109375,23.359375,-10.09375
35,35,1728027345039,0.25708008,-0.6721802,-0.55426025,6.234375,18.296875,2.0625
36,36,1728027345079,-0.040039062,-0.82110596,-0.5305786,-0.59375,12.609375,8.453125
37,37,1728027345119,-0.14746094,-0.97052,-0.41949463,4.890625,19.5625,3.46875
38,38,1728027345159,-0.13012695,-0.8335571,-0.33770752,6.640625,22.453125,0.546875
39,39,1728027345199,-0.052001953,-0.7437134,-0.28448486,5.671875,17.453125,0.28125
40,40,1728027345239,-0.057128906,-0.64190674,-0.33795166,4.703125,12.703125,0.984375
41,41,1728027345279,-0.032958984,-0.67193604,-0.29180908,4.78125,13.984375,1.84375
42,42,1728027345319,-0.09790039,-0.7444458,-0.284729,-2.0,7.171875,0.84375
43,43,1728027345359,-0.0715332,-0.7896118,-0.33477783,-9.640625,3.703125,0.953125
44,44,1728027345399,-0.10205078,-0.8543091,-0.28619385,-4.765625,6.796875,0.546875
45,45,1728027345439,-0.15454102,-0.9702759,-0.29400635,-2.28125,1.09375,-0.609375
46,46,1728027345479,-0.18725586,-1.0430298,-0.28619385,-8.359375,5.890625,-1.59375
47,47,1728027345519,-0.26635742,-1.1277466,-0.26153564,-13.671875,10.296875,-0.953125
48,48,1728027345559,-0.11328125,-1.0669556,-0.36358643,-16.25,0.921875,-0.4375
49,49,1728027345599,-0.049072266,-1.2229614,-0.36602783,-12.125,-4.03125,7.96875
50,50,1728027345639,-0.08251953,-1.3584595,-0.6992798,-16.78125,-17.515625,12.71875
51,51,1728027345679,0.27246094,-1.0715942,-0.79766846,21.1875,-4.65625,5.75
52,52,1728027345719,0.28564453,-0.91851807,-0.25201416,36.765625,38.390625,1.46875
53,53,1728027345759,0.044189453,-0.8604126,-0.3045044,-12.65625,-22.421875,11.59375
54,54,1728027345799,0.00024414062,-0.8328247,-0.37457275,-18.15625,-36.546875,12.03125
55,55,1728027345839,-0.05908203,-0.86505127,-0.2715454,-5.5,-9.140625,1.078125
56,56,1728027345879,0.037109375,-0.7905884,-0.20831299,7.265625,3.78125,-4.203125
57,57,1728027345919,0.087890625,-0.6555786,-0.18048096,6.953125,0.453125,-2.328125
58,58,1728027345959,0.019042969,-0.65167236,-0.18341064,-2.859375,-5.90625,4.921875
59,59,1728027345999,-0.0009765625,-0.64141846,-0.20587158,-4.890625,-1.953125,4.828125
60,60,1728027346039,0.017578125,-0.7554321,-0.17608643,2.0,2.84375,1.265625
61,61,1728027346079,0.072021484,-0.8218384,-0.18560791,6.828125,-0.046875,0.484375
62,62,1728027346119,0.11669922,-0.8574829,-0.20269775,-0.875,-3.515625,1.078125
63,63,1728027346159,0.06347656,-1.0132446,-0.20098877,-3.109375,1.015625,-1.78125
64,64,1728027346199,0.022460938,-1.1255493,-0.16851807,-8.71875,-11.203125,-9.90625
65,65,1728027346239,-0.047851562,-1.288147,-0.3447876,-10.984375,-23.21875,-11.546875
66,66,1728027346279,0.0637207,-1.1782837,-0.5552368,-2.15625,-16.359375,-5.0625
67,67,1728027346319,0.018310547,-1.3059692,-0.45758057,7.859375,-4.203125,-11.109375
68,68,1728027346359,-0.012939453,-1.0186157,-0.44854736,20.265625,33.6875,-18.65625
69,69,1728027346399,0.03540039,-0.8699341,-0.5046997,6.125,29.453125,1.234375
70,70,1728027346439,-0.06616211,-0.7918091,-0.44586182,2.71875,6.265625,0.375
71,71,1728027346479,-0.12231445,-0.91119385,-0.43145752,3.4375,9.296875,-4.421875
72,72,1728027346519,-0.17944336,-0.83917236,-0.32989502,13.375,21.578125,-6.15625
73,73,1728027346559,-0.09423828,-0.6675415,-0.20147705,15.453125,19.84375,-4.890625
74,74,1728027346599,-0.110839844,-0.611145,-0.2654419,-3.609375,9.21875,3.875
75,75,1728027346639,-0.10522461,-0.65289307,-0.3460083,-3.6875,9.828125,6.890625
76,76,1728027346679,-0.15795898,-0.7546997,-0.2942505,2.0625,11.171875,8.78125
77,77,1728027346719,-0.15893555,-0.8401489,-0.30230713,-0.515625,9.203125,9.359375
78,78,1728027346759,-0.16088867,-0.90997314,-0.26324463,-4.4375,11.375,4.859375
79,79,1728027346799,-0.15600586,-0.8665161,-0.2288208,-1.25,6.828125,3.59375
80,80,1728027346839,-0.19042969,-0.84698486,-0.26715088,-3.09375,1.953125,1.546875
81,81,1728027346879,-0.19238281,-0.9692993,-0.25811768,-1.046875,1.5625,1.0
82,82,1728027346919,-0.23706055,-1.0889282,-0.32818604,-1.25,7.484375,2.03125
83,83,1728027346959,-0.17773438,-1.1685181,-0.27716064,-5.1875,6.28125,7.6875
84,84,1728027346999,-0.12475586,-1.3025513,-0.65826416,-10.453125,2.3125,18.265625
85,85,1728027347039,0.012939453,-1.4199829,-0.72979736,-1.546875,-5.40625,9.359375
86,86,1728027347079,0.15258789,-0.98931885,-0.48712158,18.0625,17.96875,0.40625
87,87,1728027347119,0.10107422,-0.8323364,-0.39898682,1.6875,0.53125,4.46875
88,88,1728027347159,0.10961914,-0.7617798,-0.40704346,-12.8125,-20.46875,6.671875
89,89,1728027347199,-0.103515625,-0.9553833,-0.28204346,-17.40625,-14.25,4.109375
90,90,1728027347239,0.0009765625,-0.84503174,-0.26519775,-5.5,-4.53125,-2.796875
91,91,1728027347279,0.06347656,-0.72491455,-0.20831299,-1.109375,-3.9375,2.328125
92,92,1728027347319,-0.056396484,-0.72979736,-0.22491455,-9.921875,-13.859375,8.578125
93,93,1728027347359,-0.05810547,-0.71221924,-0.20928955,-10.828125,-6.6875,12.734375
94,94,1728027347399,-0.022705078,-0.78863525,-0.14923096,-9.0625,6.296875,8.15625
95,95,1728027347439,0.0056152344,-0.8115845,-0.14776611,-3.90625,8.328125,2.75
96,96,1728027347479,0.0012207031,-0.8484497,-0.13311768,-11.78125,-1.890625,5.65625
97,97,1728027347519,0.017333984,-0.8027954,-0.12628174,-10.59375,0.53125,3.484375
98,98,1728027347559,0.041259766,-0.895813,-0.15264893,-15.5,-2.953125,3.953125
99,99,1728027347599,-0.064208984,-0.99102783,-0.03643799,-4.171875,6.375,-2.703125
100,100,1728027347639,-0.04345703,-1.0786743,-0.12945557,-7.5625,-0.6875,-2.78125
101,101,1728027347679,-0.018310547,-1.156311,-0.21929932,-4.796875,2.15625,-3.890625
102,102,1728027347719,0.0048828125,-1.3972778,-0.348938,-7.9375,1.5625,-2.65625
103,103,1728027347759,0.11816406,-1.3267212,-0.27716064,6.015625,2.5625,-3.375
104,104,1728027347799,-0.099853516,-1.1126099,-0.15216064,25.109375,21.421875,-9.9375
105,105,1728027347839,0.087402344,-0.90826416,-0.5120239,-0.328125,33.25,0.3125
106,106,1728027347879,-0.068115234,-0.73516846,-0.39727783,1.5625,30.859375,7.546875
107,107,1728027347919,-0.08666992,-0.99224854,-0.32940674,-0.25,23.421875,7.53125
108,108,1728027347959,-0.11669922,-0.9585571,-0.1963501,11.40625,33.671875,3.59375
109,109,1728027347999,-0.08642578,-0.7390747,-0.17486572,7.828125,31.203125,4.46875
110,110,1728027348039,-0.043945312,-0.6382446,-0.23199463,0.71875,30.390625,6.4375
111,111,1728027348079,-0.063964844,-0.68218994,-0.25274658,-5.140625,25.1875,9.75
112,112,1728027348119,-0.083984375,-0.77716064,-0.24102783,0.546875,25.015625,7.53125
113,113,1728027348159,-0.061767578,-0.8423462,-0.19195557,1.578125,21.3125,7.390625
114,114,1728027348199,-0.07543945,-0.8911743,-0.1987915,-2.46875,17.875,7.875
115,115,1728027348239,-0.123291016,-0.897522,-0.16851807,-1.453125,17.203125,4.59375
116,116,1728027348279,-0.15844727,-0.9668579,-0.16851807,-4.125,13.5625,3.6875
117,117,1728027348319,-0.17407227,-1.0762329,-0.23321533,2.296875,19.1875,3.078125
118,118,1728027348359,-0.1652832,-1.1399536,-0.28790283,6.71875,27.546875,7.40625
119,119,1728027348399,-0.11816406,-1.1980591,-0.19659424,1.078125,32.046875,8.421875
120,120,1728027348439,0.03955078,-1.2993774,-0.5701294,-24.890625,2.765625,19.453125
121,121,1728027348479,0.12011719,-1.447815,-0.52056885,5.234375,0.09375,13.703125
122,122,1728027348519,0.083984375,-0.9951782,-0.13482666,23.703125,27.1875,1.875
123,123,1728027348559,0.30859375,-0.69000244,-0.46148682,1.71875,9.203125,11.40625
124,124,1728027348599,0.076416016,-0.65216064,-0.41900635,-1.75,-1.125,18.375
125,125,1728027348639,-0.09375,-1.0003052,-0.222229,-0.609375,-0.09375,4.390625
126,126,1728027348679,0.021484375,-0.9187622,-0.1741333,6.890625,0.765625,-0.03125
127,127,1728027348719,0.07055664,-0.848938,-0.14654541,-1.453125,-3.671875,3.109375
128,128,1728027348759,0.033691406,-0.77349854,-0.17852783,-7.6875,-1.859375,1.109375
129,129,1728027348799,0.07397461,-0.7241821,-0.1506958,-2.703125,-0.09375,3.6875
130,130,1728027348839,0.007080078,-0.7581177,-0.10723877,-1.125,0.453125,3.953125
131,131,1728027348879,-0.008300781,-0.7456665,-0.14385986,-1.125,-2.390625,4.015625
132,132,1728027348919,0.02368164,-0.75494385,-0.19903564,2.109375,2.3125,2.421875
133,133,1728027348959,0.020751953,-0.90802,-0.10406494,-0.734375,7.671875,1.03125
134,134,1728027348999,-0.034423828,-1.0679321,-0.073791504,-5.859375,6.25,-2.84375
135,135,1728027349039,0.0126953125,-1.1868286,-0.1987915,-9.609375,-0.203125,-5.296875
136,136,1728027349079,0.049560547,-1.1165161,-0.34918213,-4.078125,0.828125,-1.40625
137,137,1728027349119,0.114990234,-1.2114868,-0.38775635,-0.609375,-13.125,0.484375
138,138,1728027349159,-0.06201172,-1.4307251,-0.42388916,12.3125,1.796875,-10.5625
139,139,1728027349199,-0.008544922,-0.9380493,-0.34747314,29.796875,37.78125,-9.484375
140,140,1728027349239,0.13110352,-0.7546997,-0.47296143,7.96875,21.90625,5.40625
141,141,1728027349279,-0.1484375,-0.86383057,-0.40045166,10.234375,21.765625,5.3125
142,142,1728027349319,-0.27270508,-0.9639282,-0.36724854,5.421875,19.859375,0.90625
143,143,1728027349359,-0.14526367,-0.85723877,-0.32061768,17.578125,38.921875,0.640625
144,144,1728027349399,-0.1274414,-0.7842407,-0.2835083,16.609375,39.40625,4.28125
145,145,1728027349439,-0.031982422,-0.62286377,-0.3423462,11.515625,35.1875,8.4375
146,146,1728027349479,-0.033203125,-0.661438,-0.33233643,3.296875,26.171875,17.234375
147,147,1728027349519,-0.0925293,-0.78619385,-0.3118286,-0.234375,24.75,15.296875
148,148,1728027349559,-0.11450195,-0.8699341,-0.29571533,-0.34375,20.515625,14.265625
149,149,1728027349599,-0.18139648,-0.8213501,-0.31915283,-0.859375,17.828125,8.25
150,150,1728027349639,-0.1821289,-0.87042236,-0.25616455,-0.15625,13.984375,5.28125
151,151,1728027349679,-0.25634766,-0.9541626,-0.3555298,-7.09375,7.40625,6.078125
152,152,1728027349719,-0.24633789,-0.972229,-0.43707275,-3.09375,13.90625,5.21875
153,153,1728027349759,-0.1315918,-1.1033325,-0.3423462,-4.21875,15.890625,7.1875
154,154,1728027349799,-0.07446289,-1.3162231,-0.6304321,-24.0625,-14.671875,16.15625
155,155,1728027349839,0.15551758,-1.2754517,-0.72003174,-15.953125,-7.046875,15.5625
156,156,1728027349879,0.17480469,-1.2293091,-0.31329346,10.171875,22.703125,2.4375
157,157,1728027349919,0.2133789,-0.9307251,-0.35430908,4.828125,0.65625,5.921875
158,158,1728027349959,0.23095703,-0.7715454,-0.43096924,-19.46875,-16.078125,14.421875
159,159,1728027349999,-0.008544922,-0.9817505,-0.26837158,-14.359375,-8.671875,7.546875
160,160,1728027350039,0.043701172,-0.9614868,-0.2210083,1.703125,1.421875,-3.890625
161,161,1728027350079,0.109375,-0.82159424,-0.14434814,8.671875,-0.546875,-0.546875
162,162,1728027350119,0.06274414,-0.61016846,-0.15093994,-1.828125,-9.6875,1.9375
163,163,1728027350159,0.012207031,-0.5935669,-0.18682861,-6.296875,-9.53125,3.890625
164,164,1728027350199,-0.005859375,-0.6502075,-0.15240479,-5.046875,-7.1875,3.734375
165,165,1728027350239,0.0021972656,-0.75128174,-0.15216064,-5.0,-1.90625,1.1875
166,166,1728027350279,0.036621094,-0.8076782,-0.13018799,-3.078125,-1.828125,-0.625
167,167,1728027350319,0.07080078,-0.88409424,-0.1416626,-4.890625,0.640625,-0.890625
168,168,1728027350359,0.0625,-0.9783325,-0.09088135,-3.359375,-0.03125,-3.515625
169,169,1728027350399,0.03564453,-1.0886841,-0.14654541,-6.484375,-1.90625,-4.34375
170,170,1728027350439,-0.009033203,-1.1213989,-0.24420166,-1.796875,-1.234375,-5.65625
171,171,1728027350479,0.055419922,-1.1963501,-0.4817505,-7.4375,-9.59375,1.421875
172,172,1728027350519,0.18359375,-1.3987427,-0.2949829,4.28125,-8.203125,-3.296875
173,173,1728027350559,-0.10473633,-1.4871216,-0.21490479,12.046875,2.0625,-10.25
174,174,1728027350599,0.04663086,-0.9920044,-0.40045166,14.296875,16.203125,-2.921875
175,175,1728027350639,0.16674805,-0.61138916,-0.5227661,-0.1875,13.21875,3.34375
176,176,1728027350679,-0.1743164,-0.8892212,-0.44976807,-0.9375,19.328125,-1.953125
177,177,1728027350719,-0.09399414,-1.0552368,-0.237854,11.53125,26.5,-5.234375
178,178,1728027350759,-0.060302734,-0.7822876,-0.15997314,11.890625,26.40625,1.1875
179,179,1728027350799,-0.04663086,-0.61505127,-0.2654419,-0.265625,19.046875,4.34375
180,180,1728027350839,-0.010498047,-0.59869385,-0.27838135,-0.171875,16.40625,6.25
181,181,1728027350879,-0.032958984,-0.7012329,-0.21759033,0.671875,17.5,7.15625
182,182,1728027350919,-0.056884766,-0.7034302,-0.23175049,-0.78125,12.984375,7.5625
183,183,1728027350959,-0.08129883,-0.8225708,-0.24053955,-2.640625,10.03125,5.234375
184,184,1728027350999,-0.14770508,-0.8838501,-0.27105713,3.1875,8.1875,3.8125
185,185,1728027351039,-0.11254883,-0.90093994,-0.25567627,2.53125,5.5,1.3125
186,186,1728027351079,-0.17041016,-0.9990845,-0.32086182,2.0625,4.734375,1.875
187,187,1728027351119,-0.15771484,-1.031311,-0.29229736,9.359375,10.84375,0.203125
188,188,1728027351159,-0.087402344,-1.0872192,-0.24713135,1.953125,12.375,5.46875
189,189,1728027351199,-0.02709961,-1.2476196,-0.45147705,-6.921875,-3.578125,16.15625
190,190,1728027351239,0.15795898,-1.4348755,-0.7341919,-0.75,-16.328125,21.125
191,191,1728027351279,0.16967773,-1.3862915,-0.6013794,15.28125,12.765625,9.625
192,192,1728027351319,0.27685547,-0.880188,-0.427063,24.140625,13.484375,4.5
193,193,1728027351359,0.27270508,-0.7280884,-0.38946533,2.59375,-7.59375,11.625
194,194,1728027351399,-0.0053710938,-0.9273071,-0.28155518,-9.078125,-8.234375,6.078125
195,195,1728027351439,0.043701172,-0.85479736,-0.2539673,-10.171875,-10.234375,-0.734375
196,196,1728027351479,0.08862305,-0.7385864,-0.20343018,-9.171875,-11.125,-0.421875
197,197,1728027351519,0.1274414,-0.6555786,-0.24029541,-9.875,-16.71875,0.265625
198,198,1728027351559,0.08959961,-0.6746216,-0.23956299,-7.0625,-15.984375,2.671875
199,199,1728027351599,0.042236328,-0.725647,-0.1296997,-6.296875,-11.328125,0.296875
200,200,1728027351639,0.015380859,-0.8049927,-0.16485596,-5.125,-9.03125,-2.578125
201,201,1728027351679,0.02734375,-0.76397705,-0.15509033,-2.03125,-9.828125,-3.359375
202,202,1728027351719,0.052734375,-0.77716064,-0.21368408,2.125,-3.953125,-4.90625
203,203,1728027351759,0.05810547,-0.82037354,-0.17584229,1.59375,-7.796875,-3.40625
204,204,1728027351799,0.019042969,-1.046936,-0.1807251,-0.90625,-2.0,-7.609375
205,205,1728027351839,-0.011474609,-1.1985474,-0.28497314,5.65625,-5.203125,-10.875
206,206,1728027351879,0.063964844,-1.2459106,-0.40655518,5.546875,-5.90625,-9.921875
207,207,1728027351919,0.07836914,-1.2891235,-0.40264893,14.375,-1.265625,-6.875
208,208,1728027351959,-0.018554688,-1.4368286,-0.38897705,19.25,5.890625,-16.078125
209,209,1728027351999,0.10961914,-1.0076294,-0.51519775,25.015625,37.640625,-16.71875
210,210,1728027352039,0.15942383,-0.60040283,-0.4915161,6.890625,19.421875,1.375
211,211,1728027352079,0.0063476562,-0.82818604,-0.46417236,3.109375,21.203125,7.796875
212,212,1728027352119,0.004638672,-0.9866333,-0.39239502,1.71875,20.015625,5.96875
213,213,1728027352159,-0.0009765625,-0.8464966,-0.34649658,7.265625,22.34375,5.0
214,214,1728027352199,-0.037841797,-0.7017212,-0.32940674,6.890625,16.96875,5.84375
215,215,1728027352239,0.010986328,-0.6387329,-0.33673096,6.59375,16.34375,2.171875
216,216,1728027352279,-0.06591797,-0.61016846,-0.302063,6.390625,11.015625,2.734375
217,217,1728027352319,-0.052246094,-0.6531372,-0.2942505,0.9375,5.90625,4.46875
218,218,1728027352359,-0.11303711,-0.77056885,-0.3352661,-1.828125,2.890625,2.796875
219,219,1728027352399,-0.06640625,-0.7930298,-0.286438,-1.625,3.53125,-0.09375
220,220,1728027352439,-0.075927734,-0.850647,-0.3032837,-12.390625,-7.5,5.6875
221,221,1728027352479,-0.1315918,-0.8665161,-0.34161377,-3.59375,-1.046875,-0.8125
222,222,1728027352519,-0.09448242,-1.0032349,-0.23712158,-2.0625,4.078125,-3.25
223,223,1728027352559,-0.091552734,-1.098938,-0.3110962,-2.390625,-1.65625,2.078125
224,224,1728027352599,-0.047851562,-1.2234497,-0.3892212,-12.9375,-12.34375,5.53125
225,225,1728027352639,0.001953125,-1.3342896,-0.3587036,-1.203125,-10.84375,6.21875
226,226,1728027352679,0.052490234,-1.3796997,-0.8635864,-27.59375,-34.640625,27.515625
227,227,1728027352719,0.30371094,-1.1570435,-0.7581177,18.796875,-5.578125,5.9375
228,228,1728027352759,0.20336914,-0.8604126,-0.1585083,23.734375,17.9375,-7.0625
229,229,1728027352799,0.33520508,-0.708313,-0.53082275,-13.125,-36.875,11.6875
230,230,1728027352839,-0.09448242,-0.7901001,-0.472229,-4.921875,-26.03125,9.296875
231,231,1728027352879,-0.08496094,-0.9326782,-0.28912354,-6.96875,-12.53125,-4.96875
232,232,1728027352919,0.06591797,-0.8040161,-0.26519775,-4.796875,-5.625,-1.015625
233,233,1728027352959,0.043701172,-0.6885376,-0.2432251,-3.0625,-4.40625,0.734375
234,234,1728027352999,0.08203125,-0.65289307,-0.23712158,-3.28125,-6.359375,-0.09375
235,235,1728027353039,0.055664062,-0.75665283,-0.2053833,0.484375,-4.953125,1.71875
236,236,1728027353079,-0.03149414,-0.8015747,-0.18609619,-4.375,-1.640625,4.3125
237,237,1728027353119,0.04321289,-0.7449341,-0.20269775,-5.921875,3.96875,1.953125
238,238,1728027353159,0.05053711,-0.74102783,-0.18243408,-6.75,9.6875,1.78125
239,239,1728027353199,0.06298828,-0.85235596,-0.17315674,-11.6875,10.3125,2.34375
240,240,1728027353239,0.026855469,-1.0169067,-0.1519165,-8.71875,13.6875,-2.703125
241,241,1728027353279,0.021240234,-1.1118774,-0.19049072,-8.296875,5.78125,-4.109375
242,242,1728027353319,0.024169922,-1.1333618,-0.2781372,2.515625,11.265625,-3.859375
243,243,1728027353359,-0.053710938,-1.2278442,-0.44171143,-1.59375,15.734375,-6.375
244,244,1728027353399,0.08251953,-1.2981567,-0.4602661,14.109375,16.28125,-6.203125
245,245,1728027353439,0.092041016,-1.0632935,-0.42926025,17.625,22.71875,-1.234375
246,246,1728027353479,0.036132812,-0.87750244,-0.6157837,14.796875,36.09375,-4.890625
247,247,1728027353519,-0.037597656,-0.7949829,-0.5232544,-0.109375,27.296875,6.09375
248,248,1728027353559,-0.1237793,-0.909729,-0.42388916,5.96875,22.53125,6.703125
249,249,1728027353599,-0.1340332,-0.98931885,-0.28912354,1.640625,30.515625,2.234375
250,250,1728027353639,-0.09716797,-0.74786377,-0.2744751,2.609375,26.46875,0.765625
251,251,1728027353679,-0.017333984,-0.6304321,-0.31378174,0.5,21.171875,5.953125
252,252,1728027353719,-0.072021484,-0.64971924,-0.30889893,4.09375,26.34375,7.234375
253,253,1728027353759,-0.06738281,-0.6860962,-0.3291626,1.9375,20.78125,11.171875
254,254,1728027353799,-0.053222656,-0.7744751,-0.30181885,-2.84375,18.640625,11.796875
255,255,1728027353839,-0.08496094,-0.85235596,-0.25054932,-2.703125,19.9375,9.921875
256,256,1728027353879,-0.099121094,-0.8850708,-0.2630005,-4.609375,13.046875,7.90625
257,257,1728027353919,-0.15429688,-0.9429321,-0.3399048,-2.890625,9.875,6.75
258,258,1728027353959,-0.19897461,-0.99957275,-0.3718872,2.328125,14.25,5.40625
259,259,1728027353999,-0.095947266,-0.991272,-0.38189697,9.734375,17.34375,5.046875
260,260,1728027354039,0.022216797,-1.1260376,-0.473938,-7.03125,1.296875,15.84375
261,261,1728027354079,0.026611328,-1.4749146,-0.6453247,-18.328125,-32.46875,24.796875
262,262,1728027354119,0.0146484375,-1.468811,-0.5022583,29.9375,-1.578125,12.5625
263,263,1728027354159,0.1743164,-1.0420532,-0.39727783,7.84375,-4.09375,4.765625
264,264,1728027354199,0.35742188,-0.6436157,-0.59576416,-22.875,-25.484375,10.84375
265,265,1728027354239,0.037353516,-0.82110596,-0.37872314,-12.671875,-7.578125,11.40625
266,266,1728027354279,-0.048095703,-1.0054321,-0.26690674,0.625,-4.78125,-0.28125
267,267,1728027354319,0.07348633,-0.788147,-0.21490479,3.953125,-3.671875,-1.46875
268,268,1728027354359,0.034423828,-0.73101807,-0.23443604,-3.625,-5.828125,0.8125
269,269,1728027354399,0.08276367,-0.66729736,-0.2300415,3.28125,3.078125,2.203125
270,270,1728027354439,0.038330078,-0.62506104,-0.16656494,0.859375,4.546875,6.90625
271,271,1728027354479,0.057128906,-0.5828247,-0.17803955,-6.078125,0.484375,10.0
272,272,1728027354519,0.030273438,-0.6223755,-0.1963501,-5.65625,3.6875,10.34375
273,273,1728027354559,0.030273438,-0.68756104,-0.25787354,-8.03125,5.1875,10.75
274,274,1728027354599,0.095947266,-0.93829346,-0.1560669,4.59375,27.328125,3.0
275,275,1728027354639,0.024169922,-1.2520142,-0.19390869,-16.703125,15.359375,1.734375
276,276,1728027354679,0.06201172,-1.3147583,-0.31793213,-9.90625,16.125,-4.109375
277,277,1728027354719,0.08081055,-1.284729,-0.4331665,3.296875,20.96875,-8.359375
278,278,1728027354759,0.28686523,-1.1299438,-0.65093994,12.8125,13.03125,3.265625
279,279,1728027354799,0.123291016,-0.9507446,-0.40631104,35.75,40.8125,-2.34375
280,280,1728027354839,-0.0087890625,-0.8809204,-0.5305786,4.421875,33.96875,4.9375
281,281,1728027354879,-0.021972656,-0.6946411,-0.5215454,-5.875,15.359375,11.171875
282,282,1728027354919,0.0061035156,-0.8777466,-0.40899658,-0.921875,32.265625,6.15625
283,283,1728027354959,-0.02734375,-0.911438,-0.3916626,6.1875,34.640625,5.640625
284,284,1728027354999,0.025634766,-0.7185669,-0.33013916,12.484375,33.09375,5.21875
285,285,1728027355039,-0.044433594,-0.66607666,-0.33135986,5.859375,28.484375,14.515625
286,286,1728027355079,-0.071777344,-0.6362915,-0.36773682,3.765625,28.734375,14.4375
287,287,1728027355119,-0.03881836,-0.7786255,-0.34088135,1.265625,25.21875,15.0625
288,288,1728027355159,-0.03515625,-0.75567627,-0.35479736,-0.0625,22.765625,12.484375
289,289,1728027355199,-0.025634766,-0.79815674,-0.3501587,5.171875,26.0,9.890625
290,290,1728027355239,-0.07519531,-0.81817627,-0.38580322,2.875,17.609375,8.5
291,291,1728027355279,-0.09765625,-0.8694458,-0.38409424,-2.125,18.4375,7.5625
292,292,1728027355319,-0.14990234,-1.0120239,-0.41949463,-9.5,16.25,8.453125
293,293,1728027355359,-0.05053711,-1.0664673,-0.53253174,-10.015625,18.34375,6.53125
294,294,1728027355399,-0.05029297,-1.2324829,-0.46588135,-4.421875,19.828125,13.625
295,295,1728027355439,0.049804688,-1.2390747,-0.86846924,-23.03125,-12.4375,18.5625
296,296,1728027355479,0.20239258,-1.2529907,-0.642395,14.5,25.265625,4.203125
297,297,1728027355519,0.23852539,-0.96832275,-0.3789673,28.890625,33.65625,-2.265625
298,298,1728027355559,0.28686523,-0.7312622,-0.48345947,-10.09375,-7.765625,9.9375
299,299,1728027355599,0.049804688,-0.7776489,-0.46588135,-23.4375,-17.46875,16.078125
300,300,1728027355639,0.024169922,-0.9133911,-0.31280518,-15.375,-4.59375,-1.578125
301,301,1728027355679,0.15234375,-0.88287354,-0.27227783,-10.65625,-5.09375,-3.5
302,302,1728027355719,0.09814453,-0.7107544,-0.27545166,-4.484375,-8.40625,-0.109375
303,303,1728027355759,0.07739258,-0.6536255,-0.22955322,-5.0,-11.296875,0.03125
304,304,1728027355799,0.012939453,-0.66534424,-0.18902588,-6.71875,-15.296875,2.296875
305,305,1728027355839,0.02319336,-0.7058716,-0.20977783,-13.84375,-14.140625,1.328125
306,306,1728027355879,0.04663086,-0.7481079,-0.15362549,-9.875,-5.484375,-0.21875
307,307,1728027355919,0.044677734,-0.83673096,-0.14361572,-13.265625,-13.109375,5.578125
308,308,1728027355959,0.08251953,-0.9390259,-0.16656494,-10.46875,-5.4375,0.390625
309,309,1728027355999,0.067871094,-1.0386353,-0.09429932,-9.203125,0.59375,-6.0625
310,310,1728027356039,-0.005126953,-1.2529907,-0.121398926,-13.359375,-0.453125,-8.296875
311,311,1728027356079,0.037353516,-1.2549438,-0.32330322,-11.640625,-3.0,-6.609375
312,312,1728027356119,0.21875,-1.2954712,-0.4500122,-12.078125,-1.5625,-1.78125
313,313,1728027356159,0.09057617,-1.1697388,-0.38043213,10.71875,8.40625,-9.28125
314,314,1728027356199,0.034179688,-1.0078735,-0.46392822,7.171875,18.890625,-8.609375
315,315,1728027356239,0.0390625,-0.84454346,-0.47808838,-0.109375,15.078125,-2.265625
316,316,1728027356279,0.018554688,-0.8362427,-0.44854736,7.265625,13.125,-1.375
317,317,1728027356319,-0.034179688,-0.9776001,-0.26153564,14.96875,20.5625,-1.28125
318,318,1728027356359,-0.07080078,-0.7932739,-0.19342041,18.625,21.484375,-5.65625
319,319,1728027356399,0.012207031,-0.6519165,-0.20245361,6.421875,16.28125,-2.375
320,320,1728027356439,-0.068115234,-0.60162354,-0.2654419,1.140625,11.84375,2.96875
321,321,1728027356479,-0.06713867,-0.7046509,-0.25958252,-0.765625,11.234375,2.484375
322,322,1728027356519,-0.11816406,-0.8225708,-0.2456665,-2.015625,13.0,2.21875
323,323,1728027356559,-0.064453125,-0.8237915,-0.26226807,-3.921875,8.046875,2.171875
324,324,1728027356599,-0.10083008,-0.9038696,-0.22564697,-1.03125,9.875,1.875
325,325,1728027356639,-0.114746094,-0.8555298,-0.3027954,2.359375,5.484375,0.625
326,326,1728027356679,-0.08911133,-0.940979,-0.21612549,4.484375,4.75,0.84375
327,327,1728027356719,-0.16821289,-1.0061646,-0.14874268,-0.265625,7.234375,1.46875
328,328,1728027356759,-0.19848633,-1.1504517,-0.34747314,-9.59375,0.625,2.71875
329,329,1728027356799,-0.16674805,-1.2620239,-0.40924072,-5.984375,3.640625,5.90625
330,330,1728027356839,-0.045654297,-1.4407349,-0.71588135,2.0,-4.3125,14.5
331,331,1728027356879,0.053955078,-1.3035278,-0.4446411,24.609375,15.234375,2.21875
332,332,1728027356919,0.1616211,-0.9976196,-0.29400635,18.53125,27.84375,3.21875
333,333,1728027356959,0.3166504,-0.6819458,-0.5564575,-16.25,-16.25,18.109375
334,334,1728027356999,0.014892578,-0.8814087,-0.31402588,-6.5,-0.890625,7.578125
335,335,1728027357039,0.0107421875,-0.98760986,-0.20391846,-2.890625,2.640625,-6.171875
336,336,1728027357079,0.0793457,-0.835022,-0.18560791,-0.671875,-9.609375,-1.453125
337,337,1728027357119,0.022460938,-0.7283325,-0.21734619,-3.28125,-15.234375,3.125
338,338,1728027357159,0.0073242188,-0.63946533,-0.21588135,-5.0,-9.0625,3.6875
339,339,1728027357199,0.01977539,-0.63531494,-0.17730713,3.5625,-4.953125,6.78125
340,340,1728027357239,-0.011474609,-0.7073364,-0.15679932,5.15625,-1.921875,4.84375
341,341,1728027357279,-0.0126953125,-0.80181885,-0.17095947,1.25,-9.15625,7.09375
342,342,1728027357319,0.012939453,-0.70928955,-0.21783447,4.046875,0.515625,4.828125
343,343,1728027357359,-0.018554688,-0.9053345,-0.21417236,0.375,3.015625,2.34375
344,344,1728027357399,0.056396484,-1.0567017,-0.15533447,9.8125,3.671875,0.3125
345,345,1728027357439,-0.045166016,-1.1472778,-0.16461182,4.140625,10.65625,-1.046875
346,346,1728027357479,0.017089844,-1.0593872,-0.14971924,1.09375,1.296875,-0.15625
347,347,1728027357519,-0.041748047,-1.1814575,-0.237854,9.859375,13.390625,-0.078125
348,348,1728027357559,0.053222656,-1.163147,-0.5249634,-5.484375,-21.625,10.71875
349,349,1728027357599,0.075927734,-1.312561,-0.6279907,25.734375,-2.21875,6.828125
350,350,1728027357639,-0.045166016,-1.0493774,-0.6380005,31.3125,16.21875,-3.265625
351,351,1728027357679,0.13793945,-0.79400635,-0.6992798,20.765625,18.296875,-0.078125
352,352,1728027357719,0.060302734,-0.7942505,-0.6240845,7.765625,20.46875,1.859375
353,353,1728027357759,-0.010009766,-0.9639282,-0.53985596,4.28125,19.328125,6.265625
354,354,1728027357799,-0.16455078,-0.8435669,-0.50616455,-3.796875,15.171875,7.4375
355,355,1728027357839,-0.15161133,-0.73223877,-0.46368408,-3.21875,28.953125,-1.859375
356,356,1728027357879,-0.08178711,-0.6980591,-0.40631104,-0.953125,34.625,-4.5
357,357,1728027357919,-0.039794922,-0.6174927,-0.38580322,2.078125,32.015625,3.875
358,358,1728027357959,-0.11450195,-0.5623169,-0.35333252,0.046875,29.03125,14.21875
359,359,1728027357999,-0.14257812,-0.60113525,-0.3587036,-2.140625,33.65625,15.515625
360,360,1728027358039,-0.20825195,-0.7227173,-0.37994385,-9.921875,30.71875,15.453125
361,361,1728027358079,-0.19506836,-0.72857666,-0.3899536,-10.171875,29.625,13.765625
362,362,1728027358119,-0.24780273,-0.75128174,-0.3418579,-8.890625,33.765625,7.984375
363,363,1728027358159,-0.24291992,-0.8328247,-0.31158447,-9.328125,30.625,5.765625
364,364,1728027358199,-0.23779297,-0.8311157,-0.34429932,-9.890625,26.8125,6.640625
365,365,1728027358239,-0.21826172,-0.93048096,-0.38238525,-15.109375,15.9375,9.46875
366,366,1728027358279,-0.23852539,-1.0171509,-0.35186768,-14.359375,14.71875,8.046875
367,367,1728027358319,-0.27978516,-1.1646118,-0.23712158,-16.5625,19.703125,1.609375
368,368,1728027358359,-0.35546875,-1.2820435,-0.23223877,-41.890625,6.3125,0.546875
369,369,1728027358399,-0.03515625,-1.0530396,-0.72491455,-43.71875,5.140625,5.09375
370,370,1728027358439,0.20361328,-0.7058716,-0.42974854,2.203125,54.1875,-8.65625
371,371,1728027358479,-0.08178711,-1.1575317,-0.18267822,-32.390625,19.828125,13.875
372,372,1728027358519,-0.15454102,-0.9907837,-0.30596924,-18.265625,20.34375,3.421875
373,373,1728027358559,-0.14038086,-1.0178833,-0.28155518,-10.265625,28.53125,-0.875
374,374,1728027358599,-0.13427734,-0.9204712,-0.1987915,11.796875,40.28125,-1.671875
375,375,1728027358639,-0.11010742,-0.7661743,-0.1675415,8.703125,38.125,6.359375
376,376,1728027358679,-0.17626953,-0.72369385,-0.12188721,14.90625,48.5625,7.09375
377,377,1728027358719,-0.13378906,-0.755188,-0.14508057,7.0625,43.0,12.078125
378,378,1728027358759,-0.0793457,-0.81573486,-0.06378174,-0.921875,42.3125,12.421875
379,379,1728027358799,-0.045410156,-0.87164307,-0.10430908,0.65625,34.0625,13.75
380,380,1728027358839,-0.033935547,-0.89312744,-0.10870361,1.828125,25.515625,12.859375
381,381,1728027358879,-0.0769043,-0.9807739,-0.013244629,-0.375,23.25,11.9375
382,382,1728027358919,-0.13598633,-1.017395,0.06048584,-2.90625,15.140625,6.515625
383,383,1728027358959,-0.123535156,-1.0176392,-0.006652832,-6.03125,13.96875,2.125
384,384,1728027358999,-0.2932129,-1.1785278,0.08270264,-15.46875,14.3125,-5.765625
385,385,1728027359039,-0.28295898,-1.2312622,-0.17266846,-18.265625,6.125,-14.828125
386,386,1728027359079,-0.22558594,-1.3093872,-0.1716919,-12.4375,5.671875,-8.515625
387,387,1728027359119,-0.061279297,-0.8665161,-0.6292114,0.5,-1.5625,3.046875
388,388,1728027359159,-0.21923828,-0.8545532,-0.3213501,12.59375,37.765625,1.09375
389,389,1728027359199,-0.17626953,-1.0178833,-0.0256958,8.234375,32.265625,-3.21875
390,390,1728027359239,-0.09423828,-1.046936,-0.038391113,9.578125,14.8125,1.59375
391,391,1728027359279,-0.14648438,-0.8467407,-0.10357666,-1.40625,12.078125,7.5
392,392,1728027359319,-0.19604492,-0.8147583,-0.105285645,-3.953125,14.421875,6.0
393,393,1728027359359,-0.18261719,-0.7605591,-0.09429932,-4.796875,14.453125,4.796875
394,394,1728027359399,-0.23120117,-0.8530884,-0.027893066,-1.25,12.109375,5.9375
395,395,1728027359439,-0.3232422,-0.81207275,-0.035217285,7.234375,14.625,1.859375
396,396,1728027359479,-0.27905273,-0.8311157,-0.06304932,5.140625,13.140625,0.359375
397,397,1728027359519,-0.2548828,-0.83599854,-0.085754395,4.65625,10.8125,3.15625
398,398,1728027359559,-0.24609375,-0.9819946,-0.06890869,4.21875,12.53125,6.21875
399,399,1728027359599,-0.2932129,-1.1089478,-0.04937744,-0.0625,17.453125,3.328125
400,400,1728027359639,-0.24975586,-1.2542114,-0.0335083,-1.71875,17.1875,-1.4375
401,401,1728027359679,-0.19726562,-1.3235474,-0.15240479,-5.875,2.578125,-4.03125
402,402,1728027359719,-0.046875,-1.0720825,-0.43878174,7.96875,-0.21875,-5.265625
403,403,1728027359759,0.24902344,-0.82403564,-0.28179932,22.78125,23.390625,-3.328125
404,404,1728027359799,-0.09838867,-1.1140747,0.0004272461,-4.625,17.984375,8.5
405,405,1728027359839,-0.24389648,-1.0801392,-0.15142822,-9.8125,-1.53125,1.03125
406,406,1728027359879,-0.22729492,-0.9534302,-0.15899658,-2.6875,1.296875,-3.6875
407,407,1728027359919,-0.16137695,-0.84552,-0.11651611,10.75,14.3125,-4.484375
408,408,1728027359959,-0.14379883,-0.7420044,-0.117248535,11.265625,15.140625,-1.671875
409,409,1728027359999,-0.14257812,-0.7815552,-0.10650635,7.6875,12.6875,0.78125
410,410,1728027360039,-0.068603516,-0.83306885,-0.046447754,12.625,15.078125,3.4375
411,411,1728027360079,-0.118652344,-0.89727783,0.0368042,9.109375,14.765625,5.015625
412,412,1728027360119,-0.11669922,-0.9168091,0.022644043,6.6875,16.0,3.84375
413,413,1728027360159,-0.16064453,-0.881897,-0.08502197,-6.8125,6.453125,5.1875
414,414,1728027360199,-0.22241211,-0.9776001,-0.15167236,-3.625,5.28125,2.890625
415,415,1728027360239,-0.21411133,-1.0796509,-0.007873535,8.734375,20.421875,0.125
416,416,1728027360279,-0.4008789,-1.2874146,0.02166748,-12.546875,7.53125,-0.546875
417,417,1728027360319,-0.38842773,-1.1655884,-0.3513794,-20.46875,-4.765625,-6.171875
418,418,1728027360359,-0.01977539,-0.8328247,-0.6304321,23.5625,35.28125,5.578125
419,419,1728027360399,-0.20727539,-0.7822876,-0.40997314,39.3125,58.828125,14.8125
420,420,1728027360439,-0.1809082,-1.1751099,-0.1494751,22.34375,43.703125,8.703125
421,421,1728027360479,-0.13427734,-1.1438599,-0.1651001,16.390625,27.09375,10.671875
422,422,1728027360519,-0.106933594,-0.892395,-0.22003174,12.75,29.59375,12.609375
423,423,1728027360559,-0.16625977,-0.74224854,-0.22906494,9.40625,23.09375,11.484375
424,424,1728027360599,-0.16015625,-0.6807251,-0.13873291,-1.625,15.046875,9.453125
425,425,1728027360639,-0.2163086,-0.8140259,-0.14459229,-6.34375,4.015625,9.828125
426,426,1728027360679,-0.24707031,-0.81329346,-0.13336182,-3.984375,-1.625,10.359375
427,427,1728027360719,-0.28320312,-0.8713989,-0.23077393,-9.03125,-1.96875,9.34375
428,428,1728027360759,-0.27392578,-0.9649048,-0.20391846,0.734375,9.5,7.71875
429,429,1728027360799,-0.20385742,-1.0918579,-0.14508057,-1.671875,20.890625,2.453125
430,430,1728027360839,-0.14453125,-1.2805786,-0.20465088,-3.171875,13.140625,1.5
431,431,1728027360879,-0.059814453,-1.319397,-0.44366455,-22.90625,-12.125,3.21875
432,432,1728027360919,0.107177734,-0.9561157,-0.56378174,20.625,28.828125,2.1875
433,433,1728027360959,0.24536133,-0.9331665,-0.15362549,1.5625,20.765625,2.125
434,434,1728027360999,-0.2199707,-1.2512817,-0.27178955,-29.859375,-11.0,14.9375
435,435,1728027361039,-0.20507812,-0.9619751,-0.31256104,-4.890625,4.5,2.875
436,436,1728027361079,-0.041748047,-0.8098755,-0.16314697,19.5,26.03125,2.546875
437,437,1728027361119,-0.09472656,-0.7827759,-0.13848877,7.0625,14.796875,9.0625
438,438,1728027361159,-0.06982422,-0.83258057,-0.16705322,-1.546875,7.90625,14.03125
439,439,1728027361199,-0.06201172,-0.89312744,-0.09527588,-3.03125,9.453125,13.640625
440,440,1728027361239,-0.09643555,-0.9065552,-0.11114502,2.34375,17.03125,6.203125
441,441,1728027361279,-0.08496094,-0.8418579,-0.09649658,6.84375,20.84375,2.90625
442,442,1728027361319,-0.05908203,-0.8460083,-0.09942627,5.09375,21.96875,4.734375
443,443,1728027361359,-0.1003418,-0.93585205,-0.04107666,2.78125,24.515625,4.484375
444,444,1728027361399,-0.118896484,-1.055481,-0.058898926,-1.421875,24.75,3.234375
445,445,1728027361439,-0.12915039,-1.0681763,-0.23199463,-18.65625,13.96875,8.171875
446,446,1728027361479,-0.07324219,-1.2368774,-0.44488525,1.625,8.59375,-0.34375
447,447,1728027361519,0.078125,-1.4229126,-0.34210205,17.859375,0.0,-7.265625
448,448,1728027361559,-0.17456055,-1.4006958,-0.5252075,35.203125,16.734375,-1.875
449,449,1728027361599,-0.046875,-0.95684814,-0.6555786,21.0,39.953125,3.65625
450,450,1728027361639,-0.16259766,-0.8357544,-0.48638916,7.890625,36.375,3.0
451,451,1728027361679,-0.18530273,-0.83428955,-0.3772583,7.578125,40.03125,4.578125
452,452,1728027361719,-0.16796875,-0.8687134,-0.30889893,12.34375,46.34375,4.515625
453,453,1728027361759,-0.16894531,-0.77545166,-0.32940674,4.3125,42.703125,13.3125
454,454,1728027361799,-0.13500977,-0.6668091,-0.31256104,7.078125,46.53125,9.984375
455,455,1728027361839,-0.04663086,-0.6682739,-0.3809204,-1.5,39.03125,14.875
456,456,1728027361879,-0.03173828,-0.722229,-0.33599854,0.984375,34.734375,17.53125
457,457,1728027361919,-0.09643555,-0.7998657,-0.27008057,3.875,26.5,14.859375
458,458,1728027361959,-0.11767578,-0.8831177,-0.2456665,2.96875,20.71875,12.5
459,459,1728027361999,-0.111572266,-0.8245239,-0.2859497,-4.40625,10.578125,15.765625
460,460,1728027362039,-0.15429688,-0.8250122,-0.23956299,-9.265625,8.046875,11.90625
461,461,1728027362079,-0.3161621,-1.039856,-0.30499268,-13.796875,8.109375,6.609375
462,462,1728027362119,-0.26391602,-1.2068481,-0.33721924,2.828125,17.25,-0.515625
463,463,1728027362159,-0.21289062,-1.2302856,-0.27618408,5.03125,16.34375,2.15625
464,464,1728027362199,-0.09326172,-1.3345337,-0.5237427,-2.75,2.109375,9.71875
465,465,1728027362239,0.26953125,-1.2285767,-0.68951416,2.703125,-7.15625,10.859375
466,466,1728027362279,0.21020508,-1.1394653,-0.13946533,17.359375,14.03125,5.0625
467,467,1728027362319,0.28735352,-0.90460205,-0.255188,-13.796875,-5.0,6.84375
468,468,1728027362359,0.11621094,-0.7463989,-0.44439697,-13.5,-10.15625,12.71875
469,469,1728027362399,-0.14111328,-0.93096924,-0.15704346,-6.8125,-1.734375,0.015625
470,470,1728027362439,-0.028808594,-0.925354,-0.109436035,-1.328125,-4.515625,-2.328125
471,471,1728027362479,0.012939453,-0.7227173,-0.18414307,0.328125,-11.859375,0.46875
472,472,1728027362519,0.026855469,-0.65704346,-0.16778564,-1.828125,-4.859375,2.421875
473,473,1728027362559,0.025146484,-0.7246704,-0.12335205,-3.34375,-3.234375,4.65625
474,474,1728027362599,-0.025634766,-0.7503052,-0.117004395,-1.125,-3.84375,5.140625
475,475,1728027362639,-0.009521484,-0.8189087,-0.15704346,-0.515625,-6.40625,4.234375
476,476,1728027362679,0.036376953,-0.81744385,-0.06939697,2.890625,-2.28125,-0.171875
477,477,1728027362719,-0.046142578,-0.8887329,-0.077697754,-4.515625,-4.140625,-0.1875
478,478,1728027362759,0.040771484,-0.95758057,-0.121154785,-7.453125,-4.484375,-3.796875
479,479,1728027362799,-0.041259766,-1.1216431,-0.13189697,-8.171875,-5.65625,-4.328125
480,480,1728027362839,-0.119140625,-1.2549438,-0.28619385,0.40625,-6.5,-10.125
481,481,1728027362879,0.061523438,-1.3518677,-0.56427,7.1875,-10.71875,-7.828125
482,482,1728027362919,-0.020751953,-1.5137329,-0.21368408,12.5625,-11.359375,-5.40625
483,483,1728027362959,-0.23095703,-1.147522,-0.23272705,25.765625,19.96875,-9.90625
484,484,1728027362999,0.21508789,-0.65460205,-0.58477783,4.078125,25.640625,-4.90625
485,485,1728027363039,-0.05810547,-0.6565552,-0.40802002,9.890625,32.125,3.3125
486,486,1728027363079,-0.09472656,-1.0252075,-0.17388916,11.75,23.734375,2.390625
487,487,1728027363119,-0.06933594,-0.84820557,-0.1585083,17.890625,24.078125,1.890625
488,488,1728027363159,-0.053955078,-0.64434814,-0.27716064,4.015625,18.484375,3.96875
489,489,1728027363199,-0.017578125,-0.6057739,-0.29815674,0.96875,16.5,5.0
490,490,1728027363239,-0.087890625,-0.6643677,-0.29327393,3.796875,13.4375,7.875
491,491,1728027363279,-0.122802734,-0.78619385,-0.30352783,4.03125,8.109375,4.578125
492,492,1728027363319,-0.122802734,-0.9038696,-0.21954346,3.09375,4.09375,1.390625
493,493,1728027363359,-0.12866211,-0.9326782,-0.21636963,2.78125,2.046875,0.21875
494,494,1728027363399,-0.083984375,-0.8792114,-0.20635986,0.5,-1.546875,-0.125
495,495,1728027363439,-0.10668945,-0.88165283,-0.31524658,-4.5,-4.3125,3.71875
496,496,1728027363479,-0.1743164,-1.0464478,-0.21734619,2.15625,2.46875,2.359375
497,497,1728027363519,-0.18359375,-1.0923462,-0.26470947,4.671875,3.984375,4.359375
498,498,1728027363559,-0.111083984,-1.109436,-0.40045166,-1.453125,-4.90625,6.75
499,499,1728027363599,-0.09106445,-1.4011841,-0.5996704,-7.828125,-19.25,10.25
500,500,1728027363639,0.03564453,-1.5952759,-0.6121216,20.484375,-9.8125,5.640625
501,501,1728027363679,0.05102539,-1.1021118,-0.48760986,23.296875,11.28125,0.640625
502,502,1728027363719,0.25732422,-0.6983032,-0.5484009,1.40625,-1.65625,1.890625
503,503,1728027363759,0.23071289,-0.74542236,-0.37994385,-24.046875,-15.3125,11.546875
504,504,1728027363799,-0.12670898,-0.9854126,-0.32867432,-14.609375,-15.75,4.390625
505,505,1728027363839,0.021972656,-0.7749634,-0.25689697,-0.1875,-12.65625,-3.96875
506,506,1728027363879,0.06958008,-0.71588135,-0.22369385,-2.0625,-12.578125,-0.78125
507,507,1728027363919,0.0007324219,-0.6709595,-0.2546997,3.109375,-12.96875,1.0625
508,508,1728027363959,0.027832031,-0.6460571,-0.18658447,2.15625,-8.53125,2.0625
509,509,1728027363999,-0.0048828125,-0.65631104,-0.20391846,-3.28125,-8.109375,3.203125
510,510,1728027364039,-0.03564453,-0.72320557,-0.1663208,-2.0,-5.625,2.125
511,511,1728027364079,-0.037841797,-0.7295532,-0.23370361,1.453125,-3.59375,-0.640625
512,512,1728027364119,0.040527344,-0.815979,-0.1819458,5.9375,0.25,-4.53125
513,513,1728027364159,0.033691406,-1.1165161,-0.1560669,0.296875,5.84375,-0.34375
514,514,1728027364199,-0.12573242,-1.2527466,-0.21710205,-5.859375,4.4375,-2.625
515,515,1728027364239,-0.03564453,-1.1868286,-0.51226807,-9.375,-8.234375,-5.765625
516,516,1728027364279,0.064697266,-1.2073364,-0.6487427,-6.15625,-20.71875,10.546875
517,517,1728027364319,0.024902344,-1.3049927,-0.59088135,18.59375,16.34375,-3.40625
518,518,1728027364359,-0.1640625,-1.0947876,-0.38336182,30.0625,46.265625,-8.109375
519,519,1728027364399,0.00390625,-0.83013916,-0.550354,1.75,31.75,4.0
520,520,1728027364439,0.04248047,-0.5886841,-0.61187744,6.90625,24.578125,12.6875
521,521,1728027364479,-0.088134766,-0.85601807,-0.4109497,13.59375,36.125,2.875
522,522,1728027364519,-0.08544922,-0.83428955,-0.24884033,22.6875,37.578125,2.71875
523,523,1728027364559,-0.072509766,-0.5906372,-0.25201416,7.625,24.09375,10.0625
524,524,1728027364599,-0.08691406,-0.61920166,-0.35406494,-0.828125,19.65625,11.859375
525,525,1728027364639,-0.13916016,-0.5750122,-0.33795166,-0.734375,17.75,13.265625
526,526,1728027364679,-0.13549805,-0.6995239,-0.3484497,-6.796875,10.25,10.71875
527,527,1728027364719,-0.17895508,-0.8362427,-0.35186768,-4.671875,10.75,7.03125
528,528,1728027364759,-0.1496582,-0.8428345,-0.3242798,1.140625,13.875,4.5625
529,529,1728027364799,-0.15454102,-0.8772583,-0.37017822,-4.609375,7.765625,5.515625
530,530,1728027364839,-0.15527344,-0.95391846,-0.34796143,-3.28125,12.546875,1.78125
531,531,1728027364879,-0.16381836,-1.0505981,-0.3657837,-8.703125,13.140625,6.0
532,532,1728027364919,-0.2006836,-1.2210083,-0.440979,-17.4375,-3.125,7.078125
533,533,1728027364959,-0.18041992,-1.3984985,-0.5479126,-30.03125,-11.671875,5.25
534,534,1728027364999,-0.02319336,-1.3584595,-0.9976196,-7.8125,-15.515625,13.375
535,535,1728027365039,0.37304688,-0.95147705,-0.5046997,31.71875,33.609375,-5.6875
536,536,1728027365079,0.14697266,-0.9561157,-0.10235596,17.65625,16.875,9.75
537,537,1728027365119,0.20727539,-0.6506958,-0.5606079,-36.0,-21.515625,23.515625
538,538,1728027365159,-0.17822266,-0.7119751,-0.4265747,-8.859375,-2.203125,14.171875
539,539,1728027365199,-0.049560547,-0.83673096,-0.2107544,3.078125,13.6875,-4.96875
540,540,1728027365239,0.07446289,-0.82647705,-0.2625122,-0.90625,4.171875,1.6875
541,541,1728027365279,-0.034179688,-0.63482666,-0.23272705,1.40625,3.515625,5.578125
542,542,1728027365319,0.011230469,-0.6838989,-0.21539307,-11.28125,4.46875,4.140625
543,543,1728027365359,-0.0107421875,-0.82159424,-0.21466064,-9.609375,10.203125,2.09375
544,544,1728027365399,0.009521484,-0.8604126,-0.190979,-6.171875,8.359375,2.609375
545,545,1728027365439,-0.04345703,-0.84869385,-0.17706299,-8.1875,7.109375,2.0625
546,546,1728027365479,-0.016845703,-0.83843994,-0.20440674,-8.546875,6.59375,4.84375
547,547,1728027365519,0.001953125,-0.9378052,-0.14996338,-11.453125,10.53125,0.015625
548,548,1728027365559,-0.044921875,-1.060852,-0.10870361,-13.21875,9.015625,0.03125
549,549,1728027365599,-0.06616211,-1.0906372,-0.18096924,-16.21875,9.3125,-3.4375
550,550,1728027365639,-0.0690918,-1.1480103,-0.29766846,-6.40625,11.234375,-4.109375
551,551,1728027365679,0.009277344,-1.3130493,-0.5010376,-4.15625,0.84375,-2.390625
552,552,1728027365719,0.08618164,-1.315979,-0.27838135,7.34375,-8.40625,-5.984375
553,553,1728027365759,-0.24291992,-1.1409302,-0.36968994,21.25,22.859375,-8.0
554,554,1728027365799,0.029785156,-0.85284424,-0.5042114,-10.734375,22.296875,-1.40625
555,555,1728027365839,-0.028808594,-0.8115845,-0.456604,4.765625,22.53125,-2.171875
556,556,1728027365879,-0.12597656,-1.0188599,-0.32403564,12.84375,25.265625,-3.375
557,557,1728027365919,-0.12524414,-0.8464966,-0.16461182,21.375,32.4375,0.25
558,558,1728027365959,-0.107666016,-0.6904907,-0.14361572,6.78125,26.75,4.640625
559,559,1728027365999,-0.061767578,-0.5696411,-0.24078369,-3.140625,25.28125,7.984375
560,560,1728027366039,-0.1418457,-0.64678955,-0.25836182,-5.28125,24.890625,10.953125
561,561,1728027366079,-0.19580078,-0.7876587,-0.29205322,-4.5625,25.296875,10.515625
562,562,1728027366119,-0.14477539,-0.8513794,-0.24517822,2.265625,25.84375,8.46875
563,563,1728027366159,-0.13500977,-0.87579346,-0.22784424,-3.640625,22.375,8.8125
564,564,1728027366199,-0.107177734,-0.83477783,-0.1987915,0.875,21.0625,6.796875
565,565,1728027366239,-0.09277344,-0.944397,-0.22247314,-8.015625,11.8125,10.40625
566,566,1728027366279,-0.19042969,-1.0618286,-0.1741333,-2.546875,16.171875,8.6875
567,567,1728027366319,-0.20629883,-1.1189575,-0.19390869,-4.796875,16.84375,7.6875
568,568,1728027366359,-0.12207031,-1.1450806,-0.2637329,-6.015625,12.984375,11.546875
569,569,1728027366399,-0.09326172,-1.2451782,-0.6243286,-5.703125,-3.265625,15.953125
570,570,1728027366439,0.057617188,-1.3713989,-0.5354614,22.25,-5.109375,4.734375
571,571,1728027366479,0.06274414,-1.1126099,-0.19244385,33.28125,17.234375,3.3125
572,572,1728027366519,0.24487305,-0.8106079,-0.47027588,-13.421875,-9.15625,4.15625
573,573,1728027366559,0.09716797,-0.7456665,-0.45220947,-10.921875,-7.703125,8.78125
574,574,1728027366599,-0.09887695,-1.0447388,-0.21392822,6.625,3.671875,0.28125
575,575,1728027366639,0.00390625,-0.8880005,-0.16485596,3.15625,-3.84375,-1.40625
576,576,1728027366679,0.01928711,-0.7554321,-0.22076416,-2.0,-6.75,2.140625
577,577,1728027366719,0.015625,-0.6814575,-0.2341919,0.78125,-0.109375,3.859375
578,578,1728027366759,0.0029296875,-0.7359009,-0.16461182,4.609375,4.0,5.328125
579,579,1728027366799,0.010009766,-0.74713135,-0.09527588,-0.78125,-2.75,7.5625
580,580,1728027366839,-0.010986328,-0.7859497,-0.18780518,-6.609375,-7.140625,10.0625
581,581,1728027366879,-0.03100586,-0.8154907,-0.17730713,3.4375,1.21875,4.515625
582,582,1728027366919,-0.009033203,-0.85162354,-0.13458252,11.453125,9.734375,1.390625
583,583,1728027366959,0.012939453,-0.913147,-0.16485596,-3.53125,1.1875,0.6875
584,584,1728027366999,0.001953125,-1.0796509,-0.12628174,-1.703125,5.90625,-3.8125
585,585,1728027367039,-0.099853516,-1.0654907,-0.09967041,-16.640625,-12.75,0.65625
586,586,1728027367079,0.07739258,-1.0784302,-0.26763916,-10.796875,-11.703125,-3.15625
587,587,1728027367119,0.1418457,-1.2383423,-0.47564697,-8.515625,-16.859375,6.40625
588,588,1728027367159,-0.010498047,-1.4863892,-0.59161377,10.453125,-15.65625,-2.40625
589,589,1728027367199,-0.059570312,-1.217102,-0.3916626,29.578125,26.609375,-13.125
590,590,1728027367239,0.20581055,-0.92559814,-0.48614502,17.15625,23.484375,4.0625
591,591,1728027367279,-0.056884766,-0.7407837,-0.45977783,13.015625,17.6875,8.796875
592,592,1728027367319,-0.0390625,-0.87750244,-0.4133911,0.171875,17.640625,-1.5
593,593,1728027367359,-0.09301758,-0.8982544,-0.29107666,10.75,27.53125,-2.1875
594,594,1728027367399,-0.036376953,-0.6980591,-0.3045044,7.0,23.515625,3.59375
595,595,1728027367439,-0.04248047,-0.5471802,-0.35406494,8.171875,24.59375,2.734375
596,596,1728027367479,-0.052246094,-0.6194458,-0.3045044,7.3125,22.171875,6.203125
597,597,1728027367519,-0.049560547,-0.66607666,-0.32525635,6.984375,14.765625,7.765625
598,598,1728027367559,-0.08911133,-0.76568604,-0.30889893,5.71875,9.546875,7.8125
599,599,1728027367599,-0.10131836,-0.7781372,-0.300354,4.875,11.21875,4.9375
600,600,1728027367639,-0.107421875,-0.9155884,-0.2930298,3.921875,5.984375,3.53125
601,601,1728027367679,-0.123046875,-0.88726807,-0.34210205,1.8125,1.125,3.65625
602,602,1728027367719,-0.15527344,-1.0266724,-0.33380127,0.703125,3.140625,5.359375
603,603,1728027367759,-0.21923828,-0.96588135,-0.3513794,2.796875,11.6875,0.40625
604,604,1728027367799,-0.0859375,-1.0059204,-0.40704346,5.703125,19.515625,3.046875
605,605,1728027367839,-0.13305664,-1.1096802,-0.5515747,-8.46875,3.0,12.984375
606,606,1728027367879,-0.11816406,-1.2039185,-0.75323486,-10.09375,-9.28125,12.09375
607,607,1728027367919,0.20654297,-1.461731,-0.70269775,-1.03125,22.59375,-3.953125
608,608,1728027367959,0.100097656,-1.0840454,-0.56695557,12.8125,18.15625,0.21875
609,609,1728027367999,0.31835938,-0.6096802,-0.5623169,-6.125,-3.265625,5.078125
610,610,1728027368039,0.12792969,-0.8352661,-0.43267822,-14.171875,-6.609375,8.578125
611,611,1728027368079,-0.055908203,-0.9915161,-0.37164307,-13.96875,-10.015625,0.015625
612,612,1728027368119,0.014404297,-0.8467407,-0.24957275,-3.40625,-3.328125,-3.546875
613,613,1728027368159,0.025634766,-0.68927,-0.23492432,-5.875,-6.65625,0.71875
614,614,1728027368199,-0.008300781,-0.5755005,-0.24884033,-5.5625,-4.21875,2.40625
615,615,1728027368239,-0.04663086,-0.59088135,-0.24761963,-8.171875,-3.25,5.15625
616,616,1728027368279,-0.022460938,-0.7107544,-0.22271729,-11.53125,-1.765625,6.484375
617,617,1728027368319,-0.04321289,-0.8377075,-0.18951416,-5.8125,-0.140625,5.34375
618,618,1728027368359,-0.020751953,-0.7974243,-0.23272705,-8.40625,2.0625,2.53125
619,619,1728027368399,0.004638672,-0.93878174,-0.24078369,-7.265625,3.828125,-0.75
620,620,1728027368439,0.049072266,-0.975647,-0.10675049,-3.484375,7.90625,-5.203125
621,621,1728027368479,0.0012207031,-1.046936,-0.13995361,-8.921875,4.25,-4.421875
622,622,1728027368519,0.021240234,-0.97247314,-0.16070557,-15.390625,-8.265625,-3.765625
623,623,1728027368559,-0.012939453,-1.0691528,-0.24615479,-8.296875,-6.40625,-6.59375
624,624,1728027368599,-0.033691406,-1.149231,-0.33477783,-11.046875,-7.421875,-9.125
625,625,1728027368639,0.006591797,-1.2791138,-0.36065674,-9.015625,-15.5,-3.25
626,626,1728027368679,-0.099609375,-1.5474243,-0.28131104,2.15625,-12.671875,-11.8125
627,627,1728027368719,-0.21118164,-1.2861938,-0.37139893,21.515625,7.40625,-23.359375
628,628,1728027368759,0.064941406,-0.7866821,-0.5130005,17.265625,15.453125,-18.03125
629,629,1728027368799,-0.10180664,-0.65582275,-0.41949463,3.265625,11.953125,0.859375
630,630,1728027368839,-0.09008789,-0.84381104,-0.39898682,6.34375,12.390625,-2.234375
631,631,1728027368879,-0.119628906,-0.88360596,-0.14508057,18.53125,16.328125,-2.453125
632,632,1728027368919,-0.14697266,-0.6694946,-0.1687622,13.578125,9.921875,1.421875
633,633,1728027368959,-0.083984375,-0.5071411,-0.23321533,6.734375,8.640625,2.984375
634,634,1728027368999,-0.10620117,-0.62286377,-0.31402588,-6.859375,10.4375,8.03125
635,635,1728027369039,-0.09765625,-0.7769165,-0.30718994,0.203125,8.984375,9.609375
636,636,1728027369079,-0.17041016,-0.95098877,-0.22564697,-3.078125,1.84375,10.359375
637,637,1728027369119,-0.20727539,-0.97442627,-0.26226807,4.203125,6.46875,7.890625
638,638,1728027369159,-0.19482422,-0.767395,-0.2432251,2.375,8.671875,5.046875
639,639,1728027369199,-0.21313477,-0.8936157,-0.2678833,-1.4375,8.75,6.59375
640,640,1728027369239,-0.3161621,-0.93048096,-0.23028564,-8.8125,9.625,7.96875
641,641,1728027369279,-0.31201172,-0.95196533,-0.32159424,-0.984375,14.84375,6.578125
642,642,1728027369319,-0.20092773,-1.0032349,-0.2798462,5.140625,22.890625,6.71875
643,643,1728027369359,-0.21411133,-1.1270142,-0.24737549,8.140625,23.15625,6.53125
644,644,1728027369399,-0.10913086,-1.2305298,-0.4517212,-0.328125,9.8125,11.3125
645,645,1728027369439,-0.030273438,-1.409729,-0.6565552,-2.203125,-17.046875,14.515625
646,646,1728027369479,-0.022705078,-1.4592896,-0.54400635,24.828125,12.078125,5.921875
647,647,1728027369519,0.19213867,-0.909729,-0.48345947,12.75,6.25,5.4375
648,648,1728027369559,0.32739258,-0.65826416,-0.4837036,-3.03125,-10.59375,14.046875
649,649,1728027369599,0.050048828,-0.8635864,-0.27520752,-12.3125,-8.453125,12.96875
650,650,1728027369639,-0.033447266,-0.9109497,-0.24005127,-4.75,-9.984375,2.515625
651,651,1728027369679,0.01928711,-0.69854736,-0.20684814,3.359375,-7.53125,-0.53125
652,652,1728027369719,0.015625,-0.59088135,-0.21807861,1.578125,-11.21875,2.9375
653,653,1728027369759,-0.025390625,-0.61920166,-0.24737549,-1.921875,-6.1875,1.53125
654,654,1728027369799,0.004638672,-0.6980591,-0.19049072,-1.8125,-4.09375,2.328125
655,655,1728027369839,-0.012207031,-0.82696533,-0.21807861,-5.75,-9.171875,2.03125
656,656,1728027369879,0.013427734,-0.88360596,-0.24005127,3.390625,-1.421875,-1.796875
657,657,1728027369919,0.052978516,-0.8867798,-0.23223877,6.765625,0.296875,-3.890625
658,658,1728027369959,0.06958008,-0.89556885,-0.16070557,4.375,2.71875,-4.765625
659,659,1728027369999,0.028320312,-0.9800415,-0.19000244,-4.515625,-3.5,-2.859375
660,660,1728027370039,-0.0007324219,-0.9763794,-0.25421143,-9.84375,-15.046875,-2.640625
661,661,1728027370079,-0.033447266,-1.1038208,-0.3274536,-4.90625,-3.8125,-4.59375
662,662,1728027370119,-0.075683594,-1.1873169,-0.45147705,8.8125,-5.3125,-14.671875
663,663,1728027370159,0.18701172,-1.279602,-0.37164307,8.0625,-18.703125,-10.265625
664,664,1728027370199,-0.11450195,-1.4880981,-0.47076416,5.65625,-7.25,-5.546875
665,665,1728027370239,-0.0056152344,-0.90582275,-0.55841064,8.875,25.609375,-3.4375
666,666,1728027370279,0.052001953,-0.67681885,-0.58428955,-2.609375,6.40625,9.515625
667,667,1728027370319,-0.17114258,-0.80548096,-0.51690674,-2.90625,10.734375,6.484375
668,668,1728027370359,-0.22729492,-1.0108032,-0.44244385,-3.203125,18.109375,-5.484375
669,669,1728027370399,-0.11450195,-0.9109497,-0.33428955,4.1875,27.65625,-5.140625
670,670,1728027370439,-0.12207031,-0.67559814,-0.32403564,7.78125,30.3125,-4.421875
671,671,1728027370479,0.033203125,-0.6001587,-0.33795166,6.84375,26.25,0.65625
672,672,1728027370519,-0.103271484,-0.63360596,-0.27301025,2.359375,13.8125,9.90625
673,673,1728027370559,-0.118652344,-0.6577759,-0.3081665,1.234375,9.640625,10.09375
674,674,1728027370599,-0.13452148,-0.80181885,-0.33233643,-8.90625,9.828125,8.671875
675,675,1728027370639,-0.16430664,-0.82696533,-0.28619385,3.796875,13.28125,6.296875
676,676,1728027370679,-0.07446289,-0.87384033,-0.31207275,2.96875,10.34375,4.65625
677,677,1728027370719,-0.09082031,-0.8755493,-0.23077393,0.609375,2.1875,5.390625
678,678,1728027370759,-0.12207031,-0.94903564,-0.18267822,-0.25,-0.4375,5.8125
679,679,1728027370799,-0.28833008,-0.93878174,-0.24273682,-9.71875,-8.046875,8.609375
680,680,1728027370839,-0.30200195,-1.0120239,-0.3587036,-2.796875,5.015625,7.53125
681,681,1728027370879,-0.28564453,-1.0071411,-0.3538208,10.828125,15.0,3.234375
682,682,1728027370919,-0.09106445,-1.1638794,-0.4212036,12.296875,21.046875,11.0
683,683,1728027370959,-0.087890625,-1.270813,-0.7852173,-8.21875,-13.5,19.375
684,684,1728027370999,0.12915039,-1.5425415,-0.7398071,9.046875,8.015625,11.5
685,685,1728027371039,0.14013672,-1.0808716,-0.5132446,24.96875,27.203125,-0.1875
686,686,1728027371079,0.27172852,-0.7217407,-0.5161743,-2.53125,6.3125,5.171875
687,687,1728027371119,0.20751953,-0.7727661,-0.46270752,-28.15625,-6.828125,17.078125
688,688,1728027371159,-0.10571289,-0.8430786,-0.2835083,-14.8125,3.21875,6.25
689,689,1728027371199,0.10473633,-0.7305298,-0.19488525,-2.5,4.375,-1.28125
690,690,1728027371239,0.060058594,-0.6362915,-0.2197876,-2.6875,-5.4375,4.375
691,691,1728027371279,0.05102539,-0.5942993,-0.25689697,-7.484375,-5.265625,6.203125
692,692,1728027371319,-0.00024414062,-0.62384033,-0.22784424,-5.109375,-1.03125,7.0
693,693,1728027371359,-0.0021972656,-0.7319946,-0.2312622,-8.375,-5.765625,6.578125
694,694,1728027371399,0.013671875,-0.8616333,-0.16314697,-2.53125,0.921875,3.328125
695,695,1728027371439,0.02319336,-0.96661377,-0.23565674,-2.796875,2.328125,2.4375
696,696,1728027371479,0.103759766,-0.9011841,-0.14678955,-3.390625,10.375,-1.328125
697,697,1728027371519,0.14892578,-0.9561157,-0.13897705,-3.15625,10.28125,-0.859375
698,698,1728027371559,0.09643555,-1.0286255,-0.13409424,-13.65625,2.578125,0.53125
699,699,1728027371599,-0.037597656,-1.0471802,-0.19366455,-13.359375,-3.40625,0.0625
700,700,1728027371639,-0.056152344,-1.1060181,-0.21807861,-13.4375,5.546875,-10.703125
701,701,1728027371679,-0.08129883,-1.3748169,-0.35455322,-20.46875,-0.109375,-8.265625
702,702,1728027371719,-0.021240234,-1.2932739,-0.54888916,-11.25,1.140625,-0.59375
703,703,1728027371759,-0.17016602,-1.1526489,-0.3723755,45.40625,40.234375,-13.1875
704,704,1728027371799,-0.052734375,-0.7473755,-0.50982666,11.609375,32.296875,1.078125
705,705,1728027371839,-0.2541504,-0.64556885,-0.5083618,8.59375,23.671875,12.296875
706,706,1728027371879,-0.26782227,-0.7581177,-0.3562622,8.0,42.875,1.046875
707,707,1728027371919,-0.15478516,-0.97442627,-0.24102783,12.8125,43.671875,-0.296875
708,708,1728027371959,-0.09277344,-0.7329712,-0.22296143,8.578125,32.75,3.359375
709,709,1728027371999,-0.01171875,-0.67193604,-0.33355713,2.796875,28.5625,8.46875
710,710,1728027372039,-0.0793457,-0.71173096,-0.3040161,3.875,28.953125,9.65625
711,711,1728027372079,-0.14550781,-0.7913208,-0.2937622,1.515625,20.5,12.890625
712,712,1728027372119,-0.19384766,-0.8994751,-0.32891846,0.671875,18.109375,10.125
713,713,1728027372159,-0.21582031,-0.88238525,-0.30133057,3.265625,21.453125,6.984375
714,714,1728027372199,-0.21508789,-0.8196411,-0.28863525,7.0,19.328125,1.59375
715,715,1728027372239,-0.17285156,-0.92315674,-0.23809814,2.671875,15.578125,2.484375
716,716,1728027372279,-0.2541504,-0.9019165,-0.27838135,-2.1875,11.21875,7.359375
717,717,1728027372319,-0.24121094,-0.96173096,-0.2888794,-4.9375,13.390625,5.8125
718,718,1728027372359,-0.23657227,-0.958313,-0.2276001,-0.359375,16.6875,9.609375
719,719,1728027372399,-0.22045898,-0.97857666,-0.30841064,-6.09375,11.234375,13.109375
720,720,1728027372439,-0.19116211,-1.0723267,-0.45928955,-4.171875,6.984375,16.6875
721,721,1728027372479,-0.16210938,-1.3945923,-0.56695557,6.71875,-4.265625,21.90625
722,722,1728027372519,-0.04272461,-1.4656372,-0.6741333,16.859375,-8.65625,15.890625
723,723,1728027372559,0.06591797,-1.1658325,-0.6062622,24.0,10.1875,10.390625
724,724,1728027372599,0.32373047,-0.862854,-0.47955322,22.375,12.96875,5.234375
725,725,1728027372639,0.19433594,-0.8579712,-0.36553955,-2.4375,-4.765625,16.921875
726,726,1728027372679,0.011962891,-0.8220825,-0.43414307,-15.46875,-7.859375,12.5625
727,727,1728027372719,0.021972656,-0.7202759,-0.27886963,-1.578125,2.875,6.59375
728,728,1728027372759,0.026367188,-0.76641846,-0.22491455,-7.640625,-1.171875,5.953125
729,729,1728027372799,0.017822266,-0.6399536,-0.270813,1.0,-2.8125,4.921875
730,730,1728027372839,0.028564453,-0.5718384,-0.2612915,-1.453125,3.765625,5.125
731,731,1728027372879,0.01928711,-0.69659424,-0.2612915,-2.859375,3.5,5.4375
732,732,1728027372919,0.033203125,-0.7383423,-0.21051025,-3.59375,3.953125,5.3125
733,733,1728027372959,0.02758789,-0.83428955,-0.22467041,-2.921875,4.90625,2.484375
734,734,1728027372999,0.03491211,-0.8596802,-0.24664307,-4.4375,2.9375,1.578125
735,735,1728027373039,0.09448242,-0.89068604,-0.23345947,-2.609375,8.015625,-1.671875
736,736,1728027373079,0.1159668,-0.9421997,-0.19903564,-8.046875,2.265625,-2.65625
737,737,1728027373119,0.030761719,-1.125061,-0.21466064,-4.59375,-0.09375,-5.203125
738,738,1728027373159,0.0031738281,-1.1209106,-0.33966064,-5.046875,-3.96875,-6.734375
739,739,1728027373199,0.09033203,-1.0791626,-0.5125122,-12.421875,-25.078125,0.796875
740,740,1728027373239,0.07299805,-1.4656372,-0.52838135,0.390625,-12.0,-11.03125
741,741,1728027373279,-0.13549805,-1.2942505,-0.43829346,24.640625,25.765625,-16.59375
742,742,1728027373319,0.14086914,-0.8323364,-0.4697876,20.984375,26.78125,-7.5
743,743,1728027373359,0.057128906,-0.6333618,-0.58258057,2.53125,4.125,11.96875
744,744,1728027373399,-0.19018555,-0.81134033,-0.46392822,2.75,14.28125,3.140625
745,745,1728027373439,-0.12231445,-0.92315674,-0.34332275,7.046875,25.625,-2.34375
746,746,1728027373479,-0.09033203,-0.7539673,-0.26837158,11.25,21.734375,2.078125
747,747,1728027373519,-0.049072266,-0.56988525,-0.34796143,-0.078125,14.375,6.546875
748,748,1728027373559,-0.059814453,-0.58551025,-0.40826416,2.09375,17.9375,8.0
749,749,1728027373599,-0.026123047,-0.65997314,-0.3665161,5.625,18.3125,8.828125
750,750,1728027373639,-0.10205078,-0.7896118,-0.3418579,2.265625,9.5625,10.078125
751,751,1728027373679,-0.10913086,-0.8740845,-0.33062744,5.96875,9.09375,5.09375
752,752,1728027373719,-0.111083984,-0.81695557,-0.37823486,3.0625,7.453125,4.3125
753,753,1728027373759,-0.095214844,-0.8184204,-0.30181885,4.1875,7.015625,2.890625
754,754,1728027373799,-0.13134766,-0.94073486,-0.39556885,-4.640625,-1.34375,8.25
755,755,1728027373839,-0.17651367,-1.0269165,-0.3743286,1.609375,13.21875,3.1875
756,756,1728027373879,-0.0859375,-1.0422974,-0.4697876,-4.515625,1.9375,18.4375
757,757,1728027373919,-0.13134766,-1.0838013,-0.642395,-4.515625,-1.65625,12.71875
758,758,1728027373959,0.021240234,-1.1240845,-0.8062134,-3.5,-16.21875,15.109375
759,759,1728027373999,0.36767578,-1.4050903,-0.5252075,13.921875,23.4375,-9.4375
