,timestamp,accel_x,accel_y,accel_z,gyro_x,gyro_y,gyro_z
0,1727963713779,0.026611328,-0.95440674,0.13031006,1.8125,-2.71875,-2.875
1,1727963713819,0.010498047,-0.98394775,0.10101318,-9.15625,-3.703125,0.703125
2,1727963713859,-0.015380859,-0.8989868,0.10418701,-0.265625,-4.8125,1.953125
3,1727963713899,0.04345703,-0.9295044,0.00091552734,-3.0625,-12.4375,2.375
4,1727963713939,-0.049804688,-0.7996216,0.116882324,3.890625,-5.609375,4.453125
5,1727963713979,-0.030273438,-0.756897,0.047302246,1.640625,-5.90625,4.390625
6,1727963714019,0.017333984,-0.8225708,0.105407715,0.75,-6.828125,0.578125
7,1727963714059,-0.09667969,-0.84991455,0.070251465,3.4375,-3.3125,2.140625
8,1727963714099,0.021972656,-0.98687744,0.07611084,-0.296875,-9.15625,-3.5
9,1727963714139,0.017089844,-1.1372681,0.20355225,3.03125,-10.03125,-0.828125
10,1727963714179,-0.114990234,-1.0222778,0.1359253,3.328125,-6.578125,3.734375
11,1727963714219,0.022216797,-1.06427,0.10028076,-7.3125,-10.84375,-5.25
12,1727963714259,-0.024169922,-1.1394653,0.09979248,7.453125,-7.265625,-4.046875
13,1727963714299,-0.095947266,-1.4390259,-0.027404785,-11.96875,-8.265625,-16.75
14,1727963714339,-0.14013672,-1.3015747,0.0018920898,5.15625,15.90625,-4.0625
15,1727963714379,-0.17919922,-0.74835205,-0.20587158,11.0625,18.59375,2.640625
16,1727963714419,0.1538086,-0.9824829,-0.1404419,5.53125,7.609375,-9.875
17,1727963714459,-0.13061523,-1.0830688,-0.05670166,10.796875,2.65625,-4.59375
18,1727963714499,-0.16894531,-1.0291138,-0.01763916,5.34375,8.59375,-1.765625
19,1727963714539,-0.18164062,-0.9414673,-0.003479004,5.34375,9.0,-0.84375
20,1727963714579,-0.22827148,-0.96588135,-0.1663208,3.046875,8.03125,-2.0
21,1727963714619,-0.04321289,-0.9404907,-0.031799316,11.4375,17.046875,-0.078125
22,1727963714659,-0.18579102,-0.7974243,0.026550293,12.375,11.203125,3.46875
23,1727963714699,-0.12109375,-0.7954712,-0.023498535,9.078125,18.171875,-0.78125
24,1727963714739,-0.09814453,-0.80670166,-0.04547119,8.640625,13.796875,2.59375
25,1727963714779,-0.12133789,-0.8442993,-0.047180176,8.734375,6.4375,1.390625
26,1727963714819,-0.11279297,-1.0686646,-0.066711426,4.671875,3.984375,-0.484375
27,1727963714859,-0.15551758,-1.2063599,0.022399902,4.3125,-0.875,2.921875
28,1727963714899,-0.2800293,-1.22052,-0.043518066,-1.140625,-0.578125,9.359375
29,1727963714939,-0.22070312,-1.2407837,-0.11846924,-9.171875,-2.0,11.40625
30,1727963714979,-0.103759766,-1.3731079,-0.23687744,-3.5,-9.984375,1.515625
31,1727963715019,0.38232422,-0.9697876,-0.14971924,1.953125,-17.65625,17.0
32,1727963715059,0.10913086,-0.8670044,-0.121154785,-1.15625,-22.703125,17.53125
33,1727963715099,-0.2602539,-1.0281372,-0.16485596,-12.4375,-6.046875,-3.96875
34,1727963715139,0.17041016,-1.0730591,-0.08013916,-11.765625,-3.53125,1.890625
35,1727963715179,-0.13378906,-0.9299927,-0.027160645,-10.5625,-7.203125,-1.234375
36,1727963715219,0.10913086,-0.92388916,0.0072631836,-9.421875,-9.75,-0.03125
37,1727963715259,0.017822266,-0.8040161,-0.03302002,-0.390625,-6.578125,3.375
38,1727963715299,0.041259766,-0.7991333,0.00579834,-0.5625,-8.328125,-0.421875
39,1727963715339,0.025634766,-0.8064575,0.03338623,1.734375,-5.546875,2.125
40,1727963715379,0.0056152344,-0.79400635,0.016784668,-5.03125,-9.921875,1.203125
41,1727963715419,-0.013671875,-0.9949341,0.070495605,-6.46875,-5.921875,-2.453125
42,1727963715459,-0.0390625,-1.08844,-0.030578613,-8.59375,-10.015625,3.921875
43,1727963715499,-0.0087890625,-1.1585083,0.12884521,3.140625,-3.140625,-6.90625
44,1727963715539,-0.2512207,-1.078186,0.19281006,-2.90625,15.015625,-15.15625
45,1727963715579,-0.09301758,-1.2144165,-0.16656494,-11.71875,2.546875,-20.46875
46,1727963715619,0.096191406,-0.9968872,-0.023986816,-0.140625,12.5,-7.046875
47,1727963715659,-0.2290039,-1.065979,-0.23248291,5.96875,17.578125,-10.0625
48,1727963715699,-0.15258789,-1.0105591,-0.07086182,9.703125,19.5625,-12.328125
49,1727963715739,0.11743164,-1.1387329,-0.089660645,2.984375,9.421875,-3.65625
50,1727963715779,-0.24951172,-1.0508423,-0.016662598,12.1875,16.484375,-0.8125
51,1727963715819,-0.22094727,-0.9985962,-0.004699707,5.40625,8.640625,0.015625
52,1727963715859,-0.22021484,-0.862854,0.012634277,7.15625,11.65625,0.703125
53,1727963715899,-0.11669922,-0.7251587,-0.024475098,8.65625,16.09375,3.046875
54,1727963715939,-0.07885742,-0.7178345,0.0021362305,10.03125,11.546875,3.6875
55,1727963715979,-0.09057617,-0.78692627,-0.05670166,4.75,7.71875,4.046875
56,1727963716019,-0.099121094,-0.892395,-0.014709473,1.203125,1.734375,3.25
57,1727963716059,-0.1003418,-1.0755005,-0.053771973,-3.703125,-8.0625,4.078125
58,1727963716099,-0.24145508,-1.210022,0.039489746,-3.390625,-7.015625,3.953125
59,1727963716139,-0.25708008,-1.2041626,-0.035949707,1.53125,-0.078125,8.9375
60,1727963716179,-0.16894531,-1.3411255,-0.24127197,-21.21875,-26.125,3.59375
61,1727963716219,0.09350586,-1.3643188,-0.06451416,6.6875,-13.140625,6.6875
62,1727963716259,0.2175293,-0.9116821,-0.070129395,14.0625,-2.421875,21.671875
63,1727963716299,-0.009765625,-0.8870239,-0.16534424,-9.21875,-18.734375,2.03125
64,1727963716339,0.10205078,-1.0613403,-0.062316895,-7.234375,-8.609375,3.625
65,1727963716379,-0.099121094,-1.0115356,-0.011047363,-4.4375,-2.234375,2.34375
66,1727963716419,-0.056640625,-0.8987427,0.022155762,-3.90625,2.5,-0.390625
67,1727963716459,0.08911133,-0.8262329,0.016540527,-3.75,-2.296875,3.6875
68,1727963716499,0.06225586,-0.73223877,0.0016479492,-1.890625,-5.265625,2.703125
69,1727963716539,0.016845703,-0.76519775,0.034606934,0.03125,-5.28125,0.859375
70,1727963716579,0.0625,-0.8250122,0.013366699,-2.53125,-7.53125,1.15625
71,1727963716619,0.019042969,-0.8496704,0.03338623,-2.84375,-11.484375,0.03125
72,1727963716659,-0.06225586,-0.95318604,0.06048584,-5.5,-9.53125,-1.984375
73,1727963716699,0.06713867,-1.0320435,0.0119018555,-4.5,-10.71875,-1.578125
74,1727963716739,0.037109375,-1.1646118,0.12371826,-2.59375,-17.75,-3.40625
75,1727963716779,-0.028320312,-1.236145,0.15570068,1.28125,-5.03125,-4.9375
76,1727963716819,-0.06738281,-1.1589966,0.13031006,1.703125,-2.765625,-9.640625
77,1727963716859,-0.13842773,-1.2922974,-0.026916504,-2.265625,5.484375,-16.015625
78,1727963716899,0.080322266,-0.96881104,-0.014709473,6.9375,9.671875,1.890625
79,1727963716939,-0.16455078,-0.85162354,-0.16461182,10.5,3.4375,-7.984375
80,1727963716979,-0.008544922,-1.0488892,-0.07208252,-2.875,5.15625,-15.390625
81,1727963717019,0.0007324219,-1.1209106,-0.117004395,-2.859375,-0.15625,-1.84375
82,1727963717059,-0.27783203,-1.0440063,0.010192871,1.390625,6.90625,-4.921875
83,1727963717099,-0.10473633,-0.975647,0.0680542,2.140625,6.46875,-2.96875
84,1727963717139,-0.2290039,-0.94854736,-0.010070801,-4.921875,8.96875,0.078125
85,1727963717179,-0.14135742,-0.8616333,0.008972168,4.890625,12.328125,0.046875
86,1727963717219,-0.044189453,-0.7637329,-0.013977051,6.578125,12.515625,3.125
87,1727963717259,-0.100097656,-0.7346802,0.008483887,7.5,11.609375,1.03125
88,1727963717299,-0.1508789,-0.7647095,0.00018310547,1.265625,12.578125,-0.0625
89,1727963717339,-0.103759766,-0.8880005,-0.020568848,3.3125,11.5625,-0.59375
90,1727963717379,-0.39331055,-1.1743774,-0.04449463,-2.09375,-1.078125,-3.8125
91,1727963717419,0.014404297,-1.0388794,-0.023742676,0.015625,3.1875,-0.515625
92,1727963717459,0.07299805,-0.9319458,0.05633545,6.875,-1.96875,6.890625
93,1727963717499,-0.35620117,-1.0291138,-0.01739502,-4.28125,-1.5,5.34375
94,1727963717539,-0.12402344,-0.95513916,-0.051574707,-6.3125,4.703125,1.84375
95,1727963717579,-0.12231445,-0.97320557,-0.016906738,-2.03125,-0.21875,5.375
96,1727963717619,-0.2253418,-1.0200806,-0.023986816,-6.0625,2.890625,2.109375
97,1727963717659,-0.16186523,-0.9651489,-0.013977051,-1.140625,7.265625,4.59375
98,1727963717699,-0.2006836,-1.0454712,-0.023498535,-2.5,0.703125,0.84375
99,1727963717739,-0.09790039,-1.092102,-0.024230957,-0.53125,4.234375,2.140625
100,1727963717779,-0.048095703,-1.0037231,-0.022277832,-1.015625,-4.890625,7.609375
101,1727963717819,-0.25439453,-0.9854126,0.07489014,-1.5,-7.0625,6.265625
102,1727963717859,-0.1965332,-0.880188,-0.010559082,1.484375,-0.453125,6.1875
103,1727963717899,-0.13769531,-0.8591919,-0.023986816,-6.140625,-2.109375,4.140625
104,1727963717939,-0.05102539,-1.2944946,-0.33087158,-1.90625,0.734375,-8.53125
105,1727963717979,0.579834,-1.467102,0.022644043,-9.296875,-17.3125,6.609375
106,1727963718019,-0.15307617,-1.1309204,-0.024719238,0.453125,-19.109375,12.671875
107,1727963718059,0.118652344,-1.0462036,-0.08917236,-0.859375,-4.390625,0.53125
108,1727963718099,0.22167969,-1.3486938,0.0045776367,-3.34375,-7.1875,4.578125
109,1727963718139,-0.084472656,-1.0759888,0.019714355,-3.875,-3.375,2.40625
110,1727963718179,0.052246094,-0.9446411,0.0848999,1.484375,-0.828125,-1.453125
111,1727963718219,0.07861328,-0.8804321,0.061706543,1.046875,1.46875,4.390625
112,1727963718259,-0.040039062,-0.8394165,0.017028809,-4.53125,-8.015625,1.65625
113,1727963718299,0.055664062,-0.77667236,0.02557373,-3.0625,-3.78125,-0.625
114,1727963718339,-0.018798828,-0.7112427,0.07904053,4.015625,1.8125,-1.0
115,1727963718379,0.028564453,-0.74713135,0.02508545,-2.34375,-6.84375,-1.84375
116,1727963718419,-0.0075683594,-0.79937744,0.11175537,-4.375,-4.515625,-3.171875
117,1727963718459,-0.060791016,-0.9529419,0.059753418,1.953125,-3.84375,-2.484375
118,1727963718499,-0.031982422,-1.1096802,0.14300537,2.140625,-2.34375,-4.3125
119,1727963718539,-0.03930664,-1.1660767,0.16571045,-7.265625,0.90625,-5.671875
120,1727963718579,-0.008056641,-1.2476196,0.1618042,-5.640625,-1.96875,-14.640625
121,1727963718619,-0.03515625,-1.5278931,0.13079834,-16.671875,-16.796875,-18.5
122,1727963718659,-0.25708008,-1.204895,0.101745605,1.28125,10.828125,-6.140625
123,1727963718699,-0.29125977,-0.8335571,-0.2649536,9.515625,29.046875,-4.796875
124,1727963718739,0.24243164,-1.0012817,-0.09649658,10.359375,19.046875,-9.046875
125,1727963718779,0.009033203,-1.0891724,-0.016174316,10.03125,-1.96875,-1.4375
126,1727963718819,-0.35620117,-1.0569458,0.038269043,6.515625,14.71875,-4.84375
127,1727963718859,-0.14013672,-0.8850708,0.054870605,9.625,11.890625,0.828125
128,1727963718899,-0.17578125,-0.8049927,-0.014221191,7.359375,6.234375,0.5625
129,1727963718939,-0.13964844,-0.73638916,-0.026428223,14.328125,8.59375,0.453125
130,1727963718979,-0.099121094,-0.68048096,-0.03253174,12.90625,8.046875,1.46875
131,1727963719019,-0.09082031,-0.71221924,-0.06768799,3.453125,2.96875,-0.109375
132,1727963719059,-0.140625,-0.7925415,-0.053771973,-0.03125,1.4375,1.015625
133,1727963719099,-0.15917969,-0.9727173,-0.055480957,5.46875,-4.953125,-0.671875
134,1727963719139,-0.05883789,-1.2498169,0.028747559,-1.5,-6.0,-0.921875
135,1727963719179,-0.40820312,-1.4605103,0.06707764,-2.28125,-2.09375,4.046875
136,1727963719219,-0.40063477,-1.328186,0.10272217,-5.546875,12.015625,5.875
137,1727963719259,0.009765625,-1.1045532,-0.05230713,-7.65625,4.859375,13.28125
138,1727963719299,-0.20263672,-1.2918091,-0.2727661,-8.609375,-9.890625,-1.5
139,1727963719339,0.3178711,-1.1172485,-0.24298096,4.546875,-2.390625,16.609375
140,1727963719379,0.20703125,-0.84698486,-0.124572754,7.0625,-11.5,14.390625
141,1727963719419,-0.08959961,-0.9619751,-0.06378174,-0.984375,-7.484375,-0.9375
142,1727963719459,0.12573242,-1.0164185,0.0045776367,2.640625,-6.75,5.171875
143,1727963719499,-0.15405273,-0.84747314,0.00579834,-4.109375,-7.296875,2.046875
144,1727963719539,0.026855469,-0.8460083,0.001159668,-0.8125,-4.25,2.53125
145,1727963719579,0.03125,-0.74102783,-0.02520752,1.125,-9.21875,7.6875
146,1727963719619,-0.0031738281,-0.7041626,0.01751709,-4.5625,-10.796875,1.484375
147,1727963719659,0.06347656,-0.7901001,0.02557373,-3.40625,-13.125,-0.984375
148,1727963719699,0.040527344,-0.88848877,0.101989746,-3.265625,-16.0,-2.53125
149,1727963719739,-0.08154297,-1.0010376,0.15252686,0.125,-8.21875,-2.546875
150,1727963719779,0.072021484,-1.1846313,0.025817871,-11.078125,-22.546875,-5.796875
151,1727963719819,0.020263672,-1.2959595,0.10809326,-6.203125,-9.4375,-6.984375
152,1727963719859,-0.33691406,-1.1856079,0.21136475,-15.203125,-1.140625,-11.21875
153,1727963719899,-0.01586914,-1.4126587,-0.101135254,-14.140625,0.25,-19.40625
154,1727963719939,-0.063964844,-0.991272,-0.059143066,8.71875,17.0,-1.84375
155,1727963719979,-0.22753906,-0.8921509,-0.21881104,7.859375,20.921875,-5.4375
156,1727963720019,0.036132812,-1.0200806,-0.020324707,2.625,12.28125,-15.046875
157,1727963720059,0.01171875,-1.1624146,-0.034729004,4.5625,1.421875,0.140625
158,1727963720099,-0.28320312,-0.95758057,0.019470215,6.0,12.15625,-1.84375
159,1727963720139,-0.15576172,-0.8479614,0.055358887,8.96875,11.84375,0.203125
160,1727963720179,-0.15917969,-0.7595825,-0.08135986,7.84375,12.28125,1.78125
161,1727963720219,-0.06591797,-0.6694946,0.010192871,11.4375,19.828125,0.078125
162,1727963720259,-0.13745117,-0.7000122,-0.05621338,9.75,19.296875,0.125
163,1727963720299,-0.10498047,-0.7918091,-0.058410645,-0.828125,11.609375,0.28125
164,1727963720339,-0.10083008,-0.9116821,-0.07476807,0.671875,8.5,0.84375
165,1727963720379,-0.1027832,-1.0830688,-0.012512207,15.484375,0.0625,1.9375
166,1727963720419,-0.19873047,-1.3062134,0.06439209,0.34375,0.015625,-0.6875
167,1727963720459,-0.34814453,-1.3777466,-0.013244629,-2.265625,5.46875,6.15625
168,1727963720499,-0.18652344,-1.310852,-0.097229004,-2.234375,-5.078125,10.359375
169,1727963720539,-0.16625977,-1.350647,-0.25250244,-16.453125,-31.578125,6.6875
170,1727963720579,0.24023438,-0.9204712,-0.11968994,14.265625,-6.375,16.828125
171,1727963720619,0.18847656,-0.83795166,-0.16680908,4.453125,-5.328125,13.46875
172,1727963720659,-0.03125,-0.98394775,-0.20684814,-17.359375,-22.5625,-5.71875
173,1727963720699,0.087402344,-1.072815,-0.045959473,4.125,-1.71875,3.9375
174,1727963720739,-0.17456055,-0.87677,0.012634277,-4.78125,-3.9375,1.84375
175,1727963720779,0.06982422,-0.90997314,-0.0044555664,-11.4375,-14.515625,-0.15625
176,1727963720819,-0.053466797,-0.7354126,0.001159668,3.109375,-8.75,7.078125
177,1727963720859,0.00390625,-0.71710205,-0.0044555664,-0.875,-6.9375,2.703125
178,1727963720899,0.0056152344,-0.7505493,0.028747559,-4.84375,-11.21875,1.40625
179,1727963720939,-0.024414062,-0.77423096,0.07562256,-2.390625,-10.109375,0.578125
180,1727963720979,0.0021972656,-0.9348755,0.054382324,-3.890625,-10.5625,-0.53125
181,1727963721019,-0.024414062,-1.0786743,0.14666748,-5.109375,-9.5,-0.671875
182,1727963721059,0.0034179688,-1.2822876,0.08831787,-5.203125,-16.40625,-3.953125
183,1727963721099,-0.10522461,-1.2329712,0.13568115,-3.40625,-5.0,-4.921875
184,1727963721139,-0.048583984,-1.1865845,-0.0068969727,-2.015625,-6.0,-9.921875
185,1727963721179,0.12133789,-1.4907837,-0.034484863,-5.546875,-19.03125,-18.125
186,1727963721219,-0.11791992,-1.1238403,0.011413574,10.21875,16.203125,2.734375
187,1727963721259,-0.2368164,-0.5923462,-0.17437744,14.953125,12.046875,-2.25
188,1727963721299,0.25439453,-1.0283813,-0.12799072,-1.671875,7.03125,-13.953125
189,1727963721339,-0.13330078,-1.1641235,-0.05279541,6.25,-5.3125,-0.625
190,1727963721379,-0.28027344,-0.9348755,-0.024719238,3.9375,9.0625,0.3125
191,1727963721419,-0.043701172,-0.8562622,-0.007385254,4.84375,5.1875,-3.109375
192,1727963721459,-0.21606445,-0.866272,-0.047668457,9.140625,10.765625,2.375
193,1727963721499,-0.05810547,-0.73150635,-0.042053223,9.859375,12.078125,1.90625
194,1727963721539,-0.080566406,-0.69976807,-0.011291504,5.265625,11.109375,0.875
195,1727963721579,-0.25683594,-0.81427,-0.07574463,1.390625,11.984375,0.765625
196,1727963721619,-0.011230469,-0.93951416,-0.06524658,-4.890625,14.40625,-1.5
197,1727963721659,-0.18432617,-1.0188599,0.020935059,2.296875,1.234375,0.359375
198,1727963721699,-0.16210938,-1.1404419,0.04852295,-2.421875,6.328125,-0.84375
199,1727963721739,-0.16357422,-1.1980591,0.0119018555,-9.421875,2.765625,-0.109375
200,1727963721779,-0.21533203,-1.201477,-0.034484863,-5.796875,2.625,1.359375
201,1727963721819,-0.1315918,-1.3630981,-0.284729,-22.4375,-20.59375,3.4375
202,1727963721859,0.022216797,-1.3093872,-0.07232666,9.4375,-9.890625,5.234375
203,1727963721899,0.2421875,-0.97247314,-0.057922363,16.359375,1.5625,21.78125
204,1727963721939,-0.06298828,-0.89263916,-0.093322754,-1.84375,-10.6875,5.625
205,1727963721979,0.07446289,-1.062561,-0.065979004,-7.125,-3.046875,-0.578125
206,1727963722019,-0.014404297,-0.9751587,-0.006652832,-1.3125,4.484375,4.875
207,1727963722059,-0.078125,-0.8850708,-0.029846191,-14.796875,-0.140625,-0.921875
208,1727963722099,0.020507812,-0.8110962,0.058044434,0.078125,0.703125,5.65625
209,1727963722139,-0.15722656,-1.2471313,-0.028625488,-14.0625,-12.28125,4.109375
210,1727963722179,-0.20825195,-1.4295044,-0.16656494,-9.15625,-17.0625,5.78125
211,1727963722219,-0.09765625,-1.7297974,-0.1675415,-7.90625,-14.859375,9.046875
212,1727963722259,0.32080078,-1.0513306,0.028747559,22.8125,10.078125,22.9375
213,1727963722299,-0.048828125,-0.7703247,-0.24224854,4.078125,-7.453125,12.859375
214,1727963722339,0.18554688,-1.0935669,-0.08868408,4.1875,5.015625,0.984375
215,1727963722379,-0.09350586,-0.9483032,-0.09063721,10.546875,15.90625,3.109375
216,1727963722419,0.111572266,-0.9138794,-0.062805176,8.609375,12.59375,0.640625
217,1727963722459,0.092285156,-0.81695557,-0.051818848,7.109375,5.375,2.328125
218,1727963722499,0.048339844,-0.7642212,-0.109680176,3.5,1.703125,2.21875
219,1727963722539,0.029052734,-0.76397705,0.024841309,6.765625,1.125,1.03125
220,1727963722579,0.03100586,-0.7473755,-0.05328369,2.578125,4.96875,-0.078125
221,1727963722619,0.08251953,-0.85650635,-0.029846191,3.671875,-5.859375,-2.40625
222,1727963722659,0.06347656,-0.86383057,0.028015137,8.375,2.96875,1.375
223,1727963722699,-0.050048828,-0.97052,-0.070129395,2.84375,-12.671875,-3.28125
224,1727963722739,0.064697266,-1.1599731,0.014099121,-3.734375,-13.15625,-6.609375
225,1727963722779,0.027832031,-1.2869263,-0.019104004,-1.71875,-13.265625,-3.578125
226,1727963722819,-0.060058594,-1.2764282,0.0021362305,-1.328125,-16.234375,-9.625
227,1727963722859,0.021972656,-1.4441528,-0.128479,-17.125,-25.53125,-13.1875
228,1727963722899,-0.025146484,-1.0767212,-0.089416504,-1.078125,-8.609375,-1.203125
229,1727963722939,-0.31298828,-0.7151489,-0.3237915,12.515625,18.921875,2.890625
230,1727963722979,0.052734375,-0.9475708,-0.23614502,-6.0,4.0,-13.75
231,1727963723019,0.056152344,-1.1477661,-0.15362549,4.765625,-4.1875,-1.484375
232,1727963723059,-0.2783203,-1.034729,-0.081604004,3.84375,12.109375,-0.59375
233,1727963723099,-0.1796875,-0.79693604,-0.105041504,-0.953125,0.734375,0.09375
234,1727963723139,-0.042236328,-0.8657837,-0.05255127,-0.890625,3.25,-2.453125
235,1727963723179,-0.0859375,-0.70928955,-0.069885254,10.734375,17.921875,5.328125
236,1727963723219,-0.020019531,-0.70928955,-0.10406494,6.28125,6.65625,1.375
237,1727963723259,0.07055664,-0.81500244,-0.046691895,3.375,1.34375,3.203125
238,1727963723299,-0.19873047,-0.9104614,-0.09698486,9.5,0.6875,2.234375
239,1727963723339,-0.048828125,-1.135315,-0.12042236,-12.421875,-5.875,-0.15625
240,1727963723379,-0.15551758,-1.4036255,-0.061828613,-10.15625,-3.109375,2.703125
241,1727963723419,-0.39770508,-1.2393188,-0.08306885,-11.609375,1.46875,11.484375
242,1727963723459,0.01928711,-1.3980103,-0.2695923,-19.625,-6.3125,-7.390625
243,1727963723499,0.4519043,-1.1550903,-0.25811768,8.046875,1.6875,17.046875
244,1727963723539,-0.024902344,-0.8201294,-0.19244385,0.265625,-14.078125,13.46875
245,1727963723579,0.13745117,-0.98687744,-0.18682861,-6.859375,-10.734375,-3.578125
246,1727963723619,0.0056152344,-1.0447388,-0.08648682,-2.640625,-7.9375,4.171875
247,1727963723659,-0.023925781,-0.87677,-0.023254395,-0.015625,-1.5,-0.578125
248,1727963723699,0.06298828,-0.802063,-0.07940674,0.96875,-6.09375,3.90625
249,1727963723739,0.12182617,-0.737854,-0.054016113,1.171875,-8.0625,3.28125
250,1727963723779,-0.026123047,-0.6265259,-0.0134887695,5.6875,-11.359375,5.203125
251,1727963723819,0.08276367,-0.81036377,0.00579834,-0.859375,-11.78125,-2.203125
252,1727963723859,-0.025390625,-0.94610596,0.05682373,-0.203125,-4.8125,-2.234375
253,1727963723899,0.036132812,-1.1646118,-0.03326416,-4.953125,-9.515625,-2.703125
254,1727963723939,0.083984375,-1.2944946,0.026062012,-5.609375,-5.125,-5.484375
255,1727963723979,-0.12426758,-1.2769165,0.17523193,-12.0625,4.453125,-11.484375
256,1727963724019,0.10449219,-1.1438599,-0.0064086914,-22.390625,5.109375,-10.328125
257,1727963724059,0.072509766,-1.046936,-0.11993408,-15.953125,-13.234375,-9.265625
258,1727963724099,-0.08886719,-1.0645142,-0.222229,19.09375,14.6875,1.765625
259,1727963724139,-0.34887695,-0.8062134,-0.13922119,3.296875,19.5625,-24.03125
260,1727963724179,0.3684082,-1.1653442,-0.07574463,-1.8125,12.71875,-4.9375
261,1727963724219,-0.1640625,-0.94854736,-0.04058838,-1.828125,4.484375,-1.78125
262,1727963724259,-0.16821289,-0.90338135,0.027770996,7.59375,8.015625,-1.53125
263,1727963724299,-0.16796875,-0.77960205,-0.020080566,2.65625,12.125,0.890625
264,1727963724339,-0.055908203,-0.6560669,-0.04937744,6.359375,16.90625,2.375
265,1727963724379,-0.03491211,-0.6746216,-0.042785645,6.96875,13.25,0.734375
266,1727963724419,-0.0925293,-0.7461548,-0.038879395,4.875,7.4375,0.703125
267,1727963724459,-0.115722656,-0.93585205,-0.050109863,8.859375,1.9375,-0.96875
268,1727963724499,-0.09741211,-1.1690063,-0.023254395,5.640625,-1.953125,-0.265625
269,1727963724539,-0.28857422,-1.3716431,0.074645996,3.390625,3.234375,1.453125
270,1727963724579,-0.3310547,-1.3518677,-0.041809082,-11.28125,2.59375,6.421875
271,1727963724619,-0.08178711,-1.1472778,-0.269104,-12.78125,-3.359375,11.40625
272,1727963724659,-0.013427734,-1.3447876,-0.16168213,9.078125,-13.015625,2.0625
273,1727963724699,0.26464844,-0.92388916,-0.19171143,22.96875,2.15625,16.046875
274,1727963724739,0.13549805,-0.9373169,-0.20050049,-2.3125,-15.328125,5.890625
275,1727963724779,0.0078125,-1.0547485,-0.15631104,-10.03125,-15.96875,-2.515625
276,1727963724819,-0.04248047,-1.003479,-0.09161377,-3.109375,-0.390625,1.71875
277,1727963724859,-0.04321289,-0.8428345,-0.03277588,2.28125,2.78125,0.75
278,1727963724899,-0.037353516,-0.7647095,-0.0413208,-1.1875,-9.796875,2.046875
279,1727963724939,0.0637207,-0.6721802,-0.035949707,-1.703125,-7.953125,3.828125
280,1727963724979,0.057128906,-0.7149048,-0.12945557,4.21875,-12.234375,5.140625
281,1727963725019,0.080322266,-0.8045044,-0.010314941,-2.859375,-23.046875,1.078125
282,1727963725059,-0.0024414062,-0.92266846,0.062683105,2.421875,-12.921875,1.859375
283,1727963725099,-0.022949219,-1.1694946,0.043884277,-7.046875,-18.171875,2.8125
284,1727963725139,0.16723633,-1.3521118,0.089782715,-5.546875,-10.34375,-2.359375
285,1727963725179,-0.12231445,-1.1516724,0.105895996,-1.015625,-13.15625,-6.296875
286,1727963725219,0.011474609,-1.2546997,0.07122803,-9.953125,0.03125,-12.453125
287,1727963725259,-0.0063476562,-1.1970825,-0.18414307,-14.6875,-0.921875,-8.625
288,1727963725299,0.20410156,-0.88238525,-0.26715088,11.875,11.390625,5.6875
289,1727963725339,-0.2121582,-0.9258423,-0.039367676,6.765625,-4.625,-19.125
290,1727963725379,-0.064208984,-1.1677856,-0.105041504,-0.140625,4.25,-9.0
291,1727963725419,-0.14794922,-1.0420532,-0.026916504,3.609375,10.015625,-3.453125
292,1727963725459,-0.08325195,-0.8604126,-0.070373535,-0.34375,6.875,-1.09375
293,1727963725499,-0.10180664,-0.8550415,-0.05206299,9.140625,7.84375,-0.96875
294,1727963725539,-0.12084961,-0.7078247,-0.03668213,13.421875,16.34375,5.078125
295,1727963725579,-0.03173828,-0.6433716,-0.09820557,9.734375,12.09375,2.078125
296,1727963725619,-0.026367188,-0.71295166,-0.10333252,11.421875,6.1875,1.453125
297,1727963725659,-0.080322266,-0.9258423,-0.070129395,8.609375,4.25,-0.578125
298,1727963725699,-0.17529297,-1.2036743,-0.06817627,1.625,2.125,-2.890625
299,1727963725739,-0.23071289,-1.399231,-0.04107666,-2.15625,4.609375,1.609375
300,1727963725779,-0.21557617,-1.2866821,-0.13311768,-4.984375,7.296875,8.65625
301,1727963725819,-0.18286133,-1.1834106,-0.3916626,-15.234375,-15.859375,5.59375
302,1727963725859,0.36279297,-1.2183228,-0.06842041,0.0625,-4.75,6.375
303,1727963725899,0.10644531,-0.90216064,-0.13140869,-2.53125,-9.203125,16.3125
304,1727963725939,-0.21923828,-0.9985962,-0.18658447,-14.328125,-2.6875,-5.3125
305,1727963725979,0.111572266,-1.0708618,-0.06524658,-13.234375,0.9375,1.75
306,1727963726019,-0.18017578,-0.9649048,-0.003479004,-15.765625,-0.734375,0.859375
307,1727963726059,0.03491211,-0.78790283,-0.033996582,-1.359375,6.3125,4.4375
308,1727963726099,0.029052734,-0.6170044,-0.014953613,3.171875,5.15625,6.859375
309,1727963726139,0.034423828,-0.65826416,-0.08404541,-2.71875,-3.75,2.953125
310,1727963726179,0.15209961,-0.67510986,-0.020324707,-2.140625,-4.0625,4.171875
311,1727963726219,0.045410156,-0.8189087,0.11077881,6.90625,-3.21875,3.296875
312,1727963726259,-0.01586914,-0.9380493,0.17230225,3.15625,-0.625,2.046875
313,1727963726299,-0.14453125,-0.8557739,0.034606934,13.390625,4.703125,-4.9375
314,1727963726339,-0.03540039,-0.9290161,0.07318115,16.484375,-0.71875,-3.09375
315,1727963726379,-0.15917969,-0.89434814,0.13079834,16.203125,-2.9375,-1.96875
316,1727963726419,-0.2866211,-0.92388916,0.07611084,12.296875,-3.09375,-2.296875
317,1727963726459,-0.10229492,-0.9727173,-0.02545166,-3.65625,-4.96875,-1.953125
318,1727963726499,-0.17138672,-1.1165161,0.09124756,10.296875,-5.03125,-1.6875
319,1727963726539,-0.234375,-1.0852661,0.152771,6.140625,3.78125,5.265625
320,1727963726579,-0.21826172,-1.0161743,0.04925537,-6.546875,-4.4375,5.5
321,1727963726619,-0.28930664,-1.3294067,-0.074523926,-14.765625,-15.5625,3.140625
322,1727963726659,-0.1081543,-1.4846802,-0.20513916,6.625,-21.0625,8.515625
323,1727963726699,0.41381836,-0.8982544,-0.06402588,22.578125,-13.71875,20.84375
324,1727963726739,-0.18017578,-0.9973755,-0.14215088,1.421875,-15.421875,9.34375
325,1727963726779,-0.012451172,-1.0720825,-0.2263794,-12.671875,-4.609375,-0.140625
326,1727963726819,-0.008300781,-1.0510864,-0.1482544,-1.546875,9.984375,3.578125
327,1727963726859,-0.12182617,-1.0357056,-0.10748291,-4.71875,9.890625,2.875
328,1727963726899,0.11621094,-0.94976807,-0.05621338,1.21875,-4.859375,4.984375
329,1727963726939,0.015380859,-0.8779907,-0.04888916,3.578125,2.609375,6.609375
330,1727963726979,-0.009033203,-0.8357544,-0.07598877,-3.96875,-4.53125,4.265625
331,1727963727019,0.09423828,-0.8508911,0.041931152,-3.1875,-7.671875,0.921875
332,1727963727059,-0.032226562,-0.7971802,-0.00592041,0.84375,-5.140625,5.9375
333,1727963727099,0.1303711,-0.7901001,0.0079956055,-1.140625,-13.015625,2.875
334,1727963727139,-0.026123047,-0.8584595,0.024841309,2.375,-12.8125,1.703125
335,1727963727179,-0.072509766,-1.0234985,-0.018371582,3.296875,-8.828125,2.671875
336,1727963727219,0.083496094,-1.1140747,-0.07159424,-9.421875,-12.84375,-0.921875
337,1727963727259,0.020996094,-1.3023071,0.13348389,-4.40625,-8.796875,-6.875
338,1727963727299,-0.0021972656,-1.2119751,0.078063965,-8.21875,-9.125,-7.078125
339,1727963727339,-0.084472656,-1.3069458,-0.042541504,-2.84375,0.359375,-15.3125
340,1727963727379,-0.03149414,-1.0110474,-0.105041504,8.796875,18.296875,1.71875
341,1727963727419,-0.22167969,-0.79473877,-0.2000122,3.828125,10.0625,-10.234375
342,1727963727459,0.18066406,-1.117981,-0.15142822,0.296875,8.453125,-10.71875
343,1727963727499,-0.20898438,-1.0484009,-0.12506104,7.203125,3.421875,-0.34375
344,1727963727539,-0.080078125,-0.93756104,-0.047668457,5.203125,10.265625,-3.0
345,1727963727579,-0.14477539,-0.90802,-0.013000488,10.875,10.6875,0.4375
346,1727963727619,-0.22045898,-0.86602783,-0.086242676,9.453125,17.515625,2.171875
347,1727963727659,0.010253906,-0.7630005,-0.024475098,12.0,16.171875,-1.0
348,1727963727699,-0.051757812,-0.74786377,-0.046691895,9.671875,9.609375,3.25
349,1727963727739,-0.08105469,-0.862854,-0.06060791,8.671875,10.203125,2.3125
350,1727963727779,-0.07763672,-0.9558716,-0.03765869,6.390625,7.59375,3.40625
351,1727963727819,-0.17358398,-1.125061,-0.0647583,3.9375,3.578125,2.484375
352,1727963727859,-0.20800781,-1.210022,-0.046691895,-0.625,6.984375,2.34375
353,1727963727899,-0.13476562,-1.217102,-0.10089111,-4.21875,-1.0,8.296875
354,1727963727939,-0.10571289,-1.250061,-0.27227783,-15.015625,-17.078125,7.875
355,1727963727979,0.026367188,-1.241272,-0.0647583,-2.0625,-8.15625,6.890625
356,1727963728019,0.3215332,-0.92803955,-0.11138916,8.921875,-6.8125,19.296875
357,1727963728059,0.0024414062,-0.90582275,-0.2695923,-7.84375,-22.78125,0.484375
358,1727963728099,0.22070312,-1.0977173,-0.20611572,-11.125,-12.890625,1.328125
359,1727963728139,-0.15527344,-1.085022,-0.055480957,-3.234375,-6.578125,2.09375
360,1727963728179,0.03466797,-0.9439087,-0.055236816,-5.109375,-7.484375,-1.6875
361,1727963728219,0.1303711,-0.85406494,-0.05255127,-2.796875,-7.171875,1.921875
362,1727963728259,0.031982422,-0.78570557,-0.003479004,-2.625,-6.390625,-0.78125
363,1727963728299,0.060058594,-0.7595825,0.028503418,0.265625,-4.5625,-0.171875
364,1727963728339,0.018798828,-0.7402954,-0.017150879,2.390625,-6.703125,2.125
365,1727963728379,-0.0031738281,-0.7366333,0.019714355,1.796875,-6.09375,-1.671875
366,1727963728419,-0.03466797,-0.8657837,-0.019104004,1.65625,0.234375,-1.5
367,1727963728459,0.031982422,-1.0496216,0.0045776367,-1.921875,-1.0625,-4.015625
368,1727963728499,0.029785156,-1.2686157,0.066833496,-0.9375,-2.453125,-7.328125
369,1727963728539,-0.056640625,-1.2258911,0.11810303,4.796875,1.359375,-11.421875
370,1727963728579,-0.06567383,-1.3823853,-0.06402588,-14.203125,-11.796875,-18.53125
371,1727963728619,-0.09887695,-1.0913696,-0.13824463,-4.53125,4.875,-7.1875
372,1727963728659,-0.17504883,-0.8064575,-0.2703247,5.625,20.859375,-3.3125
373,1727963728699,-0.0048828125,-0.9976196,-0.19000244,5.125,23.828125,-11.890625
374,1727963728739,-0.010986328,-1.0620728,-0.1453247,8.671875,12.953125,-3.21875
375,1727963728779,-0.1928711,-1.0161743,-0.09039307,6.25,18.859375,-2.40625
376,1727963728819,-0.23364258,-0.9417114,-0.034484863,8.953125,21.734375,0.5625
377,1727963728859,-0.12524414,-0.9434204,-0.13726807,2.90625,10.65625,1.078125
378,1727963728899,-0.009765625,-0.7739868,-0.04498291,9.328125,5.546875,3.671875
379,1727963728939,-0.064697266,-0.7686157,-0.09136963,6.984375,3.25,7.421875
380,1727963728979,-0.036865234,-0.82281494,-0.02178955,5.359375,-2.6875,7.03125
381,1727963729019,-0.048583984,-0.881897,-0.05206299,9.8125,1.0625,12.796875
382,1727963729059,-0.19311523,-0.9487915,-0.047424316,6.140625,-2.125,11.1875
383,1727963729099,-0.15649414,-1.1841431,-0.07745361,-10.984375,-8.828125,4.671875
384,1727963729139,-0.17358398,-1.3938599,-0.008605957,-9.203125,-6.65625,5.125
385,1727963729179,-0.24902344,-1.1204224,-0.1182251,-7.671875,-1.046875,12.109375
386,1727963729219,-0.09448242,-1.3255005,-0.159729,-11.765625,-7.359375,-5.046875
387,1727963729259,0.31298828,-1.206604,-0.23834229,0.734375,-3.796875,11.03125
388,1727963729299,0.3552246,-0.8196411,-0.10797119,11.15625,-12.734375,15.546875
389,1727963729339,-0.009521484,-0.9331665,-0.1585083,-4.90625,-18.0625,-5.171875
390,1727963729379,0.15625,-1.0015259,-0.14508057,0.5625,-12.71875,1.875
391,1727963729419,-0.08105469,-0.9956665,-0.034484863,-1.78125,-9.953125,-2.96875
392,1727963729459,0.06347656,-0.9265747,-0.027893066,0.296875,-13.03125,1.328125
393,1727963729499,0.080078125,-0.7720337,-0.035217285,-0.921875,-10.234375,1.78125
394,1727963729539,-0.0075683594,-0.67926025,0.0099487305,1.890625,-11.421875,0.921875
395,1727963729579,0.06665039,-0.7151489,-0.010559082,3.734375,-11.625,1.359375
396,1727963729619,0.10522461,-0.80841064,0.031921387,-0.390625,-13.421875,-2.65625
397,1727963729659,-0.04345703,-0.9221802,0.03363037,1.03125,-13.4375,-0.984375
398,1727963729699,0.014892578,-1.1704712,0.047302246,-4.859375,-9.609375,-5.671875
399,1727963729739,0.08154297,-1.2908325,0.059265137,-8.0625,-10.6875,-3.0
400,1727963729779,-0.118652344,-1.1489868,0.1005249,-3.078125,-5.34375,-10.9375
401,1727963729819,0.06298828,-1.2842407,-0.07525635,-10.421875,0.421875,-17.703125
402,1727963729859,0.05834961,-1.1819458,-0.11212158,-10.171875,-1.59375,-8.90625
403,1727963729899,-0.12158203,-0.9277954,-0.24639893,5.78125,0.28125,-2.0625
404,1727963729939,-0.1352539,-0.9014282,-0.16436768,5.03125,15.75,-15.3125
405,1727963729979,0.07739258,-1.131897,-0.117248535,2.34375,7.015625,-7.515625
406,1727963730019,-0.15185547,-1.0366821,-0.1182251,4.96875,13.765625,-2.703125
407,1727963730059,-0.1496582,-0.99053955,0.014831543,4.71875,14.28125,-0.265625
408,1727963730099,-0.2097168,-0.84088135,-0.086242676,3.515625,13.59375,2.375
409,1727963730139,0.001953125,-0.79571533,-0.028381348,6.9375,19.609375,-0.609375
410,1727963730179,-0.091552734,-0.61602783,-0.0020141602,12.109375,23.5,4.90625
411,1727963730219,-0.10253906,-0.78302,-0.06915283,10.40625,12.765625,1.234375
412,1727963730259,0.036865234,-0.9024048,-0.08843994,7.890625,10.90625,3.328125
413,1727963730299,-0.17285156,-1.0418091,-0.06304932,21.09375,10.125,3.484375
414,1727963730339,-0.15625,-1.4058228,-0.055236816,-0.703125,0.828125,1.515625
415,1727963730379,-0.22192383,-1.31427,-0.08355713,2.5625,5.53125,10.53125
416,1727963730419,-0.19897461,-1.2852173,-0.15142822,-2.46875,4.53125,11.984375
417,1727963730459,-0.1694336,-0.9976196,-0.027893066,3.890625,4.125,5.703125
418,1727963730499,-0.22460938,-1.0647583,0.010925293,1.875,1.15625,5.453125
419,1727963730539,-0.21166992,-1.1746216,-0.0725708,-6.484375,-14.78125,6.140625
420,1727963730579,-0.27661133,-1.2390747,-0.2822876,-10.640625,-18.953125,8.171875
421,1727963730619,-0.044433594,-1.491272,-0.24078369,-5.375,-22.4375,4.953125
422,1727963730659,0.34692383,-1.0332642,-0.17218018,32.015625,-10.671875,26.671875
423,1727963730699,0.020996094,-0.8623657,-0.26397705,7.828125,-22.578125,10.234375
424,1727963730739,0.23120117,-1.0962524,-0.28668213,-14.59375,-21.546875,-1.53125
425,1727963730779,-0.096191406,-1.0828247,-0.07208252,8.09375,-2.78125,7.015625
426,1727963730819,-0.021240234,-0.99346924,-0.14312744,-3.84375,2.3125,0.84375
427,1727963730859,0.17163086,-0.87628174,-0.13482666,1.6875,-9.015625,4.28125
428,1727963730899,0.09667969,-0.8267212,-0.055480957,-0.203125,-7.171875,5.125
429,1727963730939,-0.0234375,-0.7385864,-0.047424316,-3.40625,-13.265625,1.671875
430,1727963730979,0.07543945,-0.67974854,-0.10064697,-0.625,-15.890625,3.765625
431,1727963731019,0.06762695,-0.79156494,-0.062316895,-8.65625,-21.015625,-3.359375
432,1727963731059,-0.01953125,-0.89141846,0.010925293,-2.078125,-19.5625,-1.703125
433,1727963731099,0.087646484,-1.1963501,-0.03765869,-9.984375,-23.921875,-4.859375
434,1727963731139,-0.0026855469,-1.2510376,0.054382324,-10.359375,-6.40625,-3.46875
435,1727963731179,-0.18408203,-1.2476196,0.085632324,-1.25,-0.78125,-7.203125
436,1727963731219,0.22973633,-1.1887817,-0.0134887695,-9.4375,7.046875,-6.71875
437,1727963731259,-0.08911133,-1.0984497,-0.10601807,-9.953125,5.296875,-5.828125
438,1727963731299,-0.11425781,-0.8040161,-0.33135986,7.140625,19.8125,0.40625
439,1727963731339,-0.02709961,-1.0066528,-0.13458252,0.015625,7.421875,-19.1875
440,1727963731379,0.18701172,-1.2107544,-0.17999268,3.59375,3.484375,-1.546875
441,1727963731419,-0.31420898,-1.0344849,-0.034973145,10.34375,9.6875,-1.046875
442,1727963731459,-0.041503906,-0.81427,-0.0635376,9.640625,5.125,1.5625
443,1727963731499,-0.1616211,-0.8579712,-0.055725098,8.578125,13.34375,-2.46875
444,1727963731539,-0.052001953,-0.7024536,-0.117248535,7.65625,10.78125,4.53125
445,1727963731579,-0.045410156,-0.6687622,-0.11236572,8.96875,4.171875,2.65625
446,1727963731619,-0.07348633,-0.7962036,-0.055725098,6.765625,9.953125,1.15625
447,1727963731659,-0.09375,-0.8230591,-0.04937744,4.28125,2.296875,1.484375
448,1727963731699,-0.12109375,-1.0713501,-0.08306885,-1.625,4.28125,-0.46875
449,1727963731739,-0.1459961,-1.3201294,-0.0025024414,0.828125,-1.796875,-0.90625
450,1727963731779,-0.18457031,-1.3328247,-0.13482666,-4.671875,-5.375,7.484375
451,1727963731819,-0.18359375,-1.279602,-0.15118408,-8.5,-1.25,9.5625
452,1727963731859,-0.06665039,-1.3814087,-0.25860596,-10.46875,-7.203125,-3.375
453,1727963731899,0.26831055,-0.98516846,-0.22296143,-3.421875,-9.671875,11.421875
454,1727963731939,0.19873047,-0.8574829,-0.28961182,-13.703125,-21.359375,12.109375
455,1727963731979,-0.055908203,-1.0752563,-0.1272583,-14.421875,-11.5625,-5.671875
456,1727963732019,0.07006836,-1.0942993,-0.058898926,-6.203125,-2.703125,4.421875
457,1727963732059,0.028076172,-0.85650635,-0.034240723,-8.671875,-6.03125,2.578125
458,1727963732099,-0.04663086,-0.7949829,-0.011291504,-5.90625,-9.59375,2.078125
459,1727963732139,0.09814453,-0.692688,-0.014221191,-0.3125,-5.40625,5.671875
460,1727963732179,-0.00048828125,-0.6514282,-0.011779785,-0.046875,-8.796875,3.515625
461,1727963732219,0.045410156,-0.673645,-0.0012817383,4.21875,-6.3125,1.390625
462,1727963732259,0.103027344,-0.82403564,-0.0115356445,-1.09375,-11.546875,0.984375
463,1727963732299,0.015625,-1.0298462,0.042419434,2.125,-6.890625,0.21875
464,1727963732339,0.021484375,-1.2197876,-0.040100098,-5.203125,-11.859375,-1.640625
465,1727963732379,0.18115234,-1.3338013,0.22796631,-0.734375,-6.546875,-7.234375
466,1727963732419,-0.24560547,-1.2974243,0.18328857,5.34375,3.140625,-14.1875
467,1727963732459,0.041748047,-1.3792114,-0.14019775,-10.78125,-9.8125,-16.828125
468,1727963732499,0.07836914,-1.1350708,-0.12261963,0.21875,7.734375,-7.0625
469,1727963732539,-0.31518555,-0.8291626,-0.32476807,14.359375,25.125,-3.421875
470,1727963732579,0.034179688,-1.0357056,-0.09576416,-2.765625,11.6875,-18.640625
471,1727963732619,0.24536133,-1.083313,-0.13165283,2.6875,-1.984375,-1.234375
472,1727963732659,-0.35473633,-0.9373169,-0.09112549,15.421875,9.078125,1.4375
473,1727963732699,-0.034423828,-0.8479614,-0.03741455,10.484375,4.859375,-2.3125
474,1727963732739,-0.1274414,-0.77008057,-0.07598877,14.28125,9.390625,1.796875
475,1727963732779,-0.046875,-0.70440674,-0.062072754,8.625,13.265625,3.265625
476,1727963732819,-0.096191406,-0.6699829,-0.03277588,11.609375,9.734375,2.96875
477,1727963732859,-0.07397461,-0.8423462,-0.06793213,5.28125,9.609375,0.96875
478,1727963732899,-0.088378906,-0.94659424,-0.06719971,4.671875,3.171875,1.25
479,1727963732939,-0.15942383,-1.2124634,-0.089660645,-2.25,-0.875,-0.828125
480,1727963732979,-0.19506836,-1.4495239,-0.04449463,-1.53125,3.8125,1.4375
481,1727963733019,-0.24487305,-1.267395,-0.10430908,-1.453125,8.75,12.078125
482,1727963733059,-0.09887695,-1.2678833,-0.27642822,-17.53125,-15.609375,6.171875
483,1727963733099,0.1940918,-1.1187134,-0.22540283,11.296875,0.109375,7.015625
484,1727963733139,0.32495117,-0.8286743,-0.07550049,10.90625,-1.109375,15.984375
485,1727963733179,-0.0690918,-0.8982544,-0.19122314,-7.0,-12.96875,-0.8125
486,1727963733219,0.17871094,-1.0899048,-0.15924072,-2.84375,-10.0,0.15625
487,1727963733259,-0.103027344,-1.0210571,-0.05230713,-5.875,-7.4375,5.578125
488,1727963733299,0.032226562,-0.78570557,-0.045715332,-3.359375,-10.5,1.890625
489,1727963733339,0.039794922,-0.7739868,-0.05621338,-1.875,-8.03125,3.421875
490,1727963733379,0.006591797,-0.6223755,0.0067749023,2.625,-6.90625,4.234375
491,1727963733419,0.07055664,-0.70440674,-0.0076293945,1.640625,-12.53125,0.921875
492,1727963733459,0.06933594,-0.8855591,0.010192871,-3.421875,-16.421875,-2.375
493,1727963733499,-0.07421875,-0.99957275,0.027038574,0.515625,-10.28125,-1.53125
494,1727963733539,0.056152344,-1.3274536,0.005065918,-16.671875,-16.0625,-6.765625
495,1727963733579,0.09057617,-1.3435669,0.048034668,-10.34375,-13.875,-4.296875
496,1727963733619,-0.3017578,-1.0735474,0.10467529,3.140625,-1.53125,-7.328125
497,1727963733659,0.14331055,-1.2964478,-0.26031494,-8.234375,-12.5625,-19.40625
498,1727963733699,0.068115234,-1.081604,-0.14215088,1.875,13.625,0.296875
499,1727963733739,-0.29174805,-0.8809204,-0.2966919,7.5,9.796875,-6.46875
500,1727963733779,0.024902344,-0.9849243,-0.082092285,-3.796875,18.5625,-17.046875
501,1727963733819,0.019042969,-1.2268677,-0.13238525,-4.734375,4.0,-3.140625
502,1727963733859,-0.18701172,-0.9558716,-0.05230713,12.34375,18.890625,1.640625
503,1727963733899,-0.18774414,-0.89508057,-0.02154541,3.078125,14.0625,-1.359375
504,1727963733939,-0.18188477,-0.75201416,-0.09088135,-0.1875,18.796875,4.046875
505,1727963733979,0.052246094,-0.6802368,-0.22979736,8.234375,10.9375,5.6875
506,1727963734019,0.080322266,-0.71881104,-0.113342285,20.984375,7.984375,3.640625
507,1727963734059,-0.115478516,-0.8616333,-0.097473145,11.765625,2.984375,4.9375
508,1727963734099,-0.07421875,-0.989563,-0.08306885,2.203125,4.328125,3.1875
509,1727963734139,-0.2175293,-1.1965942,-0.035461426,-0.203125,4.5625,-1.15625
510,1727963734179,-0.27954102,-1.258606,-0.004211426,-6.578125,8.90625,3.71875
511,1727963734219,-0.30908203,-1.3215942,-0.29351807,-15.4375,-3.046875,2.21875
512,1727963734259,0.17407227,-1.3826294,-0.26470947,1.53125,-13.046875,5.828125
513,1727963734299,0.6166992,-0.92803955,-0.15240479,35.421875,4.5625,29.21875
514,1727963734339,-0.29248047,-0.9780884,-0.30548096,-6.515625,-12.984375,5.6875
515,1727963734379,0.20117188,-1.0579224,-0.25567627,-16.609375,-18.75,-1.65625
516,1727963734419,-0.007080078,-1.1170044,-0.0115356445,2.453125,3.03125,-1.046875
517,1727963734459,-0.103027344,-0.9585571,-0.06719971,-7.03125,-6.265625,1.078125
518,1727963734499,0.22216797,-0.78448486,-0.025939941,-6.125,-17.125,4.0
519,1727963734539,0.018798828,-0.6470337,-0.046691895,-3.234375,-17.046875,4.09375
520,1727963734579,0.041992188,-0.56427,-0.054260254,-5.953125,-13.09375,2.40625
521,1727963734619,-0.20385742,-0.98687744,0.005065918,-6.453125,-15.296875,1.390625
522,1727963734659,-0.3491211,-1.0618286,0.12322998,-0.859375,-6.140625,1.703125
523,1727963734699,-0.2097168,-1.1130981,0.074401855,-8.078125,-8.625,2.5625
524,1727963734739,-0.15429688,-1.270813,-0.12213135,-5.140625,-10.921875,6.1875
525,1727963734779,-0.16503906,-1.7276001,-0.22540283,-12.828125,-18.828125,7.328125
526,1727963734819,-0.012939453,-1.4180298,-0.07110596,-8.484375,-22.9375,24.703125
527,1727963734859,0.10498047,-0.68170166,-0.11090088,15.921875,3.75,28.515625
528,1727963734899,0.012207031,-0.89923096,-0.28790283,-7.875,-8.171875,-4.4375
529,1727963734939,0.28173828,-1.3106079,-0.19708252,2.421875,-4.015625,6.859375
530,1727963734979,-0.08984375,-0.88897705,-0.078186035,-2.3125,-1.34375,8.328125
531,1727963735019,0.010009766,-0.90093994,-0.066223145,0.8125,-0.546875,3.453125
532,1727963735059,0.10424805,-0.7774048,-0.018371582,2.703125,-2.46875,7.140625
533,1727963735099,0.057617188,-0.6963501,-0.01763916,2.671875,-6.46875,5.046875
534,1727963735139,0.08544922,-0.7473755,0.0033569336,0.125,-7.484375,2.859375
535,1727963735179,0.00024414062,-0.7564087,0.00018310547,1.1875,-7.046875,2.75
536,1727963735219,0.032470703,-0.86187744,-0.053771973,-3.890625,-9.921875,-1.34375
537,1727963735259,0.06201172,-1.0689087,0.038757324,-2.171875,-7.078125,-3.1875
538,1727963735299,0.016357422,-1.3154907,0.0524292,-7.390625,-14.234375,-7.34375
539,1727963735339,-0.027832031,-1.3338013,0.051940918,-7.875,3.34375,-10.75
540,1727963735379,-0.052246094,-1.1885376,0.10687256,-8.03125,4.265625,-12.421875
541,1727963735419,0.015380859,-1.2666626,-0.22198486,-10.984375,-8.421875,-13.5
542,1727963735459,0.171875,-0.8999634,-0.12921143,2.0625,8.875,4.59375
543,1727963735499,-0.22314453,-0.8948364,-0.24591064,8.25,6.890625,-14.5625
544,1727963735539,0.00390625,-1.0532837,-0.0947876,1.0,6.734375,-15.5625
545,1727963735579,-0.055419922,-1.1343384,-0.15338135,2.28125,4.515625,-1.953125
546,1727963735619,-0.18579102,-1.0217896,-0.09063721,7.203125,12.6875,-1.4375
547,1727963735659,-0.1743164,-0.88287354,-0.02130127,6.203125,6.25,-3.5
548,1727963735699,-0.1616211,-0.7822876,0.02557373,9.984375,18.90625,0.578125
549,1727963735739,-0.012451172,-0.73223877,-0.105285645,5.40625,12.609375,4.375
550,1727963735779,0.02319336,-0.72540283,-0.043762207,8.640625,12.015625,1.984375
551,1727963735819,-0.14501953,-0.8518677,-0.07647705,6.734375,8.328125,3.28125
552,1727963735859,-0.04345703,-1.0376587,-0.057434082,-1.484375,3.625,1.328125
553,1727963735899,-0.24389648,-1.2908325,0.018737793,3.640625,4.90625,1.203125
554,1727963735939,-0.26220703,-1.2234497,-0.09185791,-3.75,-0.546875,8.0
555,1727963735979,-0.16333008,-1.3550415,-0.2341919,-18.15625,-13.3125,3.09375
556,1727963736019,0.12524414,-1.2268677,-0.30670166,11.375,-3.546875,8.765625
557,1727963736059,0.4399414,-0.92755127,-0.23272705,29.15625,7.09375,13.78125
558,1727963736099,-0.03491211,-1.0881958,-0.14703369,-3.953125,-12.671875,-1.171875
559,1727963736139,0.019042969,-1.0913696,-0.1638794,-6.578125,-6.84375,-0.390625
560,1727963736179,0.00024414062,-0.95318604,-0.11578369,3.109375,4.5,1.109375
561,1727963736219,0.04736328,-0.90802,-0.031066895,2.765625,-6.65625,0.40625
562,1727963736259,0.040283203,-0.7017212,-0.05645752,2.203125,-7.125,4.15625
563,1727963736299,-0.0068359375,-0.6013794,-0.012512207,4.5625,-7.09375,2.109375
564,1727963736339,-0.010009766,-0.6279907,-0.101867676,3.4375,-13.328125,0.953125
565,1727963736379,0.03857422,-0.79815674,-0.06817627,5.59375,-12.03125,-2.90625
566,1727963736419,0.053955078,-1.0576782,-0.038391113,9.25,-8.609375,-0.125
567,1727963736459,-0.022705078,-1.1919556,0.012390137,-1.0,-12.5625,-3.890625
568,1727963736499,0.07836914,-1.2210083,-0.013000488,-8.609375,-16.90625,-7.5625
569,1727963736539,-0.0703125,-1.2232056,0.10101318,3.890625,-6.265625,-9.96875
570,1727963736579,-0.14941406,-1.2991333,-0.20635986,-21.34375,-19.859375,-13.71875
571,1727963736619,0.14257812,-0.913147,-0.30181885,-10.46875,-2.46875,-0.953125
572,1727963736659,-0.21118164,-0.9182739,-0.27301025,15.59375,14.671875,-7.125
573,1727963736699,-0.17919922,-1.065979,-0.09503174,4.109375,11.15625,-13.65625
574,1727963736739,0.041748047,-1.0862427,-0.17974854,-2.796875,1.234375,1.625
575,1727963736779,-0.1171875,-0.9963989,-0.101867676,7.625,8.515625,-0.875
576,1727963736819,-0.21777344,-0.8862915,-0.043762207,12.046875,3.84375,1.453125
577,1727963736859,-0.03955078,-0.78448486,-0.11480713,7.640625,5.609375,2.0625
578,1727963736899,-0.068115234,-0.69195557,-0.093811035,8.5625,12.390625,5.21875
579,1727963736939,-0.12939453,-0.69244385,-0.07354736,9.78125,5.921875,1.9375
580,1727963736979,0.016845703,-0.8452759,-0.047912598,5.75,6.796875,1.828125
581,1727963737019,-0.16088867,-0.9837036,-0.12628174,6.953125,-1.515625,0.484375
582,1727963737059,-0.072509766,-1.2861938,-0.10821533,-4.5,-0.6875,-0.984375
583,1727963737099,-0.3161621,-1.4353638,-0.04083252,-1.671875,-1.578125,3.453125
584,1727963737139,-0.20776367,-1.1838989,-0.10333252,-1.828125,5.625,10.984375
585,1727963737179,0.03466797,-1.2698364,-0.32598877,-10.25,-14.078125,2.3125
586,1727963737219,0.33666992,-1.0100708,-0.27471924,-0.546875,-20.53125,13.421875
587,1727963737259,0.072265625,-0.862854,-0.12994385,-1.3125,-19.03125,9.453125
588,1727963737299,-0.099853516,-0.94854736,-0.17486572,-10.125,-11.609375,-6.21875
589,1727963737339,0.18310547,-1.114563,-0.10089111,-3.84375,-8.546875,0.078125
590,1727963737379,-0.13989258,-0.95025635,-0.07598877,-5.390625,-8.421875,4.265625
591,1727963737419,0.026123047,-0.8689575,-0.034729004,-5.3125,-8.390625,0.796875
592,1727963737459,0.0146484375,-0.74346924,-0.04449463,-1.984375,-7.921875,5.078125
593,1727963737499,0.009521484,-0.6782837,-0.016174316,0.5625,-9.703125,1.75
594,1727963737539,0.06616211,-0.74786377,0.0060424805,1.328125,-10.921875,0.015625
595,1727963737579,0.03857422,-0.8870239,0.014831543,-3.828125,-13.203125,-1.828125
596,1727963737619,0.015136719,-1.0667114,0.035583496,-1.078125,-10.234375,-2.40625
597,1727963737659,0.020507812,-1.1885376,0.08001709,-7.359375,-4.75,-3.75
598,1727963737699,-0.045898438,-1.1809692,0.034606934,-5.25,-0.671875,-3.796875
599,1727963737739,-0.095458984,-1.1350708,0.13763428,-4.96875,5.734375,-15.046875
600,1727963737779,-0.021972656,-1.1438599,-0.23590088,-6.84375,-6.90625,-10.796875
601,1727963737819,0.1665039,-0.9204712,-0.23052979,7.75,7.234375,3.34375
602,1727963737859,-0.33081055,-0.98638916,-0.18951416,6.8125,14.21875,-17.0
603,1727963737899,-0.045166016,-1.0913696,-0.11505127,-4.0,12.90625,-10.296875
604,1727963737939,0.014160156,-1.1199341,-0.11090088,-1.796875,9.21875,-4.140625
605,1727963737979,-0.2211914,-1.020813,-0.027160645,11.875,19.59375,-1.484375
606,1727963738019,-0.17163086,-0.8843384,-0.015197754,6.140625,11.796875,0.515625
607,1727963738059,-0.12841797,-0.7432251,-0.058654785,-0.15625,19.765625,2.171875
608,1727963738099,-0.05493164,-0.69415283,-0.1843872,-1.171875,18.15625,3.703125
609,1727963738139,-0.017822266,-0.6968384,-0.047424316,16.359375,10.140625,3.890625
610,1727963738179,-0.11279297,-0.8477173,-0.094055176,10.765625,10.921875,2.046875
611,1727963738219,-0.111328125,-0.9558716,-0.094055176,8.453125,10.453125,0.9375
612,1727963738259,-0.20336914,-1.2532349,-0.045715332,3.296875,5.265625,-0.09375
613,1727963738299,-0.27856445,-1.3181763,-0.10284424,-0.984375,9.28125,5.328125
614,1727963738339,-0.13549805,-1.2197876,-0.11114502,-1.46875,-0.4375,11.296875
615,1727963738379,-0.020996094,-1.2554321,-0.24420166,0.40625,-20.015625,8.65625
616,1727963738419,0.31396484,-0.8779907,-0.15704346,11.25,-2.46875,14.390625
617,1727963738459,-0.021484375,-1.0181274,-0.30499268,-14.765625,-10.28125,6.453125
618,1727963738499,0.0029296875,-1.0164185,-0.27105713,-29.0625,-15.046875,-2.734375
619,1727963738539,-0.0056152344,-1.114563,-0.09991455,-2.125,-8.265625,-0.5
620,1727963738579,-0.040771484,-1.022522,-0.07086182,-13.140625,-10.34375,2.578125
621,1727963738619,0.02319336,-0.93292236,-0.07110596,-12.84375,-13.296875,-0.5
622,1727963738659,0.03881836,-0.7529907,-0.0713501,-6.046875,-12.390625,2.71875
623,1727963738699,0.09716797,-0.7034302,-0.030334473,-5.640625,-12.03125,2.3125
624,1727963738739,0.005859375,-0.59942627,0.0211792,3.21875,-12.5625,4.265625
625,1727963738779,0.06982422,-0.77130127,-0.10089111,3.1875,0.375,5.765625
626,1727963738819,-0.02734375,-0.7136841,-0.11187744,-3.203125,-5.765625,3.703125
627,1727963738859,0.053222656,-0.7276001,-0.011779785,1.65625,-1.390625,1.234375
628,1727963738899,0.016845703,-0.81378174,-0.028625488,-5.453125,-0.984375,3.21875
629,1727963738939,0.08544922,-0.9614868,-0.042541504,-11.578125,-4.8125,-1.484375
630,1727963738979,0.008300781,-1.3311157,0.054138184,-11.90625,-11.203125,-6.140625
631,1727963739019,-0.047607422,-1.2705688,0.028015137,-7.125,6.046875,-8.015625
632,1727963739059,-0.072021484,-1.1502075,-0.0064086914,-9.890625,10.8125,-16.359375
633,1727963739099,0.013916016,-1.204895,-0.17803955,-10.796875,5.5,-18.71875
634,1727963739139,0.041992188,-0.90582275,-0.2979126,5.5625,20.484375,2.203125
635,1727963739179,-0.115478516,-0.9793091,-0.175354,1.25,10.046875,-20.109375
636,1727963739219,0.06274414,-1.0825806,-0.17510986,1.671875,9.109375,-7.4375
637,1727963739259,-0.17773438,-1.029602,-0.074035645,10.359375,11.828125,-3.21875
638,1727963739299,-0.099853516,-0.8743286,-0.035705566,10.046875,9.828125,0.03125
639,1727963739339,-0.1862793,-0.78082275,-0.061584473,9.8125,13.109375,2.515625
640,1727963739379,-0.045166016,-0.7319946,-0.16241455,16.015625,15.296875,5.8125
641,1727963739419,0.0769043,-0.7468872,-0.101623535,14.34375,7.75,6.84375
642,1727963739459,-0.13476562,-0.89068604,-0.07720947,6.71875,0.734375,2.84375
643,1727963739499,-0.099121094,-1.0918579,-0.09136963,2.75,5.765625,1.390625
644,1727963739539,-0.16503906,-1.2005005,-0.08526611,-0.6875,0.765625,5.140625
645,1727963739579,-0.16821289,-1.2214966,-0.15948486,-11.84375,-2.796875,8.03125
646,1727963739619,-0.10986328,-1.2334595,-0.25665283,-12.375,-5.828125,3.09375
647,1727963739659,0.3125,-1.0911255,-0.29400635,-4.125,-12.546875,9.828125
648,1727963739699,0.3725586,-0.86505127,-0.18878174,1.859375,-15.671875,15.265625
649,1727963739739,-0.10864258,-0.95635986,-0.19268799,-3.796875,-12.21875,-2.703125
650,1727963739779,0.03881836,-1.038147,-0.14337158,-2.53125,-1.984375,-0.71875
651,1727963739819,-0.05444336,-0.9624634,-0.06524658,-7.65625,-7.65625,-0.375
652,1727963739859,0.0637207,-0.8460083,-0.011779785,-6.8125,-13.203125,1.6875
653,1727963739899,-0.018066406,-0.76934814,-0.025939941,-0.53125,-8.40625,2.4375
654,1727963739939,0.044677734,-0.70684814,0.0040893555,1.625,-9.5,2.640625
655,1727963739979,0.08081055,-0.79888916,-0.020568848,-1.9375,-20.109375,0.390625
656,1727963740019,0.024414062,-0.9463501,0.06048584,0.390625,-10.546875,-2.546875
657,1727963740059,-0.06665039,-1.1243286,0.008239746,-1.6875,-14.3125,-2.671875
658,1727963740099,0.13867188,-1.2649536,0.15887451,-6.390625,-5.875,-5.78125
659,1727963740139,-0.17089844,-1.0984497,0.04876709,-3.5,-0.734375,-6.1875
660,1727963740179,-0.07763672,-1.2388306,-0.07672119,-10.9375,-0.671875,-16.0625
661,1727963740219,0.12841797,-1.1651001,-0.1519165,-12.34375,-6.875,-6.28125
662,1727963740259,-0.061279297,-0.9385376,-0.25030518,11.921875,16.5,2.53125
663,1727963740299,-0.28564453,-0.8665161,-0.18243408,10.96875,22.421875,-16.453125
664,1727963740339,0.07714844,-1.1321411,-0.14434814,0.546875,2.078125,-9.8125
665,1727963740379,-0.11987305,-1.020813,-0.08502197,8.5,11.859375,-0.828125
666,1727963740419,-0.23291016,-0.79644775,-0.028625488,14.0,17.53125,1.546875
667,1727963740459,-0.11206055,-0.7559204,-0.11187744,5.546875,4.4375,-0.375
668,1727963740499,0.02319336,-0.6802368,-0.05718994,5.765625,8.359375,3.578125
669,1727963740539,-0.19018555,-0.6489868,-0.17706299,5.125,8.984375,6.90625
670,1727963740579,-0.035888672,-0.7962036,-0.07672119,10.078125,-3.796875,1.1875
671,1727963740619,-0.0043945312,-1.0122681,-0.09869385,3.34375,-9.671875,2.203125
672,1727963740659,-0.22436523,-1.2910767,-0.06524658,-3.4375,-5.28125,0.46875
673,1727963740699,-0.3317871,-1.5039673,-0.07550049,-9.96875,-1.40625,2.234375
674,1727963740739,-0.119384766,-1.232727,-0.14263916,-4.96875,4.15625,13.390625
675,1727963740779,-0.047851562,-1.2713013,-0.28033447,-7.0,-10.1875,-0.09375
676,1727963740819,0.40356445,-1.0647583,-0.2107544,7.71875,9.296875,7.75
677,1727963740859,0.03491211,-0.9175415,-0.19146729,-3.09375,-13.703125,7.984375
678,1727963740899,0.00390625,-0.95635986,-0.17242432,-11.984375,4.5625,-3.234375
679,1727963740939,0.051757812,-1.0134888,-0.1116333,-10.3125,-1.078125,3.765625
680,1727963740979,-0.08520508,-0.81695557,-0.0413208,-4.03125,-6.15625,2.640625
681,1727963741019,0.01928711,-0.7190552,-0.08721924,2.984375,-3.59375,5.9375
682,1727963741059,0.111083984,-0.6333618,-0.051818848,1.8125,-7.234375,4.9375
683,1727963741099,0.01928711,-0.62335205,-0.0037231445,1.265625,-10.15625,4.984375
684,1727963741139,0.037597656,-0.815979,-0.032287598,-1.71875,-13.359375,1.125
685,1727963741179,0.036132812,-1.0840454,0.08880615,-2.984375,-9.53125,-3.03125
686,1727963741219,0.022460938,-1.310852,0.0048217773,-7.171875,-18.984375,-2.1875
687,1727963741259,0.14208984,-1.2803345,0.11077881,-1.34375,-14.703125,-2.703125
688,1727963741299,-0.22705078,-1.1084595,0.13275146,-3.75,4.515625,-11.546875
689,1727963741339,-0.05053711,-1.2598267,-0.21881104,-8.375,2.671875,-18.828125
690,1727963741379,0.20703125,-0.9055786,-0.2979126,4.328125,5.890625,3.890625
691,1727963741419,-0.23413086,-0.8789673,-0.19659424,9.84375,-3.796875,-8.921875
692,1727963741459,-0.08251953,-1.0979614,-0.13775635,-6.046875,8.984375,-17.546875
693,1727963741499,-0.059814453,-1.2095337,-0.10772705,-8.984375,0.734375,-5.125
694,1727963741539,-0.19433594,-0.95196533,-0.036193848,5.75,7.75,-0.890625
695,1727963741579,-0.045410156,-0.8435669,-0.073791504,4.484375,3.71875,-4.171875
696,1727963741619,-0.033203125,-0.7463989,-0.09454346,14.359375,7.9375,4.671875
697,1727963741659,-0.10473633,-0.66363525,-0.09869385,9.796875,6.890625,2.890625
698,1727963741699,-0.06958008,-0.6975708,-0.1416626,-2.65625,2.265625,-0.140625
699,1727963741739,-0.09741211,-0.8753052,-0.13140869,-4.59375,-2.3125,-1.75
700,1727963741779,-0.17749023,-1.0325317,-0.062561035,4.375,-0.75,-1.46875
701,1727963741819,-0.23510742,-1.2803345,-0.0960083,-4.65625,2.328125,-3.09375
702,1727963741859,-0.21826172,-1.3242798,-0.09698486,-5.859375,6.484375,6.1875
703,1727963741899,-0.19726562,-1.2664185,-0.20977783,-13.65625,3.875,9.625
704,1727963741939,0.09472656,-1.1528931,-0.20318604,2.8125,0.1875,8.875
705,1727963741979,0.4963379,-0.83917236,-0.22003174,4.984375,-5.859375,17.3125
706,1727963742019,-0.19946289,-1.2036743,-0.14263916,-2.578125,0.484375,0.71875
707,1727963742059,-0.04296875,-1.0723267,-0.17779541,-7.609375,9.5625,3.40625
708,1727963742099,-0.04736328,-1.024231,-0.12628174,-4.125,15.296875,-1.484375
709,1727963742139,0.038330078,-0.8740845,-0.16778564,-7.84375,-2.828125,5.75
710,1727963742179,0.08105469,-0.7161255,-0.00079345703,3.71875,-5.328125,4.90625
711,1727963742219,-0.048095703,-0.61846924,-0.08380127,-4.3125,-2.015625,6.640625
712,1727963742259,0.10131836,-0.60235596,-0.019348145,2.125,-1.15625,3.265625
713,1727963742299,0.015380859,-0.68463135,-0.023498535,-0.5,-9.5625,2.5
714,1727963742339,0.032714844,-1.003479,-0.25909424,1.1875,-16.765625,7.5625
715,1727963742379,0.17114258,-1.0064087,-0.30426025,-10.03125,-23.046875,-1.09375
716,1727963742419,-0.040283203,-1.1226196,-0.14263916,-3.75,-11.140625,0.421875
717,1727963742459,-0.03930664,-0.92559814,-0.08868408,1.21875,-1.078125,1.09375
718,1727963742499,0.14892578,-0.87286377,-0.07281494,-2.84375,-17.109375,4.6875
719,1727963742539,0.021972656,-0.770813,-0.06451416,-5.90625,-12.359375,2.65625
720,1727963742579,-0.04736328,-0.69122314,-0.08013916,1.078125,-10.6875,3.296875
721,1727963742619,0.13598633,-0.7554321,0.005065918,-2.71875,-17.09375,1.8125
722,1727963742659,-0.08178711,-0.92803955,-0.039123535,-1.21875,-15.515625,-2.09375
723,1727963742699,-0.07836914,-1.0684204,-0.10040283,-15.96875,-10.09375,-0.953125
724,1727963742739,0.1484375,-1.2341919,-0.057678223,-9.859375,-15.359375,-8.671875
725,1727963742779,0.034423828,-1.3235474,0.10638428,-9.390625,-16.515625,-10.59375
726,1727963742819,-0.19311523,-1.2647095,-0.00592041,-14.015625,2.859375,-11.5
727,1727963742859,-0.0014648438,-1.0840454,-0.18707275,-10.9375,8.046875,-10.875
728,1727963742899,0.09375,-0.8635864,-0.27349854,2.6875,14.265625,5.359375
729,1727963742939,-0.20703125,-0.9590454,-0.07720947,2.03125,5.875,-16.0
730,1727963742979,0.040771484,-1.0894165,-0.16656494,-1.15625,5.921875,-5.03125
731,1727963743019,-0.14160156,-1.0750122,-0.054992676,5.265625,4.625,-0.046875
732,1727963743059,-0.21582031,-0.86602783,-0.047668457,8.453125,6.140625,3.859375
733,1727963743099,-0.14379883,-0.8213501,-0.14459229,7.3125,12.9375,1.265625
734,1727963743139,-0.037109375,-0.8357544,-0.13092041,7.984375,13.1875,3.90625
735,1727963743179,-0.05493164,-0.7095337,-0.043518066,11.3125,3.09375,6.46875
736,1727963743219,-0.107910156,-0.8501587,-0.06500244,8.828125,9.671875,1.484375
737,1727963743259,-0.045410156,-1.0496216,-0.050109863,3.4375,3.78125,-1.671875
738,1727963743299,-0.2770996,-1.2039185,-0.10284424,-3.546875,4.15625,1.40625
739,1727963743339,-0.17114258,-1.2070923,-0.13653564,-5.40625,2.578125,3.984375
740,1727963743379,-0.06347656,-1.2493286,-0.21246338,-12.28125,-10.796875,7.015625
741,1727963743419,0.07739258,-1.1287231,-0.13238525,1.140625,-4.140625,4.84375
742,1727963743459,0.26123047,-0.84576416,-0.27593994,3.171875,-5.984375,12.796875
743,1727963743499,0.05029297,-1.1021118,-0.22662354,-14.40625,-17.390625,-2.546875
744,1727963743539,-0.04248047,-1.1502075,-0.17633057,-11.9375,-6.28125,1.1875
745,1727963743579,0.012939453,-1.024231,-0.03302002,-3.3125,-7.015625,0.953125
746,1727963743619,0.04345703,-0.9077759,-0.0115356445,-0.125,-7.453125,2.890625
747,1727963743659,0.041259766,-0.7581177,-0.027648926,-0.671875,-6.5625,6.984375
748,1727963743699,-0.056152344,-0.6104126,-0.058898926,-0.109375,-6.34375,4.203125
749,1727963743739,0.08618164,-0.7288208,-0.04864502,-2.953125,-7.796875,-0.78125
750,1727963743779,-0.044433594,-0.8233032,0.04095459,-1.53125,-7.015625,1.546875
751,1727963743819,0.0009765625,-1.0256958,-0.019836426,-5.96875,-14.546875,-2.34375
752,1727963743859,0.16821289,-1.2544556,0.016296387,-12.109375,-14.546875,-8.03125
753,1727963743899,-0.123535156,-1.3084106,0.113708496,-12.25,-7.734375,-9.875
754,1727963743939,-0.16674805,-1.1802368,0.0016479492,-17.375,2.3125,-16.625
755,1727963743979,-0.0048828125,-1.1118774,-0.17462158,-8.5,-6.078125,-10.9375
756,1727963744019,0.09350586,-0.93707275,-0.2888794,16.03125,18.3125,2.046875
757,1727963744059,-0.32250977,-0.9373169,-0.12335205,10.671875,13.515625,-17.53125
758,1727963744099,0.13867188,-1.1531372,-0.11602783,-6.234375,3.359375,-5.875
759,1727963744139,-0.1262207,-1.0278931,-0.04058838,3.96875,3.96875,0.90625
