,Unnamed: 0,timestamp,accel_x,accel_y,accel_z,gyro_x,gyro_y,gyro_z
0,0,1727709030658,-0.2631836,-0.9302368,0.4484253,1.5625,4.25,-0.78125
1,1,1727709030698,-0.16381836,-0.9380493,0.43988037,2.734375,2.890625,3.453125
2,2,1727709030738,-0.11206055,-0.9480591,0.42108154,-1.34375,-2.484375,5.1875
3,3,1727709030778,-0.2253418,-0.94659424,0.40252686,-3.890625,-2.828125,5.625
4,4,1727709030818,-0.14111328,-0.97662354,0.42816162,-2.0625,-0.796875,7.921875
5,5,1727709030858,0.00024414062,-0.88653564,0.44158936,16.953125,-13.609375,9.390625
6,6,1727709030898,0.017333984,-0.9331665,0.47454834,0.796875,-5.125,14.484375
7,7,1727709030938,-0.17285156,-1.0855103,0.4015503,1.3125,-20.484375,7.46875
8,8,1727709030978,-0.16894531,-0.81378174,0.5309448,7.515625,-3.109375,8.453125
9,9,1727709031018,-0.3334961,-0.85162354,0.55682373,-10.390625,10.875,-3.734375
10,10,1727709031058,-0.095947266,-0.9976196,0.41326904,6.109375,-15.1875,14.515625
11,11,1727709031098,0.021728516,-0.7649536,0.56048584,3.921875,-2.234375,11.453125
12,12,1727709031138,-0.13134766,-0.82232666,0.5282593,-0.6875,3.390625,7.640625
13,13,1727709031178,-0.11791992,-0.97979736,0.5187378,7.6875,-3.8125,17.890625
14,14,1727709031218,0.011230469,-0.87750244,0.47576904,4.734375,-1.125,11.078125
15,15,1727709031258,-0.17480469,-0.8394165,0.48406982,8.390625,4.625,2.734375
16,16,1727709031298,-0.106933594,-0.8657837,0.49139404,10.078125,4.109375,7.65625
17,17,1727709031338,-0.07739258,-0.8460083,0.4845581,9.609375,2.546875,-0.09375
18,18,1727709031378,-0.046875,-0.87628174,0.4491577,6.203125,7.9375,-0.90625
19,19,1727709031418,-0.09643555,-0.895813,0.4874878,8.828125,9.8125,-6.0625
20,20,1727709031458,-0.037109375,-0.92681885,0.44940186,12.71875,4.109375,-0.359375
21,21,1727709031498,0.13793945,-1.0401001,0.4718628,11.984375,-5.421875,9.84375
22,22,1727709031538,0.05859375,-1.2092896,0.5494995,-10.046875,-0.25,15.765625
23,23,1727709031578,-0.37719727,-1.1797485,0.55096436,0.90625,10.984375,-7.765625
24,24,1727709031618,-0.15209961,-1.2351685,0.63153076,4.984375,18.078125,2.921875
25,25,1727709031658,0.33325195,-1.461731,0.40985107,-2.328125,5.984375,0.765625
26,26,1727709031698,0.27148438,-1.3235474,0.019226074,8.25,8.3125,-17.875
27,27,1727709031738,0.10668945,-1.1345825,0.05218506,6.953125,7.375,-3.796875
28,28,1727709031778,0.13354492,-0.9734497,0.066833496,20.59375,-2.84375,-12.703125
29,29,1727709031818,0.014160156,-0.89190674,0.07977295,2.8125,2.546875,-1.0
30,30,1727709031858,-0.0007324219,-0.78204346,0.13690186,15.828125,3.015625,-1.640625
31,31,1727709031898,-0.09399414,-0.8677368,0.059265137,24.890625,10.125,-12.34375
32,32,1727709031938,-0.02734375,-0.7749634,0.08416748,14.546875,7.390625,-2.828125
33,33,1727709031978,0.10571289,-0.7420044,0.061706543,6.90625,5.5,6.140625
34,34,1727709032018,0.043945312,-0.7954712,0.10101318,6.453125,5.140625,9.5
35,35,1727709032058,-0.1237793,-0.8074341,0.15423584,2.78125,16.296875,3.796875
36,36,1727709032098,-0.123046875,-0.94122314,0.11810303,-4.078125,11.875,4.828125
37,37,1727709032138,0.020996094,-1.0352173,0.1317749,-8.90625,11.46875,2.03125
38,38,1727709032178,-0.06933594,-1.0979614,0.23699951,-11.671875,10.84375,-10.34375
39,39,1727709032218,-0.24389648,-0.9795532,0.3085327,-14.0,4.296875,-8.671875
40,40,1727709032258,-0.080078125,-1.0737915,0.19793701,-10.3125,5.921875,0.453125
41,41,1727709032298,0.24145508,-1.2615356,0.12615967,0.609375,2.078125,14.734375
42,42,1727709032338,0.7067871,-1.6260376,0.23187256,-6.6875,-6.34375,16.984375
43,43,1727709032378,0.03125,-1.5698853,0.14422607,0.5625,-19.328125,-5.09375
44,44,1727709032418,-0.2685547,-0.6970825,-0.012268066,21.46875,-19.28125,0.15625
45,45,1727709032458,0.5722656,-0.8284302,0.12249756,-1.375,-6.828125,15.03125
46,46,1727709032498,0.49145508,-1.3215942,0.2946167,-11.578125,1.140625,-2.78125
47,47,1727709032538,-0.1586914,-0.9570923,0.21160889,-6.296875,-8.078125,-6.6875
48,48,1727709032578,-0.01953125,-0.7312622,0.20281982,-6.875,-7.6875,6.265625
49,49,1727709032618,0.18310547,-0.70098877,0.2062378,-7.328125,-8.734375,1.796875
50,50,1727709032658,-0.041503906,-0.6292114,0.21600342,-0.453125,1.4375,-5.390625
51,51,1727709032698,-0.00024414062,-0.7527466,0.25164795,3.640625,-3.421875,4.671875
52,52,1727709032738,0.13134766,-0.7805786,0.27435303,7.40625,-8.9375,5.0625
53,53,1727709032778,0.030761719,-0.73931885,0.22943115,2.984375,0.46875,-0.15625
54,54,1727709032818,0.1015625,-0.8936157,0.2904663,1.1875,-4.15625,4.984375
55,55,1727709032858,0.092041016,-0.8933716,0.4459839,-0.703125,-4.0625,-0.3125
56,56,1727709032898,-0.083984375,-0.93096924,0.3336792,-3.609375,2.578125,-0.546875
57,57,1727709032938,0.07714844,-1.1096802,0.32757568,3.59375,-1.5,1.921875
58,58,1727709032978,0.15795898,-1.2151489,0.29559326,10.265625,-3.609375,1.859375
59,59,1727709033018,0.2368164,-1.4629517,0.33319092,-0.390625,11.765625,9.203125
60,60,1727709033058,-0.0034179688,-1.447815,0.22454834,6.375,-2.078125,-4.671875
61,61,1727709033098,0.15600586,-1.1052856,0.093444824,24.0625,3.546875,2.8125
62,62,1727709033138,0.13793945,-0.90582275,0.089782715,8.828125,16.59375,0.359375
63,63,1727709033178,0.17163086,-1.0684204,-0.030578613,13.265625,14.578125,-9.4375
64,64,1727709033218,-0.06542969,-0.9109497,0.15887451,14.84375,5.65625,-10.59375
65,65,1727709033258,-0.08959961,-0.9360962,0.13226318,2.8125,7.765625,-3.921875
66,66,1727709033298,0.0078125,-0.9048462,0.14447021,2.96875,5.46875,-8.65625
67,67,1727709033338,-0.040527344,-0.7949829,0.15374756,3.078125,13.625,-4.765625
68,68,1727709033378,0.016113281,-0.7710571,0.10784912,7.4375,13.6875,-2.65625
69,69,1727709033418,0.0146484375,-0.7647095,0.04949951,-2.8125,10.5625,6.28125
70,70,1727709033458,-0.028808594,-0.7329712,0.08294678,-6.609375,12.4375,4.046875
71,71,1727709033498,-0.20336914,-0.7085571,0.1515503,-2.09375,23.359375,-5.125
72,72,1727709033538,-0.2944336,-0.8023071,0.13934326,-2.03125,29.96875,-3.546875
73,73,1727709033578,-0.049560547,-0.9331665,0.18572998,-12.40625,33.625,-2.1875
74,74,1727709033618,0.036132812,-1.2854614,0.2892456,-21.625,28.515625,0.609375
75,75,1727709033658,-0.12719727,-1.5134888,0.35638428,2.9375,15.296875,4.0625
76,76,1727709033698,0.07495117,-1.5733032,0.4857788,-2.96875,12.109375,23.734375
77,77,1727709033738,0.22021484,-1.6809692,0.03753662,20.671875,-11.078125,32.546875
78,78,1727709033778,0.08886719,-1.0669556,-0.28570557,12.734375,-5.4375,11.359375
79,79,1727709033818,-0.10229492,-0.96759033,-0.10479736,-6.296875,3.9375,-5.4375
80,80,1727709033858,0.41259766,-0.9072876,-0.0015258789,-17.265625,15.4375,-10.328125
81,81,1727709033898,0.08911133,-0.831604,0.13104248,-44.796875,21.09375,-16.625
82,82,1727709033938,-0.20214844,-0.9414673,0.16815186,-41.0625,26.21875,-22.921875
83,83,1727709033978,0.091796875,-0.92193604,0.09246826,-23.15625,16.25,-13.03125
84,84,1727709034018,0.16137695,-0.87945557,0.21356201,-18.921875,30.25,-17.421875
85,85,1727709034058,-0.08251953,-0.85723877,0.18377686,-14.421875,32.96875,-21.640625
86,86,1727709034098,-0.017333984,-0.70880127,0.13909912,-3.765625,29.453125,-11.59375
87,87,1727709034138,0.046875,-0.6099243,0.17034912,4.390625,28.078125,-7.8125
88,88,1727709034178,0.05883789,-0.6831665,0.23919678,-1.828125,28.5625,-3.984375
89,89,1727709034218,-0.05126953,-0.72491455,0.29974365,3.265625,24.84375,-6.5
90,90,1727709034258,-0.111572266,-0.6765747,0.35369873,-1.171875,33.09375,-7.234375
91,91,1727709034298,-0.2355957,-0.87994385,0.3287964,-6.203125,30.171875,-12.453125
92,92,1727709034338,-0.008544922,-1.0371704,0.26385498,-1.1875,24.515625,-13.015625
93,93,1727709034378,0.045410156,-1.2368774,0.51727295,-13.484375,32.28125,-20.40625
94,94,1727709034418,-0.54248047,-0.9768677,0.5829468,-26.015625,45.984375,-48.015625
95,95,1727709034458,-0.51220703,-1.3504028,-0.028625488,-14.140625,29.078125,-19.6875
96,96,1727709034498,0.5546875,-1.7940063,0.09661865,-23.609375,54.921875,-1.375
97,97,1727709034538,-0.08178711,-0.97076416,0.09832764,7.296875,23.75,-33.53125
98,98,1727709034578,0.01586914,-0.9299927,0.17352295,5.78125,12.296875,2.953125
99,99,1727709034618,-0.11816406,-0.9163208,0.13372803,28.5625,12.15625,-3.578125
100,100,1727709034658,-0.16503906,-0.8989868,0.11907959,15.203125,33.203125,-8.453125
101,101,1727709034698,-0.20385742,-0.7149048,0.15740967,16.90625,29.8125,-5.96875
102,102,1727709034738,-0.068359375,-0.8792114,0.10076904,12.140625,23.109375,0.109375
103,103,1727709034778,-0.012939453,-1.0596313,0.24041748,-5.15625,19.390625,7.90625
104,104,1727709034818,-0.076416016,-0.9776001,0.18963623,7.015625,14.078125,7.6875
105,105,1727709034858,-0.16821289,-0.85894775,0.2321167,5.640625,16.5,3.375
106,106,1727709034898,-0.15698242,-0.8518677,0.2062378,1.125,15.421875,5.1875
107,107,1727709034938,-0.07910156,-0.97320557,0.19744873,-7.328125,13.515625,5.765625
108,108,1727709034978,-0.11621094,-0.96221924,0.28778076,-5.34375,12.984375,-0.78125
109,109,1727709035018,-0.17260742,-0.9656372,0.29656982,-6.171875,12.15625,4.625
110,110,1727709035058,-0.16503906,-1.204895,0.2633667,-6.046875,10.0,9.3125
111,111,1727709035098,0.119384766,-1.6934204,0.41204834,-7.125,5.484375,25.453125
112,112,1727709035138,0.087890625,-1.8460083,0.12249756,2.875,-1.609375,-3.09375
113,113,1727709035178,-0.10083008,-1.2720337,-0.11993408,15.46875,-11.140625,5.671875
114,114,1727709035218,0.5270996,-0.8858032,0.08416748,38.6875,-12.203125,10.703125
115,115,1727709035258,0.66186523,-0.90045166,0.16595459,-10.40625,4.578125,7.484375
116,116,1727709035298,-0.11376953,-1.0911255,0.13421631,-16.078125,3.9375,0.515625
117,117,1727709035338,-0.08544922,-0.8850708,0.07537842,5.359375,-2.296875,0.96875
118,118,1727709035378,0.22729492,-0.6746216,0.14764404,13.0625,-1.15625,-0.6875
119,119,1727709035418,0.21508789,-0.7029419,0.16497803,-3.84375,-4.46875,3.078125
120,120,1727709035458,0.0690918,-0.75323486,0.23187256,-12.796875,4.328125,6.3125
121,121,1727709035498,-0.075927734,-0.71832275,0.20550537,4.78125,-1.53125,-0.5
122,122,1727709035538,0.01953125,-0.74884033,0.17010498,-2.671875,7.34375,-2.84375
123,123,1727709035578,0.16210938,-0.7913208,0.26409912,2.5,8.453125,-0.734375
124,124,1727709035618,0.075683594,-0.8557739,0.24432373,-6.875,7.484375,-2.359375
125,125,1727709035658,0.13671875,-1.0200806,0.34881592,-9.703125,15.640625,-3.84375
126,126,1727709035698,-0.12036133,-1.164856,0.262146,-3.1875,11.390625,-15.75
127,127,1727709035738,0.036865234,-1.0911255,0.23651123,14.125,6.890625,-1.4375
128,128,1727709035778,0.36108398,-1.3206177,0.2633667,-3.53125,14.4375,9.34375
129,129,1727709035818,-0.016113281,-1.6223755,0.26483154,-11.46875,15.421875,-16.671875
130,130,1727709035858,-0.008544922,-1.0476685,0.18426514,9.984375,13.21875,-22.421875
131,131,1727709035898,0.14135742,-0.97198486,0.09466553,3.484375,32.015625,-7.734375
132,132,1727709035938,0.15429688,-1.1050415,0.0028686523,14.0,26.09375,-16.484375
133,133,1727709035978,0.08911133,-0.87384033,0.085632324,15.265625,3.109375,-5.28125
134,134,1727709036018,-0.012207031,-0.8245239,0.08831787,9.46875,6.140625,-5.953125
135,135,1727709036058,-0.0703125,-0.9031372,0.12200928,15.046875,6.140625,-8.234375
136,136,1727709036098,-0.14526367,-0.7319946,0.07952881,15.953125,7.921875,1.765625
137,137,1727709036138,0.028564453,-0.68707275,0.066589355,3.765625,9.734375,2.84375
138,138,1727709036178,-0.009521484,-0.70196533,0.004333496,3.328125,7.90625,1.796875
139,139,1727709036218,-0.049316406,-0.76031494,0.13006592,-4.703125,18.84375,3.5
140,140,1727709036258,-0.18676758,-0.91900635,0.10028076,-12.125,24.359375,-1.328125
141,141,1727709036298,-0.22753906,-1.0828247,0.19622803,-10.71875,18.65625,-5.8125
142,142,1727709036338,-0.106933594,-1.2454224,0.24822998,-20.21875,8.546875,-1.40625
143,143,1727709036378,0.0048828125,-1.2507935,0.22918701,0.359375,3.828125,2.234375
144,144,1727709036418,-0.041015625,-1.3721313,0.22796631,-10.9375,-4.203125,6.40625
145,145,1727709036458,0.15356445,-1.6482544,0.10491943,-8.609375,-2.4375,25.390625
146,146,1727709036498,0.48046875,-1.7515259,0.19940186,9.640625,-37.34375,-3.078125
147,147,1727709036538,-0.118896484,-0.90948486,-0.14630127,17.15625,-21.84375,0.390625
148,148,1727709036578,0.2121582,-0.73443604,0.17767334,1.796875,-10.40625,11.546875
149,149,1727709036618,0.6069336,-0.99176025,0.35614014,-21.390625,-10.1875,4.0625
150,150,1727709036658,-0.19580078,-0.81134033,0.1239624,-14.734375,-5.15625,-4.90625
151,151,1727709036698,-0.20727539,-0.5977173,0.027770996,1.828125,-17.71875,-4.03125
152,152,1727709036738,0.20874023,-0.55596924,0.15545654,3.609375,-10.953125,7.78125
153,153,1727709036778,0.008300781,-0.6873169,0.18719482,-10.703125,1.796875,3.875
154,154,1727709036818,-0.006591797,-0.7581177,0.2218628,-1.125,0.75,3.234375
155,155,1727709036858,-0.09765625,-0.73028564,0.19598389,5.71875,2.0,5.09375
156,156,1727709036898,0.111816406,-0.8098755,0.2687378,2.90625,1.84375,8.609375
157,157,1727709036938,0.2121582,-0.9985962,0.38812256,-9.890625,7.21875,3.53125
158,158,1727709036978,-0.045166016,-1.1592407,0.4406128,-17.28125,12.890625,-7.03125
159,159,1727709037018,-0.3486328,-1.225647,0.3114624,-1.6875,12.09375,-15.53125
160,160,1727709037058,0.2253418,-1.2734985,0.17938232,34.46875,-14.4375,-1.046875
161,161,1727709037098,0.73657227,-1.7078247,0.21600342,-20.9375,31.59375,23.15625
162,162,1727709037138,-0.33007812,-1.2739868,0.29730225,9.671875,-11.953125,-51.765625
163,163,1727709037178,0.047607422,-0.8088989,-0.027648926,27.90625,13.0,-4.765625
164,164,1727709037218,0.5102539,-0.90289307,0.04949951,-0.609375,1.265625,3.171875
165,165,1727709037258,0.2722168,-1.0835571,0.0602417,-2.90625,8.59375,-18.203125
166,166,1727709037298,-0.2607422,-0.8880005,0.11126709,1.3125,4.0625,-6.078125
167,167,1727709037338,-0.10107422,-0.7876587,0.077819824,7.703125,-3.40625,-7.171875
168,168,1727709037378,-0.038330078,-0.66851807,0.0602417,7.390625,7.21875,-2.484375
169,169,1727709037418,0.123291016,-0.7612915,0.11224365,0.40625,0.890625,2.828125
170,170,1727709037458,0.026367188,-0.8374634,0.06341553,-6.234375,1.9375,5.796875
171,171,1727709037498,-0.0703125,-0.83258057,0.08880615,-6.703125,1.9375,4.5625
172,172,1727709037538,-0.08251953,-0.9146118,0.12835693,-5.59375,4.53125,3.171875
173,173,1727709037578,-0.12866211,-0.9182739,0.1437378,-1.0,5.828125,-1.25
174,174,1727709037618,-0.061279297,-1.0183716,0.20184326,-6.78125,3.84375,2.046875
175,175,1727709037658,0.08618164,-1.2141724,0.2987671,-7.28125,1.734375,8.4375
176,176,1727709037698,-0.04272461,-1.2312622,0.25531006,-1.703125,-11.171875,4.359375
177,177,1727709037738,-0.035888672,-1.3672485,0.20281982,-10.390625,2.484375,17.125
178,178,1727709037778,0.28857422,-1.6467896,0.055114746,15.59375,-18.9375,14.140625
179,179,1727709037818,0.7019043,-1.4336548,0.20404053,3.8125,-23.984375,14.984375
180,180,1727709037858,0.14990234,-0.79766846,0.10003662,0.125,-26.0625,-2.953125
181,181,1727709037898,-0.2084961,-0.8386841,0.04144287,-3.046875,-10.484375,-1.953125
182,182,1727709037938,0.22924805,-0.87945557,0.2267456,-3.078125,-11.1875,-3.171875
183,183,1727709037978,0.122558594,-0.84381104,0.16278076,-11.890625,-9.03125,-5.90625
184,184,1727709038018,0.1928711,-0.84698486,0.22576904,-13.609375,-14.953125,5.453125
185,185,1727709038058,0.0026855469,-0.65802,0.18109131,-2.015625,-17.296875,5.421875
186,186,1727709038098,-0.091796875,-0.6465454,0.22235107,-7.625,-10.546875,3.296875
187,187,1727709038138,0.06933594,-0.8045044,0.2975464,-10.765625,-3.0625,1.75
188,188,1727709038178,0.08666992,-0.75079346,0.29437256,-12.546875,-2.53125,1.890625
189,189,1727709038218,-0.02368164,-0.70440674,0.2814331,1.734375,3.890625,-1.125
190,190,1727709038258,0.079589844,-0.8467407,0.4015503,11.359375,-6.484375,9.421875
191,191,1727709038298,0.25830078,-1.0420532,0.4706421,-9.09375,-5.28125,7.140625
192,192,1727709038338,-0.052734375,-1.0742798,0.38079834,-8.828125,8.625,-10.578125
193,193,1727709038378,-0.16088867,-1.2935181,0.25238037,17.9375,-6.078125,11.28125
194,194,1727709038418,0.4987793,-1.6953735,0.39764404,16.484375,6.25,9.109375
195,195,1727709038458,0.2944336,-1.4307251,0.21600342,4.171875,11.109375,-10.125
196,196,1727709038498,0.01171875,-1.1431274,0.09588623,2.40625,7.109375,-6.96875
197,197,1727709038538,0.19116211,-0.831604,0.074401855,8.484375,6.671875,-0.59375
198,198,1727709038578,0.3552246,-0.86798096,0.11639404,10.734375,-0.4375,-8.78125
199,199,1727709038618,-0.029541016,-0.8399048,0.13275146,3.28125,-6.109375,-1.328125
200,200,1727709038658,-0.057617188,-0.7803345,0.14398193,12.5625,-4.609375,-5.453125
201,201,1727709038698,-0.099609375,-0.69195557,0.06390381,17.921875,1.8125,-7.6875
202,202,1727709038738,0.08496094,-0.6448364,0.0836792,10.90625,-2.171875,-3.1875
203,203,1727709038778,0.06274414,-0.7617798,0.10272217,-3.8125,4.140625,-0.78125
204,204,1727709038818,0.0034179688,-0.8057251,0.07562256,0.96875,5.421875,3.09375
205,205,1727709038858,-0.10522461,-0.8867798,0.13861084,-2.625,11.734375,-1.40625
206,206,1727709038898,-0.18774414,-0.98028564,0.152771,3.53125,23.859375,-6.8125
207,207,1727709038938,0.00024414062,-1.1655884,0.24822998,-1.71875,8.640625,-0.265625
208,208,1727709038978,0.2006836,-1.5198364,0.27020264,-8.953125,-7.640625,12.625
209,209,1727709039018,0.032226562,-1.4021606,0.17449951,-13.96875,5.984375,11.96875
210,210,1727709039058,0.3474121,-1.6001587,0.09100342,19.328125,-23.828125,12.609375
211,211,1727709039098,0.5812988,-1.2068481,-0.14263916,-3.859375,-29.515625,11.625
212,212,1727709039138,-0.06762695,-0.8171997,0.039489746,6.9375,-13.59375,-2.15625
213,213,1727709039178,0.43725586,-1.1265259,0.30682373,-11.390625,-14.125,3.1875
214,214,1727709039218,0.029296875,-0.9221802,0.13006592,-7.71875,-3.734375,-8.828125
215,215,1727709039258,-0.091552734,-0.72491455,0.051940918,-3.34375,-9.171875,-6.421875
216,216,1727709039298,0.17773438,-0.5618286,0.15716553,-4.0,-15.328125,5.703125
217,217,1727709039338,0.1796875,-0.58673096,0.18255615,-2.703125,-10.5625,1.625
218,218,1727709039378,-0.03515625,-0.64971924,0.18035889,-5.75,-3.421875,-4.1875
219,219,1727709039418,0.00390625,-0.6265259,0.20037842,3.578125,-10.078125,1.53125
220,220,1727709039458,0.17114258,-0.7571411,0.21795654,2.390625,-9.296875,6.25
221,221,1727709039498,0.13305664,-0.9602661,0.31072998,-8.875,-3.4375,9.125
222,222,1727709039538,0.10522461,-1.0879517,0.37860107,-0.671875,-5.40625,0.34375
223,223,1727709039578,0.038085938,-1.0740356,0.4628296,5.0,-4.25,-2.046875
224,224,1727709039618,-0.114746094,-1.1096802,0.2921753,-0.90625,-0.875,-2.890625
225,225,1727709039658,0.16772461,-1.3191528,0.2567749,15.796875,4.703125,5.953125
226,226,1727709039698,0.28173828,-1.5806274,0.4052124,2.109375,11.390625,6.890625
227,227,1727709039738,0.11035156,-1.2471313,0.10394287,7.6875,0.375,-17.390625
228,228,1727709039778,0.022216797,-0.9585571,0.00091552734,-3.1875,25.390625,-6.9375
229,229,1727709039818,0.20166016,-1.0283813,-0.061828613,20.34375,19.78125,-17.515625
230,230,1727709039858,0.29248047,-1.0877075,0.019226074,10.453125,-0.359375,-10.15625
231,231,1727709039898,-0.014404297,-0.8257446,0.030944824,-6.09375,-2.109375,-8.328125
232,232,1727709039938,-0.018554688,-0.8399048,0.1359253,10.109375,2.984375,-13.4375
233,233,1727709039978,-0.05053711,-0.8386841,0.03314209,-0.359375,12.40625,-7.625
234,234,1727709040018,-0.012939453,-0.66290283,0.043395996,5.75,11.5625,-8.03125
235,235,1727709040058,0.040039062,-0.6712036,0.09100342,5.984375,6.484375,-6.5
236,236,1727709040098,-0.09399414,-0.675354,0.12713623,-11.75,16.453125,0.953125
237,237,1727709040138,-0.20605469,-0.71539307,0.08758545,-5.28125,21.515625,0.25
238,238,1727709040178,-0.122802734,-0.973938,0.117370605,-16.828125,18.296875,3.296875
239,239,1727709040218,-0.115234375,-1.0801392,0.1828003,-4.0,12.1875,6.65625
240,240,1727709040258,0.004638672,-1.1362915,0.25994873,-4.96875,13.53125,0.40625
241,241,1727709040298,-0.07495117,-1.164856,0.29803467,-1.109375,11.703125,2.734375
242,242,1727709040338,-0.21044922,-1.2839966,0.2140503,-5.796875,10.609375,6.109375
243,243,1727709040378,-0.0703125,-1.4512329,0.086364746,16.09375,1.875,7.265625
244,244,1727709040418,-0.03881836,-1.3618774,0.07659912,-15.125,4.96875,31.140625
245,245,1727709040458,0.30322266,-1.3704224,0.10003662,16.40625,-6.859375,9.859375
246,246,1727709040498,0.119384766,-1.0759888,-0.30596924,14.703125,25.484375,18.0
247,247,1727709040538,0.4411621,-1.0239868,-0.011291504,0.71875,1.453125,4.546875
248,248,1727709040578,0.23266602,-0.8999634,0.047546387,-20.984375,21.796875,-3.953125
249,249,1727709040618,-0.13623047,-0.9968872,0.07171631,-24.953125,22.015625,-8.40625
250,250,1727709040658,0.09350586,-0.8999634,0.074645996,-36.5,27.71875,-17.015625
251,251,1727709040698,0.0073242188,-0.80133057,0.019226074,-25.28125,51.359375,-23.1875
252,252,1727709040738,-0.055419922,-0.7979126,0.06048584,-13.328125,56.546875,-20.90625
253,253,1727709040778,0.029541016,-0.7227173,0.0680542,-4.125,45.21875,-16.703125
254,254,1727709040818,0.30444336,-0.673645,0.1149292,-9.640625,48.921875,2.5
255,255,1727709040858,0.036376953,-0.94195557,0.11541748,-30.171875,67.640625,-9.0
256,256,1727709040898,-0.02709961,-1.097229,0.18206787,-19.171875,52.0,-10.015625
257,257,1727709040938,0.22485352,-0.8364868,0.16619873,-11.015625,43.734375,4.671875
258,258,1727709040978,0.1862793,-0.8032837,0.27752686,-4.046875,38.078125,1.296875
259,259,1727709041018,-0.15991211,-0.87457275,0.25238037,-13.859375,35.453125,-3.859375
260,260,1727709041058,-0.1159668,-0.8335571,0.3414917,0.671875,36.984375,-10.8125
261,261,1727709041098,0.009033203,-0.93218994,0.3612671,-6.734375,39.765625,-12.5
262,262,1727709041138,-0.122558594,-1.0942993,0.29315186,-3.28125,42.234375,-20.265625
263,263,1727709041178,0.06323242,-1.0591431,0.26409912,15.140625,23.5,-4.65625
264,264,1727709041218,0.42578125,-1.6033325,0.17181396,-12.4375,28.578125,26.234375
265,265,1727709041258,0.07519531,-1.5852661,0.121520996,5.296875,15.34375,-35.234375
266,266,1727709041298,0.12036133,-0.9365845,-0.159729,15.75,19.125,-6.109375
267,267,1727709041338,0.32885742,-1.1240845,-0.14971924,9.5625,39.046875,1.34375
268,268,1727709041378,0.29589844,-1.30719,0.041931152,5.75,18.71875,-19.4375
269,269,1727709041418,0.052001953,-0.88604736,0.101745605,8.9375,16.28125,-13.5
270,270,1727709041458,-0.032226562,-0.68341064,0.07928467,0.859375,13.515625,-11.078125
271,271,1727709041498,-0.02734375,-0.69317627,0.0060424805,5.96875,17.40625,-11.796875
272,272,1727709041538,0.015380859,-0.6470337,0.10614014,7.265625,20.84375,-9.234375
273,273,1727709041578,0.03564453,-0.7732544,-0.039855957,-12.546875,18.59375,-6.25
274,274,1727709041618,0.013427734,-0.7852173,0.12347412,-14.5,23.296875,-7.640625
275,275,1727709041658,-0.05419922,-0.9265747,0.1449585,-14.28125,16.96875,-2.609375
276,276,1727709041698,-0.1574707,-1.0166626,0.16595459,-8.046875,16.71875,-5.3125
277,277,1727709041738,-0.3059082,-0.9360962,0.1642456,-12.265625,24.921875,-10.078125
278,278,1727709041778,-0.12109375,-1.0188599,0.22991943,-6.4375,16.15625,-9.578125
279,279,1727709041818,0.010498047,-1.2930298,0.2477417,-13.140625,12.875,6.484375
280,280,1727709041858,0.06982422,-1.3147583,0.22650146,4.875,0.703125,5.984375
281,281,1727709041898,0.1352539,-1.4553833,0.08123779,3.625,6.03125,18.953125
282,282,1727709041938,0.56225586,-1.9126587,0.2098999,1.71875,-19.515625,9.796875
283,283,1727709041978,0.06347656,-0.9002075,0.06072998,8.515625,-21.6875,5.78125
284,284,1727709042018,-0.06933594,-0.7449341,0.089538574,8.484375,-6.0625,5.46875
285,285,1727709042058,0.34423828,-0.9849243,0.27972412,-13.09375,-1.671875,2.796875
286,286,1727709042098,-0.010986328,-0.91851807,0.2802124,-10.265625,-5.59375,-6.3125
287,287,1727709042138,-0.091552734,-0.64727783,0.10614014,-3.734375,-14.578125,-6.703125
288,288,1727709042178,0.12231445,-0.5408325,0.19134521,-2.84375,-14.453125,8.671875
289,289,1727709042218,0.06201172,-0.5947876,0.28900146,-19.3125,-3.734375,2.875
290,290,1727709042258,-0.12988281,-0.74346924,0.24456787,-3.203125,2.546875,-1.359375
291,291,1727709042298,0.021484375,-0.82476807,0.2921753,9.671875,-4.9375,5.671875
292,292,1727709042338,0.17504883,-0.79693604,0.2970581,10.34375,-6.5625,2.328125
293,293,1727709042378,-0.013183594,-0.7490845,0.33514404,6.265625,1.640625,-0.078125
294,294,1727709042418,-0.014404297,-1.0042114,0.44378662,-4.40625,6.046875,3.5625
295,295,1727709042458,0.091796875,-1.2810669,0.37078857,3.171875,1.890625,1.3125
296,296,1727709042498,-0.084472656,-1.300354,0.35028076,12.375,-2.671875,-1.125
297,297,1727709042538,-0.028076172,-1.609436,0.30828857,-1.359375,26.453125,17.140625
298,298,1727709042578,0.16113281,-1.3870239,0.29779053,27.078125,-2.953125,-3.171875
299,299,1727709042618,0.33642578,-1.2879028,0.11444092,6.875,10.765625,0.125
300,300,1727709042658,-0.068359375,-0.9656372,0.028503418,14.265625,15.046875,-18.5625
301,301,1727709042698,0.13574219,-0.8208618,0.027526855,11.140625,14.140625,-10.828125
302,302,1727709042738,0.20361328,-0.8484497,0.05609131,10.40625,5.21875,-11.375
303,303,1727709042778,-0.12451172,-0.9402466,0.08270264,-7.0,2.578125,-8.328125
304,304,1727709042818,-0.20581055,-0.7703247,0.08270264,9.0625,11.484375,-9.671875
305,305,1727709042858,-0.042236328,-0.70562744,0.07220459,9.640625,13.015625,4.375
306,306,1727709042898,0.2019043,-0.7659302,0.046081543,-9.390625,12.1875,0.859375
307,307,1727709042938,-0.084472656,-0.75250244,0.043884277,-17.640625,22.390625,-3.984375
308,308,1727709042978,-0.22167969,-0.8484497,0.062194824,4.328125,15.5,-1.46875
309,309,1727709043018,0.0234375,-0.9048462,0.06781006,3.828125,19.359375,2.4375
310,310,1727709043058,-0.16064453,-0.93292236,0.10809326,-13.265625,25.5,-2.3125
311,311,1727709043098,-0.07104492,-1.2529907,0.35638428,1.484375,16.296875,-2.171875
312,312,1727709043138,-0.02319336,-1.3604126,0.13641357,-8.875,12.84375,18.390625
313,313,1727709043178,-0.15356445,-1.421936,0.23406982,-16.6875,19.765625,23.703125
314,314,1727709043218,0.2487793,-1.6748657,0.22723389,-2.78125,-7.421875,10.375
315,315,1727709043258,-0.123291016,-1.076477,-0.17779541,10.0,15.9375,1.328125
316,316,1727709043298,0.27246094,-0.8616333,-0.059631348,2.609375,-0.53125,5.390625
317,317,1727709043338,0.50024414,-0.90631104,0.22064209,-19.71875,29.859375,-16.15625
318,318,1727709043378,-0.35717773,-0.928772,0.15740967,-34.84375,39.0625,-24.140625
319,319,1727709043418,-0.17529297,-0.8987427,0.15618896,-20.65625,37.703125,-20.5625
320,320,1727709043458,0.22436523,-0.8543091,0.094177246,-9.4375,33.03125,-15.59375
321,321,1727709043498,0.13769531,-0.73809814,0.18084717,-10.296875,41.46875,-11.71875
322,322,1727709043538,-0.096191406,-0.77667236,0.1005249,-9.546875,37.8125,-10.6875
323,323,1727709043578,0.034179688,-0.7407837,0.1317749,-0.703125,37.78125,-5.921875
324,324,1727709043618,0.119384766,-0.723938,0.2514038,-2.5625,29.953125,-5.90625
325,325,1727709043658,-0.12597656,-0.7546997,0.35491943,-8.3125,44.203125,-10.21875
326,326,1727709043698,-0.29052734,-0.80596924,0.2909546,5.9375,38.015625,-16.609375
327,327,1727709043738,-0.032958984,-0.94537354,0.29266357,-2.59375,38.4375,-9.84375
328,328,1727709043778,0.03857422,-1.0046997,0.30877686,1.578125,38.90625,-18.484375
329,329,1727709043818,-0.056396484,-0.9710083,0.35784912,-10.0,42.015625,-12.46875
330,330,1727709043858,-0.18066406,-1.0410767,0.38372803,-12.765625,41.65625,-11.875
331,331,1727709043898,-0.22290039,-1.4277954,-0.020324707,-9.78125,36.5,-19.90625
332,332,1727709043938,0.11303711,-1.4966431,0.1605835,3.90625,50.28125,-9.65625
333,333,1727709043978,-0.004638672,-0.7024536,0.15985107,30.5,34.4375,-7.78125
334,334,1727709044018,-0.19677734,-0.7576294,-0.046203613,-8.296875,39.515625,-8.5
335,335,1727709044058,-0.09106445,-1.2278442,0.105407715,-3.265625,27.78125,-1.546875
336,336,1727709044098,-0.09106445,-1.1419067,0.19036865,19.21875,31.796875,-9.78125
337,337,1727709044138,-0.28881836,-0.82818604,0.14837646,34.359375,32.5625,-5.734375
338,338,1727709044178,-0.022216797,-0.7073364,0.1293335,15.90625,18.0,12.984375
339,339,1727709044218,0.047851562,-0.9619751,0.07122803,-2.1875,26.28125,12.40625
340,340,1727709044258,-0.21508789,-1.1028442,0.10662842,4.890625,25.171875,3.390625
341,341,1727709044298,-0.2355957,-0.89190674,0.10247803,6.0,17.6875,10.53125
342,342,1727709044338,0.045166016,-0.8633423,0.17034912,-3.796875,12.828125,9.625
343,343,1727709044378,-0.019042969,-1.0874634,0.17596436,-16.25,17.484375,1.921875
344,344,1727709044418,-0.1965332,-1.3150024,0.17572021,-7.46875,7.46875,4.390625
345,345,1727709044458,-0.07519531,-1.3789673,0.20574951,0.953125,15.78125,17.28125
346,346,1727709044498,0.30566406,-1.9387817,-0.020080566,-14.734375,-3.671875,15.359375
347,347,1727709044538,0.020996094,-1.3079224,-0.16461182,-0.578125,-12.1875,-1.546875
348,348,1727709044578,-0.048339844,-0.82769775,-0.06817627,18.09375,-5.671875,-3.609375
349,349,1727709044618,0.592041,-0.8196411,0.1642456,-10.859375,-8.609375,18.140625
350,350,1727709044658,0.19628906,-1.0564575,0.2975464,-28.46875,5.390625,-3.875
351,351,1727709044698,-0.2319336,-0.99835205,0.047790527,-6.375,-6.71875,-2.625
352,352,1727709044738,0.14672852,-0.5828247,0.14788818,8.359375,-4.1875,2.34375
353,353,1727709044778,0.1928711,-0.6362915,0.18792725,-4.859375,-3.0,3.03125
354,354,1727709044818,-0.044677734,-0.85772705,0.2140503,-12.96875,3.765625,3.484375
355,355,1727709044858,-0.12670898,-0.8904419,0.27435303,-6.46875,2.3125,-2.09375
356,356,1727709044898,0.23168945,-0.9182739,0.2597046,-10.640625,-9.5,1.859375
357,357,1727709044938,0.17871094,-0.77301025,0.22650146,-3.1875,1.25,-1.171875
358,358,1727709044978,-0.049804688,-0.7034302,0.23846436,1.875,-3.65625,-3.21875
359,359,1727709045018,-0.030761719,-0.7583618,0.3151245,-3.390625,2.40625,-2.234375
360,360,1727709045058,0.014892578,-0.87384033,0.36053467,-12.5,8.609375,-7.125
361,361,1727709045098,-0.16845703,-1.0005493,0.44036865,-6.359375,22.625,-18.90625
362,362,1727709045138,-0.111328125,-1.3052368,0.5309448,-19.234375,17.921875,-5.15625
363,363,1727709045178,0.2631836,-2.0,0.58148193,-11.6875,13.78125,11.5625
364,364,1727709045218,-0.037353516,-1.5274048,0.3781128,39.65625,39.640625,-37.859375
365,365,1727709045258,0.57592773,-1.0444946,0.26849365,29.9375,-0.421875,25.15625
366,366,1727709045298,0.2866211,-1.0405884,0.051208496,29.921875,6.625,-10.109375
367,367,1727709045338,-0.07006836,-0.8394165,-0.12530518,14.71875,4.890625,-12.140625
368,368,1727709045378,0.15893555,-0.77008057,-0.08770752,1.703125,16.140625,0.78125
369,369,1727709045418,0.059570312,-0.95562744,0.09295654,-5.234375,13.09375,-12.0
370,370,1727709045458,-0.22827148,-0.9102173,0.17767334,-5.703125,10.828125,-6.21875
371,371,1727709045498,0.1081543,-0.93756104,0.07611084,9.015625,-1.796875,0.875
372,372,1727709045538,0.1105957,-0.9702759,0.11077881,4.75,2.671875,-3.09375
373,373,1727709045578,-0.0068359375,-0.8550415,0.17547607,5.984375,3.890625,-2.59375
374,374,1727709045618,-0.12573242,-0.7373657,0.101745605,4.546875,3.953125,-3.765625
375,375,1727709045658,-0.09033203,-0.7034302,0.11517334,-0.109375,13.078125,-3.796875
376,376,1727709045698,0.01171875,-0.72369385,0.14569092,-7.78125,7.234375,0.921875
377,377,1727709045738,-0.08862305,-0.7583618,0.15960693,-11.328125,12.203125,-8.046875
378,378,1727709045778,-0.23291016,-0.80670166,0.1906128,-11.578125,7.5625,-9.921875
379,379,1727709045818,-0.061279297,-1.0198364,0.20819092,-19.0625,16.359375,-2.703125
380,380,1727709045858,0.07788086,-1.2822876,0.1630249,-12.265625,-0.0625,-5.875
381,381,1727709045898,0.056640625,-1.3132935,0.27435303,-5.546875,-1.234375,3.421875
382,382,1727709045938,0.1328125,-1.5115356,0.19451904,-6.9375,0.90625,10.828125
383,383,1727709045978,0.060546875,-1.817688,0.003112793,10.3125,-13.375,-4.796875
384,384,1727709046018,0.20361328,-0.97857666,-0.10064697,23.390625,-31.109375,5.9375
385,385,1727709046058,0.5666504,-0.72735596,0.14154053,-2.109375,-19.203125,11.234375
386,386,1727709046098,0.03564453,-0.96539307,0.24627686,-16.28125,-9.46875,0.625
387,387,1727709046138,-0.2919922,-0.84576416,0.21234131,-5.234375,-20.953125,0.21875
388,388,1727709046178,0.0024414062,-0.630188,0.2098999,-1.203125,-19.140625,-0.6875
389,389,1727709046218,0.11767578,-0.66412354,0.17938232,-5.84375,-16.84375,4.15625
390,390,1727709046258,-0.029052734,-0.7300415,0.2579956,-8.0,-9.8125,3.453125
391,391,1727709046298,-0.08105469,-0.7337036,0.27679443,-7.8125,-8.84375,-1.734375
392,392,1727709046338,-0.0625,-0.7539673,0.30340576,4.796875,-11.90625,4.078125
393,393,1727709046378,0.010498047,-0.80548096,0.34368896,3.046875,-9.796875,3.640625
394,394,1727709046418,0.07006836,-0.89434814,0.3493042,-8.6875,-2.5,4.21875
395,395,1727709046458,-0.0126953125,-1.0064087,0.4616089,-8.125,2.0,-2.375
396,396,1727709046498,-0.09765625,-1.1572876,0.34539795,-2.765625,1.453125,-7.765625
397,397,1727709046538,0.07006836,-1.4785767,0.07659912,17.1875,-7.546875,12.8125
398,398,1727709046578,0.26513672,-1.8145142,0.4257202,-1.46875,11.40625,2.640625
399,399,1727709046618,-0.27075195,-1.2681274,0.2321167,12.84375,3.78125,-30.375
400,400,1727709046658,-0.057617188,-0.79156494,0.046569824,23.109375,9.5,0.5625
401,401,1727709046698,0.40356445,-0.8862915,0.036315918,1.375,9.359375,11.765625
402,402,1727709046738,0.14111328,-0.98687744,0.15887451,9.734375,-1.640625,-12.96875
403,403,1727709046778,-0.32250977,-0.95758057,0.15130615,6.90625,-0.65625,-5.84375
404,404,1727709046818,-0.17041016,-0.72198486,0.16400146,13.609375,4.328125,-3.84375
405,405,1727709046858,-0.12426758,-0.58966064,0.1293335,10.828125,14.734375,-1.6875
406,406,1727709046898,0.09472656,-0.89263916,0.12200928,-1.140625,10.421875,4.359375
407,407,1727709046938,0.07055664,-0.911438,0.06903076,2.5625,1.734375,2.5
408,408,1727709046978,-0.18115234,-0.71173096,0.10247803,12.359375,6.671875,1.5625
409,409,1727709047018,-0.17675781,-0.7600708,0.12713623,10.03125,3.375,11.609375
410,410,1727709047058,0.021972656,-1.0752563,0.0993042,-4.484375,9.90625,1.859375
411,411,1727709047098,-0.16748047,-1.3291626,0.22454834,0.109375,16.9375,-4.9375
412,412,1727709047138,0.12084961,-1.4934692,0.066589355,-11.140625,0.0625,15.578125
413,413,1727709047178,0.24926758,-1.7861938,0.0026245117,0.46875,0.546875,4.296875
414,414,1727709047218,0.49023438,-1.4666138,0.021911621,1.640625,-14.171875,8.578125
415,415,1727709047258,0.29760742,-0.94537354,0.039245605,-11.703125,-25.0,4.171875
416,416,1727709047298,-0.001953125,-0.93634033,0.1630249,-7.0,-20.421875,-4.375
417,417,1727709047338,-0.014160156,-0.91119385,0.20281982,-7.640625,-7.1875,-9.4375
418,418,1727709047378,-0.038330078,-0.7371216,0.12908936,-6.6875,-5.015625,-10.6875
419,419,1727709047418,0.21411133,-0.6609497,0.19256592,-13.328125,-7.5625,-3.125
420,420,1727709047458,0.068359375,-0.67926025,0.22943115,-0.15625,-10.875,3.890625
421,421,1727709047498,-0.14233398,-0.6692505,0.22625732,-2.59375,-2.65625,1.78125
422,422,1727709047538,-0.1315918,-0.7102661,0.15252686,-0.609375,-4.671875,2.46875
423,423,1727709047578,0.140625,-0.7671509,0.2741089,2.328125,2.59375,3.109375
424,424,1727709047618,0.0390625,-0.8867798,0.24554443,-5.296875,7.265625,4.25
425,425,1727709047658,-0.03173828,-0.9204712,0.2929077,5.53125,9.875,2.828125
426,426,1727709047698,0.056152344,-1.0125122,0.36590576,0.40625,4.6875,2.6875
427,427,1727709047738,0.103271484,-1.0918579,0.3859253,-1.28125,9.328125,-2.34375
428,428,1727709047778,-0.07543945,-1.1704712,0.24359131,13.0,9.078125,-10.40625
429,429,1727709047818,0.28759766,-1.7300415,0.24017334,-20.28125,15.625,18.90625
430,430,1727709047858,-0.09838867,-1.3821411,0.124694824,6.953125,1.78125,-28.90625
431,431,1727709047898,0.072509766,-0.95147705,0.085632324,23.234375,11.59375,-0.890625
432,432,1727709047938,0.38110352,-0.9890747,0.014099121,5.6875,10.3125,5.40625
433,433,1727709047978,0.07861328,-1.0332642,0.06317139,2.8125,5.890625,-13.078125
434,434,1727709048018,-0.19873047,-0.7815552,0.08099365,11.796875,5.328125,-6.078125
435,435,1727709048058,-0.05444336,-0.77667236,0.10418701,4.390625,5.265625,-5.21875
436,436,1727709048098,0.047607422,-0.79815674,0.049743652,12.859375,2.46875,-7.28125
437,437,1727709048138,0.052246094,-0.75860596,0.07684326,10.40625,5.453125,-0.109375
438,438,1727709048178,-0.037597656,-0.81207275,0.061950684,1.453125,-2.703125,0.921875
439,439,1727709048218,-0.067871094,-0.815979,0.098083496,1.46875,-0.578125,3.578125
440,440,1727709048258,-0.11621094,-0.9209595,0.08831787,-8.359375,5.796875,1.875
441,441,1727709048298,-0.17211914,-0.94122314,0.117370605,-9.640625,14.734375,-2.28125
442,442,1727709048338,-0.18945312,-0.8936157,0.17327881,-6.609375,11.6875,-5.203125
443,443,1727709048378,-0.024169922,-1.1499634,0.26385498,-16.75,12.40625,1.609375
444,444,1727709048418,0.03881836,-1.367981,0.3156128,-9.734375,4.375,3.640625
445,445,1727709048458,-0.115722656,-1.5112915,0.23284912,-14.046875,8.484375,10.34375
446,446,1727709048498,0.19140625,-1.6709595,0.07733154,5.578125,-5.8125,3.921875
447,447,1727709048538,0.28588867,-1.2026978,0.0067749023,15.34375,-15.46875,0.875
448,448,1727709048578,0.12084961,-0.86260986,-0.2041626,1.984375,-9.984375,0.96875
449,449,1727709048618,0.30322266,-1.0095825,0.15325928,-8.25,-6.28125,0.65625
450,450,1727709048658,-0.03173828,-0.9685669,0.2987671,-24.71875,-1.921875,-10.171875
451,451,1727709048698,-0.38867188,-0.82647705,0.14422607,-32.953125,5.0,-12.140625
452,452,1727709048738,0.057373047,-0.6860962,0.15618896,-25.0625,-7.1875,-12.21875
453,453,1727709048778,0.1550293,-0.59747314,0.3944702,0.453125,3.984375,-6.890625
454,454,1727709048818,-0.38745117,-0.52178955,0.1305542,4.09375,5.046875,-13.1875
455,455,1727709048858,-0.05859375,-0.70928955,0.22723389,-1.40625,17.71875,-2.9375
456,456,1727709048898,0.12109375,-0.9690552,0.25286865,-9.765625,13.171875,5.328125
457,457,1727709048938,0.20019531,-1.0496216,0.35931396,-5.953125,2.609375,18.859375
458,458,1727709048978,0.0043945312,-0.8093872,0.3632202,9.59375,-0.171875,8.03125
459,459,1727709049018,-0.2043457,-0.8657837,0.49993896,-3.5,14.578125,9.5
460,460,1727709049058,-0.09887695,-1.1248169,0.5429077,-1.0,19.875,5.796875
461,461,1727709049098,-0.2163086,-1.2036743,0.4069214,3.9375,34.78125,-5.765625
462,462,1727709049138,-0.004638672,-1.3513794,0.32318115,15.28125,21.640625,7.421875
463,463,1727709049178,0.11401367,-1.5784302,0.3348999,5.9375,42.078125,8.1875
464,464,1727709049218,-0.122558594,-1.1096802,-0.0025024414,14.34375,27.921875,-23.46875
465,465,1727709049258,-0.057128906,-1.067688,-0.062316895,1.03125,37.03125,-4.21875
466,466,1727709049298,0.095947266,-1.0322876,-0.2510376,17.515625,32.765625,-10.328125
467,467,1727709049338,-0.055664062,-0.89508057,-0.012756348,-0.78125,32.15625,-16.109375
468,468,1727709049378,-0.17749023,-0.8948364,0.03729248,-5.8125,29.78125,-10.0625
469,469,1727709049418,-0.14526367,-0.9644165,0.27191162,-1.59375,28.15625,-5.953125
470,470,1727709049458,-0.08642578,-0.819397,0.047790527,7.78125,32.828125,7.125
471,471,1727709049498,-0.015380859,-0.7493286,0.016296387,4.1875,41.5,-1.375
472,472,1727709049538,-0.12548828,-0.71173096,0.0028686523,-5.328125,49.90625,-14.046875
473,473,1727709049578,-0.26342773,-0.7324829,0.12322998,-8.6875,47.296875,-13.03125
474,474,1727709049618,-0.19750977,-0.7647095,0.11102295,-8.3125,44.671875,-0.6875
475,475,1727709049658,-0.10644531,-0.9221802,0.14666748,-22.828125,37.390625,1.046875
476,476,1727709049698,-0.13256836,-1.085022,0.0914917,-21.671875,42.625,1.453125
477,477,1727709049738,-0.09301758,-1.0698853,0.3678589,-20.359375,26.875,-7.5
478,478,1727709049778,-0.19384766,-1.2451782,0.24066162,-26.59375,18.5625,1.859375
479,479,1727709049818,-0.0925293,-1.4277954,0.26019287,0.765625,19.78125,2.84375
480,480,1727709049858,0.23632812,-1.1592407,0.137146,-12.96875,-9.421875,2.890625
481,481,1727709049898,-0.12695312,-1.0723267,-0.07525635,1.484375,11.359375,-20.625
482,482,1727709049938,0.14160156,-0.77130127,0.12640381,1.90625,19.828125,2.921875
483,483,1727709049978,0.3881836,-1.0435181,0.3456421,-30.46875,20.21875,6.0
484,484,1727709050018,-0.1652832,-1.085022,0.1437378,-5.8125,20.296875,-11.546875
485,485,1727709050058,0.022705078,-0.8328247,0.24090576,5.953125,1.78125,5.203125
486,486,1727709050098,0.19628906,-0.706604,0.31292725,-3.5,12.421875,6.859375
487,487,1727709050138,-0.072021484,-0.91070557,0.29608154,-5.046875,23.0,-2.625
488,488,1727709050178,-0.024658203,-0.9656372,0.3217163,4.0,11.53125,4.53125
489,489,1727709050218,0.11303711,-0.8545532,0.28997803,8.921875,7.953125,5.828125
490,490,1727709050258,0.09692383,-0.8413696,0.36273193,-0.34375,13.125,2.6875
491,491,1727709050298,-0.018554688,-0.9102173,0.36761475,-1.40625,12.125,-1.296875
492,492,1727709050338,-0.076171875,-0.9998169,0.43499756,-2.53125,17.78125,-13.1875
493,493,1727709050378,-0.09814453,-0.9805298,0.3324585,4.84375,17.3125,-14.34375
494,494,1727709050418,0.1574707,-1.2302856,0.28167725,-4.90625,26.84375,8.359375
495,495,1727709050458,0.2722168,-1.7756958,0.44158936,-15.671875,31.28125,14.484375
496,496,1727709050498,-0.078125,-1.4470825,0.22137451,13.796875,4.515625,-27.515625
497,497,1727709050538,0.02368164,-0.833313,0.06414795,38.390625,13.75,-16.265625
498,498,1727709050578,0.26953125,-0.9170532,-0.027893066,11.0625,29.09375,1.359375
499,499,1727709050618,0.19702148,-0.98443604,0.11199951,4.484375,14.078125,-15.046875
500,500,1727709050658,-0.111816406,-0.8911743,0.13128662,2.078125,15.015625,-16.5625
501,501,1727709050698,-0.095947266,-0.7595825,0.13568115,7.4375,8.515625,-6.125
502,502,1727709050738,-0.103027344,-0.6643677,0.13909912,2.09375,19.015625,-3.40625
503,503,1727709050778,-0.059570312,-0.8023071,0.11785889,-6.96875,21.5625,2.28125
504,504,1727709050818,0.15820312,-0.92437744,0.10614014,-5.890625,10.3125,3.375
505,505,1727709050858,-0.07397461,-0.8833618,0.23260498,-11.421875,-5.875,-5.171875
506,506,1727709050898,-0.16601562,-0.7461548,0.20770264,3.203125,13.84375,-8.21875
507,507,1727709050938,-0.16772461,-0.89727783,0.21917725,6.109375,11.59375,-7.078125
508,508,1727709050978,0.018310547,-1.092102,0.2999878,-2.296875,-1.5,3.734375
509,509,1727709051018,-0.072265625,-1.1929321,0.32684326,-9.671875,2.296875,1.109375
510,510,1727709051058,-0.21948242,-1.4534302,0.260437,-1.671875,0.0,3.453125
511,511,1727709051098,0.41845703,-1.7776489,0.11102295,8.84375,-9.21875,22.78125
512,512,1727709051138,0.49047852,-1.7268677,0.22845459,22.484375,-19.234375,-2.40625
513,513,1727709051178,-0.07714844,-0.78448486,-0.20147705,26.609375,-37.734375,12.015625
514,514,1727709051218,0.29101562,-0.69488525,0.050964355,-3.546875,-10.484375,2.171875
515,515,1727709051258,0.23950195,-0.8665161,0.29388428,-25.28125,-14.6875,7.59375
516,516,1727709051298,-0.29785156,-0.8440552,0.28778076,-28.046875,-12.546875,6.203125
517,517,1727709051338,-0.05908203,-0.7637329,0.2177124,-6.0,-9.828125,6.484375
518,518,1727709051378,0.24853516,-0.8154907,0.22796631,2.78125,-13.765625,9.5625
519,519,1727709051418,-0.06591797,-0.73150635,0.2164917,-1.734375,-8.375,1.8125
520,520,1727709051458,-0.03100586,-0.6904907,0.2374878,0.15625,-6.875,3.65625
521,521,1727709051498,0.06201172,-0.7085571,0.3012085,8.171875,-3.375,9.15625
522,522,1727709051538,0.068359375,-0.75909424,0.25115967,2.796875,-1.4375,8.234375
523,523,1727709051578,0.1237793,-0.83599854,0.307312,8.1875,-1.328125,5.171875
524,524,1727709051618,0.1628418,-0.97442627,0.47576904,2.109375,-2.296875,4.65625
525,525,1727709051658,-0.061767578,-1.1026001,0.3805542,0.625,15.890625,-9.40625
526,526,1727709051698,0.040527344,-1.3665161,0.2218628,34.609375,-4.15625,-2.859375
527,527,1727709051738,0.4873047,-2.0,0.41229248,-29.125,23.09375,26.890625
528,528,1727709051778,-0.25024414,-1.125061,0.085632324,16.03125,4.890625,-45.8125
529,529,1727709051818,-0.083496094,-0.7053833,0.042907715,15.390625,30.25,-0.34375
530,530,1727709051858,0.6459961,-1.0986938,-0.10406494,10.90625,14.21875,-1.09375
531,531,1727709051898,0.19482422,-1.0025024,0.078308105,3.40625,0.109375,-24.71875
532,532,1727709051938,-0.2878418,-0.76104736,0.074157715,2.28125,6.671875,-10.453125
533,533,1727709051978,-0.080322266,-0.79400635,0.007751465,14.078125,1.703125,-6.6875
534,534,1727709052018,0.0390625,-0.6712036,0.04144287,13.265625,15.5,-7.296875
535,535,1727709052058,0.0146484375,-0.7959595,0.0446167,-2.1875,12.03125,-0.640625
536,536,1727709052098,0.02368164,-0.8604126,0.07928467,-0.828125,8.71875,5.171875
537,537,1727709052138,-0.08520508,-0.8008423,0.055603027,-2.40625,9.5625,2.75
538,538,1727709052178,-0.087890625,-0.848938,0.10028076,2.9375,15.984375,2.25
539,539,1727709052218,-0.028564453,-0.9668579,0.14837646,8.28125,12.421875,5.171875
540,540,1727709052258,-0.18701172,-1.0796509,0.1329956,-2.046875,22.03125,-0.953125
541,541,1727709052298,-0.22851562,-1.3630981,0.26971436,-17.046875,16.359375,4.640625
542,542,1727709052338,0.0048828125,-1.6558228,0.34979248,-19.40625,13.609375,13.078125
543,543,1727709052378,0.1887207,-1.5354614,-0.14239502,0.109375,1.859375,26.515625
544,544,1727709052418,0.5854492,-1.2268677,-0.054260254,5.15625,-1.078125,-10.640625
545,545,1727709052458,-0.103515625,-0.9006958,-0.23565674,-14.375,-8.421875,-3.0
546,546,1727709052498,0.17602539,-0.90509033,0.055847168,-19.640625,15.875,-16.140625
547,547,1727709052538,-0.041992188,-0.831604,0.15106201,-28.5625,28.9375,-24.59375
548,548,1727709052578,-0.084472656,-0.9365845,0.11053467,-30.609375,23.125,-16.796875
549,549,1727709052618,0.04321289,-0.9133911,0.11199951,-16.953125,28.28125,-21.09375
550,550,1727709052658,0.11376953,-0.81134033,0.19158936,-8.21875,33.5,-15.890625
551,551,1727709052698,-0.09838867,-0.6773071,0.1906128,-8.515625,35.421875,-13.078125
552,552,1727709052738,-0.14404297,-0.70562744,0.20257568,-0.25,39.515625,-10.8125
553,553,1727709052778,0.020507812,-0.73687744,0.20404053,-1.390625,36.5,-1.984375
554,554,1727709052818,-0.030029297,-0.75128174,0.22406006,-5.21875,38.65625,-6.34375
555,555,1727709052858,-0.14648438,-0.7398071,0.35369873,2.390625,42.921875,-13.1875
556,556,1727709052898,-0.16674805,-0.8609009,0.32122803,3.4375,43.015625,-9.21875
557,557,1727709052938,0.0043945312,-1.0220337,0.28900146,-11.984375,42.21875,-9.140625
558,558,1727709052978,-0.17944336,-1.1296997,0.33831787,-1.109375,43.0,-23.71875
559,559,1727709053018,-0.0007324219,-1.2070923,0.6884155,-27.15625,46.171875,-21.625
560,560,1727709053058,-0.7783203,-1.1983032,0.17010498,-30.5625,47.328125,-42.0625
561,561,1727709053098,-0.016601562,-1.7559204,0.06536865,-10.59375,47.40625,-16.21875
562,562,1727709053138,0.2121582,-0.56500244,0.18353271,40.0625,45.5,-31.5
563,563,1727709053178,-0.21264648,-0.4607544,0.051208496,-7.015625,50.453125,-17.5
564,564,1727709053218,-0.1977539,-1.3399048,0.101989746,-3.28125,37.53125,-14.8125
565,565,1727709053258,-0.1616211,-1.2415161,0.2584839,32.625,14.875,-10.125
566,566,1727709053298,-0.3642578,-0.6345825,0.11810303,34.25,30.21875,-7.625
567,567,1727709053338,-0.1928711,-0.7918091,0.06756592,12.359375,34.9375,2.625
568,568,1727709053378,0.014404297,-1.085022,0.1515503,3.53125,27.53125,5.09375
569,569,1727709053418,-0.12963867,-1.0230103,0.22137451,8.09375,18.078125,5.5
570,570,1727709053458,-0.28857422,-0.9429321,0.2321167,1.21875,19.46875,6.234375
571,571,1727709053498,-0.16308594,-0.9439087,0.22137451,1.328125,15.84375,7.625
572,572,1727709053538,-0.12939453,-0.9805298,0.31903076,1.359375,12.046875,5.953125
573,573,1727709053578,-0.16040039,-1.0559692,0.27435303,8.265625,11.09375,9.65625
574,574,1727709053618,-0.107666016,-1.4470825,0.2892456,4.046875,12.4375,28.234375
575,575,1727709053658,0.22802734,-1.8882446,0.16571045,-2.890625,-12.109375,17.5
576,576,1727709053698,0.20751953,-1.604065,0.15081787,18.09375,-14.8125,-9.484375
577,577,1727709053738,-0.10253906,-0.7835083,-0.18511963,5.421875,-38.9375,11.15625
578,578,1727709053778,0.3894043,-0.7979126,0.22528076,-11.921875,1.9375,1.421875
579,579,1727709053818,0.109375,-1.2114868,0.291687,-27.046875,7.109375,-4.453125
580,580,1727709053858,-0.1171875,-1.0359497,0.17572021,-14.234375,-6.640625,0.703125
581,581,1727709053898,0.035888672,-0.64434814,0.168396,1.453125,-4.265625,-4.765625
582,582,1727709053938,-0.036132812,-0.644104,0.24554443,7.203125,1.796875,-5.15625
583,583,1727709053978,0.016357422,-0.68463135,0.24993896,4.390625,4.09375,2.59375
584,584,1727709054018,-0.010009766,-0.5984497,0.1696167,5.25,3.328125,2.0
585,585,1727709054058,-0.0073242188,-0.65631104,0.21331787,1.140625,11.3125,4.65625
586,586,1727709054098,0.0021972656,-0.80718994,0.24163818,7.40625,10.65625,7.5
587,587,1727709054138,0.09399414,-0.9451294,0.2904663,2.5,5.84375,7.640625
588,588,1727709054178,0.026855469,-1.0012817,0.34710693,-0.765625,4.3125,-3.59375
589,589,1727709054218,-0.13671875,-1.0671997,0.31585693,-0.28125,14.953125,-10.984375
590,590,1727709054258,0.14453125,-1.5933228,0.06781006,8.671875,8.125,9.9375
591,591,1727709054298,-0.23828125,-2.0,0.52874756,-12.453125,36.609375,-29.96875
592,592,1727709054338,-0.122558594,-0.5737915,-0.058898926,54.90625,1.203125,-27.640625
593,593,1727709054378,0.4675293,-0.725647,0.003112793,5.53125,13.40625,8.953125
594,594,1727709054418,0.51416016,-1.1626587,0.027770996,3.21875,4.453125,-7.8125
595,595,1727709054458,-0.29125977,-1.0115356,0.109069824,-12.390625,2.375,-14.96875
596,596,1727709054498,-0.25341797,-0.6602173,0.031433105,7.140625,-9.59375,-6.953125
597,597,1727709054538,-0.00048828125,-0.6380005,0.05633545,22.0625,-1.453125,-2.578125
598,598,1727709054578,0.06713867,-0.8286743,0.090026855,-1.59375,-0.953125,-0.5625
599,599,1727709054618,-0.026855469,-0.8274536,0.12249756,-4.46875,-9.515625,1.078125
600,600,1727709054658,-0.15356445,-0.7776489,0.08734131,3.671875,-0.90625,6.921875
601,601,1727709054698,-0.1640625,-0.881897,0.06903076,-1.0,3.34375,7.515625
602,602,1727709054738,-0.1743164,-0.986145,0.13226318,-0.546875,12.890625,4.734375
603,603,1727709054778,0.0031738281,-1.1895142,0.16278076,-5.015625,7.296875,8.609375
604,604,1727709054818,0.024902344,-1.4285278,0.29901123,-5.875,5.84375,2.53125
605,605,1727709054858,-0.09057617,-1.4172974,0.013366699,-17.828125,-0.53125,13.0625
606,606,1727709054898,0.33520508,-1.61969,-0.016662598,4.671875,-11.15625,15.40625
607,607,1727709054938,0.5058594,-1.3145142,0.117370605,8.234375,-21.5625,3.859375
608,608,1727709054978,0.046875,-0.9077759,-0.03717041,-1.75,-13.765625,10.765625
609,609,1727709055018,0.13354492,-0.8821411,0.16864014,-9.34375,-10.25,8.40625
610,610,1727709055058,0.0041503906,-0.84381104,0.21331787,-10.875,-5.21875,-5.40625
611,611,1727709055098,-0.06958008,-0.77911377,0.14422607,-6.28125,1.03125,-7.765625
612,612,1727709055138,0.13061523,-0.7761841,0.097839355,-3.984375,-8.8125,-0.984375
613,613,1727709055178,0.14453125,-0.69366455,0.18133545,-10.84375,-3.09375,2.796875
614,614,1727709055218,-0.0625,-0.7090454,0.26556396,-7.609375,-0.59375,-0.828125
615,615,1727709055258,-0.09033203,-0.8369751,0.23138428,-9.25,1.828125,2.625
616,616,1727709055298,0.084472656,-0.86065674,0.29803467,8.78125,3.078125,4.9375
617,617,1727709055338,0.035888672,-0.8484497,0.27044678,0.46875,3.890625,3.15625
618,618,1727709055378,0.021240234,-0.87579346,0.32781982,-1.953125,3.28125,-8.234375
619,619,1727709055418,-0.087890625,-0.88653564,0.3366089,-8.078125,11.5625,-17.90625
620,620,1727709055458,0.072753906,-1.270813,0.22088623,12.796875,7.34375,-11.578125
621,621,1727709055498,0.5283203,-1.9939575,0.21746826,-28.9375,12.015625,25.390625
622,622,1727709055538,-0.45141602,-1.1272583,0.1762085,4.09375,-8.65625,-57.84375
623,623,1727709055578,0.19335938,-0.96466064,0.044128418,17.109375,13.171875,10.234375
624,624,1727709055618,0.59106445,-1.0945435,0.027770996,14.4375,8.09375,3.296875
625,625,1727709055658,0.032714844,-0.9741821,0.15838623,8.546875,4.140625,-20.984375
626,626,1727709055698,-0.19116211,-0.7654419,0.16546631,10.359375,-8.390625,0.28125
627,627,1727709055738,-0.095703125,-0.7149048,0.07342529,5.15625,-2.359375,-1.171875
628,628,1727709055778,-0.15917969,-0.65704346,0.12908936,11.953125,9.0,-3.78125
629,629,1727709055818,0.028564453,-0.8418579,0.17816162,6.84375,5.953125,6.28125
630,630,1727709055858,-0.02319336,-0.8616333,0.08001709,2.53125,-15.296875,3.921875
631,631,1727709055898,-0.119384766,-0.8352661,0.06512451,2.03125,0.859375,3.828125
632,632,1727709055938,-0.0126953125,-0.862854,0.20404053,-0.515625,4.78125,9.578125
633,633,1727709055978,-0.118896484,-1.0637817,0.1605835,-0.3125,9.390625,4.53125
634,634,1727709056018,-0.10107422,-1.3296509,0.20697021,6.828125,3.109375,1.234375
635,635,1727709056058,0.08105469,-1.5918579,0.11590576,-19.296875,-10.921875,16.171875
636,636,1727709056098,0.3474121,-1.9180298,0.10394287,15.625,-2.296875,5.8125
637,637,1727709056138,0.20703125,-1.0847778,-0.10235596,36.796875,-24.78125,11.78125
638,638,1727709056178,0.25,-0.7432251,0.030212402,3.546875,-12.875,20.5625
639,639,1727709056218,0.2487793,-1.1216431,0.15130615,-7.671875,0.515625,-3.09375
640,640,1727709056258,0.04272461,-0.9685669,0.16278076,-26.5,-0.75,-1.359375
641,641,1727709056298,-0.09082031,-0.6851196,0.1293335,-26.265625,2.734375,-13.3125
642,642,1727709056338,0.10522461,-0.71343994,0.14764404,-5.640625,-11.203125,-6.859375
643,643,1727709056378,0.20996094,-0.61431885,0.113220215,-2.65625,-14.34375,5.40625
644,644,1727709056418,0.08642578,-0.6963501,0.16986084,-16.78125,-6.046875,-2.03125
645,645,1727709056458,-0.13842773,-0.76885986,0.26190186,-10.71875,-0.984375,-2.90625
646,646,1727709056498,0.0029296875,-0.81378174,0.26971436,-0.609375,-7.9375,5.671875
647,647,1727709056538,0.05810547,-0.81427,0.1774292,6.1875,-7.0625,11.390625
648,648,1727709056578,0.30786133,-0.8845825,0.3847046,10.78125,5.796875,6.84375
649,649,1727709056618,0.064697266,-1.1463013,0.40472412,6.375,17.328125,-12.5
650,650,1727709056658,-0.15698242,-1.3984985,0.07513428,16.515625,2.921875,-4.109375
651,651,1727709056698,0.3010254,-2.0,0.2321167,-21.0625,14.6875,6.625
652,652,1727709056738,-0.21875,-1.1948853,0.09173584,12.859375,24.9375,-40.796875
653,653,1727709056778,0.060302734,-0.8648071,0.09197998,-4.3125,23.453125,4.328125
654,654,1727709056818,0.54956055,-1.006897,-0.12286377,11.328125,5.4375,4.984375
655,655,1727709056858,0.043701172,-0.92633057,0.08709717,7.109375,-1.5625,-20.078125
656,656,1727709056898,-0.17797852,-0.82940674,0.066589355,12.421875,-2.4375,-7.078125
657,657,1727709056938,-0.0078125,-0.7522583,0.04949951,7.4375,-5.859375,-3.28125
658,658,1727709056978,-0.051513672,-0.62091064,0.07318115,1.828125,3.390625,-0.921875
659,659,1727709057018,-0.07910156,-0.82354736,0.030456543,12.484375,17.59375,1.375
660,660,1727709057058,-0.08251953,-0.9092407,0.16888428,5.734375,8.1875,2.203125
661,661,1727709057098,-0.12402344,-0.81817627,-0.014221191,-3.71875,-1.578125,9.234375
662,662,1727709057138,0.107421875,-0.9356079,0.05706787,-7.453125,7.171875,5.21875
663,663,1727709057178,-0.09057617,-1.0574341,0.13885498,-4.296875,7.78125,-3.53125
664,664,1727709057218,-0.23876953,-1.1426392,0.17132568,-10.53125,4.28125,-6.171875
665,665,1727709057258,-0.10522461,-1.2454224,0.04852295,-13.140625,0.96875,3.78125
666,666,1727709057298,0.092285156,-1.5193481,0.14154053,-31.671875,12.9375,12.03125
667,667,1727709057338,0.5251465,-1.5559692,0.06463623,16.859375,-34.09375,9.453125
668,668,1727709057378,0.34228516,-0.8311157,-0.05328369,-5.84375,-22.515625,1.765625
669,669,1727709057418,-0.24023438,-0.8892212,0.05731201,-9.5,-6.484375,-5.421875
670,670,1727709057458,0.18798828,-0.97857666,0.168396,-19.46875,-9.53125,-1.84375
671,671,1727709057498,-0.1081543,-0.8430786,0.18328857,-11.859375,4.6875,-13.484375
672,672,1727709057538,0.079589844,-0.8513794,0.12982178,-16.40625,-5.234375,-5.75
673,673,1727709057578,0.22290039,-0.8081665,0.20574951,-7.546875,-7.46875,3.203125
674,674,1727709057618,0.014404297,-0.7793579,0.19207764,-4.265625,-2.75,1.46875
675,675,1727709057658,-0.17163086,-0.75860596,0.16229248,13.4375,-2.421875,5.390625
676,676,1727709057698,-0.021728516,-0.786438,0.117614746,13.515625,-6.09375,10.609375
677,677,1727709057738,0.2849121,-0.80670166,0.37713623,2.65625,0.671875,9.921875
678,678,1727709057778,-0.18115234,-0.91070557,0.20379639,-4.953125,3.375,10.984375
679,679,1727709057818,-0.18579102,-0.89556885,0.2501831,19.25,5.40625,7.265625
680,680,1727709057858,0.14086914,-0.9727173,0.36712646,7.171875,5.1875,4.015625
681,681,1727709057898,0.22241211,-1.1660767,0.29315186,11.75,-1.21875,-3.21875
682,682,1727709057938,0.35131836,-1.5249634,0.14349365,-2.859375,-0.328125,18.484375
683,683,1727709057978,-0.07446289,-1.9805298,0.41864014,0.84375,-5.3125,-3.171875
684,684,1727709058018,0.14477539,-0.87872314,0.039245605,36.234375,-6.25,-9.015625
685,685,1727709058058,0.12109375,-0.67974854,0.031433105,2.5625,21.40625,7.4375
686,686,1727709058098,0.27246094,-1.1231079,0.042175293,-4.5625,1.671875,-9.484375
687,687,1727709058138,-0.06201172,-0.9846802,0.08758545,-15.40625,-0.390625,-4.640625
688,688,1727709058178,-0.10205078,-0.803772,0.1437378,-5.890625,13.890625,-4.296875
689,689,1727709058218,0.00390625,-0.7698364,0.16009521,7.328125,0.296875,-12.4375
690,690,1727709058258,0.1303711,-0.862854,0.16790771,4.28125,11.25,-5.921875
691,691,1727709058298,0.068115234,-0.8882446,0.19451904,6.734375,4.890625,-5.421875
692,692,1727709058338,0.017089844,-0.81744385,0.07684326,-8.578125,3.4375,-0.765625
693,693,1727709058378,-0.171875,-0.7437134,0.12249756,-1.265625,0.375,-4.765625
694,694,1727709058418,-0.0234375,-0.7930298,0.086364746,6.296875,10.21875,-2.4375
695,695,1727709058458,0.024169922,-0.99102783,0.18060303,-6.296875,15.4375,1.0625
696,696,1727709058498,-0.20776367,-1.0740356,0.15692139,-15.453125,10.671875,-4.828125
697,697,1727709058538,-0.022460938,-1.125061,0.26654053,-5.421875,11.34375,-1.828125
698,698,1727709058578,-0.016113281,-1.2241821,0.28045654,-13.15625,8.765625,1.625
699,699,1727709058618,-0.15625,-1.2244263,0.41864014,0.421875,2.65625,-5.0
700,700,1727709058658,-0.23754883,-1.1936646,0.19793701,-9.640625,12.078125,8.140625
701,701,1727709058698,-0.014404297,-1.3567505,0.030456543,-9.859375,10.8125,24.03125
702,702,1727709058738,0.4091797,-1.4954224,0.05731201,9.375,1.5,-6.6875
703,703,1727709058778,-0.21655273,-1.109436,-0.20343018,1.828125,4.71875,5.453125
704,704,1727709058818,0.27685547,-0.8335571,0.035339355,-6.25,9.859375,2.03125
705,705,1727709058858,0.09887695,-0.78619385,0.05316162,-24.3125,28.21875,-11.75
706,706,1727709058898,-0.08081055,-0.8855591,0.13934326,-20.609375,33.765625,-21.84375
707,707,1727709058938,-0.0021972656,-0.8843384,0.16229248,-9.40625,32.28125,-17.109375
708,708,1727709058978,0.032714844,-0.93414307,0.17816162,1.640625,34.34375,-21.40625
709,709,1727709059018,-0.14501953,-0.85479736,0.04437256,-11.671875,40.734375,-13.125
710,710,1727709059058,0.07836914,-0.77130127,0.13885498,-9.140625,54.6875,-10.671875
711,711,1727709059098,-0.049316406,-0.87286377,0.13934326,-11.21875,49.265625,-11.109375
712,712,1727709059138,0.08081055,-0.9356079,0.19476318,-10.734375,43.34375,-2.90625
713,713,1727709059178,-0.0007324219,-0.8284302,0.24066162,-10.5625,45.890625,-4.78125
714,714,1727709059218,-0.1472168,-0.88165283,0.2514038,-7.546875,52.21875,-4.203125
715,715,1727709059258,-0.028076172,-0.9717407,0.26141357,2.28125,38.75,4.640625
716,716,1727709059298,0.0036621094,-0.9758911,0.29437256,-7.9375,44.046875,1.3125
717,717,1727709059338,-0.23217773,-0.9180298,0.30926514,-2.71875,39.390625,-16.890625
718,718,1727709059378,-0.010986328,-0.98883057,0.3834839,0.046875,44.25,-11.84375
719,719,1727709059418,-0.10424805,-1.0569458,0.35125732,-14.859375,39.859375,-14.765625
720,720,1727709059458,-0.044433594,-1.0957642,0.33587646,-1.421875,34.203125,-10.828125
721,721,1727709059498,0.03564453,-1.5078735,0.26605225,-21.234375,37.109375,2.78125
722,722,1727709059538,0.18334961,-1.5237427,0.24163818,6.609375,25.6875,-16.5625
723,723,1727709059578,0.1784668,-1.092102,0.0602417,24.640625,12.84375,-11.28125
724,724,1727709059618,0.20654297,-0.9595337,-0.09674072,14.46875,33.53125,-0.078125
725,725,1727709059658,0.05078125,-1.0598755,0.113708496,-3.3125,15.078125,-6.890625
726,726,1727709059698,-0.016845703,-0.9649048,0.1630249,8.296875,13.328125,-7.5
727,727,1727709059738,-0.048339844,-0.7307739,0.13739014,16.75,21.203125,-2.671875
728,728,1727709059778,0.034179688,-0.7041626,0.13739014,10.109375,18.21875,-2.59375
729,729,1727709059818,-0.010253906,-0.70977783,0.08074951,6.9375,14.5,-2.265625
730,730,1727709059858,0.004638672,-0.8870239,0.1005249,7.421875,16.03125,0.65625
731,731,1727709059898,-0.09301758,-0.85284424,0.08831787,0.265625,12.375,3.359375
732,732,1727709059938,-0.10913086,-0.82940674,0.113708496,4.25,21.84375,-2.1875
733,733,1727709059978,0.043701172,-0.9939575,0.13372803,0.828125,19.546875,2.078125
734,734,1727709060018,-0.0925293,-1.0662231,0.18499756,-7.640625,26.15625,-3.8125
735,735,1727709060058,-0.08691406,-0.91119385,0.24920654,-5.609375,16.890625,-5.8125
736,736,1727709060098,-0.22875977,-1.0440063,0.23602295,-4.984375,16.453125,-5.890625
737,737,1727709060138,-0.12158203,-1.2991333,0.17669678,-12.453125,21.6875,8.0
738,738,1727709060178,0.58251953,-1.8154907,0.18841553,10.96875,1.9375,13.546875
739,739,1727709060218,0.1665039,-1.5813599,0.050964355,0.78125,-0.703125,-2.71875
740,740,1727709060258,-0.021728516,-0.96466064,-0.07501221,1.828125,-25.890625,16.75
741,741,1727709060298,0.7397461,-0.89923096,0.16448975,5.625,-3.28125,5.78125
742,742,1727709060338,-0.0041503906,-1.0337524,0.15740967,-15.671875,-2.75,-11.515625
743,743,1727709060378,-0.083740234,-0.89508057,0.13470459,-3.734375,-12.25,1.875
744,744,1727709060418,0.13012695,-0.61309814,0.14178467,-6.28125,-5.71875,2.578125
745,745,1727709060458,0.092041016,-0.68707275,0.20550537,-13.75,-4.0,-1.984375
746,746,1727709060498,0.056396484,-0.7312622,0.17718506,-0.25,-8.96875,2.78125
747,747,1727709060538,0.08642578,-0.71710205,0.22698975,11.953125,-8.296875,4.359375
748,748,1727709060578,0.033203125,-0.7427368,0.14935303,15.84375,0.3125,5.390625
749,749,1727709060618,0.08520508,-0.73809814,0.26776123,4.328125,6.90625,4.890625
750,750,1727709060658,0.036621094,-0.92633057,0.29486084,7.515625,5.203125,5.15625
751,751,1727709060698,0.056396484,-0.9470825,0.26239014,10.859375,-1.953125,2.859375
752,752,1727709060738,0.0871582,-0.9714966,0.36151123,3.265625,6.640625,-5.515625
753,753,1727709060778,-0.09033203,-1.0911255,0.009216309,11.421875,9.734375,-7.625
754,754,1727709060818,0.58032227,-1.5757446,-0.03643799,3.4375,0.3125,19.3125
755,755,1727709060858,-0.27441406,-1.9214478,0.5043335,-8.65625,19.84375,-31.5
756,756,1727709060898,-0.37231445,-0.8164673,0.009216309,45.4375,9.953125,-22.984375
757,757,1727709060938,0.5258789,-0.8140259,-0.06427002,1.46875,23.34375,13.546875
758,758,1727709060978,0.4736328,-1.0916138,-0.020812988,0.015625,19.328125,-10.96875
759,759,1727709061018,-0.25073242,-0.95928955,0.057556152,8.703125,-0.90625,-22.53125
