,Unnamed: 0,timestamp,accel_x,accel_y,accel_z,gyro_x,gyro_y,gyro_z
0,0,1727989343329,0.17895508,-0.75006104,-0.13922119,3.84375,-33.984375,-1.40625
1,1,1727989343369,0.17700195,-0.74542236,-0.18878174,-9.0,-35.21875,-11.296875
2,2,1727989343409,0.15625,-0.6121216,-0.0012817383,15.5625,-29.1875,-5.78125
3,3,1727989343449,0.0068359375,-0.61846924,-0.009338379,0.9375,-27.0625,-6.03125
4,4,1727989343489,-0.041503906,-0.644104,-0.10772705,-9.1875,-24.0625,-9.546875
5,5,1727989343529,-0.018554688,-0.7210083,-0.04473877,0.71875,-9.625,-7.65625
6,6,1727989343569,0.03564453,-0.78253174,0.0602417,-7.875,-6.46875,-9.734375
7,7,1727989343609,0.14135742,-1.0239868,0.07098389,5.359375,-10.640625,-4.40625
8,8,1727989343649,0.09667969,-1.1394653,0.05267334,4.0,-4.609375,0.796875
9,9,1727989343689,-0.04296875,-1.2022095,-0.026428223,6.78125,-1.3125,-7.546875
10,10,1727989343729,-0.025390625,-1.2437134,-0.19415283,36.390625,17.984375,-7.96875
11,11,1727989343769,0.30639648,-1.6065063,-0.47686768,8.265625,-4.625,-17.078125
12,12,1727989343809,0.1381836,-1.6401978,-0.3562622,10.125,20.921875,-16.59375
13,13,1727989343849,-0.107910156,-1.0303345,-0.48199463,9.484375,34.796875,11.625
14,14,1727989343889,0.031982422,-0.8945923,-0.5654907,-11.203125,45.40625,-4.5625
15,15,1727989343929,0.03930664,-1.0579224,-0.2420044,-2.0,37.25,-10.46875
16,16,1727989343969,-0.057861328,-0.93634033,-0.124816895,12.09375,34.875,11.296875
17,17,1727989344009,-0.057373047,-0.5952759,-0.16217041,7.46875,30.75,10.015625
18,18,1727989344049,-0.07543945,-0.38653564,-0.18536377,3.6875,34.578125,6.578125
19,19,1727989344089,0.036376953,-0.4512329,-0.19073486,-0.296875,22.890625,12.078125
20,20,1727989344129,0.08227539,-0.5767212,-0.1675415,-7.359375,6.453125,10.796875
21,21,1727989344169,-0.042236328,-0.7324829,-0.10821533,0.96875,1.59375,6.609375
22,22,1727989344209,-0.2788086,-1.2930298,-0.21514893,12.5,3.171875,-2.484375
23,23,1727989344249,-0.19482422,-1.5715942,-0.35894775,-1.265625,-3.65625,-0.890625
24,24,1727989344289,0.1340332,-1.2647095,-0.35650635,6.953125,2.734375,17.625
25,25,1727989344329,0.099853516,-1.2869263,-0.6096802,-8.546875,-25.109375,24.828125
26,26,1727989344369,0.72143555,-1.4155884,-0.58013916,2.953125,-18.984375,-0.78125
27,27,1727989344409,0.42578125,-0.98150635,-0.4216919,9.34375,-26.4375,21.234375
28,28,1727989344449,0.16625977,-0.8970337,-0.35601807,0.15625,-22.375,15.890625
29,29,1727989344489,0.36523438,-0.82037354,-0.14556885,6.84375,-35.53125,-4.5
30,30,1727989344529,0.14501953,-0.9036255,-0.19122314,13.15625,-38.390625,-6.984375
31,31,1727989344569,0.038085938,-0.737854,-0.23077393,23.46875,-25.5,-10.359375
32,32,1727989344609,0.14501953,-0.47369385,-0.19561768,52.65625,-10.921875,-8.5
33,33,1727989344649,0.036865234,-0.50250244,-0.11016846,65.859375,-0.78125,-7.421875
34,34,1727989344689,-0.07495117,-0.4570923,-0.19903564,15.890625,-2.171875,-13.859375
35,35,1727989344729,-0.03515625,-0.4746704,-0.33624268,-16.828125,-13.578125,-18.4375
36,36,1727989344769,0.14526367,-0.8208618,-0.2107544,-44.609375,-20.1875,-15.46875
37,37,1727989344809,0.26245117,-1.4710083,0.17645264,-33.859375,-21.28125,-28.75
38,38,1727989344849,0.016113281,-1.3059692,-0.18585205,19.875,10.5625,-13.734375
39,39,1727989344889,-0.05053711,-0.89068604,-0.6939087,23.515625,9.515625,-0.984375
40,40,1727989344929,0.19604492,-1.1067505,-0.84625244,-3.53125,2.8125,-22.59375
41,41,1727989344969,0.19628906,-1.5862427,-0.6519165,-2.03125,34.734375,-24.140625
42,42,1727989345009,-0.059326172,-1.1260376,-0.75201416,-12.5,36.25,5.40625
43,43,1727989345049,-0.036132812,-0.9788208,-0.48760986,-31.328125,17.765625,-12.625
44,44,1727989345089,-0.048828125,-0.8858032,-0.3892212,5.515625,18.453125,2.015625
45,45,1727989345129,-0.08862305,-0.8687134,-0.31793213,-5.84375,18.40625,14.015625
46,46,1727989345169,-0.111083984,-0.6621704,-0.26593018,-11.515625,17.78125,6.265625
47,47,1727989345209,-0.2084961,-0.56134033,-0.26519775,-25.0,13.828125,4.453125
48,48,1727989345249,-0.13427734,-0.6189575,-0.15386963,-19.796875,27.0625,0.78125
49,49,1727989345289,-0.015136719,-0.6856079,-0.13873291,-11.3125,22.515625,1.8125
50,50,1727989345329,0.024414062,-0.74176025,-0.121154785,-14.25,12.875,4.90625
51,51,1727989345369,-0.043701172,-0.6699829,-0.12677002,-19.015625,10.546875,10.71875
52,52,1727989345409,-0.10595703,-0.64923096,-0.14849854,-8.171875,0.1875,13.0
53,53,1727989345449,-0.06616211,-1.0581665,-0.17486572,18.03125,3.796875,2.40625
54,54,1727989345489,-0.068603516,-1.5708618,-0.2571411,16.859375,-11.59375,3.8125
55,55,1727989345529,-0.09277344,-1.7481079,-0.38067627,-14.53125,-5.25,20.15625
56,56,1727989345569,0.83813477,-1.5930786,-0.34088135,10.15625,5.265625,46.9375
57,57,1727989345609,0.06274414,-1.22052,-0.66973877,1.375,-48.296875,20.109375
58,58,1727989345649,0.027832031,-0.8755493,-0.53985596,0.640625,-18.4375,1.15625
59,59,1727989345689,0.31640625,-0.7827759,-0.19293213,-6.328125,-13.234375,-12.421875
60,60,1727989345729,0.43237305,-1.0745239,0.1642456,-1.875,-27.203125,-8.171875
61,61,1727989345769,0.12573242,-0.8999634,-0.04522705,3.21875,-37.59375,3.59375
62,62,1727989345809,0.037109375,-0.53302,-0.1116333,1.0,-37.875,-2.015625
63,63,1727989345849,-0.012451172,-0.3411255,-0.12530518,4.84375,-27.90625,-8.640625
64,64,1727989345889,-0.024169922,-0.4631958,-0.041809082,8.265625,-20.984375,-14.375
65,65,1727989345929,-0.036376953,-0.69317627,-0.028381348,1.015625,-17.40625,-13.09375
66,66,1727989345969,0.037353516,-0.75372314,0.014343262,-7.0,-13.828125,-12.625
67,67,1727989346009,-0.06567383,-0.87994385,0.049743652,3.140625,4.796875,-8.546875
68,68,1727989346049,0.07055664,-1.163147,-0.08648682,-0.015625,-1.28125,-15.953125
69,69,1727989346089,0.25048828,-1.2942505,-0.17242432,3.015625,7.203125,-22.71875
70,70,1727989346129,0.14648438,-1.4714966,-0.61309814,4.9375,-22.859375,-9.671875
71,71,1727989346169,-0.021972656,-1.6328735,-0.5166626,9.421875,23.984375,-3.125
72,72,1727989346209,-0.055664062,-1.159729,-0.5010376,10.5,17.0625,-1.015625
73,73,1727989346249,0.11376953,-0.909729,-0.42144775,-0.578125,34.8125,4.203125
74,74,1727989346289,-0.1694336,-1.0286255,-0.3735962,0.953125,45.140625,-3.15625
75,75,1727989346329,-0.079589844,-0.93829346,-0.17340088,8.40625,38.546875,3.328125
76,76,1727989346369,-0.052978516,-0.76763916,-0.054748535,13.265625,34.828125,18.21875
77,77,1727989346409,-0.11767578,-0.55352783,-0.15460205,-10.71875,37.546875,12.40625
78,78,1727989346449,-0.12890625,-0.5432739,-0.21734619,-14.453125,34.109375,3.640625
79,79,1727989346489,-0.018310547,-0.6890259,-0.12774658,-2.171875,26.953125,5.328125
80,80,1727989346529,0.09008789,-0.68170166,-0.14361572,-5.46875,1.90625,11.171875
81,81,1727989346569,0.04711914,-0.7710571,-0.17388916,-14.171875,5.15625,11.8125
82,82,1727989346609,-0.20922852,-0.9859009,-0.019836426,-15.296875,-4.6875,7.5
83,83,1727989346649,-0.15063477,-1.2315063,-0.18487549,-9.234375,-14.453125,2.75
84,84,1727989346689,0.2199707,-1.3364868,-0.46221924,13.0,-25.609375,15.234375
85,85,1727989346729,0.54785156,-1.4651489,-0.46832275,3.125,-14.640625,26.84375
86,86,1727989346769,0.6833496,-1.3377075,-0.54229736,4.890625,-22.921875,20.15625
87,87,1727989346809,0.13427734,-1.0928345,-0.21759033,9.765625,-8.15625,18.25
88,88,1727989346849,0.19433594,-0.8345337,-0.24420166,6.671875,-21.546875,1.890625
89,89,1727989346889,0.23022461,-0.7854614,-0.14361572,7.046875,-23.734375,-1.234375
90,90,1727989346929,0.1899414,-0.8772583,-0.15802002,9.25,-24.046875,-9.296875
91,91,1727989346969,0.22802734,-0.7461548,-0.06573486,16.03125,-12.890625,-9.046875
92,92,1727989347009,0.15722656,-0.54522705,-0.032043457,2.9375,-24.9375,-6.828125
93,93,1727989347049,0.05493164,-0.57110596,-0.11065674,-1.34375,-27.3125,-10.65625
94,94,1727989347089,0.0637207,-0.6091919,-0.07086182,-5.09375,-28.21875,-11.421875
95,95,1727989347129,0.21728516,-0.74468994,-0.0491333,-2.046875,-35.140625,-4.78125
96,96,1727989347169,0.13867188,-0.83917236,0.03338623,2.15625,-12.421875,-4.421875
97,97,1727989347209,-0.11450195,-1.0349731,-0.074279785,-1.8125,5.328125,-5.765625
98,98,1727989347249,-0.119628906,-1.2993774,-0.18756104,14.890625,15.390625,-11.59375
99,99,1727989347289,0.1262207,-1.2859497,-0.24884033,40.53125,27.625,-7.3125
100,100,1727989347329,0.40551758,-1.4338989,-0.63067627,17.34375,-3.078125,-18.203125
101,101,1727989347369,0.09057617,-1.4797974,-0.53009033,9.953125,32.21875,-8.109375
102,102,1727989347409,0.2043457,-1.1721802,-0.5339966,-1.703125,45.1875,-0.453125
103,103,1727989347449,0.0017089844,-0.9216919,-0.46539307,-7.015625,31.4375,-4.40625
104,104,1727989347489,-0.13085938,-0.8086548,-0.33917236,-6.109375,24.34375,-6.03125
105,105,1727989347529,-0.107910156,-0.815979,-0.29522705,-10.6875,21.015625,-0.390625
106,106,1727989347569,-0.041503906,-0.815979,-0.2810669,-1.296875,26.375,-1.28125
107,107,1727989347609,-0.05126953,-0.5960083,-0.18023682,-2.578125,43.40625,9.375
108,108,1727989347649,0.059326172,-0.5310669,-0.15509033,7.40625,40.96875,19.0
109,109,1727989347689,0.06665039,-0.56915283,-0.1873169,0.078125,9.953125,21.5
110,110,1727989347729,-0.027832031,-0.7485962,-0.17608643,-12.3125,-5.25,14.890625
111,111,1727989347769,-0.09375,-1.0518188,-0.25665283,-13.84375,-16.75,1.4375
112,112,1727989347809,0.038085938,-1.2910767,-0.19049072,5.859375,-6.484375,7.1875
113,113,1727989347849,-0.14331055,-1.3862915,-0.1182251,-2.265625,-13.96875,11.9375
114,114,1727989347889,-0.12426758,-0.9949341,-0.5901489,-12.6875,-0.9375,17.1875
115,115,1727989347929,0.022460938,-1.0286255,-0.90216064,-9.390625,-45.296875,-0.1875
116,116,1727989347969,1.4326172,-1.7261353,-0.24908447,12.703125,36.078125,-12.453125
117,117,1727989348009,0.40844727,-0.99957275,-0.18634033,-5.921875,-43.5625,34.8125
118,118,1727989348049,0.009765625,-0.81988525,-0.3267212,12.453125,-26.6875,11.5
119,119,1727989348089,0.05126953,-0.68463135,-0.26104736,11.8125,-32.828125,-9.09375
120,120,1727989348129,0.1977539,-0.7546997,-0.19610596,5.6875,-13.390625,-12.9375
121,121,1727989348169,0.28881836,-0.784729,-0.06719971,12.25,-6.09375,-9.8125
122,122,1727989348209,0.17773438,-0.57818604,-0.069885254,16.890625,-22.296875,-2.28125
123,123,1727989348249,0.0625,-0.4685669,-0.1560669,-1.59375,-35.734375,-5.703125
124,124,1727989348289,0.0041503906,-0.5928345,-0.10650635,0.65625,-18.046875,-12.984375
125,125,1727989348329,0.037109375,-0.6878052,-0.04937744,-11.015625,-11.96875,-12.171875
126,126,1727989348369,0.13232422,-0.84869385,-0.078186035,-15.109375,-6.875,-10.4375
127,127,1727989348409,0.076171875,-1.0881958,-0.08843994,4.890625,-7.5,-8.421875
128,128,1727989348449,-0.0053710938,-1.5820923,-0.078430176,23.1875,3.3125,-12.703125
129,129,1727989348489,-0.008056641,-1.1846313,-0.253479,31.5625,24.0625,-7.78125
130,130,1727989348529,0.19506836,-1.2398071,-0.68585205,48.484375,21.828125,-20.1875
131,131,1727989348569,0.3959961,-1.4849243,-0.7210083,0.890625,33.28125,-22.453125
132,132,1727989348609,0.32763672,-1.3320923,-0.51934814,-1.765625,49.03125,15.40625
133,133,1727989348649,-0.28076172,-0.94000244,-0.54034424,-1.578125,25.890625,-2.609375
134,134,1727989348689,-0.39794922,-0.79937744,-0.39190674,-8.1875,32.484375,-6.953125
135,135,1727989348729,-0.009521484,-0.74298096,-0.3394165,0.0,49.921875,11.421875
136,136,1727989348769,0.14501953,-0.62872314,-0.26885986,-2.46875,42.421875,17.078125
137,137,1727989348809,-0.0146484375,-0.5042114,-0.22442627,-8.921875,25.28125,12.390625
138,138,1727989348849,-0.09106445,-0.4661255,-0.1716919,-4.5625,20.890625,11.984375
139,139,1727989348889,-0.040527344,-0.6746216,-0.17193604,-25.515625,10.71875,4.265625
140,140,1727989348929,0.016357422,-0.8621216,-0.1482544,-33.578125,9.09375,-3.1875
141,141,1727989348969,0.021728516,-0.9055786,-0.27520752,-3.734375,-5.234375,5.71875
142,142,1727989349009,-0.11035156,-1.0484009,-0.2774048,7.296875,-4.890625,10.390625
143,143,1727989349049,-0.27685547,-1.145813,-0.18682861,-2.953125,-12.90625,3.359375
144,144,1727989349089,-0.08325195,-1.1919556,-0.37628174,5.65625,-13.796875,2.625
145,145,1727989349129,0.24633789,-1.5396118,-0.47003174,-13.828125,-1.078125,18.296875
146,146,1727989349169,0.9675293,-1.6506958,-0.51885986,-8.90625,-27.828125,41.703125
147,147,1727989349209,0.22631836,-1.1362915,-0.44708252,-1.640625,-45.859375,29.609375
148,148,1727989349249,-0.12011719,-0.95562744,-0.42218018,-12.46875,-37.734375,0.609375
149,149,1727989349289,0.28149414,-0.866272,-0.06719971,2.625,-17.5,-8.359375
150,150,1727989349329,0.25097656,-0.99420166,-0.031555176,5.5,-31.375,-5.546875
151,151,1727989349369,0.1784668,-0.73883057,-0.0256958,4.65625,-30.515625,0.921875
152,152,1727989349409,0.12402344,-0.4763794,-0.014709473,5.34375,-35.46875,1.5625
153,153,1727989349449,-0.022705078,-0.34649658,-0.17144775,-8.15625,-40.171875,-12.953125
154,154,1727989349489,-0.055419922,-0.4397583,-0.0803833,6.75,-26.390625,-19.5625
155,155,1727989349529,0.072509766,-0.65289307,0.01727295,2.265625,-23.40625,-14.546875
156,156,1727989349569,0.13305664,-0.7749634,0.16473389,1.78125,-14.0625,-8.46875
157,157,1727989349609,0.032714844,-0.7319946,0.085632324,4.625,-11.453125,-7.796875
158,158,1727989349649,-0.072021484,-0.8804321,0.16937256,-3.75,-6.265625,-8.015625
159,159,1727989349689,-0.08227539,-1.5383911,0.043395996,30.953125,4.4375,-10.453125
160,160,1727989349729,0.11816406,-1.5422974,-0.039123535,53.90625,0.171875,2.390625
161,161,1727989349769,-0.012939453,-1.3640747,-0.6470337,22.296875,-9.0,-21.203125
162,162,1727989349809,0.2878418,-1.5559692,-1.0825806,33.265625,44.890625,-7.453125
163,163,1727989349849,0.8444824,-1.2857056,-0.6799927,18.90625,32.140625,7.328125
164,164,1727989349889,0.43115234,-0.8694458,-0.37091064,-13.09375,27.90625,9.59375
165,165,1727989349929,-0.22851562,-0.7744751,-0.5178833,-23.96875,0.640625,3.34375
166,166,1727989349969,-0.5407715,-0.7271118,-0.38775635,-15.609375,20.390625,-17.921875
167,167,1727989350009,0.004638672,-0.68463135,-0.28936768,-14.859375,27.9375,-29.140625
168,168,1727989350049,0.08496094,-0.6851196,-0.22589111,-24.21875,27.46875,-23.859375
169,169,1727989350089,-0.046142578,-0.77593994,-0.3118286,-25.953125,23.671875,-15.015625
170,170,1727989350129,-0.122558594,-0.78741455,-0.222229,-14.375,24.4375,-8.0
171,171,1727989350169,-0.118652344,-0.8640747,-0.1819458,-6.59375,26.96875,-2.765625
172,172,1727989350209,-0.12915039,-0.7583618,-0.19976807,-16.265625,22.78125,-1.203125
173,173,1727989350249,-0.119628906,-0.68096924,-0.109436035,-7.359375,18.15625,-2.84375
174,174,1727989350289,-0.13476562,-0.6880493,-0.04937744,-1.703125,10.984375,4.109375
175,175,1727989350329,-0.0847168,-0.7061157,-0.13922119,-18.25,-8.015625,6.046875
176,176,1727989350369,-0.03540039,-0.9036255,-0.036193848,-14.921875,-5.234375,7.640625
177,177,1727989350409,-0.09057617,-1.258606,0.1473999,11.265625,-11.03125,8.46875
178,178,1727989350449,-0.28588867,-1.5466919,-0.050842285,12.46875,-19.890625,24.875
179,179,1727989350489,-0.12133789,-1.5671997,-0.0134887695,50.125,-7.515625,39.3125
180,180,1727989350529,-0.041259766,-1.3504028,-0.91534424,32.28125,-20.28125,45.96875
181,181,1727989350569,-0.034179688,-1.2532349,-0.894104,-13.125,-53.5625,9.15625
182,182,1727989350609,1.2182617,-1.6030884,-0.3838501,32.265625,15.203125,19.203125
183,183,1727989350649,0.18310547,-0.7102661,-0.45562744,-4.03125,-29.578125,23.484375
184,184,1727989350689,0.06201172,-0.6201782,-0.27667236,2.546875,-22.296875,7.671875
185,185,1727989350729,0.021240234,-0.74713135,-0.20147705,9.578125,-21.828125,-3.671875
186,186,1727989350769,0.07714844,-0.6799927,-0.2053833,-1.390625,-10.015625,-10.5625
187,187,1727989350809,0.26123047,-0.6030884,-0.19561768,0.359375,-14.703125,-15.8125
188,188,1727989350849,0.25,-0.66290283,-0.097961426,-0.4375,-18.8125,-15.734375
189,189,1727989350889,0.029785156,-0.7022095,-0.06793213,-7.625,-16.578125,-5.984375
190,190,1727989350929,-0.049560547,-0.6790161,-0.121398926,-15.96875,-10.0,-4.828125
191,191,1727989350969,0.079589844,-0.63409424,-0.07501221,-10.9375,7.171875,-7.5625
192,192,1727989351009,0.20532227,-0.7632446,-0.07183838,-9.296875,-3.765625,-7.359375
193,193,1727989351049,0.18676758,-1.0559692,-0.016906738,-3.21875,-3.828125,-9.0625
194,194,1727989351089,-0.11206055,-1.217102,-0.12310791,19.515625,-4.390625,-4.875
195,195,1727989351129,-0.13452148,-1.2107544,-0.42364502,35.484375,22.4375,-11.609375
196,196,1727989351169,0.41235352,-1.4002075,-0.5269165,19.234375,5.875,-14.8125
197,197,1727989351209,0.37817383,-1.6843872,-0.5220337,18.859375,27.46875,-11.21875
198,198,1727989351249,0.041748047,-0.8779907,-0.600647,3.09375,25.8125,17.125
199,199,1727989351289,-0.15332031,-0.7481079,-0.5562134,2.71875,29.265625,-7.4375
200,200,1727989351329,-0.1796875,-0.97125244,-0.32305908,-8.921875,32.109375,-20.15625
201,201,1727989351369,-0.0625,-1.1069946,-0.31573486,-8.0625,31.703125,-4.3125
202,202,1727989351409,-0.0146484375,-0.8484497,-0.27496338,-7.078125,32.75,9.0625
203,203,1727989351449,-0.080322266,-0.62994385,-0.22052002,-3.125,30.59375,15.421875
204,204,1727989351489,-0.15356445,-0.55059814,-0.20074463,-12.75,29.578125,16.140625
205,205,1727989351529,-0.10229492,-0.55059814,-0.20147705,-12.9375,21.4375,9.625
206,206,1727989351569,-0.10180664,-0.6338501,-0.21832275,-7.96875,21.421875,5.515625
207,207,1727989351609,-0.049072266,-0.79644775,-0.2588501,-12.578125,18.609375,10.703125
208,208,1727989351649,0.037353516,-0.92755127,-0.222229,0.234375,9.890625,9.484375
209,209,1727989351689,0.080566406,-1.4204712,-0.28253174,11.703125,-8.96875,7.140625
210,210,1727989351729,-0.032958984,-1.4922485,-0.3057251,-5.890625,-20.625,21.0625
211,211,1727989351769,-0.026123047,-1.1975708,-0.6018677,7.0625,-29.375,26.875
212,212,1727989351809,0.43676758,-1.3262329,-0.68463135,-8.609375,-7.265625,3.3125
213,213,1727989351849,0.78125,-1.2297974,-0.206604,2.0,-2.421875,17.984375
214,214,1727989351889,0.26611328,-0.97369385,-0.15948486,-8.8125,-23.25,12.3125
215,215,1727989351929,0.14355469,-0.7127075,-0.17144775,3.453125,-32.828125,6.84375
216,216,1727989351969,0.09741211,-0.6231079,-0.2341919,-0.5625,-33.296875,-3.34375
217,217,1727989352009,0.19750977,-0.7896118,-0.14141846,-4.4375,-31.171875,-11.875
218,218,1727989352049,0.32202148,-0.71588135,-0.062316895,-0.140625,-21.4375,-9.484375
219,219,1727989352089,0.18774414,-0.52349854,-0.073791504,-10.375,-37.484375,-1.078125
220,220,1727989352129,0.017578125,-0.53082275,-0.06573486,3.234375,-39.625,-5.390625
221,221,1727989352169,-0.008544922,-0.6765747,-0.039367676,5.328125,-28.28125,-12.421875
222,222,1727989352209,0.083496094,-0.88409424,-0.042297363,-9.3125,-15.140625,-13.796875
223,223,1727989352249,0.056640625,-0.925354,0.0914917,1.171875,-3.84375,-13.375
224,224,1727989352289,0.049804688,-1.1043091,-0.014465332,10.828125,8.671875,-7.21875
225,225,1727989352329,0.123535156,-1.2630005,-0.051086426,5.1875,11.59375,-8.59375
226,226,1727989352369,-0.02319336,-1.2459106,-0.049621582,30.421875,10.6875,-17.515625
227,227,1727989352409,0.34570312,-1.5435181,-0.9380493,0.421875,-6.8125,-31.328125
228,228,1727989352449,0.27685547,-1.3709106,-0.25909424,20.984375,47.796875,-2.28125
229,229,1727989352489,-0.11328125,-0.98028564,-0.2756958,9.359375,49.5625,7.484375
230,230,1727989352529,-0.072265625,-0.7124634,-0.43121338,-0.984375,32.609375,-17.328125
231,231,1727989352569,-0.04638672,-0.7720337,-0.3352661,3.078125,19.921875,-10.78125
232,232,1727989352609,-0.0107421875,-1.0120239,-0.23321533,-4.421875,26.296875,-0.65625
233,233,1727989352649,-0.048339844,-0.897522,-0.13897705,2.359375,33.546875,2.484375
234,234,1727989352689,-0.20043945,-0.63238525,-0.23468018,-12.0625,35.21875,6.03125
235,235,1727989352729,-0.059326172,-0.49517822,-0.16021729,-1.0625,29.53125,3.75
236,236,1727989352769,-0.05029297,-0.70147705,-0.20977783,-0.390625,11.90625,7.125
237,237,1727989352809,-0.010009766,-0.8665161,-0.1716919,-9.234375,17.921875,7.953125
238,238,1727989352849,0.034423828,-0.85821533,-0.17315674,-4.1875,9.109375,8.515625
239,239,1727989352889,0.021484375,-0.9854126,-0.15264893,0.46875,-8.765625,9.3125
240,240,1727989352929,-0.13745117,-1.3328247,-0.18048096,22.0,-11.046875,4.25
241,241,1727989352969,-0.17553711,-1.3882446,-0.28082275,16.71875,-5.765625,14.28125
242,242,1727989353009,0.03540039,-1.2820435,-0.6069946,-15.359375,-1.71875,22.96875
243,243,1727989353049,0.7602539,-1.4944458,-0.46832275,-3.71875,-29.140625,10.296875
244,244,1727989353089,0.3359375,-1.1340942,-0.36016846,7.609375,-18.296875,17.78125
245,245,1727989353129,-0.024169922,-0.84820557,-0.44000244,-0.71875,-23.171875,12.6875
246,246,1727989353169,0.18017578,-0.77008057,-0.25543213,-5.328125,-13.53125,-1.578125
247,247,1727989353209,0.21679688,-0.9360962,-0.11187744,1.390625,-14.84375,-3.34375
248,248,1727989353249,0.13110352,-0.862854,-0.1428833,-2.15625,-10.640625,-4.0
249,249,1727989353289,0.1899414,-0.62335205,-0.12017822,1.359375,-9.53125,2.640625
250,250,1727989353329,0.23217773,-0.5557251,-0.049621582,2.71875,-29.828125,2.046875
251,251,1727989353369,0.103027344,-0.72052,-0.016174316,-9.171875,-41.75,-10.765625
252,252,1727989353409,-0.026855469,-0.7732544,-0.09063721,-19.40625,-42.3125,-12.1875
253,253,1727989353449,0.048828125,-0.7190552,-0.046936035,-16.1875,-23.1875,-12.625
254,254,1727989353489,0.13110352,-0.72857666,0.059509277,-6.671875,-16.359375,-10.796875
255,255,1727989353529,0.15771484,-0.8999634,0.090270996,1.984375,-12.859375,-4.90625
256,256,1727989353569,0.16772461,-1.1887817,0.07977295,8.6875,-9.09375,-2.359375
257,257,1727989353609,0.11694336,-1.3245239,0.034362793,7.71875,1.53125,-6.09375
258,258,1727989353649,-0.041503906,-1.3560181,-0.3352661,18.953125,-14.953125,-20.640625
259,259,1727989353689,0.061523438,-1.3174438,-0.64849854,26.734375,-5.8125,-18.46875
260,260,1727989353729,0.024902344,-1.4363403,-0.39190674,15.5,61.90625,-8.171875
261,261,1727989353769,0.08520508,-1.0320435,-0.48199463,-9.84375,37.546875,-12.953125
262,262,1727989353809,0.041015625,-0.8706665,-0.31402588,0.78125,37.328125,-8.609375
263,263,1727989353849,-0.068359375,-0.97979736,-0.21539307,-1.171875,22.4375,-7.8125
264,264,1727989353889,-0.08984375,-0.9102173,-0.206604,-0.34375,24.78125,2.28125
265,265,1727989353929,-0.05126953,-0.68414307,-0.18804932,2.859375,20.671875,5.21875
266,266,1727989353969,-0.107910156,-0.63653564,-0.2695923,-6.1875,24.765625,0.265625
267,267,1727989354009,-0.05419922,-0.6929321,-0.20855713,-3.4375,21.140625,5.859375
268,268,1727989354049,0.06982422,-0.725647,-0.159729,2.65625,10.6875,10.0625
269,269,1727989354089,-0.001953125,-0.7246704,-0.17584229,-3.234375,9.734375,8.375
270,270,1727989354129,-0.111083984,-0.8308716,-0.16827393,-6.921875,-1.59375,6.234375
271,271,1727989354169,-0.09472656,-1.0772095,-0.13946533,-3.484375,-5.421875,-1.09375
272,272,1727989354209,-0.041259766,-1.2671509,-0.11773682,13.59375,-8.328125,7.0625
273,273,1727989354249,-0.0949707,-1.6211548,-0.32086182,-17.859375,-4.625,14.734375
274,274,1727989354289,0.07885742,-1.24469,-0.61431885,4.46875,-46.015625,27.90625
275,275,1727989354329,0.48608398,-1.2334595,-0.47174072,3.5625,1.703125,7.328125
276,276,1727989354369,0.5944824,-1.03302,-0.16363525,7.5,-4.859375,19.109375
277,277,1727989354409,0.040039062,-0.9199829,-0.18536377,-10.546875,-22.390625,12.03125
278,278,1727989354449,0.10473633,-0.7686157,-0.0960083,2.84375,-24.734375,4.203125
279,279,1727989354489,0.08911133,-0.6069946,-0.13531494,4.59375,-32.0,2.328125
280,280,1727989354529,0.087646484,-0.769104,-0.093811035,10.09375,-17.09375,-8.015625
281,281,1727989354569,0.20996094,-0.75909424,-0.13482666,7.453125,-13.96875,-11.1875
282,282,1727989354609,0.19970703,-0.6746216,-0.040100098,4.546875,-20.5625,-4.15625
283,283,1727989354649,0.03540039,-0.64556885,-0.062805176,4.953125,-19.484375,-2.140625
284,284,1727989354689,-0.057128906,-0.6878052,-0.13067627,-2.296875,-11.453125,-3.78125
285,285,1727989354729,0.02368164,-0.7991333,-0.023498535,-5.953125,1.3125,-6.421875
286,286,1727989354769,0.1381836,-0.99053955,-0.03741455,-7.25,-6.921875,-6.25
287,287,1727989354809,0.12817383,-1.295227,0.0067749023,6.390625,4.640625,-5.84375
288,288,1727989354849,0.03515625,-1.1619263,-0.18780518,34.765625,1.421875,3.953125
289,289,1727989354889,0.13476562,-1.3704224,-0.3394165,29.359375,-0.921875,-9.875
290,290,1727989354929,0.05053711,-1.6165161,-0.46636963,12.359375,13.765625,-20.953125
291,291,1727989354969,0.08959961,-1.3508911,-0.5195923,-8.25,53.03125,-8.328125
292,292,1727989355009,0.18701172,-0.9011841,-0.47686768,-8.890625,40.703125,-12.015625
293,293,1727989355049,-0.0859375,-0.8442993,-0.3945923,-25.578125,26.34375,-6.671875
294,294,1727989355089,-0.10498047,-0.9212036,-0.29815674,6.4375,24.359375,-3.109375
295,295,1727989355129,-0.10986328,-0.9451294,-0.27423096,0.203125,22.59375,5.6875
296,296,1727989355169,-0.022460938,-0.739563,-0.12799072,10.5,29.375,13.359375
297,297,1727989355209,-0.06640625,-0.54351807,-0.121398926,3.578125,48.78125,26.09375
298,298,1727989355249,-0.022949219,-0.59576416,-0.077697754,1.921875,25.125,24.125
299,299,1727989355289,0.060302734,-0.69903564,-0.15704346,-10.796875,6.5625,9.765625
300,300,1727989355329,0.010009766,-0.8987427,-0.24810791,-12.265625,-2.359375,3.609375
301,301,1727989355369,-0.16894531,-1.1282349,-0.3262329,-3.0,1.21875,2.421875
302,302,1727989355409,-0.022949219,-1.2009888,-0.21832275,-4.46875,-5.359375,8.875
303,303,1727989355449,0.14526367,-1.2070923,-0.31011963,-8.609375,-5.84375,18.78125
304,304,1727989355489,0.40625,-1.4011841,-0.71832275,-8.671875,-37.375,9.828125
305,305,1727989355529,0.96972656,-1.2920532,-0.35308838,6.609375,-15.609375,13.21875
306,306,1727989355569,0.22705078,-1.1370239,-0.1585083,-4.609375,-17.28125,15.5
307,307,1727989355609,0.068847656,-0.8352661,-0.31280518,-0.65625,-32.875,-6.078125
308,308,1727989355649,0.15698242,-0.62384033,-0.14117432,5.625,-22.015625,0.359375
309,309,1727989355689,0.21435547,-0.7307739,-0.18365479,-3.328125,-23.140625,-10.859375
310,310,1727989355729,0.3256836,-0.7329712,-0.08917236,10.046875,-9.875,-15.265625
311,311,1727989355769,0.21020508,-0.5952759,-0.105529785,4.84375,-30.5625,-5.609375
312,312,1727989355809,0.15942383,-0.5791626,-0.1494751,3.765625,-32.890625,-7.359375
313,313,1727989355849,0.084228516,-0.6692505,-0.09429932,9.875,-23.1875,-11.96875
314,314,1727989355889,0.053955078,-0.73394775,-0.051330566,1.4375,-15.25,-10.984375
315,315,1727989355929,0.037353516,-0.80963135,-0.10357666,-1.15625,-26.15625,-8.09375
316,316,1727989355969,0.080078125,-1.1240845,-0.077941895,-1.828125,1.265625,-4.390625
317,317,1727989356009,0.07714844,-1.3013306,-0.035461426,14.234375,18.625,-6.34375
318,318,1727989356049,-0.0014648438,-1.3482056,-0.070617676,39.578125,19.078125,-6.703125
319,319,1727989356089,-0.032470703,-1.1743774,-0.5772095,50.625,28.25,-16.796875
320,320,1727989356129,0.63134766,-1.4214478,-0.6760864,-16.65625,17.28125,-12.96875
321,321,1727989356169,0.34643555,-1.3240356,-0.54156494,-0.890625,23.0625,7.5625
322,322,1727989356209,-0.5185547,-0.95562744,-0.39996338,0.96875,31.09375,6.84375
323,323,1727989356249,-0.36865234,-0.8286743,-0.44561768,3.96875,40.4375,-19.453125
324,324,1727989356289,0.21972656,-0.8364868,-0.31793213,-1.703125,34.9375,-0.71875
325,325,1727989356329,0.2680664,-0.7991333,-0.20269775,6.203125,39.875,21.265625
326,326,1727989356369,-0.0859375,-0.5730591,-0.16851807,6.75,31.109375,22.578125
327,327,1727989356409,-0.22387695,-0.41046143,-0.2888794,0.578125,23.125,10.171875
328,328,1727989356449,-0.09277344,-0.489563,-0.33502197,0.703125,21.578125,4.046875
329,329,1727989356489,0.0107421875,-0.76153564,-0.30010986,7.890625,6.84375,5.953125
330,330,1727989356529,0.0126953125,-1.37677,-0.23028564,0.265625,-0.78125,0.515625
331,331,1727989356569,-0.0690918,-1.3411255,-0.34283447,-10.078125,-9.078125,12.75
332,332,1727989356609,0.13183594,-1.0408325,-0.3826294,-9.65625,-9.375,13.9375
333,333,1727989356649,0.2043457,-1.0252075,-0.6958618,-1.1875,-55.5625,12.578125
334,334,1727989356689,0.13427734,-1.2715454,-0.8008423,-12.921875,-33.34375,5.5
335,335,1727989356729,0.73828125,-1.2329712,-0.23492432,-9.90625,-7.859375,11.84375
336,336,1727989356769,0.3239746,-0.9402466,-0.113342285,-13.90625,-32.625,11.234375
337,337,1727989356809,0.067871094,-0.7683716,-0.36627197,4.34375,-51.921875,5.640625
338,338,1727989356849,0.13696289,-0.642395,-0.34210205,-7.125,-54.828125,-6.1875
339,339,1727989356889,0.23217773,-0.9036255,-0.11627197,-14.921875,-24.765625,-19.40625
340,340,1727989356929,0.28320312,-0.89068604,0.002380371,2.65625,-23.25,-17.171875
341,341,1727989356969,0.12475586,-0.53790283,-0.09454346,-5.0625,-30.6875,-4.3125
342,342,1727989357009,0.08081055,-0.46417236,-0.14678955,-1.546875,-22.5,-7.6875
343,343,1727989357049,0.020996094,-0.65216064,-0.120910645,11.109375,-13.0,-6.046875
344,344,1727989357089,0.10961914,-0.8518677,0.020690918,2.8125,-4.203125,-1.84375
345,345,1727989357129,0.0847168,-0.93951416,0.08416748,-5.34375,5.609375,-7.0
346,346,1727989357169,-0.11010742,-1.2373657,-0.1326294,0.453125,3.015625,-13.71875
347,347,1727989357209,0.09008789,-1.2432251,-0.16973877,21.546875,16.109375,-20.765625
348,348,1727989357249,0.3479004,-1.270813,-0.36749268,24.671875,18.765625,-17.515625
349,349,1727989357289,0.35546875,-1.4893188,-0.4187622,-5.78125,-9.578125,-17.90625
350,350,1727989357329,0.1550293,-1.3181763,-0.48468018,-6.703125,18.53125,-9.0
351,351,1727989357369,-0.1743164,-0.8833618,-0.51226807,-13.015625,17.375,-7.1875
352,352,1727989357409,-0.28955078,-0.9024048,-0.3748169,-2.390625,36.515625,-17.484375
353,353,1727989357449,0.0068359375,-1.123352,-0.27008057,-1.125,40.1875,-8.21875
354,354,1727989357489,0.11230469,-0.96710205,-0.16851807,-5.609375,30.96875,10.8125
355,355,1727989357529,-0.020507812,-0.661438,-0.14190674,0.21875,23.625,15.15625
356,356,1727989357569,-0.14111328,-0.50909424,-0.1416626,-4.546875,29.0,9.859375
357,357,1727989357609,-0.084472656,-0.50665283,-0.13824463,-2.84375,29.484375,8.140625
358,358,1727989357649,-0.057128906,-0.71588135,-0.11529541,-7.984375,15.984375,7.5
359,359,1727989357689,-0.0012207031,-0.95977783,-0.17340088,-4.34375,11.796875,6.515625
360,360,1727989357729,-0.0024414062,-1.3132935,-0.16339111,0.25,4.09375,3.78125
361,361,1727989357769,0.043701172,-1.5130005,-0.16778564,-3.6875,-3.0,7.328125
362,362,1727989357809,0.03173828,-1.1455688,-0.2288208,2.3125,-9.421875,31.984375
363,363,1727989357849,0.18676758,-1.0505981,-0.44781494,17.0,-46.09375,29.328125
364,364,1727989357889,0.2734375,-1.159729,-0.60650635,-1.703125,-27.84375,2.640625
365,365,1727989357929,0.9416504,-1.1997681,-0.16339111,14.1875,3.484375,13.453125
366,366,1727989357969,0.099853516,-1.1499634,-0.046203613,-20.046875,-6.171875,11.046875
367,367,1727989358009,0.011230469,-0.7527466,-0.17218018,2.484375,-34.59375,-0.21875
368,368,1727989358049,0.10571289,-0.47784424,-0.1843872,1.265625,-31.15625,-1.984375
369,369,1727989358089,0.1784668,-0.6682739,-0.12310791,1.015625,-32.328125,-17.234375
370,370,1727989358129,0.31762695,-0.8196411,-0.019592285,6.59375,-13.234375,-15.84375
371,371,1727989358169,0.123535156,-0.66241455,-0.042297363,-9.265625,-28.53125,-4.046875
372,372,1727989358209,-0.060058594,-0.57598877,-0.078186035,-9.6875,-28.234375,-11.890625
373,373,1727989358249,-0.044921875,-0.661438,-0.07305908,-5.84375,-13.40625,-15.109375
374,374,1727989358289,0.19555664,-0.8477173,0.09979248,8.6875,-10.390625,-5.96875
375,375,1727989358329,0.27856445,-1.1084595,0.066833496,9.078125,-10.03125,0.28125
376,376,1727989358369,0.033447266,-1.3098755,-0.06793213,16.46875,4.6875,-3.8125
377,377,1727989358409,-0.07714844,-1.3186646,-0.042053223,39.609375,14.78125,-3.578125
378,378,1727989358449,0.013183594,-1.3928833,-0.409729,38.53125,6.203125,-15.671875
379,379,1727989358489,0.19726562,-1.3755493,-0.52471924,9.25,11.21875,-22.125
380,380,1727989358529,0.15893555,-1.2593384,-0.5498657,-3.671875,59.640625,-0.1875
381,381,1727989358569,0.17944336,-0.8779907,-0.59210205,-0.09375,25.828125,-1.46875
382,382,1727989358609,-0.0017089844,-0.8064575,-0.35992432,11.796875,20.0625,-7.171875
383,383,1727989358649,-0.2607422,-0.97442627,-0.2210083,3.234375,26.796875,-12.15625
384,384,1727989358689,-0.12719727,-0.8389282,-0.2876587,-10.3125,33.296875,-2.609375
385,385,1727989358729,0.039794922,-0.6213989,-0.28692627,2.65625,25.75,4.984375
386,386,1727989358769,-0.079833984,-0.6397095,-0.25494385,-0.03125,32.75,6.375
387,387,1727989358809,-0.1184082,-0.6890259,-0.18707275,-3.8125,19.796875,8.0625
388,388,1727989358849,-0.0034179688,-0.71832275,-0.20880127,-4.5625,16.0,7.375
389,389,1727989358889,-0.038085938,-0.76031494,-0.20806885,-7.3125,8.796875,6.578125
390,390,1727989358929,-0.07397461,-0.82403564,-0.2954712,-1.03125,2.921875,8.8125
391,391,1727989358969,-0.028808594,-0.8760376,-0.18292236,16.609375,-2.390625,8.78125
392,392,1727989359009,-0.2434082,-1.4497681,-0.333313,28.96875,1.25,-11.375
393,393,1727989359049,-0.08203125,-1.5369263,-0.18389893,-1.828125,-1.03125,4.59375
394,394,1727989359089,0.22558594,-1.3589478,-0.6343384,9.625,-22.71875,23.078125
395,395,1727989359129,0.22485352,-1.1091919,-1.0149536,-28.8125,-54.515625,25.5
396,396,1727989359169,0.43310547,-1.0442505,-0.47491455,-3.703125,-19.734375,-2.390625
397,397,1727989359209,-0.083984375,-0.975647,-0.30352783,-36.390625,-3.140625,5.296875
398,398,1727989359249,0.0043945312,-0.7283325,-0.08917236,-15.9375,-4.25,-1.34375
399,399,1727989359289,0.3137207,-0.7151489,-0.12432861,3.875,-32.484375,9.125
400,400,1727989359329,0.42407227,-0.7564087,-0.0803833,-3.515625,-51.046875,-5.53125
401,401,1727989359369,0.17285156,-0.739563,-0.097229004,0.859375,-28.421875,-8.53125
402,402,1727989359409,-0.106933594,-0.58917236,-0.13336182,-6.875,-28.234375,3.03125
403,403,1727989359449,-0.088378906,-0.51812744,-0.11578369,-5.8125,-16.28125,-6.921875
404,404,1727989359489,0.03564453,-0.65411377,-0.049865723,0.71875,-16.328125,-11.78125
405,405,1727989359529,0.11669922,-0.9360962,0.019958496,-9.09375,-17.609375,-6.890625
406,406,1727989359569,0.1743164,-1.0549927,-0.020324707,-16.984375,-9.3125,-5.140625
407,407,1727989359609,-0.0053710938,-1.1619263,0.08807373,11.671875,9.28125,1.140625
408,408,1727989359649,-0.09667969,-1.0891724,-0.12286377,22.75,2.8125,-2.53125
409,409,1727989359689,0.32104492,-1.3262329,-0.5935669,21.875,-5.421875,-27.859375
410,410,1727989359729,0.13378906,-1.7368774,-0.4199829,18.671875,26.328125,-19.09375
411,411,1727989359769,-0.2055664,-1.2979126,-0.53326416,0.171875,56.78125,-2.96875
412,412,1727989359809,0.07104492,-0.8640747,-0.56085205,-3.65625,47.453125,-11.75
413,413,1727989359849,0.13842773,-0.95635986,-0.27130127,-2.546875,43.84375,-5.4375
414,414,1727989359889,-0.06591797,-1.1602173,-0.2930298,-5.5,32.9375,4.765625
415,415,1727989359929,-0.09008789,-0.8152466,-0.22125244,8.625,24.3125,10.109375
416,416,1727989359969,-0.14746094,-0.61065674,-0.26324463,1.46875,26.6875,3.46875
417,417,1727989360009,-0.0146484375,-0.5757446,-0.22125244,-0.5,34.484375,5.84375
418,418,1727989360049,0.08325195,-0.5725708,-0.12896729,-0.703125,13.90625,14.84375
419,419,1727989360089,0.03173828,-0.63531494,-0.06915283,-5.515625,1.546875,14.25
420,420,1727989360129,-0.21826172,-0.7503052,-0.20025635,-9.28125,8.203125,4.15625
421,421,1727989360169,-0.27807617,-1.15094,-0.24932861,-20.015625,23.0625,-3.765625
422,422,1727989360209,-0.107666016,-1.2825317,-0.35064697,-2.640625,-2.046875,-3.203125
423,423,1727989360249,0.07421875,-1.3633423,-0.055236816,15.34375,-3.828125,17.359375
424,424,1727989360289,0.107666016,-1.1777954,-0.30108643,5.296875,0.671875,24.625
425,425,1727989360329,-0.10205078,-0.9951782,-0.64385986,-3.921875,-51.390625,30.625
426,426,1727989360369,0.5205078,-1.3223267,-0.51641846,11.171875,-11.21875,-6.59375
427,427,1727989360409,0.53808594,-1.0899048,-0.120910645,14.1875,-5.21875,13.4375
428,428,1727989360449,0.04638672,-0.8635864,-0.20465088,1.4375,-19.0625,7.265625
429,429,1727989360489,0.21655273,-0.7349243,-0.1963501,-2.25,-22.625,-6.453125
430,430,1727989360529,0.22851562,-0.82159424,-0.1651001,1.34375,-27.125,-1.328125
431,431,1727989360569,0.2121582,-0.83551025,-0.15142822,2.296875,-17.328125,-2.078125
432,432,1727989360609,0.20385742,-0.69854736,-0.17828369,-1.484375,-14.90625,-3.671875
433,433,1727989360649,0.11987305,-0.6428833,-0.043273926,3.859375,-27.65625,-2.53125
434,434,1727989360689,0.013427734,-0.7114868,-0.04864502,-2.84375,-31.4375,-1.78125
435,435,1727989360729,0.05810547,-0.770813,-0.06842041,-12.8125,-23.5625,-3.5
436,436,1727989360769,0.106933594,-0.82232666,-0.032287598,-16.84375,-20.640625,-12.984375
437,437,1727989360809,0.07519531,-0.8418579,0.015319824,-13.375,-26.359375,-17.0625
438,438,1727989360849,0.036621094,-0.93536377,0.043395996,-0.484375,-18.703125,-9.890625
439,439,1727989360889,0.08544922,-1.232727,-0.0029907227,7.375,-3.734375,-7.421875
440,440,1727989360929,0.07763672,-1.3045044,-0.22589111,8.375,6.125,-12.46875
441,441,1727989360969,0.16918945,-1.1763306,-0.31256104,36.109375,5.96875,-7.96875
442,442,1727989361009,0.2836914,-1.565979,-0.45367432,23.5,-9.015625,-20.1875
443,443,1727989361049,-0.07495117,-1.3748169,-0.378479,-5.109375,39.546875,-10.703125
444,444,1727989361089,-0.06225586,-0.9390259,-0.47662354,-7.046875,43.46875,-10.484375
445,445,1727989361129,-0.07348633,-0.9138794,-0.34454346,0.640625,42.328125,-14.328125
446,446,1727989361169,-0.061767578,-1.1118774,-0.23101807,-2.5625,25.3125,-8.609375
447,447,1727989361209,-0.068847656,-1.0422974,-0.26031494,2.734375,25.046875,4.40625
448,448,1727989361249,-0.14160156,-0.71759033,-0.19903564,5.28125,35.40625,8.578125
449,449,1727989361289,-0.16235352,-0.5335083,-0.1921997,9.71875,43.625,9.046875
450,450,1727989361329,-0.028808594,-0.60235596,-0.057434082,12.28125,42.140625,13.140625
451,451,1727989361369,0.09301758,-0.6001587,-0.2144165,-11.1875,28.171875,16.9375
452,452,1727989361409,0.050048828,-0.48809814,-0.13653564,-1.65625,7.6875,19.75
453,453,1727989361449,-0.045898438,-0.642395,-0.2300415,14.640625,6.859375,12.578125
454,454,1727989361489,-0.114990234,-1.0950317,-0.20953369,23.421875,-6.296875,5.390625
455,455,1727989361529,-0.14404297,-2.0,-0.28424072,33.3125,-5.375,1.8125
456,456,1727989361569,-0.01977539,-1.5574341,-0.3748169,-0.34375,-3.3125,33.109375
457,457,1727989361609,-0.26635742,-1.2434692,-0.7246704,-10.9375,-8.90625,30.765625
458,458,1727989361649,0.40795898,-1.0073853,-0.67974854,-3.78125,2.984375,-8.0
459,459,1727989361689,0.5986328,-0.96832275,-0.33428955,-3.390625,7.6875,-3.25
460,460,1727989361729,0.3010254,-0.86016846,-0.24053955,-17.40625,1.453125,15.953125
461,461,1727989361769,0.0925293,-0.7605591,-0.25543213,-14.625,-16.046875,8.5625
462,462,1727989361809,0.06298828,-0.70806885,-0.3093872,-12.65625,-19.140625,-4.65625
463,463,1727989361849,0.16699219,-0.723938,-0.14190674,1.78125,1.6875,-20.640625
464,464,1727989361889,0.23950195,-0.75079346,-0.14776611,-0.78125,-21.359375,-10.796875
465,465,1727989361929,0.2290039,-0.72369385,-0.13995361,-6.8125,-26.328125,-1.171875
466,466,1727989361969,0.029785156,-0.7805786,-0.101379395,-3.46875,-26.203125,-6.578125
467,467,1727989362009,-0.04296875,-0.756897,-0.11456299,-8.203125,-13.390625,-14.71875
468,468,1727989362049,0.011962891,-0.6404419,-0.081604004,-3.546875,-4.625,-14.359375
469,469,1727989362089,0.09301758,-0.63067627,-0.06793213,-6.9375,-10.265625,-6.515625
470,470,1727989362129,0.061035156,-0.69122314,0.030700684,-9.96875,-12.75,7.15625
471,471,1727989362169,0.05126953,-0.9043579,0.15106201,-2.265625,-18.5625,12.625
472,472,1727989362209,-0.10498047,-1.399231,0.08880615,-0.640625,-17.015625,5.984375
473,473,1727989362249,-0.10571289,-1.3372192,-0.22857666,36.9375,12.34375,8.734375
474,474,1727989362289,-0.12963867,-0.9338989,-0.19317627,71.96875,38.453125,16.046875
475,475,1727989362329,0.14208984,-1.7798462,-0.6067505,28.296875,20.0,-17.09375
476,476,1727989362369,0.9223633,-1.7891235,-0.8526001,56.515625,6.421875,-25.46875
477,477,1727989362409,0.73657227,-1.0479126,-0.8154907,-3.859375,-6.65625,4.0
478,478,1727989362449,-0.10498047,-0.75372314,-0.50738525,-26.390625,2.5,7.390625
479,479,1727989362489,-0.34887695,-0.81451416,-0.47320557,-14.03125,3.90625,-7.625
480,480,1727989362529,-0.07543945,-0.800354,-0.41363525,-22.265625,6.84375,-23.46875
481,481,1727989362569,-0.078125,-0.7522583,-0.315979,-22.1875,18.921875,-22.5625
482,482,1727989362609,-0.08959961,-0.7078247,-0.3057251,-21.625,45.8125,-5.8125
483,483,1727989362649,-0.03125,-0.61383057,-0.23980713,-17.234375,46.796875,10.453125
484,484,1727989362689,0.1328125,-0.47540283,-0.1963501,-19.421875,29.28125,11.078125
485,485,1727989362729,0.03564453,-0.5256958,-0.13336182,-21.25,-0.4375,4.125
486,486,1727989362769,-0.095458984,-0.7119751,-0.097229004,-10.234375,4.46875,2.046875
487,487,1727989362809,-0.12426758,-0.7739868,-0.12432861,-2.6875,7.0,2.40625
488,488,1727989362849,-0.10229492,-1.045227,-0.22906494,13.828125,-8.046875,5.9375
489,489,1727989362889,-0.072265625,-1.5083618,-0.09893799,23.1875,-9.765625,6.59375
490,490,1727989362929,0.061035156,-1.4353638,-0.28741455,11.875,-6.21875,24.34375
491,491,1727989362969,-0.10961914,-1.446106,-0.8999634,-14.640625,-22.96875,34.390625
492,492,1727989363009,0.6254883,-1.2820435,-0.8648071,1.578125,-19.265625,2.359375
493,493,1727989363049,0.7121582,-1.185852,-0.40924072,24.234375,6.765625,17.21875
494,494,1727989363089,0.13916016,-1.062561,-0.47052002,-12.71875,-2.40625,9.828125
495,495,1727989363129,0.22729492,-0.7234497,-0.42242432,-25.4375,-11.84375,4.46875
496,496,1727989363169,0.3149414,-0.68585205,-0.20220947,4.515625,-31.234375,-6.71875
497,497,1727989363209,0.23339844,-0.84552,-0.12335205,-7.421875,-27.5,-14.4375
498,498,1727989363249,0.1899414,-0.7095337,-0.2571411,-23.90625,-36.796875,-13.921875
499,499,1727989363289,0.17114258,-0.7124634,-0.09112549,-11.453125,-28.6875,-9.828125
500,500,1727989363329,0.1081543,-0.6643677,0.014099121,3.359375,-22.796875,-8.75
501,501,1727989363369,-0.07104492,-0.5750122,-0.062316895,-5.140625,-18.796875,-6.84375
502,502,1727989363409,0.0029296875,-0.55474854,-0.11456299,-9.484375,-17.171875,-9.5625
503,503,1727989363449,0.16601562,-0.6572876,-0.016906738,-11.390625,-11.578125,-13.71875
504,504,1727989363489,0.1586914,-0.913147,0.12835693,-1.8125,-14.046875,-6.046875
505,505,1727989363529,0.014404297,-1.0588989,0.028015137,6.5625,-1.578125,-3.625
506,506,1727989363569,0.013183594,-1.2942505,-0.07305908,17.484375,5.359375,-11.078125
507,507,1727989363609,0.09326172,-1.4673462,-0.07696533,45.5625,9.515625,-12.984375
508,508,1727989363649,0.23754883,-1.5896606,-0.5474243,9.359375,3.265625,-9.21875
509,509,1727989363689,-0.005126953,-1.2827759,-0.36553955,-5.859375,36.6875,0.8125
510,510,1727989363729,-0.12207031,-0.8184204,-0.49639893,6.90625,38.234375,-6.125
511,511,1727989363769,0.028808594,-0.6843872,-0.53497314,5.578125,39.5,-14.328125
512,512,1727989363809,0.010009766,-0.96661377,-0.26641846,12.28125,23.734375,-9.203125
513,513,1727989363849,-0.06225586,-1.0735474,-0.26153564,-4.328125,28.90625,-1.546875
514,514,1727989363889,-0.052246094,-0.895813,-0.32037354,-5.453125,21.53125,7.5625
515,515,1727989363929,-0.09082031,-0.7251587,-0.19342041,7.46875,34.140625,8.171875
516,516,1727989363969,-0.1887207,-0.70318604,-0.17388916,8.015625,34.1875,11.15625
517,517,1727989364009,-0.13085938,-0.6773071,-0.23809814,-7.03125,23.375,12.53125
518,518,1727989364049,-0.0012207031,-0.61968994,-0.14776611,-16.578125,20.359375,9.15625
519,519,1727989364089,-0.005126953,-0.7036743,-0.21832275,-12.140625,2.515625,6.96875
520,520,1727989364129,-0.083496094,-0.98883057,-0.21661377,-7.890625,-6.21875,-0.296875
521,521,1727989364169,-0.09082031,-1.3076782,-0.38189697,47.390625,-6.109375,6.734375
522,522,1727989364209,-0.2824707,-1.5750122,0.010437012,12.078125,11.3125,35.796875
523,523,1727989364249,-0.18676758,-1.1709595,-0.57647705,-18.8125,5.359375,22.984375
524,524,1727989364289,0.4296875,-0.90997314,-0.6885376,-19.828125,-5.0,10.296875
525,525,1727989364329,0.9165039,-1.4990845,-0.31500244,1.375,-5.234375,-2.0
526,526,1727989364369,0.19873047,-0.99005127,-0.36480713,-17.25,-30.828125,8.75
527,527,1727989364409,0.10961914,-0.83258057,-0.22003174,-20.953125,-13.375,3.203125
528,528,1727989364449,0.22338867,-0.95758057,-0.14019775,-12.40625,-27.25,-9.84375
529,529,1727989364489,0.17382812,-0.9241333,-0.10675049,-2.203125,-27.5625,-2.71875
530,530,1727989364529,0.23388672,-0.753479,-0.06842041,-5.21875,-14.515625,-1.109375
531,531,1727989364569,0.10473633,-0.60162354,-0.070129395,-10.5,-20.234375,-3.421875
532,532,1727989364609,0.012939453,-0.600647,-0.06817627,-12.5,-26.390625,-5.703125
533,533,1727989364649,0.049804688,-0.6729126,0.023376465,-9.109375,-24.296875,-9.9375
534,534,1727989364689,0.083740234,-0.7647095,0.03387451,3.609375,-22.953125,-6.765625
535,535,1727989364729,0.07519531,-0.7402954,-0.0076293945,3.953125,-24.484375,-4.453125
536,536,1727989364769,0.03100586,-0.72076416,0.043640137,5.78125,-12.1875,-5.59375
537,537,1727989364809,0.04638672,-0.91973877,0.05609131,10.578125,-8.46875,-0.953125
538,538,1727989364849,0.06323242,-1.1680298,0.1461792,24.6875,7.140625,-2.34375
539,539,1727989364889,-0.08496094,-1.3899536,-0.15240479,30.703125,14.15625,-3.640625
540,540,1727989364929,0.21484375,-1.5164185,-0.38653564,25.0625,3.140625,-7.34375
541,541,1727989364969,0.026367188,-1.6619263,-0.4668579,25.3125,0.671875,-12.90625
542,542,1727989365009,-0.024169922,-1.2595825,-0.39385986,-2.671875,58.734375,3.40625
543,543,1727989365049,0.06665039,-0.8789673,-0.47247314,7.015625,49.96875,-8.28125
544,544,1727989365089,0.01953125,-0.8308716,-0.34381104,2.03125,38.421875,-6.546875
545,545,1727989365129,-0.079833984,-0.9241333,-0.27130127,-5.40625,34.84375,-0.90625
546,546,1727989365169,-0.0073242188,-0.7822876,-0.24664307,-1.421875,21.046875,1.609375
547,547,1727989365209,-0.11254883,-0.6511841,-0.24835205,6.984375,25.6875,3.265625
548,548,1727989365249,-0.09692383,-0.57891846,-0.21734619,6.421875,42.421875,11.890625
549,549,1727989365289,0.08227539,-0.56695557,-0.20831299,3.109375,27.125,16.984375
550,550,1727989365329,0.060058594,-0.67266846,-0.16436768,7.078125,7.90625,16.703125
551,551,1727989365369,-0.007080078,-0.77789307,-0.14898682,-6.125,-0.484375,9.953125
552,552,1727989365409,-0.16357422,-1.0772095,-0.21588135,-1.28125,-9.1875,-1.796875
553,553,1727989365449,-0.08081055,-1.4421997,-0.2954712,-0.375,-9.84375,2.5625
554,554,1727989365489,0.059570312,-1.3945923,-0.18804932,-11.203125,-11.203125,15.953125
555,555,1727989365529,-0.043945312,-1.0703735,-0.6018677,2.015625,-35.1875,27.375
556,556,1727989365569,0.19799805,-1.0820923,-0.61138916,-8.484375,-6.109375,2.125
557,557,1727989365609,0.67089844,-1.1231079,-0.34576416,-3.578125,-4.5,3.4375
558,558,1727989365649,0.26489258,-0.987854,-0.21124268,-8.890625,-14.34375,9.96875
559,559,1727989365689,0.083984375,-0.94659424,-0.1026001,-4.796875,-22.71875,9.046875
560,560,1727989365729,0.22631836,-0.80255127,-0.14263916,-14.734375,-47.71875,1.125
561,561,1727989365769,0.23583984,-0.897522,-0.15777588,-6.5,-43.484375,-12.671875
562,562,1727989365809,0.21508789,-0.83013916,-0.09161377,4.40625,-22.5,-12.0
563,563,1727989365849,0.16137695,-0.6433716,-0.07550049,0.453125,-27.65625,-4.703125
564,564,1727989365889,0.04248047,-0.57769775,-0.05987549,-0.859375,-22.828125,-5.421875
565,565,1727989365929,-0.008056641,-0.59039307,-0.04498291,-2.9375,-19.640625,-9.921875
566,566,1727989365969,0.06738281,-0.6409302,0.051452637,-7.796875,-19.375,-10.5
567,567,1727989366009,0.14941406,-0.7859497,0.10467529,-9.34375,-21.09375,-4.421875
568,568,1727989366049,0.06665039,-1.0908813,0.0119018555,9.546875,-6.875,-0.09375
569,569,1727989366089,-0.0871582,-1.4678345,0.0016479492,31.65625,28.03125,-2.625
570,570,1727989366129,-0.115478516,-1.3103638,-0.14337158,18.9375,14.65625,-13.5625
571,571,1727989366169,0.2783203,-1.3687134,-0.45611572,0.34375,25.03125,-27.515625
572,572,1727989366209,0.3605957,-1.310852,-0.534729,-4.40625,-8.609375,-7.71875
573,573,1727989366249,-0.046875,-1.2056274,-0.3772583,13.3125,56.953125,2.96875
574,574,1727989366289,-0.1003418,-0.9265747,-0.4512329,-1.4375,28.859375,-10.921875
575,575,1727989366329,0.029296875,-0.83795166,-0.2617798,8.21875,25.34375,-10.4375
576,576,1727989366369,-0.16577148,-1.0386353,-0.3423462,6.890625,37.875,-1.0
577,577,1727989366409,-0.045654297,-0.81256104,-0.26080322,8.90625,30.921875,10.328125
578,578,1727989366449,0.0234375,-0.56988525,-0.19073486,14.265625,32.34375,10.1875
579,579,1727989366489,-0.088134766,-0.5315552,-0.22369385,9.375,30.890625,11.296875
580,580,1727989366529,-0.0793457,-0.63897705,-0.206604,2.34375,19.15625,12.265625
581,581,1727989366569,-0.048828125,-0.7971802,-0.21734619,-6.625,12.703125,6.890625
582,582,1727989366609,0.037353516,-0.9627075,-0.23492432,-7.859375,5.28125,3.15625
583,583,1727989366649,0.09741211,-1.140686,-0.19732666,-2.734375,-3.859375,7.40625
584,584,1727989366689,0.01977539,-1.2527466,-0.23687744,0.359375,-32.75,19.90625
585,585,1727989366729,-0.043701172,-1.1660767,-0.458313,-4.546875,-36.359375,26.046875
586,586,1727989366769,-0.20703125,-1.2698364,-0.73638916,-13.328125,-28.25,7.546875
587,587,1727989366809,0.83862305,-1.1697388,-0.33868408,3.578125,10.078125,4.765625
588,588,1727989366849,0.5571289,-1.210022,-0.14215088,-7.765625,-17.078125,22.15625
589,589,1727989366889,0.11401367,-0.9434204,-0.3135376,-5.96875,-35.96875,5.0625
590,590,1727989366929,0.13989258,-0.7686157,-0.21343994,9.125,-31.46875,5.296875
591,591,1727989366969,0.10253906,-0.7468872,-0.18927002,3.671875,-17.40625,-0.5
592,592,1727989367009,0.22314453,-0.73394775,-0.11871338,11.484375,-13.140625,-9.8125
593,593,1727989367049,0.23657227,-0.5984497,-0.09844971,9.359375,-21.078125,-6.546875
594,594,1727989367089,0.100097656,-0.63409424,-0.105041504,-6.875,-35.875,-2.65625
595,595,1727989367129,0.015625,-0.72613525,-0.04498291,-1.390625,-16.015625,-2.5
596,596,1727989367169,0.0063476562,-0.73028564,-0.042541504,-7.328125,-8.46875,-3.46875
597,597,1727989367209,0.10107422,-0.7698364,-0.070617676,-29.359375,-8.15625,-10.109375
598,598,1727989367249,0.16040039,-0.72540283,-0.02130127,0.75,-6.046875,-4.609375
599,599,1727989367289,0.1772461,-1.3740845,-0.061828613,58.59375,-15.296875,2.515625
600,600,1727989367329,0.18798828,-1.6587524,-0.13848877,56.421875,8.46875,-7.0
601,601,1727989367369,-0.099365234,-1.4107056,-0.35723877,102.96875,23.59375,10.046875
602,602,1727989367409,0.44482422,-1.1431274,-1.098938,-9.671875,15.40625,-18.578125
603,603,1727989367449,0.5686035,-1.2559204,-0.70440674,-21.046875,50.59375,-24.84375
604,604,1727989367489,0.042236328,-0.6956177,-0.48712158,-15.421875,39.359375,0.5625
605,605,1727989367529,-0.1953125,-0.66412354,-0.49957275,8.09375,15.71875,-28.421875
606,606,1727989367569,-0.1821289,-0.9829712,-0.3255005,-0.6875,30.21875,-13.1875
607,607,1727989367609,-0.09057617,-0.89068604,-0.4500122,-27.3125,45.40625,15.453125
608,608,1727989367649,0.01928711,-0.661438,-0.45025635,-22.015625,32.984375,0.65625
609,609,1727989367689,-0.064453125,-0.61065674,-0.347229,3.046875,29.90625,-8.984375
610,610,1727989367729,-0.08178711,-0.8106079,-0.23394775,1.609375,28.828125,2.46875
611,611,1727989367769,0.017089844,-0.73760986,-0.25079346,-10.03125,23.609375,10.34375
612,612,1727989367809,0.053466797,-0.6616821,-0.18145752,-12.859375,12.5625,15.796875
613,613,1727989367849,-0.010498047,-0.68756104,-0.25543213,-19.3125,2.71875,13.296875
614,614,1727989367889,-0.11010742,-0.7288208,-0.3008423,-11.328125,-10.515625,10.21875
615,615,1727989367929,-0.13598633,-0.9319458,-0.27764893,-0.09375,-11.890625,7.484375
616,616,1727989367969,-0.17822266,-1.5095825,-0.34283447,25.40625,-22.515625,2.453125
617,617,1727989368009,-0.0053710938,-1.5650024,-0.394104,-12.734375,-17.171875,27.5
618,618,1727989368049,0.49853516,-1.4971313,-0.56817627,-20.515625,-12.625,25.5
619,619,1727989368089,0.5270996,-1.100647,-0.41827393,0.640625,-25.15625,22.328125
620,620,1727989368129,0.1003418,-0.8569946,-0.442688,3.5625,-20.796875,12.21875
621,621,1727989368169,0.39672852,-0.7647095,-0.18536377,-0.234375,-16.609375,-2.78125
622,622,1727989368209,0.33984375,-0.9331665,-0.14239502,-3.671875,-44.1875,-5.765625
623,623,1727989368249,0.21044922,-0.95513916,-0.15582275,13.84375,-39.109375,-5.625
624,624,1727989368289,0.14746094,-0.6692505,-0.14483643,20.21875,-21.375,-4.40625
625,625,1727989368329,0.015380859,-0.4932251,-0.15557861,21.875,-26.5625,3.046875
626,626,1727989368369,-0.039794922,-0.50177,-0.09503174,20.90625,-12.09375,-7.15625
627,627,1727989368409,0.035888672,-0.600647,-0.11016846,6.484375,-16.6875,-20.484375
628,628,1727989368449,0.11425781,-0.70513916,-0.093322754,2.4375,-11.421875,-13.28125
629,629,1727989368489,0.1081543,-0.7908325,-0.11627197,-14.40625,-5.546875,-5.328125
630,630,1727989368529,0.08251953,-1.0877075,-0.10406494,1.4375,0.265625,-8.484375
631,631,1727989368569,0.041259766,-1.4094849,-0.315979,34.515625,-3.90625,-19.625
632,632,1727989368609,0.26220703,-1.4143677,-0.7168579,34.375,26.46875,-9.28125
633,633,1727989368649,0.27929688,-1.4026489,-0.71954346,-16.734375,11.359375,-5.734375
634,634,1727989368689,0.14428711,-1.2141724,-0.52960205,-9.203125,43.5625,-1.125
635,635,1727989368729,-0.115722656,-0.925354,-0.5772095,-14.390625,28.90625,-22.6875
636,636,1727989368769,-0.13110352,-0.91851807,-0.3164673,-11.90625,3.046875,-21.203125
637,637,1727989368809,-0.23364258,-1.0213013,-0.3328247,-15.90625,36.796875,-6.25
638,638,1727989368849,-0.084228516,-0.8106079,-0.3406372,-18.546875,41.796875,7.734375
639,639,1727989368889,-0.03149414,-0.5706177,-0.2498169,-13.15625,33.796875,8.859375
640,640,1727989368929,-0.11035156,-0.5310669,-0.19976807,-0.125,33.96875,11.203125
641,641,1727989368969,-0.052001953,-0.59698486,-0.16265869,2.328125,27.546875,12.203125
642,642,1727989369009,0.08129883,-0.6494751,-0.19171143,-4.234375,13.828125,13.609375
643,643,1727989369049,0.076660156,-0.67852783,-0.16217041,4.859375,3.59375,15.15625
644,644,1727989369089,-0.0793457,-1.0508423,-0.27960205,6.734375,-8.984375,13.59375
645,645,1727989369129,-0.30395508,-1.6372681,-0.3196411,-0.75,-5.96875,-3.703125
646,646,1727989369169,-0.20996094,-1.395813,-0.15435791,-8.59375,-11.84375,6.46875
647,647,1727989369209,0.06958008,-1.1651001,-0.7666626,4.25,-17.5625,2.71875
648,648,1727989369249,0.5605469,-1.2786255,-0.6001587,-9.765625,-3.359375,-1.625
649,649,1727989369289,0.61938477,-1.1843872,-0.39117432,4.734375,-11.46875,18.9375
650,650,1727989369329,0.17089844,-0.8206177,-0.21099854,-4.125,-16.703125,13.0
651,651,1727989369369,0.1027832,-0.6289673,-0.159729,9.4375,-23.1875,-0.71875
652,652,1727989369409,0.10498047,-0.62213135,-0.36090088,-18.75,-42.6875,-6.21875
653,653,1727989369449,0.31713867,-0.81744385,-0.16363525,-0.171875,-37.578125,-7.78125
654,654,1727989369489,0.23779297,-0.8484497,-0.024475098,13.046875,-13.375,4.15625
655,655,1727989369529,0.001953125,-0.60772705,-0.18536377,-0.59375,-37.3125,4.109375
656,656,1727989369569,-0.06347656,-0.43902588,-0.24810791,-6.8125,-31.1875,-13.703125
657,657,1727989369609,-0.072509766,-0.6812134,-0.07232666,15.828125,-11.015625,-18.734375
658,658,1727989369649,0.061767578,-0.7842407,0.04559326,-7.40625,-1.1875,-12.234375
659,659,1727989369689,0.06689453,-0.9522095,0.0770874,2.09375,-3.828125,6.921875
660,660,1727989369729,0.07861328,-1.0918579,-0.033996582,2.59375,-5.0,9.0
661,661,1727989369769,0.09667969,-1.4873657,0.011169434,21.890625,5.046875,-14.265625
662,662,1727989369809,-0.1015625,-1.2315063,-0.43218994,60.328125,4.171875,-4.203125
663,663,1727989369849,0.35620117,-1.1060181,-0.9182739,-3.796875,10.8125,-8.203125
664,664,1727989369889,0.2861328,-1.3604126,-0.61383057,17.203125,25.109375,-5.140625
665,665,1727989369929,0.037353516,-1.1377563,-0.4697876,0.453125,38.265625,4.8125
666,666,1727989369969,-0.24169922,-0.82232666,-0.5274048,-0.625,35.390625,-11.296875
667,667,1727989370009,-0.08642578,-0.7908325,-0.38458252,-6.359375,34.671875,-7.0
668,668,1727989370049,-0.025146484,-0.9373169,-0.3616333,-12.453125,25.640625,5.09375
669,669,1727989370089,-0.099853516,-0.8164673,-0.3538208,-9.859375,34.21875,2.09375
670,670,1727989370129,-0.14208984,-0.70391846,-0.26885986,-4.359375,52.40625,-4.390625
671,671,1727989370169,-0.037841797,-0.6565552,-0.21759033,-3.171875,39.59375,8.203125
672,672,1727989370209,0.041259766,-0.7107544,-0.24102783,-5.25,21.546875,12.390625
673,673,1727989370249,-0.092041016,-0.77471924,-0.23858643,-9.125,15.109375,10.203125
674,674,1727989370289,-0.1459961,-0.75494385,-0.26983643,-1.578125,18.8125,8.671875
675,675,1727989370329,-0.016845703,-0.7901001,-0.20098877,3.046875,14.328125,11.296875
676,676,1727989370369,-0.12133789,-0.92926025,-0.22027588,-9.40625,4.6875,6.609375
677,677,1727989370409,-0.12695312,-1.178772,-0.3213501,-15.890625,-11.515625,3.0625
678,678,1727989370449,0.19262695,-1.4146118,-0.4085083,21.5625,4.203125,16.71875
679,679,1727989370489,0.04321289,-1.6270142,-0.19390869,26.703125,2.09375,50.71875
680,680,1727989370529,0.25610352,-1.3701782,-0.75787354,-16.34375,-33.5625,22.4375
681,681,1727989370569,0.0715332,-0.8508911,-0.5383911,-13.78125,-14.15625,8.796875
682,682,1727989370609,0.19311523,-0.71881104,-0.34088135,-12.34375,-10.625,-0.40625
683,683,1727989370649,0.23364258,-0.96832275,-0.21783447,-15.296875,-14.296875,-3.015625
684,684,1727989370689,0.23999023,-1.0327759,-0.1572876,-13.5,-19.15625,3.59375
685,685,1727989370729,0.21655273,-0.8118286,-0.18414307,-17.40625,-11.671875,5.578125
686,686,1727989370769,0.20214844,-0.6453247,-0.19049072,-13.390625,-23.171875,2.3125
687,687,1727989370809,0.19262695,-0.5877075,-0.1609497,-10.9375,-27.40625,-3.953125
688,688,1727989370849,0.11621094,-0.69903564,-0.012512207,-4.890625,-24.890625,-8.296875
689,689,1727989370889,0.031982422,-0.7178345,0.010437012,8.71875,-15.640625,-0.8125
690,690,1727989370929,0.07885742,-0.57769775,-0.13287354,-12.234375,-13.03125,-4.6875
691,691,1727989370969,0.09375,-0.6531372,-0.0071411133,0.15625,-7.03125,-11.046875
692,692,1727989371009,0.1171875,-0.90826416,0.093688965,-2.359375,-5.890625,-9.953125
693,693,1727989371049,0.10253906,-1.2200317,0.02166748,11.328125,-6.890625,-4.25
694,694,1727989371089,0.118652344,-1.3416138,-0.020324707,19.59375,21.734375,0.46875
695,695,1727989371129,-0.05419922,-1.0557251,-0.18218994,25.75,7.171875,-8.78125
696,696,1727989371169,0.5234375,-1.2747192,-0.51690674,32.359375,-0.109375,-28.578125
697,697,1727989371209,0.4477539,-1.5886841,-0.46295166,-15.5,-20.4375,-14.234375
698,698,1727989371249,-0.05883789,-1.2647095,-0.3027954,0.234375,35.234375,8.03125
699,699,1727989371289,-0.4909668,-0.79644775,-0.43389893,-5.0,23.40625,-23.65625
700,700,1727989371329,-0.056396484,-0.7727661,-0.37652588,2.8125,27.453125,-30.515625
701,701,1727989371369,0.20898438,-1.0493774,-0.24664307,-4.59375,13.0625,-13.140625
702,702,1727989371409,0.1418457,-1.0222778,-0.16900635,-5.71875,11.3125,-0.875
703,703,1727989371449,-0.17993164,-0.63287354,-0.20513916,-3.03125,16.0625,3.4375
704,704,1727989371489,-0.26489258,-0.46221924,-0.24029541,-1.296875,21.109375,-2.890625
705,705,1727989371529,-0.083740234,-0.611145,-0.14605713,8.53125,18.1875,-1.25
706,706,1727989371569,0.05102539,-0.8233032,-0.11993408,6.65625,16.765625,6.359375
707,707,1727989371609,-0.013183594,-0.9714966,-0.1585083,-5.8125,8.21875,12.84375
708,708,1727989371649,-0.036865234,-0.92926025,-0.12017822,-2.828125,12.59375,14.3125
709,709,1727989371689,-0.051757812,-0.9365845,-0.17486572,-5.984375,-15.4375,6.984375
710,710,1727989371729,-0.12670898,-1.3345337,-0.13018799,0.484375,-5.9375,0.265625
711,711,1727989371769,-0.11645508,-1.3933716,-0.4175415,3.0625,-11.265625,21.125
712,712,1727989371809,0.25830078,-1.3972778,-0.32769775,-6.734375,-0.59375,29.265625
713,713,1727989371849,0.34423828,-1.3460083,-0.440979,-2.9375,-26.28125,1.4375
714,714,1727989371889,0.13061523,-0.87042236,-0.33746338,8.015625,1.453125,1.71875
715,715,1727989371929,0.2121582,-0.81085205,-0.09674072,-6.078125,-6.296875,7.328125
716,716,1727989371969,0.25512695,-0.92803955,-0.050109863,-14.953125,-25.75,6.3125
717,717,1727989372009,0.11401367,-0.94000244,-0.12579346,-8.21875,-30.625,-1.25
718,718,1727989372049,0.15258789,-0.84820557,-0.109191895,-9.03125,-21.171875,-5.078125
719,719,1727989372089,0.25097656,-0.75665283,-0.13800049,-22.46875,-18.96875,-0.515625
720,720,1727989372129,0.21459961,-0.72198486,-0.03717041,-4.359375,-30.90625,3.203125
721,721,1727989372169,0.052001953,-0.7971802,0.019958496,5.75,-22.9375,0.21875
722,722,1727989372209,0.0,-0.75128174,-0.016906738,-2.75,-21.984375,-6.328125
723,723,1727989372249,0.049560547,-0.69415283,0.0053100586,-2.15625,-19.53125,-7.703125
724,724,1727989372289,0.075927734,-0.7085571,0.012390137,-6.75,-15.046875,-7.09375
725,725,1727989372329,0.084228516,-0.7752075,0.09661865,-2.953125,-14.9375,-7.671875
726,726,1727989372369,0.11254883,-0.9170532,0.10223389,6.421875,-13.484375,1.078125
727,727,1727989372409,0.045898438,-1.4458618,0.047302246,13.3125,-6.140625,7.0625
728,728,1727989372449,-0.13989258,-1.3469849,0.090026855,26.28125,14.9375,-8.640625
729,729,1727989372489,-0.19384766,-1.1758423,-0.25860596,50.5625,15.984375,-29.03125
730,730,1727989372529,0.44458008,-1.1758423,-0.6030884,5.5625,9.828125,-23.515625
731,731,1727989372569,0.43432617,-1.5930786,-0.47052002,-6.0625,25.09375,-9.1875
732,732,1727989372609,-0.18188477,-1.0930786,-0.3262329,-11.046875,28.234375,11.046875
733,733,1727989372649,-0.3840332,-0.7546997,-0.33502197,19.5,28.40625,-22.015625
734,734,1727989372689,-0.033935547,-0.8411255,-0.2564087,2.796875,32.625,-17.6875
735,735,1727989372729,0.021972656,-0.8257446,-0.2366333,-2.0,32.40625,6.71875
736,736,1727989372769,-0.076171875,-0.7529907,-0.2432251,2.296875,24.625,5.3125
737,737,1727989372809,-0.16430664,-0.72247314,-0.2144165,6.03125,38.28125,0.234375
738,738,1727989372849,-0.009521484,-0.67144775,-0.09893799,2.75,34.421875,7.8125
739,739,1727989372889,0.075683594,-0.71954346,-0.12652588,-3.265625,14.15625,10.015625
740,740,1727989372929,-0.010009766,-0.84698486,-0.20367432,-16.015625,7.15625,10.359375
741,741,1727989372969,-0.060546875,-0.78204346,-0.20196533,0.875,-2.53125,8.375
742,742,1727989373009,-0.018066406,-0.9846802,-0.16363525,14.96875,-11.8125,12.65625
743,743,1727989373049,-0.05053711,-1.4407349,-0.077941895,20.125,-19.328125,8.640625
744,744,1727989373089,-0.0034179688,-1.3552856,-0.20025635,14.359375,-8.015625,23.34375
745,745,1727989373129,-0.3269043,-1.4143677,-0.80963135,-25.453125,-28.875,27.015625
746,746,1727989373169,0.6730957,-1.3948364,-0.5281372,1.390625,-7.546875,0.1875
747,747,1727989373209,0.5830078,-1.1541138,-0.18951416,3.578125,-4.4375,18.578125
748,748,1727989373249,0.0053710938,-0.97784424,-0.25567627,-7.859375,-18.984375,18.984375
749,749,1727989373289,0.107421875,-0.6445923,-0.20269775,-3.09375,-20.546875,0.921875
750,750,1727989373329,0.1328125,-0.7473755,-0.1975708,5.578125,-23.09375,-10.15625
751,751,1727989373369,0.23999023,-0.90997314,-0.11602783,-0.6875,-3.828125,-12.609375
752,752,1727989373409,0.28881836,-0.73516846,-0.08477783,5.28125,-10.0,-1.03125
753,753,1727989373449,0.10668945,-0.5376587,-0.08282471,-1.59375,-25.140625,1.515625
754,754,1727989373489,-0.020751953,-0.5444946,-0.027893066,-4.5,-25.078125,-11.3125
755,755,1727989373529,-0.0390625,-0.68951416,-0.0012817383,-3.09375,-18.890625,-15.046875
756,756,1727989373569,0.06933594,-0.7913208,-0.00982666,-13.59375,-21.84375,-14.125
757,757,1727989373609,0.123535156,-0.9175415,-0.018371582,-24.46875,-21.96875,-11.5
758,758,1727989373649,0.1027832,-0.9631958,0.11834717,-3.078125,-6.125,-10.40625
759,759,1727989373689,-0.0034179688,-1.2651978,-0.0115356445,15.046875,9.28125,-7.765625
760,760,1727989373729,-0.04321289,-1.3103638,0.009460449,28.828125,8.25,-15.53125
761,761,1727989373769,0.28588867,-1.3955688,-0.61138916,-1.453125,-11.671875,-29.265625
762,762,1727989373809,-0.035888672,-1.5488892,-0.37554932,5.796875,26.046875,-9.25
763,763,1727989373849,-0.11035156,-1.1709595,-0.48760986,2.078125,50.734375,-0.40625
764,764,1727989373889,-0.030029297,-0.87164307,-0.41851807,1.046875,51.125,-14.796875
765,765,1727989373929,-0.107421875,-0.9522095,-0.21392822,5.5625,34.9375,-9.34375
766,766,1727989373969,-0.047607422,-0.9898071,-0.19415283,-2.671875,35.234375,3.40625
767,767,1727989374009,-0.099609375,-0.74053955,-0.17242432,-6.25,22.59375,8.34375
768,768,1727989374049,-0.2109375,-0.5940552,-0.24176025,-5.75,32.578125,-0.359375
769,769,1727989374089,-0.1171875,-0.6519165,-0.21612549,-4.71875,31.25,1.421875
770,770,1727989374129,0.08984375,-0.7229614,-0.13116455,3.28125,23.03125,11.296875
771,771,1727989374169,0.14257812,-0.7437134,-0.121398926,0.625,6.234375,14.59375
772,772,1727989374209,-0.05493164,-0.65753174,-0.10430908,-6.28125,-0.3125,10.109375
773,773,1727989374249,-0.26831055,-0.8118286,-0.17706299,3.390625,-3.578125,3.8125
774,774,1727989374289,-0.13989258,-1.192688,-0.23516846,10.78125,-2.53125,0.84375
775,775,1727989374329,-0.028076172,-1.5527954,-0.05255127,21.046875,-23.09375,9.703125
776,776,1727989374369,-0.01928711,-1.4141235,-0.27545166,14.171875,-17.078125,31.953125
777,777,1727989374409,0.2109375,-1.1599731,-0.50567627,-22.5,-14.265625,33.578125
778,778,1727989374449,0.46606445,-1.3862915,-0.37652588,2.625,-29.03125,1.046875
779,779,1727989374489,0.028808594,-1.1069946,-0.36895752,-0.0625,-24.421875,8.5625
780,780,1727989374529,0.05834961,-0.78253174,-0.124572754,-5.578125,-11.734375,5.296875
781,781,1727989374569,0.26464844,-0.86309814,0.0018920898,-5.953125,-15.734375,-7.515625
782,782,1727989374609,0.1887207,-0.9636841,-0.10699463,-17.46875,-20.765625,-5.875
783,783,1727989374649,0.072753906,-0.77227783,-0.17364502,-4.875,-14.484375,1.046875
784,784,1727989374689,0.119140625,-0.6170044,-0.08331299,7.234375,-10.390625,-0.453125
785,785,1727989374729,0.13061523,-0.6375122,-0.015686035,8.1875,-19.421875,-4.8125
786,786,1727989374769,0.048339844,-0.71466064,-0.0178833,3.984375,-15.859375,-4.171875
787,787,1727989374809,0.026123047,-0.70269775,-0.053527832,-3.5,-12.359375,-3.6875
