,Unnamed: 0,timestamp,accel_x,accel_y,accel_z,gyro_x,gyro_y,gyro_z
0,0,1729191050341,0.10083008,-0.41729736,-0.21392822,15.078125,-1.375,12.8125
1,1,1729191050381,0.44262695,-0.65045166,-0.24713135,-28.6875,-21.484375,-12.0
2,2,1729191050421,0.6826172,-0.98101807,-0.008605957,-23.46875,-2.875,-5.0625
3,3,1729191050461,0.48486328,-0.7827759,0.0072631836,4.0625,8.203125,3.21875
4,4,1729191050501,0.36328125,-0.34405518,-0.13140869,14.578125,-2.0,0.171875
5,5,1729191050541,0.24072266,-0.32720947,-0.11651611,11.578125,-7.0625,-2.859375
6,6,1729191050581,0.26367188,-0.6099243,-0.05279541,-18.90625,-13.40625,3.890625
7,7,1729191050621,0.4086914,-0.73272705,0.014099121,-41.0,-10.875,-1.15625
8,8,1729191050661,0.5227051,-0.9673462,0.03314209,-4.15625,-12.1875,5.265625
9,9,1729191050701,0.6953125,-1.1157837,0.21966553,-23.578125,-15.75,-2.171875
10,10,1729191050741,0.50097656,-1.1795044,0.10809326,0.34375,-3.5625,-19.09375
11,11,1729191050781,0.52075195,-1.3440552,-0.22491455,24.265625,3.265625,-9.546875
12,12,1729191050821,0.89819336,-1.3340454,0.08758545,16.1875,22.828125,-0.0625
13,13,1729191050861,0.44311523,-0.87750244,-0.09552002,27.5,33.96875,-18.8125
14,14,1729191050901,0.25170898,-0.6099243,-0.49273682,22.4375,23.078125,-4.265625
15,15,1729191050941,0.36767578,-0.51763916,-0.27789307,-18.734375,13.796875,1.75
16,16,1729191050981,0.50146484,-0.7334595,-0.1687622,-30.46875,1.328125,-15.578125
17,17,1729191051021,0.23144531,-0.9487915,-0.07550049,-0.453125,24.359375,-9.828125
18,18,1729191051061,0.088134766,-0.5706177,-0.09234619,31.09375,35.90625,8.734375
19,19,1729191051101,0.24365234,-0.395813,-0.15655518,13.1875,25.578125,8.140625
20,20,1729191051141,0.30737305,-0.5281372,-0.22052002,-12.609375,4.90625,10.890625
21,21,1729191051181,0.390625,-0.80133057,-0.17706299,-16.921875,-1.453125,11.828125
22,22,1729191051221,0.4375,-1.0750122,0.02557373,-16.5,8.0625,3.140625
23,23,1729191051261,0.21484375,-1.3096313,0.038024902,-8.453125,10.328125,4.515625
24,24,1729191051301,0.24169922,-1.3423462,-0.12994385,-8.359375,-2.90625,-2.546875
25,25,1729191051341,0.6530762,-1.3699341,-0.3291626,-0.09375,-15.1875,-3.828125
26,26,1729191051381,1.0424805,-1.4060669,-0.29229736,1.953125,-29.515625,24.484375
27,27,1729191051421,1.1176758,-0.70196533,-0.08380127,-5.40625,-13.453125,22.109375
28,28,1729191051461,0.4543457,-0.39923096,-0.16314697,31.453125,12.6875,4.28125
29,29,1729191051501,0.07910156,-0.8381958,-0.2539673,-1.234375,-23.78125,-19.078125
30,30,1729191051541,0.29125977,-0.97442627,-0.10870361,-18.4375,-12.1875,-2.828125
31,31,1729191051581,0.5270996,-0.6748657,0.039489746,10.34375,12.03125,5.0
32,32,1729191051621,0.43530273,-0.26153564,-0.081848145,15.21875,1.109375,-7.09375
33,33,1729191051661,0.21875,-0.30743408,-0.09454346,8.328125,-7.25,-1.53125
34,34,1729191051701,0.11694336,-0.5298462,-0.07330322,-11.5,-9.0625,3.984375
35,35,1729191051741,0.3503418,-0.755188,-0.016662598,-22.09375,-4.5,6.15625
36,36,1729191051781,0.57592773,-0.91241455,0.066833496,-17.65625,-2.515625,6.96875
37,37,1729191051821,0.68725586,-1.1900024,0.24261475,-27.328125,-15.171875,1.21875
38,38,1729191051861,0.61083984,-1.3814087,0.32757568,-11.359375,-2.453125,-20.6875
39,39,1729191051901,0.38354492,-1.1138306,-0.27667236,57.625,13.328125,-21.515625
40,40,1729191051941,0.7805176,-1.2092896,-0.24346924,23.21875,5.4375,15.484375
41,41,1729191051981,0.9379883,-0.9163208,0.026306152,-29.6875,17.578125,-15.203125
42,42,1729191052021,0.2758789,-0.70269775,-0.44732666,46.84375,20.546875,-10.359375
43,43,1729191052061,0.14233398,-0.64923096,-0.53741455,16.59375,15.28125,11.515625
44,44,1729191052101,0.45581055,-0.66412354,-0.22540283,-13.546875,-5.09375,-10.625
45,45,1729191052141,0.46142578,-0.9920044,-0.09136963,9.28125,8.984375,-4.953125
46,46,1729191052181,0.19067383,-0.6621704,-0.085510254,18.640625,27.0625,12.25
47,47,1729191052221,0.1352539,-0.411438,-0.18829346,21.328125,19.921875,10.53125
48,48,1729191052261,0.25683594,-0.4138794,-0.2444458,0.703125,5.609375,10.515625
49,49,1729191052301,0.31323242,-0.5852661,-0.18878174,-12.484375,2.40625,8.09375
50,50,1729191052341,0.34057617,-0.98443604,-0.17242432,-21.921875,-4.859375,5.1875
51,51,1729191052381,0.4465332,-1.3677368,-0.01763916,-21.1875,-10.796875,-3.375
52,52,1729191052421,0.58740234,-1.36969,-0.190979,22.15625,-9.625,-5.5
53,53,1729191052461,0.72143555,-1.2874146,-0.50323486,8.25,-23.28125,14.875
54,54,1729191052501,1.2866211,-1.3074341,-0.32110596,-27.90625,-48.828125,25.34375
55,55,1729191052541,0.8588867,-0.6043091,-0.21929932,15.875,5.578125,-8.484375
56,56,1729191052581,0.09375,-0.54644775,-0.30181885,19.359375,5.359375,-8.171875
57,57,1729191052621,0.15063477,-0.7383423,-0.34259033,-29.703125,-26.8125,-9.578125
58,58,1729191052661,0.5654297,-0.8115845,-0.02545166,-12.65625,-11.640625,-11.375
59,59,1729191052701,0.592041,-0.72076416,0.09539795,-0.84375,6.0625,-9.578125
60,60,1729191052741,0.32055664,-0.3916626,-0.08843994,18.03125,5.578125,-0.0625
61,61,1729191052781,0.13427734,-0.26031494,-0.16778564,15.890625,-3.78125,-2.765625
62,62,1729191052821,0.20336914,-0.44317627,-0.13165283,-7.5,-12.328125,0.109375
63,63,1729191052861,0.4345703,-0.6033325,0.002380371,-34.9375,-16.078125,2.4375
64,64,1729191052901,0.61083984,-0.84991455,0.14910889,-39.75,-21.875,7.765625
65,65,1729191052941,0.47509766,-1.0730591,0.22406006,-41.890625,-19.390625,-1.578125
66,66,1729191052981,0.27929688,-1.2869263,0.35858154,-0.875,-9.203125,-8.078125
67,67,1729191053021,0.55029297,-1.3469849,0.1696167,27.578125,-0.8125,-7.96875
68,68,1729191053061,0.8586426,-1.3184204,0.048034668,25.8125,-9.234375,7.5625
69,69,1729191053101,0.7180176,-1.0752563,0.014343262,-0.203125,11.1875,-4.828125
70,70,1729191053141,0.22241211,-0.8921509,-0.38482666,23.625,24.984375,-11.4375
71,71,1729191053181,0.107666016,-0.8257446,-0.536438,13.515625,31.171875,3.40625
72,72,1729191053221,0.50634766,-0.7930298,-0.22857666,0.609375,37.359375,-4.28125
73,73,1729191053261,0.4663086,-0.85406494,0.059509277,-0.40625,16.265625,-6.1875
74,74,1729191053301,0.28149414,-0.89385986,-0.078430176,-3.40625,13.796875,2.890625
75,75,1729191053341,0.08154297,-0.6343384,-0.14703369,9.5625,41.78125,0.015625
76,76,1729191053381,0.017822266,-0.41705322,-0.22930908,15.15625,33.078125,1.015625
77,77,1729191053421,0.27392578,-0.36480713,-0.19122314,-1.625,24.390625,6.015625
78,78,1729191053461,0.4404297,-0.54644775,-0.21148682,-8.875,13.59375,14.90625
79,79,1729191053501,0.33789062,-0.8052368,-0.108947754,6.828125,9.125,13.3125
80,80,1729191053541,0.35083008,-0.9768677,-0.13189697,-2.421875,0.703125,11.5625
81,81,1729191053581,0.2578125,-1.0320435,-0.066711426,-24.84375,-5.265625,11.625
82,82,1729191053621,0.2841797,-1.3294067,-0.08013916,-37.9375,-10.203125,5.234375
83,83,1729191053661,0.42333984,-1.5745239,0.020935059,-15.359375,-8.125,7.84375
84,84,1729191053701,0.6640625,-1.5410767,-0.14630127,29.65625,4.921875,26.5
85,85,1729191053741,0.63256836,-1.2305298,-0.19561768,-10.28125,7.671875,40.0625
86,86,1729191053781,0.49487305,-0.8760376,-0.58599854,-19.671875,-7.3125,31.234375
87,87,1729191053821,0.40698242,-0.5039673,-0.56817627,1.640625,23.96875,15.484375
88,88,1729191053861,0.6230469,-0.4841919,-0.32232666,-30.328125,22.984375,-6.15625
89,89,1729191053901,0.4897461,-0.59259033,-0.089904785,-42.46875,13.609375,-12.296875
90,90,1729191053941,0.27954102,-1.0442505,-0.32843018,-57.171875,21.375,-14.125
91,91,1729191053981,0.32836914,-1.1360474,-0.40167236,-34.5,28.03125,-10.125
92,92,1729191054021,0.65771484,-0.75177,-0.24591064,-9.59375,59.578125,-8.671875
93,93,1729191054061,0.61987305,-0.45562744,-0.18365479,-22.25,46.484375,-2.921875
94,94,1729191054101,0.515625,-0.6045532,-0.08892822,-37.25,43.34375,9.859375
95,95,1729191054141,0.37841797,-0.7600708,0.0018920898,-52.21875,43.953125,6.0
96,96,1729191054181,0.107421875,-0.8032837,-0.089660645,-47.265625,49.703125,-1.1875
97,97,1729191054221,0.15795898,-0.49908447,-0.1741333,-17.859375,59.171875,-0.40625
98,98,1729191054261,0.41455078,-0.48565674,-0.14727783,-18.390625,55.3125,17.71875
99,99,1729191054301,0.6135254,-0.77838135,0.0770874,-81.78125,27.015625,24.078125
100,100,1729191054341,0.48510742,-1.1143188,0.15789795,-100.3125,13.75,-19.203125
101,101,1729191054381,0.31811523,-1.5691528,0.33221436,-38.640625,6.5,-26.0625
102,102,1729191054421,0.39013672,-1.3276978,-0.42071533,43.203125,22.625,-9.515625
103,103,1729191054461,1.2458496,-0.89971924,0.15985107,87.078125,59.09375,9.765625
104,104,1729191054501,0.61938477,-0.75128174,-0.07232666,20.875,7.546875,-7.5
105,105,1729191054541,0.24804688,-0.9714966,-0.79888916,-21.15625,-5.953125,-19.0625
106,106,1729191054581,0.45385742,-1.2005005,-0.6626587,-14.8125,31.296875,10.625
107,107,1729191054621,0.35595703,-0.8303833,0.10760498,48.5,41.96875,4.109375
108,108,1729191054661,0.3395996,-0.4751587,-0.04156494,5.734375,33.734375,2.671875
109,109,1729191054701,0.15307617,-0.4649048,-0.21295166,-11.984375,18.59375,6.109375
110,110,1729191054741,0.006591797,-0.6104126,-0.25323486,-10.984375,25.390625,-4.6875
111,111,1729191054781,0.28393555,-0.6729126,-0.24786377,-6.203125,24.828125,-2.203125
112,112,1729191054821,0.55810547,-0.61016846,-0.17510986,-9.703125,24.359375,11.40625
113,113,1729191054861,0.3840332,-0.7402954,-0.21588135,-0.796875,10.71875,16.78125
114,114,1729191054901,0.26416016,-1.1140747,-0.19805908,-3.34375,-2.6875,9.984375
115,115,1729191054941,0.3774414,-1.0310669,-0.16534424,-11.78125,5.015625,1.171875
116,116,1729191054981,0.3605957,-1.0977173,-0.25860596,-8.0625,-1.109375,-1.03125
117,117,1729191055021,0.5683594,-1.3569946,-0.411438,-18.5,-13.546875,12.171875
118,118,1729191055061,1.2524414,-1.5203247,-0.37554932,-19.59375,-41.734375,9.34375
119,119,1729191055101,0.9277344,-0.80718994,-0.20269775,11.765625,4.65625,2.5
120,120,1729191055141,0.3725586,-0.5784302,-0.077941895,16.953125,9.09375,16.328125
121,121,1729191055181,0.17114258,-0.78253174,-0.12042236,-23.046875,-7.375,3.234375
122,122,1729191055221,0.33032227,-0.80133057,-0.13458252,-14.296875,-11.09375,-12.515625
123,123,1729191055261,0.52612305,-0.71295166,0.04144287,-0.734375,13.921875,-1.734375
124,124,1729191055301,0.4489746,-0.43927002,-0.002746582,4.171875,9.421875,2.53125
125,125,1729191055341,0.2631836,-0.33087158,-0.0947876,8.71875,3.3125,5.953125
126,126,1729191055381,0.10839844,-0.473938,-0.05230713,-11.59375,1.671875,1.140625
127,127,1729191055421,0.25952148,-0.6983032,-0.06890869,-35.109375,-0.515625,-1.390625
128,128,1729191055461,0.56225586,-0.7227173,0.0848999,-23.21875,4.53125,5.578125
129,129,1729191055501,0.69433594,-0.83917236,0.16986084,-23.984375,-5.375,9.984375
130,130,1729191055541,0.55566406,-1.1035767,0.3270874,-46.875,-27.890625,-1.953125
131,131,1729191055581,0.4350586,-1.3428345,0.30047607,-5.296875,-10.453125,-17.046875
132,132,1729191055621,0.4650879,-1.2617798,0.17694092,45.703125,0.28125,-8.734375
133,133,1729191055661,0.8234863,-1.331604,0.2074585,26.375,-18.984375,5.078125
134,134,1729191055701,0.81591797,-1.046936,-0.06109619,19.328125,10.4375,-13.359375
135,135,1729191055741,0.3149414,-0.6802368,-0.3027954,77.40625,41.359375,-0.34375
136,136,1729191055781,0.15356445,-0.7036743,-0.42071533,11.59375,9.5625,10.5625
137,137,1729191055821,0.27441406,-0.7559204,-0.1795044,-46.171875,-3.0,-17.625
138,138,1729191055861,0.3173828,-1.003479,0.03265381,2.640625,10.921875,-8.140625
139,139,1729191055901,0.28955078,-0.8015747,0.04876709,20.546875,33.171875,3.203125
140,140,1729191055941,0.16845703,-0.44317627,-0.08843994,26.96875,45.046875,-0.359375
141,141,1729191055981,0.17919922,-0.3604126,-0.29815674,17.4375,27.46875,11.03125
142,142,1729191056021,0.21459961,-0.49395752,-0.31671143,3.34375,35.84375,19.359375
143,143,1729191056061,0.23535156,-0.70147705,-0.20977783,1.609375,42.75,17.34375
144,144,1729191056101,0.23583984,-0.89801025,-0.117004395,11.046875,11.03125,16.859375
145,145,1729191056141,0.48583984,-0.93170166,-0.20318604,-10.140625,-10.9375,17.234375
146,146,1729191056181,0.6557617,-1.1101685,-0.21466064,-14.53125,-17.625,9.921875
147,147,1729191056221,0.5131836,-1.4568481,-0.105041504,-31.359375,-26.3125,10.5625
148,148,1729191056261,0.5324707,-1.5889282,-0.28936768,6.9375,-11.25,14.828125
149,149,1729191056301,0.6352539,-1.3848267,-0.42095947,4.515625,-11.6875,33.421875
150,150,1729191056341,0.67700195,-0.8147583,-0.45562744,-16.046875,-0.3125,18.265625
151,151,1729191056381,0.42626953,-0.36627197,-0.614563,12.046875,14.640625,16.34375
152,152,1729191056421,0.6208496,-0.3345337,-0.49664307,-41.03125,-7.421875,2.5625
153,153,1729191056461,0.55981445,-0.54156494,-0.23590088,-54.203125,24.84375,-26.75
154,154,1729191056501,0.1887207,-0.7703247,-0.07891846,-0.84375,9.09375,2.421875
155,155,1729191056541,0.14428711,-0.5755005,-0.16461182,8.609375,18.40625,6.015625
156,156,1729191056581,0.19555664,-0.46783447,-0.10040283,15.1875,18.828125,3.84375
157,157,1729191056621,0.24194336,-0.55255127,-0.15118408,0.734375,18.484375,6.265625
158,158,1729191056661,0.33422852,-0.6831665,-0.11480713,-12.5625,11.9375,13.921875
159,159,1729191056701,0.37939453,-0.81988525,-0.10406494,-8.515625,4.40625,13.734375
160,160,1729191056741,0.35302734,-0.9536743,-0.11138916,12.5,-0.875,10.84375
161,161,1729191056781,0.35986328,-1.0752563,-0.020568848,-5.609375,-7.3125,9.796875
162,162,1729191056821,0.4038086,-1.1472778,-0.0032348633,-4.484375,-5.171875,-1.234375
163,163,1729191056861,0.40307617,-1.2356567,-0.27593994,19.640625,-9.5625,8.75
164,164,1729191056901,0.9645996,-1.5254517,-0.1675415,-26.0625,-33.4375,18.203125
165,165,1729191056941,1.1074219,-1.1204224,-0.35284424,13.734375,13.46875,9.078125
166,166,1729191056981,0.30200195,-0.78692627,-0.29400635,15.140625,15.171875,2.921875
167,167,1729191057021,0.32861328,-0.56866455,-0.14630127,-15.765625,0.953125,0.40625
168,168,1729191057061,0.5576172,-0.69659424,-0.17803955,-28.546875,-1.4375,-10.90625
169,169,1729191057101,0.55322266,-0.9265747,-0.026428223,-14.28125,10.6875,2.3125
170,170,1729191057141,0.40283203,-0.65093994,0.022155762,2.265625,23.109375,7.15625
171,171,1729191057181,0.27294922,-0.38360596,-0.081848145,7.796875,9.640625,2.125
172,172,1729191057221,0.18725586,-0.39898682,-0.0869751,-8.125,5.921875,-3.5
173,173,1729191057261,0.30419922,-0.6084595,-0.04498291,-21.0625,9.15625,-4.96875
174,174,1729191057301,0.44970703,-0.6680298,0.01361084,-21.4375,9.625,-0.28125
175,175,1729191057341,0.5161133,-0.70440674,0.042663574,-3.421875,6.921875,8.6875
176,176,1729191057381,0.6074219,-0.9854126,0.08880615,-27.953125,-10.40625,6.90625
177,177,1729191057421,0.41064453,-1.2861938,0.27166748,-43.03125,0.15625,-11.953125
178,178,1729191057461,0.39770508,-1.2825317,-0.11895752,17.890625,7.1875,-22.21875
179,179,1729191057501,0.9592285,-1.3609009,-0.010803223,15.75,-5.171875,7.84375
180,180,1729191057541,0.7746582,-1.1541138,0.06488037,2.828125,27.25,-21.328125
181,181,1729191057581,0.26171875,-0.9155884,-0.30841064,46.0,36.15625,-18.546875
182,182,1729191057621,0.23242188,-0.66729736,-0.37701416,17.109375,29.46875,5.015625
183,183,1729191057661,0.52563477,-0.61602783,-0.15533447,-24.40625,12.5625,-5.203125
184,184,1729191057701,0.50634766,-0.7346802,-0.07110596,-1.546875,5.640625,-15.5
185,185,1729191057741,0.2084961,-0.8928833,-0.09063721,0.875,12.3125,-3.3125
186,186,1729191057781,0.09082031,-0.6626587,-0.12213135,8.71875,18.0,3.46875
187,187,1729191057821,0.23632812,-0.47442627,-0.20489502,14.6875,6.734375,1.9375
188,188,1729191057861,0.37182617,-0.52593994,-0.15142822,-6.671875,0.65625,0.703125
189,189,1729191057901,0.375,-0.7925415,-0.055236816,-16.078125,-7.515625,4.078125
190,190,1729191057941,0.24682617,-0.9558716,-0.0635376,0.296875,-2.5,3.734375
191,191,1729191057981,0.16967773,-0.923645,-0.13433838,14.890625,3.8125,4.90625
192,192,1729191058021,0.25585938,-0.9307251,-0.015930176,-4.375,-1.328125,4.765625
193,193,1729191058061,0.3696289,-1.190979,0.03729248,-23.796875,-9.953125,-5.15625
194,194,1729191058101,0.43554688,-1.4815063,-0.15142822,9.53125,-9.484375,5.421875
195,195,1729191058141,0.85595703,-1.6924438,-0.25030518,33.578125,-0.25,29.34375
196,196,1729191058181,1.0751953,-1.1206665,-0.25054932,7.328125,-19.21875,26.484375
197,197,1729191058221,0.61572266,-0.43389893,-0.52423096,21.46875,2.328125,6.171875
198,198,1729191058261,0.13647461,-0.62091064,-0.24517822,18.59375,-7.25,1.359375
199,199,1729191058301,0.4675293,-0.8052368,-0.17852783,-25.03125,-32.140625,-8.328125
200,200,1729191058341,0.5517578,-0.8640747,-0.113342285,-11.765625,-11.734375,-9.015625
201,201,1729191058381,0.2836914,-0.61383057,-0.07281494,-1.234375,-0.078125,-2.203125
202,202,1729191058421,0.26782227,-0.35894775,-0.10455322,8.328125,-6.46875,-0.53125
203,203,1729191058461,0.2902832,-0.35430908,-0.050109863,-9.59375,-14.0,-1.484375
204,204,1729191058501,0.26953125,-0.58135986,-0.009338379,-7.0625,-14.046875,1.421875
205,205,1729191058541,0.39233398,-0.78619385,-0.010803223,-14.0,-3.4375,4.78125
206,206,1729191058581,0.5344238,-0.74542236,0.026550293,5.125,1.171875,8.546875
207,207,1729191058621,0.57910156,-0.90460205,0.062683105,-14.84375,-8.71875,5.609375
208,208,1729191058661,0.39819336,-1.1941528,0.1408081,-22.578125,-15.265625,-6.46875
209,209,1729191058701,0.5698242,-1.3435669,0.006286621,-0.796875,3.078125,-26.703125
210,210,1729191058741,0.7548828,-1.4168091,-0.062072754,27.9375,9.4375,-1.640625
211,211,1729191058781,0.8059082,-1.3748169,0.058288574,-33.0625,11.765625,-13.6875
212,212,1729191058821,0.50561523,-0.9788208,-0.24127197,75.203125,38.796875,-23.171875
213,213,1729191058861,0.32543945,-0.62994385,-0.49102783,38.34375,35.203125,7.890625
214,214,1729191058901,0.3371582,-0.51104736,-0.3562622,-27.90625,5.828125,10.0
215,215,1729191058941,0.40234375,-0.6680298,-0.23516846,-21.53125,-10.109375,-18.46875
216,216,1729191058981,0.1730957,-0.98931885,0.0021362305,-6.65625,12.578125,-8.5
217,217,1729191059021,0.13891602,-0.7542114,-0.11187744,10.84375,29.03125,6.125
218,218,1729191059061,0.25195312,-0.23760986,-0.25201416,14.125,31.296875,1.453125
219,219,1729191059101,0.2434082,-0.3135376,-0.29742432,-13.03125,10.5,-0.328125
220,220,1729191059141,0.3918457,-0.7107544,-0.11846924,-24.640625,3.125,7.046875
221,221,1729191059181,0.49316406,-1.1304321,-0.031311035,-15.90625,2.5,8.265625
222,222,1729191059221,0.30566406,-1.1431274,-0.1116333,6.28125,10.96875,6.5625
223,223,1729191059261,0.28808594,-1.0110474,-0.16900635,15.296875,8.25,7.3125
224,224,1729191059301,0.57788086,-1.164856,-0.14703369,-5.5625,-12.078125,6.25
225,225,1729191059341,0.7038574,-1.4429321,-0.47174072,-9.96875,-21.140625,14.703125
226,226,1729191059381,0.8996582,-1.4136353,-0.17901611,-11.703125,-27.0,23.359375
227,227,1729191059421,0.748291,-0.6589966,-0.07525635,10.046875,11.03125,-6.578125
228,228,1729191059461,0.27001953,-0.5737915,-0.33184814,16.25,-7.859375,-0.578125
229,229,1729191059501,0.3449707,-0.7163696,-0.27642822,-21.0625,-17.3125,-1.96875
230,230,1729191059541,0.5175781,-0.923645,-0.027648926,-14.75,-12.15625,-7.25
231,231,1729191059581,0.48779297,-0.76226807,0.043884277,-2.390625,0.90625,-3.84375
232,232,1729191059621,0.33569336,-0.42364502,-0.050109863,21.6875,6.59375,5.75
233,233,1729191059661,0.19091797,-0.31402588,-0.06842041,14.390625,-8.859375,0.078125
234,234,1729191059701,0.17089844,-0.44244385,-0.07086182,-5.09375,-18.375,2.28125
235,235,1729191059741,0.35351562,-0.62872314,-0.03253174,-40.84375,-19.25,8.390625
236,236,1729191059781,0.54418945,-0.79400635,0.12957764,-32.84375,-14.4375,4.765625
237,237,1729191059821,0.5612793,-1.2161255,0.26239014,-23.078125,-24.28125,2.296875
238,238,1729191059861,0.49072266,-1.4424438,0.4093628,-10.390625,-3.84375,-15.046875
239,239,1729191059901,0.54589844,-1.3162231,-0.12579346,57.984375,8.09375,-15.625
240,240,1729191059941,0.8496094,-1.3118286,-0.004699707,18.984375,6.203125,10.703125
241,241,1729191059981,0.5991211,-0.986145,-0.10015869,20.75,21.5,-17.96875
242,242,1729191060021,0.21459961,-0.82818604,-0.5383911,31.921875,36.0625,-5.546875
243,243,1729191060061,0.2163086,-0.6765747,-0.30767822,-10.5625,35.609375,11.84375
244,244,1729191060101,0.46264648,-0.6182251,-0.12335205,-11.375,18.4375,-11.40625
245,245,1729191060141,0.32617188,-0.8477173,-0.1506958,-0.171875,22.84375,-6.9375
246,246,1729191060181,0.09790039,-0.73443604,-0.09552002,6.546875,36.1875,6.171875
247,247,1729191060221,0.15234375,-0.4133911,-0.16680908,23.015625,40.15625,6.390625
248,248,1729191060261,0.31298828,-0.35430908,-0.29718018,6.75,17.5625,16.53125
249,249,1729191060301,0.38671875,-0.4841919,-0.17706299,-16.65625,12.984375,18.015625
250,250,1729191060341,0.35595703,-0.8508911,-0.1296997,-15.40625,15.921875,12.515625
251,251,1729191060381,0.12084961,-1.2046509,-0.17193604,-19.828125,14.28125,8.328125
252,252,1729191060421,0.23413086,-1.3516235,-0.016662598,-17.75,-0.59375,5.0
253,253,1729191060461,0.5834961,-1.3101196,-0.16680908,-9.734375,-7.546875,11.5
254,254,1729191060501,0.9067383,-1.7351685,-0.4180298,12.5,0.109375,38.640625
255,255,1729191060541,0.94384766,-1.236145,-0.41680908,3.359375,13.28125,23.734375
256,256,1729191060581,0.50927734,-0.73516846,-0.5215454,22.8125,16.65625,2.296875
257,257,1729191060621,0.5234375,-0.5598755,-0.059387207,-10.234375,27.890625,5.40625
258,258,1729191060661,0.6152344,-0.6055298,-0.025939941,-50.5,-10.40625,-18.71875
259,259,1729191060701,0.5202637,-0.93585205,-0.117492676,-22.828125,-23.65625,-5.3125
260,260,1729191060741,0.34472656,-0.64556885,0.036071777,-11.4375,9.46875,2.78125
261,261,1729191060781,0.1550293,-0.38409424,-0.17193604,11.3125,4.40625,-8.734375
262,262,1729191060821,0.08105469,-0.36236572,-0.18243408,1.0,2.609375,-6.875
263,263,1729191060861,0.33447266,-0.35528564,-0.10284424,-34.109375,0.140625,-3.09375
264,264,1729191060901,0.5761719,-0.59088135,0.10662842,-37.421875,13.8125,10.5625
265,265,1729191060941,0.36743164,-0.87457275,0.20355225,-60.734375,-13.484375,6.046875
266,266,1729191060981,0.2199707,-1.2288208,0.31756592,-58.671875,-8.796875,-20.78125
267,267,1729191061021,0.46777344,-1.4502563,0.3991089,-27.53125,6.890625,-26.546875
268,268,1729191061061,0.9890137,-1.4749146,0.55999756,29.453125,0.96875,-4.765625
269,269,1729191061101,0.71875,-1.3369751,-0.25030518,44.078125,19.390625,-19.96875
270,270,1729191061141,0.50878906,-0.96417236,-0.53570557,37.953125,29.703125,-24.203125
271,271,1729191061181,0.20263672,-0.75177,-0.28790283,24.171875,14.5625,9.140625
272,272,1729191061221,0.26049805,-0.6655884,-0.29937744,-24.0,8.984375,-2.875
273,273,1729191061261,0.12524414,-0.68927,-0.3352661,-29.265625,19.765625,-9.015625
274,274,1729191061301,0.12792969,-0.82769775,-0.15509033,0.59375,33.453125,-12.4375
275,275,1729191061341,0.05444336,-0.76275635,-0.07208252,-1.421875,29.421875,-3.546875
276,276,1729191061381,0.29418945,-0.63604736,-0.12579346,-24.546875,25.640625,1.171875
277,277,1729191061421,0.28930664,-0.61846924,-0.093811035,-5.109375,34.96875,-2.453125
278,278,1729191061461,0.10546875,-0.7461548,-0.1663208,-1.828125,32.8125,15.078125
279,279,1729191061501,0.11206055,-0.76885986,-0.23077393,-9.984375,26.40625,24.03125
280,280,1729191061541,0.29296875,-0.7625122,-0.19415283,5.90625,28.984375,12.921875
281,281,1729191061581,0.390625,-0.88238525,-0.12530518,12.375,19.6875,17.328125
282,282,1729191061621,0.40625,-1.1314087,0.074401855,-36.5,3.140625,15.53125
283,283,1729191061661,0.23876953,-1.0801392,0.0018920898,8.78125,13.40625,-3.421875
284,284,1729191061701,0.2109375,-1.2210083,-0.13287354,17.984375,-3.859375,14.078125
285,285,1729191061741,0.5751953,-1.5029907,-0.19952393,-15.4375,-9.515625,22.28125
286,286,1729191061781,0.6777344,-1.5852661,-0.19464111,-22.71875,-10.765625,23.625
287,287,1729191061821,0.40112305,-1.0779419,-0.39239502,-15.828125,11.765625,0.90625
288,288,1729191061861,0.35229492,-0.7000122,-0.40826416,10.359375,19.90625,15.484375
289,289,1729191061901,0.8129883,-0.5545044,-0.269104,-18.4375,9.03125,7.46875
290,290,1729191061941,0.81762695,-0.7542114,-0.14923096,-34.75,19.65625,-17.640625
291,291,1729191061981,0.3395996,-1.1104126,-0.21832275,-16.796875,25.734375,-0.328125
292,292,1729191062021,0.33666992,-0.7341919,-0.17852783,-3.34375,25.515625,11.265625
293,293,1729191062061,0.45776367,-0.28741455,-0.085998535,6.0,28.9375,6.375
294,294,1729191062101,0.3630371,-0.2798462,-0.042541504,-11.4375,19.90625,2.015625
295,295,1729191062141,0.25708008,-0.5545044,-0.030578613,-40.3125,13.140625,3.796875
296,296,1729191062181,0.2241211,-0.7654419,-0.06378174,-42.59375,14.4375,-3.53125
297,297,1729191062221,0.41796875,-0.7283325,0.0036010742,-8.296875,20.546875,-0.21875
298,298,1729191062261,0.58691406,-0.72369385,0.049987793,-14.046875,17.25,9.34375
299,299,1729191062301,0.54125977,-0.9451294,0.1552124,-60.625,-4.09375,1.171875
300,300,1729191062341,0.31054688,-1.2144165,0.18914795,-31.296875,5.53125,-19.609375
301,301,1729191062381,0.37548828,-1.3501587,-0.018127441,5.625,7.015625,-16.765625
302,302,1729191062421,0.83081055,-1.2825317,0.04559326,15.4375,0.171875,1.421875
303,303,1729191062461,0.8869629,-1.2351685,-0.0725708,-10.03125,16.203125,-10.0625
304,304,1729191062501,0.3413086,-0.97198486,-0.25933838,45.75,47.890625,-13.140625
305,305,1729191062541,0.25952148,-0.76104736,-0.36993408,34.734375,36.484375,5.796875
306,306,1729191062581,0.49487305,-0.7131958,-0.19268799,-30.5625,24.3125,-4.59375
307,307,1729191062621,0.40454102,-0.6773071,-0.06744385,0.9375,18.90625,-11.53125
308,308,1729191062661,0.17773438,-0.81866455,-0.13311768,8.15625,30.453125,1.734375
309,309,1729191062701,0.06689453,-0.600647,-0.06817627,3.203125,38.53125,7.0
310,310,1729191062741,0.123291016,-0.43634033,-0.13092041,15.53125,29.21875,7.1875
311,311,1729191062781,0.19677734,-0.48345947,-0.22442627,-2.515625,17.765625,11.59375
312,312,1729191062821,0.36889648,-0.678772,-0.23248291,-15.96875,13.546875,13.71875
313,313,1729191062861,0.501709,-1.0025024,-0.09967041,-11.953125,9.515625,17.921875
314,314,1729191062901,0.33276367,-1.237854,-0.035949707,-7.578125,15.171875,14.34375
315,315,1729191062941,0.23022461,-1.3623657,-0.012756348,6.8125,14.328125,6.28125
316,316,1729191062981,0.34838867,-1.1738892,-0.19244385,25.40625,13.5,14.71875
317,317,1729191063021,0.76171875,-1.2839966,-0.628479,-7.015625,-21.828125,30.078125
318,318,1729191063061,1.3920898,-1.4277954,-0.14117432,-22.21875,-33.71875,14.234375
319,319,1729191063101,0.55810547,-0.6934204,-0.22564697,22.453125,42.203125,-1.296875
320,320,1729191063141,-0.03881836,-0.7896118,-0.28009033,-5.453125,17.921875,2.921875
321,321,1729191063181,0.2692871,-0.6687622,-0.33306885,-47.890625,-15.265625,-17.28125
322,322,1729191063221,0.5800781,-0.8262329,-0.06011963,-21.796875,6.734375,-14.8125
323,323,1729191063261,0.5612793,-0.6958618,0.0524292,-12.78125,20.90625,-0.390625
324,324,1729191063301,0.38793945,-0.458313,-0.07598877,4.453125,14.625,7.46875
325,325,1729191063341,0.2529297,-0.3748169,-0.09576416,-3.234375,0.015625,-0.328125
326,326,1729191063381,0.19873047,-0.48809814,-0.059143066,-25.375,-5.3125,-2.625
327,327,1729191063421,0.28833008,-0.5071411,-0.042541504,-17.96875,5.390625,6.578125
328,328,1729191063461,0.4663086,-0.5027466,0.089782715,12.390625,18.15625,16.390625
329,329,1729191063501,0.6118164,-0.7000122,0.2921753,-27.921875,-15.46875,21.703125
330,330,1729191063541,0.2783203,-1.1538696,0.15325928,-81.703125,-36.078125,-0.78125
331,331,1729191063581,-0.05883789,-1.9485474,0.21820068,-37.40625,17.6875,-20.71875
332,332,1729191063621,0.9182129,-1.5552368,0.55096436,11.203125,11.703125,2.3125
333,333,1729191063661,1.111084,-1.2393188,-0.09649658,60.859375,28.265625,-9.84375
334,334,1729191063701,0.576416,-0.94659424,-0.20928955,47.640625,23.0,-14.515625
335,335,1729191063741,0.4128418,-0.67022705,-0.4360962,28.125,4.109375,7.40625
336,336,1729191063781,0.44555664,-0.7842407,-0.7251587,-7.875,7.359375,-4.34375
337,337,1729191063821,0.37426758,-0.7822876,-0.37823486,-20.375,42.65625,-5.109375
338,338,1729191063861,0.22998047,-0.6621704,-0.059143066,21.078125,34.609375,5.953125
339,339,1729191063901,0.26611328,-0.7764282,-0.105041504,-16.5,37.390625,-10.65625
340,340,1729191063941,0.22265625,-0.72662354,-0.2625122,-28.203125,41.84375,-7.484375
341,341,1729191063981,0.11767578,-0.7112427,-0.32965088,-5.4375,61.59375,7.5
342,342,1729191064021,0.2211914,-0.60894775,-0.22564697,-12.0,61.390625,5.078125
343,343,1729191064061,0.34570312,-0.6021118,-0.1729126,-31.375,43.203125,9.03125
344,344,1729191064101,0.4013672,-0.7283325,-0.16729736,-17.34375,33.453125,23.53125
345,345,1729191064141,0.27685547,-0.86138916,-0.21221924,-12.890625,25.09375,19.921875
346,346,1729191064181,0.22192383,-0.89068604,-0.1921997,-5.453125,13.921875,17.046875
347,347,1729191064221,0.35888672,-0.87945557,-0.18341064,-37.640625,2.234375,14.859375
348,348,1729191064261,0.31054688,-1.0518188,0.0016479492,-26.03125,12.921875,-0.859375
349,349,1729191064301,0.15356445,-1.4082642,-0.2522583,4.828125,5.875,6.21875
350,350,1729191064341,0.6569824,-1.4331665,-0.33087158,-14.1875,-18.359375,28.484375
351,351,1729191064381,0.92529297,-1.1795044,-0.09088135,-15.359375,22.6875,10.0625
352,352,1729191064421,0.39648438,-0.85723877,-0.55963135,28.921875,18.3125,16.125
353,353,1729191064461,0.43823242,-0.69732666,-0.3242798,-4.6875,6.6875,19.390625
354,354,1729191064501,1.0563965,-0.5852661,-0.27008057,-35.90625,-5.109375,-11.21875
355,355,1729191064541,0.609375,-1.0252075,-0.18341064,-13.828125,25.265625,-10.375
356,356,1729191064581,0.2602539,-0.97491455,-0.21636963,-18.0,25.125,10.609375
357,357,1729191064621,0.39770508,-0.4656372,-0.21246338,-5.953125,26.578125,4.28125
358,358,1729191064661,0.48120117,-0.2576294,-0.11212158,5.703125,18.71875,0.375
359,359,1729191064701,0.39575195,-0.3748169,-0.039855957,-24.234375,10.375,4.296875
360,360,1729191064741,0.2421875,-0.6489868,-0.01763916,-50.140625,4.484375,5.78125
361,361,1729191064781,0.20605469,-0.7029419,-0.054504395,-33.84375,7.734375,-6.75
362,362,1729191064821,0.39892578,-0.6526489,-0.043029785,-4.109375,13.71875,1.578125
363,363,1729191064861,0.6010742,-0.7661743,0.14642334,-43.84375,11.25,-2.03125
364,364,1729191064901,0.5324707,-1.0090942,0.15228271,-49.671875,-4.484375,-15.375
365,365,1729191064941,0.37719727,-1.3059692,0.16571045,-23.953125,11.234375,-16.03125
366,366,1729191064981,0.44726562,-1.1775513,0.13153076,17.265625,7.46875,-10.46875
367,367,1729191065021,0.9016113,-1.395813,0.22137451,-2.6875,-5.171875,4.734375
368,368,1729191065061,0.7314453,-1.2124634,-0.12945557,20.203125,15.5625,-12.75
369,369,1729191065101,0.46191406,-0.87823486,-0.2769165,63.046875,37.421875,-10.453125
370,370,1729191065141,0.2685547,-0.6765747,-0.38970947,21.3125,30.96875,11.28125
371,371,1729191065181,0.37402344,-0.65875244,-0.2835083,-26.828125,14.40625,-1.890625
372,372,1729191065221,0.36108398,-0.7600708,-0.1338501,1.09375,13.6875,-6.515625
373,373,1729191065261,0.23388672,-0.7822876,-0.062805176,6.96875,26.296875,0.40625
374,374,1729191065301,0.10107422,-0.66851807,-0.10601807,2.953125,35.234375,1.578125
375,375,1729191065341,0.2019043,-0.5779419,-0.24810791,4.15625,25.53125,2.296875
376,376,1729191065381,0.3725586,-0.61553955,-0.19268799,-6.203125,19.5625,8.25
377,377,1729191065421,0.4404297,-0.68536377,-0.12432861,-11.421875,18.5,14.421875
378,378,1729191065461,0.28686523,-0.8911743,-0.10430908,-9.6875,15.21875,12.5
379,379,1729191065501,0.20117188,-1.1355591,-0.1350708,-10.703125,9.96875,6.234375
380,380,1729191065541,0.3569336,-1.2063599,-0.14483643,-8.28125,0.9375,6.65625
381,381,1729191065581,0.6274414,-1.3218384,-0.52178955,2.890625,-16.484375,10.671875
382,382,1729191065621,1.0456543,-1.5830688,-0.16485596,-10.921875,-27.28125,24.75
383,383,1729191065661,1.1352539,-0.84991455,-0.011291504,7.734375,12.015625,23.15625
384,384,1729191065701,0.34375,-0.44708252,-0.4434204,28.015625,18.234375,10.34375
385,385,1729191065741,0.17211914,-0.6448364,-0.3189087,-4.15625,-13.9375,-7.734375
386,386,1729191065781,0.53564453,-0.68048096,-0.11138916,-32.265625,-11.96875,-5.34375
387,387,1729191065821,0.5546875,-0.77349854,0.049987793,-8.015625,-3.03125,5.234375
388,388,1729191065861,0.4580078,-0.4961548,-0.07232666,18.46875,3.09375,-1.59375
389,389,1729191065901,0.42993164,-0.31524658,-0.07672119,33.671875,-8.734375,2.8125
390,390,1729191065941,0.30737305,-0.44244385,-0.19952393,-23.5625,-32.328125,3.78125
391,391,1729191065981,0.31591797,-0.69488525,-0.02178955,-35.796875,-21.46875,-11.015625
392,392,1729191066021,0.44677734,-0.928772,0.06756592,0.421875,-10.390625,-3.671875
393,393,1729191066061,0.63964844,-0.9390259,0.18182373,5.296875,-11.015625,3.5
394,394,1729191066101,0.63964844,-0.9673462,0.090270996,-2.671875,-17.921875,-6.390625
395,395,1729191066141,0.48339844,-1.2039185,-0.15386963,-6.796875,-1.640625,-22.484375
396,396,1729191066181,0.87231445,-1.649231,0.012390137,15.3125,-0.671875,10.1875
397,397,1729191066221,0.7219238,-1.1836548,0.1359253,-0.109375,26.328125,-27.484375
398,398,1729191066261,0.24731445,-0.76275635,-0.4434204,65.015625,35.015625,-32.375
399,399,1729191066301,0.25073242,-0.5339966,-0.5149536,-8.984375,17.1875,8.296875
400,400,1729191066341,0.5463867,-0.5823364,-0.09625244,-33.578125,9.921875,3.78125
401,401,1729191066381,0.40283203,-0.9360962,-0.12530518,-0.125,6.6875,-18.46875
402,402,1729191066421,0.06665039,-0.9404907,-0.12530518,2.21875,17.734375,-5.28125
403,403,1729191066461,0.15478516,-0.5462036,-0.12628174,24.375,23.703125,6.078125
404,404,1729191066501,0.34570312,-0.364563,-0.20611572,13.96875,23.1875,15.5625
405,405,1729191066541,0.37280273,-0.47613525,-0.19586182,-10.234375,13.671875,17.53125
406,406,1729191066581,0.31347656,-0.8386841,-0.1572876,-19.59375,6.25,12.375
407,407,1729191066621,0.32080078,-1.1651001,-0.038635254,-10.03125,6.765625,4.21875
408,408,1729191066661,0.44970703,-1.3428345,-0.08843994,0.578125,-6.0625,0.578125
409,409,1729191066701,0.7512207,-1.3587036,-0.3045044,-15.171875,-21.140625,10.234375
410,410,1729191066741,0.93408203,-1.3320923,-0.4126587,-8.359375,-26.59375,18.015625
411,411,1729191066781,1.0288086,-0.98687744,0.005554199,2.390625,-8.15625,21.953125
412,412,1729191066821,0.6582031,-0.6157837,-0.20977783,6.0,0.8125,4.890625
413,413,1729191066861,0.25317383,-0.64971924,-0.26055908,12.734375,2.78125,-11.71875
414,414,1729191066901,0.28588867,-0.7944946,-0.21832275,-21.9375,-18.65625,-10.140625
415,415,1729191066941,0.46606445,-0.72369385,0.07635498,-17.9375,5.25,2.609375
416,416,1729191066981,0.41064453,-0.44439697,0.028015137,10.078125,4.71875,-5.375
417,417,1729191067021,0.30541992,-0.36212158,-0.058166504,14.609375,1.328125,-5.5625
418,418,1729191067061,0.2043457,-0.42730713,-0.07232666,-3.109375,-9.578125,-0.1875
419,419,1729191067101,0.27563477,-0.64678955,-0.07208252,-26.140625,-12.015625,-0.53125
420,420,1729191067141,0.40649414,-0.7630005,0.057556152,-31.46875,-2.0,-3.953125
421,421,1729191067181,0.55249023,-0.8196411,0.14642334,-8.796875,-1.125,1.890625
422,422,1729191067221,0.54248047,-0.9483032,0.2411499,-23.828125,-8.921875,1.375
423,423,1729191067261,0.43676758,-1.2022095,0.22821045,-22.984375,-12.390625,-15.546875
424,424,1729191067301,0.48339844,-1.3821411,0.23406982,7.421875,6.859375,-20.34375
425,425,1729191067341,0.81469727,-1.4690552,0.12689209,8.75,-25.625,3.796875
426,426,1729191067381,0.96606445,-1.1963501,0.026794434,41.75,14.453125,-12.140625
427,427,1729191067421,0.42773438,-0.77008057,-0.19952393,50.671875,21.921875,-19.578125
428,428,1729191067461,0.16772461,-0.70025635,-0.34136963,-3.640625,6.015625,8.90625
429,429,1729191067501,0.42797852,-0.6655884,-0.28619385,-18.015625,15.4375,-3.53125
430,430,1729191067541,0.42041016,-0.7571411,-0.20465088,16.4375,19.171875,-11.640625
431,431,1729191067581,0.23144531,-0.7608032,-0.054504395,13.453125,15.375,1.484375
432,432,1729191067621,0.18261719,-0.56573486,-0.043762207,7.390625,26.734375,4.609375
433,433,1729191067661,0.19506836,-0.45928955,-0.14752197,12.53125,24.4375,5.890625
434,434,1729191067701,0.30078125,-0.51104736,-0.24468994,6.75,8.140625,11.109375
435,435,1729191067741,0.41796875,-0.67193604,-0.15777588,-3.0,7.328125,14.671875
436,436,1729191067781,0.39282227,-0.9805298,-0.08892822,-6.0,3.546875,8.046875
437,437,1729191067821,0.36132812,-1.3284302,-0.054260254,-8.28125,-3.90625,-1.546875
438,438,1729191067861,0.50756836,-1.3882446,-0.089416504,-3.828125,-12.171875,-3.625
439,439,1729191067901,0.6530762,-1.3306274,-0.43389893,-8.234375,-12.015625,5.46875
440,440,1729191067941,0.8413086,-1.3389282,-0.33355713,-0.15625,-24.5625,25.984375
441,441,1729191067981,1.1101074,-0.7024536,0.038757324,2.1875,-1.734375,7.65625
442,442,1729191068021,0.42626953,-0.39068604,-0.32208252,9.765625,3.703125,-8.59375
443,443,1729191068061,0.09643555,-0.71661377,-0.24737549,-4.828125,-10.53125,-1.171875
444,444,1729191068101,0.3894043,-0.8286743,-0.12213135,-22.15625,-19.984375,-2.265625
445,445,1729191068141,0.6010742,-0.7805786,0.036315918,-1.296875,3.328125,-4.609375
446,446,1729191068181,0.4519043,-0.46539307,-0.016418457,6.390625,6.65625,-3.1875
447,447,1729191068221,0.31152344,-0.37872314,-0.09844971,10.734375,0.734375,0.890625
448,448,1729191068261,0.22338867,-0.50372314,-0.06890869,-12.890625,-13.625,0.96875
449,449,1729191068301,0.3762207,-0.78570557,-0.049621582,-37.9375,-11.578125,-1.734375
450,450,1729191068341,0.48608398,-0.88116455,0.058532715,-32.625,-5.015625,-0.03125
451,451,1729191068381,0.6154785,-1.0317993,0.30584717,-5.21875,-4.265625,8.515625
452,452,1729191068421,0.51708984,-1.0462036,0.21868896,-12.25,-9.65625,-11.125
453,453,1729191068461,0.51342773,-1.1602173,-0.019348145,12.671875,-11.703125,-20.078125
454,454,1729191068501,0.6940918,-1.4060669,0.042175293,4.640625,-0.375,-2.125
455,455,1729191068541,0.7988281,-1.2783813,-0.05596924,26.3125,7.90625,-14.234375
456,456,1729191068581,0.4453125,-0.80474854,-0.26983643,65.421875,22.421875,-9.6875
457,457,1729191068621,0.29882812,-0.6355591,-0.26568604,0.015625,12.796875,4.09375
458,458,1729191068661,0.38500977,-0.69488525,-0.044006348,-24.453125,-0.03125,-18.71875
459,459,1729191068701,0.17944336,-0.8936157,-0.13287354,0.140625,5.34375,-17.046875
460,460,1729191068741,0.01586914,-0.82891846,-0.10235596,13.265625,13.0625,0.578125
461,461,1729191068781,0.21655273,-0.536438,-0.20220947,18.375,13.34375,-2.1875
462,462,1729191068821,0.31713867,-0.47662354,-0.19122314,14.484375,8.359375,3.375
463,463,1729191068861,0.37890625,-0.57818604,-0.19195557,2.90625,-1.546875,16.265625
464,464,1729191068901,0.39526367,-0.6865845,-0.14508057,3.796875,4.21875,20.09375
465,465,1729191068941,0.29833984,-0.7893677,-0.06719971,10.359375,7.796875,12.59375
466,466,1729191068981,0.20214844,-1.0437622,-0.08673096,8.265625,-6.40625,9.359375
467,467,1729191069021,0.47973633,-1.378479,-0.035217285,-10.515625,-19.21875,13.671875
468,468,1729191069061,0.5957031,-1.4468384,-0.1885376,7.484375,5.640625,19.53125
469,469,1729191069101,0.6357422,-1.7229614,-0.3579712,-15.765625,-28.109375,34.421875
470,470,1729191069141,0.9279785,-0.96832275,-0.10235596,-1.40625,-5.59375,14.671875
471,471,1729191069181,0.46142578,-0.4866333,-0.40264893,34.8125,36.921875,6.078125
472,472,1729191069221,0.24902344,-0.63116455,-0.25665283,-14.40625,17.5,-6.765625
473,473,1729191069261,0.32617188,-0.75079346,-0.14361572,-61.4375,4.703125,-15.578125
474,474,1729191069301,0.3305664,-0.95977783,-0.062072754,-29.796875,21.109375,-9.90625
475,475,1729191069341,0.33081055,-0.5901489,-0.14215088,-0.59375,28.453125,-7.25
476,476,1729191069381,0.47802734,-0.3604126,-0.17608643,18.84375,31.84375,-1.4375
477,477,1729191069421,0.45336914,-0.35845947,-0.08013916,-16.6875,17.4375,7.890625
478,478,1729191069461,0.37304688,-0.5383911,-0.050842285,-33.046875,16.84375,10.171875
479,479,1729191069501,0.16699219,-0.7752075,0.10882568,-36.6875,20.84375,-0.0625
480,480,1729191069541,0.041503906,-0.9561157,0.15032959,-23.5625,16.125,-2.265625
481,481,1729191069581,0.1899414,-1.1795044,0.027038574,-30.609375,23.203125,-7.046875
482,482,1729191069621,0.47753906,-1.263977,0.082458496,-41.90625,31.0,-26.625
483,483,1729191069661,0.55566406,-1.0755005,0.010437012,-6.265625,35.3125,-31.875
484,484,1729191069701,0.4958496,-1.2578735,-0.1638794,-19.96875,16.484375,-5.859375
485,485,1729191069741,0.5944824,-1.0962524,-0.2781372,-55.734375,24.96875,-16.75
486,486,1729191069781,0.12866211,-0.9043579,-0.43292236,39.046875,73.1875,-6.375
487,487,1729191069821,0.13549805,-0.8880005,-0.5708618,-1.65625,32.703125,12.984375
488,488,1729191069861,0.37109375,-0.8948364,-0.23052979,-33.578125,39.34375,-8.078125
489,489,1729191069901,0.4091797,-0.92559814,-0.062561035,4.15625,45.625,10.484375
490,490,1729191069941,0.25708008,-0.62042236,-0.09918213,15.671875,40.578125,19.15625
491,491,1729191069981,0.010498047,-0.57647705,-0.25054932,-6.171875,31.421875,23.140625
492,492,1729191070021,0.040039062,-0.694397,-0.32598877,-6.296875,26.0625,23.515625
493,493,1729191070061,0.29467773,-0.756897,-0.2979126,1.46875,12.09375,20.21875
494,494,1729191070101,0.53686523,-0.9199829,-0.049621582,7.796875,-0.234375,22.921875
495,495,1729191070141,0.56469727,-1.0635376,0.047058105,-6.1875,-20.5625,21.75
496,496,1729191070181,0.38964844,-1.0344849,-0.11846924,-3.390625,-14.125,17.96875
497,497,1729191070221,0.19335938,-1.138977,-0.23052979,3.34375,-8.796875,20.625
498,498,1729191070261,0.5578613,-1.795227,-0.20855713,-36.078125,-37.65625,24.6875
499,499,1729191070301,0.826416,-1.3652954,-0.30645752,-3.84375,21.078125,5.15625
500,500,1729191070341,0.4765625,-0.8460083,-0.5039673,18.3125,24.375,4.5625
501,501,1729191070381,0.69921875,-0.40216064,-0.3225708,-5.421875,7.3125,8.203125
502,502,1729191070421,0.7998047,-0.44293213,-0.23565674,-12.921875,18.5,-1.9375
503,503,1729191070461,0.626709,-0.97784424,-0.2637329,-27.3125,9.90625,-2.28125
504,504,1729191070501,0.5827637,-1.0059204,-0.15289307,-22.953125,21.28125,1.890625
505,505,1729191070541,0.56762695,-0.60821533,-0.011779785,9.53125,30.015625,-3.703125
506,506,1729191070581,0.42944336,-0.32598877,0.06488037,7.34375,22.234375,6.71875
507,507,1729191070621,0.050048828,-0.30792236,-0.07208252,-36.4375,13.1875,3.328125
508,508,1729191070661,-0.26489258,-0.38458252,-0.2288208,-25.484375,16.09375,-9.09375
509,509,1729191070701,0.30200195,-0.6946411,-0.24346924,-8.5,26.875,3.0625
510,510,1729191070741,1.0527344,-0.9121704,0.06854248,-70.109375,-0.140625,20.84375
511,511,1729191070781,1.0722656,-1.1565552,0.33270264,-73.203125,-3.140625,-4.609375
512,512,1729191070821,0.35058594,-1.288147,0.012878418,5.484375,23.0625,-31.140625
513,513,1729191070861,0.4152832,-1.2859497,-0.3477173,29.28125,-6.0625,-6.09375
514,514,1729191070901,1.2468262,-1.1878052,-0.101623535,5.25,14.890625,16.90625
515,515,1729191070941,0.7072754,-0.8550415,-0.17388916,37.171875,40.96875,-14.28125
516,516,1729191070981,0.28198242,-0.65948486,-0.33428955,9.765625,27.53125,-3.96875
517,517,1729191071021,0.2241211,-0.6553345,-0.22784424,-27.21875,16.390625,-7.5625
518,518,1729191071061,0.10986328,-0.70147705,-0.17852783,10.265625,30.84375,-13.796875
519,519,1729191071101,0.18847656,-0.6314087,-0.15118408,-4.265625,34.6875,-2.421875
520,520,1729191071141,0.20507812,-0.4812622,-0.14556885,-10.421875,39.53125,2.09375
521,521,1729191071181,0.31518555,-0.5918579,-0.23370361,-1.6875,27.8125,7.296875
522,522,1729191071221,0.41430664,-0.6536255,-0.19781494,-18.828125,20.25,12.921875
523,523,1729191071261,0.37060547,-0.78131104,-0.12799072,-11.734375,20.828125,16.140625
524,524,1729191071301,0.26611328,-0.97320557,-0.13970947,0.59375,19.640625,13.125
525,525,1729191071341,0.27368164,-1.045227,-0.08526611,-4.71875,12.421875,9.921875
526,526,1729191071381,0.38330078,-1.1004028,-0.07891846,-8.578125,9.9375,6.03125
527,527,1729191071421,0.4267578,-1.2388306,-0.35284424,-1.6875,-4.203125,12.921875
528,528,1729191071461,0.90405273,-1.7136841,-0.31939697,-25.46875,-39.296875,19.71875
529,529,1729191071501,1.2385254,-1.1384888,-0.051330566,-4.0,-4.484375,4.859375
530,530,1729191071541,0.5437012,-0.6555786,-0.5947876,23.203125,28.5,12.765625
531,531,1729191071581,0.32177734,-0.6838989,-0.13336182,-6.828125,10.78125,-0.5625
532,532,1729191071621,0.39135742,-0.725647,-0.12432861,-38.234375,-8.875,-22.296875
533,533,1729191071661,0.37646484,-0.93096924,-0.0115356445,-7.703125,8.609375,-4.234375
534,534,1729191071701,0.34277344,-0.54522705,-0.062561035,9.5,14.578125,6.234375
535,535,1729191071741,0.36132812,-0.17633057,-0.117492676,19.640625,9.515625,-5.28125
536,536,1729191071781,0.23120117,-0.2276001,-0.11480713,-8.015625,-7.71875,-6.171875
537,537,1729191071821,0.17382812,-0.642395,-0.13580322,-46.453125,-0.265625,-3.59375
538,538,1729191071861,0.3840332,-1.006897,0.03265381,-47.34375,28.5625,-7.71875
539,539,1729191071901,0.64575195,-0.90826416,0.14422607,-65.65625,8.078125,-31.125
540,540,1729191071941,0.13696289,-0.62872314,0.4286499,-16.171875,3.359375,-11.03125
541,541,1729191071981,0.21411133,-1.1199341,0.09515381,-34.875,-2.578125,-2.21875
542,542,1729191072021,0.37646484,-1.3704224,0.45404053,-55.25,-2.703125,4.78125
543,543,1729191072061,0.5344238,-1.4624634,0.15228271,26.125,-6.953125,-26.53125
544,544,1729191072101,0.7907715,-1.5117798,0.051208496,12.125,1.515625,6.359375
545,545,1729191072141,0.46850586,-1.0928345,-0.2571411,54.59375,33.8125,-14.0625
546,546,1729191072181,0.39038086,-0.784729,-0.37164307,45.140625,8.296875,-4.515625
547,547,1729191072221,0.34375,-0.8233032,-0.34820557,0.109375,13.734375,0.609375
548,548,1729191072261,0.31982422,-0.8616333,-0.2810669,-1.40625,22.65625,0.375
549,549,1729191072301,0.16821289,-0.8555298,-0.24053955,12.46875,27.0625,-0.484375
550,550,1729191072341,0.103271484,-0.6814575,-0.12677002,5.71875,32.234375,-4.453125
551,551,1729191072381,0.07910156,-0.70635986,-0.15655518,-0.03125,32.6875,-3.25
552,552,1729191072421,0.2175293,-0.8167114,-0.18023682,-9.28125,38.140625,-0.546875
553,553,1729191072461,0.22583008,-0.7529907,-0.124572754,-14.140625,37.375,-1.8125
554,554,1729191072501,0.1394043,-0.7293091,-0.20880127,-18.171875,33.734375,4.25
555,555,1729191072541,0.2434082,-0.8394165,-0.12945557,-9.171875,29.5,12.609375
556,556,1729191072581,0.25878906,-0.88287354,-0.10235596,-5.6875,17.765625,15.859375
557,557,1729191072621,0.21289062,-0.85284424,-0.06549072,4.484375,16.078125,17.5625
558,558,1729191072661,0.24365234,-0.88409424,-0.058654785,-2.734375,-1.46875,22.25
559,559,1729191072701,0.18066406,-0.8804321,-0.010070801,-19.15625,-9.8125,15.78125
560,560,1729191072741,-0.13769531,-0.9998169,-0.13140869,-10.59375,6.6875,18.734375
561,561,1729191072781,-0.022460938,-1.1150513,-0.24884033,-5.234375,-2.296875,14.0625
562,562,1729191072821,0.3491211,-1.2546997,-0.32330322,-3.03125,-11.6875,19.21875
563,563,1729191072861,0.9370117,-1.6309204,-0.19952393,-14.03125,-11.390625,31.953125
564,564,1729191072901,0.8210449,-1.4526978,-0.18121338,-4.734375,-2.140625,22.484375
565,565,1729191072941,0.58935547,-0.8369751,-0.3352661,9.171875,19.078125,19.078125
566,566,1729191072981,0.5996094,-0.55426025,-0.1428833,19.84375,24.140625,17.671875
567,567,1729191073021,0.73217773,-0.66119385,-0.13970947,-16.296875,17.40625,2.5625
568,568,1729191073061,0.5834961,-0.8296509,-0.300354,-28.8125,16.75,-8.0
569,569,1729191073101,0.5007324,-0.89508057,-0.24884033,-20.40625,32.640625,3.125
570,570,1729191073141,0.5402832,-0.55792236,-0.27398682,-12.90625,36.21875,-0.171875
571,571,1729191073181,0.47753906,-0.34747314,-0.18218994,-13.875,30.6875,3.6875
572,572,1729191073221,0.5151367,-0.46636963,-0.05279541,-20.515625,33.3125,8.875
573,573,1729191073261,0.35986328,-0.6199341,-0.024230957,-37.984375,24.53125,5.375
574,574,1729191073301,0.14892578,-0.6987915,-0.09454346,-35.125,21.96875,-2.5
575,575,1729191073341,0.35327148,-0.6140747,-0.19244385,-15.28125,34.90625,-2.140625
576,576,1729191073381,0.6328125,-0.6670532,-0.054016113,-29.171875,28.171875,7.40625
577,577,1729191073421,0.67578125,-0.8699341,0.07147217,-51.421875,9.5625,9.0625
578,578,1729191073461,0.3972168,-1.2402954,0.10638428,-37.046875,19.359375,-5.90625
579,579,1729191073501,0.36743164,-1.2424927,-0.19586182,-0.09375,18.375,-21.359375
580,580,1729191073541,0.9638672,-1.1812134,-0.23736572,13.796875,-3.234375,2.796875
581,581,1729191073581,0.9489746,-1.0234985,0.027526855,-8.4375,29.78125,-10.3125
582,582,1729191073621,0.5031738,-0.91729736,-0.36480713,48.578125,28.515625,-16.4375
583,583,1729191073661,0.3491211,-0.75494385,-0.38409424,18.03125,23.6875,7.84375
584,584,1729191073701,0.47802734,-0.6477661,-0.24615479,-16.625,12.40625,2.515625
585,585,1729191073741,0.41577148,-0.80548096,-0.18463135,-5.390625,9.40625,-10.34375
586,586,1729191073781,0.22973633,-0.8230591,-0.101135254,-4.65625,22.96875,-8.1875
587,587,1729191073821,0.1081543,-0.6699829,-0.113342285,4.734375,24.046875,-2.4375
588,588,1729191073861,0.2861328,-0.5720825,-0.20513916,-5.71875,18.796875,1.96875
589,589,1729191073901,0.3383789,-0.4673462,-0.15460205,-9.765625,20.46875,5.828125
590,590,1729191073941,0.29125977,-0.6199341,-0.16241455,-11.84375,7.265625,2.96875
591,591,1729191073981,0.19580078,-0.8753052,-0.105285645,-13.796875,12.125,3.96875
592,592,1729191074021,0.20483398,-0.9883423,-0.12823486,-1.75,12.859375,6.59375
593,593,1729191074061,0.34350586,-1.0835571,-0.027893066,-3.78125,9.234375,2.625
594,594,1729191074101,0.37036133,-1.2051392,-0.05206299,-21.796875,-0.75,0.359375
595,595,1729191074141,0.46069336,-1.4536743,-0.33770752,6.296875,-9.9375,14.28125
596,596,1729191074181,1.019043,-1.6072388,-0.19708252,-27.796875,-47.0,16.0
597,597,1729191074221,1.0319824,-0.94610596,-0.18487549,2.265625,0.421875,10.96875
598,598,1729191074261,0.40161133,-0.5523071,-0.23834229,44.03125,32.84375,17.046875
599,599,1729191074301,0.27294922,-0.64849854,-0.13043213,-8.90625,-5.953125,-4.046875
600,600,1729191074341,0.30273438,-0.73272705,-0.13824463,-21.25,-7.375,-16.3125
601,601,1729191074381,0.47802734,-0.79888916,-0.10040283,5.125,7.421875,5.828125
602,602,1729191074421,0.47753906,-0.4607544,-0.009338379,7.296875,9.09375,3.03125
603,603,1729191074461,0.36401367,-0.31427002,-0.082336426,4.828125,-2.359375,-2.46875
604,604,1729191074501,0.27416992,-0.4492798,-0.086242676,-8.203125,-6.09375,3.21875
605,605,1729191074541,0.3100586,-0.7942505,-0.06573486,-25.703125,-13.53125,11.359375
606,606,1729191074581,0.5344238,-1.098938,0.1005249,-12.46875,-17.09375,7.453125
607,607,1729191074621,0.8779297,-1.4121704,0.2929077,-9.5625,-21.484375,11.46875
608,608,1729191074661,0.58618164,-1.2131958,0.010437012,10.21875,-2.484375,-27.359375
609,609,1729191074701,0.4741211,-1.2131958,-0.4085083,38.71875,8.75,-11.09375
610,610,1729191074741,0.82836914,-1.0015259,-0.062316895,6.015625,14.796875,-8.8125
611,611,1729191074781,0.51708984,-0.7595825,-0.2637329,-3.171875,9.640625,-22.375
612,612,1729191074821,0.28710938,-0.58477783,-0.32061768,55.515625,-20.703125,-9.109375
613,613,1729191074861,0.31860352,-0.5029907,-0.13775635,-3.390625,5.0,-2.375
614,614,1729191074901,0.30419922,-0.69976807,-0.14556885,-1.421875,12.515625,-2.71875
615,615,1729191074941,0.20263672,-0.7307739,-0.14508057,2.015625,18.25,1.84375
616,616,1729191074981,0.23754883,-0.5564575,-0.12994385,17.53125,21.71875,5.828125
617,617,1729191075021,0.33276367,-0.506897,-0.16070557,5.796875,13.359375,11.015625
618,618,1729191075061,0.38183594,-0.5750122,-0.14337158,-2.90625,7.3125,13.328125
619,619,1729191075101,0.35229492,-0.9602661,-0.08282471,-21.390625,0.5625,5.828125
620,620,1729191075141,0.28295898,-1.3870239,-0.015686035,-26.203125,-2.46875,-1.859375
621,621,1729191075181,0.45336914,-1.5137329,-0.09063721,-13.34375,-6.75,-14.0625
622,622,1729191075221,0.6665039,-1.3272095,-0.3743286,9.765625,-10.109375,-4.21875
623,623,1729191075261,1.123291,-1.2168579,-0.1404419,-19.46875,-22.09375,18.453125
624,624,1729191075301,1.0812988,-0.630188,0.06072998,-6.171875,-3.34375,2.359375
625,625,1729191075341,0.16259766,-0.67974854,-0.23931885,18.984375,2.09375,-5.046875
626,626,1729191075381,0.114990234,-0.8352661,-0.2617798,-16.28125,-14.8125,-12.484375
627,627,1729191075421,0.4909668,-0.802063,-0.047668457,-8.359375,-15.0625,-5.859375
628,628,1729191075461,0.59472656,-0.6946411,0.113220215,9.140625,-3.078125,-2.203125
629,629,1729191075501,0.3840332,-0.39849854,-0.0115356445,18.359375,-7.53125,-1.4375
630,630,1729191075541,0.13256836,-0.30792236,-0.08087158,13.078125,-14.796875,1.203125
631,631,1729191075581,0.12817383,-0.49420166,-0.023742676,-2.625,-19.5,-0.03125
632,632,1729191075621,0.31933594,-0.7744751,0.039489746,-27.328125,-14.34375,4.34375
633,633,1729191075661,0.5529785,-1.079895,0.16156006,-26.9375,-17.3125,5.203125
634,634,1729191075701,0.65649414,-1.3467407,0.39837646,-24.984375,-12.59375,2.0625
635,635,1729191075741,0.5744629,-1.1726685,0.24041748,28.828125,-6.875,-23.5625
636,636,1729191075781,0.5124512,-1.2932739,-0.14312744,36.4375,-16.203125,-5.25
637,637,1729191075821,0.7722168,-1.2090454,0.06341553,6.734375,-9.015625,-3.09375
638,638,1729191075861,0.4892578,-0.9248657,-0.3496704,35.78125,10.296875,-25.78125
639,639,1729191075901,0.18286133,-0.7271118,-0.46368408,-0.046875,18.15625,-1.578125
640,640,1729191075941,0.28344727,-0.5881958,-0.11968994,-9.921875,16.25,4.96875
641,641,1729191075981,0.41381836,-0.8123169,-0.050109863,13.140625,15.171875,-10.65625
642,642,1729191076021,0.14794922,-0.8345337,0.0018920898,4.5,16.390625,-5.859375
643,643,1729191076061,0.041992188,-0.5310669,-0.09503174,12.578125,20.34375,5.125
644,644,1729191076101,0.26489258,-0.38433838,-0.23883057,8.640625,9.34375,9.296875
645,645,1729191076141,0.41625977,-0.5005493,-0.13214111,-10.65625,2.9375,8.4375
646,646,1729191076181,0.44018555,-0.76348877,-0.06793213,-7.875,6.9375,13.53125
647,647,1729191076221,0.3161621,-1.112854,-0.046203613,-11.890625,6.65625,14.796875
648,648,1729191076261,0.24707031,-1.1016235,-0.10308838,-15.640625,15.734375,4.671875
649,649,1729191076301,0.54663086,-1.4578247,0.045837402,8.78125,-13.5625,-11.375
650,650,1729191076341,0.7001953,-1.5947876,-0.27178955,-16.5,-11.890625,1.328125
651,651,1729191076381,0.71435547,-1.5252075,-0.3460083,9.90625,-33.078125,9.578125
652,652,1729191076421,0.8769531,-0.9048462,-0.034729004,-1.328125,10.40625,13.125
653,653,1729191076461,0.5488281,-0.35186768,-0.13604736,17.03125,-0.125,14.46875
654,654,1729191076501,0.2866211,-0.58795166,-0.10821533,-8.421875,-17.421875,-10.703125
655,655,1729191076541,0.2475586,-0.8777466,-0.13702393,-9.984375,-18.453125,-13.265625
656,656,1729191076581,0.39160156,-0.878479,-0.0071411133,3.25,0.3125,0.359375
657,657,1729191076621,0.3395996,-0.46466064,-0.06744385,-0.3125,15.96875,0.34375
658,658,1729191076661,0.29467773,-0.31085205,-0.027160645,-2.75,16.265625,-0.078125
659,659,1729191076701,0.26098633,-0.43780518,-0.0076293945,-6.484375,-2.578125,-2.59375
660,660,1729191076741,0.3305664,-0.7024536,0.01361084,-17.28125,-15.921875,0.328125
661,661,1729191076781,0.42211914,-0.81695557,0.10272217,-17.34375,-4.328125,9.734375
662,662,1729191076821,0.45507812,-0.90826416,0.12713623,-6.1875,-0.09375,10.015625
663,663,1729191076861,0.4411621,-1.1333618,0.2723999,-34.625,-13.328125,-5.40625
664,664,1729191076901,0.46191406,-1.3150024,0.19281006,-0.40625,0.390625,-18.109375
665,665,1729191076941,0.546875,-1.2769165,0.08123779,19.125,5.265625,-10.71875
666,666,1729191076981,0.7919922,-1.4570923,0.11981201,37.015625,-10.109375,-0.21875
667,667,1729191077021,0.8071289,-1.1079712,-0.11016846,-9.984375,11.75,-8.015625
668,668,1729191077061,0.24609375,-0.786438,-0.28375244,17.703125,19.90625,-14.984375
669,669,1729191077101,0.15698242,-0.66534424,-0.2798462,27.90625,-0.015625,-6.53125
670,670,1729191077141,0.3317871,-0.7168579,-0.16900635,-6.875,-2.546875,-9.671875
671,671,1729191077181,0.27807617,-0.77593994,-0.09991455,4.890625,-1.125,0.21875
672,672,1729191077221,0.088378906,-0.76348877,-0.11529541,12.265625,1.609375,2.6875
673,673,1729191077261,0.1105957,-0.6538696,-0.12579346,7.609375,12.359375,0.15625
674,674,1729191077301,0.29736328,-0.60406494,-0.14971924,3.125,13.125,5.734375
675,675,1729191077341,0.34765625,-0.6428833,-0.08673096,-9.671875,6.171875,13.328125
676,676,1729191077381,0.24658203,-0.76812744,-0.0947876,-5.109375,11.90625,7.203125
677,677,1729191077421,0.1340332,-0.82281494,-0.024475098,17.5,22.4375,1.6875
678,678,1729191077461,0.16357422,-0.8303833,-0.19683838,13.453125,0.53125,9.59375
679,679,1729191077501,0.3552246,-0.97125244,-0.17242432,5.34375,-11.546875,17.0
680,680,1729191077541,0.5854492,-1.0730591,-0.03765869,1.34375,4.359375,21.5625
681,681,1729191077581,0.44213867,-1.1397095,-0.04864502,-13.21875,7.46875,16.6875
682,682,1729191077621,0.4963379,-1.4094849,-0.14630127,-11.671875,0.75,21.390625
683,683,1729191077661,0.078125,-0.6604614,-0.15362549,-10.265625,24.828125,-0.734375
684,684,1729191077701,0.17529297,-0.7288208,-0.09820557,7.34375,30.859375,4.34375
685,685,1729191077741,0.32250977,-0.61968994,-0.24664307,-6.640625,15.8125,16.140625
686,686,1729191077781,0.40063477,-0.52716064,-0.20806885,-5.515625,18.328125,13.09375
687,687,1729191077821,0.31225586,-0.6865845,-0.14678955,-3.21875,11.234375,17.65625
688,688,1729191077861,0.19946289,-1.0574341,-0.14996338,-14.9375,8.96875,12.5
689,689,1729191077901,0.30517578,-1.18219,-0.14361572,-13.546875,8.15625,-1.078125
690,690,1729191077941,0.41186523,-1.097229,-0.101135254,-2.9375,14.203125,-0.046875
691,691,1729191077981,0.39916992,-0.97491455,-0.38946533,0.296875,3.09375,10.0625
692,692,1729191078021,0.9169922,-1.3049927,-0.4463501,-46.671875,-36.25,8.984375
693,693,1729191078061,1.3359375,-1.5147095,-0.105041504,-8.546875,-4.640625,-7.078125
694,694,1729191078101,0.37280273,-0.9182739,-0.13433838,23.46875,35.328125,7.921875
695,695,1729191078141,0.08520508,-0.57891846,-0.14215088,-12.90625,6.65625,8.171875
696,696,1729191078181,0.3618164,-0.53570557,-0.20953369,-24.046875,-6.125,-16.125
697,697,1729191078221,0.6208496,-0.80792236,-0.022521973,-12.53125,7.234375,-16.578125
698,698,1729191078261,0.58203125,-0.7180786,0.15740967,-8.65625,16.203125,4.515625
699,699,1729191078301,0.41137695,-0.41607666,-0.020812988,9.28125,3.734375,10.046875
700,700,1729191078341,0.171875,-0.3567505,-0.04840088,10.90625,-10.609375,3.0625
701,701,1729191078381,0.09692383,-0.5310669,-0.055725098,-9.71875,-9.640625,-3.796875
702,702,1729191078421,0.35302734,-0.76031494,-0.00592041,-18.234375,-2.484375,5.234375
703,703,1729191078461,0.6164551,-0.9458618,0.10760498,-20.515625,-8.421875,11.625
704,704,1729191078501,0.6040039,-1.3140259,0.369812,-32.0625,-20.171875,4.078125
705,705,1729191078541,0.66967773,-1.5049438,0.22845459,35.53125,3.625,-13.3125
706,706,1729191078581,0.532959,-1.3035278,-0.038635254,61.4375,2.078125,-15.25
707,707,1729191078621,0.5998535,-1.3416138,-0.15093994,9.484375,1.640625,-8.453125
708,708,1729191078661,0.4951172,-0.7888794,-0.5112915,32.53125,32.375,-35.21875
709,709,1729191078701,0.087890625,-0.569397,-0.5418091,-1.484375,28.421875,-0.796875
710,710,1729191078741,0.38378906,-0.42999268,-0.13677979,-11.953125,13.09375,-0.6875
711,711,1729191078781,0.47583008,-0.6980591,-0.04937744,-8.09375,6.5,-12.28125
712,712,1729191078821,0.11254883,-0.91851807,-0.09649658,-16.0,-1.734375,-6.640625
713,713,1729191078861,0.11254883,-0.7058716,-0.16802979,-0.8125,18.859375,-6.796875
714,714,1729191078901,0.29052734,-0.51812744,-0.15509033,2.609375,22.65625,-0.59375
715,715,1729191078941,0.28637695,-0.53253174,-0.12408447,-13.515625,6.953125,7.6875
716,716,1729191078981,0.13916016,-0.8081665,-0.09820557,-26.515625,1.78125,1.875
717,717,1729191079021,-0.017333984,-0.9475708,-0.17803955,1.75,10.140625,-10.125
718,718,1729191079061,0.23046875,-0.9524536,-0.10406494,32.46875,13.375,1.828125
719,719,1729191079101,0.47021484,-0.7251587,-0.05328369,6.921875,0.421875,21.109375
720,720,1729191079141,0.43701172,-0.75738525,0.05609131,-10.65625,-10.53125,11.6875
721,721,1729191079181,0.088134766,-1.2459106,-0.057922363,-27.921875,-21.375,-2.125
722,722,1729191079221,-0.084472656,-1.5515747,-0.14508057,10.421875,-5.796875,17.0
723,723,1729191079261,0.375,-1.1340942,-0.19439697,36.59375,16.71875,21.328125
724,724,1729191079301,0.67456055,-1.3145142,-0.21392822,-7.25,-11.546875,31.5625
725,725,1729191079341,0.92626953,-1.6257935,-0.4512329,-17.46875,-13.359375,35.71875
726,726,1729191079381,0.6010742,-1.0117798,0.005554199,46.828125,35.78125,31.203125
727,727,1729191079421,0.1887207,-0.73272705,-0.3069458,3.765625,36.34375,32.171875
728,728,1729191079461,0.0053710938,-0.600647,-0.77838135,-22.8125,12.609375,11.9375
729,729,1729191079501,0.6188965,-0.54888916,-0.41412354,-11.5,35.328125,-16.5625
730,730,1729191079541,0.73950195,-0.7539673,0.046081543,-63.890625,31.75,-5.453125
731,731,1729191079581,0.52905273,-0.78790283,-0.13555908,-66.484375,13.875,-7.78125
732,732,1729191079621,0.28466797,-0.7715454,-0.22491455,-23.9375,37.53125,-4.390625
733,733,1729191079661,0.10986328,-0.7005005,-0.33087158,-33.890625,42.734375,-0.296875
734,734,1729191079701,0.43847656,-0.58428955,-0.28253174,-46.140625,41.515625,-14.21875
735,735,1729191079741,0.65112305,-0.73809814,0.05291748,-45.09375,42.828125,-13.3125
736,736,1729191079781,0.36645508,-0.8640747,-0.030822754,-42.84375,37.75,4.296875
737,737,1729191079821,0.22021484,-0.79571533,-0.18756104,-29.375,43.375,-0.203125
738,738,1729191079861,0.25830078,-0.63287354,-0.15411377,-13.9375,44.640625,-0.84375
739,739,1729191079901,0.38867188,-0.5928345,-0.10748291,-8.765625,41.078125,7.75
740,740,1729191079941,0.501709,-0.6448364,0.09661865,-32.515625,37.25,6.125
741,741,1729191079981,0.32299805,-0.8760376,0.2333374,-37.796875,43.203125,-8.171875
742,742,1729191080021,0.16455078,-1.1541138,0.23284912,-57.953125,-3.0,-19.078125
743,743,1729191080061,0.2265625,-1.2529907,0.33172607,-17.96875,7.296875,-16.546875
744,744,1729191080101,0.5620117,-1.5264282,-0.040100098,31.078125,-13.671875,-3.203125
745,745,1729191080141,0.96362305,-1.4378052,-0.0022583008,23.84375,13.046875,18.5625
746,746,1729191080181,0.2836914,-1.0947876,-0.31695557,23.03125,26.328125,-21.34375
747,747,1729191080221,0.2043457,-0.8911743,-0.5059204,57.375,29.59375,0.671875
748,748,1729191080261,0.37719727,-0.80255127,-0.5757446,-7.859375,50.15625,9.703125
749,749,1729191080301,0.48950195,-0.83135986,-0.36993408,-19.25,34.65625,9.65625
750,750,1729191080341,0.34448242,-0.80792236,-0.13555908,1.6875,44.046875,12.40625
751,751,1729191080381,0.15014648,-0.69610596,-0.1531372,-0.15625,37.03125,6.65625
752,752,1729191080421,0.037109375,-0.64190674,-0.10308838,-0.84375,48.5625,9.953125
753,753,1729191080461,0.09814453,-0.47369385,-0.222229,-2.234375,44.453125,11.953125
754,754,1729191080501,0.22460938,-0.46832275,-0.28497314,-16.09375,30.34375,13.59375
755,755,1729191080541,0.2709961,-0.72906494,-0.1843872,-36.25,38.609375,12.1875
756,756,1729191080581,0.28857422,-1.0996704,-0.11065674,-27.09375,35.125,11.765625
757,757,1729191080621,0.39819336,-1.3396606,-0.044006348,-25.796875,26.65625,16.90625
758,758,1729191080661,0.4255371,-1.250061,-0.22320557,-17.015625,8.671875,11.421875
759,759,1729191080701,0.46850586,-1.3428345,-0.6194458,12.421875,-29.65625,12.75
