,Unnamed: 0,timestamp,accel_x,accel_y,accel_z,gyro_x,gyro_y,gyro_z
0,0,1727216496119,-0.20825195,-0.89630127,0.42791748,-0.0625,1.5625,1.390625
1,1,1727216496159,-0.20727539,-0.8960571,0.43133545,0.078125,0.640625,0.4375
2,2,1727216496199,-0.21850586,-0.8862915,0.42669678,1.234375,0.8125,0.578125
3,3,1727216496239,-0.21972656,-0.8880005,0.42010498,1.828125,0.453125,0.796875
4,4,1727216496279,-0.22338867,-0.8870239,0.4159546,2.5625,-0.015625,1.25
5,5,1727216496319,-0.22460938,-0.89801025,0.41937256,2.75,0.671875,2.265625
6,6,1727216496359,-0.20629883,-0.89556885,0.4171753,2.8125,1.203125,1.8125
7,7,1727216496399,-0.19433594,-0.8960571,0.41888428,3.0625,2.046875,1.28125
8,8,1727216496439,-0.1899414,-0.8845825,0.40496826,3.0625,1.5625,0.9375
9,9,1727216496479,-0.19482422,-0.8989868,0.40203857,3.171875,1.65625,0.6875
10,10,1727216496519,-0.18188477,-0.8989868,0.38739014,2.765625,1.265625,0.40625
11,11,1727216496559,-0.18652344,-0.91412354,0.39398193,2.3125,1.5625,0.71875
12,12,1727216496599,-0.18896484,-0.9170532,0.38983154,1.59375,1.875,0.65625
13,13,1727216496639,-0.18823242,-0.91119385,0.39178467,1.4375,2.359375,0.296875
14,14,1727216496679,-0.18847656,-0.9116821,0.37860107,1.578125,1.859375,0.09375
15,15,1727216496719,-0.17919922,-0.90802,0.3768921,1.421875,1.296875,-0.140625
16,16,1727216496759,-0.1784668,-0.9126587,0.3842163,0.875,2.1875,-0.3125
17,17,1727216496799,-0.18261719,-0.9060669,0.38372803,-0.546875,2.40625,0.203125
18,18,1727216496839,-0.19091797,-0.91729736,0.40203857,-1.75,2.546875,0.59375
19,19,1727216496879,-0.18969727,-0.90826416,0.4003296,-2.515625,2.46875,0.046875
20,20,1727216496919,-0.1899414,-0.91485596,0.39935303,0.015625,2.53125,0.109375
21,21,1727216496959,-0.18383789,-0.8977661,0.40203857,-2.359375,0.65625,0.125
22,22,1727216496999,-0.18920898,-0.9092407,0.41375732,-2.390625,1.703125,0.359375
23,23,1727216497039,-0.18164062,-0.9060669,0.4147339,-1.109375,0.46875,-0.25
24,24,1727216497079,-0.19116211,-0.90338135,0.40594482,-1.4375,0.90625,-0.296875
25,25,1727216497119,-0.18188477,-0.89556885,0.40472412,-0.5,-0.328125,-0.375
26,26,1727216497159,-0.18115234,-0.90631104,0.4093628,-0.421875,-0.390625,0.09375
27,27,1727216497199,-0.19458008,-0.9006958,0.41033936,-0.53125,-0.09375,0.203125
28,28,1727216497239,-0.19165039,-0.8989868,0.41326904,-0.421875,-0.0625,-0.03125
29,29,1727216497279,-0.19067383,-0.9011841,0.4130249,-0.265625,-0.125,-0.234375
30,30,1727216497319,-0.18920898,-0.9031372,0.41229248,-0.09375,0.21875,-0.1875
31,31,1727216497359,-0.19677734,-0.8987427,0.40789795,-0.890625,0.75,-0.21875
32,32,1727216497399,-0.18798828,-0.89312744,0.4249878,-0.109375,0.921875,-1.25
33,33,1727216497439,-0.19018555,-0.90045166,0.3998413,-1.359375,0.828125,-1.078125
34,34,1727216497479,-0.18554688,-0.90045166,0.4179077,-1.296875,0.734375,-1.140625
35,35,1727216497519,-0.20141602,-0.89630127,0.4208374,-0.71875,0.609375,0.109375
36,36,1727216497559,-0.19750977,-0.8965454,0.42669678,0.03125,1.03125,-0.109375
37,37,1727216497599,-0.19848633,-0.897522,0.42425537,-1.078125,2.296875,-0.0625
38,38,1727216497639,-0.19213867,-0.8875122,0.4232788,-1.390625,1.53125,-0.71875
39,39,1727216497679,-0.19580078,-0.8970337,0.43304443,-1.34375,2.015625,-0.9375
40,40,1727216497719,-0.18652344,-0.90093994,0.4232788,-1.234375,2.328125,-0.515625
41,41,1727216497759,-0.18725586,-0.8899536,0.42645264,-0.4375,1.109375,-0.046875
42,42,1727216497799,-0.1940918,-0.89068604,0.42840576,0.109375,0.984375,0.09375
43,43,1727216497839,-0.19018555,-0.8899536,0.42816162,0.09375,0.625,-0.015625
44,44,1727216497879,-0.19482422,-0.8892212,0.4310913,0.140625,0.71875,0.3125
45,45,1727216497919,-0.20117188,-0.88946533,0.42938232,-0.078125,0.453125,0.53125
46,46,1727216497959,-0.2006836,-0.88726807,0.4298706,0.703125,0.625,0.25
47,47,1727216497999,-0.19116211,-0.8875122,0.4303589,1.0,0.671875,0.359375
48,48,1727216498039,-0.18896484,-0.88897705,0.43206787,-0.03125,1.515625,0.328125
49,49,1727216498079,-0.19091797,-0.88897705,0.42645264,-0.03125,1.0625,-0.140625
50,50,1727216498119,-0.1965332,-0.88848877,0.434021,1.28125,1.40625,0.578125
51,51,1727216498159,-0.18969727,-0.8936157,0.42425537,1.9375,1.96875,0.796875
52,52,1727216498199,-0.1862793,-0.8933716,0.4147339,1.6875,0.578125,1.0625
53,53,1727216498239,-0.18554688,-0.8921509,0.42767334,1.734375,0.0625,0.84375
54,54,1727216498279,-0.18652344,-0.895813,0.42474365,1.453125,0.296875,0.265625
55,55,1727216498319,-0.18041992,-0.89508057,0.4225464,1.6875,0.890625,-0.078125
56,56,1727216498359,-0.18139648,-0.8936157,0.40545654,0.484375,1.359375,-0.015625
57,57,1727216498399,-0.17675781,-0.88726807,0.4171753,0.421875,0.53125,-0.734375
58,58,1727216498439,-0.18286133,-0.8994751,0.42230225,0.53125,0.671875,-0.421875
59,59,1727216498479,-0.19506836,-0.89068604,0.41864014,1.0,1.0625,0.125
60,60,1727216498519,-0.19897461,-0.88946533,0.41571045,0.921875,0.28125,0.078125
61,61,1727216498559,-0.19360352,-0.89434814,0.42132568,1.59375,0.015625,0.390625
62,62,1727216498599,-0.18847656,-0.894104,0.4147339,0.953125,0.0,0.53125
63,63,1727216498639,-0.18188477,-0.8897095,0.41619873,0.90625,0.109375,0.1875
64,64,1727216498679,-0.18457031,-0.8928833,0.40545654,-0.140625,-0.171875,-0.015625
65,65,1727216498719,-0.18969727,-0.90216064,0.41278076,0.046875,0.171875,0.234375
66,66,1727216498759,-0.18408203,-0.89923096,0.41156006,0.15625,-0.59375,0.015625
67,67,1727216498799,-0.1875,-0.89678955,0.41033936,-0.53125,-0.84375,0.328125
68,68,1727216498839,-0.19213867,-0.89727783,0.41375732,-0.40625,-0.59375,0.359375
69,69,1727216498879,-0.19213867,-0.8921509,0.4179077,-1.0625,-0.953125,-0.015625
70,70,1727216498919,-0.19018555,-0.9024048,0.42181396,-0.96875,-0.375,0.015625
71,71,1727216498959,-0.19140625,-0.9014282,0.41375732,-0.859375,-0.234375,0.078125
72,72,1727216498999,-0.19335938,-0.89801025,0.4179077,-0.84375,-0.546875,-0.0625
73,73,1727216499039,-0.19702148,-0.89508057,0.42059326,-0.390625,-0.65625,-0.234375
74,74,1727216499079,-0.1940918,-0.8904419,0.42230225,-0.390625,-0.265625,-0.328125
75,75,1727216499119,-0.18945312,-0.8862915,0.41619873,-0.609375,-0.03125,-0.328125
76,76,1727216499159,-0.18798828,-0.9002075,0.42547607,-0.796875,0.625,-0.375
77,77,1727216499199,-0.19824219,-0.8999634,0.41741943,-1.421875,0.53125,0.03125
78,78,1727216499239,-0.19360352,-0.88360596,0.4315796,-0.203125,0.515625,0.015625
79,79,1727216499279,-0.1965332,-0.8899536,0.42156982,-0.84375,0.671875,-0.34375
80,80,1727216499319,-0.19482422,-0.8892212,0.42230225,-0.796875,-0.078125,-0.734375
81,81,1727216499359,-0.20092773,-0.89019775,0.43499756,-0.109375,-0.40625,-0.40625
82,82,1727216499399,-0.19848633,-0.892395,0.42889404,-0.4375,0.203125,-0.453125
83,83,1727216499439,-0.19946289,-0.8858032,0.4257202,-0.390625,0.515625,-0.3125
84,84,1727216499479,-0.2019043,-0.8809204,0.43328857,-0.390625,0.234375,-0.28125
85,85,1727216499519,-0.20483398,-0.90045166,0.4381714,-0.21875,0.59375,-0.15625
86,86,1727216499559,-0.20019531,-0.8911743,0.4328003,-0.390625,1.03125,-0.375
87,87,1727216499599,-0.20385742,-0.8804321,0.43597412,-0.359375,0.609375,-0.546875
88,88,1727216499639,-0.20214844,-0.8882446,0.43475342,0.125,0.40625,-0.625
89,89,1727216499679,-0.19995117,-0.88897705,0.43328857,0.21875,0.375,-0.453125
90,90,1727216499719,-0.2019043,-0.8858032,0.43206787,-0.09375,0.734375,-0.390625
91,91,1727216499759,-0.20166016,-0.88531494,0.42938232,0.0,0.265625,-0.40625
92,92,1727216499799,-0.20800781,-0.8843384,0.43060303,0.203125,0.46875,-0.234375
93,93,1727216499839,-0.20581055,-0.8843384,0.43499756,0.4375,0.640625,-0.1875
94,94,1727216499879,-0.20605469,-0.8882446,0.4303589,-0.09375,0.78125,-0.28125
95,95,1727216499919,-0.2109375,-0.8887329,0.4303589,0.0,0.546875,-0.484375
96,96,1727216499959,-0.2109375,-0.88531494,0.432312,0.0,0.25,-0.46875
97,97,1727216499999,-0.20874023,-0.8862915,0.43865967,0.609375,0.125,-0.671875
98,98,1727216500039,-0.20776367,-0.8843384,0.42791748,-0.640625,0.5625,-0.6875
99,99,1727216500079,-0.21240234,-0.8897095,0.43182373,-0.46875,0.96875,0.015625
100,100,1727216500119,-0.21264648,-0.8843384,0.43450928,-0.328125,0.828125,-0.140625
101,101,1727216500159,-0.20800781,-0.87994385,0.43328857,-0.109375,0.734375,-0.21875
102,102,1727216500199,-0.21313477,-0.88287354,0.43743896,-0.359375,0.75,0.015625
103,103,1727216500239,-0.2121582,-0.8796997,0.4413452,0.03125,0.578125,0.15625
104,104,1727216500279,-0.21386719,-0.89019775,0.43670654,0.4375,0.796875,-0.0625
105,105,1727216500319,-0.2121582,-0.8838501,0.43695068,0.46875,0.984375,-0.046875
106,106,1727216500359,-0.2121582,-0.88067627,0.43841553,0.3125,1.375,0.078125
107,107,1727216500399,-0.20825195,-0.8855591,0.43450928,-0.265625,1.484375,-0.046875
108,108,1727216500439,-0.21069336,-0.8875122,0.43792725,0.0,1.140625,0.625
109,109,1727216500479,-0.20751953,-0.8928833,0.43182373,0.125,0.671875,0.71875
110,110,1727216500519,-0.2055664,-0.87994385,0.43597412,0.59375,0.28125,0.515625
111,111,1727216500559,-0.21240234,-0.88897705,0.43255615,-0.03125,0.921875,0.453125
112,112,1727216500599,-0.20458984,-0.8862915,0.4364624,0.125,0.203125,0.328125
113,113,1727216500639,-0.20825195,-0.88238525,0.43597412,0.078125,0.015625,0.484375
114,114,1727216500679,-0.20751953,-0.88360596,0.43963623,-0.265625,0.546875,0.3125
115,115,1727216500719,-0.20117188,-0.8826294,0.43719482,0.078125,0.609375,0.21875
116,116,1727216500759,-0.2043457,-0.88165283,0.43914795,-0.359375,0.8125,0.140625
117,117,1727216500799,-0.2019043,-0.8855591,0.44476318,-0.4375,1.0625,-0.03125
118,118,1727216500839,-0.2019043,-0.8821411,0.4430542,-0.40625,0.953125,-0.0625
119,119,1727216500879,-0.20385742,-0.881897,0.44329834,0.109375,0.46875,-0.03125
120,120,1727216500919,-0.20874023,-0.8843384,0.44232178,0.203125,0.625,-0.125
121,121,1727216500959,-0.2006836,-0.8814087,0.4401245,0.515625,0.28125,0.109375
122,122,1727216500999,-0.20825195,-0.8821411,0.44110107,0.25,0.46875,0.0
123,123,1727216501039,-0.20385742,-0.88165283,0.4364624,0.03125,0.609375,-0.015625
124,124,1727216501079,-0.21533203,-0.88165283,0.43865967,0.328125,0.359375,-0.015625
125,125,1727216501119,-0.20263672,-0.88775635,0.4418335,0.265625,0.40625,0.125
126,126,1727216501159,-0.20581055,-0.88409424,0.43963623,0.515625,0.328125,0.046875
127,127,1727216501199,-0.20898438,-0.88238525,0.43719482,0.625,0.328125,-0.03125
128,128,1727216501239,-0.20874023,-0.8911743,0.43328857,-0.234375,0.46875,-0.1875
129,129,1727216501279,-0.20654297,-0.8850708,0.44207764,-0.203125,1.03125,-0.078125
130,130,1727216501319,-0.20117188,-0.88238525,0.434021,0.140625,0.421875,0.015625
131,131,1727216501359,-0.20800781,-0.8796997,0.44818115,0.28125,0.234375,0.34375
132,132,1727216501399,-0.21166992,-0.8855591,0.4413452,0.578125,0.453125,-0.03125
133,133,1727216501439,-0.21362305,-0.88067627,0.434021,0.125,0.46875,0.328125
134,134,1727216501479,-0.21044922,-0.8760376,0.44158936,-0.046875,0.78125,0.3125
135,135,1727216501519,-0.21459961,-0.88775635,0.44329834,0.203125,0.484375,0.21875
136,136,1727216501559,-0.21484375,-0.88775635,0.4454956,0.421875,0.71875,0.1875
137,137,1727216501599,-0.20776367,-0.880188,0.43499756,0.296875,0.734375,0.4375
138,138,1727216501639,-0.20922852,-0.8804321,0.44744873,0.390625,0.640625,0.625
139,139,1727216501679,-0.20996094,-0.8809204,0.4401245,0.140625,1.09375,0.59375
140,140,1727216501719,-0.20654297,-0.8833618,0.43695068,0.375,0.5625,0.734375
141,141,1727216501759,-0.20751953,-0.88531494,0.4376831,0.390625,0.265625,0.734375
142,142,1727216501799,-0.20214844,-0.88653564,0.4406128,0.71875,0.296875,0.875
143,143,1727216501839,-0.20336914,-0.88775635,0.43914795,0.703125,0.234375,1.015625
144,144,1727216501879,-0.19995117,-0.88482666,0.43719482,0.828125,0.046875,0.84375
145,145,1727216501919,-0.19995117,-0.87750244,0.43548584,0.671875,0.15625,0.5
146,146,1727216501959,-0.20117188,-0.88653564,0.44500732,0.859375,-0.15625,0.40625
147,147,1727216501999,-0.20117188,-0.8831177,0.44573975,0.5625,0.703125,0.4375
148,148,1727216502039,-0.20141602,-0.8858032,0.43499756,0.515625,0.46875,0.46875
149,149,1727216502079,-0.20629883,-0.89190674,0.43719482,0.46875,0.78125,0.671875
150,150,1727216502119,-0.19726562,-0.8862915,0.43695068,0.953125,0.609375,0.609375
151,151,1727216502159,-0.20263672,-0.8831177,0.43084717,0.6875,0.84375,0.5625
152,152,1727216502199,-0.19677734,-0.8928833,0.43060303,0.375,1.21875,0.484375
153,153,1727216502239,-0.19726562,-0.88897705,0.43377686,0.46875,0.921875,0.375
154,154,1727216502279,-0.19238281,-0.88409424,0.43182373,0.796875,0.84375,0.4375
155,155,1727216502319,-0.19873047,-0.8911743,0.42840576,0.8125,1.109375,0.5625
156,156,1727216502359,-0.1977539,-0.8870239,0.43304443,0.828125,0.609375,0.453125
157,157,1727216502399,-0.19628906,-0.89263916,0.4315796,0.625,0.703125,0.34375
158,158,1727216502439,-0.1928711,-0.8911743,0.43450928,0.734375,0.59375,0.625
159,159,1727216502479,-0.19360352,-0.89068604,0.42938232,0.421875,0.3125,0.4375
160,160,1727216502519,-0.19458008,-0.88775635,0.4237671,0.390625,0.0,0.578125
161,161,1727216502559,-0.19482422,-0.89019775,0.42669678,0.671875,0.25,0.546875
162,162,1727216502599,-0.19433594,-0.8909302,0.4225464,0.578125,0.109375,0.46875
163,163,1727216502639,-0.19873047,-0.8953247,0.42694092,-0.046875,0.1875,0.65625
164,164,1727216502679,-0.18945312,-0.88409424,0.43133545,0.6875,0.25,0.171875
165,165,1727216502719,-0.1953125,-0.89263916,0.41766357,-0.53125,0.53125,0.328125
166,166,1727216502759,-0.19824219,-0.8936157,0.43255615,-0.140625,0.359375,0.234375
167,167,1727216502799,-0.18969727,-0.8850708,0.4286499,0.328125,0.03125,0.390625
168,168,1727216502839,-0.18896484,-0.8892212,0.43255615,0.078125,0.28125,0.328125
169,169,1727216502879,-0.20141602,-0.8850708,0.43011475,-0.0625,0.578125,0.640625
170,170,1727216502919,-0.19360352,-0.8858032,0.43377686,0.265625,0.453125,0.53125
171,171,1727216502959,-0.1953125,-0.90093994,0.43499756,0.25,0.4375,0.375
172,172,1727216502999,-0.19238281,-0.8880005,0.4335327,0.203125,0.484375,0.234375
173,173,1727216503039,-0.18798828,-0.88409424,0.4257202,0.28125,0.1875,0.40625
174,174,1727216503079,-0.18554688,-0.89019775,0.4274292,0.515625,0.421875,0.421875
175,175,1727216503119,-0.18798828,-0.8892212,0.42132568,0.5625,0.46875,0.5
176,176,1727216503159,-0.1887207,-0.8904419,0.4298706,0.609375,0.640625,0.75
177,177,1727216503199,-0.19091797,-0.8933716,0.432312,0.515625,0.796875,0.90625
178,178,1727216503239,-0.1977539,-0.89678955,0.43084717,0.78125,0.796875,0.9375
179,179,1727216503279,-0.19335938,-0.894104,0.4352417,1.4375,0.390625,0.546875
180,180,1727216503319,-0.18969727,-0.8831177,0.42840576,1.65625,0.375,0.671875
181,181,1727216503359,-0.18603516,-0.8945923,0.4225464,2.234375,-0.390625,0.4375
182,182,1727216503399,-0.18359375,-0.89508057,0.42010498,1.109375,0.65625,0.4375
183,183,1727216503439,-0.17871094,-0.9011841,0.4105835,0.9375,-0.078125,0.25
184,184,1727216503479,-0.18359375,-0.8960571,0.41864014,0.5625,0.78125,0.53125
185,185,1727216503519,-0.17749023,-0.89508057,0.41937256,1.03125,-0.140625,-0.21875
186,186,1727216503559,-0.16723633,-0.89312744,0.41986084,0.640625,0.171875,-0.5625
187,187,1727216503599,-0.15673828,-0.8880005,0.41888428,1.09375,0.515625,-1.53125
188,188,1727216503639,-0.17651367,-0.89923096,0.42230225,1.75,0.046875,-2.71875
189,189,1727216503679,-0.20336914,-0.9260864,0.40374756,2.515625,1.0625,-1.265625
190,190,1727216503719,-0.21826172,-0.9077759,0.3756714,2.046875,0.296875,0.265625
191,191,1727216503759,-0.21728516,-0.8899536,0.40130615,0.515625,-0.65625,-0.078125
192,192,1727216503799,-0.20678711,-0.9006958,0.40325928,0.125,-0.515625,0.21875
193,193,1727216503839,-0.19213867,-0.89019775,0.39520264,1.296875,-0.203125,-0.046875
194,194,1727216503879,-0.17895508,-0.9002075,0.4147339,-0.328125,0.3125,-1.078125
195,195,1727216503919,-0.18701172,-0.911438,0.41326904,0.171875,0.59375,-1.703125
196,196,1727216503959,-0.19165039,-0.9024048,0.41253662,0.015625,1.3125,-1.4375
197,197,1727216503999,-0.19677734,-0.90167236,0.4069214,-0.828125,1.25,-1.5625
198,198,1727216504039,-0.20776367,-0.894104,0.41400146,-0.453125,-0.4375,-1.0
199,199,1727216504079,-0.20605469,-0.8833618,0.41156006,-0.203125,-0.640625,-0.546875
200,200,1727216504119,-0.21435547,-0.88604736,0.4171753,0.0,-0.640625,-1.0625
201,201,1727216504159,-0.21655273,-0.8970337,0.41497803,-1.15625,0.484375,-0.90625
202,202,1727216504199,-0.21435547,-0.89556885,0.40960693,-0.890625,0.875,-0.796875
203,203,1727216504239,-0.21289062,-0.88238525,0.41253662,0.3125,0.609375,-0.046875
204,204,1727216504279,-0.21166992,-0.89678955,0.41912842,2.84375,-1.1875,-0.1875
205,205,1727216504319,-0.21020508,-0.88848877,0.4039917,1.515625,0.140625,-0.359375
206,206,1727216504359,-0.21679688,-0.88897705,0.40374756,0.796875,0.125,-0.71875
207,207,1727216504399,-0.21240234,-0.894104,0.41522217,0.875,0.53125,-0.828125
208,208,1727216504439,-0.22387695,-0.9053345,0.40423584,0.21875,0.890625,-0.21875
209,209,1727216504479,-0.22265625,-0.9055786,0.40496826,-0.03125,0.90625,0.171875
210,210,1727216504519,-0.21044922,-0.89385986,0.4064331,0.09375,0.671875,0.53125
211,211,1727216504559,-0.20800781,-0.89556885,0.40594482,0.46875,0.671875,0.546875
212,212,1727216504599,-0.21069336,-0.89263916,0.41278076,0.359375,0.9375,0.671875
213,213,1727216504639,-0.21948242,-0.90167236,0.40179443,-0.125,1.015625,0.640625
214,214,1727216504679,-0.21948242,-0.9019165,0.40301514,-0.25,0.5625,0.359375
215,215,1727216504719,-0.22558594,-0.9002075,0.39593506,0.046875,1.328125,0.5
216,216,1727216504759,-0.22192383,-0.89727783,0.39764404,0.40625,2.125,0.96875
217,217,1727216504799,-0.21289062,-0.8953247,0.4069214,0.65625,2.859375,1.109375
218,218,1727216504839,-0.19555664,-0.8945923,0.41375732,0.8125,1.703125,0.359375
219,219,1727216504879,-0.19091797,-0.9053345,0.41253662,0.359375,1.078125,-0.1875
220,220,1727216504919,-0.19604492,-0.8887329,0.4220581,1.40625,-0.328125,-1.375
221,221,1727216504959,-0.20483398,-0.9036255,0.401062,0.40625,-0.484375,-1.234375
222,222,1727216504999,-0.21533203,-0.89727783,0.4015503,1.28125,-1.484375,-1.0625
223,223,1727216505039,-0.22680664,-0.8948364,0.39788818,0.984375,-0.953125,-0.390625
224,224,1727216505079,-0.22241211,-0.90216064,0.3986206,-0.359375,-0.015625,0.28125
225,225,1727216505119,-0.21801758,-0.89312744,0.40008545,-0.671875,0.53125,1.0625
226,226,1727216505159,-0.21704102,-0.895813,0.40081787,-0.390625,0.546875,0.40625
227,227,1727216505199,-0.22216797,-0.8965454,0.4069214,0.03125,0.3125,0.125
228,228,1727216505239,-0.21850586,-0.89630127,0.40911865,0.71875,0.265625,-0.046875
229,229,1727216505279,-0.21435547,-0.89508057,0.40008545,0.546875,0.796875,-0.015625
230,230,1727216505319,-0.2163086,-0.89849854,0.41448975,0.328125,1.171875,-0.078125
231,231,1727216505359,-0.21386719,-0.9006958,0.39886475,-0.53125,1.515625,0.390625
232,232,1727216505399,-0.20507812,-0.897522,0.40618896,-0.453125,1.21875,0.578125
233,233,1727216505439,-0.20922852,-0.9055786,0.41131592,-0.765625,0.9375,0.390625
234,234,1727216505479,-0.21362305,-0.9002075,0.40985107,-0.484375,0.53125,0.40625
235,235,1727216505519,-0.2133789,-0.897522,0.40716553,-0.59375,1.171875,0.625
236,236,1727216505559,-0.21313477,-0.89312744,0.40570068,-1.03125,0.90625,0.515625
237,237,1727216505599,-0.21850586,-0.8945923,0.40496826,-0.609375,0.59375,0.4375
238,238,1727216505639,-0.21459961,-0.894104,0.41522217,0.15625,0.40625,0.375
239,239,1727216505679,-0.2133789,-0.9002075,0.41278076,-0.25,0.203125,0.328125
240,240,1727216505719,-0.21728516,-0.8945923,0.42010498,0.046875,0.765625,0.09375
241,241,1727216505759,-0.21313477,-0.89678955,0.4064331,-0.921875,1.46875,0.53125
242,242,1727216505799,-0.21850586,-0.89190674,0.40960693,-0.34375,0.6875,0.578125
243,243,1727216505839,-0.20922852,-0.8909302,0.4171753,0.234375,0.09375,0.625
244,244,1727216505879,-0.2097168,-0.8999634,0.4088745,-0.03125,0.890625,0.546875
245,245,1727216505919,-0.2043457,-0.895813,0.41107178,-0.3125,1.125,0.921875
246,246,1727216505959,-0.20239258,-0.8870239,0.41253662,-0.328125,1.40625,0.765625
247,247,1727216505999,-0.20483398,-0.8904419,0.41815186,-0.203125,1.109375,0.3125
248,248,1727216506039,-0.20385742,-0.8909302,0.42303467,-0.328125,1.296875,0.375
249,249,1727216506079,-0.20141602,-0.8933716,0.4154663,-0.25,0.96875,0.421875
250,250,1727216506119,-0.20605469,-0.89678955,0.41986084,0.125,0.75,0.546875
251,251,1727216506159,-0.20605469,-0.8921509,0.41741943,-0.078125,0.671875,0.796875
252,252,1727216506199,-0.20336914,-0.89727783,0.40838623,0.09375,0.9375,0.890625
253,253,1727216506239,-0.19921875,-0.89727783,0.41864014,0.046875,0.765625,0.375
254,254,1727216506279,-0.19506836,-0.8911743,0.42352295,0.171875,0.515625,0.375
255,255,1727216506319,-0.19335938,-0.8909302,0.4179077,0.234375,0.59375,0.546875
256,256,1727216506359,-0.20507812,-0.895813,0.41741943,0.1875,0.4375,0.3125
257,257,1727216506399,-0.203125,-0.8960571,0.42156982,0.484375,-0.1875,0.3125
258,258,1727216506439,-0.19946289,-0.8936157,0.41131592,0.359375,-0.109375,0.296875
259,259,1727216506479,-0.20288086,-0.89971924,0.41082764,-0.625,0.015625,0.46875
260,260,1727216506519,-0.19677734,-0.8882446,0.42425537,-0.234375,0.3125,0.328125
261,261,1727216506559,-0.19580078,-0.89556885,0.41131592,-1.125,0.703125,0.5
262,262,1727216506599,-0.19970703,-0.9002075,0.42474365,-0.171875,0.671875,0.265625
263,263,1727216506639,-0.19384766,-0.8911743,0.43084717,0.421875,0.421875,0.453125
264,264,1727216506679,-0.19433594,-0.8977661,0.4225464,0.28125,0.6875,0.140625
265,265,1727216506719,-0.19824219,-0.8945923,0.42596436,0.0625,0.703125,0.25
266,266,1727216506759,-0.2019043,-0.8897095,0.42156982,-0.109375,0.796875,0.078125
267,267,1727216506799,-0.20336914,-0.8916626,0.42010498,0.125,-0.078125,0.203125
268,268,1727216506839,-0.19873047,-0.8953247,0.41448975,0.609375,0.171875,0.140625
269,269,1727216506879,-0.1953125,-0.8909302,0.41619873,0.1875,0.390625,0.25
270,270,1727216506919,-0.19238281,-0.8960571,0.42108154,0.328125,0.390625,0.078125
271,271,1727216506959,-0.20239258,-0.8977661,0.41693115,0.390625,0.390625,0.109375
272,272,1727216506999,-0.19995117,-0.8911743,0.41400146,0.4375,0.109375,0.046875
273,273,1727216507039,-0.19921875,-0.8987427,0.42694092,0.71875,0.328125,0.03125
274,274,1727216507079,-0.20166016,-0.8948364,0.42156982,0.40625,0.546875,-0.125
275,275,1727216507119,-0.19873047,-0.8936157,0.41766357,-0.03125,0.828125,-0.03125
276,276,1727216507159,-0.20117188,-0.89263916,0.4159546,-0.171875,0.640625,0.328125
277,277,1727216507199,-0.20410156,-0.8945923,0.41326904,0.078125,0.453125,0.328125
278,278,1727216507239,-0.19799805,-0.90045166,0.4225464,0.453125,0.359375,0.265625
279,279,1727216507279,-0.19555664,-0.89263916,0.4244995,0.484375,0.703125,0.375
280,280,1727216507319,-0.20092773,-0.89801025,0.41375732,0.421875,0.515625,-0.078125
281,281,1727216507359,-0.20019531,-0.8921509,0.42425537,-0.6875,1.34375,0.078125
282,282,1727216507399,-0.2006836,-0.8933716,0.4232788,0.0,0.71875,0.3125
283,283,1727216507439,-0.2019043,-0.88897705,0.42694092,-0.109375,0.671875,0.328125
284,284,1727216507479,-0.19702148,-0.8987427,0.42108154,0.40625,0.5625,0.34375
285,285,1727216507519,-0.19555664,-0.8999634,0.41741943,-0.234375,1.125,0.359375
286,286,1727216507559,-0.20141602,-0.8880005,0.4196167,-0.109375,0.921875,0.375
287,287,1727216507599,-0.20043945,-0.8897095,0.4220581,0.1875,0.609375,0.28125
288,288,1727216507639,-0.18896484,-0.8945923,0.4232788,0.296875,0.4375,0.40625
289,289,1727216507679,-0.19165039,-0.89508057,0.42425537,0.453125,0.59375,0.015625
290,290,1727216507719,-0.19604492,-0.8909302,0.41864014,0.359375,0.71875,-0.171875
291,291,1727216507759,-0.20092773,-0.8904419,0.4196167,0.359375,0.59375,0.125
292,292,1727216507799,-0.19873047,-0.8945923,0.4154663,0.53125,0.09375,0.21875
293,293,1727216507839,-0.1953125,-0.89678955,0.42108154,0.421875,0.328125,0.28125
294,294,1727216507879,-0.19750977,-0.89678955,0.41766357,0.171875,0.46875,0.109375
295,295,1727216507919,-0.19360352,-0.9024048,0.42132568,0.34375,0.265625,0.046875
296,296,1727216507959,-0.19311523,-0.89190674,0.4179077,0.234375,0.453125,-0.109375
297,297,1727216507999,-0.19750977,-0.8928833,0.41815186,0.40625,0.375,-0.1875
298,298,1727216508039,-0.20336914,-0.89263916,0.41986084,0.109375,0.234375,-0.296875
299,299,1727216508079,-0.20532227,-0.8977661,0.4196167,0.03125,0.03125,-0.03125
300,300,1727216508119,-0.20166016,-0.8989868,0.42010498,-0.109375,0.203125,-0.140625
301,301,1727216508159,-0.20019531,-0.897522,0.4159546,-0.59375,0.78125,-0.15625
302,302,1727216508199,-0.20092773,-0.88848877,0.4249878,0.03125,0.640625,-0.421875
303,303,1727216508239,-0.20141602,-0.895813,0.42596436,-0.28125,1.140625,-0.21875
304,304,1727216508279,-0.19677734,-0.89019775,0.42816162,-0.046875,0.96875,-0.203125
305,305,1727216508319,-0.20043945,-0.8850708,0.42523193,0.203125,0.21875,-0.265625
306,306,1727216508359,-0.19824219,-0.89849854,0.4232788,0.40625,0.40625,-0.28125
307,307,1727216508399,-0.20336914,-0.8870239,0.418396,0.375,0.28125,-0.265625
308,308,1727216508439,-0.20214844,-0.8897095,0.42156982,0.25,0.359375,0.046875
309,309,1727216508479,-0.20336914,-0.892395,0.418396,0.421875,-0.015625,-0.015625
310,310,1727216508519,-0.19799805,-0.89727783,0.4225464,0.34375,0.328125,0.109375
311,311,1727216508559,-0.20019531,-0.89190674,0.41693115,0.3125,0.4375,0.09375
312,312,1727216508599,-0.20263672,-0.8897095,0.41912842,0.515625,0.25,0.03125
313,313,1727216508639,-0.2055664,-0.8897095,0.41644287,0.828125,0.796875,0.28125
314,314,1727216508679,-0.20605469,-0.8904419,0.42034912,0.546875,0.234375,-0.3125
315,315,1727216508719,-0.20629883,-0.8994751,0.41888428,0.09375,0.46875,-0.46875
316,316,1727216508759,-0.2084961,-0.8921509,0.41400146,-0.203125,1.078125,-0.4375
317,317,1727216508799,-0.20336914,-0.88775635,0.41815186,0.71875,0.0625,-0.078125
318,318,1727216508839,-0.19555664,-0.89556885,0.42279053,0.203125,-0.265625,0.546875
319,319,1727216508879,-0.19335938,-0.88775635,0.4088745,0.421875,-0.09375,0.859375
320,320,1727216508919,-0.1965332,-0.88653564,0.4064331,2.359375,-0.265625,1.78125
321,321,1727216508959,-0.21972656,-0.894104,0.41497803,2.875,-0.03125,2.296875
322,322,1727216508999,-0.20825195,-0.8982544,0.40911865,1.78125,0.3125,2.484375
323,323,1727216509039,-0.19750977,-0.8845825,0.4154663,1.34375,1.671875,1.8125
324,324,1727216509079,-0.19262695,-0.9170532,0.4389038,0.921875,0.984375,0.484375
325,325,1727216509119,-0.17993164,-0.90045166,0.41693115,0.328125,0.890625,0.296875
326,326,1727216509159,-0.18383789,-0.8882446,0.3973999,-0.015625,-1.0,0.078125
327,327,1727216509199,-0.19189453,-0.89508057,0.3998413,-0.703125,-0.984375,0.109375
328,328,1727216509239,-0.19799805,-0.90753174,0.41522217,-0.703125,-0.65625,-0.171875
329,329,1727216509279,-0.2121582,-0.9089966,0.40716553,-1.375,0.421875,-0.21875
330,330,1727216509319,-0.2084961,-0.8945923,0.4105835,-1.90625,0.921875,0.3125
331,331,1727216509359,-0.20288086,-0.89019775,0.4022827,-1.515625,0.828125,0.375
332,332,1727216509399,-0.20410156,-0.89263916,0.40594482,-1.625,1.390625,0.78125
333,333,1727216509439,-0.19824219,-0.895813,0.42156982,-1.71875,1.46875,0.28125
334,334,1727216509479,-0.1928711,-0.89971924,0.432312,-1.109375,1.78125,0.25
335,335,1727216509519,-0.1899414,-0.89141846,0.42840576,-0.484375,1.0,-0.078125
336,336,1727216509559,-0.18359375,-0.8960571,0.42425537,0.5625,0.046875,-0.0625
337,337,1727216509599,-0.19189453,-0.89190674,0.41986084,0.65625,0.03125,0.203125
338,338,1727216509639,-0.1953125,-0.88653564,0.41986084,-0.015625,0.453125,0.515625
339,339,1727216509679,-0.18701172,-0.8977661,0.42230225,-0.1875,0.296875,0.71875
340,340,1727216509719,-0.19067383,-0.90460205,0.42669678,0.484375,0.609375,0.5625
341,341,1727216509759,-0.19384766,-0.89971924,0.41986084,0.84375,1.0,0.625
342,342,1727216509799,-0.19921875,-0.8850708,0.41253662,-0.03125,1.0625,0.71875
343,343,1727216509839,-0.1953125,-0.88946533,0.4154663,0.109375,0.46875,0.296875
344,344,1727216509879,-0.19946289,-0.8862915,0.4249878,0.65625,-0.296875,0.171875
345,345,1727216509919,-0.19995117,-0.90826416,0.4274292,1.03125,0.0,0.125
346,346,1727216509959,-0.18554688,-0.8936157,0.42303467,0.09375,2.09375,0.46875
347,347,1727216509999,-0.17871094,-0.892395,0.41156006,-0.109375,0.671875,-0.375
348,348,1727216510039,-0.19384766,-0.90167236,0.4237671,-0.953125,0.390625,0.15625
349,349,1727216510079,-0.19165039,-0.8897095,0.4225464,0.296875,0.28125,0.546875
350,350,1727216510119,-0.19262695,-0.8845825,0.42010498,-0.8125,1.15625,0.46875
351,351,1727216510159,-0.19580078,-0.9006958,0.42694092,-0.234375,0.578125,0.234375
352,352,1727216510199,-0.18554688,-0.8899536,0.42694092,0.28125,0.328125,0.1875
353,353,1727216510239,-0.18896484,-0.895813,0.42791748,0.5625,0.21875,-0.28125
354,354,1727216510279,-0.18676758,-0.89508057,0.42108154,0.40625,0.21875,-0.5
355,355,1727216510319,-0.19213867,-0.8921509,0.41619873,-0.015625,0.703125,-0.125
356,356,1727216510359,-0.19921875,-0.89141846,0.41619873,-0.171875,0.6875,0.1875
357,357,1727216510399,-0.19873047,-0.8999634,0.42474365,-0.296875,0.265625,0.09375
358,358,1727216510439,-0.1850586,-0.8911743,0.42767334,-0.109375,0.515625,-0.09375
359,359,1727216510479,-0.18359375,-0.8936157,0.42352295,0.0625,0.296875,-0.171875
360,360,1727216510519,-0.18310547,-0.88360596,0.42840576,0.15625,0.078125,-0.59375
361,361,1727216510559,-0.19262695,-0.89678955,0.42010498,0.296875,-0.609375,-0.59375
362,362,1727216510599,-0.20483398,-0.89630127,0.42132568,0.984375,-1.234375,-0.03125
363,363,1727216510639,-0.21191406,-0.88726807,0.42156982,1.34375,-0.96875,0.0
364,364,1727216510679,-0.20947266,-0.89263916,0.4225464,0.828125,0.3125,0.34375
365,365,1727216510719,-0.2006836,-0.8858032,0.42474365,0.71875,0.421875,0.28125
366,366,1727216510759,-0.19091797,-0.90338135,0.41766357,-0.296875,0.8125,0.15625
367,367,1727216510799,-0.19482422,-0.8928833,0.41888428,-0.34375,1.625,0.265625
368,368,1727216510839,-0.18847656,-0.8916626,0.41741943,0.71875,1.015625,-0.421875
369,369,1727216510879,-0.19311523,-0.89801025,0.42547607,0.8125,0.765625,0.296875
370,370,1727216510919,-0.1953125,-0.89190674,0.42840576,1.28125,-0.046875,-0.140625
371,371,1727216510959,-0.19946289,-0.90167236,0.41497803,0.1875,0.828125,0.046875
372,372,1727216510999,-0.20141602,-0.89019775,0.4220581,0.53125,0.75,0.65625
373,373,1727216511039,-0.17407227,-0.8779907,0.4081421,-0.0625,-1.921875,-0.15625
374,374,1727216511079,-0.20117188,-0.90289307,0.4130249,1.171875,0.609375,-0.09375
375,375,1727216511119,-0.19873047,-0.9019165,0.41107178,1.078125,-0.125,-0.796875
376,376,1727216511159,-0.1940918,-0.9036255,0.41912842,0.1875,1.3125,-0.40625
377,377,1727216511199,-0.19628906,-0.89556885,0.4159546,1.15625,1.125,-0.34375
378,378,1727216511239,-0.19873047,-0.89727783,0.40545654,-0.75,0.8125,-0.4375
379,379,1727216511279,-0.19360352,-0.89434814,0.41571045,0.0625,-0.890625,0.109375
380,380,1727216511319,-0.19677734,-0.8977661,0.42279053,1.0625,-1.21875,-0.75
381,381,1727216511359,-0.21728516,-0.9036255,0.4142456,0.765625,0.171875,-0.375
382,382,1727216511399,-0.20654297,-0.88360596,0.41375732,1.390625,-0.328125,-0.21875
383,383,1727216511439,-0.20581055,-0.8899536,0.4088745,-0.4375,0.25,0.265625
384,384,1727216511479,-0.20239258,-0.89630127,0.4171753,0.3125,-0.109375,0.625
385,385,1727216511519,-0.19116211,-0.8960571,0.41644287,0.171875,0.359375,-0.046875
386,386,1727216511559,-0.18920898,-0.8960571,0.41082764,0.578125,0.6875,-0.171875
387,387,1727216511599,-0.20117188,-0.8994751,0.4081421,0.515625,-0.109375,-0.5
388,388,1727216511639,-0.20117188,-0.9031372,0.42474365,0.359375,0.171875,-1.046875
389,389,1727216511679,-0.21069336,-0.9024048,0.40325928,-0.546875,0.53125,0.203125
390,390,1727216511719,-0.20751953,-0.88775635,0.4130249,-0.5,0.03125,0.328125
391,391,1727216511759,-0.21191406,-0.89849854,0.4142456,-0.609375,-0.09375,-0.234375
392,392,1727216511799,-0.20678711,-0.8936157,0.42279053,-0.125,0.484375,-0.34375
393,393,1727216511839,-0.20800781,-0.8867798,0.41741943,0.40625,-0.75,-0.109375
394,394,1727216511879,-0.20288086,-0.894104,0.42059326,0.015625,0.578125,-0.078125
395,395,1727216511919,-0.19946289,-0.8970337,0.41033936,-0.734375,1.453125,-0.03125
396,396,1727216511959,-0.19824219,-0.89019775,0.41864014,-0.375,1.765625,-0.46875
397,397,1727216511999,-0.20117188,-0.8965454,0.4076538,-0.640625,1.1875,-0.5625
398,398,1727216512039,-0.20361328,-0.89849854,0.4147339,-0.046875,0.1875,-0.453125
399,399,1727216512079,-0.21044922,-0.8892212,0.41131592,1.390625,-2.0,-0.703125
400,400,1727216512119,-0.21801758,-0.8916626,0.42156982,1.21875,-1.234375,-0.453125
401,401,1727216512159,-0.22680664,-0.8909302,0.42474365,0.140625,0.828125,0.453125
402,402,1727216512199,-0.21435547,-0.88946533,0.41351318,-0.28125,0.375,-0.140625
403,403,1727216512239,-0.20922852,-0.89312744,0.41888428,0.0,0.203125,-0.359375
404,404,1727216512279,-0.21118164,-0.8953247,0.41278076,0.21875,0.234375,-0.25
405,405,1727216512319,-0.20703125,-0.89019775,0.40863037,-0.328125,0.890625,-0.046875
406,406,1727216512359,-0.2163086,-0.895813,0.42352295,0.171875,0.125,0.359375
407,407,1727216512399,-0.22583008,-0.89190674,0.41912842,0.421875,0.375,0.6875
408,408,1727216512439,-0.22192383,-0.9036255,0.4064331,0.109375,-0.078125,0.53125
409,409,1727216512479,-0.21411133,-0.89190674,0.4274292,-0.3125,1.171875,1.25
410,410,1727216512519,-0.21484375,-0.89019775,0.42132568,0.578125,1.15625,1.390625
411,411,1727216512559,-0.21459961,-0.88653564,0.418396,-0.3125,1.53125,1.5625
412,412,1727216512599,-0.20727539,-0.89630127,0.42108154,-0.6875,1.296875,1.3125
413,413,1727216512639,-0.19628906,-0.90093994,0.4159546,-1.296875,2.296875,1.140625
414,414,1727216512679,-0.20385742,-0.88848877,0.4244995,-1.28125,1.390625,1.5
415,415,1727216512719,-0.19262695,-0.8945923,0.42181396,-2.1875,1.921875,1.15625
416,416,1727216512759,-0.20019531,-0.8960571,0.4208374,-1.375,0.90625,1.28125
417,417,1727216512799,-0.20458984,-0.8855591,0.42401123,-1.578125,2.5,1.390625
418,418,1727216512839,-0.18798828,-0.8760376,0.4364624,-2.25,2.734375,0.4375
419,419,1727216512879,-0.18969727,-0.8928833,0.43621826,-1.875,2.59375,-0.203125
420,420,1727216512919,-0.19165039,-0.88604736,0.45184326,-1.546875,2.015625,-0.203125
421,421,1727216512959,-0.1850586,-0.880188,0.4389038,0.671875,1.265625,-0.15625
422,422,1727216512999,-0.18969727,-0.8936157,0.44451904,0.8125,-0.0625,-0.5625
423,423,1727216513039,-0.2055664,-0.8858032,0.43597412,1.546875,0.0625,-0.0625
424,424,1727216513079,-0.21118164,-0.8838501,0.42132568,-0.3125,0.890625,0.90625
425,425,1727216513119,-0.20605469,-0.89190674,0.432312,-0.96875,1.015625,1.078125
426,426,1727216513159,-0.18676758,-0.8899536,0.44647217,-0.40625,1.59375,1.03125
427,427,1727216513199,-0.18188477,-0.8838501,0.44525146,0.375,1.5625,0.953125
428,428,1727216513239,-0.1706543,-0.8928833,0.4389038,1.46875,1.28125,0.1875
429,429,1727216513279,-0.17163086,-0.88238525,0.44036865,2.921875,0.921875,-0.828125
430,430,1727216513319,-0.18603516,-0.8897095,0.4118042,0.671875,0.40625,-0.59375
431,431,1727216513359,-0.18896484,-0.8921509,0.43914795,0.734375,0.234375,-0.4375
432,432,1727216513399,-0.2109375,-0.89312744,0.44329834,0.296875,1.34375,0.0625
433,433,1727216513439,-0.20043945,-0.8843384,0.43988037,0.375,1.609375,0.625
434,434,1727216513479,-0.18383789,-0.89019775,0.41912842,-0.234375,0.9375,0.90625
435,435,1727216513519,-0.17675781,-0.8862915,0.42230225,-1.0,0.21875,0.40625
436,436,1727216513559,-0.18139648,-0.8965454,0.43572998,-0.296875,0.078125,0.203125
437,437,1727216513599,-0.18261719,-0.8870239,0.43572998,0.15625,0.140625,-0.3125
438,438,1727216513639,-0.18774414,-0.8821411,0.4315796,0.109375,-0.203125,-0.234375
439,439,1727216513679,-0.19360352,-0.88409424,0.43743896,0.859375,-1.3125,-0.46875
440,440,1727216513719,-0.19262695,-0.8897095,0.4430542,1.109375,-1.25,-0.109375
441,441,1727216513759,-0.20336914,-0.89385986,0.43426514,0.90625,-0.75,0.390625
442,442,1727216513799,-0.19213867,-0.892395,0.43475342,0.453125,-0.484375,0.09375
443,443,1727216513839,-0.19213867,-0.8916626,0.42694092,0.5,-0.578125,0.15625
444,444,1727216513879,-0.18554688,-0.88653564,0.43548584,1.015625,-0.5625,-0.1875
445,445,1727216513919,-0.18554688,-0.8875122,0.42938232,0.75,-0.09375,-0.1875
446,446,1727216513959,-0.19165039,-0.8948364,0.42669678,0.484375,0.078125,-0.421875
447,447,1727216513999,-0.19482422,-0.8936157,0.4262085,0.328125,0.078125,-0.671875
448,448,1727216514039,-0.20532227,-0.8911743,0.42938232,0.265625,0.09375,-0.125
449,449,1727216514079,-0.20458984,-0.88531494,0.43572998,0.28125,0.0,0.0
450,450,1727216514119,-0.20581055,-0.9019165,0.4298706,0.34375,-0.078125,-0.03125
451,451,1727216514159,-0.20019531,-0.8909302,0.42816162,0.28125,-0.046875,-0.09375
452,452,1727216514199,-0.1977539,-0.8833618,0.4244995,0.625,-0.71875,-0.0625
453,453,1727216514239,-0.20043945,-0.89019775,0.42938232,0.578125,0.234375,-0.09375
454,454,1727216514279,-0.19384766,-0.8875122,0.42010498,-0.015625,0.40625,-0.1875
455,455,1727216514319,-0.20019531,-0.8892212,0.41693115,-0.46875,0.40625,-0.25
456,456,1727216514359,-0.20727539,-0.894104,0.432312,-0.4375,0.015625,-0.203125
457,457,1727216514399,-0.20166016,-0.8887329,0.43011475,0.515625,0.109375,-0.25
458,458,1727216514439,-0.2006836,-0.88775635,0.42645264,0.359375,0.359375,0.15625
459,459,1727216514479,-0.19946289,-0.8850708,0.43304443,0.375,0.296875,-0.03125
460,460,1727216514519,-0.20654297,-0.88238525,0.43011475,0.328125,0.3125,-0.03125
461,461,1727216514559,-0.20776367,-0.8909302,0.42645264,0.625,0.203125,-0.03125
462,462,1727216514599,-0.20898438,-0.88848877,0.4286499,0.34375,0.328125,0.03125
463,463,1727216514639,-0.20410156,-0.8921509,0.4274292,0.453125,0.3125,0.234375
464,464,1727216514679,-0.2055664,-0.8948364,0.41815186,-0.0625,0.96875,0.09375
465,465,1727216514719,-0.2006836,-0.8858032,0.4262085,-0.125,0.421875,0.1875
466,466,1727216514759,-0.20581055,-0.8862915,0.43060303,0.421875,-0.171875,0.015625
467,467,1727216514799,-0.20629883,-0.89141846,0.4262085,0.5625,0.09375,-0.265625
468,468,1727216514839,-0.21240234,-0.89678955,0.42523193,0.421875,0.21875,-0.078125
469,469,1727216514879,-0.20654297,-0.8928833,0.43182373,0.140625,0.046875,-0.21875
470,470,1727216514919,-0.2084961,-0.8862915,0.42718506,-0.40625,1.015625,0.078125
471,471,1727216514959,-0.20825195,-0.8880005,0.4232788,0.15625,0.28125,-0.171875
472,472,1727216514999,-0.20922852,-0.8887329,0.4257202,0.4375,0.171875,0.3125
473,473,1727216515039,-0.20678711,-0.894104,0.43255615,1.0625,-0.203125,-0.09375
474,474,1727216515079,-0.21142578,-0.88848877,0.42279053,0.640625,0.265625,0.0625
475,475,1727216515119,-0.20629883,-0.8921509,0.42913818,0.390625,0.203125,-0.125
476,476,1727216515159,-0.21020508,-0.8867798,0.42156982,0.40625,0.390625,0.28125
477,477,1727216515199,-0.20727539,-0.8977661,0.416687,0.296875,0.4375,0.3125
478,478,1727216515239,-0.20214844,-0.8916626,0.4237671,0.40625,0.4375,-0.109375
479,479,1727216515279,-0.20263672,-0.89312744,0.42156982,0.53125,0.515625,0.015625
480,480,1727216515319,-0.20507812,-0.8892212,0.42523193,0.0,0.90625,0.015625
481,481,1727216515359,-0.20336914,-0.8899536,0.4208374,0.234375,0.171875,-0.15625
482,482,1727216515399,-0.21459961,-0.8921509,0.41619873,0.4375,0.21875,0.015625
483,483,1727216515439,-0.21118164,-0.89263916,0.42181396,0.484375,0.140625,0.140625
484,484,1727216515479,-0.2084961,-0.89068604,0.42401123,0.5,0.21875,-0.125
485,485,1727216515519,-0.2109375,-0.8887329,0.42010498,0.671875,0.265625,-0.03125
486,486,1727216515559,-0.21069336,-0.88848877,0.42181396,0.421875,0.21875,0.078125
487,487,1727216515599,-0.21166992,-0.8892212,0.41619873,1.21875,-0.171875,0.09375
488,488,1727216515639,-0.20947266,-0.897522,0.42816162,1.703125,-0.171875,0.234375
489,489,1727216515679,-0.21655273,-0.8909302,0.4147339,0.796875,0.421875,0.578125
490,490,1727216515719,-0.2109375,-0.8911743,0.4093628,1.0,0.09375,0.140625
491,491,1727216515759,-0.20874023,-0.89263916,0.42279053,0.3125,1.0,0.0
492,492,1727216515799,-0.20166016,-0.89801025,0.41693115,-1.03125,1.375,0.359375
493,493,1727216515839,-0.20898438,-0.89434814,0.42181396,-0.359375,1.125,0.375
494,494,1727216515879,-0.2097168,-0.88726807,0.41278076,0.046875,0.453125,0.09375
495,495,1727216515919,-0.20581055,-0.89556885,0.41278076,-0.3125,0.984375,0.078125
496,496,1727216515959,-0.20629883,-0.8936157,0.4171753,-0.703125,1.03125,0.40625
497,497,1727216515999,-0.20629883,-0.8875122,0.41888428,-0.96875,0.75,0.203125
498,498,1727216516039,-0.2055664,-0.8909302,0.42156982,-0.953125,0.578125,0.28125
499,499,1727216516079,-0.20410156,-0.8870239,0.42108154,-0.5625,0.6875,0.234375
500,500,1727216516119,-0.2055664,-0.8845825,0.42596436,-0.3125,0.65625,0.546875
501,501,1727216516159,-0.2043457,-0.8933716,0.43060303,0.15625,0.375,0.265625
502,502,1727216516199,-0.21142578,-0.8862915,0.42108154,0.125,0.515625,0.40625
503,503,1727216516239,-0.21118164,-0.895813,0.42108154,-0.234375,0.34375,0.3125
504,504,1727216516279,-0.20727539,-0.89190674,0.42132568,-0.390625,0.78125,0.21875
505,505,1727216516319,-0.20214844,-0.89263916,0.42816162,-0.25,0.984375,0.625
506,506,1727216516359,-0.20092773,-0.894104,0.43206787,0.375,0.90625,0.515625
507,507,1727216516399,-0.19921875,-0.8921509,0.43011475,0.71875,1.03125,0.53125
508,508,1727216516439,-0.2019043,-0.8880005,0.42718506,0.734375,0.8125,0.625
509,509,1727216516479,-0.20141602,-0.8928833,0.42791748,0.984375,0.46875,0.546875
510,510,1727216516519,-0.20288086,-0.8911743,0.42034912,0.640625,0.625,0.578125
511,511,1727216516559,-0.19921875,-0.8970337,0.42181396,0.609375,0.53125,0.46875
512,512,1727216516599,-0.20507812,-0.89263916,0.42694092,0.8125,1.296875,0.4375
513,513,1727216516639,-0.19726562,-0.8897095,0.41253662,0.046875,0.921875,0.421875
514,514,1727216516679,-0.20019531,-0.8936157,0.4208374,0.234375,0.921875,0.46875
515,515,1727216516719,-0.19702148,-0.8897095,0.42181396,0.546875,0.359375,0.203125
516,516,1727216516759,-0.19946289,-0.8928833,0.41693115,0.203125,0.78125,0.296875
517,517,1727216516799,-0.19946289,-0.8970337,0.41741943,0.21875,0.4375,0.140625
518,518,1727216516839,-0.19995117,-0.8928833,0.41986084,-0.125,0.125,0.140625
519,519,1727216516879,-0.19921875,-0.89141846,0.42401123,-0.125,0.03125,0.34375
520,520,1727216516919,-0.19506836,-0.89312744,0.41864014,0.125,0.09375,0.28125
521,521,1727216516959,-0.19628906,-0.88897705,0.42108154,-0.03125,0.484375,0.0625
522,522,1727216516999,-0.19384766,-0.8928833,0.42669678,0.015625,0.140625,-0.015625
523,523,1727216517039,-0.19628906,-0.89190674,0.4225464,-0.25,0.109375,0.03125
524,524,1727216517079,-0.19995117,-0.894104,0.41937256,0.046875,0.078125,0.015625
525,525,1727216517119,-0.20043945,-0.8933716,0.42767334,-0.296875,0.109375,0.015625
526,526,1727216517159,-0.20019531,-0.89508057,0.42034912,0.03125,0.140625,-0.015625
527,527,1727216517199,-0.19604492,-0.8904419,0.4196167,0.140625,0.296875,0.125
528,528,1727216517239,-0.20166016,-0.8909302,0.42840576,0.078125,0.46875,0.15625
529,529,1727216517279,-0.20581055,-0.8948364,0.4249878,0.296875,0.15625,0.03125
530,530,1727216517319,-0.2019043,-0.88604736,0.42694092,0.640625,-0.046875,-0.0625
531,531,1727216517359,-0.20019531,-0.89019775,0.42156982,0.484375,0.125,-0.171875
532,532,1727216517399,-0.20483398,-0.89190674,0.43060303,0.109375,0.46875,-0.015625
533,533,1727216517439,-0.20141602,-0.89263916,0.42059326,0.1875,0.515625,-0.4375
534,534,1727216517479,-0.20166016,-0.88116455,0.42669678,-0.5,1.0625,0.171875
535,535,1727216517519,-0.2019043,-0.8887329,0.42767334,0.34375,0.03125,-0.09375
536,536,1727216517559,-0.20288086,-0.88726807,0.42474365,0.015625,0.9375,0.1875
537,537,1727216517599,-0.2019043,-0.88287354,0.42791748,0.25,0.515625,-0.015625
538,538,1727216517639,-0.21069336,-0.8833618,0.42938232,0.25,0.484375,-0.21875
539,539,1727216517679,-0.20678711,-0.8953247,0.4225464,0.34375,0.71875,-0.25
540,540,1727216517719,-0.19848633,-0.8960571,0.418396,0.5,0.796875,-0.484375
541,541,1727216517759,-0.20581055,-0.8882446,0.4196167,0.34375,0.203125,-0.09375
542,542,1727216517799,-0.20922852,-0.88775635,0.43084717,0.703125,0.265625,0.03125
543,543,1727216517839,-0.20727539,-0.8936157,0.42156982,1.71875,-0.71875,0.25
544,544,1727216517879,-0.20947266,-0.89385986,0.42230225,1.703125,-0.703125,0.28125
545,545,1727216517919,-0.20458984,-0.8933716,0.41448975,2.078125,-0.75,0.0625
546,546,1727216517959,-0.20605469,-0.8982544,0.41448975,1.734375,-0.484375,0.140625
547,547,1727216517999,-0.20581055,-0.892395,0.41888428,1.296875,-0.125,0.171875
548,548,1727216518039,-0.20019531,-0.89508057,0.4093628,0.5625,0.265625,0.0625
549,549,1727216518079,-0.20654297,-0.8987427,0.4069214,0.390625,0.5625,0.3125
550,550,1727216518119,-0.20385742,-0.8948364,0.40985107,0.640625,0.328125,0.390625
551,551,1727216518159,-0.2019043,-0.895813,0.4142456,0.4375,0.078125,0.078125
552,552,1727216518199,-0.2109375,-0.89312744,0.41741943,-0.25,0.78125,-0.09375
553,553,1727216518239,-0.20996094,-0.8916626,0.41229248,-0.3125,0.640625,-0.125
554,554,1727216518279,-0.20458984,-0.895813,0.4130249,-0.390625,0.71875,-0.015625
555,555,1727216518319,-0.20263672,-0.89508057,0.4081421,0.125,-0.453125,-0.546875
556,556,1727216518359,-0.20336914,-0.89727783,0.41912842,0.28125,0.296875,-0.015625
557,557,1727216518399,-0.20703125,-0.8880005,0.4118042,0.40625,0.375,0.3125
558,558,1727216518439,-0.21240234,-0.89263916,0.41204834,0.234375,0.296875,0.125
559,559,1727216518479,-0.21386719,-0.8928833,0.42132568,0.125,0.234375,-0.03125
560,560,1727216518519,-0.20874023,-0.89263916,0.41326904,-0.03125,0.5,-0.125
561,561,1727216518559,-0.21069336,-0.89385986,0.41400146,-0.0625,0.25,0.265625
562,562,1727216518599,-0.20922852,-0.894104,0.41644287,-0.203125,0.765625,0.046875
563,563,1727216518639,-0.21142578,-0.8948364,0.41229248,-0.046875,0.828125,0.078125
564,564,1727216518679,-0.2084961,-0.8887329,0.42059326,-0.03125,0.359375,0.015625
565,565,1727216518719,-0.21240234,-0.8945923,0.4088745,-0.296875,0.75,0.125
566,566,1727216518759,-0.20825195,-0.89630127,0.4154663,-0.171875,0.46875,0.21875
567,567,1727216518799,-0.20800781,-0.8933716,0.4179077,-0.46875,0.671875,0.234375
568,568,1727216518839,-0.20874023,-0.8953247,0.42034912,-0.15625,0.53125,0.375
569,569,1727216518879,-0.21069336,-0.89190674,0.42596436,0.09375,0.65625,0.203125
570,570,1727216518919,-0.21020508,-0.88409424,0.42156982,-0.1875,0.84375,0.8125
571,571,1727216518959,-0.2084961,-0.88726807,0.41693115,0.390625,-0.09375,0.484375
572,572,1727216518999,-0.20532227,-0.89727783,0.4244995,-0.46875,0.40625,0.59375
573,573,1727216519039,-0.20605469,-0.89849854,0.4147339,-0.21875,0.75,0.34375
574,574,1727216519079,-0.20727539,-0.8911743,0.4105835,0.265625,0.59375,0.609375
575,575,1727216519119,-0.20288086,-0.88775635,0.42108154,0.65625,-0.203125,0.109375
576,576,1727216519159,-0.20581055,-0.8999634,0.416687,-0.125,0.578125,0.09375
577,577,1727216519199,-0.2055664,-0.8911743,0.41375732,-0.46875,0.625,0.25
578,578,1727216519239,-0.20800781,-0.892395,0.41497803,-0.625,0.984375,0.3125
579,579,1727216519279,-0.20410156,-0.89263916,0.42279053,-0.109375,0.734375,0.5625
580,580,1727216519319,-0.20117188,-0.89385986,0.41986084,-0.25,0.78125,0.203125
581,581,1727216519359,-0.21142578,-0.8904419,0.41741943,0.125,0.515625,0.375
582,582,1727216519399,-0.20825195,-0.8904419,0.42523193,0.046875,1.0625,0.265625
583,583,1727216519439,-0.20605469,-0.8953247,0.42059326,0.125,0.90625,0.1875
584,584,1727216519479,-0.21289062,-0.8911743,0.42303467,0.3125,0.609375,0.203125
585,585,1727216519519,-0.2097168,-0.8911743,0.4220581,0.296875,0.6875,0.5625
586,586,1727216519559,-0.20483398,-0.8936157,0.42352295,0.453125,0.546875,0.359375
587,587,1727216519599,-0.19848633,-0.88775635,0.42010498,0.515625,0.640625,0.3125
588,588,1727216519639,-0.20288086,-0.8933716,0.42596436,-0.0625,1.40625,0.5
589,589,1727216519679,-0.19873047,-0.89312744,0.42303467,0.296875,0.890625,0.484375
590,590,1727216519719,-0.203125,-0.88897705,0.41766357,-0.046875,0.671875,0.4375
591,591,1727216519759,-0.19946289,-0.88946533,0.42059326,-0.09375,0.46875,0.203125
592,592,1727216519799,-0.20361328,-0.88653564,0.41888428,-0.484375,0.84375,0.28125
593,593,1727216519839,-0.19921875,-0.892395,0.4244995,0.25,0.515625,-0.078125
594,594,1727216519879,-0.20214844,-0.89434814,0.42230225,0.375,0.21875,0.328125
595,595,1727216519919,-0.19458008,-0.89801025,0.42645264,0.390625,-0.015625,-0.03125
596,596,1727216519959,-0.20141602,-0.88604736,0.42181396,0.203125,0.265625,0.09375
597,597,1727216519999,-0.19750977,-0.892395,0.42156982,-0.125,0.359375,0.109375
598,598,1727216520039,-0.20141602,-0.88775635,0.4249878,-0.125,-0.078125,0.046875
599,599,1727216520079,-0.20141602,-0.88531494,0.42547607,0.265625,0.1875,0.09375
600,600,1727216520119,-0.20361328,-0.89556885,0.42596436,0.140625,0.21875,-0.140625
601,601,1727216520159,-0.20141602,-0.88848877,0.42767334,0.15625,0.40625,-0.234375
602,602,1727216520199,-0.20410156,-0.89141846,0.4237671,0.265625,0.375,-0.46875
603,603,1727216520239,-0.20263672,-0.88238525,0.42010498,0.4375,0.21875,-0.109375
604,604,1727216520279,-0.19799805,-0.88604736,0.42938232,0.203125,0.5625,-0.203125
605,605,1727216520319,-0.20141602,-0.89508057,0.42816162,-0.203125,1.203125,-0.375
606,606,1727216520359,-0.203125,-0.8909302,0.416687,0.0625,0.953125,-0.296875
607,607,1727216520399,-0.20703125,-0.89068604,0.41937256,0.171875,0.3125,-0.09375
608,608,1727216520439,-0.2133789,-0.89385986,0.42425537,0.5625,0.234375,0.0
609,609,1727216520479,-0.2109375,-0.894104,0.4142456,0.015625,0.34375,0.0
610,610,1727216520519,-0.20800781,-0.88946533,0.4179077,0.1875,0.140625,-0.421875
611,611,1727216520559,-0.20776367,-0.8965454,0.41888428,-0.03125,0.578125,-0.015625
612,612,1727216520599,-0.20458984,-0.89068604,0.41766357,0.6875,0.03125,-0.328125
613,613,1727216520639,-0.2055664,-0.88897705,0.41375732,0.328125,-0.03125,0.3125
614,614,1727216520679,-0.203125,-0.8916626,0.42523193,0.796875,-0.296875,-0.03125
615,615,1727216520719,-0.203125,-0.88604736,0.4171753,0.453125,0.40625,0.109375
616,616,1727216520759,-0.20776367,-0.8916626,0.42034912,0.109375,0.296875,0.125
617,617,1727216520799,-0.20581055,-0.89312744,0.42791748,0.53125,0.109375,-0.140625
618,618,1727216520839,-0.20678711,-0.88946533,0.42645264,0.609375,0.59375,-0.015625
619,619,1727216520879,-0.20776367,-0.8882446,0.4093628,0.640625,0.375,-0.109375
620,620,1727216520919,-0.21508789,-0.89190674,0.42523193,0.890625,0.171875,-0.140625
621,621,1727216520959,-0.2199707,-0.89727783,0.41571045,0.84375,0.421875,0.15625
622,622,1727216520999,-0.20654297,-0.8897095,0.41888428,0.515625,0.09375,0.265625
623,623,1727216521039,-0.21118164,-0.8909302,0.4179077,0.859375,0.28125,0.171875
624,624,1727216521079,-0.21289062,-0.8936157,0.41986084,0.546875,0.09375,-0.015625
625,625,1727216521119,-0.21240234,-0.89434814,0.41156006,0.796875,0.296875,0.15625
626,626,1727216521159,-0.21411133,-0.8948364,0.418396,0.328125,0.4375,0.265625
627,627,1727216521199,-0.21191406,-0.8936157,0.418396,0.296875,0.453125,0.34375
628,628,1727216521239,-0.21191406,-0.89434814,0.4159546,0.46875,0.5,0.265625
629,629,1727216521279,-0.21020508,-0.9006958,0.4064331,0.328125,0.15625,0.296875
630,630,1727216521319,-0.2133789,-0.8862915,0.4196167,1.15625,0.4375,0.0625
631,631,1727216521359,-0.21411133,-0.8989868,0.4093628,0.46875,0.625,0.125
632,632,1727216521399,-0.2133789,-0.89385986,0.40838623,0.640625,0.453125,0.25
633,633,1727216521439,-0.2055664,-0.895813,0.40863037,0.875,0.3125,0.453125
634,634,1727216521479,-0.21142578,-0.8945923,0.41571045,0.875,0.265625,0.234375
635,635,1727216521519,-0.21362305,-0.894104,0.40618896,0.484375,0.546875,0.5
636,636,1727216521559,-0.20898438,-0.8960571,0.4081421,0.40625,0.578125,0.09375
637,637,1727216521599,-0.20947266,-0.8994751,0.40618896,0.34375,0.5,0.265625
638,638,1727216521639,-0.21386719,-0.8982544,0.4081421,0.6875,0.546875,0.078125
639,639,1727216521679,-0.21142578,-0.89849854,0.40374756,0.375,0.5625,0.15625
640,640,1727216521719,-0.20800781,-0.8965454,0.40740967,0.53125,0.328125,0.109375
641,641,1727216521759,-0.20922852,-0.8960571,0.40130615,0.25,0.359375,0.03125
642,642,1727216521799,-0.20874023,-0.89068604,0.41131592,0.28125,0.296875,0.421875
643,643,1727216521839,-0.21362305,-0.8965454,0.40789795,0.40625,0.421875,0.265625
644,644,1727216521879,-0.21069336,-0.90167236,0.40423584,0.53125,0.40625,0.28125
645,645,1727216521919,-0.20776367,-0.8982544,0.40472412,0.25,0.515625,0.09375
646,646,1727216521959,-0.20996094,-0.89434814,0.4039917,0.171875,0.609375,0.28125
647,647,1727216521999,-0.21362305,-0.9002075,0.40301514,0.15625,0.5,0.359375
648,648,1727216522039,-0.20800781,-0.8982544,0.40350342,0.109375,0.375,0.203125
649,649,1727216522079,-0.20703125,-0.8953247,0.40594482,0.359375,0.71875,0.34375
650,650,1727216522119,-0.21142578,-0.90093994,0.4052124,-0.5,1.265625,0.09375
651,651,1727216522159,-0.20996094,-0.8982544,0.40911865,-1.921875,1.9375,0.28125
652,652,1727216522199,-0.20532227,-0.88897705,0.40570068,-1.734375,1.03125,-0.21875
653,653,1727216522239,-0.21533203,-0.89190674,0.41619873,-1.78125,1.234375,0.3125
654,654,1727216522279,-0.21264648,-0.9026489,0.4171753,-0.515625,0.515625,0.28125
655,655,1727216522319,-0.21240234,-0.8897095,0.4147339,-1.078125,1.296875,0.46875
656,656,1727216522359,-0.20263672,-0.89019775,0.41888428,-0.90625,1.3125,0.546875
657,657,1727216522399,-0.20410156,-0.88848877,0.41864014,-0.78125,1.28125,0.46875
658,658,1727216522439,-0.2055664,-0.89630127,0.42230225,-0.359375,1.03125,0.234375
659,659,1727216522479,-0.20361328,-0.8928833,0.42132568,-0.25,0.6875,0.140625
660,660,1727216522519,-0.20605469,-0.8843384,0.42034912,0.015625,0.828125,0.375
661,661,1727216522559,-0.20727539,-0.89556885,0.4225464,0.0625,0.828125,0.34375
662,662,1727216522599,-0.20654297,-0.88848877,0.42132568,0.125,0.578125,0.375
663,663,1727216522639,-0.20166016,-0.8875122,0.42034912,0.078125,0.890625,0.40625
664,664,1727216522679,-0.19921875,-0.89190674,0.41888428,-0.046875,0.75,0.28125
665,665,1727216522719,-0.20361328,-0.8928833,0.42669678,0.09375,0.796875,0.390625
666,666,1727216522759,-0.19702148,-0.8850708,0.4220581,0.46875,0.890625,0.546875
667,667,1727216522799,-0.20678711,-0.8933716,0.42279053,0.375,0.75,0.484375
668,668,1727216522839,-0.2006836,-0.8945923,0.42596436,0.453125,0.65625,0.46875
669,669,1727216522879,-0.19677734,-0.89630127,0.4237671,0.359375,0.421875,0.5625
670,670,1727216522919,-0.1940918,-0.8945923,0.42059326,0.15625,0.0625,0.453125
671,671,1727216522959,-0.20507812,-0.8862915,0.42962646,0.5625,0.640625,0.265625
672,672,1727216522999,-0.20263672,-0.8928833,0.4154663,-0.234375,0.765625,0.4375
673,673,1727216523039,-0.20239258,-0.8928833,0.42596436,0.078125,0.578125,0.234375
674,674,1727216523079,-0.19067383,-0.88946533,0.4154663,0.578125,-0.015625,0.25
675,675,1727216523119,-0.1953125,-0.8831177,0.42645264,0.40625,0.328125,0.25
676,676,1727216523159,-0.19995117,-0.89190674,0.41375732,0.359375,0.109375,0.359375
677,677,1727216523199,-0.2006836,-0.8892212,0.418396,0.015625,0.421875,0.1875
678,678,1727216523239,-0.2043457,-0.9019165,0.41986084,0.078125,0.0,0.234375
679,679,1727216523279,-0.19262695,-0.8921509,0.41864014,0.21875,0.328125,0.046875
680,680,1727216523319,-0.19848633,-0.89019775,0.42352295,0.125,0.578125,0.21875
681,681,1727216523359,-0.20361328,-0.8887329,0.4208374,0.171875,0.296875,0.046875
682,682,1727216523399,-0.2006836,-0.90216064,0.42132568,0.296875,-0.09375,-0.09375
683,683,1727216523439,-0.20410156,-0.89263916,0.418396,0.28125,0.25,0.140625
684,684,1727216523479,-0.19555664,-0.8948364,0.41741943,0.703125,-0.296875,-0.046875
685,685,1727216523519,-0.1977539,-0.8953247,0.42132568,0.359375,0.453125,0.203125
686,686,1727216523559,-0.20336914,-0.8897095,0.42474365,0.65625,0.09375,0.234375
687,687,1727216523599,-0.20385742,-0.8970337,0.42059326,0.765625,0.03125,0.21875
688,688,1727216523639,-0.19873047,-0.89385986,0.42181396,0.84375,0.078125,0.0625
689,689,1727216523679,-0.20239258,-0.89727783,0.41229248,1.078125,-0.046875,0.078125
690,690,1727216523719,-0.20410156,-0.8994751,0.41522217,0.515625,0.015625,-0.234375
691,691,1727216523759,-0.19848633,-0.89068604,0.41619873,0.265625,0.59375,0.078125
692,692,1727216523799,-0.20117188,-0.894104,0.4147339,0.8125,-0.0625,-0.25
693,693,1727216523839,-0.203125,-0.895813,0.41497803,0.453125,0.3125,0.203125
694,694,1727216523879,-0.20214844,-0.89630127,0.4159546,1.234375,-0.6875,-0.15625
695,695,1727216523919,-0.20043945,-0.8987427,0.41400146,0.890625,0.265625,-0.125
696,696,1727216523959,-0.20507812,-0.895813,0.41278076,0.625,0.203125,0.0625
697,697,1727216523999,-0.20800781,-0.89849854,0.41131592,0.734375,-0.109375,-0.125
698,698,1727216524039,-0.20239258,-0.89801025,0.41107178,0.40625,0.453125,0.109375
699,699,1727216524079,-0.20410156,-0.89727783,0.4093628,0.515625,0.265625,-0.203125
700,700,1727216524119,-0.2133789,-0.89508057,0.4069214,0.296875,0.328125,-0.140625
701,701,1727216524159,-0.21166992,-0.8989868,0.41156006,0.40625,0.609375,-0.265625
702,702,1727216524199,-0.20800781,-0.894104,0.40838623,0.203125,0.671875,-0.21875
703,703,1727216524239,-0.20629883,-0.9026489,0.40472412,-0.046875,0.75,-0.03125
704,704,1727216524279,-0.21191406,-0.8933716,0.40618896,0.796875,0.09375,-0.09375
705,705,1727216524319,-0.20776367,-0.89385986,0.41619873,0.671875,0.21875,0.125
706,706,1727216524359,-0.2043457,-0.8960571,0.40423584,0.640625,0.03125,0.25
707,707,1727216524399,-0.20874023,-0.8970337,0.40960693,0.6875,-0.15625,0.015625
708,708,1727216524439,-0.21362305,-0.8989868,0.4052124,0.390625,0.21875,0.15625
709,709,1727216524479,-0.2163086,-0.8982544,0.40081787,0.640625,-0.296875,-0.125
710,710,1727216524519,-0.20922852,-0.8945923,0.40863037,1.25,-0.09375,0.09375
711,711,1727216524559,-0.21264648,-0.8977661,0.40496826,0.5,0.46875,0.203125
712,712,1727216524599,-0.20678711,-0.89849854,0.40179443,0.703125,0.546875,0.171875
713,713,1727216524639,-0.21240234,-0.8948364,0.3998413,0.96875,-0.171875,0.25
714,714,1727216524679,-0.20629883,-0.9048462,0.40423584,1.25,0.171875,-0.015625
715,715,1727216524719,-0.20898438,-0.895813,0.39935303,0.828125,0.359375,0.109375
716,716,1727216524759,-0.2109375,-0.9014282,0.39715576,0.4375,0.578125,0.171875
717,717,1727216524799,-0.20898438,-0.90460205,0.40057373,0.515625,0.375,0.109375
718,718,1727216524839,-0.20336914,-0.89678955,0.39935303,0.609375,0.46875,-0.0625
719,719,1727216524879,-0.20874023,-0.90338135,0.40081787,0.359375,0.59375,0.03125
720,720,1727216524919,-0.20751953,-0.8970337,0.39691162,0.328125,0.5625,0.0625
721,721,1727216524959,-0.2055664,-0.894104,0.3949585,0.21875,0.453125,0.09375
722,722,1727216524999,-0.21142578,-0.89556885,0.39837646,0.375,0.390625,-0.03125
723,723,1727216525039,-0.20776367,-0.9006958,0.4015503,0.125,0.625,0.0
724,724,1727216525079,-0.21582031,-0.8982544,0.39764404,0.171875,0.53125,0.078125
725,725,1727216525119,-0.21020508,-0.89678955,0.39520264,0.15625,0.46875,0.296875
726,726,1727216525159,-0.21264648,-0.9026489,0.40081787,0.28125,0.671875,0.109375
727,727,1727216525199,-0.2084961,-0.89678955,0.4003296,0.140625,0.4375,0.34375
728,728,1727216525239,-0.2097168,-0.8994751,0.39959717,-0.109375,0.34375,0.09375
729,729,1727216525279,-0.20922852,-0.9031372,0.39569092,-0.53125,0.703125,0.25
730,730,1727216525319,-0.20947266,-0.8916626,0.40545654,-0.5,1.015625,0.0625
731,731,1727216525359,-0.20922852,-0.9065552,0.402771,-2.265625,1.671875,0.234375
732,732,1727216525399,-0.21728516,-0.89312744,0.4069214,-2.109375,1.5625,0.15625
733,733,1727216525439,-0.20898438,-0.88897705,0.41107178,-1.3125,0.953125,0.1875
734,734,1727216525479,-0.20581055,-0.8970337,0.4088745,-0.828125,1.171875,0.09375
735,735,1727216525519,-0.20361328,-0.8953247,0.4076538,-0.84375,1.234375,0.390625
736,736,1727216525559,-0.20922852,-0.89727783,0.41351318,-1.09375,1.125,0.484375
737,737,1727216525599,-0.20800781,-0.89849854,0.41619873,-1.03125,1.03125,0.46875
738,738,1727216525639,-0.20410156,-0.89141846,0.4154663,-0.65625,0.953125,0.296875
739,739,1727216525679,-0.20288086,-0.89678955,0.4118042,-0.5,0.46875,0.578125
740,740,1727216525719,-0.2055664,-0.9006958,0.42279053,0.203125,0.125,0.40625
741,741,1727216525759,-0.20898438,-0.8904419,0.4196167,-0.109375,1.0,0.296875
742,742,1727216525799,-0.20166016,-0.89508057,0.41497803,0.3125,0.8125,0.5625
743,743,1727216525839,-0.20141602,-0.8921509,0.41888428,-0.046875,0.734375,0.484375
744,744,1727216525879,-0.20507812,-0.89190674,0.4171753,-0.078125,0.53125,0.375
745,745,1727216525919,-0.203125,-0.88897705,0.41937256,0.03125,0.875,0.46875
746,746,1727216525959,-0.203125,-0.892395,0.4225464,0.53125,0.65625,0.578125
747,747,1727216525999,-0.20239258,-0.8933716,0.41571045,0.5,0.609375,0.421875
748,748,1727216526039,-0.20019531,-0.88946533,0.418396,0.4375,0.375,0.28125
749,749,1727216526079,-0.20507812,-0.892395,0.41937256,0.28125,0.5625,0.40625
750,750,1727216526119,-0.19873047,-0.88482666,0.4286499,0.515625,0.96875,0.453125
751,751,1727216526159,-0.19726562,-0.8933716,0.4100952,-0.03125,1.046875,0.234375
752,752,1727216526199,-0.2055664,-0.89508057,0.42059326,-0.125,1.1875,0.5625
753,753,1727216526239,-0.19335938,-0.8916626,0.41864014,0.421875,0.765625,0.375
754,754,1727216526279,-0.203125,-0.90045166,0.41864014,0.265625,0.671875,0.4375
755,755,1727216526319,-0.1965332,-0.89630127,0.4171753,0.09375,0.5,0.3125
756,756,1727216526359,-0.19897461,-0.8897095,0.41278076,-0.140625,0.765625,0.25
757,757,1727216526399,-0.19702148,-0.8982544,0.418396,0.0625,0.453125,0.46875
758,758,1727216526439,-0.19482422,-0.8953247,0.41815186,0.25,0.203125,0.375
759,759,1727216526479,-0.20092773,-0.89068604,0.42034912,0.0,0.53125,0.203125
