,timestamp,accel_x,accel_y,accel_z,gyro_x,gyro_y,gyro_z
0,1727263179977,-0.21899414,-0.942688,0.30023193,-1.421875,-0.265625,-0.296875
1,1727263180017,-0.21704102,-0.9470825,0.30169678,-1.0625,-0.0625,0.0625
2,1727263180057,-0.22338867,-0.95147705,0.30291748,-0.859375,0.046875,0.1875
3,1727263180097,-0.22387695,-0.94781494,0.29632568,-0.859375,0.078125,0.109375
4,1727263180137,-0.21826172,-0.9487915,0.30633545,-0.4375,-0.25,0.140625
5,1727263180177,-0.2175293,-0.94537354,0.30340576,-0.4375,0.1875,0.453125
6,1727263180217,-0.22363281,-0.9492798,0.30877686,-0.078125,0.28125,0.59375
7,1727263180257,-0.21289062,-0.9512329,0.3012085,-1.0625,-0.109375,-0.03125
8,1727263180297,-0.20947266,-0.95635986,0.2958374,-1.25,-0.359375,0.40625
9,1727263180337,-0.20263672,-0.944397,0.2987671,-0.984375,-0.75,0.296875
10,1727263180377,-0.22143555,-0.94537354,0.30413818,-1.71875,-0.546875,-0.140625
11,1727263180417,-0.2253418,-0.9417114,0.30877686,-2.515625,0.234375,-0.5
12,1727263180457,-0.22290039,-0.956604,0.3053589,-0.75,-1.0,-0.1875
13,1727263180497,-0.21972656,-0.94317627,0.30340576,-2.21875,0.328125,-0.609375
14,1727263180537,-0.21801758,-0.94415283,0.30560303,-1.65625,-0.515625,-0.265625
15,1727263180577,-0.22460938,-0.94854736,0.31536865,-1.203125,-0.171875,0.015625
16,1727263180617,-0.21923828,-0.9414673,0.3065796,-0.53125,-0.828125,0.25
17,1727263180657,-0.22216797,-0.93927,0.3085327,-2.03125,-0.375,-0.40625
18,1727263180697,-0.21386719,-0.95440674,0.30706787,-0.96875,-0.125,-0.421875
19,1727263180737,-0.22094727,-0.93927,0.3053589,-1.09375,-0.1875,-0.203125
20,1727263180777,-0.21582031,-0.94000244,0.3102417,-0.796875,-0.5625,-0.25
21,1727263180817,-0.23046875,-0.9429321,0.3180542,-0.78125,-0.046875,-0.0625
22,1727263180857,-0.22558594,-0.9480591,0.30950928,-0.65625,0.15625,0.0
23,1727263180897,-0.22021484,-0.94000244,0.30682373,-0.65625,-0.109375,0.015625
24,1727263180937,-0.22460938,-0.9385376,0.31243896,-0.515625,-0.15625,0.421875
25,1727263180977,-0.23144531,-0.9517212,0.3078003,-1.421875,1.046875,-0.078125
26,1727263181017,-0.22216797,-0.942688,0.33099365,2.078125,-0.609375,0.65625
27,1727263181057,-0.20898438,-0.94244385,0.2892456,-0.140625,-2.40625,-0.578125
28,1727263181097,-0.23486328,-0.9456177,0.30169678,1.4375,0.53125,-0.4375
29,1727263181137,-0.23120117,-0.94073486,0.31072998,0.375,-0.484375,-0.328125
30,1727263181177,-0.2211914,-0.9470825,0.29925537,-0.796875,-0.796875,-0.8125
31,1727263181217,-0.22192383,-0.9463501,0.3048706,-0.171875,-2.15625,-0.34375
32,1727263181257,-0.22436523,-0.94537354,0.31658936,-0.296875,-0.796875,-0.25
33,1727263181297,-0.2253418,-0.94854736,0.291687,-1.546875,-2.78125,0.109375
34,1727263181337,-0.23779297,-0.9480591,0.29315186,-0.59375,-2.609375,-0.125
35,1727263181377,-0.22436523,-0.9541626,0.30267334,1.875,-2.8125,0.484375
36,1727263181417,-0.2277832,-0.9487915,0.30389404,1.96875,-0.8125,0.453125
37,1727263181457,-0.23266602,-0.942688,0.28607178,3.3125,-2.296875,0.25
38,1727263181497,-0.2331543,-0.9517212,0.29534912,2.625,-0.890625,0.515625
39,1727263181537,-0.23144531,-0.9624634,0.27801514,3.171875,-1.21875,0.34375
40,1727263181577,-0.22705078,-0.9495239,0.2748413,3.4375,-0.84375,0.703125
41,1727263181617,-0.22265625,-0.95440674,0.2682495,2.484375,0.203125,0.09375
42,1727263181657,-0.23461914,-0.9614868,0.2843628,4.03125,-0.0625,1.03125
43,1727263181697,-0.21411133,-0.9492798,0.25506592,1.546875,-1.59375,-0.21875
44,1727263181737,-0.22875977,-0.9692993,0.25897217,3.953125,-0.109375,0.8125
45,1727263181777,-0.23022461,-0.9553833,0.23919678,1.9375,1.21875,0.5625
46,1727263181817,-0.2265625,-0.96588135,0.25213623,2.359375,-1.046875,0.515625
47,1727263181857,-0.22802734,-0.9541626,0.23919678,1.84375,-0.59375,0.734375
48,1727263181897,-0.21582031,-0.95928955,0.24285889,2.125,-0.140625,0.625
49,1727263181937,-0.23291016,-0.96295166,0.23553467,0.5625,0.0,-0.03125
50,1727263181977,-0.21972656,-0.9651489,0.24090576,1.03125,-0.53125,0.109375
51,1727263182017,-0.2199707,-0.96051025,0.23284912,0.328125,0.46875,0.265625
52,1727263182057,-0.22753906,-0.96466064,0.23529053,0.6875,-0.34375,0.109375
53,1727263182097,-0.22387695,-0.96099854,0.22528076,0.4375,0.234375,0.15625
54,1727263182137,-0.22167969,-0.9673462,0.22747803,0.328125,0.234375,0.140625
55,1727263182177,-0.22094727,-0.9619751,0.22454834,-0.109375,0.4375,-0.09375
56,1727263182217,-0.22094727,-0.9624634,0.22772217,-0.21875,0.109375,0.046875
57,1727263182257,-0.22338867,-0.96466064,0.22894287,-0.796875,0.28125,-0.015625
58,1727263182297,-0.22314453,-0.9570923,0.22381592,-1.5,0.1875,-0.40625
59,1727263182337,-0.22949219,-0.9668579,0.22845459,-1.796875,0.53125,-0.5
60,1727263182377,-0.22094727,-0.9661255,0.2345581,0.328125,-0.1875,0.234375
61,1727263182417,-0.21972656,-0.96588135,0.21502686,-2.03125,-0.4375,-0.609375
62,1727263182457,-0.2290039,-0.9636841,0.2267456,-1.453125,1.21875,-0.59375
63,1727263182497,-0.22827148,-0.9673462,0.2411499,-1.734375,1.421875,-0.171875
64,1727263182537,-0.22021484,-0.9619751,0.2345581,-1.203125,0.15625,-0.515625
65,1727263182577,-0.22143555,-0.95806885,0.23797607,-2.359375,-0.828125,-0.1875
66,1727263182617,-0.2175293,-0.9614868,0.2387085,-4.3125,-1.28125,-0.390625
67,1727263182657,-0.23242188,-0.9585571,0.24554443,-6.890625,-2.015625,-0.65625
68,1727263182697,-0.23925781,-0.96221924,0.24505615,-7.859375,-0.75,-1.078125
69,1727263182737,-0.24267578,-0.954895,0.26531982,-5.921875,-0.34375,-1.140625
70,1727263182777,-0.21777344,-0.95391846,0.25164795,-4.453125,1.328125,-0.28125
71,1727263182817,-0.23168945,-0.9614868,0.2658081,-3.375,1.25,-0.484375
72,1727263182857,-0.23144531,-0.95440674,0.2711792,-2.171875,-0.0625,-0.015625
73,1727263182897,-0.2355957,-0.95269775,0.2753296,-2.609375,1.75,0.03125
74,1727263182937,-0.23022461,-0.9500122,0.28485107,-3.3125,1.078125,-0.15625
75,1727263182977,-0.2265625,-0.9505005,0.2802124,-3.5,0.765625,-0.234375
76,1727263183017,-0.2355957,-0.95440674,0.2868042,-2.984375,1.296875,0.125
77,1727263183057,-0.23120117,-0.9495239,0.3007202,-1.828125,1.21875,0.0
78,1727263183097,-0.23876953,-0.95147705,0.27923584,-2.484375,0.84375,-0.09375
79,1727263183137,-0.23144531,-0.9500122,0.29119873,-3.375,1.109375,-0.640625
80,1727263183177,-0.2277832,-0.95391846,0.29852295,-1.40625,0.578125,0.28125
81,1727263183217,-0.22802734,-0.94244385,0.2904663,-1.78125,1.40625,-0.0625
82,1727263183257,-0.22827148,-0.94366455,0.2970581,-1.4375,0.4375,0.140625
83,1727263183297,-0.22192383,-0.9517212,0.28533936,-1.125,0.078125,-0.046875
84,1727263183337,-0.23754883,-0.9590454,0.3078003,1.71875,-5.6875,1.0625
85,1727263183377,-0.2331543,-0.9487915,0.2946167,-0.75,-1.578125,0.0
86,1727263183417,-0.22485352,-0.9512329,0.3007202,-0.03125,-0.15625,0.546875
87,1727263183457,-0.22338867,-0.9475708,0.28778076,-0.640625,-0.15625,0.28125
88,1727263183497,-0.22241211,-0.94976807,0.29486084,-0.359375,-0.65625,-0.125
89,1727263183537,-0.22802734,-0.9505005,0.29144287,-0.984375,-0.546875,0.140625
90,1727263183577,-0.23022461,-0.9561157,0.2819214,-1.03125,0.015625,0.375
91,1727263183617,-0.22998047,-0.9529419,0.2929077,-0.640625,0.078125,0.203125
92,1727263183657,-0.22094727,-0.95025635,0.29437256,-1.171875,-0.21875,-0.140625
93,1727263183697,-0.22827148,-0.9570923,0.2946167,-0.8125,0.375,0.1875
94,1727263183737,-0.21899414,-0.9385376,0.29144287,-1.625,0.203125,-0.375
95,1727263183777,-0.2211914,-0.942688,0.30291748,-0.625,0.421875,0.046875
96,1727263183817,-0.23535156,-0.9492798,0.2970581,-2.78125,0.671875,-0.96875
97,1727263183857,-0.22314453,-0.9495239,0.2994995,-1.078125,0.78125,-0.046875
98,1727263183897,-0.22485352,-0.93927,0.29266357,-2.625,1.4375,-0.625
99,1727263183937,-0.22705078,-0.9458618,0.2975464,-1.734375,0.28125,-0.421875
100,1727263183977,-0.22265625,-0.95098877,0.29608154,-1.96875,0.765625,-0.3125
101,1727263184017,-0.2277832,-0.9429321,0.3078003,-1.046875,0.90625,-0.265625
102,1727263184057,-0.22338867,-0.9390259,0.30438232,-2.4375,0.03125,-0.53125
103,1727263184097,-0.2290039,-0.9492798,0.30438232,-1.46875,-0.328125,-0.5
104,1727263184137,-0.23608398,-0.9378052,0.30999756,-1.65625,-0.5,0.171875
105,1727263184177,-0.2368164,-0.9470825,0.30633545,-1.296875,-0.53125,-0.03125
106,1727263184217,-0.23535156,-0.95269775,0.31732178,-1.9375,-0.78125,-0.203125
107,1727263184257,-0.23144531,-0.94659424,0.28729248,-0.84375,-2.84375,0.015625
108,1727263184297,-0.2277832,-0.9468384,0.30999756,0.9375,-1.640625,0.4375
109,1727263184337,-0.22631836,-0.94488525,0.3007202,0.703125,-3.765625,0.078125
110,1727263184377,-0.2355957,-0.9458618,0.31536865,1.8125,-0.90625,0.375
111,1727263184417,-0.2265625,-0.9456177,0.29974365,0.203125,0.78125,-0.484375
112,1727263184457,-0.23339844,-0.95758057,0.30218506,2.421875,-1.34375,0.421875
113,1727263184497,-0.23144531,-0.93756104,0.2831421,-0.625,-1.34375,-0.71875
114,1727263184537,-0.22827148,-0.9492798,0.28826904,2.203125,-1.171875,0.40625
115,1727263184577,-0.23510742,-0.95098877,0.28948975,1.65625,-3.015625,0.5625
116,1727263184617,-0.23608398,-0.93878174,0.29071045,0.796875,-1.5625,-0.09375
117,1727263184657,-0.23486328,-0.958313,0.27313232,1.71875,-1.703125,0.421875
118,1727263184697,-0.23266602,-0.94610596,0.28118896,1.734375,-0.21875,0.234375
119,1727263184737,-0.23754883,-0.9507446,0.2687378,0.96875,-0.984375,-0.015625
120,1727263184777,-0.24047852,-0.9505005,0.27508545,1.28125,-0.03125,-0.171875
121,1727263184817,-0.23828125,-0.9534302,0.27557373,0.890625,0.921875,0.046875
122,1727263184857,-0.23754883,-0.95562744,0.26141357,1.4375,0.140625,0.234375
123,1727263184897,-0.2409668,-0.9500122,0.27044678,1.09375,-0.0625,0.09375
124,1727263184937,-0.23046875,-0.9561157,0.26019287,1.296875,0.734375,0.328125
125,1727263184977,-0.23852539,-0.95928955,0.2645874,2.0,0.546875,0.359375
126,1727263185017,-0.22436523,-0.9546509,0.2506714,2.125,-0.53125,0.515625
127,1727263185057,-0.2409668,-0.9541626,0.25360107,1.9375,-0.46875,0.4375
128,1727263185097,-0.2241211,-0.9636841,0.24334717,1.25,0.234375,0.46875
129,1727263185137,-0.22094727,-0.9546509,0.25775146,4.09375,-0.0625,1.6875
130,1727263185177,-0.23901367,-0.97247314,0.22357178,3.4375,1.40625,1.453125
131,1727263185217,-0.22387695,-0.95562744,0.23504639,3.125,3.09375,0.40625
132,1727263185257,-0.2241211,-0.96466064,0.24090576,2.40625,1.875,0.78125
133,1727263185297,-0.22167969,-0.95684814,0.22259521,1.75,0.75,-0.046875
134,1727263185337,-0.22436523,-0.9685669,0.23236084,1.390625,0.734375,0.109375
135,1727263185377,-0.22314453,-0.9639282,0.21453857,1.390625,1.28125,0.453125
136,1727263185417,-0.2290039,-0.95684814,0.21868896,1.5625,0.203125,0.90625
137,1727263185457,-0.20996094,-0.96710205,0.21380615,0.875,0.46875,0.125
138,1727263185497,-0.22631836,-0.97076416,0.22576904,0.671875,0.5625,0.0625
139,1727263185537,-0.21582031,-0.9614868,0.20574951,0.65625,-0.015625,0.265625
140,1727263185577,-0.22583008,-0.97003174,0.21014404,-0.140625,-0.34375,-0.203125
141,1727263185617,-0.21948242,-0.9636841,0.21502686,-1.421875,0.15625,-0.234375
142,1727263185657,-0.22583008,-0.9651489,0.21087646,-1.859375,-0.171875,-0.59375
143,1727263185697,-0.22680664,-0.96759033,0.21282959,-1.375,-0.796875,-0.328125
144,1727263185737,-0.2211914,-0.9639282,0.21673584,-1.4375,-0.15625,-0.125
145,1727263185777,-0.23071289,-0.97369385,0.21429443,-0.921875,-0.609375,0.0
146,1727263185817,-0.22485352,-0.9649048,0.20477295,-0.828125,0.390625,-0.0625
147,1727263185857,-0.21801758,-0.9590454,0.21307373,-1.0,-0.296875,-0.3125
148,1727263185897,-0.22436523,-0.97125244,0.21966553,-0.609375,-0.203125,0.234375
149,1727263185937,-0.22143555,-0.95928955,0.20794678,-2.609375,0.46875,-0.8125
150,1727263185977,-0.22875977,-0.9746704,0.2296753,-0.90625,-0.34375,-0.078125
151,1727263186017,-0.2265625,-0.9585571,0.21063232,-1.875,0.0625,-0.359375
152,1727263186057,-0.21777344,-0.9727173,0.23284912,-3.515625,-1.390625,-0.6875
153,1727263186097,-0.22607422,-0.9717407,0.23699951,-6.0625,-2.96875,-0.609375
154,1727263186137,-0.23486328,-0.96173096,0.2333374,-6.453125,-2.8125,-0.875
155,1727263186177,-0.24438477,-0.9541626,0.2345581,-6.078125,-2.25,-0.765625
156,1727263186217,-0.22753906,-0.9627075,0.23406982,-3.703125,-0.828125,-0.46875
157,1727263186257,-0.22851562,-0.960022,0.24725342,-3.109375,0.0625,-0.109375
158,1727263186297,-0.23364258,-0.9517212,0.2489624,-3.140625,-0.0625,-0.5
159,1727263186337,-0.2368164,-0.9541626,0.26141357,-3.796875,1.0625,-0.609375
160,1727263186377,-0.2355957,-0.96221924,0.2526245,-2.53125,-0.421875,-0.21875
161,1727263186417,-0.23120117,-0.95147705,0.26068115,-2.984375,0.359375,-0.34375
162,1727263186457,-0.23364258,-0.95440674,0.25750732,-3.953125,1.828125,-0.875
163,1727263186497,-0.2409668,-0.9522095,0.26605225,-3.484375,2.390625,-0.640625
164,1727263186537,-0.24121094,-0.95391846,0.2645874,-3.15625,1.25,-0.484375
165,1727263186577,-0.23120117,-0.9458618,0.2772827,-0.296875,0.625,0.140625
166,1727263186617,-0.23461914,-0.9612427,0.27703857,-2.046875,0.4375,-0.265625
167,1727263186657,-0.24194336,-0.95391846,0.27630615,-2.25,1.25,-0.5
168,1727263186697,-0.23461914,-0.9512329,0.28607178,-1.421875,1.265625,-0.046875
169,1727263186737,-0.23071289,-0.9470825,0.27972412,-1.828125,2.15625,-0.21875
170,1727263186777,-0.22998047,-0.9517212,0.28631592,-1.890625,1.328125,0.015625
171,1727263186817,-0.24072266,-0.9439087,0.2880249,-1.625,1.78125,0.0
172,1727263186857,-0.23388672,-0.9546509,0.28631592,-0.9375,0.359375,0.4375
173,1727263186897,-0.22949219,-0.94488525,0.2831421,-2.75,0.609375,-0.171875
174,1727263186937,-0.23803711,-0.9602661,0.29119873,-1.359375,0.40625,0.328125
175,1727263186977,-0.23339844,-0.942688,0.29119873,-1.53125,0.125,0.328125
176,1727263187017,-0.23803711,-0.94659424,0.29437256,-1.78125,0.265625,0.234375
177,1727263187057,-0.23779297,-0.9456177,0.29803467,-1.59375,0.265625,0.171875
178,1727263187097,-0.23242188,-0.9456177,0.29437256,-1.734375,0.390625,-0.078125
179,1727263187137,-0.23168945,-0.9470825,0.29559326,-1.578125,0.4375,0.140625
180,1727263187177,-0.23046875,-0.9512329,0.2999878,-1.953125,0.390625,-0.25
181,1727263187217,-0.23217773,-0.9483032,0.29022217,-1.125,0.28125,0.109375
182,1727263187257,-0.2211914,-0.9458618,0.29730225,-1.6875,0.078125,-0.25
183,1727263187297,-0.22949219,-0.94415283,0.31365967,0.6875,-0.5625,0.203125
184,1727263187337,-0.23583984,-0.93756104,0.28948975,-2.4375,-0.890625,-0.734375
185,1727263187377,-0.22924805,-0.9500122,0.29901123,-0.234375,-0.875,-0.15625
186,1727263187417,-0.23730469,-0.9456177,0.31072998,-1.203125,-0.671875,-0.03125
187,1727263187457,-0.22949219,-0.9495239,0.29974365,-0.875,-0.578125,0.09375
188,1727263187497,-0.24707031,-0.95025635,0.3114624,-0.890625,-1.890625,0.265625
189,1727263187537,-0.22998047,-0.9505005,0.29119873,-1.046875,-2.984375,0.21875
190,1727263187577,-0.2290039,-0.9434204,0.28411865,0.421875,-3.3125,0.8125
191,1727263187617,-0.23901367,-0.9458618,0.2675171,1.625,-3.1875,0.234375
192,1727263187657,-0.22680664,-0.9458618,0.29901123,2.46875,-2.46875,0.484375
193,1727263187697,-0.24536133,-0.9492798,0.28240967,2.703125,-1.3125,0.46875
194,1727263187737,-0.23266602,-0.94854736,0.28582764,2.625,-0.953125,0.34375
195,1727263187777,-0.24243164,-0.95513916,0.27874756,1.984375,-1.234375,0.484375
196,1727263187817,-0.22485352,-0.9541626,0.27166748,1.703125,-0.90625,0.0
197,1727263187857,-0.24389648,-0.9558716,0.2633667,2.046875,-0.578125,0.390625
198,1727263187897,-0.22631836,-0.9468384,0.25872803,2.71875,-1.296875,0.78125
199,1727263187937,-0.23999023,-0.95635986,0.25653076,1.15625,0.78125,0.125
200,1727263187977,-0.21899414,-0.9561157,0.25775146,3.96875,-0.921875,0.71875
201,1727263188017,-0.23779297,-0.9529419,0.2423706,1.703125,-0.34375,0.453125
202,1727263188057,-0.234375,-0.95806885,0.24505615,1.21875,0.1875,0.25
203,1727263188097,-0.23999023,-0.96099854,0.25164795,1.78125,1.234375,0.625
204,1727263188137,-0.23486328,-0.95635986,0.24481201,1.953125,0.71875,0.609375
205,1727263188177,-0.23828125,-0.9585571,0.25531006,0.140625,3.09375,0.25
206,1727263188217,-0.2211914,-0.9558716,0.23358154,0.984375,-0.46875,0.109375
207,1727263188257,-0.2211914,-0.95391846,0.22357178,1.203125,0.28125,1.1875
208,1727263188297,-0.23071289,-0.9624634,0.23040771,0.171875,0.765625,0.4375
209,1727263188337,-0.21777344,-0.96173096,0.2321167,1.390625,0.34375,1.0
210,1727263188377,-0.22265625,-0.9578247,0.21990967,1.578125,0.171875,0.65625
211,1727263188417,-0.22509766,-0.9639282,0.22845459,1.0,0.703125,0.578125
212,1727263188457,-0.22192383,-0.9590454,0.23260498,0.859375,0.34375,0.65625
213,1727263188497,-0.21386719,-0.9678345,0.21551514,0.9375,0.8125,0.203125
214,1727263188537,-0.22436523,-0.96539307,0.22283936,1.234375,0.359375,0.734375
215,1727263188577,-0.22485352,-0.9668579,0.2140503,0.84375,0.828125,0.375
216,1727263188617,-0.22924805,-0.9649048,0.22015381,1.015625,0.28125,0.375
217,1727263188657,-0.22167969,-0.9649048,0.21356201,0.171875,0.578125,-0.109375
218,1727263188697,-0.22558594,-0.9697876,0.21038818,-0.5625,0.75,-0.234375
219,1727263188737,-0.21582031,-0.9690552,0.20941162,1.1875,0.5,0.0625
220,1727263188777,-0.2277832,-0.96710205,0.21234131,-1.296875,0.203125,-0.546875
221,1727263188817,-0.2265625,-0.96588135,0.20648193,-1.578125,1.359375,-1.140625
222,1727263188857,-0.2163086,-0.972229,0.22088623,-0.890625,0.453125,-0.46875
223,1727263188897,-0.21972656,-0.9668579,0.20770264,-1.28125,-0.234375,-0.515625
224,1727263188937,-0.2253418,-0.975647,0.2177124,-1.015625,-0.890625,-0.625
225,1727263188977,-0.22509766,-0.9619751,0.21917725,-1.28125,-0.859375,-0.296875
226,1727263189017,-0.22216797,-0.9729614,0.21356201,-1.296875,-0.453125,-0.3125
227,1727263189057,-0.23339844,-0.9614868,0.21990967,-4.28125,1.609375,-1.484375
228,1727263189097,-0.22607422,-0.96661377,0.21307373,-4.40625,0.0,-1.953125
229,1727263189137,-0.23730469,-0.95758057,0.23162842,-4.5,-0.265625,-0.984375
230,1727263189177,-0.22241211,-0.95977783,0.23431396,-5.40625,1.1875,-1.296875
231,1727263189217,-0.23095703,-0.9612427,0.23480225,-5.140625,0.671875,-0.796875
232,1727263189257,-0.23706055,-0.958313,0.24676514,-3.546875,-0.28125,-0.359375
233,1727263189297,-0.23095703,-0.9570923,0.23724365,-2.5,0.0,-0.09375
234,1727263189337,-0.24243164,-0.9578247,0.25164795,-2.53125,1.203125,-0.21875
235,1727263189377,-0.2265625,-0.96099854,0.24163818,-2.125,-0.171875,-0.46875
236,1727263189417,-0.24023438,-0.9558716,0.25408936,-1.859375,2.25,0.03125
237,1727263189457,-0.22973633,-0.9475708,0.2518921,-2.625,1.296875,-0.453125
238,1727263189497,-0.22998047,-0.9553833,0.2579956,-0.234375,-0.078125,0.46875
239,1727263189537,-0.2331543,-0.9468384,0.25091553,-1.59375,-3.0,-0.171875
240,1727263189577,-0.23364258,-0.9631958,0.26068115,0.0,-0.9375,0.453125
241,1727263189617,-0.24243164,-0.9468384,0.25238037,-1.3125,0.53125,0.4375
242,1727263189657,-0.2253418,-0.96417236,0.25238037,-0.625,-0.53125,0.1875
243,1727263189697,-0.23535156,-0.9541626,0.25408936,-1.421875,-0.875,0.0625
244,1727263189737,-0.23144531,-0.9500122,0.26068115,-0.8125,-0.40625,0.046875
245,1727263189777,-0.23071289,-0.95147705,0.25115967,-1.140625,-0.65625,0.046875
246,1727263189817,-0.22753906,-0.9505005,0.2579956,-1.3125,0.390625,-0.4375
247,1727263189857,-0.23461914,-0.9590454,0.26287842,-0.796875,0.765625,0.1875
248,1727263189897,-0.22387695,-0.9512329,0.24798584,-1.859375,-0.265625,-0.359375
249,1727263189937,-0.234375,-0.9590454,0.260437,-1.8125,-0.25,-0.3125
250,1727263189977,-0.2319336,-0.95513916,0.2616577,-1.21875,-0.171875,-0.140625
251,1727263190017,-0.23095703,-0.95684814,0.2670288,-1.046875,-0.421875,-0.15625
252,1727263190057,-0.23779297,-0.9578247,0.2645874,-1.34375,-0.734375,-0.078125
253,1727263190097,-0.2355957,-0.95098877,0.2658081,-1.9375,-0.375,-0.34375
254,1727263190137,-0.23461914,-0.9570923,0.26776123,-1.625,-0.296875,0.0625
255,1727263190177,-0.23217773,-0.95440674,0.25872803,-2.296875,0.359375,-0.640625
256,1727263190217,-0.23510742,-0.95147705,0.28656006,-1.09375,0.734375,-0.234375
257,1727263190257,-0.24023438,-0.94732666,0.27069092,-3.8125,0.78125,-1.03125
258,1727263190297,-0.23730469,-0.9507446,0.26141357,-2.0,0.140625,-0.453125
259,1727263190337,-0.24316406,-0.94488525,0.28094482,-2.421875,0.515625,-0.4375
260,1727263190377,-0.23876953,-0.95025635,0.2789917,-1.5625,0.21875,-0.46875
261,1727263190417,-0.23535156,-0.95635986,0.28338623,-1.84375,0.03125,-0.390625
262,1727263190457,-0.24511719,-0.95391846,0.27874756,-1.046875,-0.640625,-0.046875
263,1727263190497,-0.24438477,-0.9492798,0.28363037,-0.265625,-1.125,0.078125
264,1727263190537,-0.24389648,-0.9495239,0.28631592,-0.015625,-2.28125,0.03125
265,1727263190577,-0.23779297,-0.95025635,0.27996826,0.328125,-1.8125,0.171875
266,1727263190617,-0.23925781,-0.9522095,0.26141357,-0.625,-0.71875,-0.296875
267,1727263190657,-0.24365234,-0.9507446,0.28167725,0.53125,-1.265625,0.046875
268,1727263190697,-0.23657227,-0.9524536,0.2748413,0.3125,-0.75,0.203125
269,1727263190737,-0.24780273,-0.95025635,0.27313232,0.3125,-0.625,0.125
270,1727263190777,-0.24243164,-0.9505005,0.27069092,0.328125,0.03125,0.296875
271,1727263190817,-0.2368164,-0.9468384,0.26483154,-0.140625,-0.40625,0.0625
272,1727263190857,-0.24365234,-0.95318604,0.2748413,0.46875,0.125,0.21875
273,1727263190897,-0.22802734,-0.9536743,0.26654053,-0.03125,-0.09375,0.015625
274,1727263190937,-0.2409668,-0.9612427,0.2748413,1.84375,-0.921875,0.578125
275,1727263190977,-0.23754883,-0.94854736,0.25482178,-0.65625,-3.0,-0.390625
276,1727263191017,-0.23608398,-0.956604,0.25482178,1.453125,-0.78125,0.21875
277,1727263191057,-0.24609375,-0.9517212,0.26141357,1.609375,-1.125,0.421875
278,1727263191097,-0.23779297,-0.9536743,0.25286865,1.546875,-1.453125,0.0625
279,1727263191137,-0.24169922,-0.9536743,0.25872803,0.9375,0.078125,0.328125
280,1727263191177,-0.24365234,-0.958313,0.24163818,2.984375,-0.828125,0.390625
281,1727263191217,-0.23730469,-0.9487915,0.24969482,1.359375,-0.09375,0.40625
282,1727263191257,-0.24267578,-0.96099854,0.23529053,0.96875,0.140625,0.046875
283,1727263191297,-0.23071289,-0.9585571,0.24798584,1.359375,0.671875,0.671875
284,1727263191337,-0.24389648,-0.95928955,0.23504639,1.28125,0.15625,0.40625
285,1727263191377,-0.2434082,-0.9561157,0.23309326,1.3125,-0.046875,0.421875
286,1727263191417,-0.23803711,-0.9573364,0.23406982,0.609375,0.953125,0.21875
287,1727263191457,-0.23852539,-0.95928955,0.22698975,1.3125,-0.046875,0.421875
288,1727263191497,-0.23242188,-0.9573364,0.23358154,0.96875,1.421875,0.46875
289,1727263191537,-0.23071289,-0.9702759,0.23040771,0.78125,1.40625,0.125
290,1727263191577,-0.24023438,-0.9678345,0.22137451,2.21875,0.765625,0.28125
291,1727263191617,-0.21801758,-0.9546509,0.21551514,0.203125,0.921875,-0.234375
292,1727263191657,-0.23876953,-0.9690552,0.23577881,2.796875,-0.8125,1.0
293,1727263191697,-0.22583008,-0.96343994,0.20428467,-0.359375,-0.921875,-0.46875
294,1727263191737,-0.23291016,-0.9656372,0.22039795,1.25,-0.203125,0.390625
295,1727263191777,-0.23144531,-0.9678345,0.20281982,-0.09375,1.03125,0.390625
296,1727263191817,-0.22875977,-0.9595337,0.22161865,0.21875,-1.03125,0.234375
297,1727263191857,-0.23535156,-0.97369385,0.20477295,0.4375,-0.5625,0.234375
298,1727263191897,-0.23461914,-0.960022,0.20599365,1.5,0.96875,0.140625
299,1727263191937,-0.2241211,-0.9661255,0.20574951,1.78125,0.265625,0.390625
300,1727263191977,-0.22851562,-0.96539307,0.20111084,1.265625,1.28125,0.203125
301,1727263192017,-0.23632812,-0.96221924,0.20477295,0.5,1.015625,0.203125
302,1727263192057,-0.23071289,-0.96343994,0.20770264,0.109375,-0.09375,0.046875
303,1727263192097,-0.2319336,-0.9590454,0.20697021,-1.3125,-0.203125,-0.453125
304,1727263192137,-0.24072266,-0.9663696,0.19378662,-2.359375,-0.875,-0.671875
305,1727263192177,-0.23168945,-0.96343994,0.21136475,-2.09375,-0.6875,-0.59375
306,1727263192217,-0.22607422,-0.9612427,0.22039795,-4.609375,-2.3125,-0.875
307,1727263192257,-0.24926758,-0.95513916,0.20257568,-6.890625,-2.375,-1.1875
308,1727263192297,-0.23217773,-0.9663696,0.22821045,-5.90625,0.3125,-0.421875
309,1727263192337,-0.24584961,-0.9734497,0.22747803,-6.234375,1.5625,-1.046875
310,1727263192377,-0.22802734,-0.95440674,0.2033081,-2.203125,-0.109375,-0.21875
311,1727263192417,-0.23730469,-0.9649048,0.22845459,-3.640625,1.015625,-0.328125
312,1727263192457,-0.23730469,-0.9570923,0.24066162,-4.828125,3.453125,-1.03125
313,1727263192497,-0.2397461,-0.9602661,0.2411499,-2.46875,1.3125,-0.03125
314,1727263192537,-0.23608398,-0.9570923,0.23504639,-2.328125,1.640625,-0.09375
315,1727263192577,-0.23144531,-0.96051025,0.24554443,-2.421875,1.140625,-0.203125
316,1727263192617,-0.23144531,-0.9505005,0.2399292,-2.84375,0.46875,-0.03125
317,1727263192657,-0.23095703,-0.95269775,0.25335693,-1.625,-2.125,0.484375
318,1727263192697,-0.24414062,-0.95562744,0.24749756,-1.734375,-3.203125,0.265625
319,1727263192737,-0.2253418,-0.95880127,0.26068115,0.03125,-0.296875,0.484375
320,1727263192777,-0.23730469,-0.9463501,0.24700928,-0.546875,-0.375,0.46875
321,1727263192817,-0.23461914,-0.95318604,0.2489624,-0.09375,-1.53125,0.265625
322,1727263192857,-0.24121094,-0.958313,0.25213623,-0.375,-0.328125,0.328125
323,1727263192897,-0.2368164,-0.95562744,0.24163818,-0.9375,-0.125,0.125
324,1727263192937,-0.24194336,-0.96759033,0.24871826,1.890625,-1.9375,0.796875
325,1727263192977,-0.23266602,-0.9541626,0.2453003,0.65625,-1.515625,0.34375
326,1727263193017,-0.22924805,-0.96173096,0.24310303,0.265625,-0.75,0.359375
327,1727263193057,-0.23583984,-0.9612427,0.24188232,-0.453125,-0.5625,0.078125
328,1727263193097,-0.23730469,-0.95758057,0.25286865,1.578125,-0.984375,0.75
329,1727263193137,-0.23461914,-0.96173096,0.23114014,-1.71875,-1.046875,-0.234375
330,1727263193177,-0.24389648,-0.9614868,0.2501831,-0.046875,-1.6875,0.28125
331,1727263193217,-0.23388672,-0.95269775,0.23797607,-0.890625,-1.09375,0.28125
332,1727263193257,-0.2290039,-0.9612427,0.23895264,-0.4375,-1.890625,0.234375
333,1727263193297,-0.24121094,-0.95758057,0.24456787,-0.859375,-1.875,0.171875
334,1727263193337,-0.23779297,-0.9578247,0.23797607,-1.015625,-1.046875,0.34375
335,1727263193377,-0.23925781,-0.95977783,0.23944092,-1.40625,-1.765625,0.171875
336,1727263193417,-0.23608398,-0.96099854,0.24188232,-1.65625,-1.109375,0.015625
337,1727263193457,-0.2368164,-0.9590454,0.24481201,-1.484375,-0.578125,0.21875
338,1727263193497,-0.23364258,-0.9470825,0.23895264,-2.0625,0.046875,-0.125
339,1727263193537,-0.23999023,-0.9612427,0.24261475,-2.1875,0.328125,-0.390625
340,1727263193577,-0.23754883,-0.95196533,0.24798584,-1.75,-0.140625,-0.046875
341,1727263193617,-0.24414062,-0.9529419,0.2543335,-1.140625,-2.25,0.15625
342,1727263193657,-0.24243164,-0.958313,0.25604248,-2.5625,-2.34375,-0.4375
343,1727263193697,-0.23852539,-0.9690552,0.2423706,-3.734375,-0.578125,-1.203125
344,1727263193737,-0.23413086,-0.9651489,0.24798584,-1.921875,1.0,-0.390625
345,1727263193777,-0.2331543,-0.9507446,0.23797607,-3.171875,0.953125,-0.875
346,1727263193817,-0.24584961,-0.95269775,0.26361084,-0.71875,-0.15625,-0.234375
347,1727263193857,-0.2512207,-0.95196533,0.2633667,-2.703125,-0.171875,-1.359375
348,1727263193897,-0.24975586,-0.96343994,0.2597046,-0.46875,0.875,-0.484375
349,1727263193937,-0.23632812,-0.94732666,0.25286865,-1.625,1.265625,-0.578125
350,1727263193977,-0.23461914,-0.95635986,0.2538452,0.1875,-0.484375,0.046875
351,1727263194017,-0.23876953,-0.9573364,0.2526245,0.046875,-1.046875,-0.25
352,1727263194057,-0.2446289,-0.9529419,0.24993896,2.3125,-1.109375,0.328125
353,1727263194097,-0.23413086,-0.94415283,0.24505615,1.21875,-1.71875,0.4375
354,1727263194137,-0.24389648,-0.95928955,0.25579834,2.296875,-1.8125,0.625
355,1727263194177,-0.25830078,-0.9529419,0.24725342,3.0,-3.90625,2.234375
356,1727263194217,-0.24023438,-0.9475708,0.2243042,1.5,-2.53125,1.4375
357,1727263194257,-0.24560547,-0.95684814,0.24676514,2.421875,-0.625,1.34375
358,1727263194297,-0.23925781,-0.9590454,0.22723389,1.234375,0.109375,0.5625
359,1727263194337,-0.23828125,-0.9578247,0.22894287,1.625,1.015625,0.703125
360,1727263194377,-0.24194336,-0.9585571,0.2255249,1.625,1.609375,0.3125
361,1727263194417,-0.23828125,-0.96710205,0.22601318,2.15625,1.421875,-0.03125
362,1727263194457,-0.22167969,-0.96173096,0.21990967,1.15625,1.859375,0.0
363,1727263194497,-0.23876953,-0.9631958,0.22943115,2.984375,0.796875,0.71875
364,1727263194537,-0.23950195,-0.9585571,0.21356201,-0.015625,0.703125,-0.984375
365,1727263194577,-0.23510742,-0.96832275,0.21209717,1.390625,1.671875,0.015625
366,1727263194617,-0.23950195,-0.9578247,0.215271,-0.921875,2.234375,0.890625
367,1727263194657,-0.2241211,-0.9734497,0.20941162,-1.171875,1.25,0.734375
368,1727263194697,-0.23657227,-0.9590454,0.2074585,-0.703125,1.53125,1.359375
369,1727263194737,-0.23071289,-0.96221924,0.22161865,0.125,1.171875,0.46875
370,1727263194777,-0.22998047,-0.9663696,0.20257568,0.25,1.109375,0.46875
371,1727263194817,-0.23120117,-0.9590454,0.21966553,0.8125,0.71875,0.34375
372,1727263194857,-0.2277832,-0.96588135,0.20599365,1.15625,0.84375,0.484375
373,1727263194897,-0.2265625,-0.96295166,0.21307373,0.75,1.5,0.421875
374,1727263194937,-0.23071289,-0.96710205,0.21038818,0.40625,0.46875,0.453125
375,1727263194977,-0.23071289,-0.9649048,0.21087646,-0.5625,1.1875,0.375
376,1727263195017,-0.2211914,-0.96417236,0.20574951,-0.359375,0.3125,0.0625
377,1727263195057,-0.22949219,-0.96417236,0.20770264,-1.234375,0.484375,-0.21875
378,1727263195097,-0.2265625,-0.9624634,0.20916748,-0.78125,0.171875,0.109375
379,1727263195137,-0.23095703,-0.96954346,0.21185303,-1.25,0.203125,-0.40625
380,1727263195177,-0.21972656,-0.9692993,0.20965576,-1.0625,0.3125,-0.203125
381,1727263195217,-0.22827148,-0.96588135,0.20672607,-0.296875,0.40625,-0.234375
382,1727263195257,-0.22485352,-0.9734497,0.21209717,-0.84375,-1.046875,-0.40625
383,1727263195297,-0.21777344,-0.96343994,0.21502686,-3.765625,-1.15625,-2.0625
384,1727263195337,-0.24584961,-0.9751587,0.22894287,-5.625,-0.65625,-2.046875
385,1727263195377,-0.22094727,-0.9522095,0.21185303,-11.53125,2.4375,-3.734375
386,1727263195417,-0.24804688,-0.9758911,0.24163818,-6.921875,0.78125,-2.0625
387,1727263195457,-0.24707031,-0.9673462,0.2411499,-1.34375,-2.046875,-0.421875
388,1727263195497,-0.22485352,-0.95635986,0.25628662,-3.21875,0.296875,-0.90625
389,1727263195537,-0.25097656,-0.95880127,0.22454834,-2.921875,-1.40625,-0.265625
390,1727263195577,-0.23632812,-0.95684814,0.24822998,-2.5,-0.453125,-0.5
391,1727263195617,-0.24609375,-0.96295166,0.26361084,-3.078125,0.609375,-0.015625
392,1727263195657,-0.25512695,-0.94537354,0.24334717,-2.53125,-0.578125,-0.484375
393,1727263195697,-0.23608398,-0.9619751,0.2538452,-2.375,-0.390625,-0.59375
394,1727263195737,-0.2541504,-0.95928955,0.2633667,-1.375,-0.078125,0.0
395,1727263195777,-0.23876953,-0.95147705,0.2518921,-1.28125,0.453125,-0.140625
396,1727263195817,-0.24365234,-0.95684814,0.2584839,-1.140625,0.78125,-0.125
397,1727263195857,-0.24267578,-0.94488525,0.25872803,-1.421875,0.359375,-0.375
398,1727263195897,-0.25585938,-0.94415283,0.260437,-1.421875,1.625,-0.171875
399,1727263195937,-0.22998047,-0.95318604,0.24847412,-0.859375,-0.1875,-0.328125
400,1727263195977,-0.24023438,-0.9536743,0.25506592,-0.46875,0.546875,0.125
401,1727263196017,-0.2512207,-0.95440674,0.25750732,-1.953125,0.78125,-0.328125
402,1727263196057,-0.24584961,-0.9649048,0.27386475,-0.421875,1.328125,0.390625
403,1727263196097,-0.2487793,-0.9534302,0.26385498,-1.28125,1.5625,0.03125
404,1727263196137,-0.23583984,-0.9546509,0.25775146,-0.234375,0.234375,0.28125
405,1727263196177,-0.24609375,-0.9517212,0.26287842,-0.625,1.1875,0.328125
406,1727263196217,-0.23706055,-0.9500122,0.25653076,0.515625,-0.078125,0.921875
407,1727263196257,-0.24365234,-0.9505005,0.26385498,-0.6875,-1.640625,0.234375
408,1727263196297,-0.25195312,-0.9495239,0.26898193,-0.21875,-0.75,0.25
409,1727263196337,-0.23828125,-0.95025635,0.25482178,-1.0625,-0.265625,0.21875
410,1727263196377,-0.24291992,-0.95684814,0.25653076,-0.421875,-0.75,0.3125
411,1727263196417,-0.2397461,-0.9590454,0.25897217,-0.734375,-0.796875,0.359375
412,1727263196457,-0.23999023,-0.95635986,0.25286865,-0.859375,-0.28125,0.359375
413,1727263196497,-0.24194336,-0.9507446,0.26190186,-0.890625,-0.0625,0.34375
414,1727263196537,-0.23242188,-0.9522095,0.260437,-0.859375,-0.3125,0.28125
415,1727263196577,-0.23828125,-0.94854736,0.26287842,-1.046875,0.1875,0.328125
416,1727263196617,-0.23852539,-0.954895,0.25701904,-1.671875,1.265625,-0.015625
417,1727263196657,-0.2331543,-0.95196533,0.26678467,0.625,-0.0625,0.65625
418,1727263196697,-0.2446289,-0.95635986,0.25238037,-2.4375,0.671875,-0.328125
419,1727263196737,-0.24072266,-0.94732666,0.26507568,-1.546875,0.625,-0.375
420,1727263196777,-0.23339844,-0.95196533,0.26361084,-0.890625,-0.28125,0.046875
421,1727263196817,-0.2290039,-0.94854736,0.26239014,-1.3125,-0.4375,-0.171875
422,1727263196857,-0.24414062,-0.94537354,0.27313232,-0.734375,-1.640625,0.28125
423,1727263196897,-0.24023438,-0.95513916,0.27215576,-1.734375,-1.453125,0.03125
424,1727263196937,-0.24804688,-0.9624634,0.2748413,-0.953125,-2.265625,0.1875
425,1727263196977,-0.2331543,-0.94854736,0.2538452,-2.390625,-1.4375,-0.3125
426,1727263197017,-0.23828125,-0.958313,0.26312256,-1.375,-0.125,-0.09375
427,1727263197057,-0.24169922,-0.94317627,0.26605225,-0.765625,-1.375,-0.109375
428,1727263197097,-0.2421875,-0.9536743,0.2633667,-0.1875,-1.203125,0.0
429,1727263197137,-0.24780273,-0.9517212,0.25579834,0.078125,-0.734375,0.015625
430,1727263197177,-0.23486328,-0.9417114,0.26922607,1.734375,-0.96875,0.4375
431,1727263197217,-0.24243164,-0.9492798,0.26434326,2.0,-0.21875,0.34375
432,1727263197257,-0.22998047,-0.9470825,0.24725342,3.453125,-1.53125,0.515625
433,1727263197297,-0.24584961,-0.9561157,0.2616577,3.390625,0.765625,0.84375
434,1727263197337,-0.22705078,-0.9602661,0.24676514,3.578125,-0.125,0.578125
435,1727263197377,-0.23291016,-0.9612427,0.25115967,4.390625,0.890625,1.546875
436,1727263197417,-0.23632812,-0.9631958,0.24188232,1.453125,-0.078125,0.5625
437,1727263197457,-0.23095703,-0.96954346,0.2243042,4.09375,0.4375,1.484375
438,1727263197497,-0.23657227,-0.9558716,0.20721436,2.3125,1.4375,1.0
439,1727263197537,-0.23217773,-0.9656372,0.22772217,1.921875,0.03125,0.578125
440,1727263197577,-0.23583984,-0.9661255,0.21331787,1.046875,0.359375,0.828125
441,1727263197617,-0.21826172,-0.9644165,0.20574951,1.515625,0.34375,0.6875
442,1727263197657,-0.22387695,-0.9590454,0.2177124,1.375,-0.96875,0.75
443,1727263197697,-0.22973633,-0.9692993,0.21356201,1.0,0.203125,0.359375
444,1727263197737,-0.2290039,-0.96417236,0.19915771,0.78125,0.40625,0.6875
445,1727263197777,-0.23144531,-0.9673462,0.20477295,1.0,-0.28125,0.453125
446,1727263197817,-0.22802734,-0.9678345,0.19989014,0.765625,0.78125,0.53125
447,1727263197857,-0.23266602,-0.96588135,0.20281982,0.78125,1.28125,0.859375
448,1727263197897,-0.22094727,-0.9607544,0.20184326,1.03125,0.5625,0.71875
449,1727263197937,-0.22167969,-0.9727173,0.19281006,0.3125,1.3125,0.46875
450,1727263197977,-0.21728516,-0.9734497,0.19622803,0.21875,1.0,0.625
451,1727263198017,-0.22265625,-0.9714966,0.19647217,0.84375,1.4375,0.6875
452,1727263198057,-0.21582031,-0.96539307,0.19012451,0.921875,1.234375,0.3125
453,1727263198097,-0.21069336,-0.9758911,0.2111206,3.25,1.0,0.359375
454,1727263198137,-0.2097168,-0.95806885,0.16888428,1.28125,0.78125,-0.09375
455,1727263198177,-0.22558594,-0.9717407,0.19281006,2.125,-0.078125,-0.03125
456,1727263198217,-0.21606445,-0.9661255,0.16009521,0.390625,1.28125,0.15625
457,1727263198257,-0.21435547,-0.972229,0.18426514,0.6875,-0.484375,-0.15625
458,1727263198297,-0.22192383,-0.96954346,0.1798706,0.75,-0.765625,0.59375
459,1727263198337,-0.22631836,-0.9607544,0.17132568,-0.265625,-0.375,0.0
460,1727263198377,-0.22998047,-0.9717407,0.1774292,-0.21875,-1.0,-0.125
461,1727263198417,-0.22460938,-0.9727173,0.17181396,-1.0,-0.03125,-0.390625
462,1727263198457,-0.22216797,-0.9714966,0.1786499,-1.0,0.046875,-0.28125
463,1727263198497,-0.22094727,-0.97198486,0.17059326,-1.28125,0.140625,-0.515625
464,1727263198537,-0.22143555,-0.9673462,0.17327881,-0.78125,0.09375,-0.546875
465,1727263198577,-0.22387695,-0.97076416,0.184021,-0.484375,-0.4375,-0.234375
466,1727263198617,-0.22998047,-0.96954346,0.17669678,-0.875,-1.28125,-0.6875
467,1727263198657,-0.22998047,-0.97076416,0.17840576,-1.515625,-0.8125,-0.453125
468,1727263198697,-0.22094727,-0.97198486,0.17547607,-3.0625,-1.109375,-0.796875
469,1727263198737,-0.22070312,-0.9710083,0.17962646,-1.90625,-0.75,-0.265625
470,1727263198777,-0.22314453,-0.96954346,0.17791748,-2.59375,-1.28125,-0.484375
471,1727263198817,-0.22265625,-0.96954346,0.18890381,-1.859375,-0.578125,-0.3125
472,1727263198857,-0.2133789,-0.9710083,0.18597412,-3.6875,-0.21875,-0.984375
473,1727263198897,-0.21948242,-0.97613525,0.17938232,-1.171875,1.59375,-0.546875
474,1727263198937,-0.23999023,-0.97125244,0.18695068,0.234375,3.4375,0.75
475,1727263198977,-0.22729492,-0.9624634,0.1708374,0.640625,0.859375,0.328125
476,1727263199017,-0.22460938,-0.96954346,0.2033081,-0.09375,1.109375,0.53125
477,1727263199057,-0.21704102,-0.9631958,0.1876831,0.5625,0.53125,0.78125
478,1727263199097,-0.22509766,-0.9673462,0.18792725,-0.46875,-1.0,0.421875
479,1727263199137,-0.22607422,-0.96588135,0.18841553,-1.25,-0.734375,-0.0625
480,1727263199177,-0.23144531,-0.9727173,0.18890381,-1.796875,1.140625,-0.015625
481,1727263199217,-0.21655273,-0.9697876,0.17034912,-1.71875,-1.359375,-0.203125
482,1727263199257,-0.22973633,-0.96954346,0.19134521,-2.359375,-0.1875,-0.234375
483,1727263199297,-0.23242188,-0.9692993,0.18572998,-2.375,-0.4375,-0.375
484,1727263199337,-0.22167969,-0.973938,0.1618042,0.640625,-3.140625,0.3125
485,1727263199377,-0.23730469,-0.9710083,0.19866943,-0.640625,0.4375,0.125
486,1727263199417,-0.22509766,-0.9663696,0.19012451,-0.75,-0.46875,-0.03125
487,1727263199457,-0.22363281,-0.96759033,0.18450928,-1.265625,-0.46875,-0.03125
488,1727263199497,-0.21582031,-0.96099854,0.18231201,-2.34375,0.3125,-0.3125
489,1727263199537,-0.22094727,-0.97052,0.2020874,-0.34375,-0.21875,0.046875
490,1727263199577,-0.22705078,-0.9573364,0.18695068,-3.046875,0.171875,-0.84375
491,1727263199617,-0.22021484,-0.9734497,0.1954956,-2.421875,0.609375,-0.421875
492,1727263199657,-0.22631836,-0.97369385,0.18963623,-3.40625,0.53125,-0.484375
493,1727263199697,-0.22045898,-0.9661255,0.20550537,-3.703125,0.78125,-0.546875
494,1727263199737,-0.23364258,-0.96539307,0.20916748,-4.984375,1.5625,-0.84375
495,1727263199777,-0.2331543,-0.9561157,0.20672607,-3.3125,0.15625,-0.375
496,1727263199817,-0.23266602,-0.9578247,0.21697998,-4.0,-0.828125,-0.515625
497,1727263199857,-0.2319336,-0.95880127,0.21600342,-3.609375,-0.265625,-0.71875
498,1727263199897,-0.22387695,-0.9573364,0.2098999,-2.0625,-0.984375,-0.015625
499,1727263199937,-0.23291016,-0.96051025,0.2140503,-1.8125,-1.5,-0.21875
500,1727263199977,-0.23876953,-0.9614868,0.23016357,-0.890625,-1.15625,-0.125
501,1727263200017,-0.23266602,-0.9661255,0.22137451,-0.234375,-3.0625,0.0
502,1727263200057,-0.2409668,-0.9602661,0.2189331,-1.15625,-1.265625,-0.265625
503,1727263200097,-0.23608398,-0.9649048,0.2111206,-1.734375,-1.59375,-0.78125
504,1727263200137,-0.23510742,-0.9570923,0.2230835,-1.03125,-1.03125,-0.515625
505,1727263200177,-0.23754883,-0.9663696,0.20794678,-1.078125,-0.125,-0.671875
506,1727263200217,-0.23364258,-0.9602661,0.23822021,1.609375,-0.375,0.09375
507,1727263200257,-0.24023438,-0.9541626,0.21697998,-0.578125,-2.625,-0.609375
508,1727263200297,-0.23657227,-0.9631958,0.21966553,-1.09375,0.65625,-0.96875
509,1727263200337,-0.23657227,-0.96759033,0.22381592,-0.375,0.03125,-0.234375
510,1727263200377,-0.23168945,-0.960022,0.21356201,0.359375,-0.65625,-0.015625
511,1727263200417,-0.23950195,-0.96661377,0.22991943,-0.1875,-1.0,-0.109375
512,1727263200457,-0.23364258,-0.958313,0.21087646,-0.515625,-0.359375,-0.140625
513,1727263200497,-0.23510742,-0.9627075,0.22454834,0.3125,-1.453125,0.5
514,1727263200537,-0.23925781,-0.95977783,0.21307373,-0.78125,-0.890625,-0.015625
515,1727263200577,-0.2331543,-0.9692993,0.21990967,-0.40625,-0.125,0.453125
516,1727263200617,-0.23730469,-0.9573364,0.20843506,-0.171875,-1.125,0.546875
517,1727263200657,-0.24194336,-0.9651489,0.21380615,-0.046875,-1.53125,0.34375
518,1727263200697,-0.24365234,-0.96588135,0.2098999,0.5625,-1.078125,0.8125
519,1727263200737,-0.24145508,-0.9529419,0.21185303,0.96875,-0.359375,0.859375
520,1727263200777,-0.23925781,-0.96173096,0.21185303,0.765625,-0.046875,0.546875
521,1727263200817,-0.23510742,-0.95977783,0.21380615,-0.234375,0.578125,0.234375
522,1727263200857,-0.23901367,-0.9649048,0.20672607,-0.21875,1.703125,0.328125
523,1727263200897,-0.22607422,-0.96710205,0.20770264,2.265625,-0.46875,0.453125
524,1727263200937,-0.23046875,-0.9656372,0.20111084,-1.125,0.84375,0.265625
525,1727263200977,-0.23852539,-0.9619751,0.20550537,-0.640625,1.203125,-0.59375
526,1727263201017,-0.22827148,-0.96954346,0.20941162,-0.359375,2.125,-0.046875
527,1727263201057,-0.2277832,-0.95977783,0.19744873,-0.4375,0.78125,-0.578125
528,1727263201097,-0.2409668,-0.97442627,0.21160889,-1.484375,1.21875,-0.609375
529,1727263201137,-0.23339844,-0.9678345,0.20379639,-1.359375,1.09375,-0.71875
530,1727263201177,-0.2319336,-0.95977783,0.20526123,-1.9375,0.09375,-0.296875
531,1727263201217,-0.23632812,-0.9661255,0.19866943,-1.78125,-0.75,-0.5625
532,1727263201257,-0.234375,-0.97003174,0.20965576,-1.140625,-0.25,-0.265625
533,1727263201297,-0.24414062,-0.95977783,0.2008667,-1.03125,-0.375,-0.015625
534,1727263201337,-0.23217773,-0.9578247,0.20428467,-1.4375,0.234375,-0.328125
535,1727263201377,-0.25073242,-0.97125244,0.20941162,-0.46875,-0.171875,0.109375
536,1727263201417,-0.24267578,-0.9607544,0.20648193,-0.84375,0.15625,0.1875
537,1727263201457,-0.23632812,-0.9607544,0.20428467,-0.34375,-0.046875,0.1875
538,1727263201497,-0.24023438,-0.9627075,0.2062378,-0.015625,-0.203125,0.328125
539,1727263201537,-0.24072266,-0.96466064,0.20721436,0.171875,0.03125,0.40625
540,1727263201577,-0.2319336,-0.9685669,0.1954956,-0.578125,0.265625,0.0625
541,1727263201617,-0.24145508,-0.9668579,0.2164917,1.34375,-0.5,0.84375
542,1727263201657,-0.24121094,-0.96417236,0.19378662,-1.609375,-0.71875,-0.328125
543,1727263201697,-0.23217773,-0.9717407,0.20648193,0.1875,0.6875,0.03125
544,1727263201737,-0.24414062,-0.95806885,0.199646,-0.921875,0.90625,0.171875
545,1727263201777,-0.22973633,-0.9644165,0.20794678,0.015625,-0.6875,0.109375
546,1727263201817,-0.2355957,-0.95928955,0.19866943,-1.046875,0.21875,0.015625
547,1727263201857,-0.23071289,-0.9692993,0.19891357,-0.640625,0.1875,-0.03125
548,1727263201897,-0.23999023,-0.96661377,0.19720459,-0.34375,-0.859375,0.28125
549,1727263201937,-0.22973633,-0.96759033,0.20135498,-0.21875,-0.234375,-0.046875
550,1727263201977,-0.2409668,-0.9595337,0.20184326,-0.546875,0.28125,-0.09375
551,1727263202017,-0.22753906,-0.95928955,0.19451904,-0.203125,-0.78125,-0.046875
552,1727263202057,-0.23266602,-0.9631958,0.20501709,-0.796875,0.015625,-0.203125
553,1727263202097,-0.234375,-0.95928955,0.20062256,-1.609375,0.78125,-0.53125
554,1727263202137,-0.23535156,-0.9627075,0.20672607,-1.328125,0.46875,-0.328125
555,1727263202177,-0.22558594,-0.95684814,0.20843506,-1.796875,0.53125,-0.15625
556,1727263202217,-0.23706055,-0.96954346,0.22039795,-4.015625,0.71875,-0.234375
557,1727263202257,-0.23461914,-0.96539307,0.22259521,-4.75,0.9375,-0.109375
558,1727263202297,-0.24926758,-0.9663696,0.21966553,-6.828125,0.984375,-0.84375
559,1727263202337,-0.23242188,-0.95758057,0.22283936,-6.0,1.859375,-1.3125
560,1727263202377,-0.23535156,-0.9631958,0.23577881,-4.421875,2.6875,-0.453125
561,1727263202417,-0.23779297,-0.9590454,0.23480225,-4.71875,1.953125,-0.890625
562,1727263202457,-0.2446289,-0.96588135,0.2489624,-2.5625,0.90625,-0.078125
563,1727263202497,-0.2409668,-0.9607544,0.2453003,-2.015625,0.90625,-0.015625
564,1727263202537,-0.24243164,-0.95513916,0.24090576,-1.90625,1.546875,0.078125
565,1727263202577,-0.23828125,-0.95758057,0.23846436,-2.0,-0.421875,-0.140625
566,1727263202617,-0.2355957,-0.9614868,0.26019287,-1.046875,1.28125,0.453125
567,1727263202657,-0.234375,-0.95562744,0.2374878,-1.359375,1.078125,0.1875
568,1727263202697,-0.23266602,-0.9522095,0.25042725,-1.15625,0.65625,-0.046875
569,1727263202737,-0.22973633,-0.96539307,0.25701904,-1.0625,0.578125,0.125
570,1727263202777,-0.23388672,-0.95440674,0.24993896,-1.3125,0.640625,0.078125
571,1727263202817,-0.2355957,-0.9553833,0.2501831,-1.421875,0.734375,0.09375
572,1727263202857,-0.2397461,-0.95684814,0.25360107,-1.609375,1.859375,0.109375
573,1727263202897,-0.2331543,-0.9546509,0.26019287,0.15625,-0.125,0.53125
574,1727263202937,-0.23168945,-0.9607544,0.24334717,-2.375,1.109375,-0.15625
575,1727263202977,-0.23779297,-0.9507446,0.26190186,-2.140625,0.765625,-0.25
576,1727263203017,-0.23242188,-0.95880127,0.26531982,-1.796875,0.421875,-0.046875
577,1727263203057,-0.2277832,-0.9573364,0.25579834,-2.59375,1.078125,-0.21875
578,1727263203097,-0.23266602,-0.95977783,0.2616577,-1.84375,-0.265625,0.03125
579,1727263203137,-0.22949219,-0.9470825,0.26922607,-1.53125,-0.046875,0.203125
580,1727263203177,-0.23144531,-0.9495239,0.25872803,-1.734375,-0.515625,-0.078125
581,1727263203217,-0.23217773,-0.95391846,0.26727295,-1.78125,-0.234375,-0.25
582,1727263203257,-0.2355957,-0.9512329,0.26922607,-0.75,-0.625,0.15625
583,1727263203297,-0.24169922,-0.9529419,0.27069092,-1.140625,-0.8125,-0.34375
584,1727263203337,-0.2368164,-0.95562744,0.27215576,-0.609375,-2.328125,0.078125
585,1727263203377,-0.24389648,-0.9541626,0.2748413,-0.5625,-2.625,0.25
586,1727263203417,-0.25048828,-0.95025635,0.2633667,-1.0625,-2.09375,-0.3125
587,1727263203457,-0.23608398,-0.956604,0.26678467,-0.53125,-3.109375,-0.046875
588,1727263203497,-0.23706055,-0.95562744,0.25897217,-1.84375,-0.953125,-0.4375
589,1727263203537,-0.23266602,-0.9558716,0.27337646,0.734375,-2.0625,0.109375
590,1727263203577,-0.24658203,-0.94976807,0.25091553,-0.703125,-1.4375,-0.015625
591,1727263203617,-0.25439453,-0.9421997,0.26409912,-1.15625,-1.484375,-0.75
592,1727263203657,-0.24243164,-0.9649048,0.27044678,1.6875,-2.34375,0.25
593,1727263203697,-0.24389648,-0.9524536,0.25579834,-0.125,-0.078125,-0.3125
594,1727263203737,-0.23950195,-0.9522095,0.2579956,0.75,-0.75,0.0625
595,1727263203777,-0.24804688,-0.9607544,0.26605225,0.984375,-1.25,0.03125
596,1727263203817,-0.24633789,-0.9553833,0.24212646,2.203125,-1.828125,0.875
597,1727263203857,-0.2421875,-0.9500122,0.24627686,1.734375,-2.03125,0.53125
598,1727263203897,-0.2434082,-0.95977783,0.24993896,1.34375,0.109375,0.359375
599,1727263203937,-0.23901367,-0.95269775,0.23480225,1.828125,-0.5625,0.515625
600,1727263203977,-0.23852539,-0.9517212,0.24188232,2.21875,-2.140625,0.5625
601,1727263204017,-0.2475586,-0.96343994,0.22943115,1.6875,-0.59375,0.328125
602,1727263204057,-0.2434082,-0.9607544,0.23309326,2.0,-0.625,0.75
603,1727263204097,-0.24609375,-0.9661255,0.22406006,2.125,-0.34375,0.6875
604,1727263204137,-0.22460938,-0.96099854,0.22576904,1.546875,-0.75,0.578125
605,1727263204177,-0.23022461,-0.9636841,0.21844482,1.015625,0.828125,0.40625
606,1727263204217,-0.24658203,-0.96295166,0.23309326,3.375,-0.953125,1.640625
607,1727263204257,-0.23632812,-0.9524536,0.20770264,-0.625,-1.1875,-0.296875
608,1727263204297,-0.24365234,-0.9768677,0.21966553,0.359375,0.40625,0.703125
609,1727263204337,-0.2368164,-0.9636841,0.20037842,-0.421875,1.328125,0.5
610,1727263204377,-0.2331543,-0.9661255,0.20648193,1.046875,1.09375,0.59375
611,1727263204417,-0.22705078,-0.9614868,0.20355225,0.296875,2.015625,0.40625
612,1727263204457,-0.23364258,-0.9673462,0.21136475,2.328125,0.828125,0.984375
613,1727263204497,-0.23413086,-0.9678345,0.20648193,0.359375,2.21875,0.3125
614,1727263204537,-0.22509766,-0.9644165,0.20281982,1.0625,1.53125,0.609375
615,1727263204577,-0.22705078,-0.9631958,0.19085693,0.78125,1.3125,0.625
616,1727263204617,-0.22143555,-0.96759033,0.19451904,0.703125,0.859375,0.34375
617,1727263204657,-0.22753906,-0.97247314,0.19256592,0.640625,1.0,0.46875
618,1727263204697,-0.22460938,-0.9685669,0.19573975,0.15625,1.078125,0.0
619,1727263204737,-0.22680664,-0.97369385,0.19671631,0.234375,0.421875,0.515625
620,1727263204777,-0.22143555,-0.9661255,0.20062256,0.25,-0.1875,0.140625
621,1727263204817,-0.22485352,-0.96832275,0.19329834,-0.578125,-0.015625,0.03125
622,1727263204857,-0.21899414,-0.9763794,0.18792725,-1.140625,0.0,0.21875
623,1727263204897,-0.22436523,-0.9663696,0.19158936,1.15625,-1.4375,0.390625
624,1727263204937,-0.22363281,-0.96661377,0.18743896,-1.609375,-0.828125,-0.125
625,1727263204977,-0.23461914,-0.96954346,0.1798706,-0.15625,0.78125,-0.078125
626,1727263205017,-0.22875977,-0.9714966,0.19525146,-0.234375,1.421875,0.21875
627,1727263205057,-0.22705078,-0.9727173,0.19207764,-0.0625,0.765625,-0.03125
628,1727263205097,-0.22436523,-0.97198486,0.20379639,-0.484375,1.1875,0.046875
629,1727263205137,-0.22387695,-0.9607544,0.18792725,-0.5,0.75,-0.21875
630,1727263205177,-0.22631836,-0.9656372,0.18695068,-0.125,-0.078125,-0.046875
631,1727263205217,-0.2290039,-0.9685669,0.1828003,-0.6875,0.046875,-0.640625
632,1727263205257,-0.21899414,-0.97662354,0.18963623,-0.171875,0.046875,-0.109375
633,1727263205297,-0.22680664,-0.9692993,0.18304443,0.140625,-1.375,-0.0625
634,1727263205337,-0.22387695,-0.97052,0.18597412,-1.015625,-2.15625,-0.34375
635,1727263205377,-0.23925781,-0.97735596,0.18157959,-3.296875,-0.609375,-1.09375
636,1727263205417,-0.21948242,-0.97076416,0.19378662,-3.25,0.796875,-0.96875
637,1727263205457,-0.23095703,-0.96221924,0.1984253,-6.234375,3.40625,-1.90625
638,1727263205497,-0.22851562,-0.9717407,0.19744873,-5.984375,2.53125,-1.96875
639,1727263205537,-0.23095703,-0.9661255,0.22454834,-6.890625,3.46875,-1.75
640,1727263205577,-0.22509766,-0.97052,0.19622803,-4.015625,0.015625,-1.546875
641,1727263205617,-0.2355957,-0.9614868,0.22625732,-3.8125,-0.34375,-0.609375
642,1727263205657,-0.25146484,-0.95928955,0.22845459,-4.046875,0.421875,-1.125
643,1727263205697,-0.21972656,-0.9680786,0.2321167,-1.59375,0.859375,0.078125
644,1727263205737,-0.2421875,-0.9590454,0.22381592,-3.375,1.140625,-0.140625
645,1727263205777,-0.2434082,-0.9656372,0.24139404,-1.578125,-1.1875,0.265625
646,1727263205817,-0.23608398,-0.9607544,0.24505615,-2.359375,0.265625,0.015625
647,1727263205857,-0.24121094,-0.9578247,0.23358154,-1.75,0.15625,0.5
648,1727263205897,-0.23852539,-0.9561157,0.23431396,-1.765625,-0.78125,0.0625
649,1727263205937,-0.2253418,-0.9558716,0.24603271,-1.109375,0.15625,0.21875
650,1727263205977,-0.23925781,-0.9585571,0.23699951,-0.875,0.984375,0.5625
651,1727263206017,-0.23510742,-0.9517212,0.24090576,-1.109375,0.796875,0.125
652,1727263206057,-0.23608398,-0.96295166,0.24285889,-0.6875,0.6875,0.015625
653,1727263206097,-0.24072266,-0.95440674,0.23504639,-0.796875,0.734375,0.421875
654,1727263206137,-0.23486328,-0.9570923,0.24505615,-1.1875,0.5,0.171875
655,1727263206177,-0.22436523,-0.9585571,0.23919678,-2.375,0.28125,-0.03125
656,1727263206217,-0.24243164,-0.96588135,0.25653076,-1.71875,0.40625,0.203125
657,1727263206257,-0.22851562,-0.9524536,0.2423706,-2.921875,0.90625,-0.171875
658,1727263206297,-0.23046875,-0.96099854,0.2609253,-0.171875,-0.25,0.265625
659,1727263206337,-0.22509766,-0.9458618,0.24627686,-3.109375,-1.109375,-0.765625
660,1727263206377,-0.23754883,-0.9649048,0.2518921,-1.03125,-0.125,0.140625
661,1727263206417,-0.23461914,-0.94659424,0.2579956,-3.296875,0.328125,-0.265625
662,1727263206457,-0.24047852,-0.95880127,0.2584839,-2.515625,-0.546875,0.046875
663,1727263206497,-0.23608398,-0.956604,0.26507568,-2.984375,-0.125,-0.015625
664,1727263206537,-0.23706055,-0.95025635,0.25628662,-1.40625,-0.09375,0.203125
665,1727263206577,-0.22949219,-0.9480591,0.25701904,-2.84375,-0.96875,0.046875
666,1727263206617,-0.23461914,-0.95806885,0.2682495,-2.046875,-1.15625,-0.015625
667,1727263206657,-0.23901367,-0.9463501,0.2645874,-1.75,-1.484375,-0.109375
668,1727263206697,-0.24047852,-0.94976807,0.27996826,-1.484375,-2.515625,-0.03125
669,1727263206737,-0.23535156,-0.96051025,0.25946045,-0.625,-2.671875,0.46875
670,1727263206777,-0.23510742,-0.96417236,0.2531128,0.3125,-3.984375,0.484375
671,1727263206817,-0.24023438,-0.94781494,0.2694702,0.453125,-2.5625,0.359375
672,1727263206857,-0.24414062,-0.9534302,0.25994873,0.125,-2.578125,0.109375
673,1727263206897,-0.23266602,-0.95147705,0.2531128,1.1875,-3.28125,0.1875
674,1727263206937,-0.23486328,-0.9570923,0.2543335,1.28125,-1.171875,0.140625
675,1727263206977,-0.24145508,-0.9570923,0.2699585,3.734375,-1.421875,0.859375
676,1727263207017,-0.23608398,-0.9495239,0.2423706,1.171875,-2.484375,-0.171875
677,1727263207057,-0.23779297,-0.96832275,0.23382568,3.140625,-0.390625,0.625
678,1727263207097,-0.24487305,-0.9578247,0.24725342,1.78125,0.375,0.828125
679,1727263207137,-0.23071289,-0.95635986,0.230896,2.046875,-0.765625,0.546875
680,1727263207177,-0.23388672,-0.96099854,0.22845459,1.703125,-1.078125,0.78125
681,1727263207217,-0.23657227,-0.96759033,0.23187256,2.296875,-0.421875,0.546875
682,1727263207257,-0.23217773,-0.9507446,0.23138428,0.640625,0.046875,0.453125
683,1727263207297,-0.2355957,-0.9651489,0.21697998,1.671875,-0.1875,0.28125
684,1727263207337,-0.23242188,-0.9649048,0.21673584,1.3125,-0.359375,0.765625
685,1727263207377,-0.23266602,-0.95977783,0.22039795,0.796875,-0.0625,0.234375
686,1727263207417,-0.23095703,-0.9631958,0.21697998,1.796875,-0.828125,0.609375
687,1727263207457,-0.2277832,-0.9614868,0.20965576,1.125,0.765625,0.1875
688,1727263207497,-0.23510742,-0.9614868,0.21063232,1.390625,0.328125,0.375
689,1727263207537,-0.23486328,-0.9614868,0.20941162,1.421875,0.859375,0.609375
690,1727263207577,-0.234375,-0.9619751,0.21014404,1.21875,0.21875,0.484375
691,1727263207617,-0.23632812,-0.96832275,0.19793701,0.9375,0.796875,0.578125
692,1727263207657,-0.22265625,-0.9710083,0.19671631,2.3125,0.75,0.828125
693,1727263207697,-0.2277832,-0.96295166,0.19671631,0.171875,-0.15625,0.296875
694,1727263207737,-0.23657227,-0.96832275,0.19525146,1.484375,1.21875,0.140625
695,1727263207777,-0.22216797,-0.97662354,0.19793701,1.5,0.859375,0.640625
696,1727263207817,-0.22241211,-0.96759033,0.17279053,3.28125,-1.421875,0.90625
697,1727263207857,-0.22436523,-0.9644165,0.18206787,1.609375,0.25,0.609375
698,1727263207897,-0.22973633,-0.97369385,0.17547607,1.21875,-0.21875,0.5625
699,1727263207937,-0.21777344,-0.9727173,0.17474365,0.875,-0.0625,0.625
700,1727263207977,-0.22705078,-0.9729614,0.17108154,0.203125,-0.09375,0.140625
701,1727263208017,-0.22338867,-0.97369385,0.18011475,0.09375,0.34375,0.015625
702,1727263208057,-0.22460938,-0.96588135,0.16668701,0.125,0.5625,0.21875
703,1727263208097,-0.22070312,-0.9644165,0.17425537,-0.59375,0.421875,-0.09375
704,1727263208137,-0.2199707,-0.9685669,0.16937256,-0.234375,0.53125,0.03125
705,1727263208177,-0.22094727,-0.97125244,0.17108154,-0.34375,0.296875,-0.140625
706,1727263208217,-0.21801758,-0.97735596,0.17401123,-0.125,0.375,0.0625
707,1727263208257,-0.22314453,-0.97247314,0.17645264,-0.46875,0.015625,-0.09375
708,1727263208297,-0.2253418,-0.9644165,0.17572021,-0.8125,0.171875,-0.265625
709,1727263208337,-0.22436523,-0.98272705,0.17401123,-1.125,0.109375,-0.125
710,1727263208377,-0.22509766,-0.9771118,0.17596436,0.15625,-0.234375,0.3125
711,1727263208417,-0.22314453,-0.9800415,0.16400146,-1.90625,-1.09375,-0.703125
712,1727263208457,-0.22680664,-0.97369385,0.1720581,-1.015625,0.828125,-0.375
713,1727263208497,-0.22436523,-0.96759033,0.17791748,-1.40625,0.328125,-0.234375
714,1727263208537,-0.21508789,-0.97076416,0.17279053,-0.8125,-0.765625,-0.25
715,1727263208577,-0.22729492,-0.9727173,0.17938232,-1.265625,0.125,-0.296875
716,1727263208617,-0.21435547,-0.9727173,0.17230225,-0.890625,-0.59375,-0.421875
717,1727263208657,-0.22851562,-0.98028564,0.1720581,-1.484375,-1.984375,-0.578125
718,1727263208697,-0.22314453,-0.97613525,0.16741943,-4.421875,0.46875,-1.890625
719,1727263208737,-0.21411133,-0.9734497,0.18841553,-4.296875,3.15625,-1.421875
720,1727263208777,-0.26464844,-0.95684814,0.16766357,-2.265625,-0.46875,-0.421875
721,1727263208817,-0.22070312,-0.96051025,0.20281982,-0.59375,-0.796875,0.015625
722,1727263208857,-0.24438477,-0.9692993,0.18719482,-1.875,-0.40625,-0.515625
723,1727263208897,-0.22485352,-0.95635986,0.18157959,-2.40625,-0.171875,0.140625
724,1727263208937,-0.23608398,-0.97003174,0.18621826,-1.5,-0.328125,0.0
725,1727263208977,-0.22802734,-0.9692993,0.1774292,-1.890625,-0.578125,0.125
726,1727263209017,-0.23364258,-0.9656372,0.19671631,-1.953125,0.453125,0.359375
727,1727263209057,-0.2355957,-0.97076416,0.19793701,-1.375,0.53125,0.421875
728,1727263209097,-0.22875977,-0.9661255,0.18841553,-0.046875,0.90625,0.234375
729,1727263209137,-0.2211914,-0.9807739,0.19451904,0.21875,0.59375,0.453125
730,1727263209177,-0.22509766,-0.96417236,0.1798706,0.921875,2.34375,0.078125
731,1727263209217,-0.23657227,-0.9741821,0.215271,2.984375,1.578125,1.21875
732,1727263209257,-0.21728516,-0.96417236,0.16375732,0.609375,1.203125,0.28125
733,1727263209297,-0.23144531,-0.975647,0.19110107,2.75,-0.5,0.78125
734,1727263209337,-0.23510742,-0.9771118,0.18426514,1.0625,1.078125,0.46875
735,1727263209377,-0.22314453,-0.96051025,0.17816162,2.09375,0.21875,1.015625
736,1727263209417,-0.22485352,-0.9685669,0.1774292,0.171875,0.3125,0.25
737,1727263209457,-0.22143555,-0.97784424,0.18011475,0.765625,0.140625,0.453125
738,1727263209497,-0.21557617,-0.9717407,0.1708374,0.40625,0.484375,0.71875
739,1727263209537,-0.22045898,-0.9690552,0.16888428,0.3125,0.4375,0.453125
740,1727263209577,-0.21386719,-0.9710083,0.16351318,0.890625,-0.265625,0.609375
741,1727263209617,-0.21923828,-0.9714966,0.16571045,0.578125,-0.890625,0.578125
742,1727263209657,-0.22387695,-0.97540283,0.16278076,1.15625,-0.078125,0.734375
743,1727263209697,-0.21508789,-0.97540283,0.15985107,-0.046875,-0.640625,0.234375
744,1727263209737,-0.21459961,-0.97003174,0.16497803,0.171875,-0.234375,0.140625
745,1727263209777,-0.23266602,-0.97247314,0.16229248,-1.84375,0.859375,-0.234375
746,1727263209817,-0.20507812,-0.9729614,0.15618896,-0.625,-0.140625,-0.140625
747,1727263209857,-0.22290039,-0.97613525,0.17059326,-3.46875,-0.484375,-0.546875
748,1727263209897,-0.21606445,-0.96832275,0.15057373,-2.375,-0.8125,-0.765625
749,1727263209937,-0.21948242,-0.97125244,0.18109131,-2.203125,-1.546875,-0.328125
