,timestamp,accel_x,accel_y,accel_z,gyro_x,gyro_y,gyro_z
0,1727263143167,-0.22485352,-0.95562744,0.25238037,-1.390625,0.125,-0.15625
1,1727263143207,-0.22241211,-0.9505005,0.25482178,-0.4375,-0.09375,0.0
2,1727263143247,-0.22265625,-0.95880127,0.25604248,-1.078125,-0.015625,-0.015625
3,1727263143287,-0.21606445,-0.96173096,0.26116943,-0.25,-0.171875,-0.09375
4,1727263143327,-0.22192383,-0.9495239,0.25164795,-1.9375,-0.578125,-0.078125
5,1727263143367,-0.21728516,-0.96051025,0.260437,-0.65625,0.109375,-0.109375
6,1727263143407,-0.2241211,-0.9573364,0.2579956,-0.3125,0.203125,0.015625
7,1727263143447,-0.23144531,-0.9639282,0.2633667,-0.203125,-0.375,0.28125
8,1727263143487,-0.22485352,-0.95880127,0.26385498,-2.59375,-2.71875,0.421875
9,1727263143527,-0.23144531,-0.9578247,0.26556396,-3.5,-2.8125,0.0625
10,1727263143567,-0.22314453,-0.9558716,0.26068115,-4.0625,-1.65625,0.390625
11,1727263143607,-0.24145508,-0.9627075,0.2748413,-4.046875,-0.65625,1.625
12,1727263143647,-0.19604492,-0.9614868,0.26190186,-4.359375,2.5625,-1.03125
13,1727263143687,-0.23461914,-0.9631958,0.27215576,-0.578125,1.515625,1.109375
14,1727263143727,-0.22387695,-0.9522095,0.2843628,-1.921875,0.703125,0.015625
15,1727263143767,-0.22045898,-0.9429321,0.2789917,-2.5,1.046875,0.09375
16,1727263143807,-0.21972656,-0.95684814,0.28167725,-2.484375,1.171875,-0.328125
17,1727263143847,-0.23120117,-0.95318604,0.28875732,-2.4375,-0.09375,0.453125
18,1727263143887,-0.2109375,-0.9507446,0.27972412,-2.796875,-0.65625,-0.34375
19,1727263143927,-0.21777344,-0.95684814,0.28656006,-1.109375,0.875,-0.328125
20,1727263143967,-0.22167969,-0.95391846,0.29071045,-0.046875,0.546875,-0.0625
21,1727263144007,-0.22607422,-0.95147705,0.2982788,0.71875,-0.0625,0.046875
22,1727263144047,-0.21850586,-0.9468384,0.28411865,-0.046875,0.59375,-0.359375
23,1727263144087,-0.21875,-0.9553833,0.2855835,0.265625,2.015625,-0.578125
24,1727263144127,-0.2163086,-0.9480591,0.28997803,2.46875,0.1875,0.140625
25,1727263144167,-0.22070312,-0.9619751,0.26678467,-0.9375,0.28125,-0.796875
26,1727263144207,-0.23803711,-0.9644165,0.29779053,1.546875,0.109375,-0.359375
27,1727263144247,-0.23071289,-0.9534302,0.27874756,0.34375,0.421875,-0.1875
28,1727263144287,-0.21948242,-0.94610596,0.27972412,0.890625,-0.78125,0.265625
29,1727263144327,-0.22314453,-0.9536743,0.27313232,0.46875,-0.21875,0.109375
30,1727263144367,-0.21972656,-0.95635986,0.27288818,0.578125,-0.71875,0.140625
31,1727263144407,-0.21728516,-0.9570923,0.27215576,-0.953125,-1.28125,0.03125
32,1727263144447,-0.22485352,-0.95977783,0.27215576,-0.515625,-0.65625,0.203125
33,1727263144487,-0.2241211,-0.95440674,0.2662964,-0.171875,-0.484375,0.3125
34,1727263144527,-0.21850586,-0.95098877,0.26287842,-0.796875,-0.375,0.09375
35,1727263144567,-0.23339844,-0.9487915,0.27337646,-0.15625,0.609375,0.8125
36,1727263144607,-0.21166992,-0.95318604,0.26800537,-0.703125,0.9375,0.171875
37,1727263144647,-0.2241211,-0.9710083,0.2711792,-0.625,0.421875,0.203125
38,1727263144687,-0.21679688,-0.94854736,0.2838745,2.046875,-0.03125,1.265625
39,1727263144727,-0.2055664,-0.95758057,0.25238037,-2.53125,0.546875,-0.5625
40,1727263144767,-0.22949219,-0.96417236,0.2826538,-0.46875,-0.5625,0.0625
41,1727263144807,-0.22216797,-0.95513916,0.26483154,-1.765625,0.046875,-0.390625
42,1727263144847,-0.22070312,-0.95635986,0.27142334,-0.8125,-0.203125,-0.0625
43,1727263144887,-0.21655273,-0.95025635,0.26556396,-0.953125,-0.40625,-0.203125
44,1727263144927,-0.21118164,-0.9590454,0.27386475,0.0,-0.328125,-0.171875
45,1727263144967,-0.21875,-0.9529419,0.25823975,-1.765625,-0.765625,-0.4375
46,1727263145007,-0.21899414,-0.9595337,0.26849365,-1.53125,-0.859375,-0.328125
47,1727263145047,-0.22167969,-0.956604,0.2662964,-1.28125,-0.90625,0.0
48,1727263145087,-0.21948242,-0.9429321,0.26263428,-1.171875,-1.421875,0.09375
49,1727263145127,-0.2175293,-0.958313,0.25994873,-1.40625,-1.09375,-0.171875
50,1727263145167,-0.21777344,-0.9534302,0.262146,-0.90625,-0.921875,-0.234375
51,1727263145207,-0.22314453,-0.95391846,0.25408936,-1.34375,-0.875,-0.5
52,1727263145247,-0.23120117,-0.95098877,0.28460693,1.359375,1.0,0.09375
53,1727263145287,-0.22387695,-0.958313,0.26605225,-1.34375,0.953125,-0.75
54,1727263145327,-0.2355957,-0.96466064,0.28363037,0.5,-0.875,0.15625
55,1727263145367,-0.2290039,-0.94732666,0.27630615,-0.65625,-0.859375,0.078125
56,1727263145407,-0.23364258,-0.9512329,0.26434326,-0.90625,-1.125,0.0
57,1727263145447,-0.2277832,-0.9541626,0.26898193,-1.515625,-0.4375,-0.4375
58,1727263145487,-0.2290039,-0.95513916,0.2736206,-0.34375,-0.828125,0.34375
59,1727263145527,-0.23046875,-0.94610596,0.25360107,-2.140625,-1.421875,-0.375
60,1727263145567,-0.22680664,-0.95758057,0.2597046,-0.953125,0.21875,-0.109375
61,1727263145607,-0.22631836,-0.9529419,0.27069092,-0.140625,0.546875,0.125
62,1727263145647,-0.23242188,-0.9636841,0.27435303,0.765625,-1.03125,0.375
63,1727263145687,-0.21850586,-0.95513916,0.26654053,-1.140625,-0.390625,-0.3125
64,1727263145727,-0.22875977,-0.95880127,0.26727295,-0.59375,0.65625,-0.28125
65,1727263145767,-0.21240234,-0.9541626,0.27288818,-0.03125,0.109375,0.0
66,1727263145807,-0.24169922,-0.9578247,0.27337646,-0.03125,-0.15625,0.828125
67,1727263145847,-0.2175293,-0.9536743,0.27215576,-3.0,-0.0625,-1.171875
68,1727263145887,-0.23291016,-0.9627075,0.2772827,-0.03125,0.234375,0.171875
69,1727263145927,-0.21899414,-0.95025635,0.26361084,-1.625,0.0,-0.09375
70,1727263145967,-0.22094727,-0.95025635,0.2670288,-1.265625,0.25,-0.34375
71,1727263146007,-0.22607422,-0.94976807,0.27288818,-0.75,0.046875,0.046875
72,1727263146047,-0.22949219,-0.9487915,0.26385498,-0.796875,-0.53125,0.03125
73,1727263146087,-0.22558594,-0.95147705,0.2748413,-1.296875,-0.265625,-0.4375
74,1727263146127,-0.22753906,-0.9612427,0.27874756,-0.625,0.171875,-0.234375
75,1727263146167,-0.22753906,-0.9475708,0.2658081,-0.640625,-0.078125,0.0
76,1727263146207,-0.22583008,-0.95513916,0.2748413,-0.34375,-0.046875,-0.171875
77,1727263146247,-0.23266602,-0.95025635,0.26654053,-0.28125,0.078125,0.265625
78,1727263146287,-0.22705078,-0.95147705,0.27093506,-1.078125,-0.46875,-0.03125
79,1727263146327,-0.23413086,-0.9573364,0.27166748,-0.328125,0.609375,-0.046875
80,1727263146367,-0.2211914,-0.9524536,0.276062,0.46875,-0.078125,0.1875
81,1727263146407,-0.24291992,-0.9546509,0.2694702,-1.40625,-1.046875,0.0625
82,1727263146447,-0.22802734,-0.9522095,0.27264404,-1.953125,0.421875,-0.828125
83,1727263146487,-0.23950195,-0.96221924,0.2753296,-0.609375,-0.5,0.140625
84,1727263146527,-0.22143555,-0.944397,0.25946045,-1.125,-0.375,0.0625
85,1727263146567,-0.22802734,-0.95635986,0.26531982,-1.171875,-0.3125,-0.0625
86,1727263146607,-0.23413086,-0.95635986,0.27996826,-0.109375,-0.296875,0.046875
87,1727263146647,-0.23144531,-0.958313,0.26922607,-0.828125,0.15625,0.421875
88,1727263146687,-0.23583984,-0.94903564,0.26678467,-0.859375,-0.265625,0.0625
89,1727263146727,-0.22265625,-0.95806885,0.2831421,-0.21875,0.875,0.046875
90,1727263146767,-0.22705078,-0.9541626,0.2633667,-0.171875,-0.546875,0.40625
91,1727263146807,-0.2277832,-0.9585571,0.26898193,-0.078125,-0.125,0.359375
92,1727263146847,-0.22802734,-0.95562744,0.26922607,0.25,-0.140625,0.453125
93,1727263146887,-0.22583008,-0.95562744,0.25750732,-0.78125,-0.609375,0.15625
94,1727263146927,-0.22167969,-0.9585571,0.27044678,-0.09375,-0.078125,0.421875
95,1727263146967,-0.21801758,-0.9522095,0.2670288,-0.4375,-0.796875,0.203125
96,1727263147007,-0.21704102,-0.96099854,0.25238037,-1.40625,0.28125,-0.3125
97,1727263147047,-0.22460938,-0.96588135,0.27044678,-1.71875,-1.015625,-0.390625
98,1727263147087,-0.2253418,-0.9595337,0.276062,-0.75,-1.34375,-0.234375
99,1727263147127,-0.2277832,-0.9463501,0.2670288,-1.09375,-0.984375,-0.28125
100,1727263147167,-0.22607422,-0.9541626,0.27191162,-1.484375,-1.421875,-0.46875
101,1727263147207,-0.22949219,-0.9614868,0.26654053,-0.46875,-0.5,-0.125
102,1727263147247,-0.2331543,-0.9619751,0.27020264,-0.859375,-0.46875,0.140625
103,1727263147287,-0.22949219,-0.9505005,0.26019287,-1.8125,-1.296875,-0.21875
104,1727263147327,-0.2253418,-0.9644165,0.2694702,-0.875,-1.453125,0.046875
105,1727263147367,-0.23339844,-0.95196533,0.27288818,-2.140625,-2.953125,-0.125
106,1727263147407,-0.23706055,-0.9507446,0.27581787,-2.59375,-3.140625,-0.5
107,1727263147447,-0.24707031,-0.94122314,0.2506714,-2.171875,-2.25,-0.5625
108,1727263147487,-0.23022461,-0.9534302,0.27581787,-1.359375,-0.203125,-0.234375
109,1727263147527,-0.23754883,-0.95440674,0.27679443,-0.375,-0.3125,0.109375
110,1727263147567,-0.23071289,-0.942688,0.2789917,-1.0625,-2.078125,-0.046875
111,1727263147607,-0.22070312,-0.9517212,0.2609253,-1.4375,-0.71875,-0.265625
112,1727263147647,-0.24023438,-0.9590454,0.2765503,-1.828125,-1.1875,-0.203125
113,1727263147687,-0.23291016,-0.9429321,0.26263428,-0.921875,-0.4375,0.125
114,1727263147727,-0.23779297,-0.9522095,0.26556396,-1.015625,0.578125,0.078125
115,1727263147767,-0.23217773,-0.9529419,0.27044678,-0.296875,0.09375,0.125
116,1727263147807,-0.24023438,-0.95562744,0.2658081,0.25,0.4375,0.359375
117,1727263147847,-0.24194336,-0.9534302,0.2802124,0.984375,-0.546875,1.0625
118,1727263147887,-0.23754883,-0.94244385,0.25579834,-1.359375,-1.046875,0.046875
119,1727263147927,-0.23388672,-0.9517212,0.27093506,-1.140625,-0.53125,0.0625
120,1727263147967,-0.22387695,-0.95440674,0.26971436,-1.265625,-0.328125,-0.125
121,1727263148007,-0.22875977,-0.95880127,0.28045654,-0.640625,-0.703125,-0.0625
122,1727263148047,-0.23291016,-0.95562744,0.26849365,-1.015625,0.125,0.015625
123,1727263148087,-0.22851562,-0.95147705,0.26776123,-1.25,-0.09375,-0.21875
124,1727263148127,-0.23779297,-0.9534302,0.276062,0.125,0.3125,0.46875
125,1727263148167,-0.23046875,-0.9480591,0.26800537,-0.84375,1.078125,0.0
126,1727263148207,-0.24023438,-0.9578247,0.28167725,1.203125,-0.375,0.890625
127,1727263148247,-0.22290039,-0.95098877,0.2584839,-3.03125,-0.28125,-1.265625
128,1727263148287,-0.24707031,-0.9590454,0.28240967,0.09375,0.46875,0.25
129,1727263148327,-0.23901367,-0.94781494,0.27191162,-0.46875,0.9375,-0.03125
130,1727263148367,-0.23657227,-0.9607544,0.26409912,0.015625,1.015625,-0.21875
131,1727263148407,-0.23535156,-0.95025635,0.27166748,0.078125,1.03125,-0.40625
132,1727263148447,-0.23291016,-0.9602661,0.2789917,1.046875,-0.078125,0.359375
133,1727263148487,-0.22998047,-0.95098877,0.24945068,-0.265625,-0.671875,-0.453125
134,1727263148527,-0.22558594,-0.95928955,0.27972412,0.953125,-0.109375,0.0
135,1727263148567,-0.23535156,-0.95318604,0.26287842,1.65625,1.703125,0.3125
136,1727263148607,-0.22558594,-0.96173096,0.25750732,2.46875,-0.828125,0.359375
137,1727263148647,-0.23803711,-0.95880127,0.2699585,2.3125,1.078125,0.484375
138,1727263148687,-0.22241211,-0.9663696,0.24847412,2.59375,-1.125,0.40625
139,1727263148727,-0.23828125,-0.95269775,0.26019287,1.828125,1.71875,0.75
140,1727263148767,-0.2211914,-0.9590454,0.23529053,0.0,1.65625,-0.1875
141,1727263148807,-0.21777344,-0.95928955,0.25701904,2.640625,-0.109375,1.28125
142,1727263148847,-0.21923828,-0.9585571,0.23797607,-3.265625,0.0625,-1.265625
143,1727263148887,-0.23901367,-0.9697876,0.26263428,-0.765625,0.359375,0.484375
144,1727263148927,-0.22436523,-0.9524536,0.24676514,-2.625,0.171875,-0.234375
145,1727263148967,-0.22216797,-0.95562744,0.25091553,-2.671875,-1.578125,0.140625
146,1727263149007,-0.23632812,-0.954895,0.2531128,-4.296875,-1.953125,-0.09375
147,1727263149047,-0.22802734,-0.9495239,0.25775146,-3.765625,-1.90625,0.125
148,1727263149087,-0.22998047,-0.95269775,0.26019287,-4.484375,-1.3125,-0.25
149,1727263149127,-0.23828125,-0.95684814,0.26727295,-2.75,-0.6875,0.125
150,1727263149167,-0.23364258,-0.95758057,0.26385498,-1.3125,-0.03125,0.46875
151,1727263149207,-0.23266602,-0.9553833,0.27044678,-2.0,-0.21875,0.21875
152,1727263149247,-0.22875977,-0.9578247,0.2687378,-1.96875,-0.21875,0.421875
153,1727263149287,-0.22680664,-0.95196533,0.2645874,-1.96875,-1.046875,0.0625
154,1727263149327,-0.2253418,-0.95098877,0.2682495,-2.09375,-1.0,0.171875
155,1727263149367,-0.21704102,-0.9487915,0.2831421,-2.34375,-1.390625,-0.078125
156,1727263149407,-0.23901367,-0.9534302,0.28167725,-0.921875,-0.671875,0.78125
157,1727263149447,-0.23168945,-0.95977783,0.2736206,-1.171875,-0.671875,0.640625
158,1727263149487,-0.2331543,-0.9529419,0.2838745,-1.34375,-0.5,0.390625
159,1727263149527,-0.23242188,-0.9553833,0.2711792,-1.359375,-0.125,0.171875
160,1727263149567,-0.21386719,-0.95147705,0.28289795,0.671875,-0.75,0.375
161,1727263149607,-0.22387695,-0.9536743,0.25994873,-2.390625,-0.328125,-0.296875
162,1727263149647,-0.23461914,-0.954895,0.28240967,-1.25,-0.09375,-0.203125
163,1727263149687,-0.23095703,-0.9492798,0.2772827,-1.625,-0.3125,-0.359375
164,1727263149727,-0.22998047,-0.9470825,0.27874756,-1.15625,0.0625,-0.140625
165,1727263149767,-0.234375,-0.9495239,0.2850952,-1.328125,-0.40625,-0.203125
166,1727263149807,-0.24072266,-0.95147705,0.28533936,-1.109375,-0.3125,-0.140625
167,1727263149847,-0.22729492,-0.9573364,0.2892456,-0.75,-0.90625,-0.046875
168,1727263149887,-0.23632812,-0.9517212,0.27923584,-1.578125,-0.765625,0.140625
169,1727263149927,-0.23168945,-0.954895,0.2772827,-1.21875,-0.546875,0.21875
170,1727263149967,-0.22851562,-0.94781494,0.277771,-1.171875,-0.28125,0.390625
171,1727263150007,-0.234375,-0.9524536,0.28338623,-0.9375,-0.375,0.15625
172,1727263150047,-0.22241211,-0.9500122,0.28216553,-1.078125,-0.453125,-0.1875
173,1727263150087,-0.23291016,-0.9536743,0.28851318,-0.1875,-0.609375,0.125
174,1727263150127,-0.22045898,-0.9561157,0.28533936,-0.53125,-0.671875,-0.09375
175,1727263150167,-0.23046875,-0.94903564,0.28656006,-1.546875,-0.46875,-0.0625
176,1727263150207,-0.23779297,-0.9495239,0.27850342,-1.1875,-0.703125,-0.015625
177,1727263150247,-0.22167969,-0.94610596,0.2855835,-0.171875,-0.65625,0.015625
178,1727263150287,-0.23291016,-0.954895,0.2741089,-1.546875,-0.0625,-0.046875
179,1727263150327,-0.24560547,-0.96099854,0.29632568,-0.40625,0.359375,0.625
180,1727263150367,-0.22167969,-0.9483032,0.27630615,-0.421875,0.046875,0.25
181,1727263150407,-0.21313477,-0.94366455,0.27923584,-0.09375,1.21875,0.09375
182,1727263150447,-0.22753906,-0.94122314,0.27825928,-0.171875,0.625,0.03125
183,1727263150487,-0.23071289,-0.960022,0.28167725,0.796875,0.6875,0.15625
184,1727263150527,-0.23608398,-0.95147705,0.2748413,0.21875,-0.171875,0.265625
185,1727263150567,-0.22802734,-0.9487915,0.2633667,-1.65625,-0.359375,-0.3125
186,1727263150607,-0.22583008,-0.9524536,0.27996826,-0.640625,-0.359375,-0.375
187,1727263150647,-0.22998047,-0.9468384,0.27801514,-0.328125,-0.125,-0.046875
188,1727263150687,-0.2368164,-0.9585571,0.29119873,-0.359375,-0.984375,0.03125
189,1727263150727,-0.2355957,-0.9470825,0.27191162,-1.625,-0.078125,-0.375
190,1727263150767,-0.22705078,-0.9541626,0.28240967,-0.484375,0.046875,-0.03125
191,1727263150807,-0.23242188,-0.9517212,0.2789917,0.015625,0.234375,0.15625
192,1727263150847,-0.2277832,-0.9541626,0.27581787,-0.484375,0.421875,-0.265625
193,1727263150887,-0.22875977,-0.9585571,0.2753296,-0.5,0.796875,-0.21875
194,1727263150927,-0.22705078,-0.95025635,0.28997803,2.046875,0.390625,0.265625
195,1727263150967,-0.2368164,-0.9553833,0.27313232,-1.515625,-0.21875,-0.015625
196,1727263151007,-0.22827148,-0.9541626,0.27947998,-2.421875,0.46875,-0.78125
197,1727263151047,-0.23461914,-0.954895,0.28875732,-0.046875,-0.4375,0.046875
198,1727263151087,-0.23803711,-0.9507446,0.27801514,-0.375,0.234375,-0.1875
199,1727263151127,-0.23046875,-0.9585571,0.2711792,-1.140625,-0.078125,-0.5625
200,1727263151167,-0.2277832,-0.9522095,0.27923584,-1.140625,-0.5,-1.046875
201,1727263151207,-0.22998047,-0.9546509,0.27972412,-0.5625,-0.9375,-0.296875
202,1727263151247,-0.22998047,-0.9505005,0.27044678,-1.90625,-1.078125,-0.8125
203,1727263151287,-0.23120117,-0.95758057,0.28338623,-1.171875,0.296875,-0.390625
204,1727263151327,-0.24047852,-0.9534302,0.27508545,-0.203125,0.65625,-0.265625
205,1727263151367,-0.22583008,-0.9492798,0.28338623,-0.25,0.234375,-0.5
206,1727263151407,-0.23266602,-0.95318604,0.2772827,-0.71875,0.765625,-0.453125
207,1727263151447,-0.23608398,-0.9505005,0.28167725,0.28125,0.953125,-0.109375
208,1727263151487,-0.23852539,-0.9463501,0.27508545,-0.359375,-0.3125,-0.234375
209,1727263151527,-0.24414062,-0.9541626,0.2765503,-1.40625,-0.203125,-0.640625
210,1727263151567,-0.23950195,-0.96173096,0.2741089,-1.84375,0.265625,-0.65625
211,1727263151607,-0.24633789,-0.94415283,0.2975464,1.328125,-1.109375,0.65625
212,1727263151647,-0.23168945,-0.9536743,0.2711792,-3.4375,-1.625,-1.109375
213,1727263151687,-0.2368164,-0.9517212,0.28045654,-1.03125,-0.125,-0.15625
214,1727263151727,-0.24316406,-0.9500122,0.28753662,-1.640625,-0.421875,-0.21875
215,1727263151767,-0.23120117,-0.9446411,0.26800537,-1.390625,-0.515625,-0.515625
216,1727263151807,-0.23217773,-0.9536743,0.2843628,-1.546875,0.71875,-0.78125
217,1727263151847,-0.25146484,-0.95025635,0.29193115,0.640625,0.015625,0.0
218,1727263151887,-0.23950195,-0.9534302,0.27020264,-1.890625,-0.453125,-0.140625
219,1727263151927,-0.24731445,-0.94659424,0.2819214,-1.40625,-0.125,-0.109375
220,1727263151967,-0.24145508,-0.94976807,0.2868042,-0.265625,-0.015625,0.359375
221,1727263152007,-0.24511719,-0.94537354,0.2772827,-0.71875,-0.25,0.140625
222,1727263152047,-0.24072266,-0.9536743,0.27996826,-0.953125,-0.640625,-0.078125
223,1727263152087,-0.23925781,-0.9492798,0.27557373,-0.875,-0.328125,-0.03125
224,1727263152127,-0.24609375,-0.94854736,0.2814331,-0.515625,-0.03125,0.3125
225,1727263152167,-0.23754883,-0.95513916,0.27825928,0.046875,-0.1875,0.421875
226,1727263152207,-0.24145508,-0.9463501,0.2850952,-0.25,-0.625,0.375
227,1727263152247,-0.23706055,-0.944397,0.2843628,-0.828125,0.109375,0.15625
228,1727263152287,-0.23168945,-0.94488525,0.27825928,-0.953125,-0.4375,0.296875
229,1727263152327,-0.23266602,-0.93927,0.28533936,0.40625,-0.21875,0.4375
230,1727263152367,-0.23364258,-0.9570923,0.26239014,-1.0,0.484375,0.0
231,1727263152407,-0.24316406,-0.9607544,0.28411865,-0.78125,-0.09375,0.15625
232,1727263152447,-0.24414062,-0.9517212,0.27972412,-0.578125,-0.3125,0.046875
233,1727263152487,-0.23828125,-0.9458618,0.27142334,-0.71875,0.765625,0.125
234,1727263152527,-0.23071289,-0.9487915,0.27557373,-0.875,0.015625,0.09375
235,1727263152567,-0.23510742,-0.9541626,0.28582764,-0.390625,0.3125,0.265625
236,1727263152607,-0.23217773,-0.95391846,0.2772827,-0.5,0.15625,0.03125
237,1727263152647,-0.23071289,-0.94854736,0.2694702,-0.75,0.984375,-0.34375
238,1727263152687,-0.24047852,-0.95440674,0.28607178,0.28125,1.125,0.46875
239,1727263152727,-0.23901367,-0.94488525,0.28363037,-0.125,0.0,0.4375
240,1727263152767,-0.23754883,-0.9536743,0.2765503,-0.40625,-0.0625,0.375
241,1727263152807,-0.24389648,-0.94659424,0.27166748,-0.671875,-0.4375,0.4375
242,1727263152847,-0.2319336,-0.9475708,0.27996826,-0.46875,-0.1875,0.40625
243,1727263152887,-0.2319336,-0.95440674,0.27020264,-0.28125,-0.3125,0.578125
244,1727263152927,-0.23754883,-0.9492798,0.27874756,-0.25,0.25,0.5
245,1727263152967,-0.22827148,-0.95391846,0.25164795,0.6875,0.953125,0.421875
246,1727263153007,-0.23144531,-0.9590454,0.27337646,-0.53125,0.484375,0.171875
247,1727263153047,-0.23291016,-0.96051025,0.2982788,1.375,0.5625,0.84375
248,1727263153087,-0.22460938,-0.9480591,0.26483154,-2.75,0.078125,-0.8125
249,1727263153127,-0.23486328,-0.95806885,0.28094482,-0.734375,-0.796875,0.09375
250,1727263153167,-0.22875977,-0.9536743,0.27386475,-1.640625,0.046875,-0.15625
251,1727263153207,-0.23071289,-0.9558716,0.2694702,-1.046875,0.1875,0.046875
252,1727263153247,-0.234375,-0.9578247,0.27020264,-1.453125,-0.421875,-0.125
253,1727263153287,-0.23510742,-0.9468384,0.28216553,-0.046875,-0.1875,0.421875
254,1727263153327,-0.23779297,-0.9492798,0.27069092,-1.625,-0.828125,-0.21875
255,1727263153367,-0.22583008,-0.94903564,0.2748413,-2.03125,-0.4375,-0.28125
256,1727263153407,-0.23413086,-0.94976807,0.28118896,-1.171875,0.15625,-0.203125
257,1727263153447,-0.23022461,-0.94903564,0.2802124,-0.703125,-0.71875,0.109375
258,1727263153487,-0.22753906,-0.95318604,0.2789917,-1.25,-0.5,-0.046875
259,1727263153527,-0.23291016,-0.9495239,0.27825928,-0.96875,-0.140625,-0.109375
260,1727263153567,-0.22485352,-0.9561157,0.2772827,-0.703125,0.25,-0.03125
261,1727263153607,-0.23388672,-0.9492798,0.28240967,-0.140625,-0.328125,0.265625
262,1727263153647,-0.23486328,-0.9517212,0.27874756,-0.5,-0.375,0.21875
263,1727263153687,-0.23901367,-0.9456177,0.27459717,-0.875,-0.625,0.15625
264,1727263153727,-0.22998047,-0.9553833,0.26898193,-1.25,0.203125,-0.3125
265,1727263153767,-0.22460938,-0.9451294,0.2904663,1.890625,-0.546875,0.703125
266,1727263153807,-0.2434082,-0.95440674,0.27191162,-1.828125,-1.375,-0.15625
267,1727263153847,-0.23828125,-0.9505005,0.2736206,-1.71875,0.765625,-0.109375
268,1727263153887,-0.23876953,-0.95880127,0.29315186,-0.875,-0.6875,0.34375
269,1727263153927,-0.23754883,-0.94244385,0.26483154,-0.875,0.078125,-0.125
270,1727263153967,-0.23632812,-0.9553833,0.27850342,-0.6875,0.421875,0.0
271,1727263154007,-0.23461914,-0.9492798,0.2699585,-0.203125,0.6875,-0.5625
272,1727263154047,-0.24560547,-0.9612427,0.2741089,-0.203125,1.203125,0.015625
273,1727263154087,-0.22924805,-0.95318604,0.27044678,0.0625,0.984375,-0.75
274,1727263154127,-0.22558594,-0.9619751,0.2567749,0.71875,-0.90625,-0.1875
275,1727263154167,-0.24365234,-0.954895,0.2723999,2.796875,1.109375,-0.03125
276,1727263154207,-0.2265625,-0.9500122,0.27044678,4.0625,-0.859375,0.328125
277,1727263154247,-0.23803711,-0.9505005,0.25042725,3.53125,1.28125,0.140625
278,1727263154287,-0.22973633,-0.95977783,0.25531006,2.984375,-0.0625,0.40625
279,1727263154327,-0.23339844,-0.958313,0.25579834,1.03125,1.921875,-0.28125
280,1727263154367,-0.23852539,-0.95635986,0.25238037,1.578125,1.484375,-0.0625
281,1727263154407,-0.23120117,-0.9570923,0.24676514,0.15625,0.3125,-0.546875
282,1727263154447,-0.2409668,-0.956604,0.24310303,-0.15625,1.796875,-0.34375
283,1727263154487,-0.22851562,-0.9553833,0.24163818,-1.65625,1.671875,-0.75
284,1727263154527,-0.22851562,-0.956604,0.2514038,1.6875,-0.953125,0.34375
285,1727263154567,-0.21875,-0.9644165,0.24798584,-0.828125,-0.921875,-0.1875
286,1727263154607,-0.23632812,-0.96051025,0.21966553,3.34375,0.875,1.359375
287,1727263154647,-0.23999023,-0.9570923,0.26019287,1.859375,1.0,0.34375
288,1727263154687,-0.22753906,-0.95635986,0.22210693,0.375,0.96875,0.3125
289,1727263154727,-0.23388672,-0.96588135,0.246521,-1.65625,-1.09375,-0.265625
290,1727263154767,-0.22973633,-0.9570923,0.22381592,-1.96875,0.28125,-0.375
291,1727263154807,-0.23461914,-0.95806885,0.24212646,-1.28125,-1.390625,0.28125
292,1727263154847,-0.23168945,-0.9661255,0.23187256,-1.484375,0.265625,-0.140625
293,1727263154887,-0.23168945,-0.9639282,0.2423706,-0.640625,0.6875,-0.203125
294,1727263154927,-0.22509766,-0.95562744,0.2345581,-0.609375,1.140625,-0.28125
295,1727263154967,-0.23071289,-0.95562744,0.24066162,-0.109375,0.46875,0.078125
296,1727263155007,-0.22607422,-0.956604,0.2345581,-0.328125,0.1875,-0.171875
297,1727263155047,-0.23486328,-0.95977783,0.2387085,0.734375,0.734375,0.234375
298,1727263155087,-0.23876953,-0.960022,0.2374878,0.125,-0.3125,0.296875
299,1727263155127,-0.23632812,-0.96295166,0.24017334,-0.421875,-1.140625,0.265625
300,1727263155167,-0.23461914,-0.9612427,0.22601318,-1.015625,0.453125,0.0625
301,1727263155207,-0.22583008,-0.95977783,0.23651123,-0.328125,0.25,0.03125
302,1727263155247,-0.24194336,-0.95635986,0.24920654,-0.25,-2.234375,0.703125
303,1727263155287,-0.2290039,-0.9595337,0.2230835,-4.9375,0.0625,-1.359375
304,1727263155327,-0.22729492,-0.97906494,0.26409912,-2.28125,-0.75,-0.484375
305,1727263155367,-0.2253418,-0.9578247,0.2321167,-7.4375,-0.3125,-0.59375
306,1727263155407,-0.22583008,-0.9500122,0.24432373,-6.65625,-3.4375,-0.71875
307,1727263155447,-0.24438477,-0.9541626,0.2489624,-5.171875,-0.609375,-0.3125
308,1727263155487,-0.24169922,-0.960022,0.26556396,-2.546875,-0.671875,0.109375
309,1727263155527,-0.2319336,-0.956604,0.26263428,-3.484375,-0.703125,-0.34375
310,1727263155567,-0.23828125,-0.95513916,0.28216553,-1.8125,-0.46875,-0.234375
311,1727263155607,-0.2409668,-0.9512329,0.2694702,-0.6875,-0.21875,0.328125
312,1727263155647,-0.23046875,-0.9458618,0.27069092,-0.84375,-0.53125,0.125
313,1727263155687,-0.23950195,-0.9546509,0.27020264,-1.125,-0.328125,0.078125
314,1727263155727,-0.234375,-0.9512329,0.2694702,-0.484375,-0.265625,0.546875
315,1727263155767,-0.24169922,-0.9534302,0.26605225,-1.328125,-0.46875,0.09375
316,1727263155807,-0.23608398,-0.9614868,0.26898193,-0.921875,-0.03125,0.21875
317,1727263155847,-0.23754883,-0.9578247,0.26605225,-1.21875,0.171875,0.0625
318,1727263155887,-0.23266602,-0.94366455,0.28582764,1.59375,-0.328125,1.125
319,1727263155927,-0.23095703,-0.956604,0.26116943,-2.0625,-0.578125,-0.421875
320,1727263155967,-0.23779297,-0.9585571,0.27996826,-0.53125,-0.25,0.34375
321,1727263156007,-0.23120117,-0.9483032,0.27264404,-2.0,-0.1875,-0.15625
322,1727263156047,-0.23461914,-0.94781494,0.26287842,-0.625,0.0,0.203125
323,1727263156087,-0.23583984,-0.9546509,0.27581787,-1.171875,-0.484375,0.0625
324,1727263156127,-0.23364258,-0.94488525,0.28363037,-0.09375,-0.34375,0.234375
325,1727263156167,-0.23388672,-0.95318604,0.26409912,-1.8125,-0.53125,-0.15625
326,1727263156207,-0.23803711,-0.9546509,0.27069092,-1.234375,-0.515625,0.25
327,1727263156247,-0.23144531,-0.95806885,0.2748413,-0.953125,-0.25,0.171875
328,1727263156287,-0.23242188,-0.9463501,0.27264404,-0.71875,-0.171875,0.140625
329,1727263156327,-0.23486328,-0.9517212,0.2765503,-0.71875,-0.609375,0.390625
330,1727263156367,-0.23046875,-0.9492798,0.27264404,-0.796875,-0.890625,0.359375
331,1727263156407,-0.23876953,-0.9561157,0.276062,-1.203125,-1.390625,0.25
332,1727263156447,-0.23266602,-0.9529419,0.27313232,-2.15625,-0.5,0.015625
333,1727263156487,-0.23632812,-0.9483032,0.27337646,-2.046875,-1.265625,0.1875
334,1727263156527,-0.23144531,-0.93634033,0.2753296,0.28125,-0.859375,0.40625
335,1727263156567,-0.21508789,-0.9585571,0.26312256,-1.609375,0.265625,-0.625
336,1727263156607,-0.23388672,-0.9541626,0.276062,-0.359375,-0.046875,-0.265625
337,1727263156647,-0.24047852,-0.95196533,0.27581787,0.34375,0.484375,0.359375
338,1727263156687,-0.2319336,-0.9541626,0.27069092,-0.4375,1.125,0.140625
339,1727263156727,-0.23388672,-0.9487915,0.2748413,-1.328125,-0.09375,-0.34375
340,1727263156767,-0.23022461,-0.95196533,0.27679443,-0.703125,0.0625,-0.375
341,1727263156807,-0.23803711,-0.95635986,0.27825928,-1.484375,-0.671875,-0.265625
342,1727263156847,-0.23364258,-0.9522095,0.27142334,-2.59375,-1.09375,-0.578125
343,1727263156887,-0.23999023,-0.95880127,0.2748413,-1.84375,-0.78125,-0.234375
344,1727263156927,-0.23754883,-0.9468384,0.27801514,-1.0,-0.046875,-0.203125
345,1727263156967,-0.24121094,-0.95513916,0.2892456,-1.046875,-0.609375,0.171875
346,1727263157007,-0.23510742,-0.9470825,0.2753296,-2.828125,-0.21875,-0.734375
347,1727263157047,-0.23095703,-0.9390259,0.28118896,-1.140625,0.03125,-0.296875
348,1727263157087,-0.234375,-0.95806885,0.2831421,-0.546875,-0.453125,-0.203125
349,1727263157127,-0.23950195,-0.9495239,0.2826538,-1.375,-0.265625,-0.34375
350,1727263157167,-0.24023438,-0.9541626,0.2753296,-2.40625,0.671875,-0.625
351,1727263157207,-0.23535156,-0.9368286,0.30169678,2.046875,-0.484375,1.078125
352,1727263157247,-0.23608398,-0.94610596,0.26263428,-2.8125,-0.4375,-1.5
353,1727263157287,-0.24975586,-0.9553833,0.28656006,-0.125,1.9375,-0.46875
354,1727263157327,-0.24169922,-0.9505005,0.29144287,0.984375,1.125,-0.25
355,1727263157367,-0.23339844,-0.94195557,0.2741089,1.515625,1.9375,-0.359375
356,1727263157407,-0.23266602,-0.97857666,0.29608154,5.53125,-8.84375,1.78125
357,1727263157447,-0.26098633,-0.93927,0.27679443,1.5,-0.15625,1.90625
358,1727263157487,-0.2355957,-0.94537354,0.25408936,0.6875,-2.234375,0.078125
359,1727263157527,-0.23339844,-0.9517212,0.25946045,3.28125,1.84375,0.5
360,1727263157567,-0.24316406,-0.96661377,0.260437,4.796875,0.5625,0.046875
361,1727263157607,-0.23242188,-0.95562744,0.25335693,4.40625,2.359375,0.71875
362,1727263157647,-0.24682617,-0.956604,0.24139404,3.140625,3.59375,-0.0625
363,1727263157687,-0.23779297,-0.95880127,0.23480225,2.59375,4.1875,-0.421875
364,1727263157727,-0.2241211,-0.94903564,0.22528076,3.15625,2.40625,0.0
365,1727263157767,-0.23583984,-0.9614868,0.23602295,2.5625,2.484375,-0.234375
366,1727263157807,-0.23120117,-0.9619751,0.22161865,2.90625,1.828125,-0.015625
367,1727263157847,-0.2355957,-0.96051025,0.23968506,2.625,2.46875,-0.140625
368,1727263157887,-0.23510742,-0.960022,0.21966553,-0.0625,2.765625,-1.3125
369,1727263157927,-0.22485352,-0.96759033,0.21844482,4.125,-0.65625,0.578125
370,1727263157967,-0.2290039,-0.956604,0.22259521,-0.828125,1.828125,-1.796875
371,1727263158007,-0.24169922,-0.97320557,0.2164917,2.015625,1.421875,-0.03125
372,1727263158047,-0.24536133,-0.9534302,0.21234131,1.421875,3.90625,-0.828125
373,1727263158087,-0.22680664,-0.96051025,0.19989014,2.640625,2.1875,-1.359375
374,1727263158127,-0.24658203,-0.9470825,0.21746826,0.78125,-5.078125,-4.375
375,1727263158167,-0.23828125,-0.97491455,0.18695068,2.671875,2.984375,0.171875
376,1727263158207,-0.23950195,-0.9524536,0.20941162,1.4375,0.359375,-0.28125
377,1727263158247,-0.2409668,-0.9668579,0.20306396,0.234375,1.625,-0.703125
378,1727263158287,-0.2397461,-0.9627075,0.20648193,-0.046875,-0.6875,-0.09375
379,1727263158327,-0.23583984,-0.9573364,0.199646,-1.734375,-0.46875,-0.484375
380,1727263158367,-0.23876953,-0.9661255,0.19940186,-2.4375,-1.234375,-0.390625
381,1727263158407,-0.24365234,-0.9612427,0.19866943,-2.484375,-2.0,-0.5
382,1727263158447,-0.23217773,-0.9685669,0.20428467,-3.109375,-2.546875,0.21875
383,1727263158487,-0.21582031,-0.96295166,0.2230835,-7.375,-6.59375,0.78125
384,1727263158527,-0.29125977,-0.9714966,0.20892334,-8.484375,-4.421875,1.90625
385,1727263158567,-0.24365234,-0.94903564,0.22235107,-8.375,-2.671875,-1.609375
386,1727263158607,-0.22973633,-0.96759033,0.24310303,-7.65625,-1.0,0.109375
387,1727263158647,-0.25976562,-0.9512329,0.2423706,-7.390625,-5.6875,0.84375
388,1727263158687,-0.25341797,-0.9500122,0.25897217,-8.609375,-1.03125,-0.796875
389,1727263158727,-0.2475586,-0.9578247,0.24627686,-4.875,-0.34375,-0.3125
390,1727263158767,-0.24804688,-0.9434204,0.25946045,-0.609375,-0.296875,0.953125
391,1727263158807,-0.24975586,-0.94659424,0.26141357,-4.9375,-0.046875,-1.3125
392,1727263158847,-0.25048828,-0.96099854,0.26727295,-0.921875,0.21875,0.078125
393,1727263158887,-0.25439453,-0.9483032,0.27288818,-2.78125,0.609375,0.15625
394,1727263158927,-0.24951172,-0.9326782,0.26434326,-1.109375,0.453125,0.0625
395,1727263158967,-0.24633789,-0.9573364,0.27313232,-1.46875,0.46875,0.046875
396,1727263159007,-0.24902344,-0.95196533,0.27459717,-0.578125,0.0625,0.1875
397,1727263159047,-0.25390625,-0.95977783,0.27093506,-1.640625,-0.578125,0.296875
398,1727263159087,-0.24560547,-0.9512329,0.27557373,-1.34375,0.140625,-0.171875
399,1727263159127,-0.2265625,-0.9644165,0.21380615,-0.953125,-4.125,0.390625
400,1727263159167,-0.2800293,-0.9470825,0.3258667,5.453125,-0.46875,3.015625
401,1727263159207,-0.24829102,-0.9468384,0.25775146,2.5625,0.5625,0.203125
402,1727263159247,-0.23608398,-0.9553833,0.26678467,0.984375,0.9375,0.328125
403,1727263159287,-0.24682617,-0.9483032,0.26141357,0.78125,0.8125,0.71875
404,1727263159327,-0.24975586,-0.956604,0.25408936,0.171875,1.375,0.6875
405,1727263159367,-0.2397461,-0.956604,0.25213623,-0.578125,0.328125,0.28125
406,1727263159407,-0.24682617,-0.954895,0.25897217,-1.84375,-0.046875,0.015625
407,1727263159447,-0.23706055,-0.9529419,0.25213623,-1.953125,0.21875,-0.234375
408,1727263159487,-0.24169922,-0.95758057,0.2579956,-1.5,-0.046875,-0.09375
409,1727263159527,-0.24389648,-0.9553833,0.25823975,-1.8125,-0.59375,0.03125
410,1727263159567,-0.24804688,-0.9470825,0.2592163,-1.890625,-0.890625,0.265625
411,1727263159607,-0.23730469,-0.954895,0.26239014,-2.484375,-0.765625,-0.15625
412,1727263159647,-0.23632812,-0.9470825,0.2699585,0.1875,-0.75,0.5625
413,1727263159687,-0.24072266,-0.9561157,0.26190186,-3.078125,-0.25,-0.515625
414,1727263159727,-0.24804688,-0.95269775,0.27166748,-1.421875,-0.03125,-0.0625
415,1727263159767,-0.23876953,-0.94610596,0.2616577,-1.90625,0.453125,-0.203125
416,1727263159807,-0.24267578,-0.9517212,0.2645874,-0.15625,0.875,0.015625
417,1727263159847,-0.24194336,-0.9475708,0.2526245,-0.875,-0.296875,-0.34375
418,1727263159887,-0.24584961,-0.9512329,0.276062,1.515625,-0.421875,0.265625
419,1727263159927,-0.24658203,-0.95391846,0.26287842,0.046875,-1.171875,0.6875
420,1727263159967,-0.24414062,-0.9468384,0.2592163,-1.0625,-1.421875,0.109375
421,1727263160007,-0.24047852,-0.9524536,0.26434326,-1.25,-1.96875,-0.078125
422,1727263160047,-0.2434082,-0.9534302,0.26287842,-1.09375,-1.875,-0.1875
423,1727263160087,-0.2434082,-0.95635986,0.27142334,-0.96875,-1.59375,-0.1875
424,1727263160127,-0.24291992,-0.9558716,0.26239014,-1.859375,-0.46875,-0.359375
425,1727263160167,-0.2409668,-0.95684814,0.27044678,-0.4375,-0.25,-0.078125
426,1727263160207,-0.24975586,-0.9492798,0.25531006,-0.921875,0.1875,-0.171875
427,1727263160247,-0.24536133,-0.9512329,0.26116943,-0.984375,-0.296875,-0.0625
428,1727263160287,-0.2548828,-0.9524536,0.26239014,-1.453125,0.0,-0.453125
429,1727263160327,-0.23852539,-0.94610596,0.2411499,-0.328125,-1.875,-0.203125
430,1727263160367,-0.25610352,-0.9578247,0.29144287,3.09375,-0.03125,0.671875
431,1727263160407,-0.2536621,-0.95635986,0.2489624,1.765625,-0.15625,0.203125
432,1727263160447,-0.24633789,-0.9480591,0.26434326,1.3125,0.46875,0.046875
433,1727263160487,-0.24487305,-0.9558716,0.24407959,-0.59375,0.296875,-0.546875
434,1727263160527,-0.24951172,-0.9463501,0.2538452,3.15625,-0.140625,1.21875
435,1727263160567,-0.24609375,-0.95098877,0.25091553,-1.890625,1.40625,-1.28125
436,1727263160607,-0.25512695,-0.9602661,0.24285889,1.40625,0.53125,-0.125
437,1727263160647,-0.25390625,-0.96881104,0.2675171,0.953125,1.640625,-0.40625
438,1727263160687,-0.24414062,-0.9434204,0.22650146,2.109375,2.15625,-0.34375
439,1727263160727,-0.23486328,-0.9631958,0.25213623,2.296875,0.796875,0.046875
440,1727263160767,-0.24414062,-0.94976807,0.23406982,0.609375,1.765625,-0.34375
441,1727263160807,-0.25146484,-0.9680786,0.23040771,3.03125,-0.703125,0.34375
442,1727263160847,-0.23632812,-0.95684814,0.2267456,1.65625,2.0625,-0.265625
443,1727263160887,-0.24609375,-0.96295166,0.22381592,3.015625,0.578125,-0.0625
444,1727263160927,-0.24169922,-0.96661377,0.24090576,1.953125,1.1875,0.3125
445,1727263160967,-0.24047852,-0.9517212,0.2098999,1.296875,2.828125,-0.28125
446,1727263161007,-0.24365234,-0.95758057,0.21820068,1.734375,-0.109375,0.109375
447,1727263161047,-0.2446289,-0.9573364,0.21746826,0.328125,2.078125,-0.609375
448,1727263161087,-0.24682617,-0.96588135,0.20428467,1.515625,1.578125,-0.03125
449,1727263161127,-0.23828125,-0.9614868,0.2189331,2.0625,2.125,0.078125
450,1727263161167,-0.24194336,-0.95440674,0.20501709,1.359375,1.0625,0.078125
451,1727263161207,-0.24951172,-0.95928955,0.20648193,1.21875,0.921875,-0.125
452,1727263161247,-0.24072266,-0.96588135,0.2062378,1.296875,1.5625,0.109375
453,1727263161287,-0.24414062,-0.954895,0.20233154,0.578125,0.515625,-0.28125
454,1727263161327,-0.24951172,-0.9668579,0.2062378,0.421875,1.3125,-0.3125
455,1727263161367,-0.23486328,-0.9661255,0.20379639,-1.71875,1.765625,-1.34375
456,1727263161407,-0.23144531,-0.95928955,0.20037842,0.96875,-1.796875,1.09375
457,1727263161447,-0.24560547,-0.9553833,0.20721436,-4.421875,-2.28125,-0.5625
458,1727263161487,-0.2319336,-0.97052,0.20233154,-5.0,-4.109375,0.0
459,1727263161527,-0.26245117,-0.9692993,0.22137451,-7.953125,-3.90625,0.796875
460,1727263161567,-0.24829102,-0.9475708,0.22113037,-9.265625,1.078125,-1.53125
461,1727263161607,-0.2421875,-0.9522095,0.23382568,-6.5625,-2.5,-0.09375
462,1727263161647,-0.26098633,-0.95806885,0.24505615,-7.828125,0.3125,-0.53125
463,1727263161687,-0.2536621,-0.9644165,0.26239014,-6.359375,-1.6875,-0.09375
464,1727263161727,-0.25024414,-0.9517212,0.24188232,-6.890625,0.03125,-0.71875
465,1727263161767,-0.25561523,-0.9573364,0.25360107,-3.984375,0.265625,-0.265625
466,1727263161807,-0.2524414,-0.95025635,0.25726318,-1.875,-0.375,0.3125
467,1727263161847,-0.24511719,-0.9458618,0.2662964,-2.140625,-0.59375,-0.078125
468,1727263161887,-0.25341797,-0.94732666,0.26312256,-1.78125,-0.703125,0.09375
469,1727263161927,-0.25708008,-0.9561157,0.26922607,-1.25,-0.71875,0.296875
470,1727263161967,-0.25024414,-0.9553833,0.26678467,-1.265625,-0.015625,0.203125
471,1727263162007,-0.24926758,-0.954895,0.2694702,-1.078125,-0.578125,0.125
472,1727263162047,-0.25390625,-0.94610596,0.26922607,-0.875,-0.671875,0.171875
473,1727263162087,-0.24780273,-0.95147705,0.2670288,-1.125,-0.65625,0.375
474,1727263162127,-0.24414062,-0.9492798,0.262146,-1.09375,-0.125,-0.15625
475,1727263162167,-0.2475586,-0.94854736,0.26287842,-0.65625,0.1875,0.046875
476,1727263162207,-0.25195312,-0.9446411,0.27044678,-0.59375,0.546875,0.3125
477,1727263162247,-0.25170898,-0.95269775,0.2826538,1.34375,-0.6875,0.65625
478,1727263162287,-0.24731445,-0.9487915,0.27142334,-2.28125,-0.375,-0.65625
479,1727263162327,-0.25683594,-0.95684814,0.27825928,-0.6875,0.125,0.3125
480,1727263162367,-0.2475586,-0.9456177,0.27020264,-1.59375,0.015625,-0.078125
481,1727263162407,-0.24780273,-0.9434204,0.26556396,-0.21875,0.015625,0.3125
482,1727263162447,-0.24584961,-0.95513916,0.26287842,-1.046875,-0.03125,0.140625
483,1727263162487,-0.25390625,-0.9522095,0.2699585,-0.234375,-0.125,0.171875
484,1727263162527,-0.2529297,-0.9602661,0.26800537,-0.84375,-0.65625,0.359375
485,1727263162567,-0.24169922,-0.94366455,0.26409912,-1.953125,-0.484375,-0.234375
486,1727263162607,-0.24951172,-0.9561157,0.26727295,-0.859375,-0.703125,0.140625
487,1727263162647,-0.24389648,-0.9475708,0.26800537,-1.453125,-0.859375,0.03125
488,1727263162687,-0.24975586,-0.94537354,0.27264404,-1.03125,-1.0625,0.234375
489,1727263162727,-0.25073242,-0.94781494,0.27020264,-1.28125,-1.03125,0.078125
490,1727263162767,-0.24536133,-0.95318604,0.2670288,-1.203125,-0.8125,0.1875
491,1727263162807,-0.24731445,-0.94903564,0.2694702,-0.859375,-0.421875,0.28125
492,1727263162847,-0.24633789,-0.9429321,0.27044678,-0.9375,-0.671875,0.3125
493,1727263162887,-0.2553711,-0.94659424,0.2736206,-0.765625,-2.3125,0.84375
494,1727263162927,-0.24438477,-0.9456177,0.27191162,-2.265625,-2.5625,-0.015625
495,1727263162967,-0.24169922,-0.9456177,0.26507568,-2.6875,-0.078125,-0.53125
496,1727263163007,-0.23925781,-0.9536743,0.26776123,-0.703125,-0.515625,0.015625
497,1727263163047,-0.25146484,-0.9522095,0.26800537,-1.640625,-0.5625,-0.09375
498,1727263163087,-0.2434082,-0.9475708,0.27752686,-2.546875,-0.265625,-0.90625
499,1727263163127,-0.24609375,-0.94610596,0.2765503,-0.3125,-1.0,0.09375
500,1727263163167,-0.24853516,-0.9404907,0.2831421,-2.171875,0.0625,-0.359375
501,1727263163207,-0.24633789,-0.9505005,0.27825928,-1.609375,-0.578125,-0.453125
502,1727263163247,-0.25097656,-0.9495239,0.27508545,-2.0625,-0.359375,-0.453125
503,1727263163287,-0.25341797,-0.95147705,0.27459717,-0.21875,0.3125,-0.0625
504,1727263163327,-0.25317383,-0.9468384,0.2711792,1.328125,-0.4375,0.078125
505,1727263163367,-0.2475586,-0.94488525,0.2772827,3.65625,-1.859375,0.28125
506,1727263163407,-0.26611328,-0.9534302,0.2748413,3.234375,1.3125,0.609375
507,1727263163447,-0.24682617,-0.9602661,0.26116943,5.953125,-0.484375,0.1875
508,1727263163487,-0.2277832,-0.9463501,0.26507568,4.828125,1.765625,1.15625
509,1727263163527,-0.2487793,-0.9602661,0.24041748,4.859375,0.640625,1.234375
510,1727263163567,-0.2487793,-0.95196533,0.25091553,4.59375,1.421875,0.984375
511,1727263163607,-0.22949219,-0.9590454,0.23065186,3.953125,1.640625,0.203125
512,1727263163647,-0.24951172,-0.95977783,0.22918701,3.890625,1.59375,1.171875
513,1727263163687,-0.2421875,-0.96051025,0.22088623,2.6875,2.46875,0.21875
514,1727263163727,-0.24121094,-0.96588135,0.20892334,2.40625,0.734375,0.140625
515,1727263163767,-0.23608398,-0.96588135,0.23382568,2.546875,1.46875,0.96875
516,1727263163807,-0.23925781,-0.95562744,0.20355225,1.171875,2.296875,-0.03125
517,1727263163847,-0.23168945,-0.95684814,0.2086792,3.109375,-0.515625,0.953125
518,1727263163887,-0.22363281,-0.9536743,0.2020874,0.609375,1.609375,-0.28125
519,1727263163927,-0.24169922,-0.9697876,0.2008667,2.859375,0.578125,1.34375
520,1727263163967,-0.24047852,-0.97491455,0.21453857,2.1875,2.03125,1.140625
521,1727263164007,-0.22998047,-0.96295166,0.17010498,2.375,1.46875,1.421875
522,1727263164047,-0.23168945,-0.96832275,0.20013428,2.875,-0.65625,0.765625
523,1727263164087,-0.2421875,-0.9573364,0.18084717,1.453125,1.890625,1.109375
524,1727263164127,-0.2211914,-0.9734497,0.18157959,2.09375,-0.734375,0.71875
525,1727263164167,-0.22558594,-0.96099854,0.18133545,1.28125,0.78125,0.9375
526,1727263164207,-0.23046875,-0.9805298,0.17938232,2.015625,0.15625,0.796875
527,1727263164247,-0.22387695,-0.9697876,0.17254639,2.046875,2.015625,0.984375
528,1727263164287,-0.22290039,-0.97320557,0.16082764,1.890625,0.9375,0.796875
529,1727263164327,-0.2253418,-0.9734497,0.16912842,2.21875,0.46875,0.6875
530,1727263164367,-0.21899414,-0.9763794,0.16741943,1.3125,1.78125,0.546875
531,1727263164407,-0.2277832,-0.972229,0.15179443,1.53125,0.921875,0.234375
532,1727263164447,-0.21704102,-0.96759033,0.15985107,1.40625,0.96875,0.40625
533,1727263164487,-0.22192383,-0.97198486,0.15863037,1.296875,0.1875,0.03125
534,1727263164527,-0.2253418,-0.97198486,0.16229248,0.046875,0.046875,-0.40625
535,1727263164567,-0.22045898,-0.9734497,0.15570068,-1.640625,1.265625,-0.984375
536,1727263164607,-0.21386719,-0.9663696,0.15863037,-4.09375,-0.71875,-1.6875
537,1727263164647,-0.22021484,-0.96832275,0.1630249,-2.4375,-2.78125,-1.046875
538,1727263164687,-0.22265625,-0.9619751,0.15960693,-6.15625,-4.953125,-1.78125
539,1727263164727,-0.22460938,-0.9793091,0.18109131,-10.421875,-8.765625,-1.546875
540,1727263164767,-0.22973633,-0.97735596,0.20428467,-19.625,-7.46875,-3.484375
541,1727263164807,-0.26098633,-0.9456177,0.19647217,-21.59375,-1.578125,-4.75
542,1727263164847,-0.25952148,-0.9680786,0.2387085,-12.734375,-2.140625,-4.5625
543,1727263164887,-0.24389648,-0.96343994,0.23236084,-8.734375,1.703125,-1.859375
544,1727263164927,-0.25805664,-0.95562744,0.2616577,-4.609375,-0.765625,-0.4375
545,1727263164967,-0.25634766,-0.9492798,0.2531128,-4.875,-0.8125,-0.828125
546,1727263165007,-0.25878906,-0.9463501,0.26312256,-3.046875,-0.09375,-0.609375
547,1727263165047,-0.25805664,-0.9446411,0.2662964,-2.15625,-0.265625,-0.125
548,1727263165087,-0.25976562,-0.9439087,0.26849365,-2.578125,-0.421875,-0.421875
549,1727263165127,-0.25952148,-0.9561157,0.2711792,-2.328125,-0.078125,-0.34375
550,1727263165167,-0.25048828,-0.95269775,0.2699585,-1.6875,0.125,0.046875
551,1727263165207,-0.25439453,-0.9505005,0.27264404,-0.328125,0.15625,0.3125
552,1727263165247,-0.2565918,-0.94244385,0.27191162,0.140625,0.53125,0.453125
553,1727263165287,-0.2602539,-0.9487915,0.26922607,-0.515625,-0.234375,0.5
554,1727263165327,-0.25805664,-0.94781494,0.2753296,-1.328125,-0.125,0.078125
555,1727263165367,-0.25219727,-0.9480591,0.26800537,-1.234375,-0.046875,-0.046875
556,1727263165407,-0.25341797,-0.9458618,0.26727295,-0.5625,-0.359375,0.53125
557,1727263165447,-0.24780273,-0.9475708,0.27703857,-1.078125,0.109375,0.140625
558,1727263165487,-0.25756836,-0.9487915,0.27191162,-2.25,-0.328125,-0.546875
559,1727263165527,-0.25561523,-0.95098877,0.27752686,-0.5625,-0.421875,0.375
560,1727263165567,-0.2565918,-0.9480591,0.27630615,-1.875,0.0625,-0.21875
561,1727263165607,-0.25708008,-0.94488525,0.2753296,-1.640625,-0.734375,-0.15625
562,1727263165647,-0.25512695,-0.9468384,0.27703857,-1.546875,-0.265625,-0.046875
563,1727263165687,-0.25146484,-0.9458618,0.28778076,-0.640625,-0.21875,0.203125
564,1727263165727,-0.25512695,-0.95196533,0.2741089,-2.921875,-0.84375,-0.140625
565,1727263165767,-0.25317383,-0.9378052,0.27947998,-1.875,-0.578125,-0.25
566,1727263165807,-0.2578125,-0.9468384,0.27947998,-1.328125,-0.546875,0.40625
567,1727263165847,-0.2529297,-0.9385376,0.28338623,-1.140625,-0.484375,0.03125
568,1727263165887,-0.2565918,-0.94195557,0.27874756,-1.109375,-0.546875,0.109375
569,1727263165927,-0.2529297,-0.94244385,0.27923584,-0.75,-0.4375,0.0625
570,1727263165967,-0.2524414,-0.940979,0.27825928,-0.09375,0.0625,0.3125
571,1727263166007,-0.2548828,-0.94854736,0.2850952,0.34375,-0.515625,0.46875
572,1727263166047,-0.25854492,-0.9390259,0.2814331,-0.25,-1.0625,0.34375
573,1727263166087,-0.25976562,-0.94659424,0.2748413,-1.53125,-0.171875,-0.203125
574,1727263166127,-0.2529297,-0.94732666,0.28338623,-1.609375,0.40625,-0.390625
575,1727263166167,-0.26513672,-0.94488525,0.29534912,0.375,-0.96875,0.984375
576,1727263166207,-0.24414062,-0.9468384,0.26922607,-4.453125,-1.4375,-1.203125
577,1727263166247,-0.26586914,-0.9500122,0.28045654,-3.71875,0.0625,-0.96875
578,1727263166287,-0.26733398,-0.9507446,0.2946167,-1.75,-0.671875,-0.171875
579,1727263166327,-0.27319336,-0.9417114,0.26483154,-2.203125,3.171875,-1.15625
580,1727263166367,-0.2536621,-0.942688,0.28631592,1.15625,2.578125,-1.3125
581,1727263166407,-0.26757812,-0.94244385,0.2753296,-0.0625,2.5,-1.0
582,1727263166447,-0.25390625,-0.9417114,0.29925537,4.5,-0.71875,0.328125
583,1727263166487,-0.25878906,-0.9248657,0.2772827,1.421875,1.140625,-0.796875
584,1727263166527,-0.25830078,-0.9500122,0.29193115,5.125,0.765625,-0.125
585,1727263166567,-0.2565918,-0.93951416,0.27459717,3.8125,0.90625,0.703125
586,1727263166607,-0.25561523,-0.95318604,0.26556396,4.609375,1.359375,0.171875
587,1727263166647,-0.25683594,-0.94488525,0.26434326,4.390625,0.921875,0.40625
588,1727263166687,-0.25708008,-0.9595337,0.24090576,3.984375,0.828125,0.125
589,1727263166727,-0.26000977,-0.94781494,0.2477417,3.078125,1.71875,0.90625
590,1727263166767,-0.25512695,-0.956604,0.23773193,3.203125,1.453125,0.28125
591,1727263166807,-0.27270508,-0.95880127,0.23577881,3.78125,3.390625,0.703125
592,1727263166847,-0.2446289,-0.9480591,0.24261475,2.984375,5.734375,-0.6875
593,1727263166887,-0.2578125,-0.9546509,0.23382568,3.796875,5.015625,0.6875
594,1727263166927,-0.24829102,-0.9534302,0.22137451,2.890625,1.703125,-0.46875
595,1727263166967,-0.24438477,-0.96221924,0.23114014,4.875,1.921875,0.984375
596,1727263167007,-0.25268555,-0.9590454,0.21478271,1.109375,1.125,-0.015625
597,1727263167047,-0.24658203,-0.972229,0.21673584,2.84375,0.6875,0.75
598,1727263167087,-0.25073242,-0.9680786,0.2164917,1.78125,1.5625,1.125
599,1727263167127,-0.24951172,-0.9541626,0.19281006,1.75,2.0,0.921875
600,1727263167167,-0.24609375,-0.9636841,0.19647217,3.03125,0.28125,-0.046875
601,1727263167207,-0.25,-0.9649048,0.19915771,2.234375,1.71875,-0.0625
602,1727263167247,-0.23413086,-0.96832275,0.18817139,1.875,1.59375,-0.375
603,1727263167287,-0.24926758,-0.9524536,0.19476318,1.4375,-0.578125,0.296875
604,1727263167327,-0.2421875,-0.96343994,0.20672607,0.875,-0.015625,-0.1875
605,1727263167367,-0.25,-0.97320557,0.19281006,1.15625,0.546875,0.90625
606,1727263167407,-0.25195312,-0.9627075,0.19329834,-0.1875,-0.328125,0.625
607,1727263167447,-0.24609375,-0.95635986,0.18328857,-0.265625,0.671875,0.03125
608,1727263167487,-0.23095703,-0.9649048,0.17913818,0.625,-0.140625,0.578125
609,1727263167527,-0.24389648,-0.96051025,0.18865967,0.15625,-1.09375,0.09375
610,1727263167567,-0.24047852,-0.95977783,0.18377686,-1.0,0.171875,-0.390625
611,1727263167607,-0.2548828,-0.96710205,0.17840576,0.8125,-1.421875,0.421875
612,1727263167647,-0.24804688,-0.96051025,0.18792725,-0.046875,-0.265625,-0.296875
613,1727263167687,-0.23852539,-0.97003174,0.18255615,-0.828125,-0.03125,-0.9375
614,1727263167727,-0.24194336,-0.95269775,0.17840576,-1.859375,-0.234375,-0.9375
615,1727263167767,-0.22973633,-0.96466064,0.18792725,0.03125,-4.84375,-0.03125
616,1727263167807,-0.23461914,-0.9776001,0.19476318,-6.34375,-4.6875,0.578125
617,1727263167847,-0.25024414,-0.95269775,0.19769287,-11.75,-2.375,-1.15625
618,1727263167887,-0.24829102,-0.97003174,0.21014404,-13.390625,-2.28125,0.6875
619,1727263167927,-0.27172852,-0.9390259,0.21160889,-14.640625,-1.453125,-0.390625
620,1727263167967,-0.2512207,-0.9534302,0.24090576,-9.765625,-3.25,-1.4375
621,1727263168007,-0.265625,-0.9663696,0.23651123,-7.515625,-0.15625,-0.78125
622,1727263168047,-0.24194336,-0.96539307,0.2567749,-1.984375,-0.78125,-0.546875
623,1727263168087,-0.25195312,-0.94903564,0.25726318,-2.1875,0.625,0.53125
624,1727263168127,-0.25683594,-0.94976807,0.26068115,-0.828125,-0.484375,0.359375
625,1727263168167,-0.24926758,-0.94732666,0.25164795,-1.4375,-0.890625,0.609375
626,1727263168207,-0.24804688,-0.9470825,0.25164795,-1.84375,0.078125,0.65625
627,1727263168247,-0.25073242,-0.9517212,0.25115967,-0.875,0.328125,0.71875
628,1727263168287,-0.25146484,-0.9558716,0.24505615,-1.0,-0.71875,0.265625
629,1727263168327,-0.24731445,-0.9487915,0.2538452,-0.46875,0.421875,0.296875
630,1727263168367,-0.24853516,-0.94903564,0.25994873,1.59375,0.453125,1.3125
631,1727263168407,-0.25463867,-0.95880127,0.26776123,1.953125,-0.609375,1.5
632,1727263168447,-0.23999023,-0.9546509,0.2597046,-0.5625,-0.75,0.828125
633,1727263168487,-0.24975586,-0.95635986,0.24969482,-1.4375,0.609375,0.546875
634,1727263168527,-0.24169922,-0.93951416,0.25726318,1.140625,-0.09375,1.46875
635,1727263168567,-0.23144531,-0.9541626,0.23773193,-2.203125,-0.609375,0.359375
636,1727263168607,-0.2421875,-0.9585571,0.24603271,-2.171875,-0.46875,0.15625
637,1727263168647,-0.2475586,-0.9570923,0.24969482,-1.125,-1.234375,0.46875
638,1727263168687,-0.24707031,-0.94366455,0.24822998,-2.359375,-0.265625,0.0
639,1727263168727,-0.24145508,-0.96343994,0.25360107,-2.453125,-1.421875,-0.1875
640,1727263168767,-0.24291992,-0.9517212,0.25482178,-2.734375,-1.109375,-0.09375
641,1727263168807,-0.24365234,-0.9470825,0.26019287,-1.578125,-1.390625,0.15625
642,1727263168847,-0.24047852,-0.9536743,0.25653076,-3.9375,-1.6875,-0.4375
643,1727263168887,-0.23632812,-0.94317627,0.26654053,-2.3125,-1.59375,0.15625
644,1727263168927,-0.24389648,-0.9463501,0.27044678,-2.75,-2.28125,-0.03125
645,1727263168967,-0.24829102,-0.9421997,0.27386475,-2.234375,-2.703125,0.203125
646,1727263169007,-0.24194336,-0.9578247,0.277771,-2.796875,-3.25,0.1875
647,1727263169047,-0.23754883,-0.9536743,0.26385498,-3.84375,-2.265625,-0.390625
648,1727263169087,-0.24975586,-0.95391846,0.27557373,-2.265625,-0.421875,-0.171875
649,1727263169127,-0.24926758,-0.9529419,0.2687378,-1.46875,-0.265625,0.359375
650,1727263169167,-0.25097656,-0.94903564,0.27313232,-1.484375,-0.484375,-0.15625
651,1727263169207,-0.23876953,-0.94415283,0.2736206,-1.46875,-0.140625,-0.328125
652,1727263169247,-0.22290039,-0.9612427,0.23626709,2.0625,-7.15625,-0.234375
653,1727263169287,-0.25952148,-0.9636841,0.27996826,9.15625,0.171875,3.15625
654,1727263169327,-0.25195312,-0.92852783,0.2555542,3.03125,1.828125,-0.796875
655,1727263169367,-0.2397461,-0.97540283,0.25457764,3.359375,1.75,0.078125
656,1727263169407,-0.24169922,-0.94976807,0.25531006,4.34375,2.046875,0.3125
657,1727263169447,-0.2319336,-0.94488525,0.23651123,2.78125,2.890625,-0.171875
658,1727263169487,-0.24658203,-0.95880127,0.23504639,3.53125,0.0625,-0.21875
659,1727263169527,-0.25195312,-0.9614868,0.22894287,2.1875,2.203125,-0.25
660,1727263169567,-0.2265625,-0.9714966,0.22113037,3.1875,1.65625,0.40625
661,1727263169607,-0.24780273,-0.9536743,0.21600342,3.390625,1.125,0.5
662,1727263169647,-0.2368164,-0.9619751,0.23382568,2.765625,2.015625,0.359375
663,1727263169687,-0.23779297,-0.95880127,0.20257568,2.0625,1.921875,0.546875
664,1727263169727,-0.24121094,-0.9612427,0.20843506,2.484375,0.734375,0.640625
665,1727263169767,-0.2434082,-0.9678345,0.21282959,2.109375,0.640625,0.53125
666,1727263169807,-0.23608398,-0.9631958,0.2008667,1.484375,1.578125,0.34375
667,1727263169847,-0.22924805,-0.9729614,0.19256592,1.890625,1.203125,0.546875
668,1727263169887,-0.24316406,-0.96173096,0.19158936,2.015625,0.75,0.890625
669,1727263169927,-0.23632812,-0.9692993,0.19354248,1.421875,0.875,0.375
670,1727263169967,-0.24316406,-0.9614868,0.18475342,1.640625,1.3125,0.625
671,1727263170007,-0.23413086,-0.9639282,0.18157959,1.28125,1.609375,0.484375
672,1727263170047,-0.22485352,-0.9734497,0.18157959,0.40625,0.078125,-0.09375
673,1727263170087,-0.22680664,-0.9776001,0.18011475,3.0625,1.453125,1.859375
674,1727263170127,-0.22998047,-0.9697876,0.17108154,0.546875,-0.6875,0.640625
675,1727263170167,-0.23583984,-0.97003174,0.18133545,-0.1875,1.046875,0.203125
676,1727263170207,-0.23144531,-0.972229,0.1852417,0.078125,1.0,-0.34375
677,1727263170247,-0.22045898,-0.96588135,0.17156982,0.875,2.1875,0.328125
678,1727263170287,-0.22729492,-0.9702759,0.1798706,-0.1875,-1.078125,0.0625
679,1727263170327,-0.23217773,-0.9602661,0.18157959,-1.90625,0.703125,-0.53125
680,1727263170367,-0.22851562,-0.9710083,0.17034912,-1.78125,-1.046875,-0.65625
681,1727263170407,-0.22875977,-0.9644165,0.17840576,-3.234375,-2.015625,-0.296875
682,1727263170447,-0.23876953,-0.9690552,0.1864624,-6.03125,-4.625,-0.859375
683,1727263170487,-0.23364258,-0.9668579,0.19622803,-8.703125,-5.578125,-1.046875
684,1727263170527,-0.24072266,-0.9692993,0.19500732,-10.53125,-4.109375,-2.390625
685,1727263170567,-0.23510742,-0.9656372,0.21307373,-10.03125,-0.25,-1.65625
686,1727263170607,-0.25195312,-0.94854736,0.22210693,-9.96875,-3.609375,-1.96875
687,1727263170647,-0.24316406,-0.9661255,0.25457764,-9.8125,-1.28125,-2.125
688,1727263170687,-0.2434082,-0.9529419,0.24212646,-7.9375,0.078125,-1.484375
689,1727263170727,-0.2578125,-0.94854736,0.2489624,-4.953125,0.546875,-0.65625
690,1727263170767,-0.25439453,-0.9522095,0.26409912,-2.8125,-0.375,-0.296875
691,1727263170807,-0.25341797,-0.95318604,0.26361084,-3.078125,0.046875,-0.609375
692,1727263170847,-0.24584961,-0.9536743,0.2592163,-2.0,0.015625,0.03125
693,1727263170887,-0.25512695,-0.9475708,0.25457764,-1.34375,0.046875,0.21875
694,1727263170927,-0.24121094,-0.9534302,0.2662964,-1.640625,-0.234375,-0.03125
695,1727263170967,-0.25634766,-0.94659424,0.26019287,-3.046875,-0.140625,-0.96875
696,1727263171007,-0.25219727,-0.95684814,0.26483154,-1.109375,-0.734375,0.15625
697,1727263171047,-0.23754883,-0.94415283,0.26385498,-3.4375,-0.1875,-0.46875
698,1727263171087,-0.2619629,-0.95025635,0.2699585,-1.1875,-0.859375,-0.140625
699,1727263171127,-0.25341797,-0.9458618,0.2753296,-1.375,0.0,-0.0625
700,1727263171167,-0.2590332,-0.95269775,0.2831421,-0.53125,-0.75,0.203125
701,1727263171207,-0.26123047,-0.94976807,0.27508545,-2.578125,-0.859375,0.046875
702,1727263171247,-0.25073242,-0.9404907,0.27557373,-1.609375,-0.671875,0.03125
703,1727263171287,-0.25585938,-0.95147705,0.27874756,-0.765625,-0.4375,0.203125
704,1727263171327,-0.24682617,-0.94415283,0.26531982,-1.109375,-0.609375,0.203125
705,1727263171367,-0.2548828,-0.9439087,0.27972412,-1.09375,-0.734375,0.484375
706,1727263171407,-0.25195312,-0.95440674,0.2765503,-1.421875,-0.71875,0.15625
707,1727263171447,-0.24536133,-0.9463501,0.2789917,-1.1875,-0.8125,0.296875
708,1727263171487,-0.24511719,-0.9439087,0.27459717,-0.328125,-0.65625,0.390625
709,1727263171527,-0.24853516,-0.95147705,0.26922607,-0.125,-0.90625,0.640625
710,1727263171567,-0.2529297,-0.9475708,0.2765503,-1.015625,-0.6875,0.328125
711,1727263171607,-0.24902344,-0.9558716,0.2711792,-0.921875,-0.9375,0.296875
712,1727263171647,-0.24291992,-0.942688,0.27069092,-1.40625,-0.859375,-0.078125
713,1727263171687,-0.24609375,-0.9529419,0.27947998,-1.125,-1.140625,0.15625
714,1727263171727,-0.2409668,-0.9480591,0.2723999,-3.578125,-0.8125,-1.59375
715,1727263171767,-0.24975586,-0.9500122,0.27947998,-1.703125,-0.21875,-0.546875
716,1727263171807,-0.2944336,-0.94073486,0.2814331,0.9375,2.390625,-0.5625
717,1727263171847,-0.25317383,-0.94732666,0.26971436,7.265625,1.515625,-0.125
718,1727263171887,-0.23730469,-0.9536743,0.27557373,4.71875,2.5625,-0.5625
719,1727263171927,-0.26904297,-0.9558716,0.26605225,6.953125,1.734375,0.75
720,1727263171967,-0.25,-0.9397583,0.24871826,5.953125,0.328125,1.765625
721,1727263172007,-0.25097656,-0.9524536,0.24261475,3.40625,0.921875,0.375
722,1727263172047,-0.24804688,-0.9546509,0.23431396,4.078125,0.421875,0.671875
723,1727263172087,-0.24194336,-0.95269775,0.23895264,1.859375,1.3125,0.171875
724,1727263172127,-0.24804688,-0.95880127,0.22869873,2.625,0.28125,0.40625
725,1727263172167,-0.2536621,-0.9578247,0.22943115,2.734375,0.4375,0.9375
726,1727263172207,-0.23828125,-0.96343994,0.21697998,2.703125,2.359375,0.578125
727,1727263172247,-0.2512207,-0.96295166,0.21282959,3.5,1.1875,0.984375
728,1727263172287,-0.24609375,-0.96221924,0.21844482,2.53125,1.765625,0.609375
729,1727263172327,-0.24047852,-0.96588135,0.1984253,3.125,1.59375,0.65625
730,1727263172367,-0.24536133,-0.9607544,0.20648193,2.828125,0.265625,1.015625
731,1727263172407,-0.2397461,-0.9685669,0.2033081,2.234375,1.1875,0.671875
732,1727263172447,-0.23242188,-0.96295166,0.18890381,1.671875,1.671875,0.546875
733,1727263172487,-0.23144531,-0.96661377,0.19647217,3.609375,-0.734375,1.359375
734,1727263172527,-0.23901367,-0.95977783,0.18377686,-0.90625,0.125,-0.75
735,1727263172567,-0.24023438,-0.97076416,0.18353271,1.984375,0.390625,0.5625
736,1727263172607,-0.23339844,-0.96832275,0.19500732,1.5,2.3125,0.4375
737,1727263172647,-0.23999023,-0.96759033,0.16619873,1.703125,1.53125,0.328125
738,1727263172687,-0.23144531,-0.9714966,0.18914795,0.46875,-0.296875,-0.203125
739,1727263172727,-0.24829102,-0.9607544,0.17718506,-0.1875,0.375,-0.125
740,1727263172767,-0.23168945,-0.97540283,0.1696167,-0.78125,-1.078125,0.046875
741,1727263172807,-0.23852539,-0.9595337,0.18499756,-2.390625,-0.75,-0.8125
742,1727263172847,-0.2421875,-0.9714966,0.18206787,-2.15625,-0.25,-0.671875
743,1727263172887,-0.23901367,-0.96661377,0.18035889,-2.4375,-0.8125,-0.4375
744,1727263172927,-0.2614746,-0.9607544,0.18841553,-5.5625,-1.59375,-1.859375
745,1727263172967,-0.25976562,-0.9614868,0.19598389,-8.6875,-1.1875,-3.65625
746,1727263173007,-0.23291016,-0.9590454,0.20281982,-10.75,0.890625,-4.625
747,1727263173047,-0.23901367,-0.95928955,0.230896,-10.09375,0.28125,-3.015625
748,1727263173087,-0.23608398,-0.95684814,0.24334717,-12.09375,0.640625,-2.21875
749,1727263173127,-0.2614746,-0.9546509,0.23504639,-8.484375,-4.796875,0.28125
