,Unnamed: 0,timestamp,accel_x,accel_y,accel_z,gyro_x,gyro_y,gyro_z
0,0,1727792045275,-0.1352539,-0.9336548,0.34490967,0.421875,0.46875,0.484375
1,1,1727792045315,-0.13378906,-0.93292236,0.34124756,-0.5,0.4375,-0.21875
2,2,1727792045355,-0.13012695,-0.9312134,0.33294678,0.25,0.734375,-0.140625
3,3,1727792045395,-0.13256836,-0.93756104,0.33953857,0.3125,0.890625,0.828125
4,4,1727792045435,-0.12988281,-0.93414307,0.340271,0.296875,0.296875,0.09375
5,5,1727792045475,-0.13598633,-0.92926025,0.34100342,0.8125,0.6875,-0.40625
6,6,1727792045515,-0.13793945,-0.9414673,0.34661865,0.4375,0.59375,0.328125
7,7,1727792045555,-0.14257812,-0.928772,0.33685303,0.0,0.375,0.03125
8,8,1727792045595,-0.13720703,-0.9348755,0.3427124,-0.0625,0.484375,0.21875
9,9,1727792045635,-0.13134766,-0.93536377,0.3444214,0.078125,1.4375,0.078125
10,10,1727792045675,-0.13305664,-0.92681885,0.33587646,0.46875,0.640625,-0.046875
11,11,1727792045715,-0.12939453,-0.93756104,0.33929443,-0.390625,0.203125,-0.234375
12,12,1727792045755,-0.13134766,-0.9277954,0.34588623,0.859375,-0.015625,-0.21875
13,13,1727792045795,-0.1352539,-0.95147705,0.3348999,1.296875,0.859375,0.109375
14,14,1727792045835,-0.1340332,-0.93292236,0.3319702,-2.046875,0.359375,-0.625
15,15,1727792045875,-0.140625,-0.92437744,0.34320068,-0.171875,0.734375,-0.15625
16,16,1727792045915,-0.13891602,-0.94073486,0.34881592,1.171875,0.6875,0.578125
17,17,1727792045955,-0.12988281,-0.92926025,0.34466553,-0.703125,0.4375,-0.09375
18,18,1727792045995,-0.1340332,-0.9224243,0.32977295,-0.171875,0.53125,-0.546875
19,19,1727792046035,-0.14379883,-0.9417114,0.34783936,1.171875,1.28125,0.609375
20,20,1727792046075,-0.13452148,-0.9380493,0.34490967,-0.25,0.1875,-0.078125
21,21,1727792046115,-0.1328125,-0.9234009,0.34222412,0.46875,0.484375,-0.203125
22,22,1727792046155,-0.13330078,-0.93756104,0.3390503,1.109375,0.90625,0.5625
23,23,1727792046195,-0.13989258,-0.927063,0.3378296,0.203125,0.390625,0.265625
24,24,1727792046235,-0.13891602,-0.9319458,0.3397827,0.015625,0.40625,0.03125
25,25,1727792046275,-0.13769531,-0.93634033,0.34124756,-0.046875,0.71875,0.125
26,26,1727792046315,-0.1394043,-0.9273071,0.3427124,0.546875,0.609375,-0.078125
27,27,1727792046355,-0.14086914,-0.9295044,0.33465576,0.390625,0.1875,0.015625
28,28,1727792046395,-0.13452148,-0.92974854,0.3493042,0.5,0.15625,0.578125
29,29,1727792046435,-0.1352539,-0.9446411,0.33538818,0.8125,0.71875,0.4375
30,30,1727792046475,-0.13793945,-0.9319458,0.32025146,-1.609375,0.3125,-1.03125
31,31,1727792046515,-0.14453125,-0.923645,0.34100342,0.0625,1.015625,-0.390625
32,32,1727792046555,-0.13476562,-0.94122314,0.35906982,0.5625,0.453125,0.78125
33,33,1727792046595,-0.13183594,-0.9360962,0.33636475,-0.75,0.15625,0.578125
34,34,1727792046635,-0.13598633,-0.9258423,0.32537842,0.3125,1.15625,-0.296875
35,35,1727792046675,-0.14160156,-0.942688,0.3456421,0.8125,1.015625,0.234375
36,36,1727792046715,-0.13598633,-0.92852783,0.3468628,-0.4375,-0.0625,-0.109375
37,37,1727792046755,-0.13598633,-0.9302368,0.34051514,0.453125,-0.140625,-0.328125
38,38,1727792046795,-0.14575195,-0.9390259,0.34320068,0.453125,0.84375,0.546875
39,39,1727792046835,-0.1340332,-0.92681885,0.33685303,-0.015625,1.28125,-0.0625
40,40,1727792046875,-0.1184082,-0.92926025,0.3427124,-0.484375,0.765625,0.34375
41,41,1727792046915,-0.12866211,-0.9343872,0.33807373,0.21875,0.578125,0.265625
42,42,1727792046955,-0.1315918,-0.9290161,0.3649292,2.65625,1.015625,0.578125
43,43,1727792046995,-0.12915039,-0.92974854,0.3361206,0.625,0.96875,0.546875
44,44,1727792047035,-0.15161133,-0.92071533,0.32537842,-1.0,-0.0625,-0.125
45,45,1727792047075,-0.15136719,-0.9451294,0.3468628,0.71875,-0.171875,0.5625
46,46,1727792047115,-0.13916016,-0.9324341,0.35076904,-0.109375,-0.15625,0.046875
47,47,1727792047155,-0.14257812,-0.92633057,0.3427124,1.734375,0.8125,0.1875
48,48,1727792047195,-0.1418457,-0.928772,0.3427124,0.0625,0.625,0.40625
49,49,1727792047235,-0.13452148,-0.92852783,0.34417725,-1.015625,-0.078125,0.515625
50,50,1727792047275,-0.13330078,-0.93341064,0.34197998,0.703125,0.90625,0.0625
51,51,1727792047315,-0.14379883,-0.9314575,0.33953857,0.578125,0.84375,-0.171875
52,52,1727792047355,-0.14501953,-0.92633057,0.33587646,0.140625,0.328125,-0.078125
53,53,1727792047395,-0.15405273,-0.93096924,0.34368896,0.484375,0.453125,0.09375
54,54,1727792047435,-0.14501953,-0.93048096,0.34222412,0.65625,0.53125,0.578125
55,55,1727792047475,-0.13769531,-0.94317627,0.33953857,-0.375,0.375,0.078125
56,56,1727792047515,-0.13647461,-0.9277954,0.34368896,-1.78125,0.484375,-0.515625
57,57,1727792047555,-0.13745117,-0.9282837,0.34979248,1.65625,0.828125,0.40625
58,58,1727792047595,-0.1352539,-0.92559814,0.34539795,1.640625,0.640625,0.328125
59,59,1727792047635,-0.13842773,-0.92974854,0.33929443,-1.578125,-0.109375,-0.5625
60,60,1727792047675,-0.13891602,-0.94244385,0.33416748,0.28125,0.53125,-0.03125
61,61,1727792047715,-0.13354492,-0.9290161,0.34100342,1.1875,0.890625,0.421875
62,62,1727792047755,-0.13989258,-0.923645,0.3444214,-0.21875,0.140625,-0.390625
63,63,1727792047795,-0.14770508,-0.9282837,0.3439331,0.09375,0.640625,-0.015625
64,64,1727792047835,-0.14355469,-0.9295044,0.34539795,0.6875,0.375,0.6875
65,65,1727792047875,-0.14086914,-0.93341064,0.34295654,0.109375,0.046875,0.265625
66,66,1727792047915,-0.13085938,-0.9348755,0.3397827,-0.21875,0.46875,0.296875
67,67,1727792047955,-0.13891602,-0.93218994,0.34368896,0.203125,0.96875,0.15625
68,68,1727792047995,-0.1459961,-0.9351196,0.35003662,0.859375,0.28125,0.46875
69,69,1727792048035,-0.14257812,-0.92755127,0.33831787,0.1875,0.28125,0.625
70,70,1727792048075,-0.13598633,-0.94244385,0.34320068,-0.0625,0.546875,-0.25
71,71,1727792048115,-0.14404297,-0.927063,0.33294678,-1.203125,0.09375,-0.46875
72,72,1727792048155,-0.14746094,-0.92315674,0.35491943,1.0,-0.1875,0.0625
73,73,1727792048195,-0.13574219,-0.92803955,0.34832764,1.03125,0.453125,0.59375
74,74,1727792048235,-0.1352539,-0.92755127,0.33441162,-0.140625,0.265625,0.234375
75,75,1727792048275,-0.1381836,-0.93829346,0.33416748,0.21875,0.796875,0.40625
76,76,1727792048315,-0.13134766,-0.92633057,0.34466553,0.140625,0.609375,0.5
77,77,1727792048355,-0.1381836,-0.9299927,0.34661865,0.8125,0.546875,-0.09375
78,78,1727792048395,-0.14526367,-0.9299927,0.34613037,0.71875,0.78125,-0.046875
79,79,1727792048435,-0.14208984,-0.92926025,0.3444214,0.375,0.3125,0.359375
80,80,1727792048475,-0.13964844,-0.9368286,0.340271,-0.1875,0.078125,0.3125
81,81,1727792048515,-0.1418457,-0.93218994,0.33758545,0.0,0.765625,-0.015625
82,82,1727792048555,-0.13720703,-0.9351196,0.34124756,-0.28125,0.46875,0.015625
83,83,1727792048595,-0.13427734,-0.92315674,0.34906006,0.71875,-0.296875,0.390625
84,84,1727792048635,-0.14013672,-0.94610596,0.3397827,1.265625,0.484375,0.703125
85,85,1727792048675,-0.13842773,-0.92633057,0.33709717,-0.53125,0.390625,-0.21875
86,86,1727792048715,-0.15405273,-0.9336548,0.34002686,0.265625,0.765625,0.1875
87,87,1727792048755,-0.14697266,-0.9348755,0.35150146,1.46875,0.265625,0.8125
88,88,1727792048795,-0.13867188,-0.92144775,0.3444214,0.34375,0.578125,0.3125
89,89,1727792048835,-0.13232422,-0.925354,0.3241577,1.0,1.359375,0.546875
90,90,1727792048875,-0.13476562,-0.9380493,0.33880615,2.390625,1.890625,1.3125
91,91,1727792048915,-0.13793945,-0.9324341,0.338562,1.328125,0.65625,0.90625
92,92,1727792048955,-0.13964844,-0.93756104,0.33709717,1.78125,0.390625,0.6875
93,93,1727792048995,-0.13696289,-0.93536377,0.33026123,1.8125,1.3125,0.984375
94,94,1727792049035,-0.13110352,-0.93096924,0.3324585,1.765625,1.015625,0.78125
95,95,1727792049075,-0.12988281,-0.94244385,0.3307495,0.84375,0.484375,0.59375
96,96,1727792049115,-0.13842773,-0.9414673,0.32318115,0.953125,0.78125,0.453125
97,97,1727792049155,-0.12939453,-0.9373169,0.33563232,1.625,1.046875,0.65625
98,98,1727792049195,-0.13671875,-0.9336548,0.3168335,1.375,1.15625,0.703125
99,99,1727792049235,-0.1262207,-0.9475708,0.32440186,0.4375,1.359375,-0.125
100,100,1727792049275,-0.1237793,-0.93634033,0.32806396,0.234375,0.96875,0.046875
101,101,1727792049315,-0.1303711,-0.94537354,0.33441162,2.640625,0.703125,0.46875
102,102,1727792049355,-0.12524414,-0.93634033,0.31292725,1.328125,0.265625,0.015625
103,103,1727792049395,-0.1328125,-0.93048096,0.30828857,1.796875,0.15625,-0.375
104,104,1727792049435,-0.14770508,-0.944397,0.30950928,1.921875,0.3125,0.078125
105,105,1727792049475,-0.13110352,-0.93292236,0.3209839,0.546875,0.34375,1.609375
106,106,1727792049515,-0.12207031,-0.9558716,0.32611084,2.640625,1.328125,1.6875
107,107,1727792049555,-0.11254883,-0.94317627,0.30511475,1.609375,2.21875,0.890625
108,108,1727792049595,-0.10107422,-0.93756104,0.30511475,0.234375,0.921875,-0.171875
109,109,1727792049635,-0.13623047,-0.9439087,0.33441162,-2.828125,0.28125,-0.3125
110,110,1727792049675,-0.13549805,-0.9246216,0.3468628,-0.609375,0.46875,0.125
111,111,1727792049715,-0.14648438,-0.9204712,0.35394287,1.265625,0.21875,1.3125
112,112,1727792049755,-0.1274414,-0.9209595,0.35028076,-0.703125,0.234375,0.796875
113,113,1727792049795,-0.12792969,-0.93170166,0.3451538,-1.640625,-0.59375,-0.296875
114,114,1727792049835,-0.1381836,-0.93634033,0.35150146,0.859375,-0.15625,0.125
115,115,1727792049875,-0.13134766,-0.93096924,0.35003662,0.0,0.59375,0.546875
116,116,1727792049915,-0.13647461,-0.91290283,0.35369873,0.71875,0.328125,0.140625
117,117,1727792049955,-0.14526367,-0.94122314,0.34222412,0.46875,0.4375,-1.421875
118,118,1727792049995,-0.15332031,-0.9246216,0.33807373,-2.15625,-0.46875,-0.921875
119,119,1727792050035,-0.14794922,-0.9314575,0.34881592,0.15625,0.359375,-1.296875
120,120,1727792050075,-0.13867188,-0.9390259,0.3583374,-0.140625,0.421875,-0.03125
121,121,1727792050115,-0.13842773,-0.9168091,0.3505249,-0.625,0.0,-0.25
122,122,1727792050155,-0.14550781,-0.9302368,0.3475952,-0.71875,-0.640625,-0.984375
123,123,1727792050195,-0.15405273,-0.925354,0.33953857,-1.671875,-1.46875,-0.390625
124,124,1727792050235,-0.16430664,-0.9163208,0.33807373,-0.171875,-2.4375,-0.875
125,125,1727792050275,-0.13305664,-0.9439087,0.37908936,1.671875,1.078125,-0.015625
126,126,1727792050315,-0.14868164,-0.90802,0.3595581,1.03125,2.1875,0.03125
127,127,1727792050355,-0.15844727,-0.9216919,0.34368896,1.296875,1.328125,-0.15625
128,128,1727792050395,-0.15429688,-0.94000244,0.35565186,0.3125,0.140625,1.671875
129,129,1727792050435,-0.14355469,-0.94488525,0.35272217,1.0,0.703125,1.28125
130,130,1727792050475,-0.14257812,-0.9273071,0.3307495,0.921875,0.859375,0.515625
131,131,1727792050515,-0.15039062,-0.91973877,0.34832764,1.96875,0.4375,0.4375
132,132,1727792050555,-0.16235352,-0.9434204,0.34075928,1.5625,1.0625,0.6875
133,133,1727792050595,-0.14379883,-0.9404907,0.3258667,-1.1875,-0.078125,-0.046875
134,134,1727792050635,-0.14550781,-0.92022705,0.34075928,0.484375,0.28125,-0.25
135,135,1727792050675,-0.15063477,-0.93463135,0.3554077,1.90625,1.125,0.71875
136,136,1727792050715,-0.15063477,-0.93048096,0.34710693,0.203125,0.75,1.21875
137,137,1727792050755,-0.14892578,-0.9307251,0.3295288,0.8125,0.140625,0.6875
138,138,1727792050795,-0.140625,-0.94659424,0.33685303,1.15625,1.046875,1.625
139,139,1727792050835,-0.13256836,-0.92071533,0.33685303,0.046875,0.65625,1.21875
140,140,1727792050875,-0.13647461,-0.92803955,0.34246826,1.734375,-0.234375,0.921875
141,141,1727792050915,-0.13867188,-0.9365845,0.34295654,0.4375,-0.015625,0.671875
142,142,1727792050955,-0.13305664,-0.9314575,0.33538818,0.265625,0.375,0.6875
143,143,1727792050995,-0.13476562,-0.9365845,0.3312378,1.640625,0.4375,1.171875
144,144,1727792051035,-0.13867188,-0.93463135,0.3319702,1.171875,0.09375,0.84375
145,145,1727792051075,-0.13867188,-0.9368286,0.33319092,0.296875,0.484375,0.296875
146,146,1727792051115,-0.1381836,-0.93536377,0.32928467,0.296875,0.328125,0.53125
147,147,1727792051155,-0.14160156,-0.93218994,0.33929443,1.53125,0.15625,1.125
148,148,1727792051195,-0.12841797,-0.9385376,0.32635498,1.3125,0.359375,0.765625
149,149,1727792051235,-0.12768555,-0.9331665,0.31878662,-0.6875,0.140625,-0.21875
150,150,1727792051275,-0.14355469,-0.9314575,0.33343506,0.234375,0.171875,-0.34375
151,151,1727792051315,-0.14453125,-0.94732666,0.338562,2.1875,0.3125,1.03125
152,152,1727792051355,-0.13647461,-0.9402466,0.32659912,0.296875,0.515625,1.296875
153,153,1727792051395,-0.12475586,-0.92633057,0.31976318,0.5,0.390625,0.421875
154,154,1727792051435,-0.13110352,-0.9487915,0.322937,1.65625,0.875,1.09375
155,155,1727792051475,-0.12475586,-0.93829346,0.32244873,1.125,-0.015625,0.640625
156,156,1727792051515,-0.13842773,-0.9439087,0.32635498,1.375,-0.21875,0.421875
157,157,1727792051555,-0.13378906,-0.9365845,0.3241577,1.015625,0.28125,0.546875
158,158,1727792051595,-0.12988281,-0.9385376,0.324646,0.5625,0.375,0.828125
159,159,1727792051635,-0.12451172,-0.92852783,0.32537842,0.53125,-0.109375,1.0625
160,160,1727792051675,-0.12963867,-0.94000244,0.3222046,0.4375,-0.046875,0.703125
161,161,1727792051715,-0.12695312,-0.9470825,0.31829834,0.3125,0.328125,0.578125
162,162,1727792051755,-0.12670898,-0.944397,0.31829834,0.53125,0.15625,0.421875
163,163,1727792051795,-0.12109375,-0.94610596,0.32489014,0.515625,0.890625,0.5625
164,164,1727792051835,-0.12939453,-0.9402466,0.3300171,0.46875,0.125,0.890625
165,165,1727792051875,-0.123535156,-0.9507446,0.30877686,-0.265625,0.1875,0.03125
166,166,1727792051915,-0.12207031,-0.9421997,0.31585693,-1.234375,0.484375,-0.6875
167,167,1727792051955,-0.13964844,-0.9365845,0.32855225,0.09375,0.28125,0.296875
168,168,1727792051995,-0.1262207,-0.9421997,0.322937,1.359375,-0.03125,0.953125
169,169,1727792052035,-0.12524414,-0.94122314,0.30804443,-0.15625,0.328125,0.9375
170,170,1727792052075,-0.12670898,-0.9331665,0.3036499,0.296875,0.140625,0.09375
171,171,1727792052115,-0.12890625,-0.9487915,0.3209839,0.390625,0.03125,0.25
172,172,1727792052155,-0.122802734,-0.9421997,0.31781006,-0.953125,-0.359375,-0.21875
173,173,1727792052195,-0.13061523,-0.9390259,0.3151245,0.015625,0.03125,-0.890625
174,174,1727792052235,-0.13549805,-0.9380493,0.32513428,-0.21875,0.40625,-0.109375
175,175,1727792052275,-0.12768555,-0.93951416,0.3270874,-1.203125,-0.0625,-0.15625
176,176,1727792052315,-0.13134766,-0.9480591,0.31903076,-2.703125,-0.625,-1.0625
177,177,1727792052355,-0.15234375,-0.9331665,0.31976318,-1.984375,-0.0625,-2.09375
178,178,1727792052395,-0.12670898,-0.9277954,0.33392334,-0.28125,1.453125,-1.21875
179,179,1727792052435,-0.1303711,-0.94000244,0.33172607,-2.09375,0.984375,0.421875
180,180,1727792052475,-0.12475586,-0.9397583,0.32855225,-1.546875,0.71875,1.34375
181,181,1727792052515,-0.11010742,-0.92974854,0.3414917,1.421875,0.84375,0.453125
182,182,1727792052555,-0.13110352,-0.92266846,0.33709717,0.671875,-0.59375,-1.375
183,183,1727792052595,-0.14941406,-0.93951416,0.3324585,-0.65625,-0.546875,-2.484375
184,184,1727792052635,-0.1496582,-0.9209595,0.32440186,-2.1875,-1.515625,-1.75
185,185,1727792052675,-0.16137695,-0.93463135,0.35150146,-0.359375,0.109375,0.40625
186,186,1727792052715,-0.1472168,-0.9307251,0.34075928,-0.46875,0.484375,0.71875
187,187,1727792052755,-0.13842773,-0.9192505,0.34075928,-0.75,0.96875,0.734375
188,188,1727792052795,-0.1328125,-0.9194946,0.322937,0.0625,0.828125,0.09375
189,189,1727792052835,-0.140625,-0.93829346,0.34100342,0.21875,0.421875,0.25
190,190,1727792052875,-0.13623047,-0.93170166,0.34368896,0.171875,-0.3125,-0.5
191,191,1727792052915,-0.15014648,-0.93536377,0.3397827,1.3125,0.875,0.1875
192,192,1727792052955,-0.14746094,-0.93218994,0.34100342,0.765625,1.203125,1.015625
193,193,1727792052995,-0.1328125,-0.92633057,0.3361206,-0.109375,0.71875,0.671875
194,194,1727792053035,-0.12817383,-0.9390259,0.3397827,-0.1875,0.078125,0.390625
195,195,1727792053075,-0.1328125,-0.9417114,0.34320068,0.21875,0.359375,-0.15625
196,196,1727792053115,-0.14672852,-0.9365845,0.33563232,0.859375,0.484375,-0.109375
197,197,1727792053155,-0.13378906,-0.9385376,0.33538818,0.953125,0.84375,-0.109375
198,198,1727792053195,-0.14331055,-0.9229126,0.33465576,0.265625,0.671875,0.0625
199,199,1727792053235,-0.14501953,-0.93707275,0.34539795,0.375,0.3125,0.265625
200,200,1727792053275,-0.13354492,-0.9241333,0.3373413,0.359375,0.109375,-0.53125
201,201,1727792053315,-0.12817383,-0.94195557,0.34100342,-1.046875,-0.5,-0.796875
202,202,1727792053355,-0.14404297,-0.92437744,0.3300171,-3.609375,-1.640625,-1.21875
203,203,1727792053395,-0.15551758,-0.9343872,0.3493042,2.15625,0.125,0.25
204,204,1727792053435,-0.1508789,-0.9348755,0.3554077,2.046875,1.15625,0.734375
205,205,1727792053475,-0.14672852,-0.92071533,0.33538818,-1.90625,0.046875,-0.203125
206,206,1727792053515,-0.14575195,-0.9314575,0.3241577,-0.28125,1.078125,0.421875
207,207,1727792053555,-0.14208984,-0.93756104,0.33807373,0.984375,2.15625,0.890625
208,208,1727792053595,-0.13500977,-0.92852783,0.34735107,-0.3125,1.21875,-0.40625
209,209,1727792053635,-0.14941406,-0.9229126,0.3480835,0.5,0.421875,-0.390625
210,210,1727792053675,-0.15112305,-0.93707275,0.35028076,0.75,1.15625,0.609375
211,211,1727792053715,-0.13793945,-0.9234009,0.34173584,-0.75,0.765625,0.25
212,212,1727792053755,-0.13427734,-0.93292236,0.3390503,-0.328125,0.4375,-0.03125
213,213,1727792053795,-0.14477539,-0.9295044,0.34197998,-0.25,0.40625,-0.125
214,214,1727792053835,-0.14257812,-0.9265747,0.3427124,0.421875,0.078125,-0.625
215,215,1727792053875,-0.1459961,-0.9351196,0.3451538,0.828125,0.328125,-0.453125
216,216,1727792053915,-0.14331055,-0.9307251,0.33538818,0.15625,1.203125,0.015625
217,217,1727792053955,-0.14477539,-0.9241333,0.3463745,0.515625,1.1875,0.140625
218,218,1727792053995,-0.15063477,-0.9378052,0.33953857,-0.109375,0.25,-0.40625
219,219,1727792054035,-0.13989258,-0.93218994,0.3390503,-1.53125,-0.140625,-1.171875
220,220,1727792054075,-0.1459961,-0.92388916,0.3348999,-0.328125,0.125,-0.71875
221,221,1727792054115,-0.14648438,-0.9302368,0.35028076,1.03125,0.140625,0.15625
222,222,1727792054155,-0.1484375,-0.9282837,0.35369873,-1.484375,0.765625,0.4375
223,223,1727792054195,-0.1508789,-0.9351196,0.33929443,0.3125,0.859375,-0.015625
224,224,1727792054235,-0.14038086,-0.9373169,0.34490967,1.109375,0.875,0.296875
225,225,1727792054275,-0.14648438,-0.92437744,0.34979248,-0.515625,0.0625,-0.46875
226,226,1727792054315,-0.15136719,-0.92803955,0.34710693,0.90625,0.28125,-0.78125
227,227,1727792054355,-0.15576172,-0.9324341,0.3468628,0.65625,0.96875,0.453125
228,228,1727792054395,-0.14233398,-0.9302368,0.34710693,-0.46875,0.9375,0.546875
229,229,1727792054435,-0.14624023,-0.92681885,0.34344482,-0.3125,0.65625,0.328125
230,230,1727792054475,-0.14648438,-0.9224243,0.34735107,0.25,0.46875,-0.03125
231,231,1727792054515,-0.14672852,-0.9307251,0.3475952,0.546875,0.8125,-0.203125
232,232,1727792054555,-0.14916992,-0.9331665,0.34539795,0.5,0.609375,0.078125
233,233,1727792054595,-0.15332031,-0.93048096,0.34173584,0.1875,0.265625,0.390625
234,234,1727792054635,-0.15209961,-0.9302368,0.3468628,0.453125,0.25,0.328125
235,235,1727792054675,-0.140625,-0.9151001,0.35321045,0.453125,0.453125,-0.390625
236,236,1727792054715,-0.1459961,-0.94537354,0.34832764,0.296875,0.53125,-0.703125
237,237,1727792054755,-0.14990234,-0.9299927,0.33538818,-1.828125,0.09375,-1.109375
238,238,1727792054795,-0.1550293,-0.927063,0.35150146,0.328125,0.65625,-0.125
239,239,1727792054835,-0.14575195,-0.928772,0.35614014,0.578125,0.625,0.734375
240,240,1727792054875,-0.14697266,-0.92144775,0.34466553,-0.875,0.59375,-0.21875
241,241,1727792054915,-0.15185547,-0.9209595,0.34124756,0.078125,0.8125,-0.609375
242,242,1727792054955,-0.15283203,-0.93707275,0.35516357,0.6875,0.328125,0.375
243,243,1727792054995,-0.1550293,-0.91729736,0.3475952,0.015625,0.15625,-0.3125
244,244,1727792055035,-0.15673828,-0.9260864,0.3534546,0.71875,0.78125,-0.390625
245,245,1727792055075,-0.1496582,-0.9248657,0.35003662,0.53125,1.4375,0.28125
246,246,1727792055115,-0.14892578,-0.92071533,0.3480835,-0.171875,0.34375,0.28125
247,247,1727792055155,-0.15356445,-0.9246216,0.35614014,0.171875,-0.046875,0.375
248,248,1727792055195,-0.1496582,-0.9273071,0.34710693,0.453125,0.265625,0.46875
249,249,1727792055235,-0.15649414,-0.92266846,0.34222412,0.46875,0.375,0.125
250,250,1727792055275,-0.15820312,-0.92755127,0.35003662,0.3125,-0.078125,0.609375
251,251,1727792055315,-0.15917969,-0.9299927,0.3505249,0.578125,-0.359375,1.0
252,252,1727792055355,-0.15063477,-0.9209595,0.34661865,1.828125,-0.40625,1.03125
253,253,1727792055395,-0.13867188,-0.9351196,0.3414917,-1.5,0.234375,-0.875
254,254,1727792055435,-0.13891602,-0.9319458,0.34124756,-1.828125,0.234375,-1.59375
255,255,1727792055475,-0.15991211,-0.9273071,0.3456421,-0.59375,0.796875,-0.65625
256,256,1727792055515,-0.15429688,-0.9302368,0.35003662,-0.296875,0.5625,0.0
257,257,1727792055555,-0.15478516,-0.9170532,0.3493042,-0.125,-0.1875,0.09375
258,258,1727792055595,-0.16210938,-0.925354,0.33880615,0.671875,-0.1875,0.828125
259,259,1727792055635,-0.16235352,-0.9492798,0.33416748,-0.34375,0.578125,1.234375
260,260,1727792055675,-0.12548828,-0.92559814,0.34197998,-2.328125,-0.3125,-0.375
261,261,1727792055715,-0.13867188,-0.9331665,0.35687256,0.515625,0.78125,0.125
262,262,1727792055755,-0.14672852,-0.9326782,0.34881592,1.125,0.90625,-0.25
263,263,1727792055795,-0.15136719,-0.92266846,0.34466553,-0.703125,0.15625,-0.9375
264,264,1727792055835,-0.15185547,-0.9277954,0.34661865,0.1875,-0.1875,-0.09375
265,265,1727792055875,-0.15649414,-0.9512329,0.3522339,1.796875,1.0,1.359375
266,266,1727792055915,-0.15283203,-0.92681885,0.34100342,0.5625,1.265625,0.53125
267,267,1727792055955,-0.15478516,-0.9312134,0.3475952,1.640625,1.640625,1.4375
268,268,1727792055995,-0.14990234,-0.9331665,0.324646,0.28125,2.171875,0.625
269,269,1727792056035,-0.12670898,-0.92755127,0.34100342,-1.546875,1.09375,0.0
270,270,1727792056075,-0.14672852,-0.9224243,0.3529663,0.453125,0.90625,-0.25
271,271,1727792056115,-0.14648438,-0.93585205,0.3583374,2.1875,0.5625,0.34375
272,272,1727792056155,-0.14453125,-0.9380493,0.34906006,0.1875,0.828125,0.484375
273,273,1727792056195,-0.13623047,-0.91778564,0.3324585,0.453125,0.6875,0.1875
274,274,1727792056235,-0.14746094,-0.9338989,0.33319092,0.9375,0.96875,0.390625
275,275,1727792056275,-0.14013672,-0.9348755,0.3463745,-0.5,0.53125,0.28125
276,276,1727792056315,-0.14624023,-0.93170166,0.3427124,0.484375,-0.15625,0.046875
277,277,1727792056355,-0.15356445,-0.9290161,0.3397827,1.0,1.125,0.171875
278,278,1727792056395,-0.13964844,-0.9221802,0.34320068,0.171875,0.953125,0.078125
279,279,1727792056435,-0.13964844,-0.92803955,0.34002686,0.359375,0.28125,0.125
280,280,1727792056475,-0.14331055,-0.93414307,0.33465576,0.359375,0.359375,0.1875
281,281,1727792056515,-0.14428711,-0.93634033,0.34173584,0.3125,1.25,0.0
282,282,1727792056555,-0.14648438,-0.928772,0.33953857,0.390625,0.703125,0.03125
283,283,1727792056595,-0.1430664,-0.9187622,0.34417725,1.078125,0.171875,0.4375
284,284,1727792056635,-0.14550781,-0.9380493,0.3373413,0.265625,0.625,0.25
285,285,1727792056675,-0.14086914,-0.9365845,0.3307495,-1.578125,-0.421875,-0.890625
286,286,1727792056715,-0.15112305,-0.92755127,0.33587646,0.3125,0.515625,-0.59375
287,287,1727792056755,-0.14990234,-0.92974854,0.3517456,1.15625,0.78125,0.421875
288,288,1727792056795,-0.14404297,-0.9290161,0.34710693,-1.484375,0.765625,0.015625
289,289,1727792056835,-0.15698242,-0.9204712,0.33343506,-0.390625,0.828125,-0.078125
290,290,1727792056875,-0.15136719,-0.94537354,0.33807373,1.484375,1.5,0.84375
291,291,1727792056915,-0.13232422,-0.92974854,0.33465576,-1.625,0.65625,0.6875
292,292,1727792056955,-0.1418457,-0.93170166,0.3427124,0.9375,0.8125,-0.140625
293,293,1727792056995,-0.15161133,-0.9402466,0.34295654,1.8125,1.40625,-0.125
294,294,1727792057035,-0.14941406,-0.92266846,0.34100342,-0.46875,0.046875,0.03125
295,295,1727792057075,-0.14648438,-0.91900635,0.34173584,-0.9375,-0.328125,0.046875
296,296,1727792057115,-0.14282227,-0.93292236,0.3463745,-0.4375,0.515625,0.21875
297,297,1727792057155,-0.14526367,-0.93170166,0.34051514,-0.25,0.875,0.015625
298,298,1727792057195,-0.14550781,-0.92681885,0.34466553,-0.578125,0.375,-0.578125
299,299,1727792057235,-0.1459961,-0.92633057,0.35028076,-0.15625,0.5625,0.078125
300,300,1727792057275,-0.14428711,-0.9307251,0.355896,1.078125,0.28125,0.578125
301,301,1727792057315,-0.14526367,-0.9265747,0.33294678,-0.1875,0.53125,-0.09375
302,302,1727792057355,-0.1394043,-0.9368286,0.33807373,-1.40625,-0.078125,-0.703125
303,303,1727792057395,-0.14794922,-0.9216919,0.3480835,-1.28125,-0.25,-0.34375
304,304,1727792057435,-0.15185547,-0.9338989,0.36517334,0.828125,0.796875,0.484375
305,305,1727792057475,-0.15551758,-0.9241333,0.35272217,0.578125,1.078125,0.359375
306,306,1727792057515,-0.14916992,-0.9209595,0.33929443,-0.078125,0.296875,-0.171875
307,307,1727792057555,-0.1538086,-0.9365845,0.338562,1.40625,0.84375,0.484375
308,308,1727792057595,-0.1459961,-0.93536377,0.34320068,0.609375,0.453125,0.421875
309,309,1727792057635,-0.15014648,-0.9290161,0.35272217,1.421875,0.796875,0.484375
310,310,1727792057675,-0.14990234,-0.93341064,0.34490967,2.109375,0.9375,1.0625
311,311,1727792057715,-0.14624023,-0.9260864,0.34710693,0.8125,0.953125,1.4375
312,312,1727792057755,-0.1496582,-0.9319458,0.34124756,-0.03125,0.671875,1.6875
313,313,1727792057795,-0.13598633,-0.9365845,0.340271,1.609375,1.484375,1.765625
314,314,1727792057835,-0.14331055,-0.9338989,0.32928467,2.5625,1.53125,0.953125
315,315,1727792057875,-0.1430664,-0.93463135,0.33636475,0.875,0.640625,0.765625
316,316,1727792057915,-0.13891602,-0.9295044,0.3336792,1.265625,0.71875,0.984375
317,317,1727792057955,-0.13256836,-0.93829346,0.3336792,1.640625,1.171875,1.125
318,318,1727792057995,-0.1237793,-0.9338989,0.33221436,0.84375,0.6875,0.890625
319,319,1727792058035,-0.12426758,-0.9365845,0.3348999,1.453125,1.078125,0.796875
320,320,1727792058075,-0.11645508,-0.92559814,0.33465576,2.15625,0.6875,1.03125
321,321,1727792058115,-0.12817383,-0.9451294,0.3258667,1.0625,0.296875,0.296875
322,322,1727792058155,-0.1340332,-0.9331665,0.3270874,-0.828125,0.375,-0.34375
323,323,1727792058195,-0.14355469,-0.94415283,0.3361206,2.421875,0.59375,0.796875
324,324,1727792058235,-0.13623047,-0.9470825,0.32659912,2.140625,0.609375,1.125
325,325,1727792058275,-0.12573242,-0.9273071,0.31707764,-0.5625,0.671875,0.484375
326,326,1727792058315,-0.12597656,-0.93218994,0.3139038,1.046875,0.34375,0.203125
327,327,1727792058355,-0.12426758,-0.9512329,0.33465576,2.1875,0.953125,1.15625
328,328,1727792058395,-0.11987305,-0.93951416,0.32513428,0.15625,0.171875,0.09375
329,329,1727792058435,-0.13574219,-0.9421997,0.32733154,0.90625,0.203125,0.328125
330,330,1727792058475,-0.13183594,-0.9390259,0.3234253,0.96875,0.546875,0.515625
331,331,1727792058515,-0.13427734,-0.9356079,0.31536865,0.1875,-0.15625,0.765625
332,332,1727792058555,-0.1184082,-0.93634033,0.31878662,0.328125,-0.1875,0.75
333,333,1727792058595,-0.125,-0.94488525,0.31976318,0.0,0.28125,0.296875
334,334,1727792058635,-0.12475586,-0.9324341,0.31707764,-0.359375,0.140625,0.140625
335,335,1727792058675,-0.12084961,-0.9373169,0.32025146,-0.3125,0.1875,-0.171875
336,336,1727792058715,-0.123291016,-0.93927,0.31903076,-1.34375,0.046875,-0.5625
337,337,1727792058755,-0.12597656,-0.94122314,0.32562256,-1.234375,-0.359375,-0.5625
338,338,1727792058795,-0.13452148,-0.9429321,0.3307495,-0.3125,0.453125,-0.59375
339,339,1727792058835,-0.12939453,-0.92633057,0.32366943,-0.453125,0.203125,-0.734375
340,340,1727792058875,-0.12719727,-0.940979,0.32733154,-1.078125,-0.796875,-1.046875
341,341,1727792058915,-0.13891602,-0.9216919,0.3192749,-1.34375,-0.828125,-1.328125
342,342,1727792058955,-0.15136719,-0.9397583,0.3451538,1.40625,-1.140625,-0.609375
343,343,1727792058995,-0.1430664,-0.9429321,0.32659912,-0.078125,0.265625,-0.328125
344,344,1727792059035,-0.12597656,-0.93463135,0.32489014,-2.0625,0.359375,-0.078125
345,345,1727792059075,-0.12695312,-0.92681885,0.324646,0.078125,0.8125,-0.125
346,346,1727792059115,-0.14355469,-0.9380493,0.3300171,0.390625,0.828125,0.015625
347,347,1727792059155,-0.14355469,-0.93585205,0.3319702,-0.96875,-0.390625,-0.859375
348,348,1727792059195,-0.15576172,-0.9326782,0.33538818,-0.125,0.265625,-0.109375
349,349,1727792059235,-0.14111328,-0.9421997,0.34075928,0.046875,0.53125,0.40625
350,350,1727792059275,-0.13916016,-0.93414307,0.33099365,-0.703125,0.15625,-0.1875
351,351,1727792059315,-0.1430664,-0.9378052,0.3366089,-0.328125,0.65625,-0.359375
352,352,1727792059355,-0.14550781,-0.93463135,0.33563232,-0.234375,1.0625,0.125
353,353,1727792059395,-0.14331055,-0.9348755,0.33831787,-0.109375,0.484375,0.28125
354,354,1727792059435,-0.13696289,-0.9326782,0.33294678,0.203125,0.515625,0.078125
355,355,1727792059475,-0.13208008,-0.92803955,0.34075928,-0.375,0.625,0.0625
356,356,1727792059515,-0.1394043,-0.9331665,0.34222412,-0.15625,0.703125,-0.09375
357,357,1727792059555,-0.14672852,-0.94122314,0.3373413,-0.1875,0.46875,-0.234375
358,358,1727792059595,-0.14624023,-0.93292236,0.33294678,-0.171875,0.40625,-0.03125
359,359,1727792059635,-0.1472168,-0.9312134,0.34857178,0.546875,0.796875,0.5
360,360,1727792059675,-0.140625,-0.9302368,0.32635498,-0.0625,0.578125,0.28125
361,361,1727792059715,-0.13574219,-0.9378052,0.3312378,-1.46875,0.546875,-0.890625
362,362,1727792059755,-0.13989258,-0.928772,0.33221436,-2.296875,-0.171875,-0.75
363,363,1727792059795,-0.15014648,-0.9307251,0.35662842,0.46875,-0.078125,0.1875
364,364,1727792059835,-0.1538086,-0.9336548,0.34881592,0.390625,0.65625,0.375
365,365,1727792059875,-0.14038086,-0.91534424,0.34124756,-0.71875,-0.046875,-0.65625
366,366,1727792059915,-0.14819336,-0.92266846,0.33172607,1.171875,0.359375,-0.21875
367,367,1727792059955,-0.1586914,-0.93927,0.34857178,0.578125,0.625,0.6875
368,368,1727792059995,-0.15307617,-0.93341064,0.34320068,-0.625,-0.09375,-0.296875
369,369,1727792060035,-0.14575195,-0.91900635,0.34075928,0.625,0.578125,0.21875
370,370,1727792060075,-0.14282227,-0.9307251,0.3427124,1.28125,0.796875,0.703125
371,371,1727792060115,-0.13989258,-0.9273071,0.33831787,-0.203125,0.140625,-0.171875
372,372,1727792060155,-0.1430664,-0.9356079,0.3427124,-0.15625,0.5,-0.359375
373,373,1727792060195,-0.1472168,-0.93707275,0.3439331,0.5625,0.71875,-0.484375
374,374,1727792060235,-0.14257812,-0.9326782,0.3414917,0.265625,0.453125,-0.5
375,375,1727792060275,-0.15625,-0.9273071,0.35028076,0.046875,0.296875,-0.25
376,376,1727792060315,-0.14868164,-0.9221802,0.34075928,0.0,0.359375,0.359375
377,377,1727792060355,-0.14282227,-0.9326782,0.3439331,-0.296875,0.515625,0.234375
378,378,1727792060395,-0.15039062,-0.92681885,0.34588623,0.09375,0.75,0.1875
379,379,1727792060435,-0.15283203,-0.9299927,0.3517456,0.765625,0.734375,0.109375
380,380,1727792060475,-0.14648438,-0.9209595,0.33880615,0.359375,0.15625,0.125
381,381,1727792060515,-0.14282227,-0.9380493,0.3463745,0.34375,0.28125,-0.109375
382,382,1727792060555,-0.14941406,-0.92559814,0.33563232,-1.59375,0.171875,-0.703125
383,383,1727792060595,-0.15698242,-0.92974854,0.35150146,0.609375,0.734375,0.375
384,384,1727792060635,-0.14648438,-0.92803955,0.35638428,1.140625,0.671875,0.515625
385,385,1727792060675,-0.15234375,-0.9338989,0.3439331,-0.640625,0.296875,-0.203125
386,386,1727792060715,-0.14746094,-0.9246216,0.32904053,1.0,0.890625,0.203125
387,387,1727792060755,-0.15527344,-0.93585205,0.3529663,1.375,1.46875,0.796875
388,388,1727792060795,-0.13989258,-0.92510986,0.34368896,0.421875,0.1875,-0.0625
389,389,1727792060835,-0.15283203,-0.9314575,0.34735107,1.671875,1.125,0.390625
390,390,1727792060875,-0.15136719,-0.9319458,0.33758545,2.015625,1.59375,1.140625
391,391,1727792060915,-0.14428711,-0.9277954,0.33538818,1.15625,0.8125,0.859375
392,392,1727792060955,-0.13891602,-0.93951416,0.3390503,1.53125,0.734375,0.953125
393,393,1727792060995,-0.14819336,-0.94000244,0.33221436,1.8125,1.0625,0.6875
394,394,1727792061035,-0.14086914,-0.93756104,0.32781982,1.203125,0.875,0.734375
395,395,1727792061075,-0.14868164,-0.9380493,0.32928467,1.6875,0.5625,0.625
396,396,1727792061115,-0.13745117,-0.92559814,0.3348999,1.671875,0.625,0.953125
397,397,1727792061155,-0.13916016,-0.9470825,0.322937,1.828125,0.859375,1.046875
398,398,1727792061195,-0.13574219,-0.9429321,0.3270874,1.125,0.765625,0.34375
399,399,1727792061235,-0.13842773,-0.9468384,0.32513428,1.015625,0.640625,0.765625
400,400,1727792061275,-0.13134766,-0.9348755,0.32684326,2.1875,1.0,0.96875
401,401,1727792061315,-0.14233398,-0.9343872,0.31195068,0.453125,0.5,0.546875
402,402,1727792061355,-0.13500977,-0.9522095,0.32806396,-1.1875,0.28125,-0.046875
403,403,1727792061395,-0.13793945,-0.94073486,0.32659912,0.578125,0.921875,0.578125
404,404,1727792061435,-0.1352539,-0.9487915,0.33343506,2.90625,1.734375,1.078125
405,405,1727792061475,-0.13061523,-0.9373169,0.3126831,0.234375,0.984375,1.125
406,406,1727792061515,-0.12475586,-0.9314575,0.309021,-0.59375,0.15625,0.671875
407,407,1727792061555,-0.13476562,-0.9338989,0.30584717,2.1875,0.71875,1.078125
408,408,1727792061595,-0.12915039,-0.9536743,0.32391357,1.984375,0.625,1.015625
409,409,1727792061635,-0.1274414,-0.9336548,0.31658936,0.375,0.328125,0.140625
410,410,1727792061675,-0.13476562,-0.93951416,0.3180542,0.96875,0.90625,0.734375
411,411,1727792061715,-0.13354492,-0.9475708,0.31463623,1.03125,0.828125,1.1875
412,412,1727792061755,-0.123291016,-0.93829346,0.31658936,0.78125,0.609375,1.015625
413,413,1727792061795,-0.1171875,-0.9446411,0.31585693,0.015625,1.015625,0.75
414,414,1727792061835,-0.12207031,-0.94781494,0.31463623,-0.46875,0.625,0.53125
415,415,1727792061875,-0.13061523,-0.9495239,0.30877686,0.453125,0.328125,0.484375
416,416,1727792061915,-0.13012695,-0.93951416,0.3139038,0.40625,0.265625,0.578125
417,417,1727792061955,-0.12524414,-0.94244385,0.30877686,-0.53125,0.171875,-0.09375
418,418,1727792061995,-0.12451172,-0.94317627,0.30950928,-0.71875,0.03125,-0.46875
419,419,1727792062035,-0.123535156,-0.94415283,0.31781006,-0.921875,-0.03125,-0.8125
420,420,1727792062075,-0.11987305,-0.94195557,0.3241577,0.1875,0.265625,-0.171875
421,421,1727792062115,-0.1262207,-0.94659424,0.3060913,-0.65625,0.25,0.171875
422,422,1727792062155,-0.11987305,-0.93756104,0.31488037,-2.234375,-0.25,-0.75
423,423,1727792062195,-0.13916016,-0.9429321,0.32928467,-0.546875,0.09375,0.015625
424,424,1727792062235,-0.13061523,-0.93927,0.3204956,0.15625,-0.34375,-0.0625
425,425,1727792062275,-0.1328125,-0.9356079,0.31292725,-1.46875,-0.421875,-0.453125
426,426,1727792062315,-0.12719727,-0.9351196,0.3222046,-1.28125,0.203125,-0.796875
427,427,1727792062355,-0.1328125,-0.9468384,0.3156128,-0.25,0.53125,-0.015625
428,428,1727792062395,-0.12426758,-0.9390259,0.32635498,-1.203125,0.5,0.296875
429,429,1727792062435,-0.12939453,-0.9356079,0.32855225,-0.859375,0.5625,-0.703125
430,430,1727792062475,-0.14111328,-0.93634033,0.32977295,0.78125,1.328125,-0.34375
431,431,1727792062515,-0.13891602,-0.93634033,0.33294678,-0.265625,0.3125,-0.234375
432,432,1727792062555,-0.13427734,-0.93536377,0.3258667,-2.03125,-0.234375,-0.28125
433,433,1727792062595,-0.13891602,-0.9475708,0.3361206,-0.9375,0.3125,-0.078125
434,434,1727792062635,-0.1340332,-0.93756104,0.32855225,-0.1875,0.640625,-0.4375
435,435,1727792062675,-0.13549805,-0.9299927,0.3300171,-0.53125,0.515625,-0.609375
436,436,1727792062715,-0.13378906,-0.9331665,0.33538818,-0.484375,0.625,-0.265625
437,437,1727792062755,-0.13720703,-0.9368286,0.33636475,-0.578125,0.390625,-0.125
438,438,1727792062795,-0.13647461,-0.9282837,0.3373413,-0.40625,-0.234375,-0.53125
439,439,1727792062835,-0.14428711,-0.93218994,0.340271,-0.109375,-0.015625,-0.609375
440,440,1727792062875,-0.14282227,-0.9324341,0.3390503,-0.328125,0.421875,-0.71875
441,441,1727792062915,-0.14355469,-0.93218994,0.34075928,-0.21875,0.1875,-0.03125
442,442,1727792062955,-0.15258789,-0.93707275,0.34222412,0.390625,0.296875,0.71875
443,443,1727792062995,-0.14770508,-0.93829346,0.33050537,-0.015625,0.546875,0.765625
444,444,1727792063035,-0.12817383,-0.94000244,0.34124756,-0.984375,0.625,-0.125
445,445,1727792063075,-0.1394043,-0.927063,0.32684326,-1.09375,0.6875,-0.53125
446,446,1727792063115,-0.1459961,-0.93341064,0.34906006,0.203125,0.46875,0.25
447,447,1727792063155,-0.14135742,-0.9324341,0.34539795,-0.296875,0.53125,0.25
448,448,1727792063195,-0.13256836,-0.93218994,0.3366089,-0.75,0.125,-0.46875
449,449,1727792063235,-0.13867188,-0.92803955,0.33514404,0.375,0.6875,-0.015625
450,450,1727792063275,-0.1418457,-0.9356079,0.3439331,-0.734375,0.03125,0.25
451,451,1727792063315,-0.14086914,-0.92633057,0.34197998,-1.78125,-0.953125,-0.53125
452,452,1727792063355,-0.15600586,-0.93170166,0.35858154,0.328125,0.484375,-0.1875
453,453,1727792063395,-0.14331055,-0.9299927,0.35101318,0.953125,0.375,0.5
454,454,1727792063435,-0.14111328,-0.9265747,0.340271,0.046875,-0.328125,0.125
455,455,1727792063475,-0.14086914,-0.9314575,0.34173584,-0.375,0.34375,-0.0625
456,456,1727792063515,-0.13916016,-0.9351196,0.34100342,-0.03125,0.65625,-0.28125
457,457,1727792063555,-0.14916992,-0.9299927,0.33758545,0.046875,0.15625,-0.25
458,458,1727792063595,-0.15014648,-0.9338989,0.34613037,-0.296875,0.4375,-0.265625
459,459,1727792063635,-0.15429688,-0.925354,0.3475952,-0.59375,0.21875,-0.25
460,460,1727792063675,-0.15112305,-0.927063,0.3517456,0.21875,0.265625,-0.046875
461,461,1727792063715,-0.15234375,-0.9360962,0.34832764,0.21875,0.421875,0.140625
462,462,1727792063755,-0.14477539,-0.93096924,0.35125732,0.03125,0.421875,0.234375
463,463,1727792063795,-0.14672852,-0.9248657,0.3480835,0.6875,0.78125,0.015625
464,464,1727792063835,-0.14794922,-0.9224243,0.3493042,0.234375,0.53125,0.0625
465,465,1727792063875,-0.13769531,-0.925354,0.34710693,0.078125,-0.25,0.296875
466,466,1727792063915,-0.14746094,-0.9402466,0.34735107,0.390625,0.453125,0.09375
467,467,1727792063955,-0.1496582,-0.9307251,0.34002686,-1.984375,0.234375,-1.328125
468,468,1727792063995,-0.16308594,-0.923645,0.35101318,0.390625,0.4375,-0.59375
469,469,1727792064035,-0.15478516,-0.9378052,0.35760498,1.46875,0.828125,0.578125
470,470,1727792064075,-0.15014648,-0.92974854,0.34783936,-0.25,0.3125,0.390625
471,471,1727792064115,-0.14453125,-0.91973877,0.34173584,0.28125,0.453125,0.109375
472,472,1727792064155,-0.14941406,-0.92633057,0.34735107,1.53125,0.859375,0.65625
473,473,1727792064195,-0.14208984,-0.9336548,0.3583374,1.125,0.328125,0.296875
474,474,1727792064235,-0.15405273,-0.93048096,0.33807373,0.109375,0.3125,-0.484375
475,475,1727792064275,-0.15917969,-0.92681885,0.33953857,0.5,0.828125,0.171875
476,476,1727792064315,-0.1496582,-0.92974854,0.34490967,-0.171875,0.21875,0.390625
477,477,1727792064355,-0.15209961,-0.9331665,0.3439331,-1.015625,-0.015625,0.125
478,478,1727792064395,-0.1550293,-0.9290161,0.34954834,0.078125,0.875,-0.046875
479,479,1727792064435,-0.15991211,-0.92559814,0.34661865,0.53125,1.15625,0.03125
480,480,1727792064475,-0.14624023,-0.9282837,0.34222412,0.125,0.5625,0.078125
481,481,1727792064515,-0.15405273,-0.92388916,0.3529663,0.265625,0.171875,0.8125
482,482,1727792064555,-0.13256836,-0.9314575,0.34466553,0.828125,0.234375,-0.296875
483,483,1727792064595,-0.13696289,-0.9378052,0.3348999,-0.796875,0.015625,-0.65625
484,484,1727792064635,-0.12939453,-0.9295044,0.33587646,-3.046875,0.09375,-1.328125
485,485,1727792064675,-0.14257812,-0.92633057,0.34075928,-0.90625,0.421875,-1.140625
486,486,1727792064715,-0.14892578,-0.94195557,0.3456421,0.421875,0.484375,-0.421875
487,487,1727792064755,-0.14013672,-0.93292236,0.34124756,-1.59375,-0.109375,-1.203125
488,488,1727792064795,-0.14941406,-0.91729736,0.35321045,-1.296875,0.40625,-1.203125
489,489,1727792064835,-0.15112305,-0.92974854,0.3493042,0.515625,0.8125,-0.21875
490,490,1727792064875,-0.15039062,-0.93170166,0.34906006,-0.828125,0.203125,0.09375
491,491,1727792064915,-0.13964844,-0.9265747,0.3546753,-1.625,0.15625,-0.453125
492,492,1727792064955,-0.14648438,-0.9246216,0.35028076,0.390625,0.78125,-0.09375
493,493,1727792064995,-0.14550781,-0.93292236,0.35003662,0.03125,0.765625,-0.328125
494,494,1727792065035,-0.14697266,-0.92681885,0.35321045,-1.0,-0.03125,-0.421875
495,495,1727792065075,-0.15576172,-0.9241333,0.35247803,0.109375,0.328125,0.234375
496,496,1727792065115,-0.14990234,-0.9373169,0.34417725,0.640625,0.4375,0.28125
497,497,1727792065155,-0.14770508,-0.9314575,0.34857178,-0.53125,0.234375,-0.015625
498,498,1727792065195,-0.1418457,-0.9299927,0.3583374,0.359375,1.46875,0.546875
499,499,1727792065235,-0.14672852,-0.9163208,0.35321045,1.359375,0.71875,0.546875
500,500,1727792065275,-0.1484375,-0.9258423,0.3480835,-1.3125,0.03125,-0.140625
501,501,1727792065315,-0.14160156,-0.9314575,0.3534546,-2.484375,-0.09375,-1.265625
502,502,1727792065355,-0.15551758,-0.92193604,0.3534546,-0.21875,0.375,-0.4375
503,503,1727792065395,-0.15991211,-0.9324341,0.36639404,0.921875,1.0,0.203125
504,504,1727792065435,-0.15478516,-0.9180298,0.36102295,-0.203125,0.375,-0.28125
505,505,1727792065475,-0.14672852,-0.92022705,0.3554077,-0.625,0.0,-0.0625
506,506,1727792065515,-0.14331055,-0.91778564,0.35125732,0.8125,0.640625,0.59375
507,507,1727792065555,-0.14355469,-0.9314575,0.3632202,0.640625,0.703125,0.171875
508,508,1727792065595,-0.14770508,-0.92193604,0.3571167,-0.375,0.546875,-0.765625
509,509,1727792065635,-0.15405273,-0.9273071,0.36346436,1.171875,0.921875,0.234375
510,510,1727792065675,-0.15209961,-0.92633057,0.35565186,1.234375,0.1875,0.609375
511,511,1727792065715,-0.15112305,-0.9209595,0.35516357,0.0,0.328125,-0.015625
512,512,1727792065755,-0.15234375,-0.92388916,0.3517456,-0.40625,0.375,-0.03125
513,513,1727792065795,-0.15161133,-0.92022705,0.35491943,-0.140625,0.28125,-0.28125
514,514,1727792065835,-0.15161133,-0.92852783,0.35760498,1.359375,0.09375,-0.1875
515,515,1727792065875,-0.14819336,-0.9246216,0.3534546,1.015625,0.84375,0.015625
516,516,1727792065915,-0.1484375,-0.93292236,0.36053467,0.0625,1.078125,0.0
517,517,1727792065955,-0.15112305,-0.92193604,0.34954834,0.875,0.453125,0.203125
518,518,1727792065995,-0.15478516,-0.9338989,0.355896,0.578125,0.3125,0.265625
519,519,1727792066035,-0.1496582,-0.9170532,0.35247803,0.3125,0.109375,-0.28125
520,520,1727792066075,-0.15527344,-0.9397583,0.3522339,0.375,0.390625,-0.296875
521,521,1727792066115,-0.15063477,-0.9290161,0.34661865,-1.28125,0.0,-0.6875
522,522,1727792066155,-0.15820312,-0.923645,0.35028076,-0.578125,0.3125,-0.609375
523,523,1727792066195,-0.15722656,-0.9248657,0.35906982,1.125,0.53125,0.171875
524,524,1727792066235,-0.15600586,-0.92755127,0.3583374,-0.0625,0.796875,-0.140625
525,525,1727792066275,-0.15625,-0.91656494,0.35076904,-0.109375,0.375,-0.265625
526,526,1727792066315,-0.1574707,-0.92755127,0.35321045,0.9375,0.96875,0.28125
527,527,1727792066355,-0.14941406,-0.923645,0.35760498,-0.1875,0.34375,-0.078125
528,528,1727792066395,-0.16235352,-0.9212036,0.35516357,-0.640625,0.078125,-0.296875
529,529,1727792066435,-0.16137695,-0.92510986,0.35394287,1.859375,0.71875,0.359375
530,530,1727792066475,-0.15527344,-0.9312134,0.35272217,3.09375,1.46875,0.234375
531,531,1727792066515,-0.15356445,-0.92315674,0.34881592,0.625,0.703125,-0.46875
532,532,1727792066555,-0.15698242,-0.9258423,0.35125732,0.015625,0.734375,0.203125
533,533,1727792066595,-0.15722656,-0.9302368,0.34979248,0.34375,0.96875,0.625
534,534,1727792066635,-0.15478516,-0.9290161,0.36053467,-0.828125,0.25,0.265625
535,535,1727792066675,-0.16040039,-0.9302368,0.34857178,-0.5,0.296875,-0.046875
536,536,1727792066715,-0.15649414,-0.9260864,0.3517456,-0.203125,0.359375,-0.078125
537,537,1727792066755,-0.16137695,-0.927063,0.35076904,0.046875,0.546875,0.078125
538,538,1727792066795,-0.15649414,-0.92559814,0.36053467,1.0625,0.15625,0.34375
539,539,1727792066835,-0.16577148,-0.9212036,0.3439331,1.21875,0.390625,0.625
540,540,1727792066875,-0.1550293,-0.93218994,0.35028076,0.3125,0.765625,-0.109375
541,541,1727792066915,-0.16015625,-0.92071533,0.34906006,-0.6875,0.3125,-0.0625
542,542,1727792066955,-0.15698242,-0.9295044,0.3583374,1.546875,0.5625,0.734375
543,543,1727792066995,-0.16040039,-0.93170166,0.35247803,1.171875,0.78125,0.921875
544,544,1727792067035,-0.15136719,-0.9192505,0.34490967,-0.5625,0.15625,0.0
545,545,1727792067075,-0.16064453,-0.9199829,0.3390503,-0.28125,0.59375,0.90625
546,546,1727792067115,-0.15991211,-0.9446411,0.35931396,1.578125,1.359375,1.46875
547,547,1727792067155,-0.1430664,-0.928772,0.3439331,1.125,1.359375,0.453125
548,548,1727792067195,-0.1459961,-0.92193604,0.35125732,1.328125,0.921875,0.6875
549,549,1727792067235,-0.15600586,-0.92681885,0.35028076,1.90625,0.609375,0.71875
550,550,1727792067275,-0.15722656,-0.9331665,0.3427124,0.703125,0.046875,0.40625
551,551,1727792067315,-0.14575195,-0.9258423,0.34368896,0.84375,0.234375,0.453125
552,552,1727792067355,-0.14770508,-0.92852783,0.33953857,1.296875,0.65625,0.734375
553,553,1727792067395,-0.1459961,-0.9221802,0.34002686,1.21875,0.078125,0.8125
554,554,1727792067435,-0.1459961,-0.93048096,0.34588623,1.671875,0.328125,0.765625
555,555,1727792067475,-0.15014648,-0.9336548,0.34173584,0.828125,0.484375,0.78125
556,556,1727792067515,-0.14453125,-0.93536377,0.33441162,0.984375,0.234375,0.765625
557,557,1727792067555,-0.14331055,-0.93463135,0.33685303,0.8125,0.234375,0.515625
558,558,1727792067595,-0.14331055,-0.9282837,0.34051514,1.328125,0.25,0.40625
559,559,1727792067635,-0.14916992,-0.9331665,0.3204956,0.53125,0.140625,0.625
560,560,1727792067675,-0.13989258,-0.9351196,0.33636475,-0.78125,0.1875,-0.34375
561,561,1727792067715,-0.14819336,-0.93341064,0.34222412,0.25,0.390625,0.234375
562,562,1727792067755,-0.14575195,-0.9402466,0.33514404,2.21875,0.6875,1.015625
563,563,1727792067795,-0.14624023,-0.9338989,0.33050537,0.46875,0.484375,0.671875
564,564,1727792067835,-0.13916016,-0.92681885,0.32928467,-0.046875,0.265625,0.21875
565,565,1727792067875,-0.14428711,-0.9417114,0.3295288,1.125,0.1875,0.546875
566,566,1727792067915,-0.14233398,-0.93585205,0.32977295,0.546875,0.015625,0.75
567,567,1727792067955,-0.13671875,-0.9343872,0.33172607,0.0625,0.015625,0.078125
568,568,1727792067995,-0.14526367,-0.93585205,0.33026123,0.453125,0.5625,0.171875
569,569,1727792068035,-0.1472168,-0.9373169,0.3287964,0.65625,0.421875,0.5625
570,570,1727792068075,-0.14160156,-0.9373169,0.32855225,0.28125,0.296875,0.3125
571,571,1727792068115,-0.1418457,-0.9373169,0.32196045,-0.390625,0.328125,0.15625
572,572,1727792068155,-0.13720703,-0.9348755,0.32537842,-0.546875,0.296875,0.078125
573,573,1727792068195,-0.1381836,-0.9343872,0.33294678,-0.125,0.453125,-0.1875
574,574,1727792068235,-0.1418457,-0.9302368,0.33319092,-0.53125,0.640625,-0.625
575,575,1727792068275,-0.14819336,-0.9360962,0.3270874,-1.203125,0.265625,-0.71875
576,576,1727792068315,-0.14013672,-0.9338989,0.32781982,-1.46875,0.125,-0.671875
577,577,1727792068355,-0.15063477,-0.93292236,0.34320068,-0.578125,0.8125,-0.328125
578,578,1727792068395,-0.14355469,-0.9368286,0.33758545,-0.5,0.6875,-0.734375
579,579,1727792068435,-0.14746094,-0.9351196,0.3336792,-1.5,0.265625,-1.40625
580,580,1727792068475,-0.15454102,-0.92437744,0.32904053,-2.171875,0.171875,-1.09375
581,581,1727792068515,-0.15600586,-0.93218994,0.34881592,-1.09375,0.15625,-0.03125
582,582,1727792068555,-0.14672852,-0.9299927,0.3505249,-0.84375,0.78125,-0.234375
583,583,1727792068595,-0.15429688,-0.9343872,0.3456421,-0.1875,0.625,-0.96875
584,584,1727792068635,-0.1508789,-0.9282837,0.34002686,0.015625,0.21875,-0.578125
585,585,1727792068675,-0.15600586,-0.93096924,0.35003662,0.0,0.609375,0.25
586,586,1727792068715,-0.14550781,-0.9314575,0.3444214,-0.984375,0.140625,-0.359375
587,587,1727792068755,-0.15795898,-0.9273071,0.34906006,-0.265625,0.609375,-0.53125
588,588,1727792068795,-0.1616211,-0.9265747,0.35321045,0.859375,1.0625,0.125
589,589,1727792068835,-0.15551758,-0.9241333,0.34832764,-0.34375,0.109375,-0.125
590,590,1727792068875,-0.15673828,-0.9229126,0.3451538,-0.6875,0.15625,0.25
591,591,1727792068915,-0.15600586,-0.93170166,0.34906006,-0.0625,0.890625,0.1875
592,592,1727792068955,-0.14892578,-0.923645,0.3451538,0.140625,0.625,-0.015625
593,593,1727792068995,-0.15942383,-0.9260864,0.35516357,0.296875,0.6875,0.015625
594,594,1727792069035,-0.15991211,-0.9260864,0.34735107,-0.046875,0.578125,0.15625
595,595,1727792069075,-0.15673828,-0.9234009,0.35076904,0.09375,0.6875,-0.0625
596,596,1727792069115,-0.15673828,-0.92559814,0.34857178,0.078125,0.125,-0.28125
597,597,1727792069155,-0.1586914,-0.9277954,0.3595581,0.046875,0.796875,-0.03125
598,598,1727792069195,-0.15820312,-0.92144775,0.3529663,0.328125,0.203125,0.21875
599,599,1727792069235,-0.15795898,-0.93536377,0.35003662,0.4375,0.484375,-0.0625
600,600,1727792069275,-0.15454102,-0.92633057,0.34246826,-1.5,0.140625,-0.96875
601,601,1727792069315,-0.16577148,-0.923645,0.3546753,-0.734375,0.515625,-0.25
602,602,1727792069355,-0.16186523,-0.93341064,0.35784912,0.8125,0.4375,0.421875
603,603,1727792069395,-0.15722656,-0.9260864,0.3600464,-0.125,0.359375,-0.015625
604,604,1727792069435,-0.15454102,-0.9199829,0.35491943,-0.015625,0.296875,-0.34375
605,605,1727792069475,-0.16088867,-0.92559814,0.3463745,0.984375,0.65625,0.140625
606,606,1727792069515,-0.16186523,-0.9204712,0.35565186,-0.421875,0.390625,-0.109375
607,607,1727792069555,-0.16503906,-0.9194946,0.35150146,-0.84375,0.1875,-0.359375
608,608,1727792069595,-0.16333008,-0.9216919,0.35931396,0.796875,0.953125,0.0625
609,609,1727792069635,-0.15917969,-0.9221802,0.34979248,0.265625,0.578125,0.140625
610,610,1727792069675,-0.15820312,-0.9182739,0.35125732,-0.84375,0.59375,0.125
611,611,1727792069715,-0.16723633,-0.92437744,0.35980225,0.078125,0.5625,0.296875
612,612,1727792069755,-0.15771484,-0.9199829,0.35760498,0.3125,0.453125,0.203125
613,613,1727792069795,-0.15942383,-0.9234009,0.35076904,-0.046875,0.40625,0.15625
614,614,1727792069835,-0.16235352,-0.9273071,0.354187,-0.875,0.828125,0.15625
615,615,1727792069875,-0.16381836,-0.9194946,0.35980225,0.703125,1.21875,0.421875
616,616,1727792069915,-0.16430664,-0.92803955,0.35687256,0.421875,0.703125,0.296875
617,617,1727792069955,-0.15942383,-0.923645,0.36688232,0.328125,0.484375,0.375
618,618,1727792069995,-0.16210938,-0.9175415,0.35321045,0.5625,0.46875,0.390625
619,619,1727792070035,-0.15600586,-0.9248657,0.35736084,0.34375,0.671875,-0.09375
620,620,1727792070075,-0.16088867,-0.9199829,0.3463745,-1.0625,0.4375,-0.34375
621,621,1727792070115,-0.16772461,-0.9180298,0.3612671,0.359375,0.5,0.5
622,622,1727792070155,-0.16503906,-0.9199829,0.3624878,1.4375,0.546875,0.625
623,623,1727792070195,-0.1616211,-0.9234009,0.34979248,-0.078125,0.296875,0.03125
624,624,1727792070235,-0.15625,-0.91363525,0.34613037,1.0625,0.53125,0.515625
625,625,1727792070275,-0.1616211,-0.9319458,0.3595581,1.671875,0.625,0.828125
626,626,1727792070315,-0.15454102,-0.9216919,0.35076904,0.484375,0.046875,-0.046875
627,627,1727792070355,-0.16186523,-0.92803955,0.3529663,1.171875,0.46875,0.453125
628,628,1727792070395,-0.1640625,-0.92388916,0.35565186,1.90625,0.625,0.875
629,629,1727792070435,-0.15625,-0.9248657,0.3444214,0.4375,0.1875,0.65625
630,630,1727792070475,-0.15429688,-0.9290161,0.34490967,0.09375,0.140625,0.796875
631,631,1727792070515,-0.15258789,-0.92633057,0.3546753,0.90625,0.203125,0.6875
632,632,1727792070555,-0.15234375,-0.925354,0.34661865,1.375,0.21875,-0.03125
633,633,1727792070595,-0.1538086,-0.91973877,0.34490967,0.8125,0.234375,0.21875
634,634,1727792070635,-0.15795898,-0.9277954,0.3480835,1.03125,0.59375,0.71875
635,635,1727792070675,-0.15527344,-0.9319458,0.34661865,1.625,0.21875,0.609375
636,636,1727792070715,-0.15258789,-0.9343872,0.33953857,0.8125,0.125,0.25
637,637,1727792070755,-0.1508789,-0.92022705,0.34906006,1.421875,0.609375,0.578125
638,638,1727792070795,-0.15844727,-0.93829346,0.32635498,1.125,1.09375,0.8125
639,639,1727792070835,-0.15454102,-0.93341064,0.3378296,-0.703125,0.09375,-0.40625
640,640,1727792070875,-0.15893555,-0.92974854,0.3378296,-0.296875,0.203125,0.203125
641,641,1727792070915,-0.15844727,-0.92974854,0.3468628,1.84375,1.0,0.796875
642,642,1727792070955,-0.15405273,-0.9356079,0.34344482,0.875,0.609375,0.796875
643,643,1727792070995,-0.14477539,-0.9199829,0.33587646,-0.15625,0.109375,0.109375
644,644,1727792071035,-0.14941406,-0.9312134,0.33831787,0.96875,0.359375,0.640625
645,645,1727792071075,-0.15600586,-0.93927,0.34295654,1.421875,0.796875,0.96875
646,646,1727792071115,-0.15234375,-0.9302368,0.33758545,1.21875,0.390625,0.265625
647,647,1727792071155,-0.15014648,-0.93096924,0.33294678,1.03125,1.0,0.640625
648,648,1727792071195,-0.15112305,-0.9312134,0.3336792,0.75,0.9375,0.859375
649,649,1727792071235,-0.14916992,-0.93536377,0.3300171,0.40625,0.203125,0.484375
650,650,1727792071275,-0.15136719,-0.93536377,0.33441162,0.625,0.359375,0.28125
651,651,1727792071315,-0.14282227,-0.93170166,0.33416748,0.5625,0.375,0.46875
652,652,1727792071355,-0.14257812,-0.9319458,0.3270874,0.921875,0.390625,0.3125
653,653,1727792071395,-0.14868164,-0.93414307,0.33026123,0.171875,0.28125,0.140625
654,654,1727792071435,-0.14746094,-0.9351196,0.32659912,0.125,0.171875,0.21875
655,655,1727792071475,-0.14648438,-0.9351196,0.32733154,-0.1875,0.734375,-0.09375
656,656,1727792071515,-0.14477539,-0.925354,0.33441162,-0.25,0.234375,-0.34375
657,657,1727792071555,-0.14941406,-0.93292236,0.33148193,-0.0625,0.609375,-0.3125
658,658,1727792071595,-0.14111328,-0.93096924,0.338562,-1.734375,0.21875,-0.828125
659,659,1727792071635,-0.16333008,-0.9348755,0.3336792,-2.5,0.203125,-0.921875
660,660,1727792071675,-0.14941406,-0.9343872,0.34124756,-0.4375,0.578125,-0.515625
661,661,1727792071715,-0.1574707,-0.92926025,0.34222412,0.84375,1.5625,-0.03125
662,662,1727792071755,-0.1484375,-0.93218994,0.3414917,1.546875,2.796875,-0.390625
663,663,1727792071795,-0.1538086,-0.93170166,0.32440186,0.671875,1.796875,-0.53125
664,664,1727792071835,-0.16235352,-0.9307251,0.34466553,0.046875,0.640625,0.1875
665,665,1727792071875,-0.1496582,-0.9356079,0.340271,-0.734375,0.640625,-0.28125
666,666,1727792071915,-0.15649414,-0.92926025,0.33807373,-0.390625,1.109375,-0.109375
667,667,1727792071955,-0.15795898,-0.93096924,0.33587646,0.171875,0.859375,-0.140625
668,668,1727792071995,-0.15478516,-0.9187622,0.34490967,-0.875,0.28125,-0.484375
669,669,1727792072035,-0.1538086,-0.93341064,0.34320068,-0.484375,0.609375,0.0
670,670,1727792072075,-0.15307617,-0.92437744,0.3468628,-0.3125,0.8125,-0.09375
671,671,1727792072115,-0.15942383,-0.9314575,0.34295654,-0.265625,0.609375,-0.125
672,672,1727792072155,-0.15478516,-0.92388916,0.34783936,-0.03125,0.515625,-0.078125
673,673,1727792072195,-0.15014648,-0.9338989,0.34710693,0.21875,0.796875,0.1875
674,674,1727792072235,-0.15258789,-0.9351196,0.34173584,-0.015625,0.65625,-0.125
675,675,1727792072275,-0.15014648,-0.92974854,0.34783936,-0.375,0.4375,-0.09375
676,676,1727792072315,-0.15722656,-0.9265747,0.34588623,0.703125,0.484375,0.1875
677,677,1727792072355,-0.15307617,-0.9246216,0.33563232,0.28125,1.0625,0.0625
678,678,1727792072395,-0.15283203,-0.9319458,0.34954834,-1.265625,0.296875,-0.546875
679,679,1727792072435,-0.16015625,-0.92193604,0.3390503,-1.625,-0.28125,-0.953125
680,680,1727792072475,-0.16577148,-0.92852783,0.35638428,0.96875,0.34375,0.03125
681,681,1727792072515,-0.16796875,-0.92437744,0.35614014,0.578125,0.953125,0.09375
682,682,1727792072555,-0.15551758,-0.92633057,0.34417725,-0.84375,0.234375,-0.484375
683,683,1727792072595,-0.15917969,-0.9351196,0.33758545,0.5,0.65625,0.015625
684,684,1727792072635,-0.15112305,-0.9378052,0.3529663,0.703125,1.03125,0.375
685,685,1727792072675,-0.15258789,-0.9282837,0.33807373,-0.234375,0.5625,-0.40625
686,686,1727792072715,-0.1574707,-0.92071533,0.35272217,0.828125,1.078125,-0.125
687,687,1727792072755,-0.1628418,-0.923645,0.35272217,1.0,0.921875,0.328125
688,688,1727792072795,-0.1574707,-0.92755127,0.34735107,-0.515625,-0.21875,-0.125
689,689,1727792072835,-0.16357422,-0.93096924,0.34710693,-0.796875,0.25,-0.265625
690,690,1727792072875,-0.15527344,-0.93292236,0.34881592,0.21875,0.875,-0.203125
691,691,1727792072915,-0.16113281,-0.92852783,0.34979248,-0.109375,0.390625,-0.015625
692,692,1727792072955,-0.16186523,-0.92437744,0.35125732,-0.078125,0.609375,0.171875
693,693,1727792072995,-0.15234375,-0.92926025,0.34783936,0.0,0.625,-0.234375
694,694,1727792073035,-0.15356445,-0.9373169,0.34222412,-0.75,0.3125,-0.53125
695,695,1727792073075,-0.16381836,-0.9168091,0.34979248,0.3125,0.234375,-0.1875
696,696,1727792073115,-0.16357422,-0.92071533,0.3505249,1.0,0.546875,-0.265625
697,697,1727792073155,-0.17358398,-0.9429321,0.34954834,-0.625,0.203125,-0.484375
698,698,1727792073195,-0.15820312,-0.9170532,0.3439331,-2.078125,-0.171875,-0.953125
699,699,1727792073235,-0.16748047,-0.92144775,0.36029053,0.015625,0.21875,-0.125
700,700,1727792073275,-0.16699219,-0.92559814,0.3595581,0.8125,0.796875,0.328125
701,701,1727792073315,-0.16357422,-0.9209595,0.35198975,-0.6875,0.140625,0.078125
702,702,1727792073355,-0.16210938,-0.9163208,0.34368896,0.5625,0.234375,0.203125
703,703,1727792073395,-0.16210938,-0.93096924,0.35247803,0.890625,0.78125,0.421875
704,704,1727792073435,-0.16479492,-0.92144775,0.3554077,-0.28125,0.578125,-0.25
705,705,1727792073475,-0.1694336,-0.92559814,0.3583374,0.46875,0.171875,0.125
706,706,1727792073515,-0.17138672,-0.93048096,0.35906982,1.296875,0.734375,0.578125
707,707,1727792073555,-0.16723633,-0.9221802,0.3468628,0.25,0.15625,0.296875
708,708,1727792073595,-0.16113281,-0.92388916,0.35150146,-0.234375,0.1875,0.328125
709,709,1727792073635,-0.15942383,-0.92633057,0.3554077,0.265625,0.546875,0.296875
710,710,1727792073675,-0.16503906,-0.9194946,0.3480835,0.390625,0.328125,0.34375
711,711,1727792073715,-0.16259766,-0.92437744,0.35638428,0.28125,0.359375,0.421875
712,712,1727792073755,-0.16748047,-0.9234009,0.35198975,0.484375,0.453125,0.390625
713,713,1727792073795,-0.16625977,-0.9170532,0.34783936,0.703125,0.421875,0.421875
714,714,1727792073835,-0.16381836,-0.9241333,0.3534546,1.015625,0.59375,0.421875
715,715,1727792073875,-0.16577148,-0.9319458,0.3624878,0.578125,1.171875,0.515625
716,716,1727792073915,-0.16699219,-0.93414307,0.34100342,1.734375,1.5625,-0.3125
717,717,1727792073955,-0.15820312,-0.91192627,0.34173584,1.484375,1.296875,-0.1875
718,718,1727792073995,-0.1586914,-0.92803955,0.3468628,0.53125,0.375,-0.015625
719,719,1727792074035,-0.15649414,-0.93170166,0.36273193,-0.171875,0.078125,0.765625
720,720,1727792074075,-0.15185547,-0.9356079,0.35125732,-0.34375,1.0625,1.28125
721,721,1727792074115,-0.14990234,-0.92388916,0.33221436,0.40625,0.953125,1.640625
722,722,1727792074155,-0.14208984,-0.92559814,0.33294678,1.234375,0.0,1.296875
723,723,1727792074195,-0.16552734,-0.9258423,0.34539795,2.171875,-0.328125,0.5625
724,724,1727792074235,-0.17504883,-0.9295044,0.33416748,1.34375,-0.453125,-0.015625
725,725,1727792074275,-0.16455078,-0.923645,0.32977295,0.875,-0.3125,0.734375
726,726,1727792074315,-0.16845703,-0.92388916,0.34295654,0.921875,0.625,0.90625
727,727,1727792074355,-0.15820312,-0.92193604,0.34368896,0.578125,0.53125,0.78125
728,728,1727792074395,-0.15258789,-0.9290161,0.3366089,0.375,0.453125,0.765625
729,729,1727792074435,-0.14916992,-0.93292236,0.33465576,1.046875,0.671875,1.015625
730,730,1727792074475,-0.15405273,-0.93707275,0.33514404,1.328125,0.859375,0.953125
731,731,1727792074515,-0.14672852,-0.92755127,0.33343506,0.6875,0.359375,0.703125
732,732,1727792074555,-0.14941406,-0.92681885,0.32977295,0.765625,-0.078125,1.09375
733,733,1727792074595,-0.15576172,-0.9434204,0.34002686,0.578125,0.078125,0.75
734,734,1727792074635,-0.14697266,-0.9302368,0.3287964,1.015625,-0.296875,0.3125
735,735,1727792074675,-0.14794922,-0.942688,0.33221436,1.125,0.296875,0.140625
736,736,1727792074715,-0.14672852,-0.9282837,0.32733154,-0.375,0.21875,-0.078125
737,737,1727792074755,-0.15771484,-0.93536377,0.34100342,0.546875,0.25,0.8125
738,738,1727792074795,-0.15161133,-0.9319458,0.3307495,1.53125,0.40625,0.796875
739,739,1727792074835,-0.13793945,-0.9336548,0.3295288,0.046875,0.375,0.734375
740,740,1727792074875,-0.140625,-0.9273071,0.324646,0.796875,0.140625,0.453125
741,741,1727792074915,-0.15063477,-0.94488525,0.32733154,1.34375,0.53125,0.59375
742,742,1727792074955,-0.14550781,-0.9365845,0.32757568,0.625,-0.171875,0.359375
743,743,1727792074995,-0.14453125,-0.9348755,0.32366943,1.296875,0.21875,0.375
744,744,1727792075035,-0.15039062,-0.93927,0.3234253,0.90625,0.46875,0.71875
745,745,1727792075075,-0.14379883,-0.94000244,0.32318115,0.0625,0.203125,0.59375
746,746,1727792075115,-0.1508789,-0.94488525,0.31854248,0.359375,0.125,0.484375
747,747,1727792075155,-0.14160156,-0.9331665,0.32513428,0.34375,0.421875,0.515625
748,748,1727792075195,-0.13623047,-0.9404907,0.3168335,0.0,0.34375,0.203125
749,749,1727792075235,-0.14428711,-0.9290161,0.32757568,-0.078125,0.46875,0.203125
750,750,1727792075275,-0.14501953,-0.9365845,0.32635498,0.03125,0.546875,0.359375
751,751,1727792075315,-0.15039062,-0.9360962,0.31903076,-0.21875,0.65625,0.015625
752,752,1727792075355,-0.13989258,-0.925354,0.33099365,-1.078125,0.265625,-0.390625
753,753,1727792075395,-0.14233398,-0.94122314,0.3222046,-1.59375,0.671875,-1.078125
754,754,1727792075435,-0.14331055,-0.9356079,0.32733154,-2.515625,1.0,-1.734375
755,755,1727792075475,-0.15283203,-0.9356079,0.33831787,-2.140625,0.984375,-0.890625
756,756,1727792075515,-0.1508789,-0.9360962,0.34320068,0.21875,1.34375,-0.59375
757,757,1727792075555,-0.14990234,-0.92437744,0.33953857,-0.21875,0.6875,-0.71875
758,758,1727792075595,-0.1538086,-0.92974854,0.33587646,-0.234375,0.453125,-0.890625
759,759,1727792075635,-0.16015625,-0.9307251,0.3180542,-0.875,0.09375,-0.53125
