,Unnamed: 0,timestamp,accel_x,accel_y,accel_z,gyro_x,gyro_y,gyro_z
0,0,1727276981173,-0.48828125,-0.6890259,0.5529175,2.9375,1.34375,0.703125
1,1,1727276981213,-0.48657227,-0.68585205,0.5512085,2.109375,1.03125,-0.015625
2,2,1727276981253,-0.50024414,-0.69366455,0.5392456,2.859375,0.90625,0.203125
3,3,1727276981293,-0.49243164,-0.70196533,0.5372925,2.046875,-0.078125,0.328125
4,4,1727276981333,-0.48242188,-0.69854736,0.5465698,1.5625,0.25,-0.5625
5,5,1727276981373,-0.50146484,-0.70880127,0.5314331,1.703125,0.8125,-0.125
6,6,1727276981413,-0.49365234,-0.7190552,0.52923584,1.5625,0.203125,0.28125
7,7,1727276981453,-0.47998047,-0.7061157,0.5326538,0.859375,0.296875,-1.359375
8,8,1727276981493,-0.49316406,-0.7036743,0.5355835,0.859375,-0.171875,-1.140625
9,9,1727276981533,-0.48901367,-0.7070923,0.5219116,-0.984375,0.46875,-1.8125
10,10,1727276981573,-0.49145508,-0.7007446,0.51312256,0.421875,0.734375,-1.90625
11,11,1727276981613,-0.5036621,-0.71832275,0.5387573,2.234375,-0.71875,-0.5625
12,12,1727276981653,-0.49121094,-0.70098877,0.51971436,0.375,0.46875,-1.640625
13,13,1727276981693,-0.501709,-0.6995239,0.51556396,0.609375,0.59375,-1.40625
14,14,1727276981733,-0.5029297,-0.710022,0.5241089,0.3125,0.609375,-1.0
15,15,1727276981773,-0.4909668,-0.70635986,0.5180054,0.65625,-0.109375,-0.640625
16,16,1727276981813,-0.501709,-0.7085571,0.5126343,0.46875,-0.1875,-0.34375
17,17,1727276981853,-0.50024414,-0.71173096,0.51239014,-0.0625,-0.765625,-0.40625
18,18,1727276981893,-0.49194336,-0.7112427,0.513855,-0.28125,-0.203125,-0.75
19,19,1727276981933,-0.4946289,-0.708313,0.50457764,-0.75,0.15625,-1.03125
20,20,1727276981973,-0.51000977,-0.723938,0.5165405,-1.328125,0.03125,-0.828125
21,21,1727276982013,-0.49536133,-0.7041626,0.5031128,-1.796875,0.828125,-1.125
22,22,1727276982053,-0.5031738,-0.7046509,0.5194702,-2.21875,0.96875,-1.453125
23,23,1727276982093,-0.51293945,-0.71588135,0.52923584,0.4375,-0.765625,-0.234375
24,24,1727276982133,-0.49658203,-0.69073486,0.49627686,-1.4375,0.125,-0.921875
25,25,1727276982173,-0.49951172,-0.69610596,0.508728,-2.109375,0.21875,-1.296875
26,26,1727276982213,-0.5126953,-0.70098877,0.5265503,-2.234375,0.59375,-1.40625
27,27,1727276982253,-0.50341797,-0.6980591,0.5211792,-1.890625,-0.0625,-0.828125
28,28,1727276982293,-0.5053711,-0.70147705,0.5170288,-2.875,0.171875,-0.84375
29,29,1727276982333,-0.5131836,-0.70562744,0.5326538,-2.59375,0.203125,-0.734375
30,30,1727276982373,-0.5065918,-0.7012329,0.526062,-3.296875,0.46875,-0.71875
31,31,1727276982413,-0.49975586,-0.6851196,0.5302124,-2.65625,0.46875,-1.046875
32,32,1727276982453,-0.5144043,-0.70098877,0.53411865,-2.78125,0.625,-1.109375
33,33,1727276982493,-0.5114746,-0.694397,0.52386475,-3.65625,0.296875,-1.046875
34,34,1727276982533,-0.5070801,-0.68096924,0.5487671,-1.625,0.203125,-1.234375
35,35,1727276982573,-0.51000977,-0.68341064,0.54486084,-4.078125,0.78125,-0.984375
36,36,1727276982613,-0.5085449,-0.69073486,0.5258179,-4.765625,0.953125,-1.546875
37,37,1727276982653,-0.51660156,-0.6865845,0.555603,-1.40625,-0.625,-0.296875
38,38,1727276982693,-0.5107422,-0.6831665,0.5499878,-2.8125,0.734375,-0.875
39,39,1727276982733,-0.51416016,-0.6680298,0.5482788,-3.53125,0.421875,-1.34375
40,40,1727276982773,-0.51416016,-0.675354,0.5565796,-2.78125,0.40625,-1.28125
41,41,1727276982813,-0.51342773,-0.6709595,0.5578003,-1.34375,0.359375,-0.78125
42,42,1727276982853,-0.51782227,-0.67755127,0.55804443,-2.0,0.328125,-0.90625
43,43,1727276982893,-0.5151367,-0.6760864,0.5614624,-2.0625,0.484375,-0.75
44,44,1727276982933,-0.51660156,-0.6621704,0.5643921,-2.3125,0.546875,-0.9375
45,45,1727276982973,-0.52001953,-0.67022705,0.56170654,-2.28125,0.671875,-1.046875
46,46,1727276983013,-0.5163574,-0.66656494,0.5565796,-2.40625,0.96875,-1.296875
47,47,1727276983053,-0.51953125,-0.6704712,0.5621948,-1.984375,1.203125,-1.109375
48,48,1727276983093,-0.5136719,-0.6638794,0.56121826,-2.4375,0.953125,-1.203125
49,49,1727276983133,-0.51220703,-0.6675415,0.57318115,-2.640625,0.3125,-1.015625
50,50,1727276983173,-0.5114746,-0.6604614,0.5700073,-1.90625,0.15625,-0.8125
51,51,1727276983213,-0.51660156,-0.65704346,0.5700073,-1.96875,0.40625,-0.953125
52,52,1727276983253,-0.52319336,-0.6616821,0.5661011,-1.890625,0.65625,-0.859375
53,53,1727276983293,-0.517334,-0.6548462,0.57562256,-1.875,0.421875,-0.9375
54,54,1727276983333,-0.51782227,-0.65289307,0.574646,-1.5625,0.65625,-1.0
55,55,1727276983373,-0.52441406,-0.65875244,0.57562256,-1.0,0.21875,-0.46875
56,56,1727276983413,-0.5131836,-0.64923096,0.5751343,-3.328125,1.5625,-1.609375
57,57,1727276983453,-0.52563477,-0.6436157,0.5741577,-1.609375,0.8125,-1.140625
58,58,1727276983493,-0.52783203,-0.65948486,0.5946655,-0.078125,1.171875,-0.296875
59,59,1727276983533,-0.5161133,-0.66290283,0.57244873,-2.921875,0.09375,-1.625
60,60,1727276983573,-0.5083008,-0.645813,0.5656128,-3.21875,-0.34375,-2.109375
61,61,1727276983613,-0.51538086,-0.6358032,0.59051514,-1.078125,0.625,-1.84375
62,62,1727276983653,-0.52319336,-0.6304321,0.5997925,0.265625,0.296875,-0.953125
63,63,1727276983693,-0.5317383,-0.6499634,0.58465576,0.03125,-0.265625,-0.3125
64,64,1727276983733,-0.51782227,-0.6531372,0.57928467,-0.1875,0.03125,-0.421875
65,65,1727276983773,-0.5168457,-0.65411377,0.5824585,-0.796875,0.625,-0.90625
66,66,1727276983813,-0.5258789,-0.6511841,0.5758667,-0.734375,0.5625,-1.015625
67,67,1727276983853,-0.52197266,-0.6436157,0.5739136,-1.0,0.34375,-0.828125
68,68,1727276983893,-0.5222168,-0.64849854,0.57489014,-1.296875,0.421875,-0.90625
69,69,1727276983933,-0.5324707,-0.65093994,0.5739136,-1.140625,0.34375,-1.078125
70,70,1727276983973,-0.52734375,-0.6470337,0.5824585,-1.78125,0.671875,-1.078125
71,71,1727276984013,-0.52441406,-0.6409302,0.5824585,-2.640625,0.65625,-1.421875
72,72,1727276984053,-0.5332031,-0.6358032,0.58465576,-2.34375,1.015625,-1.265625
73,73,1727276984093,-0.51904297,-0.6362915,0.5861206,-3.421875,0.890625,-0.921875
74,74,1727276984133,-0.51708984,-0.62579346,0.58270264,-4.015625,1.359375,-1.78125
75,75,1727276984173,-0.5305176,-0.62701416,0.59954834,-2.53125,0.875,-0.921875
76,76,1727276984213,-0.5266113,-0.6375122,0.5997925,-1.765625,0.671875,-0.71875
77,77,1727276984253,-0.51782227,-0.62945557,0.6017456,-1.984375,0.734375,-1.078125
78,78,1727276984293,-0.5280762,-0.6392212,0.59832764,-1.953125,0.4375,-1.0625
79,79,1727276984333,-0.52075195,-0.6223755,0.6010132,-1.234375,0.296875,-0.546875
80,80,1727276984373,-0.52197266,-0.6231079,0.5993042,-0.8125,0.625,-0.53125
81,81,1727276984413,-0.5300293,-0.62335205,0.6000366,-1.203125,0.359375,-0.734375
82,82,1727276984453,-0.52685547,-0.6248169,0.60614014,-0.796875,0.453125,-0.578125
83,83,1727276984493,-0.5280762,-0.6240845,0.5980835,-1.28125,0.40625,-0.625
84,84,1727276984533,-0.52563477,-0.62335205,0.5951538,-1.25,0.21875,-0.703125
85,85,1727276984573,-0.5270996,-0.62945557,0.6022339,-1.296875,0.46875,-0.71875
86,86,1727276984613,-0.52856445,-0.6206665,0.6000366,-1.640625,0.578125,-0.78125
87,87,1727276984653,-0.52978516,-0.62579346,0.60150146,0.125,0.078125,-0.546875
88,88,1727276984693,-0.5246582,-0.62750244,0.5975952,-2.125,0.6875,-0.65625
89,89,1727276984733,-0.5229492,-0.616272,0.5946655,-2.28125,0.875,-1.453125
90,90,1727276984773,-0.52685547,-0.6170044,0.61151123,-0.96875,0.734375,-0.640625
91,91,1727276984813,-0.5263672,-0.62164307,0.6083374,-1.25,0.453125,-0.625
92,92,1727276984853,-0.5241699,-0.6189575,0.61053467,-1.03125,0.046875,-0.609375
93,93,1727276984893,-0.5241699,-0.6123657,0.60565186,-0.734375,0.09375,-0.359375
94,94,1727276984933,-0.53515625,-0.6062622,0.6132202,-0.53125,0.4375,-0.34375
95,95,1727276984973,-0.52856445,-0.61724854,0.607605,-0.796875,0.8125,-0.640625
96,96,1727276985013,-0.5317383,-0.61968994,0.60687256,-0.859375,0.109375,-0.4375
97,97,1727276985053,-0.52734375,-0.62164307,0.60687256,-0.890625,0.078125,-0.265625
98,98,1727276985093,-0.5280762,-0.61724854,0.6029663,-1.34375,0.15625,-0.65625
99,99,1727276985133,-0.52612305,-0.61920166,0.61517334,-1.046875,0.5625,-0.703125
100,100,1727276985173,-0.5270996,-0.61920166,0.61053467,-0.890625,0.578125,-0.59375
101,101,1727276985213,-0.5324707,-0.6223755,0.6054077,-0.109375,0.046875,-0.34375
102,102,1727276985253,-0.5253906,-0.6187134,0.6034546,-1.59375,0.5625,-0.78125
103,103,1727276985293,-0.52563477,-0.6084595,0.5997925,-1.984375,0.65625,-1.15625
104,104,1727276985333,-0.53344727,-0.6201782,0.62054443,-1.109375,0.421875,-0.453125
105,105,1727276985373,-0.5419922,-0.62384033,0.6173706,0.15625,0.484375,-0.21875
106,106,1727276985413,-0.5332031,-0.61846924,0.6137085,0.390625,0.125,-0.03125
107,107,1727276985453,-0.53344727,-0.60601807,0.6112671,1.359375,-0.25,0.125
108,108,1727276985493,-0.53100586,-0.61016846,0.6100464,1.75,0.359375,0.140625
109,109,1727276985533,-0.5307617,-0.6223755,0.60443115,1.78125,-0.0625,0.484375
110,110,1727276985573,-0.52685547,-0.630188,0.60198975,1.25,0.296875,0.890625
111,111,1727276985613,-0.52368164,-0.6231079,0.5985718,2.4375,-0.234375,0.71875
112,112,1727276985653,-0.5239258,-0.6338501,0.59124756,1.671875,0.125,0.5625
113,113,1727276985693,-0.5205078,-0.63653564,0.5961304,1.609375,0.359375,0.390625
114,114,1727276985733,-0.5241699,-0.6375122,0.59173584,3.265625,-0.46875,0.609375
115,115,1727276985773,-0.5258789,-0.64141846,0.58343506,0.796875,0.328125,0.375
116,116,1727276985813,-0.5258789,-0.6326294,0.57733154,0.9375,0.484375,-0.078125
117,117,1727276985853,-0.529541,-0.647522,0.586853,2.0,-0.421875,0.828125
118,118,1727276985893,-0.515625,-0.6448364,0.58758545,1.0,0.15625,0.390625
119,119,1727276985933,-0.5202637,-0.6411743,0.58636475,0.65625,0.484375,-0.0625
120,120,1727276985973,-0.52441406,-0.6460571,0.58392334,1.40625,-0.328125,0.453125
121,121,1727276986013,-0.5227051,-0.6511841,0.58343506,2.15625,-0.328125,0.828125
122,122,1727276986053,-0.5175781,-0.64849854,0.5726929,1.40625,0.203125,0.484375
123,123,1727276986093,-0.5209961,-0.6543579,0.5783081,1.1875,-0.140625,0.546875
124,124,1727276986133,-0.5185547,-0.6560669,0.56951904,1.25,-0.28125,0.5625
125,125,1727276986173,-0.51464844,-0.66290283,0.5704956,1.140625,-0.1875,0.46875
126,126,1727276986213,-0.51416016,-0.66241455,0.5697632,0.890625,0.375,0.140625
127,127,1727276986253,-0.5109863,-0.6668091,0.5675659,2.453125,-0.234375,0.46875
128,128,1727276986293,-0.51464844,-0.6663208,0.555603,-0.34375,0.515625,0.125
129,129,1727276986333,-0.5175781,-0.67022705,0.5634155,0.328125,0.515625,-0.4375
130,130,1727276986373,-0.51831055,-0.67144775,0.5673218,1.59375,-0.421875,0.546875
131,131,1727276986413,-0.51171875,-0.66656494,0.5548706,0.4375,0.375,0.109375
132,132,1727276986453,-0.5192871,-0.66485596,0.555603,0.359375,0.40625,-0.25
133,133,1727276986493,-0.51416016,-0.66607666,0.55584717,1.140625,-0.234375,0.234375
134,134,1727276986533,-0.5109863,-0.675354,0.56292725,1.40625,-0.296875,0.359375
135,135,1727276986573,-0.5144043,-0.6716919,0.55145264,0.984375,0.15625,0.1875
136,136,1727276986613,-0.5102539,-0.6795044,0.55389404,0.84375,-0.046875,0.34375
137,137,1727276986653,-0.5163574,-0.67510986,0.54974365,0.859375,-0.09375,0.296875
138,138,1727276986693,-0.5124512,-0.6765747,0.54608154,0.53125,0.140625,0.0625
139,139,1727276986733,-0.515625,-0.6819458,0.54437256,0.46875,0.265625,-0.125
140,140,1727276986773,-0.5090332,-0.6838989,0.555603,1.609375,-0.140625,0.0625
141,141,1727276986813,-0.51220703,-0.6860962,0.5321655,-0.5,0.25,-0.078125
142,142,1727276986853,-0.51123047,-0.6868286,0.5336304,0.03125,0.390625,-0.671875
143,143,1727276986893,-0.5144043,-0.69000244,0.541687,0.78125,-0.375,0.109375
144,144,1727276986933,-0.5090332,-0.6746216,0.5409546,0.203125,0.453125,-0.296875
145,145,1727276986973,-0.5119629,-0.68536377,0.5363159,-0.515625,0.0625,-0.5
146,146,1727276987013,-0.51220703,-0.6902466,0.5319214,0.265625,-0.1875,-0.078125
147,147,1727276987053,-0.5041504,-0.68292236,0.5446167,-0.296875,0.484375,-0.359375
148,148,1727276987093,-0.51708984,-0.68218994,0.53582764,-0.140625,0.15625,-0.25
149,149,1727276987133,-0.515625,-0.6868286,0.5492554,-0.484375,0.015625,-0.140625
150,150,1727276987173,-0.5107422,-0.6873169,0.5385132,-0.21875,0.359375,-0.296875
151,151,1727276987213,-0.51171875,-0.69122314,0.5355835,-0.53125,-0.125,-0.4375
152,152,1727276987253,-0.5053711,-0.6848755,0.53411865,-0.703125,-0.0625,-0.75
153,153,1727276987293,-0.5163574,-0.69073486,0.5465698,-0.140625,-0.0625,-0.84375
154,154,1727276987333,-0.5187988,-0.68218994,0.5319214,-0.28125,0.359375,-0.171875
155,155,1727276987373,-0.52124023,-0.69415283,0.53460693,-0.71875,1.3125,-0.203125
156,156,1727276987413,-0.51123047,-0.7005005,0.53411865,0.015625,-0.109375,0.203125
157,157,1727276987453,-0.51123047,-0.68536377,0.52459717,-0.671875,0.9375,-0.59375
158,158,1727276987493,-0.50756836,-0.678772,0.52630615,-1.3125,0.28125,-0.484375
159,159,1727276987533,-0.5187988,-0.6921997,0.53240967,-1.1875,0.109375,-0.140625
160,160,1727276987573,-0.5061035,-0.694397,0.545105,-1.015625,0.28125,-0.3125
161,161,1727276987613,-0.5114746,-0.68927,0.54119873,-0.890625,0.28125,-0.390625
162,162,1727276987653,-0.5114746,-0.6826782,0.54486084,-1.171875,0.234375,-0.140625
163,163,1727276987693,-0.50927734,-0.68756104,0.5385132,-1.140625,0.359375,-0.21875
164,164,1727276987733,-0.50561523,-0.67926025,0.53460693,-1.625,0.28125,-0.484375
165,165,1727276987773,-0.5097656,-0.68927,0.5421753,-1.234375,0.203125,-0.25
166,166,1727276987813,-0.51123047,-0.68829346,0.5331421,-1.078125,0.1875,-0.21875
167,167,1727276987853,-0.5102539,-0.68536377,0.53289795,-1.890625,0.1875,-0.859375
168,168,1727276987893,-0.5168457,-0.69244385,0.545105,-0.546875,0.234375,-0.78125
169,169,1727276987933,-0.51416016,-0.68096924,0.54315186,-2.3125,0.15625,-0.8125
170,170,1727276987973,-0.52368164,-0.68170166,0.5368042,-2.640625,0.15625,-1.203125
171,171,1727276988013,-0.5185547,-0.68829346,0.54486084,-1.078125,-0.46875,-0.359375
172,172,1727276988053,-0.5126953,-0.6721802,0.5458374,-2.421875,0.578125,-1.015625
173,173,1727276988093,-0.5180664,-0.68048096,0.55023193,-2.046875,0.296875,-1.265625
174,174,1727276988133,-0.5168457,-0.6843872,0.54681396,-1.0,0.03125,-0.46875
175,175,1727276988173,-0.5085449,-0.67437744,0.54608154,-1.53125,0.4375,-0.734375
176,176,1727276988213,-0.515625,-0.67388916,0.54730225,-1.515625,0.109375,-0.578125
177,177,1727276988253,-0.5119629,-0.6782837,0.54974365,-1.9375,0.421875,-0.625
178,178,1727276988293,-0.51293945,-0.6790161,0.54974365,-1.625,0.40625,-0.75
179,179,1727276988333,-0.52075195,-0.6746216,0.5565796,-1.71875,0.46875,-1.09375
180,180,1727276988373,-0.52001953,-0.6777954,0.557312,-1.546875,0.46875,-0.8125
181,181,1727276988413,-0.51538086,-0.6716919,0.5504761,-1.703125,0.46875,-0.890625
182,182,1727276988453,-0.5151367,-0.6712036,0.55389404,-2.046875,0.140625,-0.953125
183,183,1727276988493,-0.51953125,-0.66900635,0.55804443,-2.0,0.484375,-1.09375
184,184,1727276988533,-0.5175781,-0.6687622,0.56073,-2.046875,0.640625,-1.125
185,185,1727276988573,-0.51660156,-0.66973877,0.56292725,-2.078125,0.578125,-0.84375
186,186,1727276988613,-0.51831055,-0.6626587,0.5619507,-2.109375,0.390625,-0.953125
187,187,1727276988653,-0.5168457,-0.6572876,0.5621948,-2.359375,0.5,-0.953125
188,188,1727276988693,-0.52001953,-0.6572876,0.56658936,-1.90625,0.71875,-1.03125
189,189,1727276988733,-0.5229492,-0.6675415,0.5536499,-1.953125,0.03125,-0.578125
190,190,1727276988773,-0.517334,-0.6567993,0.56121826,-3.75,1.265625,-1.59375
191,191,1727276988813,-0.52978516,-0.65216064,0.56585693,-2.921875,0.78125,-0.796875
192,192,1727276988853,-0.52368164,-0.6704712,0.5812378,-1.25,-0.125,-0.171875
193,193,1727276988893,-0.5214844,-0.65582275,0.57196045,-2.6875,1.0625,-1.171875
194,194,1727276988933,-0.52685547,-0.6470337,0.5753784,-2.140625,1.140625,-1.234375
195,195,1727276988973,-0.5263672,-0.6453247,0.572937,-1.4375,0.34375,-0.515625
196,196,1727276989013,-0.5239258,-0.644104,0.58148193,-1.421875,0.4375,-0.40625
197,197,1727276989053,-0.5209961,-0.6531372,0.5770874,-1.875,0.828125,-0.453125
198,198,1727276989093,-0.51904297,-0.64849854,0.5775757,-1.671875,0.765625,-0.5
199,199,1727276989133,-0.51660156,-0.6453247,0.5775757,-2.03125,0.5,-0.484375
200,200,1727276989173,-0.51708984,-0.65093994,0.57806396,-2.078125,0.453125,-0.515625
201,201,1727276989213,-0.5119629,-0.6404419,0.5787964,-1.6875,0.390625,-0.46875
202,202,1727276989253,-0.517334,-0.64630127,0.58270264,-1.703125,0.59375,-0.625
203,203,1727276989293,-0.5144043,-0.64263916,0.5787964,-1.484375,0.46875,-0.734375
204,204,1727276989333,-0.5197754,-0.6436157,0.58807373,-2.203125,0.375,-0.9375
205,205,1727276989373,-0.5205078,-0.64508057,0.5883179,-2.40625,0.703125,-0.953125
206,206,1727276989413,-0.5209961,-0.6506958,0.5951538,-0.46875,0.21875,-0.671875
207,207,1727276989453,-0.51342773,-0.6436157,0.5866089,-2.1875,0.484375,-0.953125
208,208,1727276989493,-0.5197754,-0.6314087,0.5805054,-2.75,1.015625,-1.671875
209,209,1727276989533,-0.5258789,-0.63409424,0.5963745,-2.203125,0.8125,-0.8125
210,210,1727276989573,-0.5270996,-0.6350708,0.5932007,-1.84375,0.5,-0.53125
211,211,1727276989613,-0.52319336,-0.6392212,0.59832764,-1.984375,0.328125,-0.984375
212,212,1727276989653,-0.52075195,-0.6326294,0.59417725,-1.484375,0.203125,-0.9375
213,213,1727276989693,-0.5258789,-0.6231079,0.59417725,-0.984375,0.46875,-0.84375
214,214,1727276989733,-0.5202637,-0.6289673,0.5939331,-1.640625,0.828125,-0.953125
215,215,1727276989773,-0.5239258,-0.6331177,0.6010132,-1.8125,0.578125,-0.84375
216,216,1727276989813,-0.5202637,-0.6260376,0.5975952,-1.5,0.359375,-0.65625
217,217,1727276989853,-0.52124023,-0.6331177,0.60150146,-1.75,0.40625,-0.734375
218,218,1727276989893,-0.5222168,-0.62823486,0.59783936,-1.46875,0.453125,-0.75
219,219,1727276989933,-0.5205078,-0.6296997,0.5997925,-1.125,0.3125,-0.59375
220,220,1727276989973,-0.52368164,-0.62384033,0.6010132,-1.34375,0.640625,-0.8125
221,221,1727276990013,-0.529541,-0.62335205,0.60565186,-1.84375,0.34375,-0.625
222,222,1727276990053,-0.53149414,-0.6345825,0.6039429,-1.1875,0.21875,-0.390625
223,223,1727276990093,-0.5222168,-0.62335205,0.61102295,-2.328125,0.5625,-1.015625
224,224,1727276990133,-0.52319336,-0.61383057,0.5951538,-2.453125,1.046875,-1.265625
225,225,1727276990173,-0.53344727,-0.61920166,0.60858154,-2.140625,1.296875,-0.40625
226,226,1727276990213,-0.52856445,-0.6199341,0.618103,-1.96875,0.453125,-0.578125
227,227,1727276990253,-0.5307617,-0.6135864,0.61468506,-1.484375,0.171875,-0.71875
228,228,1727276990293,-0.5205078,-0.61065674,0.6129761,-0.734375,0.03125,-0.453125
229,229,1727276990333,-0.5251465,-0.6123657,0.6129761,-1.109375,0.734375,-0.78125
230,230,1727276990373,-0.52978516,-0.6157837,0.6100464,-1.53125,0.71875,-0.78125
231,231,1727276990413,-0.5258789,-0.6177368,0.6161499,-1.171875,0.515625,-0.421875
232,232,1727276990453,-0.5217285,-0.61920166,0.6156616,-1.03125,0.234375,-0.40625
233,233,1727276990493,-0.5246582,-0.616272,0.6129761,-1.015625,0.328125,-0.46875
234,234,1727276990533,-0.5280762,-0.62164307,0.61273193,-0.796875,0.484375,-0.703125
235,235,1727276990573,-0.52905273,-0.60821533,0.62054443,-0.03125,0.09375,-0.4375
236,236,1727276990613,-0.5251465,-0.6182251,0.6144409,-0.53125,0.046875,-0.25
237,237,1727276990653,-0.5163574,-0.61187744,0.6029663,-1.296875,0.53125,-0.875
238,238,1727276990693,-0.5222168,-0.6133423,0.6166382,-1.09375,0.8125,-0.53125
239,239,1727276990733,-0.53222656,-0.62042236,0.61761475,-0.984375,0.671875,-0.359375
240,240,1727276990773,-0.529541,-0.6177368,0.6161499,-0.5,-0.078125,-0.484375
241,241,1727276990813,-0.5180664,-0.6177368,0.62176514,0.3125,-0.0625,-0.328125
242,242,1727276990853,-0.5258789,-0.61431885,0.6166382,1.71875,0.265625,-0.125
243,243,1727276990893,-0.5292969,-0.61431885,0.6083374,1.953125,0.6875,0.125
244,244,1727276990933,-0.52563477,-0.6240845,0.6102905,2.03125,-0.359375,0.5625
245,245,1727276990973,-0.5202637,-0.61505127,0.6066284,1.828125,-0.65625,0.640625
246,246,1727276991013,-0.5227051,-0.6289673,0.6034546,2.125,-0.5,0.46875
247,247,1727276991053,-0.52124023,-0.6248169,0.6005249,1.828125,-0.125,0.140625
248,248,1727276991093,-0.52441406,-0.63116455,0.5997925,3.109375,-0.125,0.421875
249,249,1727276991133,-0.5222168,-0.6409302,0.58465576,1.921875,-0.234375,0.796875
250,250,1727276991173,-0.5239258,-0.6248169,0.5844116,0.90625,0.140625,-0.140625
251,251,1727276991213,-0.5258789,-0.6399536,0.5895386,1.84375,-0.40625,0.484375
252,252,1727276991253,-0.52734375,-0.6489868,0.59198,1.765625,-0.15625,0.53125
253,253,1727276991293,-0.5197754,-0.64556885,0.5775757,0.5625,0.0625,-0.109375
254,254,1727276991333,-0.5222168,-0.6499634,0.5817261,0.625,0.078125,0.03125
255,255,1727276991373,-0.52490234,-0.6409302,0.5841675,1.328125,-0.34375,0.40625
256,256,1727276991413,-0.529541,-0.64263916,0.5841675,1.40625,0.3125,0.3125
257,257,1727276991453,-0.5227051,-0.6506958,0.5758667,0.875,0.109375,0.3125
258,258,1727276991493,-0.51831055,-0.64556885,0.57684326,0.890625,-0.125,0.359375
259,259,1727276991533,-0.5180664,-0.65802,0.57489014,0.78125,0.1875,0.453125
260,260,1727276991573,-0.51708984,-0.6592407,0.56585693,0.5625,0.328125,0.203125
261,261,1727276991613,-0.5192871,-0.65582275,0.5741577,1.5,-0.078125,0.078125
262,262,1727276991653,-0.5148926,-0.6553345,0.5700073,-0.390625,0.484375,0.15625
263,263,1727276991693,-0.5217285,-0.6572876,0.5673218,0.0,0.59375,-0.53125
264,264,1727276991733,-0.5175781,-0.6655884,0.5758667,1.59375,-0.078125,0.34375
265,265,1727276991773,-0.5124512,-0.66241455,0.56292725,0.1875,0.125,0.203125
266,266,1727276991813,-0.51953125,-0.659729,0.55926514,-0.5,0.40625,-0.515625
267,267,1727276991853,-0.5217285,-0.6663208,0.5651245,0.296875,0.015625,0.0
268,268,1727276991893,-0.51831055,-0.6592407,0.57366943,1.140625,0.28125,0.171875
269,269,1727276991933,-0.51660156,-0.6680298,0.5661011,1.140625,0.390625,0.078125
270,270,1727276991973,-0.51049805,-0.6668091,0.5582886,0.46875,-0.1875,0.09375
271,271,1727276992013,-0.5175781,-0.66363525,0.5597534,0.71875,-0.078125,0.265625
272,272,1727276992053,-0.51049805,-0.6687622,0.56048584,0.453125,0.125,0.078125
273,273,1727276992093,-0.5126953,-0.6699829,0.54901123,0.046875,-0.015625,0.109375
274,274,1727276992133,-0.5095215,-0.6729126,0.55145264,1.21875,0.125,-0.078125
275,275,1727276992173,-0.51342773,-0.67266846,0.55804443,-0.234375,0.75,-0.40625
276,276,1727276992213,-0.5144043,-0.678772,0.5492554,0.4375,-0.046875,-0.0625
277,277,1727276992253,-0.5131836,-0.6836548,0.55511475,0.1875,-0.015625,0.265625
278,278,1727276992293,-0.51538086,-0.6724243,0.5512085,-0.578125,0.375,-0.328125
279,279,1727276992333,-0.5175781,-0.67266846,0.56048584,-0.21875,0.1875,-0.328125
280,280,1727276992373,-0.51123047,-0.67193604,0.55999756,0.359375,-0.109375,0.03125
281,281,1727276992413,-0.51049805,-0.6692505,0.55682373,0.578125,0.40625,0.09375
282,282,1727276992453,-0.513916,-0.67803955,0.54803467,-0.078125,0.109375,0.03125
283,283,1727276992493,-0.5053711,-0.6760864,0.55023193,-0.234375,0.03125,0.078125
284,284,1727276992533,-0.5073242,-0.677063,0.54681396,-0.03125,0.265625,-0.265625
285,285,1727276992573,-0.5148926,-0.68170166,0.5477905,0.09375,0.46875,-0.125
286,286,1727276992613,-0.5085449,-0.6836548,0.5429077,0.359375,0.03125,-0.15625
287,287,1727276992653,-0.50683594,-0.67315674,0.53704834,-0.5,0.203125,-0.015625
288,288,1727276992693,-0.5144043,-0.68634033,0.54730225,-0.234375,0.84375,-0.5625
289,289,1727276992733,-0.5095215,-0.6890259,0.54315186,0.59375,-0.046875,0.078125
290,290,1727276992773,-0.5161133,-0.6773071,0.5421753,-0.25,0.4375,-0.234375
291,291,1727276992813,-0.51171875,-0.6812134,0.53656006,-0.703125,0.265625,-0.46875
292,292,1727276992853,-0.5185547,-0.6885376,0.53948975,0.15625,-0.15625,-0.03125
293,293,1727276992893,-0.5085449,-0.6790161,0.54364014,0.265625,0.078125,-0.015625
294,294,1727276992933,-0.5131836,-0.68414307,0.54364014,-0.078125,0.296875,-0.078125
295,295,1727276992973,-0.5004883,-0.68829346,0.5375366,0.046875,0.09375,0.109375
296,296,1727276993013,-0.50683594,-0.6848755,0.5487671,0.234375,0.234375,0.0
297,297,1727276993053,-0.5095215,-0.6851196,0.5348511,-0.15625,0.109375,-0.109375
298,298,1727276993093,-0.5109863,-0.69073486,0.53900146,-0.109375,0.21875,-0.015625
299,299,1727276993133,-0.50268555,-0.69122314,0.5426636,0.453125,0.421875,-0.140625
300,300,1727276993173,-0.5083008,-0.68951416,0.527771,-0.65625,0.25,-0.140625
301,301,1727276993213,-0.5131836,-0.6963501,0.5343628,-0.53125,0.359375,-0.640625
302,302,1727276993253,-0.5131836,-0.6963501,0.5314331,0.359375,-0.015625,-0.078125
303,303,1727276993293,-0.5061035,-0.6885376,0.5319214,-0.3125,0.296875,-0.359375
304,304,1727276993333,-0.51171875,-0.6838989,0.5319214,-0.65625,0.21875,-0.8125
305,305,1727276993373,-0.5095215,-0.6890259,0.52923584,-0.09375,-0.453125,0.046875
306,306,1727276993413,-0.50512695,-0.69610596,0.53411865,-0.21875,0.4375,-0.171875
307,307,1727276993453,-0.51220703,-0.69488525,0.5309448,0.0625,-0.125,-0.0625
308,308,1727276993493,-0.50268555,-0.690979,0.5350952,0.015625,0.25,-0.140625
309,309,1727276993533,-0.50219727,-0.6902466,0.5285034,-0.265625,0.390625,-0.421875
310,310,1727276993573,-0.50390625,-0.6921997,0.527771,-0.640625,0.0625,-0.359375
311,311,1727276993613,-0.5083008,-0.7029419,0.5265503,-0.890625,0.34375,-0.234375
312,312,1727276993653,-0.5058594,-0.69610596,0.5165405,-0.921875,0.1875,-0.484375
313,313,1727276993693,-0.5109863,-0.6917114,0.5446167,-0.203125,0.546875,-0.609375
314,314,1727276993733,-0.5058594,-0.68829346,0.5302124,-1.4375,0.1875,-0.5
315,315,1727276993773,-0.5090332,-0.69903564,0.53289795,-1.390625,0.015625,-0.640625
316,316,1727276993813,-0.50805664,-0.692688,0.5331421,-0.8125,0.171875,-0.359375
317,317,1727276993853,-0.5083008,-0.6885376,0.5258179,-1.5,0.53125,-0.828125
318,318,1727276993893,-0.5144043,-0.69366455,0.5360718,-1.234375,0.078125,-0.71875
319,319,1727276993933,-0.5073242,-0.6868286,0.539978,-0.71875,-0.296875,-0.359375
320,320,1727276993973,-0.5046387,-0.6956177,0.5302124,-1.015625,0.171875,-0.59375
321,321,1727276994013,-0.5078125,-0.6939087,0.5363159,-1.203125,-0.109375,-0.296875
322,322,1727276994053,-0.5053711,-0.68536377,0.5282593,-0.859375,0.40625,-0.40625
323,323,1727276994093,-0.5036621,-0.68707275,0.5265503,-1.515625,0.3125,-0.859375
324,324,1727276994133,-0.5090332,-0.6939087,0.5355835,-1.234375,0.1875,-0.5625
325,325,1727276994173,-0.51342773,-0.69195557,0.5319214,-1.40625,0.265625,-0.578125
326,326,1727276994213,-0.5095215,-0.68951416,0.53533936,-1.359375,0.328125,-0.59375
327,327,1727276994253,-0.50634766,-0.68585205,0.5348511,-1.265625,0.25,-0.75
328,328,1727276994293,-0.50805664,-0.68707275,0.5421753,-1.703125,0.21875,-0.90625
329,329,1727276994333,-0.5114746,-0.68463135,0.54119873,-1.65625,0.359375,-0.8125
330,330,1727276994373,-0.5083008,-0.6843872,0.539978,-1.53125,0.234375,-0.71875
331,331,1727276994413,-0.51220703,-0.68878174,0.53948975,-1.625,0.359375,-0.796875
332,332,1727276994453,-0.50878906,-0.68341064,0.5438843,-1.71875,0.609375,-0.921875
333,333,1727276994493,-0.51123047,-0.6856079,0.5492554,-1.921875,0.25,-0.90625
334,334,1727276994533,-0.5119629,-0.68707275,0.541687,-2.0,0.296875,-0.640625
335,335,1727276994573,-0.5085449,-0.67803955,0.5470581,-2.6875,1.265625,-1.59375
336,336,1727276994613,-0.5209961,-0.68096924,0.5477905,-1.21875,-0.03125,-0.453125
337,337,1727276994653,-0.51049805,-0.6860962,0.5507202,-1.734375,0.46875,-0.65625
338,338,1727276994693,-0.5197754,-0.6760864,0.54901123,-2.015625,0.53125,-1.1875
339,339,1727276994733,-0.5185547,-0.6831665,0.55389404,-1.640625,0.46875,-0.875
340,340,1727276994773,-0.51416016,-0.66778564,0.55218506,-1.40625,0.171875,-0.6875
341,341,1727276994813,-0.5180664,-0.6741333,0.5631714,-1.296875,0.453125,-0.359375
342,342,1727276994853,-0.517334,-0.67633057,0.5543823,-1.46875,0.5,-0.34375
343,343,1727276994893,-0.5109863,-0.6729126,0.54901123,-1.359375,0.328125,-0.734375
344,344,1727276994933,-0.51538086,-0.6651001,0.5519409,-1.625,0.421875,-0.625
345,345,1727276994973,-0.51171875,-0.6721802,0.5507202,-1.640625,0.28125,-0.765625
346,346,1727276995013,-0.517334,-0.67193604,0.55340576,-1.5,0.265625,-0.6875
347,347,1727276995053,-0.51586914,-0.67510986,0.557312,-1.6875,0.359375,-0.6875
348,348,1727276995093,-0.513916,-0.6621704,0.55633545,-1.734375,0.5625,-0.75
349,349,1727276995133,-0.5161133,-0.6682739,0.55755615,-1.953125,0.1875,-0.828125
350,350,1727276995173,-0.51342773,-0.6682739,0.56414795,-2.1875,0.53125,-1.140625
351,351,1727276995213,-0.5214844,-0.66485596,0.56903076,-1.40625,0.28125,-0.796875
352,352,1727276995253,-0.515625,-0.661438,0.5560913,-2.0,0.234375,-0.46875
353,353,1727276995293,-0.51293945,-0.66070557,0.5548706,-3.078125,1.21875,-1.765625
354,354,1727276995333,-0.52490234,-0.65411377,0.5619507,-2.140625,0.53125,-0.921875
355,355,1727276995373,-0.5217285,-0.66900635,0.5741577,-1.203125,0.1875,-0.25
356,356,1727276995413,-0.5168457,-0.65948486,0.5704956,-1.84375,0.515625,-0.9375
357,357,1727276995453,-0.52319336,-0.6543579,0.5626831,-1.703125,0.46875,-0.96875
358,358,1727276995493,-0.5229492,-0.6567993,0.5709839,-1.25,0.203125,-0.46875
359,359,1727276995533,-0.5251465,-0.65997314,0.5778198,-1.03125,0.390625,-0.40625
360,360,1727276995573,-0.5234375,-0.65802,0.574646,-1.15625,0.421875,-0.5
361,361,1727276995613,-0.52124023,-0.6572876,0.57025146,-1.328125,0.15625,-0.515625
362,362,1727276995653,-0.52075195,-0.65704346,0.56658936,-1.796875,0.15625,-0.71875
363,363,1727276995693,-0.5253906,-0.6531372,0.5687866,-1.796875,0.296875,-0.875
364,364,1727276995733,-0.52075195,-0.6514282,0.57147217,-1.796875,0.46875,-0.8125
365,365,1727276995773,-0.517334,-0.64971924,0.57366943,-1.625,0.453125,-0.859375
366,366,1727276995813,-0.52490234,-0.65045166,0.57147217,-1.96875,0.59375,-1.03125
367,367,1727276995853,-0.5263672,-0.6409302,0.57489014,-1.765625,0.5,-0.875
368,368,1727276995893,-0.51953125,-0.65093994,0.58026123,-1.703125,-0.015625,-0.71875
369,369,1727276995933,-0.51171875,-0.64801025,0.5741577,-3.25,0.953125,-1.5
370,370,1727276995973,-0.52490234,-0.6321411,0.57073975,-3.546875,0.9375,-1.421875
371,371,1727276996013,-0.5283203,-0.644104,0.5890503,-2.34375,0.78125,-0.4375
372,372,1727276996053,-0.529541,-0.65045166,0.59051514,-2.34375,0.609375,-0.859375
373,373,1727276996093,-0.52319336,-0.63238525,0.5878296,-2.6875,0.640625,-1.34375
374,374,1727276996133,-0.52197266,-0.62701416,0.5939331,-2.03125,0.203125,-0.90625
375,375,1727276996173,-0.5258789,-0.630188,0.59661865,-1.4375,0.5625,-0.84375
376,376,1727276996213,-0.53100586,-0.6343384,0.5939331,-2.0,0.921875,-0.90625
377,377,1727276996253,-0.5234375,-0.63067627,0.59246826,-2.015625,0.59375,-0.609375
378,378,1727276996293,-0.52685547,-0.6253052,0.59661865,-1.921875,0.421875,-0.75
379,379,1727276996333,-0.5229492,-0.62677,0.5997925,-1.84375,0.328125,-0.671875
380,380,1727276996373,-0.52490234,-0.6333618,0.59954834,-1.984375,0.8125,-0.90625
381,381,1727276996413,-0.52685547,-0.61968994,0.60565186,-1.40625,0.6875,-0.71875
382,382,1727276996453,-0.52685547,-0.63287354,0.6010132,-0.34375,0.609375,-0.453125
383,383,1727276996493,-0.5217285,-0.6321411,0.605896,0.078125,0.890625,-0.75
384,384,1727276996533,-0.53344727,-0.6255493,0.602478,1.421875,0.65625,-0.328125
385,385,1727276996573,-0.52905273,-0.62628174,0.6046753,2.265625,-0.234375,1.0
386,386,1727276996613,-0.51538086,-0.6289673,0.5946655,1.0625,-0.859375,0.5
387,387,1727276996653,-0.5192871,-0.63482666,0.59295654,1.15625,0.0,0.21875
388,388,1727276996693,-0.5263672,-0.62750244,0.5897827,1.890625,0.015625,0.578125
389,389,1727276996733,-0.5253906,-0.6387329,0.5861206,1.828125,0.109375,0.21875
390,390,1727276996773,-0.52368164,-0.6460571,0.588562,1.375,0.21875,0.375
391,391,1727276996813,-0.5180664,-0.64434814,0.58099365,1.578125,-0.25,0.515625
392,392,1727276996853,-0.5214844,-0.64727783,0.5812378,1.6875,-0.5625,0.234375
393,393,1727276996893,-0.5114746,-0.6465454,0.5800171,0.90625,0.328125,-0.015625
394,394,1727276996933,-0.5270996,-0.6526489,0.5751343,1.28125,0.015625,0.234375
395,395,1727276996973,-0.5185547,-0.6506958,0.5687866,1.640625,-0.09375,0.21875
396,396,1727276997013,-0.5229492,-0.6536255,0.57196045,-0.3125,0.4375,-0.265625
397,397,1727276997053,-0.5275879,-0.65338135,0.5704956,0.25,-0.015625,-0.15625
398,398,1727276997093,-0.5258789,-0.6589966,0.5753784,0.796875,0.109375,0.46875
399,399,1727276997133,-0.5144043,-0.66119385,0.5700073,0.421875,0.21875,0.046875
400,400,1727276997173,-0.52001953,-0.65826416,0.56365967,0.25,0.578125,-0.21875
401,401,1727276997213,-0.5222168,-0.6511841,0.5651245,0.703125,-0.25,0.34375
402,402,1727276997253,-0.51123047,-0.659729,0.5680542,1.046875,-0.0625,0.359375
403,403,1727276997293,-0.5124512,-0.6602173,0.55999756,0.0625,0.515625,-0.203125
404,404,1727276997333,-0.5168457,-0.6646118,0.56463623,0.25,0.203125,0.03125
405,405,1727276997373,-0.5090332,-0.6589966,0.5643921,0.40625,0.453125,-0.171875
406,406,1727276997413,-0.51220703,-0.659729,0.5673218,0.4375,0.46875,-0.078125
407,407,1727276997453,-0.51123047,-0.673645,0.555603,0.21875,0.109375,-0.125
408,408,1727276997493,-0.5192871,-0.6699829,0.5560913,1.109375,0.15625,0.03125
409,409,1727276997533,-0.5175781,-0.6692505,0.56121826,0.046875,0.515625,-0.359375
410,410,1727276997573,-0.51464844,-0.6675415,0.54901123,-0.046875,0.109375,-0.375
411,411,1727276997613,-0.5161133,-0.6680298,0.55682373,0.046875,0.0625,0.078125
412,412,1727276997653,-0.5202637,-0.67437744,0.5504761,-0.4375,0.515625,-0.390625
413,413,1727276997693,-0.52001953,-0.6721802,0.5548706,-0.359375,0.4375,-0.453125
414,414,1727276997733,-0.5144043,-0.6699829,0.5529175,0.375,-0.28125,0.125
415,415,1727276997773,-0.51538086,-0.66534424,0.55682373,0.1875,0.609375,-0.3125
416,416,1727276997813,-0.52246094,-0.6734009,0.5519409,0.109375,0.359375,-0.078125
417,417,1727276997853,-0.515625,-0.6712036,0.5536499,-0.3125,0.046875,0.078125
418,418,1727276997893,-0.5107422,-0.6748657,0.5548706,-0.4375,0.453125,-0.328125
419,419,1727276997933,-0.51049805,-0.678772,0.55218506,-0.109375,0.4375,-0.234375
420,420,1727276997973,-0.5090332,-0.68096924,0.5507202,-0.5,0.15625,-0.28125
421,421,1727276998013,-0.515625,-0.6868286,0.539978,-0.484375,0.21875,-0.3125
422,422,1727276998053,-0.5114746,-0.67803955,0.5578003,-1.0,0.75,-0.6875
423,423,1727276998093,-0.52246094,-0.6777954,0.557312,-0.296875,0.015625,-0.125
424,424,1727276998133,-0.5192871,-0.6692505,0.5504761,-1.09375,0.34375,-0.546875
425,425,1727276998173,-0.5161133,-0.67071533,0.5458374,-1.078125,0.515625,-0.828125
426,426,1727276998213,-0.5217285,-0.6712036,0.55682373,-0.71875,0.1875,-0.375
427,427,1727276998253,-0.5151367,-0.66973877,0.5582886,-0.546875,0.078125,-0.078125
428,428,1727276998293,-0.51123047,-0.67510986,0.54901123,-0.46875,0.671875,-0.53125
429,429,1727276998333,-0.5185547,-0.6795044,0.55218506,-0.4375,0.125,-0.046875
430,430,1727276998373,-0.50683594,-0.6682739,0.5494995,-0.40625,0.40625,-0.25
431,431,1727276998413,-0.5119629,-0.677063,0.54681396,-0.796875,0.53125,-0.546875
432,432,1727276998453,-0.5097656,-0.6814575,0.5553589,-0.515625,0.578125,-0.578125
433,433,1727276998493,-0.51220703,-0.67852783,0.5570679,-0.234375,0.40625,-0.453125
434,434,1727276998533,-0.5114746,-0.6746216,0.5404663,-0.171875,0.546875,-0.25
435,435,1727276998573,-0.5148926,-0.6802368,0.55218506,-0.546875,0.421875,-0.5625
436,436,1727276998613,-0.5185547,-0.6748657,0.55145264,0.078125,-0.1875,-0.046875
437,437,1727276998653,-0.5119629,-0.67266846,0.5504761,0.0625,0.296875,-0.171875
438,438,1727276998693,-0.5073242,-0.6668091,0.543396,-0.671875,0.296875,-0.34375
439,439,1727276998733,-0.51782227,-0.6758423,0.54437256,0.0625,0.0,-0.09375
440,440,1727276998773,-0.51049805,-0.67681885,0.5585327,0.40625,-0.109375,0.265625
441,441,1727276998813,-0.5136719,-0.67803955,0.5446167,-0.015625,0.1875,-0.015625
442,442,1727276998853,-0.5085449,-0.6826782,0.54681396,-0.34375,0.125,0.078125
443,443,1727276998893,-0.5085449,-0.6782837,0.54559326,-0.28125,0.265625,0.03125
444,444,1727276998933,-0.5114746,-0.6860962,0.5426636,-0.046875,0.28125,-0.140625
445,445,1727276998973,-0.5085449,-0.69244385,0.541687,-0.359375,0.140625,-0.15625
446,446,1727276999013,-0.5078125,-0.67681885,0.5429077,-1.09375,0.109375,-0.46875
447,447,1727276999053,-0.51171875,-0.6843872,0.54193115,-0.140625,0.4375,-0.390625
448,448,1727276999093,-0.50634766,-0.68829346,0.541687,-1.1875,0.515625,-0.78125
449,449,1727276999133,-0.5175781,-0.6897583,0.54901123,-0.578125,0.109375,-0.28125
450,450,1727276999173,-0.50219727,-0.6848755,0.53582764,-1.046875,0.296875,-0.421875
451,451,1727276999213,-0.51123047,-0.6746216,0.5414429,-1.953125,0.265625,-1.046875
452,452,1727276999253,-0.5151367,-0.6758423,0.5529175,-1.03125,-0.078125,-0.640625
453,453,1727276999293,-0.50756836,-0.6843872,0.5475464,-0.78125,-0.328125,-0.203125
454,454,1727276999333,-0.51660156,-0.6826782,0.5492554,-1.140625,0.453125,-0.703125
455,455,1727276999373,-0.5163574,-0.6814575,0.55145264,-1.015625,0.1875,-0.59375
456,456,1727276999413,-0.5114746,-0.677063,0.54071045,-1.40625,-0.03125,-0.46875
457,457,1727276999453,-0.51538086,-0.6741333,0.54608154,-1.546875,0.234375,-0.765625
458,458,1727276999493,-0.5136719,-0.6773071,0.545105,-1.171875,0.28125,-0.75
459,459,1727276999533,-0.5168457,-0.6802368,0.5458374,-1.265625,0.109375,-0.578125
460,460,1727276999573,-0.5114746,-0.67926025,0.54437256,-1.640625,0.359375,-0.8125
461,461,1727276999613,-0.51586914,-0.67388916,0.5578003,-0.46875,0.328125,-0.796875
462,462,1727276999653,-0.5085449,-0.67144775,0.55633545,-1.765625,0.453125,-0.75
463,463,1727276999693,-0.515625,-0.67144775,0.543396,-2.1875,0.5625,-1.109375
464,464,1727276999733,-0.51586914,-0.6741333,0.55462646,-0.578125,-0.234375,-0.296875
465,465,1727276999773,-0.5107422,-0.6663208,0.55096436,-1.875,0.40625,-0.890625
466,466,1727276999813,-0.52368164,-0.67437744,0.55145264,-1.734375,0.328125,-1.171875
467,467,1727276999853,-0.5161133,-0.66778564,0.5524292,-1.21875,-0.1875,-0.3125
468,468,1727276999893,-0.5168457,-0.67266846,0.56073,-1.328125,0.203125,-0.5625
469,469,1727276999933,-0.52197266,-0.6716919,0.5582886,-1.265625,0.5,-0.703125
470,470,1727276999973,-0.5144043,-0.6658325,0.55633545,-1.234375,0.453125,-0.5625
471,471,1727277000013,-0.51708984,-0.6658325,0.555603,-1.265625,0.25,-0.5625
472,472,1727277000053,-0.51831055,-0.66851807,0.56048584,-1.46875,0.3125,-0.53125
473,473,1727277000093,-0.51782227,-0.67266846,0.55389404,-0.984375,0.15625,-0.578125
474,474,1727277000133,-0.51660156,-0.673645,0.5595093,-1.4375,0.671875,-0.75
475,475,1727277000173,-0.5229492,-0.6621704,0.55682373,-1.640625,0.4375,-0.9375
476,476,1727277000213,-0.5209961,-0.6658325,0.5597534,-0.46875,0.53125,-0.609375
477,477,1727277000253,-0.51220703,-0.6675415,0.55633545,-2.296875,0.640625,-0.890625
478,478,1727277000293,-0.5217285,-0.65875244,0.5516968,-2.78125,0.78125,-1.40625
479,479,1727277000333,-0.5241699,-0.66778564,0.57073975,-1.140625,0.140625,-0.28125
480,480,1727277000373,-0.5187988,-0.6604614,0.5631714,-2.6875,0.265625,-1.0
481,481,1727277000413,-0.52612305,-0.6538696,0.57073975,-2.015625,0.703125,-0.96875
482,482,1727277000453,-0.5222168,-0.66363525,0.5673218,-0.953125,0.046875,-0.515625
483,483,1727277000493,-0.5222168,-0.6531372,0.5651245,-1.375,0.25,-0.46875
484,484,1727277000533,-0.5222168,-0.6548462,0.57318115,-1.453125,0.3125,-0.546875
485,485,1727277000573,-0.51953125,-0.6585083,0.56292725,-1.125,0.28125,-0.59375
486,486,1727277000613,-0.51538086,-0.6577759,0.56292725,-1.375,0.421875,-0.671875
487,487,1727277000653,-0.5214844,-0.6531372,0.5700073,-1.4375,0.25,-0.796875
488,488,1727277000693,-0.51708984,-0.66070557,0.5639038,-1.53125,0.078125,-0.65625
489,489,1727277000733,-0.5241699,-0.659729,0.5673218,-1.703125,0.515625,-0.953125
490,490,1727277000773,-0.52197266,-0.6433716,0.57733154,-0.75,0.15625,-0.78125
491,491,1727277000813,-0.5209961,-0.6511841,0.56829834,-1.859375,0.4375,-0.625
492,492,1727277000853,-0.5175781,-0.6543579,0.5675659,-2.96875,1.0,-1.65625
493,493,1727277000893,-0.52978516,-0.64263916,0.5807495,-2.71875,0.859375,-1.125
494,494,1727277000933,-0.5300293,-0.6514282,0.586853,-1.59375,0.4375,-0.5625
495,495,1727277000973,-0.5275879,-0.6482544,0.5841675,-2.09375,0.375,-0.953125
496,496,1727277001013,-0.53149414,-0.6409302,0.576355,-2.0,0.21875,-0.90625
497,497,1727277001053,-0.51538086,-0.64508057,0.57977295,-1.609375,0.1875,-0.609375
498,498,1727277001093,-0.52563477,-0.645813,0.5895386,-1.9375,0.59375,-0.734375
499,499,1727277001133,-0.5288086,-0.6453247,0.58343506,-1.875,0.609375,-0.859375
500,500,1727277001173,-0.5222168,-0.6392212,0.588562,-1.484375,0.640625,-0.703125
501,501,1727277001213,-0.5246582,-0.6355591,0.58465576,-1.5625,0.15625,-0.6875
502,502,1727277001253,-0.5222168,-0.6411743,0.5922241,-1.640625,0.4375,-0.734375
503,503,1727277001293,-0.5209961,-0.64068604,0.58343506,-1.84375,0.5,-0.625
504,504,1727277001333,-0.52905273,-0.6321411,0.5968628,-1.0,0.25,-0.71875
505,505,1727277001373,-0.5253906,-0.63360596,0.5878296,-1.765625,0.296875,-0.328125
506,506,1727277001413,-0.5209961,-0.628479,0.5829468,-3.078125,0.984375,-1.453125
507,507,1727277001453,-0.52905273,-0.62872314,0.5829468,-4.0,1.234375,-1.46875
508,508,1727277001493,-0.53027344,-0.63165283,0.6039429,-2.1875,1.15625,-0.46875
509,509,1727277001533,-0.5283203,-0.62628174,0.60198975,-1.6875,0.40625,-0.875
510,510,1727277001573,-0.52441406,-0.62213135,0.6034546,-1.859375,0.1875,-0.921875
511,511,1727277001613,-0.5253906,-0.6223755,0.6005249,-1.25,0.171875,-0.546875
512,512,1727277001653,-0.5270996,-0.6182251,0.59832764,-1.640625,0.765625,-0.796875
513,513,1727277001693,-0.51953125,-0.62872314,0.60198975,-1.953125,0.75,-0.6875
514,514,1727277001733,-0.52563477,-0.6211548,0.6119995,-1.734375,0.421875,-0.6875
515,515,1727277001773,-0.5275879,-0.6189575,0.60028076,-1.78125,0.25,-0.546875
516,516,1727277001813,-0.52441406,-0.6189575,0.60565186,-1.484375,0.34375,-0.546875
517,517,1727277001853,-0.5205078,-0.6211548,0.60980225,-2.0,0.921875,-0.84375
518,518,1727277001893,-0.5253906,-0.61920166,0.6129761,-0.703125,0.40625,-0.609375
519,519,1727277001933,-0.52783203,-0.62213135,0.60028076,-1.1875,0.359375,-0.546875
520,520,1727277001973,-0.5205078,-0.62213135,0.5997925,-2.890625,0.765625,-1.25
521,521,1727277002013,-0.5275879,-0.6084595,0.61395264,-4.328125,2.453125,-1.546875
522,522,1727277002053,-0.53222656,-0.6091919,0.62005615,-1.640625,1.96875,-0.375
523,523,1727277002093,-0.5239258,-0.61505127,0.62249756,-1.265625,0.546875,-0.453125
524,524,1727277002133,-0.5241699,-0.6057739,0.61932373,-1.71875,0.28125,-0.859375
525,525,1727277002173,-0.52563477,-0.600647,0.6207886,-0.421875,0.09375,-0.171875
526,526,1727277002213,-0.5266113,-0.6079712,0.6156616,-0.703125,1.046875,-0.6875
527,527,1727277002253,-0.5275879,-0.61065674,0.6264038,-0.78125,0.59375,-0.40625
528,528,1727277002293,-0.5209961,-0.60284424,0.62127686,-0.609375,0.234375,-0.40625
529,529,1727277002333,-0.52075195,-0.6055298,0.6168823,-0.21875,0.15625,-0.234375
530,530,1727277002373,-0.52368164,-0.6087036,0.62615967,-0.015625,0.359375,-0.375
531,531,1727277002413,-0.52368164,-0.61187744,0.62054443,0.578125,0.3125,-0.265625
532,532,1727277002453,-0.52563477,-0.6084595,0.62371826,2.453125,-0.453125,0.1875
533,533,1727277002493,-0.52319336,-0.62213135,0.61053467,1.484375,-0.75,0.390625
534,534,1727277002533,-0.5185547,-0.60772705,0.60491943,0.953125,-0.671875,-0.28125
535,535,1727277002573,-0.5300293,-0.6182251,0.6107788,1.4375,-0.109375,0.453125
536,536,1727277002613,-0.52441406,-0.6265259,0.6071167,1.9375,-0.40625,0.65625
537,537,1727277002653,-0.52319336,-0.62579346,0.6046753,2.1875,-0.703125,0.34375
538,538,1727277002693,-0.5239258,-0.6194458,0.5932007,1.375,-0.53125,0.15625
539,539,1727277002733,-0.5192871,-0.62823486,0.59295654,2.40625,-0.59375,0.578125
540,540,1727277002773,-0.5263672,-0.631897,0.6000366,1.78125,-0.03125,0.71875
541,541,1727277002813,-0.52319336,-0.64019775,0.59783936,1.515625,-0.265625,0.5625
542,542,1727277002853,-0.5241699,-0.6399536,0.58880615,1.78125,-0.375,0.578125
543,543,1727277002893,-0.5229492,-0.6350708,0.5848999,1.234375,-0.390625,0.359375
544,544,1727277002933,-0.51464844,-0.642395,0.5856323,1.28125,-0.046875,0.140625
545,545,1727277002973,-0.5300293,-0.6502075,0.5807495,1.671875,-0.078125,0.40625
546,546,1727277003013,-0.52490234,-0.6502075,0.571228,1.359375,-0.328125,0.5
547,547,1727277003053,-0.5217285,-0.6519165,0.58026123,0.25,0.1875,-0.140625
548,548,1727277003093,-0.52368164,-0.6477661,0.57806396,0.8125,0.203125,-0.125
549,549,1727277003133,-0.5197754,-0.65460205,0.5807495,1.0625,-0.078125,0.5
550,550,1727277003173,-0.51464844,-0.65289307,0.5704956,0.296875,0.265625,-0.140625
551,551,1727277003213,-0.5202637,-0.6465454,0.57318115,0.21875,0.265625,-0.21875
552,552,1727277003253,-0.5205078,-0.6499634,0.5726929,0.8125,-0.265625,0.359375
553,553,1727277003293,-0.5180664,-0.65509033,0.57440186,1.421875,0.421875,0.09375
554,554,1727277003333,-0.5185547,-0.66070557,0.57073975,0.703125,0.140625,0.046875
555,555,1727277003373,-0.52563477,-0.65753174,0.56292725,0.5625,-0.21875,0.109375
556,556,1727277003413,-0.51586914,-0.6555786,0.5626831,0.453125,0.015625,0.0625
557,557,1727277003453,-0.517334,-0.66729736,0.5668335,0.453125,0.234375,0.015625
558,558,1727277003493,-0.51586914,-0.6741333,0.55926514,0.296875,0.109375,-0.09375
559,559,1727277003533,-0.5175781,-0.66363525,0.5560913,0.90625,0.015625,0.109375
560,560,1727277003573,-0.51342773,-0.66656494,0.5597534,-0.546875,0.71875,-0.53125
561,561,1727277003613,-0.52124023,-0.66729736,0.55023193,-0.265625,0.203125,-0.546875
562,562,1727277003653,-0.51708984,-0.67193604,0.56951904,-0.3125,0.359375,-0.390625
563,563,1727277003693,-0.5185547,-0.65948486,0.5631714,-0.5,0.59375,-0.75
564,564,1727277003733,-0.5185547,-0.6548462,0.5648804,-0.46875,0.421875,-0.671875
565,565,1727277003773,-0.52001953,-0.65948486,0.5685425,-0.078125,-0.1875,0.015625
566,566,1727277003813,-0.52246094,-0.66485596,0.56658936,-0.03125,0.546875,-0.078125
567,567,1727277003853,-0.52197266,-0.66900635,0.5692749,0.078125,0.171875,-0.125
568,568,1727277003893,-0.5180664,-0.66192627,0.5582886,0.328125,0.25,-0.015625
569,569,1727277003933,-0.52490234,-0.66485596,0.56048584,0.171875,0.328125,-0.140625
570,570,1727277003973,-0.5109863,-0.67193604,0.55462646,-0.0625,0.34375,-0.25
571,571,1727277004013,-0.5148926,-0.677063,0.5543823,0.0625,0.125,-0.078125
572,572,1727277004053,-0.51782227,-0.66900635,0.5553589,0.578125,0.5,-0.171875
573,573,1727277004093,-0.52001953,-0.6724243,0.5585327,-0.703125,0.46875,-0.171875
574,574,1727277004133,-0.51904297,-0.67266846,0.5512085,-0.40625,0.328125,-0.390625
575,575,1727277004173,-0.5187988,-0.67071533,0.5595093,-0.03125,0.015625,-0.125
576,576,1727277004213,-0.5136719,-0.66778564,0.54730225,-0.4375,0.453125,-0.515625
577,577,1727277004253,-0.52075195,-0.6741333,0.5531616,-0.515625,0.21875,-0.40625
578,578,1727277004293,-0.5126953,-0.6692505,0.55804443,0.265625,-0.3125,0.21875
579,579,1727277004333,-0.5187988,-0.6692505,0.5560913,0.5625,0.421875,0.03125
580,580,1727277004373,-0.5197754,-0.6807251,0.54974365,0.234375,0.140625,0.015625
581,581,1727277004413,-0.51708984,-0.6802368,0.54901123,0.234375,0.109375,0.078125
582,582,1727277004453,-0.51171875,-0.66656494,0.54974365,0.0625,-0.015625,-0.03125
583,583,1727277004493,-0.5095215,-0.6777954,0.54608154,-0.125,0.203125,-0.15625
584,584,1727277004533,-0.5107422,-0.6790161,0.5350952,-0.4375,0.046875,-0.09375
585,585,1727277004573,-0.5107422,-0.673645,0.5565796,-0.140625,0.40625,-0.34375
586,586,1727277004613,-0.5114746,-0.6782837,0.5494995,-1.40625,0.46875,-0.390625
587,587,1727277004653,-0.52001953,-0.6868286,0.5465698,-1.3125,0.65625,-0.890625
588,588,1727277004693,-0.5168457,-0.6782837,0.5482788,-0.75,0.140625,-0.390625
589,589,1727277004733,-0.5136719,-0.6724243,0.5421753,-1.453125,0.4375,-0.859375
590,590,1727277004773,-0.51831055,-0.6746216,0.55267334,-1.171875,0.3125,-0.640625
591,591,1727277004813,-0.5097656,-0.66485596,0.5492554,-1.15625,-0.46875,-0.109375
592,592,1727277004853,-0.5114746,-0.6709595,0.55584717,-1.4375,0.34375,-0.578125
593,593,1727277004893,-0.52490234,-0.6814575,0.55999756,-0.78125,0.53125,-0.28125
594,594,1727277004933,-0.5163574,-0.6765747,0.55267334,-0.703125,0.328125,-0.25
595,595,1727277004973,-0.5109863,-0.67266846,0.5516968,-0.890625,0.390625,-0.671875
596,596,1727277005013,-0.513916,-0.67633057,0.5512085,-1.078125,0.265625,-0.609375
597,597,1727277005053,-0.5163574,-0.6760864,0.5482788,-0.953125,0.125,-0.671875
598,598,1727277005093,-0.5126953,-0.66534424,0.5631714,-1.0625,0.078125,-0.78125
599,599,1727277005133,-0.5192871,-0.6704712,0.54608154,-1.40625,0.3125,-0.5625
600,600,1727277005173,-0.517334,-0.6748657,0.55511475,-1.890625,0.671875,-1.078125
601,601,1727277005213,-0.52441406,-0.6692505,0.5595093,-0.875,0.0625,-0.5625
602,602,1727277005253,-0.51782227,-0.6638794,0.5541382,-1.546875,0.390625,-0.6875
603,603,1727277005293,-0.51464844,-0.6585083,0.55584717,-2.09375,0.46875,-1.125
604,604,1727277005333,-0.52124023,-0.6692505,0.55218506,-1.265625,0.015625,-0.625
605,605,1727277005373,-0.51538086,-0.659729,0.56170654,-1.171875,0.171875,-0.453125
606,606,1727277005413,-0.52124023,-0.66363525,0.56829834,-1.421875,0.484375,-0.796875
607,607,1727277005453,-0.5175781,-0.6643677,0.56121826,-1.234375,0.4375,-0.578125
608,608,1727277005493,-0.51049805,-0.66241455,0.55804443,-1.546875,0.203125,-0.5
609,609,1727277005533,-0.51049805,-0.6626587,0.56170654,-1.609375,0.265625,-0.734375
610,610,1727277005573,-0.51660156,-0.6626587,0.56658936,-1.328125,0.328125,-0.703125
611,611,1727277005613,-0.5227051,-0.67193604,0.5621948,-1.421875,0.3125,-0.671875
612,612,1727277005653,-0.5241699,-0.66534424,0.56414795,-0.78125,0.46875,-0.828125
613,613,1727277005693,-0.5161133,-0.66070557,0.56170654,-1.953125,0.375,-0.75
614,614,1727277005733,-0.52124023,-0.65631104,0.55584717,-2.4375,0.65625,-1.359375
615,615,1727277005773,-0.52246094,-0.6643677,0.57025146,-0.953125,0.140625,-0.328125
616,616,1727277005813,-0.5251465,-0.6638794,0.56170654,-2.125,0.34375,-0.765625
617,617,1727277005853,-0.5222168,-0.6589966,0.56781006,-2.40625,0.28125,-1.015625
618,618,1727277005893,-0.5251465,-0.6524048,0.5717163,-1.4375,0.03125,-0.671875
619,619,1727277005933,-0.51904297,-0.6526489,0.5722046,-1.296875,0.359375,-0.703125
620,620,1727277005973,-0.52685547,-0.65948486,0.571228,-1.53125,0.53125,-0.6875
621,621,1727277006013,-0.5263672,-0.6531372,0.571228,-1.46875,0.3125,-0.734375
622,622,1727277006053,-0.5217285,-0.647522,0.57073975,-1.453125,0.15625,-0.6875
623,623,1727277006093,-0.52368164,-0.6524048,0.57489014,-1.5,0.21875,-0.671875
624,624,1727277006133,-0.51538086,-0.6526489,0.57806396,-1.359375,0.515625,-0.671875
625,625,1727277006173,-0.5168457,-0.6526489,0.5734253,-1.53125,0.453125,-0.65625
626,626,1727277006213,-0.52490234,-0.6477661,0.5697632,-1.015625,0.578125,-0.75
627,627,1727277006253,-0.5151367,-0.64678955,0.5709839,-2.5,0.671875,-1.1875
628,628,1727277006293,-0.5241699,-0.6411743,0.56903076,-3.09375,0.9375,-1.265625
629,629,1727277006333,-0.5253906,-0.64923096,0.5861206,-1.5,0.546875,-0.453125
630,630,1727277006373,-0.5258789,-0.64801025,0.5790405,-1.984375,0.296875,-0.734375
631,631,1727277006413,-0.53222656,-0.63726807,0.5829468,-1.96875,0.375,-0.953125
632,632,1727277006453,-0.5222168,-0.6358032,0.5829468,-1.390625,0.28125,-0.71875
633,633,1727277006493,-0.5253906,-0.6399536,0.5836792,-1.453125,0.5625,-0.625
634,634,1727277006533,-0.5292969,-0.64263916,0.58929443,-1.625,0.59375,-0.59375
635,635,1727277006573,-0.5283203,-0.6367798,0.58465576,-1.3125,0.40625,-0.59375
636,636,1727277006613,-0.52441406,-0.63848877,0.58392334,-1.359375,0.28125,-0.703125
637,637,1727277006653,-0.5175781,-0.64141846,0.5861206,-1.75,0.46875,-0.875
638,638,1727277006693,-0.52856445,-0.64141846,0.59002686,-1.890625,0.5625,-1.0
639,639,1727277006733,-0.52734375,-0.62286377,0.59173584,-0.859375,0.3125,-0.65625
640,640,1727277006773,-0.52563477,-0.63775635,0.58514404,-1.265625,0.28125,-0.359375
641,641,1727277006813,-0.5187988,-0.6345825,0.5844116,-2.890625,0.796875,-1.421875
642,642,1727277006853,-0.53271484,-0.62945557,0.58758545,-3.515625,0.78125,-1.140625
643,643,1727277006893,-0.5317383,-0.6399536,0.5963745,-1.96875,0.828125,-0.53125
644,644,1727277006933,-0.5270996,-0.6272583,0.602478,-1.734375,0.515625,-0.890625
645,645,1727277006973,-0.52563477,-0.62457275,0.5975952,-1.53125,0.625,-0.796875
646,646,1727277007013,-0.5222168,-0.62091064,0.5922241,-1.296875,0.15625,-0.46875
647,647,1727277007053,-0.53125,-0.6248169,0.59539795,-1.71875,0.515625,-0.6875
648,648,1727277007093,-0.52441406,-0.6243286,0.60443115,-1.578125,0.53125,-0.53125
649,649,1727277007133,-0.53125,-0.6189575,0.60443115,-1.265625,0.390625,-0.515625
650,650,1727277007173,-0.5258789,-0.62384033,0.59710693,-1.28125,0.46875,-0.421875
651,651,1727277007213,-0.53393555,-0.6255493,0.6039429,-1.390625,0.40625,-0.359375
652,652,1727277007253,-0.51953125,-0.6277466,0.5934448,-1.75,0.390625,-0.609375
653,653,1727277007293,-0.529541,-0.6211548,0.6046753,-0.546875,0.03125,-0.578125
654,654,1727277007333,-0.5241699,-0.62042236,0.6054077,-1.375,0.328125,-0.59375
655,655,1727277007373,-0.52124023,-0.6152954,0.5988159,-2.6875,0.84375,-1.609375
656,656,1727277007413,-0.5300293,-0.6177368,0.6124878,-2.640625,0.90625,-0.703125
657,657,1727277007453,-0.5288086,-0.6182251,0.6112671,-1.5,0.734375,-0.515625
658,658,1727277007493,-0.52490234,-0.6211548,0.61102295,-1.03125,0.375,-0.75
659,659,1727277007533,-0.5319824,-0.6123657,0.6107788,-0.859375,-0.203125,-0.640625
660,660,1727277007573,-0.52612305,-0.61187744,0.6119995,-0.453125,0.328125,-0.375
661,661,1727277007613,-0.5266113,-0.6182251,0.61151123,-0.953125,0.71875,-0.5
662,662,1727277007653,-0.53100586,-0.6123657,0.61712646,-1.03125,0.234375,-0.359375
663,663,1727277007693,-0.5336914,-0.61798096,0.6063843,-0.859375,0.09375,-0.390625
664,664,1727277007733,-0.5332031,-0.6165161,0.6102905,-0.734375,0.1875,-0.4375
665,665,1727277007773,-0.5270996,-0.61676025,0.6083374,-0.890625,0.515625,-0.59375
666,666,1727277007813,-0.5275879,-0.62091064,0.60858154,-0.8125,0.6875,-0.5625
667,667,1727277007853,-0.5241699,-0.61383057,0.61395264,0.21875,0.078125,-0.171875
668,668,1727277007893,-0.5205078,-0.61798096,0.61395264,-0.34375,0.265625,-0.25
669,669,1727277007933,-0.5214844,-0.61505127,0.6022339,-0.890625,0.6875,-0.953125
670,670,1727277007973,-0.5305176,-0.6084595,0.61395264,-0.40625,0.671875,-0.0625
671,671,1727277008013,-0.5366211,-0.6099243,0.6112671,0.125,0.109375,0.09375
672,672,1727277008053,-0.529541,-0.62091064,0.6124878,0.671875,-0.109375,-0.21875
673,673,1727277008093,-0.5241699,-0.61138916,0.6022339,1.453125,-0.21875,0.234375
674,674,1727277008133,-0.5214844,-0.6157837,0.6017456,1.671875,-0.1875,0.3125
675,675,1727277008173,-0.52783203,-0.6248169,0.59954834,1.265625,0.421875,0.390625
676,676,1727277008213,-0.5270996,-0.62945557,0.60614014,1.421875,-0.140625,0.375
677,677,1727277008253,-0.5229492,-0.6253052,0.59173584,1.578125,-0.53125,0.453125
678,678,1727277008293,-0.5258789,-0.6279907,0.59490967,1.53125,-0.359375,0.453125
679,679,1727277008333,-0.5275879,-0.6355591,0.59173584,0.96875,0.09375,0.1875
680,680,1727277008373,-0.52563477,-0.64630127,0.59051514,0.921875,0.046875,0.171875
681,681,1727277008413,-0.5283203,-0.63604736,0.59173584,2.28125,-0.34375,0.265625
682,682,1727277008453,-0.5209961,-0.6387329,0.5831909,0.234375,0.171875,0.078125
683,683,1727277008493,-0.5241699,-0.63653564,0.57928467,-0.125,0.375,-0.640625
684,684,1727277008533,-0.529541,-0.645813,0.5946655,0.921875,0.015625,0.453125
685,685,1727277008573,-0.52441406,-0.6445923,0.5817261,0.8125,0.125,0.28125
686,686,1727277008613,-0.5246582,-0.6382446,0.5841675,0.34375,0.21875,-0.40625
687,687,1727277008653,-0.5222168,-0.6433716,0.58026123,0.71875,-0.296875,0.109375
688,688,1727277008693,-0.513916,-0.6387329,0.5831909,0.8125,-0.046875,0.34375
689,689,1727277008733,-0.5280762,-0.6524048,0.58392334,0.375,0.3125,0.046875
690,690,1727277008773,-0.52490234,-0.64801025,0.5795288,0.265625,0.234375,-0.03125
691,691,1727277008813,-0.5214844,-0.64385986,0.57562256,0.796875,0.03125,0.15625
692,692,1727277008853,-0.5202637,-0.6465454,0.5741577,0.703125,0.171875,0.125
693,693,1727277008893,-0.5229492,-0.6506958,0.572937,0.625,0.046875,-0.046875
694,694,1727277008933,-0.5239258,-0.65338135,0.57318115,0.4375,-0.21875,0.03125
695,695,1727277008973,-0.52246094,-0.6555786,0.56707764,0.796875,0.015625,0.15625
696,696,1727277009013,-0.5168457,-0.65704346,0.5807495,-0.21875,0.5625,-0.5
697,697,1727277009053,-0.5251465,-0.6477661,0.5680542,0.375,0.328125,-0.25
698,698,1727277009093,-0.52197266,-0.6604614,0.5700073,0.453125,0.140625,0.109375
699,699,1727277009133,-0.5205078,-0.66192627,0.55804443,-0.09375,0.421875,-0.375
700,700,1727277009173,-0.52124023,-0.6565552,0.5675659,-0.265625,0.234375,-0.5
701,701,1727277009213,-0.5222168,-0.6567993,0.5692749,0.375,-0.28125,0.21875
702,702,1727277009253,-0.5214844,-0.6658325,0.5751343,1.078125,0.265625,0.078125
703,703,1727277009293,-0.5148926,-0.66363525,0.55877686,0.359375,0.359375,-0.140625
704,704,1727277009333,-0.51831055,-0.6609497,0.56658936,0.359375,-0.078125,0.046875
705,705,1727277009373,-0.5197754,-0.6616821,0.5673218,0.40625,0.15625,-0.0625
706,706,1727277009413,-0.5202637,-0.6712036,0.55999756,0.484375,0.21875,0.15625
707,707,1727277009453,-0.52441406,-0.66412354,0.555603,0.578125,0.1875,-0.046875
708,708,1727277009493,-0.5214844,-0.66851807,0.56048584,0.765625,0.171875,-0.046875
709,709,1727277009533,-0.5175781,-0.66485596,0.5494995,-0.71875,0.109375,0.0625
710,710,1727277009573,-0.5124512,-0.673645,0.55926514,-0.625,0.671875,-0.734375
711,711,1727277009613,-0.5192871,-0.6748657,0.55218506,0.5625,0.09375,0.109375
712,712,1727277009653,-0.52441406,-0.6626587,0.5560913,-0.03125,0.421875,-0.265625
713,713,1727277009693,-0.5151367,-0.67144775,0.55023193,-0.328125,0.328125,-0.4375
714,714,1727277009733,-0.5192871,-0.6643677,0.55096436,0.125,-0.140625,-0.03125
715,715,1727277009773,-0.5168457,-0.6675415,0.55511475,0.359375,-0.09375,0.125
716,716,1727277009813,-0.51782227,-0.66973877,0.5504761,0.15625,0.125,-0.078125
717,717,1727277009853,-0.5148926,-0.6670532,0.5516968,0.046875,0.09375,-0.046875
718,718,1727277009893,-0.5114746,-0.6638794,0.5477905,-0.34375,0.078125,-0.046875
719,719,1727277009933,-0.5246582,-0.6831665,0.55755615,0.046875,0.265625,-0.234375
720,720,1727277009973,-0.513916,-0.6760864,0.5507202,-0.25,0.09375,-0.203125
721,721,1727277010013,-0.5131836,-0.67803955,0.5414429,-0.421875,-0.03125,-0.265625
722,722,1727277010053,-0.5161133,-0.67315674,0.55511475,0.9375,0.34375,-0.28125
723,723,1727277010093,-0.515625,-0.6741333,0.5499878,-0.625,0.21875,-0.296875
724,724,1727277010133,-0.517334,-0.6758423,0.5482788,-0.40625,0.234375,-0.5
725,725,1727277010173,-0.52075195,-0.68414307,0.54852295,-0.03125,0.125,-0.09375
726,726,1727277010213,-0.5187988,-0.67755127,0.54437256,-0.890625,0.453125,-0.546875
727,727,1727277010253,-0.5197754,-0.6831665,0.5529175,-0.4375,0.3125,-0.46875
728,728,1727277010293,-0.513916,-0.67852783,0.55096436,-0.015625,-0.28125,0.0
729,729,1727277010333,-0.5148926,-0.678772,0.5453491,-0.0625,0.28125,-0.34375
730,730,1727277010373,-0.5209961,-0.6802368,0.545105,-0.296875,0.078125,-0.1875
731,731,1727277010413,-0.5168457,-0.68048096,0.5458374,-0.484375,0.171875,0.03125
732,732,1727277010453,-0.5097656,-0.68170166,0.5446167,-0.5,0.34375,-0.28125
733,733,1727277010493,-0.51904297,-0.6712036,0.54608154,-0.515625,0.234375,-0.234375
734,734,1727277010533,-0.52441406,-0.6848755,0.54608154,-0.703125,0.265625,-0.21875
735,735,1727277010573,-0.51464844,-0.677063,0.541687,-0.453125,0.09375,-0.265625
736,736,1727277010613,-0.5041504,-0.6748657,0.5470581,0.03125,0.171875,-0.453125
737,737,1727277010653,-0.5136719,-0.67852783,0.5387573,-1.390625,0.234375,-0.328125
738,738,1727277010693,-0.5227051,-0.6934204,0.5453491,-1.234375,0.6875,-0.625
739,739,1727277010733,-0.5192871,-0.6826782,0.54364014,-0.359375,0.15625,-0.296875
740,740,1727277010773,-0.5151367,-0.67559814,0.5429077,-1.359375,0.796875,-0.6875
741,741,1727277010813,-0.5241699,-0.68096924,0.5438843,-1.296875,0.234375,-0.78125
742,742,1727277010853,-0.5136719,-0.66973877,0.5516968,-0.734375,-0.296875,-0.109375
743,743,1727277010893,-0.51342773,-0.67852783,0.55023193,-0.984375,0.5625,-0.5625
744,744,1727277010933,-0.5263672,-0.67681885,0.55096436,-0.890625,0.375,-0.296875
745,745,1727277010973,-0.52075195,-0.675354,0.5458374,-0.625,0.1875,-0.234375
746,746,1727277011013,-0.51000977,-0.6746216,0.54803467,-1.0,0.140625,-0.40625
747,747,1727277011053,-0.51953125,-0.68096924,0.54022217,-1.046875,0.203125,-0.5
748,748,1727277011093,-0.51831055,-0.6758423,0.54071045,-0.9375,0.203125,-0.421875
749,749,1727277011133,-0.5202637,-0.6807251,0.5441284,-1.015625,0.359375,-0.546875
750,750,1727277011173,-0.5168457,-0.67755127,0.5458374,-1.171875,0.09375,-0.640625
751,751,1727277011213,-0.5202637,-0.6729126,0.55755615,-0.421875,0.265625,-0.78125
752,752,1727277011253,-0.51538086,-0.6777954,0.54608154,-1.703125,0.28125,-0.421875
753,753,1727277011293,-0.52319336,-0.6799927,0.54681396,-1.890625,0.578125,-1.0
754,754,1727277011333,-0.51708984,-0.6773071,0.54730225,-0.375,0.015625,-0.390625
755,755,1727277011373,-0.5144043,-0.6658325,0.5414429,-1.484375,0.171875,-1.015625
