,Unnamed: 0,timestamp,accel_x,accel_y,accel_z,gyro_x,gyro_y,gyro_z
0,0,1727275329534,-0.07714844,-0.9780884,0.20819092,0.15625,-0.453125,-0.515625
1,1,1727275329574,-0.079589844,-0.97491455,0.20599365,0.109375,-0.125,-0.28125
2,2,1727275329614,-0.06518555,-0.9673462,0.21624756,-0.234375,-0.375,-0.09375
3,3,1727275329654,-0.07055664,-0.9776001,0.20233154,-0.65625,-0.21875,-0.15625
4,4,1727275329694,-0.059570312,-0.97052,0.21795654,-0.578125,-0.921875,-0.296875
5,5,1727275329734,-0.07861328,-0.97320557,0.22137451,-0.703125,-1.921875,-0.703125
6,6,1727275329774,-0.08129883,-0.9741821,0.23065186,-0.734375,-0.90625,-0.421875
7,7,1727275329814,-0.07128906,-0.9644165,0.21697998,-1.34375,0.5625,-0.59375
8,8,1727275329854,-0.079589844,-0.9607544,0.2230835,0.21875,-1.078125,0.15625
9,9,1727275329894,-0.06323242,-0.975647,0.20721436,-0.5,-0.015625,-0.578125
10,10,1727275329934,-0.087402344,-0.9639282,0.2086792,-0.171875,-1.34375,-0.421875
11,11,1727275329974,-0.06958008,-0.9697876,0.22357178,0.34375,-0.609375,-0.484375
12,12,1727275330014,-0.07788086,-0.96588135,0.2218628,0.171875,0.328125,0.203125
13,13,1727275330054,-0.07861328,-0.972229,0.21600342,0.484375,-0.21875,-0.09375
14,14,1727275330094,-0.07714844,-0.97491455,0.22821045,0.578125,0.375,0.28125
15,15,1727275330134,-0.07763672,-0.9710083,0.21356201,-0.015625,0.8125,0.1875
16,16,1727275330174,-0.07128906,-0.9636841,0.21917725,0.5625,0.140625,0.046875
17,17,1727275330214,-0.07348633,-0.96881104,0.21575928,0.40625,-0.28125,-0.046875
18,18,1727275330254,-0.06958008,-0.9680786,0.2074585,0.375,0.46875,-0.015625
19,19,1727275330294,-0.072265625,-0.9692993,0.20697021,0.8125,-0.421875,-0.140625
20,20,1727275330334,-0.07373047,-0.97491455,0.21234131,0.171875,-0.53125,-0.09375
21,21,1727275330374,-0.07836914,-0.9751587,0.22113037,0.84375,0.0625,0.015625
22,22,1727275330414,-0.06713867,-0.97247314,0.20721436,-0.296875,0.90625,-0.734375
23,23,1727275330454,-0.08520508,-0.9727173,0.22528076,0.84375,-0.59375,-0.3125
24,24,1727275330494,-0.0637207,-0.9678345,0.1918335,-0.15625,0.59375,-0.921875
25,25,1727275330534,-0.08959961,-0.9788208,0.21722412,0.125,-0.671875,-0.25
26,26,1727275330574,-0.072021484,-0.9729614,0.21942139,0.796875,-0.171875,-0.28125
27,27,1727275330614,-0.06982422,-0.9624634,0.20281982,0.375,0.5,0.453125
28,28,1727275330654,-0.079833984,-0.9702759,0.21917725,0.828125,-0.609375,0.15625
29,29,1727275330694,-0.068115234,-0.97247314,0.2086792,0.671875,0.0,0.171875
30,30,1727275330734,-0.076416016,-0.97003174,0.20843506,0.265625,0.21875,0.140625
31,31,1727275330774,-0.08618164,-0.9717407,0.21844482,0.890625,-0.21875,0.0
32,32,1727275330814,-0.079589844,-0.96588135,0.22015381,0.15625,0.46875,-0.4375
33,33,1727275330854,-0.0871582,-0.97198486,0.20233154,0.234375,0.625,-0.640625
34,34,1727275330894,-0.0703125,-0.9673462,0.21697998,-0.0625,0.53125,-0.734375
35,35,1727275330934,-0.07739258,-0.96539307,0.2074585,-0.03125,0.140625,-1.046875
36,36,1727275330974,-0.072753906,-0.97662354,0.19940186,-0.171875,1.171875,-1.28125
37,37,1727275331014,-0.08227539,-0.97125244,0.2267456,0.140625,0.609375,-1.015625
38,38,1727275331054,-0.078125,-0.97442627,0.19403076,-0.015625,0.640625,-1.171875
39,39,1727275331094,-0.08105469,-0.96588135,0.21038818,-0.484375,1.53125,-1.75
40,40,1727275331134,-0.09301758,-0.97076416,0.22869873,0.25,0.609375,-1.34375
41,41,1727275331174,-0.0871582,-0.97052,0.22015381,0.40625,1.03125,-0.875
42,42,1727275331214,-0.07470703,-0.96954346,0.20404053,0.578125,1.703125,-0.921875
43,43,1727275331254,-0.0847168,-0.9817505,0.22259521,0.75,0.578125,-0.828125
44,44,1727275331294,-0.079589844,-0.9795532,0.21063232,0.984375,0.671875,-0.796875
45,45,1727275331334,-0.087402344,-0.96710205,0.20257568,0.078125,0.96875,-0.125
46,46,1727275331374,-0.08276367,-0.9783325,0.2062378,0.421875,0.0,-0.578125
47,47,1727275331414,-0.0769043,-0.973938,0.20599365,0.578125,1.0,0.125
48,48,1727275331454,-0.07519531,-0.9702759,0.20941162,0.15625,1.46875,0.1875
49,49,1727275331494,-0.08666992,-0.9746704,0.20526123,0.140625,0.296875,0.03125
50,50,1727275331534,-0.0859375,-0.9673462,0.21575928,0.90625,0.484375,0.46875
51,51,1727275331574,-0.07788086,-0.9673462,0.20037842,-0.1875,1.375,-0.234375
52,52,1727275331614,-0.09326172,-0.97125244,0.22381592,0.375,0.140625,0.5
53,53,1727275331654,-0.06274414,-0.97906494,0.19354248,-0.40625,0.953125,-0.484375
54,54,1727275331694,-0.08642578,-0.9685669,0.20697021,0.21875,-0.5,0.171875
55,55,1727275331734,-0.07788086,-0.9783325,0.20648193,0.09375,0.625,0.140625
56,56,1727275331774,-0.0703125,-0.96099854,0.19622803,0.453125,1.078125,0.53125
57,57,1727275331814,-0.080078125,-0.96466064,0.22576904,1.546875,-0.546875,0.703125
58,58,1727275331854,-0.071777344,-0.9795532,0.1954956,0.703125,0.59375,0.5625
59,59,1727275331894,-0.064208984,-0.97247314,0.20062256,0.53125,0.609375,0.75
60,60,1727275331934,-0.08154297,-0.97540283,0.21209717,0.203125,-0.0625,0.65625
61,61,1727275331974,-0.0690918,-0.97857666,0.20526123,0.5,0.21875,0.421875
62,62,1727275332014,-0.072265625,-0.9663696,0.2086792,-0.296875,0.421875,0.609375
63,63,1727275332054,-0.084228516,-0.9746704,0.21307373,-0.171875,0.46875,0.515625
64,64,1727275332094,-0.06347656,-0.9690552,0.2008667,-0.09375,0.171875,0.265625
65,65,1727275332134,-0.068115234,-0.97979736,0.19354248,-0.640625,1.03125,0.21875
66,66,1727275332174,-0.06665039,-0.96710205,0.22235107,0.5,-0.65625,-0.03125
67,67,1727275332214,-0.059570312,-0.9780884,0.19720459,0.359375,-1.265625,0.453125
68,68,1727275332254,-0.07397461,-0.96832275,0.20770264,-0.125,-0.6875,0.140625
69,69,1727275332294,-0.06958008,-0.97247314,0.22015381,0.96875,-0.484375,0.25
70,70,1727275332334,-0.057861328,-0.97613525,0.20379639,0.421875,-0.453125,0.34375
71,71,1727275332374,-0.06933594,-0.9663696,0.20428467,1.015625,-0.15625,0.15625
72,72,1727275332414,-0.056396484,-0.97320557,0.20379639,0.859375,-0.046875,-0.109375
73,73,1727275332454,-0.07055664,-0.96588135,0.20379639,0.78125,0.921875,-0.1875
74,74,1727275332494,-0.06616211,-0.96954346,0.20404053,0.671875,0.359375,-0.234375
75,75,1727275332534,-0.06958008,-0.96588135,0.20037842,0.84375,0.6875,-0.4375
76,76,1727275332574,-0.06689453,-0.9717407,0.20111084,1.0625,0.59375,-0.203125
77,77,1727275332614,-0.06518555,-0.9763794,0.20306396,1.234375,1.328125,-0.203125
78,78,1727275332654,-0.06616211,-0.9758911,0.1930542,0.8125,0.546875,-0.59375
79,79,1727275332694,-0.084472656,-0.975647,0.18865967,0.03125,1.0,-0.421875
80,80,1727275332734,-0.06542969,-0.97784424,0.2111206,0.921875,1.78125,-0.390625
81,81,1727275332774,-0.064697266,-0.97369385,0.19744873,1.484375,0.34375,-0.09375
82,82,1727275332814,-0.06591797,-0.9717407,0.19378662,0.40625,1.46875,-0.671875
83,83,1727275332854,-0.08129883,-0.9758911,0.20379639,0.828125,0.71875,-0.515625
84,84,1727275332894,-0.06274414,-0.9758911,0.1918335,0.921875,0.828125,-0.453125
85,85,1727275332934,-0.06225586,-0.9710083,0.18206787,0.890625,0.984375,-0.359375
86,86,1727275332974,-0.07470703,-0.9751587,0.19720459,0.828125,0.171875,-0.3125
87,87,1727275333014,-0.068603516,-0.97735596,0.1828003,0.765625,0.921875,-0.484375
88,88,1727275333054,-0.06713867,-0.97857666,0.18865967,0.21875,0.8125,-0.0625
89,89,1727275333094,-0.07373047,-0.97857666,0.1942749,0.109375,0.40625,-0.1875
90,90,1727275333134,-0.06274414,-0.97540283,0.1864624,0.1875,0.546875,-0.140625
91,91,1727275333174,-0.06567383,-0.97003174,0.18670654,-0.140625,0.34375,-0.109375
92,92,1727275333214,-0.059570312,-0.9714966,0.18499756,-0.34375,0.3125,-0.296875
93,93,1727275333254,-0.06616211,-0.9795532,0.17034912,-0.765625,0.71875,-0.15625
94,94,1727275333294,-0.067871094,-0.97662354,0.20672607,-0.671875,0.46875,-0.265625
95,95,1727275333334,-0.052001953,-0.9758911,0.18670654,0.140625,0.0,0.0625
96,96,1727275333374,-0.07080078,-0.97320557,0.19378662,-0.890625,0.171875,-0.6875
97,97,1727275333414,-0.07836914,-0.97735596,0.20526123,0.046875,-0.4375,0.125
98,98,1727275333454,-0.059326172,-0.972229,0.1930542,0.140625,0.0,-0.015625
99,99,1727275333494,-0.060791016,-0.97198486,0.18817139,0.609375,0.0625,-0.109375
100,100,1727275333534,-0.07739258,-0.98223877,0.20013428,0.59375,-0.640625,-0.046875
101,101,1727275333574,-0.06274414,-0.9692993,0.19476318,0.484375,0.90625,-0.265625
102,102,1727275333614,-0.07104492,-0.975647,0.19232178,-0.109375,-0.09375,-0.109375
103,103,1727275333654,-0.07006836,-0.9751587,0.20379639,0.328125,-0.5,-0.421875
104,104,1727275333694,-0.06347656,-0.9771118,0.19378662,-0.03125,-0.6875,-0.296875
105,105,1727275333734,-0.0703125,-0.9741821,0.18817139,-0.515625,-1.140625,-0.34375
106,106,1727275333774,-0.07446289,-0.9741821,0.19451904,-0.859375,-0.53125,-0.171875
107,107,1727275333814,-0.064697266,-0.9805298,0.18060303,-1.0625,-0.015625,-0.0625
108,108,1727275333854,-0.06591797,-0.96954346,0.20819092,-0.484375,-0.75,-0.125
109,109,1727275333894,-0.0637207,-0.97076416,0.20550537,-0.734375,-0.1875,0.34375
110,110,1727275333934,-0.068603516,-0.9763794,0.19818115,-1.0,0.484375,-0.515625
111,111,1727275333974,-0.064697266,-0.97735596,0.21185303,0.046875,-0.015625,0.203125
112,112,1727275334014,-0.05908203,-0.9714966,0.1984253,0.015625,0.671875,0.640625
113,113,1727275334054,-0.07128906,-0.9714966,0.1954956,-0.109375,0.953125,0.203125
114,114,1727275334094,-0.053710938,-0.9812622,0.2074585,0.546875,0.1875,0.0625
115,115,1727275334134,-0.060546875,-0.96954346,0.19696045,0.25,0.78125,0.046875
116,116,1727275334174,-0.068847656,-0.97784424,0.199646,0.03125,0.328125,-0.265625
117,117,1727275334214,-0.061035156,-0.972229,0.20159912,0.046875,-0.109375,-0.53125
118,118,1727275334254,-0.060058594,-0.973938,0.199646,-0.015625,0.65625,-0.359375
119,119,1727275334294,-0.05126953,-0.96539307,0.19622803,-0.421875,-0.71875,0.59375
120,120,1727275334334,-0.06225586,-0.9819946,0.20281982,0.0625,-0.6875,0.0625
121,121,1727275334374,-0.07543945,-0.9783325,0.20135498,-0.359375,0.84375,-0.25
122,122,1727275334414,-0.064453125,-0.9668579,0.2218628,0.0625,0.171875,-0.265625
123,123,1727275334454,-0.061523438,-0.9727173,0.20159912,-0.28125,-0.734375,0.140625
124,124,1727275334494,-0.05834961,-0.97540283,0.20501709,-0.4375,-0.1875,-0.546875
125,125,1727275334534,-0.059814453,-0.9746704,0.22332764,0.09375,-0.796875,-0.359375
126,126,1727275334574,-0.05810547,-0.9636841,0.20599365,0.125,-0.90625,0.0
127,127,1727275334614,-0.08129883,-0.972229,0.21185303,0.5625,-1.171875,-0.359375
128,128,1727275334654,-0.07373047,-0.97979736,0.22039795,1.125,-1.015625,-0.453125
129,129,1727275334694,-0.068115234,-0.97784424,0.2033081,0.796875,0.28125,-0.78125
130,130,1727275334734,-0.06982422,-0.96881104,0.20135498,0.484375,0.328125,-0.796875
131,131,1727275334774,-0.064453125,-0.9661255,0.21282959,0.265625,-0.59375,-0.6875
132,132,1727275334814,-0.06616211,-0.97247314,0.20184326,-0.21875,0.921875,-0.984375
133,133,1727275334854,-0.06762695,-0.96759033,0.2111206,-0.484375,0.359375,-0.828125
134,134,1727275334894,-0.06958008,-0.9656372,0.2189331,-0.234375,1.203125,-0.921875
135,135,1727275334934,-0.06591797,-0.9702759,0.19500732,-0.90625,2.0625,-1.171875
136,136,1727275334974,-0.07836914,-0.96759033,0.21917725,0.890625,0.3125,-0.578125
137,137,1727275335014,-0.05810547,-0.9819946,0.18890381,-0.421875,0.40625,-0.609375
138,138,1727275335054,-0.0859375,-0.9692993,0.22015381,0.0,0.171875,-0.859375
139,139,1727275335094,-0.06958008,-0.97491455,0.22576904,0.328125,0.96875,-0.515625
140,140,1727275335134,-0.06347656,-0.9651489,0.19769287,0.453125,0.453125,0.0
141,141,1727275335174,-0.0715332,-0.9697876,0.21014404,1.125,-0.375,-0.421875
142,142,1727275335214,-0.06762695,-0.96759033,0.20477295,0.875,0.296875,-0.421875
143,143,1727275335254,-0.083740234,-0.9758911,0.20404053,0.671875,0.140625,-0.1875
144,144,1727275335294,-0.0690918,-0.9788208,0.20648193,0.734375,0.09375,-0.34375
145,145,1727275335334,-0.06567383,-0.9661255,0.21356201,2.3125,-0.53125,0.109375
146,146,1727275335374,-0.07299805,-0.9727173,0.1984253,1.765625,-0.453125,0.296875
147,147,1727275335414,-0.068359375,-0.9680786,0.19525146,1.140625,-0.296875,0.046875
148,148,1727275335454,-0.072021484,-0.97247314,0.18988037,0.390625,-0.453125,0.28125
149,149,1727275335494,-0.07104492,-0.96832275,0.20843506,0.671875,0.21875,-0.296875
150,150,1727275335534,-0.061523438,-0.9680786,0.20111084,0.890625,-0.3125,0.453125
151,151,1727275335574,-0.060058594,-0.9734497,0.18621826,-0.859375,0.75,-0.53125
152,152,1727275335614,-0.07763672,-0.9788208,0.19622803,0.140625,0.1875,-0.171875
153,153,1727275335654,-0.060058594,-0.9661255,0.18963623,0.703125,0.5,-0.171875
154,154,1727275335694,-0.07714844,-0.97003174,0.18988037,0.5625,0.421875,-0.1875
155,155,1727275335734,-0.072509766,-0.9795532,0.199646,0.390625,0.265625,-0.078125
156,156,1727275335774,-0.06225586,-0.972229,0.1942749,0.75,1.0625,-0.484375
157,157,1727275335814,-0.06567383,-0.9734497,0.1918335,-0.1875,0.203125,-0.125
158,158,1727275335854,-0.064453125,-0.9758911,0.19720459,0.390625,0.171875,-0.25
159,159,1727275335894,-0.059326172,-0.97784424,0.1984253,0.625,0.203125,0.125
160,160,1727275335934,-0.064697266,-0.9795532,0.19329834,0.046875,-0.328125,-0.015625
161,161,1727275335974,-0.06738281,-0.9800415,0.18865967,0.078125,-0.109375,-0.296875
162,162,1727275336014,-0.07006836,-0.9805298,0.17718506,-0.6875,0.515625,-0.3125
163,163,1727275336054,-0.07055664,-0.96881104,0.21478271,0.140625,0.015625,-0.609375
164,164,1727275336094,-0.05834961,-0.9734497,0.19720459,0.375,-0.4375,0.609375
165,165,1727275336134,-0.064697266,-0.9807739,0.1828003,-0.34375,0.40625,-0.6875
166,166,1727275336174,-0.06738281,-0.97198486,0.2074585,0.4375,0.4375,-0.4375
167,167,1727275336214,-0.068603516,-0.973938,0.19110107,0.390625,0.8125,0.171875
168,168,1727275336254,-0.06982422,-0.97052,0.1942749,0.09375,0.84375,-0.71875
169,169,1727275336294,-0.06518555,-0.9883423,0.19036865,0.6875,-0.046875,-0.390625
170,170,1727275336334,-0.064208984,-0.9751587,0.18621826,0.53125,0.4375,-0.421875
171,171,1727275336374,-0.07373047,-0.975647,0.19671631,-0.390625,0.359375,-0.53125
172,172,1727275336414,-0.06616211,-0.97979736,0.19451904,-0.015625,0.234375,-0.34375
173,173,1727275336454,-0.07421875,-0.9768677,0.1930542,-0.21875,0.765625,-0.234375
174,174,1727275336494,-0.061767578,-0.9805298,0.20111084,-0.109375,0.171875,-0.296875
175,175,1727275336534,-0.07788086,-0.972229,0.19500732,-0.140625,0.4375,-0.359375
176,176,1727275336574,-0.06542969,-0.9768677,0.17938232,-0.734375,1.453125,-0.65625
177,177,1727275336614,-0.075927734,-0.9678345,0.22064209,0.03125,-0.328125,-0.359375
178,178,1727275336654,-0.06640625,-0.97662354,0.18597412,-0.546875,0.34375,-0.4375
179,179,1727275336694,-0.078125,-0.97247314,0.19818115,-1.046875,-0.40625,-0.796875
180,180,1727275336734,-0.067871094,-0.9729614,0.21697998,-0.375,-0.34375,-0.484375
181,181,1727275336774,-0.07421875,-0.97320557,0.19720459,-0.265625,0.109375,-0.078125
182,182,1727275336814,-0.080078125,-0.972229,0.21307373,0.171875,-0.359375,-0.171875
183,183,1727275336854,-0.068359375,-0.9805298,0.19989014,0.1875,-0.1875,-0.484375
184,184,1727275336894,-0.08251953,-0.97198486,0.20062256,0.28125,-0.0625,-0.15625
185,185,1727275336934,-0.06518555,-0.973938,0.20770264,-0.171875,-0.296875,-0.25
186,186,1727275336974,-0.07348633,-0.9714966,0.2074585,0.40625,0.265625,-0.171875
187,187,1727275337014,-0.07519531,-0.9834595,0.20062256,0.15625,0.078125,-0.1875
188,188,1727275337054,-0.07397461,-0.9710083,0.20672607,0.21875,-0.453125,-0.484375
189,189,1727275337094,-0.071777344,-0.97198486,0.19940186,-0.015625,-0.015625,-0.625
190,190,1727275337134,-0.064208984,-0.97003174,0.17645264,-1.5,1.03125,-1.078125
191,191,1727275337174,-0.080078125,-0.9692993,0.2218628,0.578125,-0.03125,-0.28125
192,192,1727275337214,-0.06762695,-0.98150635,0.1918335,-0.328125,-0.140625,-0.109375
193,193,1727275337254,-0.080322266,-0.96588135,0.21453857,0.203125,-0.40625,-0.65625
194,194,1727275337294,-0.071777344,-0.9780884,0.21453857,0.546875,0.03125,-0.046875
195,195,1727275337334,-0.076416016,-0.956604,0.19476318,0.8125,-0.015625,0.296875
196,196,1727275337374,-0.08300781,-0.97540283,0.20672607,1.15625,-0.53125,0.0625
197,197,1727275337414,-0.068847656,-0.972229,0.20404053,0.8125,0.40625,-0.296875
198,198,1727275337454,-0.08251953,-0.97369385,0.19500732,0.8125,-0.453125,-0.09375
199,199,1727275337494,-0.06958008,-0.97003174,0.20916748,0.578125,-0.53125,-0.109375
200,200,1727275337534,-0.06689453,-0.97003174,0.19671631,1.140625,-0.09375,-0.28125
201,201,1727275337574,-0.076416016,-0.97247314,0.19696045,0.4375,-0.125,-0.140625
202,202,1727275337614,-0.076416016,-0.97735596,0.19793701,0.703125,-0.40625,-0.390625
203,203,1727275337654,-0.0715332,-0.9734497,0.18817139,0.0625,0.1875,-0.3125
204,204,1727275337694,-0.068115234,-0.97857666,0.17645264,-0.59375,0.765625,-0.453125
205,205,1727275337734,-0.07446289,-0.9734497,0.230896,0.09375,0.21875,-0.65625
206,206,1727275337774,-0.0715332,-0.97320557,0.18426514,-0.265625,0.015625,-0.203125
207,207,1727275337814,-0.07788086,-0.96661377,0.20819092,-0.84375,0.109375,-1.03125
208,208,1727275337854,-0.06689453,-0.97540283,0.21087646,-0.0625,0.03125,-0.34375
209,209,1727275337894,-0.06201172,-0.96954346,0.1930542,0.203125,0.171875,0.109375
210,210,1727275337934,-0.07910156,-0.96710205,0.20184326,0.28125,0.0,-0.1875
211,211,1727275337974,-0.079833984,-0.98638916,0.20452881,0.875,0.0625,0.171875
212,212,1727275338014,-0.07104492,-0.97076416,0.18719482,0.359375,0.03125,0.0625
213,213,1727275338054,-0.076660156,-0.9685669,0.19769287,0.765625,-0.234375,0.140625
214,214,1727275338094,-0.068603516,-0.97198486,0.20062256,0.578125,-0.25,0.375
215,215,1727275338134,-0.07299805,-0.9768677,0.18988037,0.765625,-0.0625,0.125
216,216,1727275338174,-0.064453125,-0.98101807,0.18914795,0.78125,-0.046875,0.40625
217,217,1727275338214,-0.06591797,-0.9768677,0.20355225,1.375,-0.078125,0.625
218,218,1727275338254,-0.07055664,-0.9680786,0.20013428,1.203125,0.390625,0.140625
219,219,1727275338294,-0.072509766,-0.9746704,0.18621826,0.515625,1.4375,-0.09375
220,220,1727275338334,-0.079589844,-0.97491455,0.21429443,1.3125,-0.4375,0.359375
221,221,1727275338374,-0.0637207,-0.9800415,0.17645264,0.609375,0.78125,0.09375
222,222,1727275338414,-0.084228516,-0.9714966,0.18572998,0.25,0.0,-0.046875
223,223,1727275338454,-0.06347656,-0.9805298,0.19281006,0.734375,0.78125,0.03125
224,224,1727275338494,-0.075927734,-0.97125244,0.18499756,0.484375,0.859375,-0.078125
225,225,1727275338534,-0.07055664,-0.97613525,0.19720459,0.765625,0.234375,-0.046875
226,226,1727275338574,-0.068359375,-0.9788208,0.18450928,0.25,1.125,-0.390625
227,227,1727275338614,-0.06616211,-0.9771118,0.18353271,-0.296875,0.25,0.125
228,228,1727275338654,-0.06616211,-0.97442627,0.19329834,0.0625,0.0,-0.078125
229,229,1727275338694,-0.068359375,-0.96954346,0.18548584,0.109375,0.40625,-0.015625
230,230,1727275338734,-0.07080078,-0.97369385,0.19403076,-0.328125,0.40625,0.03125
231,231,1727275338774,-0.064453125,-0.9758911,0.19500732,-0.453125,0.734375,-0.40625
232,232,1727275338814,-0.064453125,-0.9727173,0.18548584,-0.203125,0.25,-0.203125
233,233,1727275338854,-0.06347656,-0.9829712,0.19036865,-0.40625,-0.09375,-0.25
234,234,1727275338894,-0.06982422,-0.9729614,0.17547607,-1.015625,0.796875,-0.609375
235,235,1727275338934,-0.06665039,-0.9656372,0.21820068,0.0,-0.265625,-0.390625
236,236,1727275338974,-0.06298828,-0.97540283,0.17767334,-0.640625,-0.65625,-0.109375
237,237,1727275339014,-0.08544922,-0.9793091,0.1918335,-0.796875,-0.53125,-0.5
238,238,1727275339054,-0.053466797,-0.96881104,0.2033081,-0.1875,0.15625,-0.25
239,239,1727275339094,-0.071777344,-0.9656372,0.19403076,0.828125,-0.078125,-0.203125
240,240,1727275339134,-0.06933594,-0.98101807,0.20281982,0.40625,0.296875,-0.0625
241,241,1727275339174,-0.068847656,-0.9763794,0.19378662,0.625,0.34375,-0.390625
242,242,1727275339214,-0.07080078,-0.97735596,0.1876831,0.0625,0.0625,-0.046875
243,243,1727275339254,-0.07128906,-0.9734497,0.20477295,0.515625,-0.25,0.09375
244,244,1727275339294,-0.0703125,-0.97320557,0.19256592,0.296875,0.25,0.03125
245,245,1727275339334,-0.0625,-0.9714966,0.1930542,0.359375,0.328125,-0.359375
246,246,1727275339374,-0.068847656,-0.9807739,0.19647217,0.34375,-0.0625,-0.140625
247,247,1727275339414,-0.0703125,-0.972229,0.19866943,0.015625,0.421875,-0.078125
248,248,1727275339454,-0.06323242,-0.9768677,0.20013428,0.421875,0.28125,-0.15625
249,249,1727275339494,-0.064208984,-0.9714966,0.19232178,0.203125,0.21875,-0.234375
250,250,1727275339534,-0.052246094,-0.9807739,0.16864014,-0.734375,0.84375,-0.484375
251,251,1727275339574,-0.07885742,-0.9690552,0.22015381,0.375,-0.109375,-0.359375
252,252,1727275339614,-0.053466797,-0.97247314,0.17034912,-0.625,0.328125,-0.359375
253,253,1727275339654,-0.09082031,-0.98028564,0.20599365,0.171875,-0.21875,-0.265625
254,254,1727275339694,-0.06323242,-0.97662354,0.19476318,0.890625,0.546875,0.125
255,255,1727275339734,-0.068359375,-0.9678345,0.17718506,0.796875,0.03125,0.0
256,256,1727275339774,-0.0703125,-0.9780884,0.2074585,0.6875,-0.46875,0.0625
257,257,1727275339814,-0.05908203,-0.972229,0.18475342,0.453125,-0.078125,-0.125
258,258,1727275339854,-0.07861328,-0.9751587,0.18206787,0.1875,-0.65625,0.09375
259,259,1727275339894,-0.064697266,-0.9793091,0.1942749,0.578125,-0.109375,-0.1875
260,260,1727275339934,-0.06616211,-0.97320557,0.19110107,0.65625,-0.0625,-0.21875
261,261,1727275339974,-0.06274414,-0.972229,0.19500732,0.3125,-0.0625,-0.359375
262,262,1727275340014,-0.060058594,-0.97784424,0.18865967,-0.109375,-0.171875,-0.234375
263,263,1727275340054,-0.06274414,-0.97247314,0.18621826,0.0,-0.5,0.078125
264,264,1727275340094,-0.0637207,-0.97369385,0.19036865,0.546875,-0.171875,-0.09375
265,265,1727275340134,-0.06616211,-0.9776001,0.1864624,0.0,-0.5,-0.125
266,266,1727275340174,-0.06347656,-0.9829712,0.16668701,-0.8125,0.484375,-0.671875
267,267,1727275340214,-0.072753906,-0.96466064,0.2177124,0.578125,-0.328125,-0.1875
268,268,1727275340254,-0.06542969,-0.9859009,0.17303467,-0.15625,-0.0625,-0.125
269,269,1727275340294,-0.07299805,-0.96881104,0.19696045,-0.265625,-0.546875,-0.5
270,270,1727275340334,-0.061523438,-0.9817505,0.20965576,0.828125,-0.09375,0.0625
271,271,1727275340374,-0.06640625,-0.96832275,0.18475342,0.765625,0.46875,-0.046875
272,272,1727275340414,-0.068359375,-0.9680786,0.19354248,0.703125,0.328125,-0.1875
273,273,1727275340454,-0.06738281,-0.9817505,0.1942749,0.859375,0.5625,-0.234375
274,274,1727275340494,-0.068847656,-0.9824829,0.18695068,0.03125,0.421875,-0.203125
275,275,1727275340534,-0.06274414,-0.97198486,0.19622803,0.484375,0.5,-0.4375
276,276,1727275340574,-0.06323242,-0.9734497,0.19500732,0.203125,0.328125,-0.125
277,277,1727275340614,-0.06689453,-0.9763794,0.1828003,-0.171875,0.828125,-0.421875
278,278,1727275340654,-0.06518555,-0.97979736,0.18695068,-0.25,0.984375,-0.34375
279,279,1727275340694,-0.07128906,-0.97369385,0.19207764,-0.328125,0.34375,-0.234375
280,280,1727275340734,-0.07446289,-0.9741821,0.19329834,0.171875,0.359375,0.09375
281,281,1727275340774,-0.06933594,-0.97076416,0.18817139,0.390625,0.65625,-0.171875
282,282,1727275340814,-0.05834961,-0.9783325,0.18084717,-0.9375,1.375,-0.1875
283,283,1727275340854,-0.064697266,-0.9729614,0.2062378,0.421875,0.078125,-0.15625
284,284,1727275340894,-0.051513672,-0.9817505,0.18475342,0.078125,0.71875,0.0
285,285,1727275340934,-0.078125,-0.9729614,0.18499756,-0.484375,-0.125,-0.46875
286,286,1727275340974,-0.052978516,-0.9788208,0.19989014,0.28125,0.40625,-0.046875
287,287,1727275341014,-0.068115234,-0.9710083,0.19329834,0.9375,-0.203125,0.03125
288,288,1727275341054,-0.0703125,-0.9714966,0.19989014,0.78125,0.09375,0.015625
289,289,1727275341094,-0.05834961,-0.97491455,0.18695068,-0.03125,0.390625,-0.71875
290,290,1727275341134,-0.0637207,-0.9793091,0.18939209,-0.3125,-0.046875,-0.53125
291,291,1727275341174,-0.076660156,-0.97613525,0.20501709,0.140625,-0.53125,-0.640625
292,292,1727275341214,-0.064697266,-0.9656372,0.18963623,0.0625,-0.640625,-0.28125
293,293,1727275341254,-0.057861328,-0.9746704,0.19110107,0.046875,-0.484375,-0.21875
294,294,1727275341294,-0.06933594,-0.9768677,0.19451904,0.3125,-0.265625,-0.21875
295,295,1727275341334,-0.06933594,-0.9734497,0.1906128,0.125,0.078125,-0.109375
296,296,1727275341374,-0.064208984,-0.9758911,0.19818115,0.625,-0.453125,0.171875
297,297,1727275341414,-0.06298828,-0.9746704,0.18182373,0.6875,0.0,-0.203125
298,298,1727275341454,-0.060302734,-0.9807739,0.16571045,-0.765625,1.3125,-0.59375
299,299,1727275341494,-0.068603516,-0.96954346,0.20721436,1.03125,-0.265625,-0.09375
300,300,1727275341534,-0.05078125,-0.9854126,0.16766357,-0.21875,0.515625,-0.265625
301,301,1727275341574,-0.07714844,-0.9710083,0.19915771,-0.203125,0.484375,-0.6875
302,302,1727275341614,-0.055664062,-0.98223877,0.19744873,0.59375,0.609375,-0.15625
303,303,1727275341654,-0.051513672,-0.96295166,0.18157959,0.453125,0.453125,-0.125
304,304,1727275341694,-0.068603516,-0.9771118,0.19940186,0.5625,-0.203125,-0.328125
305,305,1727275341734,-0.055908203,-0.97784424,0.18914795,-0.140625,0.625,-0.15625
306,306,1727275341774,-0.06616211,-0.9741821,0.17156982,-0.203125,-0.390625,-0.09375
307,307,1727275341814,-0.05908203,-0.98150635,0.20233154,0.375,-0.171875,-0.4375
308,308,1727275341854,-0.06567383,-0.9697876,0.18890381,0.40625,-0.109375,-0.140625
309,309,1727275341894,-0.06567383,-0.975647,0.1918335,-0.09375,-0.015625,-0.5
310,310,1727275341934,-0.0637207,-0.9717407,0.18890381,-0.109375,0.28125,-0.5
311,311,1727275341974,-0.06713867,-0.97247314,0.19232178,0.0,0.0,-0.390625
312,312,1727275342014,-0.06689453,-0.97906494,0.18621826,0.078125,-0.5625,-0.484375
313,313,1727275342054,-0.0625,-0.97369385,0.18426514,-0.125,0.171875,-0.59375
314,314,1727275342094,-0.048095703,-0.97613525,0.15887451,-1.265625,1.5,-1.265625
315,315,1727275342134,-0.07519531,-0.9680786,0.22064209,0.0625,-0.03125,-0.421875
316,316,1727275342174,-0.05908203,-0.9788208,0.16986084,-0.921875,0.265625,-0.875
317,317,1727275342214,-0.08935547,-0.9656372,0.20452881,-0.421875,-0.328125,-0.8125
318,318,1727275342254,-0.060302734,-0.9824829,0.21136475,0.453125,0.453125,-0.578125
319,319,1727275342294,-0.06982422,-0.9651489,0.17840576,0.21875,0.5625,-0.21875
320,320,1727275342334,-0.07763672,-0.9771118,0.20648193,-0.4375,0.546875,-0.421875
321,321,1727275342374,-0.07128906,-0.98272705,0.20037842,-0.375,0.734375,-0.5
322,322,1727275342414,-0.075683594,-0.97320557,0.1906128,-1.421875,0.78125,-0.5625
323,323,1727275342454,-0.06274414,-0.9697876,0.20062256,-0.34375,0.078125,-0.359375
324,324,1727275342494,-0.072753906,-0.97540283,0.21136475,-0.28125,-0.15625,-0.15625
325,325,1727275342534,-0.06933594,-0.9758911,0.1984253,-0.28125,-0.1875,-0.578125
326,326,1727275342574,-0.0703125,-0.9651489,0.20184326,-0.328125,-0.40625,-0.40625
327,327,1727275342614,-0.064697266,-0.9685669,0.19720459,0.109375,-0.46875,-0.234375
328,328,1727275342654,-0.07495117,-0.97906494,0.20159912,0.015625,-0.5625,-0.34375
329,329,1727275342694,-0.07080078,-0.96881104,0.21282959,0.25,-0.34375,-0.375
330,330,1727275342734,-0.07006836,-0.96954346,0.19378662,-0.78125,0.8125,-0.703125
331,331,1727275342774,-0.08496094,-0.96881104,0.21697998,0.5,-1.296875,0.0
332,332,1727275342814,-0.05419922,-0.9763794,0.18841553,0.28125,0.0625,-0.375
333,333,1727275342854,-0.08227539,-0.9661255,0.20550537,0.015625,-0.859375,-0.21875
334,334,1727275342894,-0.06933594,-0.9859009,0.21600342,0.75,-0.09375,0.15625
335,335,1727275342934,-0.07470703,-0.9612427,0.2033081,0.546875,0.078125,-0.03125
336,336,1727275342974,-0.075683594,-0.96221924,0.22039795,0.71875,-0.1875,0.265625
337,337,1727275343014,-0.068847656,-0.9717407,0.19403076,0.21875,0.296875,-0.3125
338,338,1727275343054,-0.07470703,-0.9763794,0.2086792,-0.25,-0.328125,-0.09375
339,339,1727275343094,-0.087890625,-0.97784424,0.21600342,-0.171875,-1.0,-0.625
340,340,1727275343134,-0.07397461,-0.97247314,0.21258545,-0.125,0.578125,-0.328125
341,341,1727275343174,-0.08276367,-0.9710083,0.20965576,-0.234375,0.546875,-0.5625
342,342,1727275343214,-0.08642578,-0.97052,0.21160889,-0.28125,0.53125,-0.5625
343,343,1727275343254,-0.07763672,-0.97003174,0.2164917,-0.25,0.734375,-0.3125
344,344,1727275343294,-0.076660156,-0.97662354,0.21844482,-0.5,0.109375,-0.25
345,345,1727275343334,-0.08276367,-0.96759033,0.22039795,0.03125,-0.6875,-0.140625
346,346,1727275343374,-0.06713867,-0.9685669,0.21697998,-0.890625,1.34375,-0.96875
347,347,1727275343414,-0.08935547,-0.9631958,0.2333374,0.015625,-0.734375,0.265625
348,348,1727275343454,-0.072509766,-0.9734497,0.20379639,-0.828125,1.734375,-1.546875
349,349,1727275343494,-0.08862305,-0.96295166,0.22650146,0.296875,1.109375,-0.5
350,350,1727275343534,-0.06762695,-0.9710083,0.21087646,0.3125,0.484375,-0.390625
351,351,1727275343574,-0.0847168,-0.9685669,0.2062378,0.609375,0.15625,-0.34375
352,352,1727275343614,-0.076171875,-0.97247314,0.21282959,0.6875,-0.1875,0.0625
353,353,1727275343654,-0.07495117,-0.96417236,0.20794678,0.578125,-0.015625,-0.25
354,354,1727275343694,-0.080078125,-0.9690552,0.20697021,0.203125,-0.09375,-0.046875
355,355,1727275343734,-0.072021484,-0.9697876,0.20916748,0.015625,-0.34375,0.078125
356,356,1727275343774,-0.07080078,-0.9714966,0.20013428,0.515625,-0.375,-0.03125
357,357,1727275343814,-0.08178711,-0.972229,0.20892334,0.671875,-0.078125,-0.15625
358,358,1727275343854,-0.07495117,-0.96661377,0.20965576,1.046875,-0.359375,0.34375
359,359,1727275343894,-0.080566406,-0.97320557,0.20965576,1.015625,-0.265625,0.046875
360,360,1727275343934,-0.076171875,-0.9702759,0.2086792,0.90625,-0.015625,-0.0625
361,361,1727275343974,-0.07055664,-0.9846802,0.1798706,-0.109375,0.703125,0.015625
362,362,1727275344014,-0.07080078,-0.96417236,0.22991943,1.03125,0.515625,-0.328125
363,363,1727275344054,-0.07470703,-0.9793091,0.19134521,0.734375,-0.03125,0.125
364,364,1727275344094,-0.084472656,-0.97491455,0.21795654,0.625,0.75,-0.625
365,365,1727275344134,-0.06713867,-0.9727173,0.20404053,1.265625,1.53125,-0.078125
366,366,1727275344174,-0.0546875,-0.95440674,0.18450928,1.078125,0.9375,0.0
367,367,1727275344214,-0.076171875,-0.97003174,0.20843506,1.421875,0.484375,-0.453125
368,368,1727275344254,-0.06640625,-0.9812622,0.19451904,1.28125,0.796875,-0.15625
369,369,1727275344294,-0.07739258,-0.9690552,0.18817139,0.859375,0.96875,-0.1875
370,370,1727275344334,-0.064941406,-0.9734497,0.19525146,0.671875,0.234375,-0.09375
371,371,1727275344374,-0.05859375,-0.97076416,0.18988037,0.8125,0.65625,0.046875
372,372,1727275344414,-0.07006836,-0.972229,0.18206787,0.328125,0.703125,-0.140625
373,373,1727275344454,-0.060546875,-0.97662354,0.20111084,0.125,-1.0625,-0.21875
374,374,1727275344494,-0.07739258,-0.98223877,0.18865967,0.40625,0.203125,-0.34375
375,375,1727275344534,-0.06933594,-0.97198486,0.18475342,-0.015625,0.4375,-0.453125
376,376,1727275344574,-0.07128906,-0.98394775,0.19207764,-0.046875,0.21875,-0.421875
377,377,1727275344614,-0.076416016,-0.972229,0.20916748,-0.546875,0.640625,-0.859375
378,378,1727275344654,-0.076416016,-0.97052,0.19622803,-0.21875,0.03125,-0.046875
379,379,1727275344694,-0.06274414,-0.9751587,0.19720459,-0.9375,1.125,-1.078125
380,380,1727275344734,-0.08227539,-0.9758911,0.20794678,-0.59375,0.328125,-0.203125
381,381,1727275344774,-0.05810547,-0.97857666,0.1954956,-0.03125,0.625,-0.53125
382,382,1727275344814,-0.06518555,-0.96466064,0.19110107,0.421875,-0.25,-0.46875
383,383,1727275344854,-0.076660156,-0.97979736,0.19647217,0.859375,-0.109375,-0.625
384,384,1727275344894,-0.08203125,-0.97906494,0.1984253,0.484375,0.328125,-0.484375
385,385,1727275344934,-0.07397461,-0.97125244,0.19720459,0.203125,0.21875,-0.4375
386,386,1727275344974,-0.07446289,-0.9690552,0.2062378,0.09375,0.140625,-0.46875
387,387,1727275345014,-0.07324219,-0.9788208,0.19573975,0.71875,0.359375,-0.3125
388,388,1727275345054,-0.079589844,-0.9685669,0.19110107,0.09375,0.40625,-0.59375
389,389,1727275345094,-0.07495117,-0.9702759,0.19012451,0.46875,0.34375,-0.359375
390,390,1727275345134,-0.07739258,-0.98223877,0.18695068,0.703125,0.0625,-0.484375
391,391,1727275345174,-0.0769043,-0.9727173,0.19158936,0.3125,0.09375,-0.234375
392,392,1727275345214,-0.07324219,-0.96832275,0.19940186,-0.34375,0.78125,-1.0
393,393,1727275345254,-0.087402344,-0.9824829,0.2033081,-0.03125,-1.03125,0.296875
394,394,1727275345294,-0.07543945,-0.9680786,0.19451904,-0.734375,0.5,-1.171875
395,395,1727275345334,-0.088378906,-0.9680786,0.21575928,0.25,-0.15625,-0.359375
396,396,1727275345374,-0.07324219,-0.9717407,0.2074585,0.125,0.578125,0.09375
397,397,1727275345414,-0.08691406,-0.96759033,0.20013428,-0.0625,0.75,-0.625
398,398,1727275345454,-0.07788086,-0.9758911,0.20428467,-0.359375,0.53125,-0.40625
399,399,1727275345494,-0.07763672,-0.9768677,0.19696045,-0.25,-0.015625,-0.4375
400,400,1727275345534,-0.09057617,-0.96343994,0.20819092,-0.53125,0.5625,-0.609375
401,401,1727275345574,-0.09277344,-0.9692993,0.21844482,-0.75,0.5,-0.765625
402,402,1727275345614,-0.087402344,-0.9690552,0.20770264,-1.171875,0.796875,-1.03125
403,403,1727275345654,-0.0847168,-0.97198486,0.20379639,-1.3125,0.453125,-0.875
404,404,1727275345694,-0.07861328,-0.97491455,0.2177124,-1.546875,1.0625,-1.296875
405,405,1727275345734,-0.083984375,-0.96539307,0.21331787,-0.890625,1.375,-0.796875
406,406,1727275345774,-0.087890625,-0.9793091,0.20843506,-0.265625,-0.25,-0.265625
407,407,1727275345814,-0.0769043,-0.9627075,0.22821045,-0.46875,1.28125,-0.9375
408,408,1727275345854,-0.08496094,-0.9685669,0.21990967,0.234375,-0.140625,0.328125
409,409,1727275345894,-0.09472656,-0.9663696,0.21478271,0.265625,0.4375,-1.203125
410,410,1727275345934,-0.095458984,-0.9639282,0.230896,0.6875,0.578125,-0.109375
411,411,1727275345974,-0.07836914,-0.96661377,0.20306396,0.578125,0.578125,0.03125
412,412,1727275346014,-0.08862305,-0.9678345,0.21234131,1.328125,0.3125,-0.25
413,413,1727275346054,-0.091308594,-0.9710083,0.21282959,0.9375,0.53125,-0.25
414,414,1727275346094,-0.08935547,-0.97125244,0.21014404,0.734375,0.78125,-0.3125
415,415,1727275346134,-0.092285156,-0.97442627,0.21990967,-0.265625,0.921875,-0.296875
416,416,1727275346174,-0.08984375,-0.96661377,0.21429443,0.5,0.578125,0.171875
417,417,1727275346214,-0.08203125,-0.97540283,0.21136475,0.9375,0.8125,0.0625
418,418,1727275346254,-0.083740234,-0.9717407,0.20501709,0.734375,0.3125,0.34375
419,419,1727275346294,-0.08520508,-0.97076416,0.21087646,0.609375,0.203125,0.40625
420,420,1727275346334,-0.08276367,-0.9668579,0.20062256,0.5625,0.90625,-0.078125
421,421,1727275346374,-0.07421875,-0.9746704,0.17889404,-0.28125,1.25,-0.125
422,422,1727275346414,-0.092041016,-0.96221924,0.22601318,1.046875,0.171875,0.421875
423,423,1727275346454,-0.0690918,-0.97784424,0.17938232,0.578125,-0.046875,0.015625
424,424,1727275346494,-0.09863281,-0.972229,0.22137451,0.53125,0.34375,0.171875
425,425,1727275346534,-0.063964844,-0.9714966,0.20184326,1.171875,0.5,-0.25
426,426,1727275346574,-0.07348633,-0.9619751,0.18792725,0.90625,-0.171875,0.40625
427,427,1727275346614,-0.08178711,-0.9788208,0.20599365,1.234375,-0.421875,0.21875
428,428,1727275346654,-0.07397461,-0.97052,0.18377686,0.65625,0.15625,-0.078125
429,429,1727275346694,-0.07861328,-0.97369385,0.18670654,0.140625,-0.234375,-0.015625
430,430,1727275346734,-0.076416016,-0.9788208,0.1954956,0.359375,-0.1875,-0.234375
431,431,1727275346774,-0.07104492,-0.9692993,0.19378662,0.515625,-0.28125,-0.015625
432,432,1727275346814,-0.08203125,-0.9771118,0.19158936,-0.046875,-0.546875,-0.234375
433,433,1727275346854,-0.075683594,-0.97491455,0.19281006,-0.046875,-0.15625,0.078125
434,434,1727275346894,-0.0715332,-0.97320557,0.19573975,0.03125,-0.640625,0.15625
435,435,1727275346934,-0.08325195,-0.9829712,0.19256592,0.84375,-0.78125,0.21875
436,436,1727275346974,-0.0715332,-0.95977783,0.19866943,-0.59375,0.453125,-0.484375
437,437,1727275347014,-0.0793457,-0.9780884,0.20794678,0.875,-0.90625,0.328125
438,438,1727275347054,-0.07885742,-0.97320557,0.18255615,-0.828125,0.671875,-1.046875
439,439,1727275347094,-0.080322266,-0.9763794,0.20233154,0.609375,0.484375,-0.109375
440,440,1727275347134,-0.059814453,-0.9780884,0.18817139,0.40625,0.59375,-0.3125
441,441,1727275347174,-0.079589844,-0.97052,0.1918335,0.53125,0.265625,-0.109375
442,442,1727275347214,-0.083740234,-0.9859009,0.20404053,0.265625,-0.046875,0.0625
443,443,1727275347254,-0.07373047,-0.9717407,0.19525146,0.515625,0.234375,-0.046875
444,444,1727275347294,-0.07543945,-0.97369385,0.19281006,0.5625,0.359375,0.109375
445,445,1727275347334,-0.0690918,-0.97369385,0.199646,0.484375,0.546875,-0.09375
446,446,1727275347374,-0.076416016,-0.97125244,0.19915771,0.40625,0.796875,0.0625
447,447,1727275347414,-0.07397461,-0.9763794,0.18572998,0.09375,0.359375,-0.234375
448,448,1727275347454,-0.079833984,-0.9714966,0.19451904,0.921875,-0.078125,0.0625
449,449,1727275347494,-0.072753906,-0.97369385,0.19329834,0.1875,0.4375,0.0
450,450,1727275347534,-0.07299805,-0.9746704,0.17596436,-0.328125,1.1875,-0.375
451,451,1727275347574,-0.083984375,-0.97003174,0.2086792,0.65625,-1.59375,0.609375
452,452,1727275347614,-0.06567383,-0.97247314,0.18548584,0.03125,-0.265625,0.28125
453,453,1727275347654,-0.08251953,-0.97076416,0.18988037,-0.59375,-0.59375,0.109375
454,454,1727275347694,-0.0637207,-0.97247314,0.20526123,0.4375,-0.296875,0.328125
455,455,1727275347734,-0.0715332,-0.9734497,0.19354248,0.375,-0.5625,0.4375
456,456,1727275347774,-0.08129883,-0.9729614,0.19573975,0.15625,-0.375,0.359375
457,457,1727275347814,-0.07373047,-0.9763794,0.19207764,0.421875,-0.15625,-0.296875
458,458,1727275347854,-0.0715332,-0.97320557,0.18914795,-0.390625,0.125,0.015625
459,459,1727275347894,-0.07714844,-0.9741821,0.19647217,-0.203125,-0.390625,-0.40625
460,460,1727275347934,-0.075927734,-0.97540283,0.19744873,-0.421875,0.109375,-0.25
461,461,1727275347974,-0.072753906,-0.97442627,0.2074585,-0.34375,0.5,-0.5
462,462,1727275348014,-0.072509766,-0.97540283,0.2062378,-0.765625,0.125,-0.4375
463,463,1727275348054,-0.07470703,-0.973938,0.19622803,-1.03125,-0.140625,-0.75
464,464,1727275348094,-0.07006836,-0.9768677,0.19158936,-0.8125,0.28125,-0.234375
465,465,1727275348134,-0.07861328,-0.97369385,0.21624756,-0.171875,0.4375,-0.796875
466,466,1727275348174,-0.0690918,-0.97198486,0.1984253,0.171875,0.09375,-0.125
467,467,1727275348214,-0.0793457,-0.9714966,0.20135498,-0.46875,0.6875,-1.15625
468,468,1727275348254,-0.07348633,-0.9771118,0.2177124,0.21875,0.59375,-0.359375
469,469,1727275348294,-0.06323242,-0.9758911,0.19232178,-0.359375,0.921875,-0.09375
470,470,1727275348334,-0.0793457,-0.9741821,0.20501709,0.75,0.234375,-0.078125
471,471,1727275348374,-0.0690918,-0.9817505,0.19622803,0.234375,0.046875,-0.171875
472,472,1727275348414,-0.07128906,-0.97125244,0.19622803,0.359375,0.3125,0.078125
473,473,1727275348454,-0.06689453,-0.9771118,0.20819092,0.65625,-0.09375,-0.078125
474,474,1727275348494,-0.07373047,-0.96954346,0.2140503,0.4375,-0.328125,0.171875
475,475,1727275348534,-0.07763672,-0.9680786,0.20159912,0.71875,0.0,0.25
476,476,1727275348574,-0.06982422,-0.97125244,0.2098999,0.6875,0.0,0.4375
477,477,1727275348614,-0.078125,-0.9746704,0.19818115,0.671875,0.125,0.265625
478,478,1727275348654,-0.076660156,-0.97735596,0.19158936,0.390625,-0.015625,0.28125
479,479,1727275348694,-0.064208984,-0.96661377,0.22991943,0.703125,0.578125,-0.4375
480,480,1727275348734,-0.07055664,-0.9663696,0.20941162,1.328125,0.09375,0.375
481,481,1727275348774,-0.06665039,-0.97735596,0.1930542,-0.21875,0.734375,-0.78125
482,482,1727275348814,-0.08520508,-0.9678345,0.2086792,0.671875,0.546875,-0.34375
483,483,1727275348854,-0.053710938,-0.9627075,0.18939209,0.578125,0.40625,-0.25
484,484,1727275348894,-0.07446289,-0.96954346,0.19696045,0.734375,0.359375,-0.15625
485,485,1727275348934,-0.068359375,-0.9837036,0.20062256,0.734375,-0.421875,-0.234375
486,486,1727275348974,-0.0703125,-0.9763794,0.18939209,0.203125,-0.09375,-0.1875
487,487,1727275349014,-0.05908203,-0.9697876,0.19354248,0.46875,-0.140625,-0.171875
488,488,1727275349054,-0.06665039,-0.97442627,0.1918335,0.671875,-0.21875,-0.140625
489,489,1727275349094,-0.06542969,-0.972229,0.18157959,0.46875,-0.1875,-0.09375
490,490,1727275349134,-0.06640625,-0.9763794,0.1918335,0.5625,-0.640625,-0.15625
491,491,1727275349174,-0.0793457,-0.97491455,0.19525146,0.46875,-0.890625,-0.34375
492,492,1727275349214,-0.06738281,-0.9710083,0.18426514,1.109375,-0.890625,0.09375
493,493,1727275349254,-0.07128906,-0.9680786,0.20355225,0.125,0.59375,-0.765625
494,494,1727275349294,-0.07885742,-0.972229,0.21136475,1.09375,-0.515625,0.34375
495,495,1727275349334,-0.061523438,-0.98687744,0.17474365,-0.71875,0.40625,-0.921875
496,496,1727275349374,-0.08642578,-0.97052,0.19525146,0.171875,-0.265625,0.0625
497,497,1727275349414,-0.061523438,-0.9758911,0.20477295,0.328125,0.015625,-0.421875
498,498,1727275349454,-0.07373047,-0.97076416,0.184021,0.3125,0.578125,-0.265625
499,499,1727275349494,-0.07495117,-0.9841919,0.20062256,0.484375,-0.640625,-0.296875
500,500,1727275349534,-0.07446289,-0.97320557,0.19158936,0.203125,0.453125,-0.609375
501,501,1727275349574,-0.07421875,-0.97125244,0.18475342,-0.375,0.5625,-0.28125
502,502,1727275349614,-0.07446289,-0.97247314,0.19720459,-0.203125,-0.21875,-0.46875
503,503,1727275349654,-0.07788086,-0.97247314,0.19647217,0.5,0.46875,-0.578125
504,504,1727275349694,-0.07006836,-0.972229,0.1930542,0.015625,0.34375,-0.3125
505,505,1727275349734,-0.08203125,-0.9741821,0.1906128,-0.03125,-0.015625,-0.71875
506,506,1727275349774,-0.076660156,-0.96759033,0.20379639,0.0,0.34375,-0.625
507,507,1727275349814,-0.06958008,-0.9690552,0.19134521,-0.46875,1.84375,-1.25
508,508,1727275349854,-0.08300781,-0.9780884,0.21575928,0.3125,-0.75,-0.1875
509,509,1727275349894,-0.07104492,-0.9829712,0.18475342,-0.640625,1.0,-1.125
510,510,1727275349934,-0.08227539,-0.973938,0.19793701,-0.265625,0.09375,-0.078125
511,511,1727275349974,-0.059570312,-0.9727173,0.19769287,0.46875,0.328125,-0.0625
512,512,1727275350014,-0.087646484,-0.96588135,0.19085693,0.34375,-0.171875,-0.296875
513,513,1727275350054,-0.07495117,-0.97320557,0.20062256,0.53125,0.296875,-0.03125
514,514,1727275350094,-0.07324219,-0.97735596,0.19451904,0.546875,-0.25,-0.109375
515,515,1727275350134,-0.08178711,-0.9710083,0.19354248,-0.125,0.734375,-0.21875
516,516,1727275350174,-0.08081055,-0.97320557,0.20526123,0.0625,-0.03125,-0.234375
517,517,1727275350214,-0.080566406,-0.97442627,0.19647217,-0.34375,0.21875,-0.390625
518,518,1727275350254,-0.07836914,-0.97247314,0.19866943,-0.421875,0.203125,-0.28125
519,519,1727275350294,-0.080078125,-0.9776001,0.20428467,-0.578125,0.046875,-0.515625
520,520,1727275350334,-0.080078125,-0.97125244,0.20941162,-1.28125,0.34375,-0.96875
521,521,1727275350374,-0.07519531,-0.9763794,0.19647217,-1.640625,1.640625,-1.234375
522,522,1727275350414,-0.091796875,-0.9678345,0.23382568,-1.046875,0.375,-0.5625
523,523,1727275350454,-0.07739258,-0.9812622,0.19012451,-1.046875,1.296875,-1.125
524,524,1727275350494,-0.08911133,-0.96661377,0.21697998,-1.296875,1.40625,-1.0
525,525,1727275350534,-0.06958008,-0.97052,0.21282959,-0.578125,0.828125,-0.453125
526,526,1727275350574,-0.07885742,-0.96343994,0.20672607,-0.171875,0.71875,-0.484375
527,527,1727275350614,-0.08862305,-0.9702759,0.20916748,-0.046875,0.28125,-0.375
528,528,1727275350654,-0.07495117,-0.9668579,0.21258545,-0.296875,0.390625,-0.4375
529,529,1727275350694,-0.08984375,-0.9680786,0.20574951,-0.328125,0.1875,-0.421875
530,530,1727275350734,-0.091552734,-0.9651489,0.22088623,0.296875,-0.1875,-0.421875
531,531,1727275350774,-0.0793457,-0.9734497,0.21380615,0.328125,0.484375,-0.453125
532,532,1727275350814,-0.08251953,-0.9697876,0.20477295,1.015625,-0.015625,-0.46875
533,533,1727275350854,-0.083984375,-0.9678345,0.21331787,0.921875,-0.359375,-0.25
534,534,1727275350894,-0.076416016,-0.96417236,0.20379639,0.75,0.125,-0.671875
535,535,1727275350934,-0.07421875,-0.9714966,0.184021,-0.390625,1.125,-0.671875
536,536,1727275350974,-0.091308594,-0.9668579,0.23431396,0.84375,-0.625,-0.140625
537,537,1727275351014,-0.07714844,-0.97491455,0.18988037,-0.453125,-1.09375,-0.5
538,538,1727275351054,-0.09350586,-0.9763794,0.22723389,0.53125,-0.921875,-0.265625
539,539,1727275351094,-0.08129883,-0.9729614,0.22161865,0.84375,-0.4375,0.21875
540,540,1727275351134,-0.07910156,-0.96417236,0.20135498,0.296875,-0.140625,0.21875
541,541,1727275351174,-0.0847168,-0.97052,0.21600342,0.96875,0.25,0.140625
542,542,1727275351214,-0.09082031,-0.9729614,0.19989014,0.53125,0.171875,-0.3125
543,543,1727275351254,-0.08129883,-0.96539307,0.19866943,0.140625,0.578125,0.203125
544,544,1727275351294,-0.08496094,-0.9661255,0.20648193,1.0625,0.15625,0.09375
545,545,1727275351334,-0.08081055,-0.9692993,0.20550537,0.859375,0.453125,0.234375
546,546,1727275351374,-0.084472656,-0.9714966,0.2020874,0.65625,0.109375,0.0
547,547,1727275351414,-0.08886719,-0.9734497,0.20477295,0.625,-0.046875,-0.03125
548,548,1727275351454,-0.08520508,-0.9678345,0.19378662,0.3125,0.453125,-0.203125
549,549,1727275351494,-0.07446289,-0.97076416,0.17010498,-0.921875,1.609375,-0.640625
550,550,1727275351534,-0.08203125,-0.9639282,0.22991943,0.703125,-0.328125,0.28125
551,551,1727275351574,-0.07128906,-0.9751587,0.17254639,-0.578125,-1.03125,-0.625
552,552,1727275351614,-0.09008789,-0.9717407,0.21600342,-0.203125,-0.625,-0.34375
553,553,1727275351654,-0.072753906,-0.98443604,0.20819092,1.296875,-1.171875,-0.171875
554,554,1727275351694,-0.07080078,-0.9639282,0.19671631,0.359375,-0.0625,0.0
555,555,1727275351734,-0.0769043,-0.9771118,0.21087646,0.890625,-0.75,0.171875
556,556,1727275351774,-0.07861328,-0.9783325,0.19769287,0.203125,-0.828125,0.109375
557,557,1727275351814,-0.075683594,-0.9729614,0.2020874,-0.390625,-0.421875,0.140625
558,558,1727275351854,-0.07788086,-0.9771118,0.19915771,0.5,-1.140625,0.28125
559,559,1727275351894,-0.083496094,-0.98028564,0.19036865,1.453125,-2.921875,0.140625
560,560,1727275351934,-0.064697266,-0.9627075,0.19500732,0.90625,-0.1875,0.015625
561,561,1727275351974,-0.088378906,-0.9795532,0.2098999,1.78125,-2.171875,0.453125
562,562,1727275352014,-0.08642578,-0.9734497,0.19281006,0.84375,-0.75,0.1875
563,563,1727275352054,-0.076416016,-0.97076416,0.18133545,-0.640625,1.40625,-0.09375
564,564,1727275352094,-0.083740234,-0.9585571,0.2230835,1.375,-0.96875,-0.21875
565,565,1727275352134,-0.076660156,-0.97979736,0.17474365,0.390625,-0.09375,0.09375
566,566,1727275352174,-0.08618164,-0.9690552,0.18035889,-0.46875,0.203125,-0.59375
567,567,1727275352214,-0.07836914,-0.9729614,0.20892334,1.03125,0.234375,-0.421875
568,568,1727275352254,-0.08251953,-0.9717407,0.17962646,0.78125,0.8125,-0.234375
569,569,1727275352294,-0.072265625,-0.972229,0.19866943,0.640625,1.25,-0.46875
570,570,1727275352334,-0.0793457,-0.9717407,0.18817139,0.5625,0.75,-0.421875
571,571,1727275352374,-0.08496094,-0.97857666,0.18499756,0.09375,0.5625,-0.40625
572,572,1727275352414,-0.080078125,-0.97369385,0.19476318,0.1875,0.21875,-0.671875
573,573,1727275352454,-0.08129883,-0.97540283,0.18377686,0.328125,0.171875,-0.28125
574,574,1727275352494,-0.080322266,-0.97442627,0.18939209,0.171875,0.46875,-0.328125
575,575,1727275352534,-0.07763672,-0.97003174,0.18450928,0.015625,-0.046875,-0.28125
576,576,1727275352574,-0.0793457,-0.97613525,0.18499756,-0.15625,0.0,-0.328125
577,577,1727275352614,-0.07885742,-0.9805298,0.18035889,-0.890625,1.015625,-0.53125
578,578,1727275352654,-0.08129883,-0.9614868,0.20135498,-0.09375,-0.484375,-0.21875
579,579,1727275352694,-0.08276367,-0.97857666,0.19622803,-0.25,-0.25,0.234375
580,580,1727275352734,-0.084472656,-0.97369385,0.1942749,-1.03125,-0.125,-0.328125
581,581,1727275352774,-0.0703125,-0.973938,0.21478271,0.171875,0.015625,0.171875
582,582,1727275352814,-0.087890625,-0.97369385,0.19329834,0.09375,-0.046875,-0.03125
583,583,1727275352854,-0.0871582,-0.96759033,0.20452881,-0.1875,0.3125,-0.15625
584,584,1727275352894,-0.07299805,-0.9768677,0.19940186,0.140625,0.109375,-0.359375
585,585,1727275352934,-0.08862305,-0.9702759,0.1906128,-0.1875,0.046875,-0.171875
586,586,1727275352974,-0.08642578,-0.975647,0.21258545,0.078125,0.28125,-0.59375
587,587,1727275353014,-0.088378906,-0.9714966,0.20574951,0.15625,0.234375,-0.390625
588,588,1727275353054,-0.083984375,-0.97003174,0.20526123,-0.015625,0.984375,-0.75
589,589,1727275353094,-0.08154297,-0.97540283,0.1984253,-0.0625,0.65625,-0.5625
590,590,1727275353134,-0.0793457,-0.96954346,0.20281982,0.078125,1.34375,-0.734375
591,591,1727275353174,-0.08618164,-0.9758911,0.1906128,-0.328125,1.234375,-0.421875
592,592,1727275353214,-0.080322266,-0.9636841,0.2140503,-0.203125,1.21875,-1.09375
593,593,1727275353254,-0.08886719,-0.97320557,0.20526123,0.40625,0.171875,0.390625
594,594,1727275353294,-0.084228516,-0.9714966,0.20233154,-0.4375,1.765625,-1.375
595,595,1727275353334,-0.09326172,-0.97076416,0.21942139,0.625,1.109375,-0.0625
596,596,1727275353374,-0.07104492,-0.9661255,0.18939209,0.171875,0.578125,-0.109375
597,597,1727275353414,-0.08203125,-0.97125244,0.19622803,0.5625,0.96875,-0.3125
598,598,1727275353454,-0.079833984,-0.9829712,0.20135498,0.28125,0.171875,-0.1875
599,599,1727275353494,-0.084228516,-0.9751587,0.19232178,0.40625,0.3125,-0.546875
600,600,1727275353534,-0.08105469,-0.9714966,0.19793701,-0.03125,0.34375,-0.265625
601,601,1727275353574,-0.08203125,-0.97320557,0.20452881,0.8125,-0.390625,-0.234375
602,602,1727275353614,-0.08496094,-0.9702759,0.18743896,0.296875,0.03125,-0.296875
603,603,1727275353654,-0.0871582,-0.97735596,0.1942749,0.765625,0.09375,0.015625
604,604,1727275353694,-0.08178711,-0.975647,0.19281006,0.484375,-0.359375,-0.234375
605,605,1727275353734,-0.09350586,-0.975647,0.1954956,0.953125,-0.53125,0.015625
606,606,1727275353774,-0.087890625,-0.9631958,0.22064209,0.21875,0.453125,-0.4375
607,607,1727275353814,-0.083740234,-0.97857666,0.19769287,1.078125,-0.5,0.375
608,608,1727275353854,-0.07495117,-0.9690552,0.1876831,-0.234375,0.5625,-0.734375
609,609,1727275353894,-0.09741211,-0.97491455,0.20770264,0.75,-0.625,0.015625
610,610,1727275353934,-0.08276367,-0.9673462,0.18597412,0.546875,-0.03125,0.078125
611,611,1727275353974,-0.08276367,-0.97052,0.18670654,0.828125,-0.546875,0.078125
612,612,1727275354014,-0.088378906,-0.9763794,0.2033081,0.734375,-1.140625,0.1875
613,613,1727275354054,-0.08300781,-0.972229,0.19451904,0.15625,-0.0625,0.0625
614,614,1727275354094,-0.084228516,-0.96832275,0.19744873,0.5,-0.390625,0.125
615,615,1727275354134,-0.08276367,-0.97369385,0.18914795,0.28125,-0.390625,-0.015625
616,616,1727275354174,-0.075927734,-0.9729614,0.19036865,0.09375,-0.140625,-0.40625
617,617,1727275354214,-0.08154297,-0.9729614,0.19696045,-0.046875,-0.109375,-0.265625
618,618,1727275354254,-0.08569336,-0.97735596,0.19207764,-0.515625,0.078125,-0.40625
619,619,1727275354294,-0.08251953,-0.9631958,0.20428467,0.15625,0.609375,-0.5
620,620,1727275354334,-0.075683594,-0.96954346,0.18621826,-0.6875,1.5,-0.765625
621,621,1727275354374,-0.09838867,-0.9717407,0.21722412,0.671875,-0.578125,0.765625
622,622,1727275354414,-0.06640625,-0.9746704,0.18695068,0.0625,0.484375,-0.65625
623,623,1727275354454,-0.095214844,-0.9702759,0.1930542,0.4375,-0.296875,0.484375
624,624,1727275354494,-0.075683594,-0.9763794,0.2008667,0.921875,0.1875,0.015625
625,625,1727275354534,-0.0847168,-0.97320557,0.19232178,1.015625,-0.21875,0.125
626,626,1727275354574,-0.08251953,-0.97491455,0.19793701,1.015625,-0.265625,0.140625
627,627,1727275354614,-0.080322266,-0.9795532,0.19329834,0.9375,0.328125,-0.09375
628,628,1727275354654,-0.08251953,-0.972229,0.17938232,0.8125,-0.25,-0.03125
629,629,1727275354694,-0.07397461,-0.97198486,0.19036865,0.921875,-0.171875,-0.015625
630,630,1727275354734,-0.080566406,-0.9751587,0.19134521,0.734375,-0.046875,-0.359375
631,631,1727275354774,-0.080078125,-0.9824829,0.18304443,-0.15625,0.34375,-0.265625
632,632,1727275354814,-0.08105469,-0.97784424,0.18817139,-0.421875,-0.15625,-0.703125
633,633,1727275354854,-0.083984375,-0.975647,0.19622803,-0.40625,0.859375,-0.65625
634,634,1727275354894,-0.080322266,-0.9758911,0.17913818,-0.75,1.515625,-1.015625
635,635,1727275354934,-0.084228516,-0.9680786,0.2140503,0.25,-0.5,-0.453125
636,636,1727275354974,-0.07885742,-0.9795532,0.17694092,-0.3125,0.3125,-0.4375
637,637,1727275355014,-0.099121094,-0.9673462,0.1762085,-0.4375,0.390625,-0.5
638,638,1727275355054,-0.06933594,-0.9829712,0.1954956,0.125,0.359375,-0.09375
639,639,1727275355094,-0.08227539,-0.97247314,0.19281006,0.5625,-0.25,-0.203125
640,640,1727275355134,-0.0847168,-0.97052,0.199646,0.46875,0.453125,0.0
641,641,1727275355174,-0.08520508,-0.97906494,0.18133545,0.140625,0.5,-0.46875
642,642,1727275355214,-0.08642578,-0.96661377,0.18988037,-0.265625,0.09375,-0.171875
643,643,1727275355254,-0.087646484,-0.97076416,0.2020874,-0.09375,-0.046875,-0.4375
644,644,1727275355294,-0.08569336,-0.9768677,0.20135498,-0.265625,0.359375,-0.21875
645,645,1727275355334,-0.08935547,-0.97735596,0.18939209,-0.875,0.25,-0.296875
646,646,1727275355374,-0.092041016,-0.97491455,0.20770264,-0.578125,-0.109375,-0.296875
647,647,1727275355414,-0.08691406,-0.9651489,0.19378662,-0.390625,0.6875,0.015625
648,648,1727275355454,-0.091796875,-0.9702759,0.18841553,-0.0625,-0.03125,0.0625
649,649,1727275355494,-0.08276367,-0.9702759,0.21234131,0.03125,1.03125,-0.59375
650,650,1727275355534,-0.08300781,-0.9727173,0.19207764,0.359375,-0.375,0.625
651,651,1727275355574,-0.08984375,-0.9727173,0.1954956,0.03125,1.203125,-0.84375
652,652,1727275355614,-0.0949707,-0.972229,0.21868896,0.453125,1.078125,0.171875
653,653,1727275355654,-0.07714844,-0.9729614,0.18304443,-0.328125,0.734375,0.03125
654,654,1727275355694,-0.076660156,-0.9690552,0.19451904,0.3125,0.796875,-0.265625
655,655,1727275355734,-0.08642578,-0.9734497,0.20794678,0.53125,-0.375,-0.203125
656,656,1727275355774,-0.080078125,-0.9780884,0.18988037,0.375,0.75,-0.109375
657,657,1727275355814,-0.07910156,-0.97857666,0.20428467,0.34375,0.296875,0.0625
658,658,1727275355854,-0.084228516,-0.9685669,0.19793701,0.375,-0.09375,-0.078125
659,659,1727275355894,-0.08666992,-0.973938,0.18988037,0.359375,0.03125,-0.265625
660,660,1727275355934,-0.08691406,-0.9768677,0.20037842,0.296875,0.203125,-0.328125
661,661,1727275355974,-0.087646484,-0.9812622,0.19158936,0.453125,-0.15625,-0.0625
662,662,1727275356014,-0.08325195,-0.9690552,0.19500732,0.53125,0.109375,-0.046875
663,663,1727275356054,-0.080566406,-0.9614868,0.20501709,0.34375,0.203125,-0.8125
664,664,1727275356094,-0.095947266,-0.9710083,0.2062378,1.015625,-0.46875,0.234375
665,665,1727275356134,-0.080566406,-0.96954346,0.184021,-0.03125,0.34375,-0.734375
666,666,1727275356174,-0.096191406,-0.97540283,0.2033081,0.59375,-0.40625,-0.21875
667,667,1727275356214,-0.07446289,-0.96881104,0.18157959,0.484375,-0.234375,-0.3125
668,668,1727275356254,-0.08251953,-0.9727173,0.18572998,0.515625,-0.296875,-0.140625
669,669,1727275356294,-0.08911133,-0.97979736,0.20355225,0.296875,-0.953125,-0.421875
670,670,1727275356334,-0.084472656,-0.97052,0.19134521,0.078125,-0.046875,-0.71875
671,671,1727275356374,-0.08911133,-0.9751587,0.19256592,-0.25,-0.234375,-0.609375
672,672,1727275356414,-0.091552734,-0.9702759,0.19818115,0.015625,-0.46875,-0.734375
673,673,1727275356454,-0.08862305,-0.97198486,0.19720459,0.078125,-0.109375,-0.71875
674,674,1727275356494,-0.088378906,-0.9727173,0.19891357,0.015625,-0.125,-0.5625
675,675,1727275356534,-0.08569336,-0.9729614,0.20355225,0.375,-0.4375,-0.625
676,676,1727275356574,-0.091308594,-0.9702759,0.19793701,0.4375,0.171875,-0.625
677,677,1727275356614,-0.080078125,-0.97052,0.18597412,-0.578125,1.21875,-1.25
678,678,1727275356654,-0.11279297,-0.9717407,0.21722412,0.5,-0.828125,0.109375
679,679,1727275356694,-0.072753906,-0.9800415,0.1749878,-0.75,0.5,-1.0625
680,680,1727275356734,-0.10424805,-0.96539307,0.2020874,0.28125,0.453125,-0.390625
681,681,1727275356774,-0.08251953,-0.9763794,0.19744873,0.984375,0.265625,-0.28125
682,682,1727275356814,-0.08959961,-0.9692993,0.1864624,0.671875,0.125,-0.09375
683,683,1727275356854,-0.08618164,-0.96710205,0.20355225,1.171875,0.078125,-0.140625
684,684,1727275356894,-0.08618164,-0.9751587,0.19451904,0.796875,-0.03125,-0.21875
685,685,1727275356934,-0.10107422,-0.9763794,0.18670654,0.578125,0.421875,0.375
686,686,1727275356974,-0.09057617,-0.9734497,0.1954956,0.640625,-0.03125,0.0625
687,687,1727275357014,-0.08178711,-0.97369385,0.19085693,0.859375,0.03125,0.1875
688,688,1727275357054,-0.087890625,-0.9793091,0.1876831,0.4375,0.21875,0.328125
689,689,1727275357094,-0.08520508,-0.97442627,0.18572998,0.578125,0.0,0.046875
690,690,1727275357134,-0.08862305,-0.96954346,0.19403076,0.40625,0.40625,0.203125
691,691,1727275357174,-0.080078125,-0.9714966,0.17376709,-0.40625,2.03125,-0.59375
692,692,1727275357214,-0.091552734,-0.96710205,0.2255249,0.859375,-0.1875,0.140625
693,693,1727275357254,-0.084228516,-0.9807739,0.17059326,-0.28125,0.875,-0.421875
694,694,1727275357294,-0.103271484,-0.9656372,0.18060303,0.25,0.21875,-0.21875
695,695,1727275357334,-0.0715332,-0.9805298,0.20404053,0.6875,0.40625,0.015625
696,696,1727275357374,-0.09448242,-0.9692993,0.18890381,0.90625,0.0625,-0.09375
697,697,1727275357414,-0.09082031,-0.9680786,0.20233154,0.265625,0.15625,0.1875
698,698,1727275357454,-0.083984375,-0.9734497,0.18792725,-0.265625,0.359375,-0.078125
699,699,1727275357494,-0.09277344,-0.97076416,0.19207764,-0.78125,0.4375,-0.171875
700,700,1727275357534,-0.083984375,-0.9746704,0.19744873,-0.1875,-0.109375,-0.234375
701,701,1727275357574,-0.09277344,-0.9741821,0.19573975,-0.296875,0.5,-0.296875
702,702,1727275357614,-0.08520508,-0.97662354,0.1930542,-0.6875,1.453125,-0.328125
703,703,1727275357654,-0.08862305,-0.9729614,0.20550537,0.8125,1.71875,-0.078125
704,704,1727275357694,-0.083984375,-0.97735596,0.1774292,-0.234375,2.984375,-0.171875
705,705,1727275357734,-0.08154297,-0.9771118,0.16351318,-0.6875,2.796875,-0.515625
706,706,1727275357774,-0.08569336,-0.9746704,0.21722412,1.375,0.4375,0.078125
707,707,1727275357814,-0.08154297,-0.97320557,0.19134521,0.640625,0.546875,-0.203125
708,708,1727275357854,-0.08862305,-0.97662354,0.19085693,0.046875,0.53125,-0.578125
709,709,1727275357894,-0.07470703,-0.9729614,0.20501709,0.8125,0.765625,-0.265625
710,710,1727275357934,-0.079589844,-0.9627075,0.17572021,0.421875,0.46875,-0.046875
711,711,1727275357974,-0.09008789,-0.97125244,0.20404053,0.75,0.234375,0.140625
712,712,1727275358014,-0.07861328,-0.9763794,0.18817139,0.671875,0.21875,-0.171875
713,713,1727275358054,-0.08911133,-0.9727173,0.17889404,0.515625,0.078125,0.203125
714,714,1727275358094,-0.07763672,-0.9714966,0.19329834,0.359375,-0.3125,0.109375
715,715,1727275358134,-0.080078125,-0.96954346,0.19573975,0.5625,-0.046875,0.234375
716,716,1727275358174,-0.07861328,-0.9768677,0.18304443,0.078125,-0.3125,0.015625
717,717,1727275358214,-0.083740234,-0.9780884,0.19232178,0.5,-0.75,0.125
718,718,1727275358254,-0.08618164,-0.97442627,0.1786499,0.203125,-0.421875,-0.1875
719,719,1727275358294,-0.0690918,-0.9846802,0.15594482,-0.84375,0.75,-0.65625
720,720,1727275358334,-0.08618164,-0.97540283,0.21282959,0.5625,-0.625,0.0
721,721,1727275358374,-0.07128906,-0.97906494,0.15545654,-0.09375,-0.921875,-0.171875
722,722,1727275358414,-0.08666992,-0.96954346,0.19525146,-0.0625,-0.5,-0.25
723,723,1727275358454,-0.075927734,-0.97540283,0.19134521,0.359375,-0.65625,-0.484375
724,724,1727275358494,-0.07373047,-0.9619751,0.17596436,0.28125,-0.265625,0.109375
725,725,1727275358534,-0.08276367,-0.9710083,0.19134521,0.921875,-1.125,-0.21875
726,726,1727275358574,-0.08129883,-0.98028564,0.18450928,0.390625,-0.765625,-0.140625
727,727,1727275358614,-0.09448242,-0.97247314,0.18670654,-0.015625,-0.265625,-0.046875
728,728,1727275358654,-0.080322266,-0.9734497,0.19598389,-0.046875,-0.671875,-0.15625
729,729,1727275358694,-0.07299805,-0.9758911,0.1918335,0.265625,-0.875,-0.0625
730,730,1727275358734,-0.083984375,-0.98150635,0.19036865,-0.0625,-0.640625,0.25
731,731,1727275358774,-0.08642578,-0.9783325,0.18988037,-0.125,-0.625,0.015625
732,732,1727275358814,-0.080566406,-0.9702759,0.18353271,0.484375,-0.453125,-0.171875
733,733,1727275358854,-0.08105469,-0.9812622,0.15985107,-0.96875,0.9375,-0.34375
734,734,1727275358894,-0.08129883,-0.9636841,0.2074585,0.0625,-0.90625,-0.203125
735,735,1727275358934,-0.07470703,-0.975647,0.17596436,0.234375,-0.3125,-0.046875
736,736,1727275358974,-0.09301758,-0.9795532,0.18231201,-0.65625,0.296875,-0.625
737,737,1727275359014,-0.07739258,-0.97979736,0.19744873,0.71875,0.265625,-0.453125
738,738,1727275359054,-0.071777344,-0.96759033,0.18719482,0.296875,0.015625,0.171875
739,739,1727275359094,-0.08862305,-0.9673462,0.19329834,0.453125,0.109375,-0.28125
740,740,1727275359134,-0.079589844,-0.97662354,0.18499756,0.609375,0.25,-0.375
741,741,1727275359174,-0.0847168,-0.9849243,0.17694092,0.0625,-0.078125,-0.25
742,742,1727275359214,-0.078125,-0.9729614,0.1864624,0.40625,-0.1875,-0.421875
743,743,1727275359254,-0.07763672,-0.9685669,0.19085693,0.421875,-0.359375,-0.265625
744,744,1727275359294,-0.08862305,-0.9829712,0.18719482,0.09375,0.640625,-0.21875
745,745,1727275359334,-0.0859375,-0.97491455,0.18963623,0.09375,0.296875,0.140625
746,746,1727275359374,-0.08154297,-0.97369385,0.18133545,0.03125,0.484375,-0.25
747,747,1727275359414,-0.07519531,-0.97857666,0.16668701,-1.140625,1.734375,-0.40625
748,748,1727275359454,-0.08862305,-0.9668579,0.20721436,-0.140625,0.296875,-0.375
749,749,1727275359494,-0.07739258,-0.9824829,0.18475342,-0.59375,0.109375,-0.296875
750,750,1727275359534,-0.09472656,-0.97369385,0.19769287,-1.0,0.65625,-0.875
751,751,1727275359574,-0.07373047,-0.9783325,0.20281982,0.03125,0.03125,-0.125
752,752,1727275359614,-0.087402344,-0.96221924,0.18695068,0.03125,-0.359375,0.0625
753,753,1727275359654,-0.088134766,-0.96832275,0.20062256,0.140625,0.546875,-0.171875
754,754,1727275359694,-0.08691406,-0.9729614,0.18621826,-0.171875,0.328125,-0.375
755,755,1727275359734,-0.09301758,-0.9717407,0.18475342,0.109375,0.546875,-0.28125
756,756,1727275359774,-0.07519531,-0.972229,0.19671631,-0.078125,-0.1875,-0.578125
757,757,1727275359814,-0.091308594,-0.96466064,0.19281006,0.234375,0.40625,-0.25
758,758,1727275359854,-0.08300781,-0.9795532,0.19207764,0.171875,0.453125,-0.375
759,759,1727275359894,-0.08691406,-0.97857666,0.18670654,0.484375,-0.28125,-0.359375
