,timestamp,accel_x,accel_y,accel_z,gyro_x,gyro_y,gyro_z
0,1727178693628,-0.056884766,-0.9998169,0.04827881,1.328125,2.5,0.859375
1,1727178693668,-0.07080078,-0.98443604,0.0368042,0.359375,3.40625,1.078125
2,1727178693708,-0.068847656,-0.98638916,0.039733887,-0.015625,3.609375,0.875
3,1727178693748,-0.06982422,-0.99591064,0.039001465,0.140625,2.984375,0.359375
4,1727178693788,-0.06616211,-0.9993286,0.040222168,-0.375,2.625,0.21875
5,1727178693828,-0.0690918,-0.9898071,0.034851074,-0.453125,2.09375,-0.015625
6,1727178693868,-0.076171875,-0.98809814,0.039001465,-0.828125,1.71875,0.0
7,1727178693908,-0.08276367,-0.99786377,0.046325684,-1.765625,1.125,-0.828125
8,1727178693948,-0.08276367,-0.9898071,0.050964355,0.078125,0.03125,-0.453125
9,1727178693988,-0.072509766,-0.9968872,0.03753662,-2.703125,0.984375,-0.6875
10,1727178694028,-0.06713867,-1.0003052,0.041931152,-0.546875,0.25,-0.6875
11,1727178694068,-0.08203125,-0.99346924,0.043151855,-1.15625,-0.09375,-0.484375
12,1727178694108,-0.08154297,-0.9961548,0.04168701,-1.25,-0.484375,0.078125
13,1727178694148,-0.060546875,-0.99835205,0.038757324,-0.5,-1.171875,-0.28125
14,1727178694188,-0.06323242,-0.9873657,0.044128418,0.609375,0.296875,-0.015625
15,1727178694228,-0.06591797,-0.99786377,0.043395996,0.109375,0.9375,-0.0625
16,1727178694268,-0.064941406,-0.9976196,0.04852295,0.59375,0.421875,0.15625
17,1727178694308,-0.06958008,-1.0005493,0.039733887,0.015625,0.59375,0.03125
18,1727178694348,-0.06640625,-1.0037231,0.043151855,0.59375,0.0625,-0.046875
19,1727178694388,-0.061279297,-0.9937134,0.039978027,-0.53125,0.40625,-0.046875
20,1727178694428,-0.08105469,-0.98931885,0.034851074,-1.625,0.640625,-0.46875
21,1727178694468,-0.063964844,-1.0022583,0.039978027,-1.453125,-0.15625,-0.765625
22,1727178694508,-0.06347656,-0.99298096,0.03363037,-1.265625,0.15625,-0.359375
23,1727178694548,-0.06518555,-0.98223877,0.034606934,-0.734375,0.703125,-0.296875
24,1727178694588,-0.087890625,-0.98565674,0.03753662,-0.578125,0.953125,-0.296875
25,1727178694628,-0.07421875,-0.9981079,0.04852295,1.640625,0.625,0.109375
26,1727178694668,-0.060791016,-1.0159302,0.038757324,-1.15625,1.71875,-0.296875
27,1727178694708,-0.06323242,-0.97979736,0.035583496,0.171875,3.390625,0.375
28,1727178694748,-0.080566406,-0.97735596,0.035095215,-1.96875,3.28125,-0.296875
29,1727178694788,-0.088134766,-0.99713135,0.03363037,-1.53125,0.65625,-1.328125
30,1727178694828,-0.068603516,-0.9981079,0.03338623,-2.0,0.109375,-1.046875
31,1727178694868,-0.07446289,-0.9834595,0.047058105,-0.515625,0.96875,-0.84375
32,1727178694908,-0.08300781,-0.9973755,0.047546387,-2.984375,0.84375,-1.171875
33,1727178694948,-0.0871582,-1.0027466,0.03729248,-2.015625,0.78125,-0.40625
34,1727178694988,-0.07421875,-0.9993286,0.047058105,-2.484375,0.9375,0.515625
35,1727178695028,-0.06323242,-1.0054321,0.04925537,-3.265625,2.484375,-0.984375
36,1727178695068,-0.06958008,-1.02594,0.058288574,-3.734375,3.4375,-2.03125
37,1727178695108,-0.053222656,-0.99786377,0.05682373,-3.953125,5.59375,0.15625
38,1727178695148,-0.035888672,-0.9360962,0.055847168,-1.078125,5.484375,3.828125
39,1727178695188,-0.08691406,-0.98809814,0.040222168,-3.6875,8.9375,1.0625
40,1727178695228,-0.12963867,-1.0293579,0.055114746,-0.78125,3.6875,0.0
41,1727178695268,-0.1027832,-0.9998169,0.05609131,-0.078125,1.84375,-0.46875
42,1727178695308,-0.060546875,-0.973938,0.08270264,1.15625,3.875,-1.34375
43,1727178695348,-0.06982422,-0.973938,0.059020996,-1.078125,5.59375,0.03125
44,1727178695388,-0.10058594,-0.99664307,0.05706787,-2.5,5.4375,0.078125
45,1727178695428,-0.11450195,-1.0025024,0.05682373,-1.03125,2.71875,-0.78125
46,1727178695468,-0.0859375,-0.9939575,0.06463623,-1.375,1.59375,0.09375
47,1727178695508,-0.07128906,-1.0010376,0.061706543,-1.8125,2.609375,0.109375
48,1727178695548,-0.088378906,-0.99346924,0.0758667,-0.703125,2.640625,-0.21875
49,1727178695588,-0.099121094,-0.991272,0.066589355,-1.515625,0.9375,-0.171875
50,1727178695628,-0.08935547,-0.99346924,0.06829834,-1.40625,0.65625,-0.78125
51,1727178695668,-0.09301758,-0.9990845,0.07366943,-0.5,0.6875,-0.5625
52,1727178695708,-0.08935547,-0.9920044,0.070007324,-0.453125,-0.71875,-0.203125
53,1727178695748,-0.080322266,-0.98687744,0.0680542,-1.03125,-0.984375,0.15625
54,1727178695788,-0.07714844,-1.0015259,0.081970215,-0.9375,-0.453125,0.359375
55,1727178695828,-0.08569336,-0.99786377,0.07513428,-1.5,-0.109375,0.359375
56,1727178695868,-0.09082031,-0.99835205,0.07611084,-2.578125,-0.890625,0.046875
57,1727178695908,-0.0769043,-0.98883057,0.07489014,-0.90625,-1.328125,-0.375
58,1727178695948,-0.08203125,-0.9902954,0.07659912,-1.953125,-1.125,-0.453125
59,1727178695988,-0.08154297,-0.9871216,0.07098389,-1.421875,-1.109375,-0.125
60,1727178696028,-0.08886719,-1.0071411,0.08294678,-0.859375,-2.09375,-0.1875
61,1727178696068,-0.07470703,-0.99005127,0.08782959,0.671875,-2.21875,-0.109375
62,1727178696108,-0.07714844,-0.9968872,0.07611084,-1.640625,-0.890625,-0.390625
63,1727178696148,-0.080322266,-0.99542236,0.07952881,-0.671875,-1.125,-0.109375
64,1727178696188,-0.08544922,-1.0020142,0.074157715,-0.5625,-0.46875,0.125
65,1727178696228,-0.09350586,-1.0010376,0.07269287,0.125,-0.453125,0.0
66,1727178696268,-0.08935547,-0.9829712,0.0758667,0.40625,-0.984375,-0.3125
67,1727178696308,-0.09326172,-0.991272,0.07537842,0.96875,-1.453125,0.296875
68,1727178696348,-0.09008789,-1.0064087,0.07122803,0.34375,-0.84375,0.34375
69,1727178696388,-0.08251953,-0.9998169,0.06976318,0.421875,-0.296875,0.1875
70,1727178696428,-0.0859375,-0.9920044,0.07537842,0.734375,-0.421875,0.421875
71,1727178696468,-0.076416016,-0.9944458,0.066833496,0.84375,-0.4375,0.421875
72,1727178696508,-0.07543945,-0.99664307,0.066833496,0.71875,0.578125,0.5625
73,1727178696548,-0.09008789,-0.9883423,0.06756592,0.921875,0.53125,0.234375
74,1727178696588,-0.083496094,-0.98809814,0.06317139,1.1875,0.15625,0.203125
75,1727178696628,-0.08154297,-0.9981079,0.0602417,0.4375,0.765625,0.015625
76,1727178696668,-0.08642578,-0.9951782,0.0602417,0.4375,0.359375,0.25
77,1727178696708,-0.0793457,-0.99420166,0.058532715,0.546875,0.09375,0.5625
78,1727178696748,-0.080566406,-0.9976196,0.05609131,1.4375,0.875,0.671875
79,1727178696788,-0.072753906,-0.9985962,0.051940918,0.15625,1.34375,0.765625
80,1727178696828,-0.07714844,-0.99224854,0.051452637,-0.75,1.171875,0.28125
81,1727178696868,-0.08105469,-0.99102783,0.05706787,-0.84375,0.53125,-0.125
82,1727178696908,-0.076660156,-0.99884033,0.051452637,-0.984375,0.21875,0.109375
83,1727178696948,-0.06958008,-1.000061,0.04095459,-1.015625,0.28125,-0.28125
84,1727178696988,-0.07324219,-0.9885864,0.043884277,-1.0,-0.328125,-0.1875
85,1727178697028,-0.08544922,-0.9890747,0.04876709,-0.015625,-0.734375,0.0
86,1727178697068,-0.08496094,-0.9951782,0.057556152,-0.109375,-0.609375,0.1875
87,1727178697108,-0.072753906,-1.0056763,0.039733887,-1.9375,-0.203125,-0.796875
88,1727178697148,-0.07910156,-0.99298096,0.043884277,-0.953125,-0.9375,-1.03125
89,1727178697188,-0.08520508,-0.97613525,0.05316162,-1.125,-0.671875,-0.578125
90,1727178697228,-0.08276367,-0.9932251,0.057800293,-1.171875,-0.5,-0.25
91,1727178697268,-0.076416016,-1.0044556,0.04486084,-2.109375,-0.953125,-0.796875
92,1727178697308,-0.08935547,-0.9920044,0.062927246,-1.140625,-1.046875,-0.140625
93,1727178697348,-0.08911133,-0.99053955,0.051696777,-2.09375,-0.890625,0.265625
94,1727178697388,-0.07421875,-0.9932251,0.054138184,-0.078125,-1.671875,0.65625
95,1727178697428,-0.072509766,-1.0012817,0.058288574,-1.46875,-0.390625,0.84375
96,1727178697468,-0.07006836,-0.99591064,0.062194824,-1.21875,-0.296875,1.359375
97,1727178697508,-0.076171875,-0.9951782,0.058288574,-1.5625,0.71875,0.765625
98,1727178697548,-0.0859375,-0.9963989,0.06707764,-1.296875,0.15625,0.0
99,1727178697588,-0.087890625,-0.9944458,0.06121826,-0.734375,0.140625,0.0625
100,1727178697628,-0.07519531,-0.99786377,0.06463623,-1.046875,0.078125,-0.140625
101,1727178697668,-0.08642578,-0.99786377,0.058776855,-1.21875,0.125,-0.5
102,1727178697708,-0.076171875,-1.0007935,0.05633545,-0.96875,0.140625,-0.328125
103,1727178697748,-0.080078125,-0.9963989,0.058776855,-0.828125,0.328125,-0.3125
104,1727178697788,-0.08081055,-0.99542236,0.06512451,-0.9375,0.484375,-0.125
105,1727178697828,-0.078125,-0.989563,0.05999756,-0.375,0.140625,0.0625
106,1727178697868,-0.080566406,-0.99176025,0.06512451,-1.625,0.328125,0.296875
107,1727178697908,-0.0769043,-0.99542236,0.07537842,-1.578125,0.234375,0.03125
108,1727178697948,-0.07324219,-0.99005127,0.06341553,-0.9375,0.609375,0.296875
109,1727178697988,-0.068359375,-0.99591064,0.066101074,-2.421875,1.265625,0.046875
110,1727178698028,-0.076171875,-0.99664307,0.066833496,-1.453125,0.859375,0.296875
111,1727178698068,-0.08105469,-0.9924927,0.07122803,-1.8125,0.921875,0.15625
112,1727178698108,-0.0703125,-1.0027466,0.06536865,-1.5,0.625,-0.171875
113,1727178698148,-0.079833984,-1.0010376,0.066101074,-2.0,0.296875,-0.25
114,1727178698188,-0.08081055,-0.99176025,0.07244873,-0.890625,0.40625,-0.171875
115,1727178698228,-0.078125,-1.0032349,0.06585693,-2.0,0.390625,-0.71875
116,1727178698268,-0.08276367,-0.9920044,0.07684326,-1.359375,-0.046875,-0.796875
117,1727178698308,-0.076660156,-0.98809814,0.07928467,-1.296875,-0.46875,-0.453125
118,1727178698348,-0.0847168,-0.9973755,0.07757568,-0.359375,-0.609375,-0.1875
119,1727178698388,-0.0871582,-0.9951782,0.08538818,-0.609375,-0.984375,-0.296875
120,1727178698428,-0.08129883,-0.9949341,0.08416748,0.0,-1.46875,-0.421875
121,1727178698468,-0.084228516,-0.9907837,0.08319092,-0.046875,-1.6875,-0.09375
122,1727178698508,-0.08496094,-0.9819946,0.06951904,0.203125,-1.953125,0.203125
123,1727178698548,-0.07910156,-0.99005127,0.07196045,0.140625,-1.515625,0.265625
124,1727178698588,-0.080078125,-1.00177,0.07513428,0.03125,-1.28125,0.015625
125,1727178698628,-0.08544922,-0.9939575,0.06903076,-0.4375,-1.265625,0.265625
126,1727178698668,-0.08251953,-0.98565674,0.06536865,-0.375,-0.875,0.578125
127,1727178698708,-0.076416016,-0.9927368,0.07196045,-0.671875,-1.1875,0.21875
128,1727178698748,-0.08154297,-0.9937134,0.07293701,0.46875,-1.359375,0.4375
129,1727178698788,-0.072265625,-0.99713135,0.06488037,-1.5625,-0.484375,-0.03125
130,1727178698828,-0.08300781,-0.99713135,0.06536865,-0.140625,-0.96875,-0.078125
131,1727178698868,-0.07885742,-0.9849243,0.066101074,-0.484375,-1.25,-0.109375
132,1727178698908,-0.06982422,-0.9920044,0.07122803,-0.078125,-1.390625,-0.109375
133,1727178698948,-0.07348633,-1.0015259,0.061706543,-1.09375,-1.234375,0.265625
134,1727178698988,-0.083740234,-0.9829712,0.07293701,-0.53125,-1.0625,-0.046875
135,1727178699028,-0.07543945,-0.9939575,0.06488037,-0.953125,-1.171875,-0.125
136,1727178699068,-0.06762695,-0.9944458,0.07147217,-0.421875,-1.265625,-0.25
137,1727178699108,-0.083496094,-0.9956665,0.061462402,-0.6875,-0.859375,0.078125
138,1727178699148,-0.080078125,-0.99786377,0.066101074,-0.4375,-1.21875,-0.25
139,1727178699188,-0.07324219,-0.9841919,0.06390381,-0.46875,-1.5,-0.28125
140,1727178699228,-0.07495117,-0.9998169,0.06585693,-0.5625,-1.828125,-0.25
141,1727178699268,-0.083740234,-0.9985962,0.066101074,-0.234375,-1.4375,-0.203125
142,1727178699308,-0.091308594,-0.9924927,0.06439209,-0.0625,-1.546875,-0.140625
143,1727178699348,-0.092041016,-0.99468994,0.06365967,-0.359375,-2.1875,-0.28125
144,1727178699388,-0.09008789,-0.9924927,0.06365967,0.8125,-2.25,0.125
145,1727178699428,-0.08691406,-0.9939575,0.061462402,0.203125,-1.96875,0.3125
146,1727178699468,-0.079589844,-0.9849243,0.062194824,0.3125,-2.234375,0.453125
147,1727178699508,-0.080322266,-0.9976196,0.055603027,0.40625,-2.015625,0.828125
148,1727178699548,-0.07714844,-0.9854126,0.06317139,2.09375,-2.203125,1.28125
149,1727178699588,-0.068847656,-1.0029907,0.050231934,-0.578125,-1.0,0.515625
150,1727178699628,-0.06665039,-0.99420166,0.05267334,0.578125,-1.21875,0.75
151,1727178699668,-0.071777344,-0.989563,0.050720215,0.25,-0.734375,1.25
152,1727178699708,-0.072021484,-0.9915161,0.0524292,-0.109375,-0.921875,0.796875
153,1727178699748,-0.080322266,-0.9981079,0.042907715,-0.515625,-0.71875,0.453125
154,1727178699788,-0.08154297,-0.99591064,0.055847168,1.125,-1.0,0.9375
155,1727178699828,-0.07348633,-0.9902954,0.04144287,-0.78125,-0.625,0.078125
156,1727178699868,-0.06958008,-0.99102783,0.044128418,-0.640625,-1.078125,-0.1875
157,1727178699908,-0.07446289,-0.9898071,0.04119873,-0.359375,-1.34375,-0.078125
158,1727178699948,-0.076416016,-0.99664307,0.038269043,-0.625,-1.578125,-0.140625
159,1727178699988,-0.06591797,-0.99713135,0.0446167,-0.65625,-1.53125,-0.296875
160,1727178700028,-0.067871094,-1.00177,0.050964355,-1.109375,-0.671875,-0.3125
161,1727178700068,-0.06982422,-0.9898071,0.047058105,-0.734375,-1.0625,-0.171875
162,1727178700108,-0.076660156,-0.9976196,0.042175293,-0.96875,-1.03125,-0.15625
163,1727178700148,-0.06933594,-0.98931885,0.0446167,-0.875,-0.796875,-0.328125
164,1727178700188,-0.060058594,-1.0005493,0.043395996,-1.40625,-1.203125,-0.078125
165,1727178700228,-0.06762695,-0.9915161,0.041931152,-1.0,-0.578125,0.359375
166,1727178700268,-0.06689453,-0.9939575,0.044128418,-1.125,-0.65625,0.109375
167,1727178700308,-0.0703125,-0.99786377,0.048034668,-0.96875,-0.828125,0.203125
168,1727178700348,-0.06738281,-1.00177,0.046813965,-2.578125,-0.625,0.15625
169,1727178700388,-0.07714844,-1.0022583,0.0680542,0.5625,-0.90625,0.375
170,1727178700428,-0.06689453,-0.99298096,0.039978027,-1.375,-0.90625,0.09375
171,1727178700468,-0.06591797,-0.99957275,0.050231934,-4.03125,-0.609375,-0.25
172,1727178700508,-0.08251953,-0.9890747,0.06463623,-3.109375,-0.75,-0.03125
173,1727178700548,-0.08081055,-0.98223877,0.059509277,-3.5625,-0.640625,-0.25
174,1727178700588,-0.06689453,-0.9951782,0.05999756,-2.40625,-1.96875,-0.578125
175,1727178700628,-0.06616211,-1.00177,0.054382324,-2.421875,-0.609375,-0.578125
176,1727178700668,-0.06689453,-0.99102783,0.058776855,-1.890625,-1.140625,0.03125
177,1727178700708,-0.07373047,-1.0027466,0.06317139,-3.03125,-0.671875,-0.734375
178,1727178700748,-0.07543945,-0.9924927,0.06341553,-2.5625,-0.953125,-0.546875
179,1727178700788,-0.0690918,-0.9963989,0.070007324,-1.515625,-1.53125,0.21875
180,1727178700828,-0.06933594,-0.99542236,0.06439209,-1.734375,-0.5625,0.59375
181,1727178700868,-0.06518555,-0.99591064,0.06976318,-1.25,-0.546875,0.578125
182,1727178700908,-0.064453125,-1.0032349,0.074645996,-1.28125,-1.125,0.453125
183,1727178700948,-0.080078125,-0.9854126,0.07904053,-1.203125,-1.5,0.34375
184,1727178700988,-0.07348633,-0.9859009,0.07098389,-1.046875,-1.84375,0.546875
185,1727178701028,-0.06762695,-1.005188,0.07562256,-1.921875,-2.046875,0.0625
186,1727178701068,-0.06323242,-0.9949341,0.07318115,-0.75,-2.40625,0.3125
187,1727178701108,-0.067871094,-0.9951782,0.07562256,-1.234375,-2.25,0.140625
188,1727178701148,-0.0625,-0.99884033,0.07904053,-0.96875,-2.25,0.234375
189,1727178701188,-0.061523438,-1.0029907,0.07659912,-1.046875,-2.234375,0.171875
190,1727178701228,-0.060058594,-0.9932251,0.074401855,-0.53125,-1.65625,0.09375
191,1727178701268,-0.0625,-0.99420166,0.08026123,-0.53125,-1.890625,0.0625
192,1727178701308,-0.063964844,-0.9949341,0.07952881,-0.484375,-1.21875,0.0625
193,1727178701348,-0.061767578,-0.9993286,0.07513428,-0.640625,-1.046875,-0.046875
194,1727178701388,-0.07006836,-0.9937134,0.081726074,-1.40625,-1.015625,-0.34375
195,1727178701428,-0.07324219,-0.99053955,0.093688965,1.078125,-1.359375,0.03125
196,1727178701468,-0.05810547,-0.9939575,0.070251465,-0.703125,-0.875,-0.453125
197,1727178701508,-0.061035156,-1.0015259,0.07562256,-0.875,-0.40625,-0.78125
198,1727178701548,-0.072509766,-0.9890747,0.07537842,-0.546875,-0.328125,-0.078125
199,1727178701588,-0.0690918,-0.99102783,0.08392334,-0.953125,-0.546875,-0.203125
200,1727178701628,-0.06982422,-1.0012817,0.07513428,-1.984375,0.0625,-0.640625
201,1727178701668,-0.07861328,-0.9985962,0.081726074,-0.171875,-0.109375,-0.453125
202,1727178701708,-0.071777344,-0.9961548,0.07513428,-1.078125,-0.328125,-0.5
203,1727178701748,-0.07055664,-0.9981079,0.07098389,-0.65625,0.265625,-0.671875
204,1727178701788,-0.07373047,-0.9920044,0.0770874,-1.859375,0.515625,-0.640625
205,1727178701828,-0.076416016,-0.9956665,0.08758545,-0.734375,0.0,-0.171875
206,1727178701868,-0.07373047,-0.9968872,0.0758667,-0.71875,0.609375,-0.328125
207,1727178701908,-0.06958008,-1.00177,0.078063965,-0.125,0.796875,-0.296875
208,1727178701948,-0.07397461,-0.99298096,0.07904053,0.921875,0.71875,-0.203125
209,1727178701988,-0.08081055,-0.9920044,0.078308105,0.015625,0.25,0.015625
210,1727178702028,-0.08203125,-0.9949341,0.07366943,0.078125,-0.15625,0.0
211,1727178702068,-0.07495117,-0.99884033,0.06976318,0.921875,-0.5,0.296875
212,1727178702108,-0.064697266,-0.9873657,0.06414795,0.0,-0.015625,0.015625
213,1727178702148,-0.07421875,-0.9937134,0.073913574,0.078125,-0.09375,-0.40625
214,1727178702188,-0.07836914,-0.9873657,0.070739746,-0.921875,-0.828125,-0.375
215,1727178702228,-0.080566406,-0.99298096,0.06878662,-0.84375,-0.546875,-0.875
216,1727178702268,-0.07397461,-0.99957275,0.06317139,-0.8125,-0.53125,-0.75
217,1727178702308,-0.061767578,-1.006897,0.06317139,-1.453125,-0.578125,-0.53125
218,1727178702348,-0.07055664,-0.9841919,0.06976318,-1.703125,-0.078125,-0.234375
219,1727178702388,-0.08129883,-0.9871216,0.08270264,-0.28125,-0.71875,-0.265625
220,1727178702428,-0.075683594,-0.9944458,0.06707764,-1.359375,-0.234375,-0.46875
221,1727178702468,-0.0715332,-0.9939575,0.066101074,-1.828125,-0.265625,-0.8125
222,1727178702508,-0.076171875,-0.99298096,0.07171631,-1.875,-0.234375,-0.59375
223,1727178702548,-0.07861328,-0.99102783,0.08099365,-2.234375,0.140625,-0.203125
224,1727178702588,-0.07885742,-1.000061,0.07733154,-1.984375,-0.234375,-0.46875
225,1727178702628,-0.080322266,-0.9973755,0.081726074,-2.15625,-0.125,-0.4375
226,1727178702668,-0.08276367,-0.9924927,0.08050537,-0.609375,0.3125,0.015625
227,1727178702708,-0.07519531,-1.006897,0.07977295,-1.6875,0.0,-0.078125
228,1727178702748,-0.0871582,-1.0025024,0.08026123,-0.921875,0.296875,-0.25
229,1727178702788,-0.08325195,-0.99005127,0.07952881,-0.609375,-0.203125,0.109375
230,1727178702828,-0.080078125,-0.9939575,0.082458496,-0.921875,-0.0625,0.28125
231,1727178702868,-0.08154297,-0.9951782,0.081726074,-0.375,0.21875,0.375
232,1727178702908,-0.07739258,-0.9890747,0.08441162,-0.203125,0.265625,0.546875
233,1727178702948,-0.0793457,-0.9993286,0.08758545,0.09375,0.125,0.5625
234,1727178702988,-0.07348633,-0.986145,0.08001709,-0.296875,-0.0625,0.625
235,1727178703028,-0.076416016,-0.99591064,0.07757568,-0.234375,-0.109375,0.515625
236,1727178703068,-0.07519531,-0.9944458,0.07659912,0.078125,-0.03125,0.578125
237,1727178703108,-0.0690918,-0.99591064,0.08123779,-0.15625,0.34375,0.796875
238,1727178703148,-0.07128906,-0.99542236,0.07269287,-0.234375,0.078125,0.40625
239,1727178703188,-0.076660156,-0.98687744,0.07684326,-0.671875,0.046875,0.46875
240,1727178703228,-0.08251953,-0.9871216,0.07928467,-1.09375,-0.09375,0.703125
241,1727178703268,-0.072265625,-0.989563,0.07269287,0.28125,-0.265625,0.328125
242,1727178703308,-0.07055664,-1.000061,0.07342529,-1.34375,0.296875,-0.09375
243,1727178703348,-0.075927734,-1.000061,0.07562256,-1.078125,0.140625,-0.046875
244,1727178703388,-0.07348633,-0.98565674,0.07904053,-0.671875,0.03125,0.03125
245,1727178703428,-0.07470703,-0.9956665,0.08465576,-0.6875,-0.359375,0.015625
246,1727178703468,-0.0715332,-0.9981079,0.08294678,-0.546875,-0.59375,0.328125
247,1727178703508,-0.07348633,-0.9873657,0.074157715,-0.390625,0.21875,0.296875
248,1727178703548,-0.07299805,-0.99005127,0.07733154,-0.640625,-0.453125,0.15625
249,1727178703588,-0.07348633,-0.99542236,0.08001709,-0.6875,-0.265625,0.09375
250,1727178703628,-0.07080078,-0.99664307,0.074157715,-1.09375,0.234375,0.015625
251,1727178703668,-0.07128906,-0.99298096,0.078063965,-2.015625,0.203125,-0.21875
252,1727178703708,-0.08276367,-0.986145,0.07879639,-2.40625,0.578125,-0.359375
253,1727178703748,-0.0715332,-0.9963989,0.08074951,-2.078125,0.421875,-0.28125
254,1727178703788,-0.072021484,-0.9854126,0.08514404,-1.359375,0.0625,-0.203125
255,1727178703828,-0.07861328,-0.9944458,0.089538574,-0.921875,-0.015625,0.078125
256,1727178703868,-0.08251953,-0.9963989,0.08758545,-0.609375,-0.53125,-0.046875
257,1727178703908,-0.08300781,-0.9939575,0.08123779,-0.984375,-0.828125,-0.15625
258,1727178703948,-0.0793457,-0.99053955,0.07977295,-0.71875,-0.28125,-0.09375
259,1727178703988,-0.08105469,-0.9937134,0.08660889,-0.3125,-0.640625,0.1875
260,1727178704028,-0.076416016,-0.99102783,0.08465576,1.578125,-0.734375,0.53125
261,1727178704068,-0.064208984,-0.99468994,0.08074951,-0.28125,-0.53125,-0.015625
262,1727178704108,-0.06982422,-0.99664307,0.07733154,0.546875,-0.484375,0.125
263,1727178704148,-0.072509766,-0.9824829,0.07611084,0.140625,-0.5625,0.328125
264,1727178704188,-0.07543945,-0.9915161,0.081970215,0.625,-0.921875,0.40625
265,1727178704228,-0.07104492,-0.9956665,0.07171631,0.09375,-0.78125,0.421875
266,1727178704268,-0.068847656,-0.9939575,0.07196045,0.140625,-0.609375,0.5
267,1727178704308,-0.068359375,-0.9963989,0.074645996,0.0625,-0.4375,0.578125
268,1727178704348,-0.07006836,-0.9885864,0.06878662,-0.375,-0.0625,0.125
269,1727178704388,-0.07397461,-0.99053955,0.074401855,-0.046875,-0.34375,0.359375
270,1727178704428,-0.07055664,-0.9998169,0.07635498,-0.375,-0.03125,0.296875
271,1727178704468,-0.067871094,-0.99542236,0.06829834,-0.578125,0.078125,0.359375
272,1727178704508,-0.06762695,-0.9883423,0.070739746,-0.78125,0.5,0.40625
273,1727178704548,-0.068847656,-0.99176025,0.07098389,-0.515625,0.46875,0.265625
274,1727178704588,-0.0637207,-0.99176025,0.07122803,-0.546875,0.171875,0.359375
275,1727178704628,-0.063964844,-0.9963989,0.06903076,-1.34375,0.609375,0.21875
276,1727178704668,-0.068603516,-0.9944458,0.06976318,-0.96875,0.359375,0.0
277,1727178704708,-0.06298828,-0.99957275,0.066833496,-2.015625,0.640625,0.03125
278,1727178704748,-0.06616211,-0.9939575,0.081726074,0.8125,-0.21875,0.78125
279,1727178704788,-0.059326172,-0.99298096,0.0602417,-0.609375,0.5,0.125
280,1727178704828,-0.059326172,-1.0037231,0.06121826,-1.609375,1.046875,-0.46875
281,1727178704868,-0.064208984,-0.99176025,0.074645996,-0.46875,0.453125,-0.046875
282,1727178704908,-0.0715332,-0.987854,0.074645996,-0.828125,0.171875,0.0625
283,1727178704948,-0.06347656,-0.9961548,0.07122803,-2.28125,-0.046875,-0.328125
284,1727178704988,-0.06689453,-0.99346924,0.081726074,-1.109375,0.140625,-0.34375
285,1727178705028,-0.068115234,-0.991272,0.074157715,-0.859375,0.078125,-0.0625
286,1727178705068,-0.06958008,-1.0117798,0.074401855,-1.328125,0.21875,-0.1875
287,1727178705108,-0.0625,-0.99786377,0.07733154,-0.453125,-0.03125,-0.078125
288,1727178705148,-0.064941406,-0.9949341,0.06707764,-0.359375,0.234375,0.109375
289,1727178705188,-0.0703125,-0.9993286,0.06951904,-0.453125,-0.140625,0.140625
290,1727178705228,-0.06958008,-0.9981079,0.06829834,-0.53125,0.484375,0.09375
291,1727178705268,-0.064208984,-1.0007935,0.06707764,-0.0625,0.1875,0.203125
292,1727178705308,-0.06225586,-0.99664307,0.06854248,0.421875,0.328125,0.3125
293,1727178705348,-0.06274414,-0.9846802,0.07171631,-0.421875,0.734375,0.328125
294,1727178705388,-0.0690918,-0.9951782,0.0758667,-0.25,0.4375,0.3125
295,1727178705428,-0.07080078,-0.9956665,0.06829834,-1.890625,0.5625,-0.1875
296,1727178705468,-0.06689453,-0.99468994,0.086364746,-0.0625,-0.3125,0.265625
297,1727178705508,-0.06616211,-0.99786377,0.06317139,-1.21875,0.078125,0.0625
298,1727178705548,-0.064697266,-0.9981079,0.061706543,-1.921875,0.609375,-0.390625
299,1727178705588,-0.061767578,-0.9890747,0.06488037,-1.140625,0.0625,-0.078125
300,1727178705628,-0.06567383,-0.9961548,0.06976318,-1.359375,0.328125,0.203125
301,1727178705668,-0.061767578,-1.0025024,0.0758667,-2.03125,0.625,-0.203125
302,1727178705708,-0.07495117,-0.99591064,0.08416748,-0.828125,0.015625,-0.03125
303,1727178705748,-0.068603516,-0.99420166,0.07537842,-1.671875,0.28125,0.0
304,1727178705788,-0.06616211,-1.0029907,0.08465576,-1.6875,0.25,-0.53125
305,1727178705828,-0.075927734,-0.99102783,0.08123779,-1.390625,-0.125,-0.125
306,1727178705868,-0.076171875,-0.9920044,0.08416748,-1.109375,-0.25,-0.15625
307,1727178705908,-0.072509766,-0.9976196,0.08416748,-1.265625,-0.125,0.0625
308,1727178705948,-0.0690918,-0.99835205,0.08465576,-0.921875,0.234375,0.015625
309,1727178705988,-0.07055664,-0.99224854,0.086120605,-1.046875,-0.046875,0.203125
310,1727178706028,-0.0703125,-0.99102783,0.08514404,-0.953125,0.109375,-0.046875
311,1727178706068,-0.072753906,-0.9968872,0.086364746,-0.375,-0.34375,-0.109375
312,1727178706108,-0.064453125,-0.99542236,0.082458496,-0.59375,-0.328125,0.1875
313,1727178706148,-0.06640625,-0.99884033,0.089538574,-0.015625,-0.359375,0.078125
314,1727178706188,-0.06933594,-0.9937134,0.08001709,-1.046875,-0.1875,-0.03125
315,1727178706228,-0.07519531,-0.99468994,0.09320068,1.640625,-1.171875,0.5625
316,1727178706268,-0.061523438,-0.9939575,0.07171631,-0.09375,-0.515625,0.265625
317,1727178706308,-0.052978516,-0.9937134,0.07562256,-0.140625,-0.21875,-0.375
318,1727178706348,-0.0625,-0.98687744,0.08123779,0.140625,-0.109375,0.09375
319,1727178706388,-0.063964844,-0.9932251,0.077819824,-0.453125,-0.3125,0.421875
320,1727178706428,-0.061523438,-1.0042114,0.07611084,-0.828125,-0.203125,0.046875
321,1727178706468,-0.06298828,-0.9915161,0.08465576,-0.515625,-0.34375,0.015625
322,1727178706508,-0.06518555,-0.9937134,0.07366943,-1.59375,0.109375,-0.125
323,1727178706548,-0.064453125,-0.99591064,0.08270264,-1.5625,0.09375,-0.40625
324,1727178706588,-0.067871094,-0.99664307,0.07611084,-1.421875,0.078125,-0.28125
325,1727178706628,-0.064697266,-1.0022583,0.07733154,-1.40625,0.109375,-0.09375
326,1727178706668,-0.06274414,-0.9924927,0.081726074,-0.890625,0.21875,-0.1875
327,1727178706708,-0.06225586,-0.99957275,0.07733154,-0.78125,0.46875,-0.078125
328,1727178706748,-0.07080078,-0.99591064,0.08026123,-1.5,0.875,-0.046875
329,1727178706788,-0.080566406,-0.99664307,0.082214355,-1.421875,0.328125,-0.609375
330,1727178706828,-0.07373047,-0.9956665,0.082214355,-1.625,-0.125,-0.671875
331,1727178706868,-0.072265625,-0.9961548,0.082214355,-1.234375,0.03125,-0.359375
332,1727178706908,-0.06958008,-0.9924927,0.08343506,-1.625,0.109375,-0.40625
333,1727178706948,-0.07104492,-1.000061,0.08343506,-1.4375,-0.296875,-0.296875
334,1727178706988,-0.06958008,-1.00177,0.085876465,-1.9375,0.28125,-0.078125
335,1727178707028,-0.068603516,-0.9873657,0.08734131,-0.125,-0.515625,0.0625
336,1727178707068,-0.06933594,-0.9956665,0.081726074,-2.265625,0.15625,-0.015625
337,1727178707108,-0.0690918,-1.0022583,0.08026123,-1.84375,0.609375,-0.34375
338,1727178707148,-0.07080078,-0.99468994,0.09124756,-1.59375,-0.4375,-0.125
339,1727178707188,-0.072753906,-0.99224854,0.08905029,-1.234375,-0.46875,-0.109375
340,1727178707228,-0.07348633,-0.99957275,0.09197998,-2.046875,-0.484375,-0.34375
341,1727178707268,-0.07397461,-0.99298096,0.097839355,-1.078125,-0.71875,-0.421875
342,1727178707308,-0.06518555,-0.9963989,0.09295654,-1.34375,-0.296875,-0.375
343,1727178707348,-0.06567383,-0.99786377,0.093444824,-1.546875,-0.40625,-0.625
344,1727178707388,-0.075683594,-0.99102783,0.0927124,-1.3125,-0.375,-0.34375
345,1727178707428,-0.0769043,-0.9944458,0.097351074,-1.171875,-0.9375,-0.3125
346,1727178707468,-0.07080078,-0.9885864,0.09613037,-0.953125,-0.265625,-0.5625
347,1727178707508,-0.07299805,-0.9932251,0.09637451,-0.796875,0.0625,-0.28125
348,1727178707548,-0.0715332,-0.99713135,0.101257324,-0.765625,-0.234375,-0.09375
349,1727178707588,-0.07739258,-0.9951782,0.10028076,-1.296875,-0.0625,-0.234375
350,1727178707628,-0.0793457,-0.99005127,0.09954834,-0.71875,-0.15625,-0.296875
351,1727178707668,-0.080322266,-0.99664307,0.09906006,-0.984375,-0.078125,-0.1875
352,1727178707708,-0.06958008,-0.989563,0.097839355,-0.25,-0.171875,-0.3125
353,1727178707748,-0.075927734,-0.9961548,0.101501465,-1.0625,-0.328125,0.0
354,1727178707788,-0.07788086,-0.98638916,0.105163574,-0.5625,-0.140625,-0.296875
355,1727178707828,-0.083984375,-0.9890747,0.10369873,0.890625,-0.65625,0.171875
356,1727178707868,-0.07055664,-0.9907837,0.09320068,-0.21875,-0.359375,0.15625
357,1727178707908,-0.079589844,-0.9985962,0.10028076,0.40625,0.03125,0.21875
358,1727178707948,-0.075927734,-0.989563,0.09490967,0.609375,0.0625,0.546875
359,1727178707988,-0.07324219,-0.9937134,0.09295654,0.3125,-0.34375,0.59375
360,1727178708028,-0.07104492,-1.003479,0.08685303,-0.421875,0.03125,0.375
361,1727178708068,-0.0793457,-0.9932251,0.08807373,0.078125,0.125,0.734375
362,1727178708108,-0.068359375,-0.9837036,0.08441162,0.21875,-0.015625,0.390625
363,1727178708148,-0.07348633,-1.0005493,0.086364746,-0.5,-0.109375,-0.03125
364,1727178708188,-0.0715332,-0.9973755,0.08758545,0.28125,-0.515625,0.5
365,1727178708228,-0.068847656,-0.99713135,0.082214355,0.25,-0.3125,0.6875
366,1727178708268,-0.06738281,-0.99346924,0.08660889,-0.3125,-0.09375,0.203125
367,1727178708308,-0.068115234,-0.9907837,0.08392334,-0.078125,0.078125,0.484375
368,1727178708348,-0.060546875,-0.99420166,0.08294678,-0.421875,0.265625,0.734375
369,1727178708388,-0.06225586,-0.99884033,0.08660889,-1.0,0.65625,0.578125
370,1727178708428,-0.063964844,-0.9956665,0.085876465,0.21875,0.171875,0.75
371,1727178708468,-0.059814453,-1.0044556,0.07904053,-0.390625,0.5,0.703125
372,1727178708508,-0.06518555,-0.9924927,0.082458496,-0.671875,1.015625,0.5
373,1727178708548,-0.075927734,-1.0010376,0.0914917,-1.015625,0.4375,0.734375
374,1727178708588,-0.080078125,-0.99298096,0.0848999,0.0,-0.296875,0.609375
375,1727178708628,-0.061279297,-1.00177,0.078063965,-1.609375,-0.140625,-0.53125
376,1727178708668,-0.064453125,-0.9990845,0.07659912,-0.46875,-0.671875,-0.578125
377,1727178708708,-0.064208984,-0.9924927,0.08856201,-0.96875,-0.78125,-0.015625
378,1727178708748,-0.07080078,-0.9949341,0.08123779,-0.890625,-0.96875,-0.3125
379,1727178708788,-0.061035156,-1.0039673,0.08319092,-0.9375,-1.125,-0.5
380,1727178708828,-0.06762695,-0.9915161,0.08392334,0.5,-1.078125,-0.015625
381,1727178708868,-0.059570312,-0.99224854,0.08148193,-0.84375,-0.546875,0.078125
382,1727178708908,-0.064941406,-0.99298096,0.08050537,-0.265625,-0.515625,0.0625
383,1727178708948,-0.06665039,-0.99664307,0.08856201,0.015625,-0.71875,0.4375
384,1727178708988,-0.060058594,-0.99420166,0.08050537,0.1875,-0.984375,0.21875
385,1727178709028,-0.064941406,-0.9963989,0.08001709,-0.28125,-0.828125,-0.109375
386,1727178709068,-0.07006836,-0.99884033,0.082458496,-0.296875,-0.921875,0.09375
387,1727178709108,-0.06616211,-0.9956665,0.07537842,-0.4375,-1.03125,0.015625
388,1727178709148,-0.060791016,-0.9902954,0.07244873,-0.65625,-1.0,-0.234375
389,1727178709188,-0.06689453,-0.989563,0.07513428,-0.6875,-0.59375,-0.40625
390,1727178709228,-0.06567383,-0.9939575,0.07733154,-1.15625,-0.75,-0.21875
391,1727178709268,-0.07104492,-1.0027466,0.074645996,-2.0625,-0.765625,-0.390625
392,1727178709308,-0.076660156,-0.99176025,0.086364746,1.109375,-1.28125,-0.328125
393,1727178709348,-0.055664062,-0.9993286,0.06854248,-0.234375,-1.34375,-0.28125
394,1727178709388,-0.047851562,-1.000061,0.07098389,-0.9375,-0.875,-0.28125
395,1727178709428,-0.06689453,-0.9846802,0.08050537,-0.421875,-0.265625,0.078125
396,1727178709468,-0.07324219,-0.99468994,0.082214355,-0.59375,-0.21875,0.21875
397,1727178709508,-0.059814453,-0.9981079,0.07733154,-1.515625,-0.1875,0.015625
398,1727178709548,-0.06518555,-0.99420166,0.07928467,-0.75,0.25,0.140625
399,1727178709588,-0.067871094,-0.99224854,0.07733154,-0.375,-0.296875,0.5625
400,1727178709628,-0.060791016,-0.99591064,0.06903076,-1.21875,0.34375,0.125
401,1727178709668,-0.068359375,-1.0003052,0.08148193,-0.421875,0.203125,0.0625
402,1727178709708,-0.068359375,-0.9973755,0.07318115,-0.640625,0.0,0.34375
403,1727178709748,-0.06274414,-0.9920044,0.07489014,-0.421875,0.328125,0.203125
404,1727178709788,-0.060791016,-0.99176025,0.07269287,-0.375,0.15625,0.21875
405,1727178709828,-0.06616211,-0.9944458,0.07879639,-0.59375,0.234375,0.1875
406,1727178709868,-0.06567383,-0.9920044,0.07757568,-0.625,-0.046875,0.0625
407,1727178709908,-0.061767578,-0.9920044,0.08074951,-0.328125,-0.078125,0.1875
408,1727178709948,-0.06298828,-0.9968872,0.06414795,-0.78125,0.109375,-0.015625
409,1727178709988,-0.059326172,-0.98760986,0.07733154,-0.609375,-0.21875,0.25
410,1727178710028,-0.061035156,-0.9981079,0.07513428,-1.390625,-0.171875,-0.09375
411,1727178710068,-0.068359375,-0.99664307,0.082458496,1.234375,-0.4375,0.703125
412,1727178710108,-0.061767578,-0.99664307,0.07342529,-0.90625,0.21875,0.359375
413,1727178710148,-0.0546875,-1.0020142,0.074157715,-1.203125,0.34375,0.015625
414,1727178710188,-0.068359375,-0.9976196,0.073913574,-0.71875,0.421875,0.078125
415,1727178710228,-0.061035156,-0.991272,0.070251465,-0.703125,-0.296875,-0.109375
416,1727178710268,-0.061279297,-0.9932251,0.07196045,-1.140625,-0.25,-0.375
417,1727178710308,-0.05834961,-0.989563,0.074645996,-0.484375,-0.359375,-0.109375
418,1727178710348,-0.06713867,-0.99176025,0.07879639,-1.609375,-0.1875,-0.21875
419,1727178710388,-0.061767578,-0.9932251,0.06732178,-1.1875,-0.078125,-0.65625
420,1727178710428,-0.059814453,-0.99835205,0.07684326,-1.4375,-0.546875,-0.390625
421,1727178710468,-0.0690918,-0.9993286,0.07293701,-0.953125,-0.296875,-0.53125
422,1727178710508,-0.06689453,-0.9939575,0.08148193,-1.59375,-0.28125,-0.328125
423,1727178710548,-0.072753906,-1.0005493,0.082458496,-1.5,-0.15625,-0.390625
424,1727178710588,-0.07495117,-1.000061,0.08148193,-1.359375,-0.546875,-0.328125
425,1727178710628,-0.06933594,-0.991272,0.08001709,-1.15625,-0.328125,-0.40625
426,1727178710668,-0.0703125,-0.9915161,0.07977295,-1.328125,-0.4375,-0.4375
427,1727178710708,-0.071777344,-0.9927368,0.08392334,-0.890625,-0.34375,-0.375
428,1727178710748,-0.06933594,-0.99664307,0.08270264,-1.046875,-0.359375,-0.265625
429,1727178710788,-0.06640625,-0.9898071,0.07757568,-0.8125,-0.390625,-0.140625
430,1727178710828,-0.06762695,-0.9985962,0.08831787,-1.96875,-0.28125,-0.359375
431,1727178710868,-0.075927734,-0.9963989,0.09490967,0.203125,-0.390625,0.28125
432,1727178710908,-0.07055664,-0.9949341,0.08099365,-2.375,0.234375,-0.296875
433,1727178710948,-0.064697266,-0.9920044,0.08807373,-1.984375,0.359375,-0.671875
434,1727178710988,-0.0690918,-0.99884033,0.09320068,-2.21875,0.359375,-0.234375
435,1727178711028,-0.07373047,-0.99102783,0.09295654,-1.90625,0.03125,-0.265625
436,1727178711068,-0.060546875,-0.99298096,0.08856201,-1.921875,-0.015625,-0.640625
437,1727178711108,-0.06933594,-0.9949341,0.0993042,-1.3125,0.0625,-0.1875
438,1727178711148,-0.06713867,-1.0042114,0.093688965,-1.6875,-0.125,-0.171875
439,1727178711188,-0.06738281,-0.9961548,0.090026855,-1.28125,0.15625,-0.46875
440,1727178711228,-0.07348633,-0.99005127,0.09588623,-0.34375,-0.390625,-0.015625
441,1727178711268,-0.072021484,-0.9951782,0.09442139,-0.75,-0.046875,-0.015625
442,1727178711308,-0.07397461,-0.9951782,0.09246826,-1.03125,0.078125,0.046875
443,1727178711348,-0.076171875,-0.9963989,0.093444824,-0.6875,-0.0625,-0.140625
444,1727178711388,-0.072509766,-0.987854,0.10028076,-0.765625,-0.359375,-0.234375
445,1727178711428,-0.0703125,-0.9973755,0.097595215,-0.84375,0.03125,-0.171875
446,1727178711468,-0.07446289,-0.9976196,0.08905029,-1.234375,0.21875,-0.0625
447,1727178711508,-0.072753906,-0.9885864,0.10101318,-1.078125,-0.125,-0.15625
448,1727178711548,-0.07373047,-0.99713135,0.09881592,-1.171875,0.625,-0.171875
449,1727178711588,-0.07348633,-0.9939575,0.097595215,-1.765625,0.46875,-0.25
450,1727178711628,-0.07421875,-0.98883057,0.10223389,-1.703125,0.375,-0.0625
451,1727178711668,-0.07763672,-0.9968872,0.101501465,-1.8125,-0.1875,-0.453125
452,1727178711708,-0.08276367,-0.9927368,0.11199951,-0.03125,-0.28125,-0.015625
453,1727178711748,-0.07470703,-0.99786377,0.09295654,-2.53125,0.5625,-0.296875
454,1727178711788,-0.07763672,-0.99786377,0.10467529,-1.5,0.234375,-0.625
455,1727178711828,-0.0793457,-0.9985962,0.10662842,-1.34375,-0.09375,-0.296875
456,1727178711868,-0.08251953,-0.9981079,0.109313965,-1.328125,-0.0625,-0.53125
457,1727178711908,-0.079589844,-0.9937134,0.10443115,-1.171875,0.015625,-0.640625
458,1727178711948,-0.07373047,-0.9890747,0.109802246,0.0625,0.328125,-0.21875
459,1727178711988,-0.080566406,-0.9961548,0.10418701,-0.640625,0.28125,-0.15625
460,1727178712028,-0.0793457,-0.9924927,0.11248779,-1.359375,0.203125,-0.171875
461,1727178712068,-0.07421875,-0.99176025,0.11077881,-1.171875,-0.234375,-0.359375
462,1727178712108,-0.076660156,-0.9949341,0.11102295,-2.9375,-0.28125,-0.34375
463,1727178712148,-0.08203125,-0.98687744,0.121520996,-4.546875,-0.78125,-0.375
464,1727178712188,-0.07788086,-0.99420166,0.117614746,-3.59375,-0.421875,-0.46875
465,1727178712228,-0.08154297,-0.99713135,0.12005615,-3.359375,-0.28125,-0.578125
466,1727178712268,-0.080078125,-0.9937134,0.121520996,-2.46875,-0.234375,-0.375
467,1727178712308,-0.08325195,-0.98809814,0.12640381,-1.78125,-0.140625,-0.75
468,1727178712348,-0.08691406,-0.99224854,0.12664795,-1.171875,-0.34375,-0.296875
469,1727178712388,-0.08666992,-1.0003052,0.12249756,-0.71875,-0.390625,-0.15625
470,1727178712428,-0.079833984,-0.9937134,0.12884521,-0.9375,-0.359375,-0.28125
471,1727178712468,-0.0859375,-0.9961548,0.1281128,-0.8125,0.46875,-0.5625
472,1727178712508,-0.09008789,-0.9944458,0.12738037,0.421875,-0.25,-0.328125
473,1727178712548,-0.084228516,-0.9932251,0.117370605,-1.796875,0.296875,-0.359375
474,1727178712588,-0.08081055,-0.99542236,0.12298584,-0.4375,-0.046875,-0.53125
475,1727178712628,-0.095214844,-0.9854126,0.12982178,-0.5,-0.265625,0.078125
476,1727178712668,-0.08251953,-0.9981079,0.12689209,-1.6875,-0.4375,0.015625
477,1727178712708,-0.08935547,-1.0012817,0.12713623,-1.046875,-0.625,-0.109375
478,1727178712748,-0.088134766,-0.98883057,0.1359253,-1.234375,-0.375,0.0
479,1727178712788,-0.076660156,-0.9944458,0.12762451,-0.515625,0.015625,-0.09375
480,1727178712828,-0.0793457,-0.9939575,0.13250732,-0.40625,0.109375,0.21875
481,1727178712868,-0.09106445,-0.9924927,0.12786865,-0.3125,-0.078125,0.3125
482,1727178712908,-0.088378906,-0.989563,0.12786865,-0.140625,-0.453125,0.328125
483,1727178712948,-0.0847168,-0.9920044,0.12615967,-0.140625,-0.078125,0.09375
484,1727178712988,-0.087890625,-1.0003052,0.12713623,0.265625,-0.140625,0.140625
485,1727178713028,-0.08129883,-0.99664307,0.12420654,0.078125,0.015625,0.421875
486,1727178713068,-0.08569336,-0.99176025,0.12835693,0.453125,-0.03125,0.171875
487,1727178713108,-0.079833984,-0.99346924,0.11932373,-0.671875,0.1875,-0.203125
488,1727178713148,-0.08081055,-1.0020142,0.117370605,-0.640625,-0.109375,0.109375
489,1727178713188,-0.08618164,-0.9812622,0.12249756,-1.0,0.578125,0.203125
490,1727178713228,-0.08959961,-0.99176025,0.12884521,0.8125,-0.5625,0.359375
491,1727178713268,-0.08618164,-0.9973755,0.116882324,-0.234375,-0.28125,0.125
492,1727178713308,-0.08691406,-0.99786377,0.11834717,-0.1875,0.171875,-0.40625
493,1727178713348,-0.08642578,-0.9927368,0.121032715,0.0,-0.28125,-0.046875
494,1727178713388,-0.08544922,-0.99786377,0.124938965,0.34375,-0.9375,0.25
495,1727178713428,-0.08300781,-0.99468994,0.117126465,0.65625,-0.96875,0.078125
496,1727178713468,-0.083740234,-0.9939575,0.11834717,0.75,-1.125,0.453125
497,1727178713508,-0.076660156,-0.986145,0.113464355,0.53125,-0.78125,0.265625
498,1727178713548,-0.076171875,-0.9924927,0.10784912,-0.015625,-0.375,0.265625
499,1727178713588,-0.0859375,-0.9968872,0.11077881,-0.6875,-0.453125,0.625
500,1727178713628,-0.072021484,-0.99786377,0.11077881,-0.046875,-0.625,0.28125
501,1727178713668,-0.07861328,-0.99346924,0.112976074,-0.625,-0.390625,0.203125
502,1727178713708,-0.084472656,-0.9907837,0.109802246,-0.484375,-0.359375,0.390625
503,1727178713748,-0.08276367,-0.9976196,0.109802246,-0.421875,-0.265625,0.0625
504,1727178713788,-0.08129883,-0.99664307,0.11077881,-0.640625,-0.21875,-0.140625
505,1727178713828,-0.07910156,-0.9890747,0.10418701,-1.171875,-0.046875,-0.03125
506,1727178713868,-0.07324219,-0.9883423,0.10614014,-1.25,-0.3125,-0.140625
507,1727178713908,-0.084472656,-0.99542236,0.11444092,-1.34375,-0.203125,-0.296875
508,1727178713948,-0.08129883,-0.9915161,0.11199951,0.421875,-0.390625,0.0625
509,1727178713988,-0.07910156,-0.99346924,0.10443115,-1.609375,0.09375,-0.171875
510,1727178714028,-0.07543945,-1.0003052,0.105163574,-0.703125,0.25,-0.203125
511,1727178714068,-0.08276367,-0.9998169,0.113220215,-1.59375,0.78125,-0.265625
512,1727178714108,-0.076171875,-0.9944458,0.1071167,-0.640625,0.421875,-0.265625
513,1727178714148,-0.07519531,-0.99713135,0.10736084,-1.34375,0.21875,-0.265625
514,1727178714188,-0.08666992,-0.98760986,0.121276855,-1.359375,0.15625,-0.109375
515,1727178714228,-0.0793457,-0.9993286,0.11639404,-2.53125,-0.28125,0.0625
516,1727178714268,-0.0769043,-0.9951782,0.1161499,-1.421875,0.421875,-0.6875
517,1727178714308,-0.084472656,-0.99005127,0.11468506,-1.15625,0.046875,-0.140625
518,1727178714348,-0.0859375,-0.99053955,0.11590576,-0.96875,-0.375,0.171875
519,1727178714388,-0.07885742,-0.9920044,0.11810303,-0.640625,-0.578125,-0.40625
520,1727178714428,-0.07885742,-0.99053955,0.11419678,-0.921875,-0.53125,-0.265625
521,1727178714468,-0.080322266,-0.9927368,0.11248779,-0.671875,-0.828125,0.125
522,1727178714508,-0.0793457,-0.9859009,0.11932373,-0.671875,-0.21875,-0.234375
523,1727178714548,-0.084472656,-0.9890747,0.117614746,-0.8125,-0.515625,-0.09375
524,1727178714588,-0.07836914,-0.99005127,0.11053467,-0.484375,-0.828125,0.15625
525,1727178714628,-0.080078125,-0.9939575,0.11932373,-1.25,-1.125,-0.28125
526,1727178714668,-0.08203125,-0.99420166,0.12591553,1.765625,-1.046875,0.640625
527,1727178714708,-0.08178711,-0.99542236,0.109558105,-1.109375,-0.25,0.015625
528,1727178714748,-0.07861328,-0.9973755,0.11663818,0.6875,-0.53125,0.40625
529,1727178714788,-0.080078125,-0.99591064,0.1149292,-0.484375,0.125,0.8125
530,1727178714828,-0.07104492,-0.9915161,0.1161499,0.265625,-0.75,0.203125
531,1727178714868,-0.07714844,-0.99176025,0.11981201,-1.21875,-0.296875,-0.234375
532,1727178714908,-0.0859375,-0.99468994,0.116882324,0.71875,-0.5625,0.203125
533,1727178714948,-0.079589844,-0.99786377,0.109313965,-0.9375,-0.453125,-0.09375
534,1727178714988,-0.078125,-0.99005127,0.113464355,-0.75,-0.53125,-0.359375
535,1727178715028,-0.0793457,-0.99468994,0.11419678,-0.21875,-0.5,-0.21875
536,1727178715068,-0.07763672,-0.9976196,0.11175537,-0.90625,-0.046875,-0.078125
537,1727178715108,-0.07519531,-0.9990845,0.113464355,-0.46875,-0.140625,-0.0625
538,1727178715148,-0.0793457,-0.9944458,0.11151123,-1.0,-0.3125,-0.15625
539,1727178715188,-0.076416016,-0.9873657,0.11077881,-0.421875,-0.171875,0.015625
540,1727178715228,-0.080566406,-0.99420166,0.11419678,-0.421875,-0.171875,-0.09375
541,1727178715268,-0.076171875,-0.991272,0.10467529,-0.765625,0.015625,-0.03125
542,1727178715308,-0.08520508,-0.9981079,0.112976074,-0.703125,-0.140625,0.015625
543,1727178715348,-0.08300781,-0.9981079,0.105163574,-1.640625,-0.515625,-0.125
544,1727178715388,-0.083496094,-0.99884033,0.12176514,1.078125,-0.6875,0.15625
545,1727178715428,-0.07006836,-0.9961548,0.09906006,-0.875,-0.21875,-0.09375
546,1727178715468,-0.07519531,-0.99591064,0.101257324,-1.359375,-0.234375,-0.390625
547,1727178715508,-0.0847168,-0.9973755,0.10491943,-0.765625,-0.15625,-0.140625
548,1727178715548,-0.088378906,-0.99713135,0.11053467,-0.59375,-0.5,-0.03125
549,1727178715588,-0.080566406,-0.99591064,0.105163574,-1.109375,-0.40625,-0.171875
550,1727178715628,-0.08569336,-0.9883423,0.1083374,-0.265625,-0.3125,0.015625
551,1727178715668,-0.0871582,-0.9927368,0.10638428,-1.03125,-0.71875,0.0
552,1727178715708,-0.080078125,-0.9973755,0.109802246,-0.703125,-0.359375,-0.234375
553,1727178715748,-0.08154297,-0.99713135,0.105895996,-0.6875,-0.671875,0.03125
554,1727178715788,-0.080566406,-0.9990845,0.11053467,-0.1875,-0.328125,0.28125
555,1727178715828,-0.08496094,-0.9907837,0.10760498,-0.515625,-0.140625,0.15625
556,1727178715868,-0.083740234,-0.99542236,0.11273193,-0.421875,-0.140625,0.21875
557,1727178715908,-0.08105469,-0.9924927,0.10662842,-0.796875,-0.140625,-0.03125
558,1727178715948,-0.08081055,-0.99176025,0.11077881,-0.828125,-0.0625,0.109375
559,1727178715988,-0.078125,-0.989563,0.10272217,-0.5,-0.1875,0.234375
560,1727178716028,-0.07739258,-0.9924927,0.10809326,-0.890625,-0.171875,-0.015625
561,1727178716068,-0.083496094,-0.98321533,0.10614014,-0.875,0.1875,0.015625
562,1727178716108,-0.0847168,-0.9937134,0.10662842,-0.375,-0.328125,0.234375
563,1727178716148,-0.08666992,-0.9973755,0.11053467,-1.625,0.125,-0.203125
564,1727178716188,-0.083984375,-0.9956665,0.11517334,1.15625,-0.375,0.546875
565,1727178716228,-0.078125,-0.9968872,0.10467529,-0.484375,-0.078125,0.1875
566,1727178716268,-0.07373047,-0.99713135,0.10858154,-0.59375,0.015625,-0.03125
567,1727178716308,-0.08642578,-0.99053955,0.10784912,-0.578125,0.203125,0.09375
568,1727178716348,-0.084472656,-0.99102783,0.10443115,-0.4375,-0.34375,0.0625
569,1727178716388,-0.07910156,-0.9854126,0.09881592,-0.6875,-0.109375,-0.140625
570,1727178716428,-0.08496094,-0.99176025,0.109313965,-0.1875,-0.46875,0.28125
571,1727178716468,-0.07739258,-0.9968872,0.10614014,-0.4375,-0.6875,0.328125
572,1727178716508,-0.07739258,-0.9968872,0.10369873,-0.484375,-0.25,-0.21875
573,1727178716548,-0.08081055,-0.98883057,0.105651855,-0.15625,-0.59375,0.28125
574,1727178716588,-0.08081055,-0.9993286,0.105895996,-1.125,-1.5,0.46875
575,1727178716628,-0.07348633,-1.0015259,0.109069824,-1.3125,-2.046875,0.546875
576,1727178716668,-0.07446289,-0.9883423,0.10272217,0.75,-0.671875,0.171875
577,1727178716708,-0.07910156,-0.9981079,0.10345459,-0.15625,-0.453125,0.234375
578,1727178716748,-0.07373047,-0.9981079,0.101745605,-0.734375,-0.578125,0.140625
579,1727178716788,-0.07910156,-0.99664307,0.09637451,-0.359375,0.078125,-0.078125
580,1727178716828,-0.078125,-0.9981079,0.09832764,-0.625,0.234375,-0.0625
581,1727178716868,-0.08129883,-0.9920044,0.09857178,-1.0,0.515625,-0.03125
582,1727178716908,-0.0715332,-0.99053955,0.10028076,-1.484375,0.265625,-0.078125
583,1727178716948,-0.076660156,-0.99420166,0.109558105,-1.640625,0.0625,-0.21875
584,1727178716988,-0.080078125,-1.0005493,0.09954834,-1.671875,0.328125,-0.171875
585,1727178717028,-0.07861328,-0.99713135,0.10809326,-1.953125,-0.59375,0.0625
586,1727178717068,-0.072265625,-0.9956665,0.1083374,-2.609375,0.265625,-0.296875
587,1727178717108,-0.07788086,-0.9920044,0.11444092,-0.34375,-0.015625,-0.109375
588,1727178717148,-0.07714844,-0.99542236,0.093933105,-2.078125,0.765625,0.0
589,1727178717188,-0.07324219,-0.99957275,0.10003662,-1.78125,0.015625,-0.046875
590,1727178717228,-0.07495117,-0.9902954,0.10882568,-1.34375,-0.4375,0.046875
591,1727178717268,-0.076660156,-0.9902954,0.1161499,-1.125,-0.015625,-0.09375
592,1727178717308,-0.076660156,-0.9920044,0.109802246,-1.328125,0.296875,-0.515625
593,1727178717348,-0.07788086,-0.98883057,0.12249756,-0.328125,0.40625,-0.328125
594,1727178717388,-0.08251953,-0.9939575,0.113220215,-1.0,0.03125,-0.328125
595,1727178717428,-0.06958008,-0.9949341,0.11151123,-1.53125,0.171875,-0.328125
596,1727178717468,-0.07861328,-0.991272,0.11395264,-1.1875,-0.375,-0.171875
597,1727178717508,-0.08081055,-0.9949341,0.113708496,-1.453125,0.0,-0.390625
598,1727178717548,-0.0847168,-0.98565674,0.1149292,-1.25,-0.078125,-0.234375
599,1727178717588,-0.084472656,-0.9915161,0.113708496,-1.421875,-0.515625,-0.125
600,1727178717628,-0.076171875,-0.99224854,0.113708496,-1.234375,-0.484375,-0.21875
601,1727178717668,-0.08129883,-0.9883423,0.117126465,-0.765625,-0.203125,-0.203125
602,1727178717708,-0.08862305,-0.9915161,0.124938965,-0.625,0.203125,-0.0625
603,1727178717748,-0.088134766,-0.9915161,0.11199951,0.71875,0.0625,0.078125
604,1727178717788,-0.078125,-0.9990845,0.11590576,-0.671875,0.09375,0.015625
605,1727178717828,-0.08642578,-1.0059204,0.11981201,-0.28125,-0.390625,0.0625
606,1727178717868,-0.08642578,-0.98809814,0.11126709,-0.046875,0.125,0.125
607,1727178717908,-0.08300781,-0.9837036,0.1149292,-0.734375,0.109375,-0.078125
608,1727178717948,-0.08569336,-0.99224854,0.117126465,0.515625,-0.28125,0.078125
609,1727178717988,-0.08203125,-0.9951782,0.112976074,0.890625,0.125,0.40625
610,1727178718028,-0.07495117,-0.9951782,0.109802246,0.0625,0.34375,-0.171875
611,1727178718068,-0.08154297,-0.99298096,0.10394287,0.15625,0.203125,0.125
612,1727178718108,-0.08496094,-0.9873657,0.10101318,0.765625,0.59375,0.359375
613,1727178718148,-0.08081055,-0.9902954,0.10760498,1.03125,0.0625,-0.390625
614,1727178718188,-0.0769043,-0.99591064,0.10003662,-0.671875,-0.75,-0.125
615,1727178718228,-0.078125,-1.0032349,0.11077881,-2.078125,-0.4375,0.015625
616,1727178718268,-0.07495117,-0.99591064,0.0993042,-1.25,-0.53125,-0.203125
617,1727178718308,-0.08496094,-0.98883057,0.10394287,-0.640625,-0.3125,-0.25
618,1727178718348,-0.07714844,-0.9885864,0.105651855,-0.828125,-0.5625,-0.109375
619,1727178718388,-0.076416016,-0.9973755,0.10418701,-0.734375,-0.21875,-0.171875
620,1727178718428,-0.08251953,-0.9890747,0.10662842,-0.296875,-0.25,0.0
621,1727178718468,-0.0793457,-0.99176025,0.109069824,0.90625,-0.546875,0.171875
622,1727178718508,-0.0871582,-0.9981079,0.109558105,0.9375,-0.15625,-0.015625
623,1727178718548,-0.08081055,-0.9981079,0.10467529,1.03125,-0.84375,0.0
624,1727178718588,-0.084228516,-0.9968872,0.097595215,0.796875,-0.796875,0.359375
625,1727178718628,-0.08569336,-0.99664307,0.09295654,0.625,-0.671875,0.125
626,1727178718668,-0.08105469,-0.99053955,0.093688965,0.125,-0.515625,0.328125
627,1727178718708,-0.0793457,-0.9990845,0.09539795,-0.46875,-0.359375,0.046875
628,1727178718748,-0.078125,-0.9932251,0.09173584,0.96875,-0.65625,0.5625
629,1727178718788,-0.075927734,-0.99542236,0.09197998,-0.765625,-0.09375,0.09375
630,1727178718828,-0.07519531,-0.9924927,0.09051514,0.203125,-0.390625,-0.015625
631,1727178718868,-0.08276367,-0.99298096,0.09051514,0.265625,-0.59375,0.390625
632,1727178718908,-0.078125,-0.99420166,0.09100342,-0.546875,-0.671875,0.125
633,1727178718948,-0.07910156,-0.9961548,0.09051514,-0.390625,-0.703125,-0.1875
634,1727178718988,-0.08178711,-0.986145,0.094177246,-0.0625,-0.546875,0.28125
635,1727178719028,-0.07739258,-0.9902954,0.08392334,-0.328125,-0.28125,0.296875
636,1727178719068,-0.0793457,-1.0003052,0.08709717,-0.375,-0.234375,-0.125
637,1727178719108,-0.080566406,-0.99346924,0.08465576,-0.140625,-0.46875,0.28125
638,1727178719148,-0.07763672,-0.9956665,0.082458496,-0.53125,-0.4375,0.28125
639,1727178719188,-0.07788086,-0.99835205,0.082458496,-0.625,-0.484375,-0.109375
640,1727178719228,-0.07470703,-0.9956665,0.085632324,-0.796875,-0.390625,-0.046875
641,1727178719268,-0.07470703,-0.99786377,0.08001709,-1.171875,-0.609375,-0.03125
642,1727178719308,-0.07446289,-0.99664307,0.08734131,-0.421875,-0.609375,0.09375
643,1727178719348,-0.07470703,-0.99664307,0.08856201,-1.28125,-0.359375,0.1875
644,1727178719388,-0.07739258,-0.9956665,0.08050537,-0.90625,0.078125,0.109375
645,1727178719428,-0.079589844,-1.00177,0.090270996,-0.59375,-0.703125,0.0625
646,1727178719468,-0.079589844,-0.99176025,0.08685303,1.21875,-0.40625,0.703125
647,1727178719508,-0.072753906,-1.0059204,0.073913574,-1.6875,0.5625,-0.34375
648,1727178719548,-0.06298828,-0.9924927,0.086120605,-1.078125,0.0,-0.234375
649,1727178719588,-0.07739258,-1.0007935,0.0836792,-1.984375,-0.359375,0.234375
650,1727178719628,-0.07055664,-0.99542236,0.081726074,-0.875,-0.65625,-0.0625
651,1727178719668,-0.080566406,-1.000061,0.08685303,-1.53125,-0.234375,-0.375
652,1727178719708,-0.07910156,-0.989563,0.093444824,-0.1875,-0.40625,0.359375
653,1727178719748,-0.07373047,-0.99176025,0.086120605,-1.328125,-0.265625,-0.078125
654,1727178719788,-0.07470703,-0.99224854,0.08758545,-1.203125,-0.4375,-0.296875
655,1727178719828,-0.06982422,-0.9849243,0.08465576,-0.859375,-0.6875,0.21875
656,1727178719868,-0.076660156,-1.0005493,0.086364746,-1.265625,-0.59375,-0.171875
657,1727178719908,-0.079833984,-0.99468994,0.09124756,-0.5625,-0.546875,0.015625
658,1727178719948,-0.08129883,-0.9902954,0.09515381,-0.65625,-0.34375,0.078125
659,1727178719988,-0.08276367,-0.9898071,0.09588623,-0.75,-0.515625,0.03125
660,1727178720028,-0.076660156,-0.99591064,0.08856201,-1.078125,0.0625,-0.171875
661,1727178720068,-0.07495117,-0.9924927,0.09490967,-1.078125,-0.25,0.03125
662,1727178720108,-0.08300781,-0.99005127,0.086364746,-1.390625,-0.15625,-0.28125
663,1727178720148,-0.07910156,-0.99542236,0.098083496,0.28125,-0.390625,-0.0625
664,1727178720188,-0.075683594,-0.9985962,0.09124756,-1.046875,-0.09375,0.046875
665,1727178720228,-0.06982422,-1.0061646,0.09246826,-2.234375,0.53125,-0.34375
666,1727178720268,-0.08251953,-0.9898071,0.0927124,-0.984375,0.125,0.0
667,1727178720308,-0.0793457,-0.99224854,0.094177246,-0.734375,0.078125,0.3125
668,1727178720348,-0.08251953,-0.9915161,0.09515381,-0.84375,0.078125,0.125
669,1727178720388,-0.07421875,-0.99591064,0.09222412,0.171875,0.03125,0.40625
670,1727178720428,-0.07128906,-0.99591064,0.09320068,-0.421875,0.078125,0.484375
671,1727178720468,-0.079833984,-0.99346924,0.08856201,-0.640625,0.46875,0.078125
672,1727178720508,-0.072509766,-0.9915161,0.093933105,-0.59375,0.28125,0.265625
673,1727178720548,-0.07495117,-0.9939575,0.093688965,-1.015625,0.234375,-0.078125
674,1727178720588,-0.07080078,-0.99957275,0.09466553,-0.5,0.0625,0.09375
675,1727178720628,-0.068115234,-0.9956665,0.08880615,-0.703125,0.09375,-0.0625
676,1727178720668,-0.07836914,-0.9846802,0.086120605,-0.6875,0.125,-0.046875
677,1727178720708,-0.06958008,-0.9990845,0.097351074,-0.390625,-0.171875,-0.21875
678,1727178720748,-0.080322266,-0.9937134,0.08660889,-1.625,0.3125,-0.421875
679,1727178720788,-0.08081055,-1.000061,0.09320068,-0.65625,0.0625,-0.34375
680,1727178720828,-0.06982422,-1.0037231,0.09051514,-1.75,-0.234375,-0.59375
681,1727178720868,-0.08105469,-0.98565674,0.09857178,0.5,0.03125,0.0
682,1727178720908,-0.07836914,-0.99542236,0.08441162,-1.59375,0.3125,-0.421875
683,1727178720948,-0.08227539,-0.99786377,0.08758545,-1.71875,0.8125,-0.75
684,1727178720988,-0.08227539,-0.99346924,0.090270996,-0.546875,0.3125,-0.171875
685,1727178721028,-0.064453125,-0.98809814,0.09710693,-0.703125,0.09375,-0.546875
686,1727178721068,-0.08129883,-0.99786377,0.09661865,-1.640625,0.234375,-0.984375
687,1727178721108,-0.08666992,-0.9951782,0.09539795,-0.53125,0.078125,-0.34375
688,1727178721148,-0.083984375,-0.9956665,0.08905029,-1.203125,-0.296875,-0.734375
689,1727178721188,-0.07495117,-0.9927368,0.0927124,-1.046875,0.109375,-0.890625
690,1727178721228,-0.083740234,-0.99664307,0.09588623,-0.53125,-0.15625,-0.8125
691,1727178721268,-0.08227539,-0.99786377,0.0927124,-0.84375,0.171875,-0.53125
692,1727178721308,-0.088378906,-1.000061,0.08734131,-0.515625,0.421875,-0.390625
693,1727178721348,-0.09277344,-0.99835205,0.09564209,-0.1875,-0.0625,-0.328125
694,1727178721388,-0.09033203,-0.9927368,0.08929443,-0.59375,0.15625,0.03125
695,1727178721428,-0.083496094,-0.99835205,0.098083496,-0.5625,0.046875,-0.1875
696,1727178721468,-0.0925293,-0.99298096,0.09832764,-0.578125,0.125,-0.0625
697,1727178721508,-0.0871582,-0.99298096,0.097839355,-0.703125,0.015625,0.3125
698,1727178721548,-0.08862305,-0.9883423,0.090026855,-0.84375,0.625,0.375
699,1727178721588,-0.09008789,-0.9920044,0.10003662,-0.046875,-0.421875,0.1875
700,1727178721628,-0.083740234,-0.9866333,0.08929443,0.515625,-0.390625,0.8125
701,1727178721668,-0.08300781,-0.99786377,0.086364746,-0.875,0.546875,0.40625
702,1727178721708,-0.079589844,-0.9932251,0.0914917,-0.125,0.421875,0.671875
703,1727178721748,-0.08984375,-0.98516846,0.098083496,-0.375,0.3125,0.796875
704,1727178721788,-0.07763672,-0.99664307,0.09051514,-0.640625,0.640625,0.59375
705,1727178721828,-0.084472656,-0.9873657,0.09515381,-0.484375,0.265625,0.515625
706,1727178721868,-0.091796875,-0.99053955,0.0927124,-0.625,0.34375,0.625
707,1727178721908,-0.08105469,-0.9990845,0.08905029,-1.46875,0.53125,0.3125
708,1727178721948,-0.080566406,-0.9976196,0.0993042,-0.796875,0.375,0.484375
709,1727178721988,-0.07397461,-0.99346924,0.09320068,-1.0,0.3125,0.484375
710,1727178722028,-0.0769043,-0.99346924,0.09881592,-1.078125,0.703125,0.3125
711,1727178722068,-0.08203125,-0.991272,0.08782959,-0.75,0.75,0.234375
712,1727178722108,-0.07788086,-0.9973755,0.093688965,-0.328125,0.171875,0.3125
713,1727178722148,-0.076660156,-0.99346924,0.097351074,-0.46875,0.140625,0.15625
714,1727178722188,-0.07836914,-0.9937134,0.09075928,-1.125,0.328125,0.140625
715,1727178722228,-0.07739258,-0.99664307,0.08905029,-0.4375,-0.015625,0.25
716,1727178722268,-0.07470703,-0.9993286,0.09637451,-0.59375,0.28125,0.046875
717,1727178722308,-0.076171875,-0.99420166,0.09442139,-1.125,0.71875,0.21875
718,1727178722348,-0.06689453,-0.9973755,0.10272217,-0.5,-0.25,0.234375
719,1727178722388,-0.076416016,-0.99420166,0.09246826,0.890625,0.109375,0.59375
720,1727178722428,-0.071777344,-1.0003052,0.08538818,-1.125,0.6875,-0.15625
721,1727178722468,-0.07373047,-0.9927368,0.09466553,-0.609375,-0.109375,-0.09375
722,1727178722508,-0.07739258,-0.99053955,0.093933105,-1.0625,0.015625,0.078125
723,1727178722548,-0.075683594,-0.9949341,0.09466553,-1.90625,-0.328125,-0.046875
724,1727178722588,-0.07495117,-0.99591064,0.08929443,-1.859375,0.09375,-0.0625
725,1727178722628,-0.07861328,-0.9932251,0.09832764,-0.515625,-0.390625,0.34375
726,1727178722668,-0.0703125,-0.9985962,0.09100342,-1.203125,-0.203125,0.21875
727,1727178722708,-0.07543945,-0.9883423,0.10418701,-0.84375,-0.015625,-0.09375
728,1727178722748,-0.076416016,-0.98931885,0.09857178,-1.609375,-0.546875,0.28125
729,1727178722788,-0.06762695,-0.9993286,0.09661865,-1.25,-0.484375,-0.125
730,1727178722828,-0.07055664,-0.9907837,0.09979248,-1.21875,0.015625,0.03125
731,1727178722868,-0.07788086,-0.9932251,0.09564209,-1.140625,0.296875,0.171875
732,1727178722908,-0.07836914,-0.9949341,0.094177246,-1.328125,0.203125,-0.234375
733,1727178722948,-0.072509766,-0.99786377,0.10028076,-1.140625,-0.0625,-0.140625
734,1727178722988,-0.071777344,-0.9890747,0.10345459,-1.1875,0.171875,0.109375
735,1727178723028,-0.07373047,-0.9944458,0.0993042,-1.1875,0.109375,-0.09375
736,1727178723068,-0.075683594,-0.9915161,0.097839355,-1.453125,0.46875,-0.109375
737,1727178723108,-0.07714844,-0.9883423,0.105163574,-0.015625,-0.265625,-0.0625
738,1727178723148,-0.075927734,-0.9871216,0.09832764,0.359375,0.15625,0.15625
739,1727178723188,-0.07299805,-1.0005493,0.09710693,-1.359375,0.078125,-0.4375
740,1727178723228,-0.07397461,-0.99591064,0.097351074,-1.046875,-0.515625,-0.171875
741,1727178723268,-0.080322266,-0.99835205,0.105895996,-0.890625,-0.5625,-0.109375
742,1727178723308,-0.07763672,-0.9968872,0.10076904,-1.109375,-0.546875,-0.21875
743,1727178723348,-0.07885742,-0.99786377,0.09613037,-1.09375,-0.328125,-0.25
744,1727178723388,-0.08105469,-0.99468994,0.09881592,-0.328125,-0.234375,-0.078125
745,1727178723428,-0.079589844,-0.99468994,0.10076904,-1.21875,-0.203125,-0.296875
746,1727178723468,-0.07470703,-0.99102783,0.10443115,-0.78125,-0.40625,-0.25
747,1727178723508,-0.07006836,-0.989563,0.10101318,-1.015625,-0.234375,-0.171875
748,1727178723548,-0.076660156,-0.99664307,0.09979248,-0.671875,-0.15625,-0.140625
749,1727178723588,-0.072509766,-0.9949341,0.10638428,-0.59375,-0.25,-0.03125
