,Unnamed: 0,timestamp,accel_x,accel_y,accel_z,gyro_x,gyro_y,gyro_z
0,0,1727901531994,-0.03515625,-0.9451294,-0.2666626,0.21875,-0.53125,-0.375
1,1,1727901532034,-0.028076172,-0.95758057,-0.2571411,0.390625,-1.1875,-0.640625
2,2,1727901532074,-0.028320312,-0.95318604,-0.26275635,0.25,-0.484375,-0.625
3,3,1727901532114,-0.031982422,-0.9475708,-0.2642212,0.3125,-0.578125,-0.421875
4,4,1727901532154,-0.026367188,-0.9500122,-0.2588501,0.84375,-0.71875,-0.640625
5,5,1727901532194,-0.02758789,-0.9585571,-0.2571411,0.984375,-0.890625,-0.625
6,6,1727901532234,-0.032226562,-0.9522095,-0.25787354,0.515625,-0.09375,-0.359375
7,7,1727901532274,-0.026611328,-0.9561157,-0.25958252,0.890625,-0.5625,-0.671875
8,8,1727901532314,-0.034423828,-0.96588135,-0.25030518,0.8125,-0.4375,-0.484375
9,9,1727901532354,-0.03466797,-0.96173096,-0.25860596,0.421875,0.171875,-0.46875
10,10,1727901532394,-0.030517578,-0.9536743,-0.25567627,0.640625,0.078125,-0.171875
11,11,1727901532434,-0.03100586,-0.95440674,-0.25494385,0.3125,-0.3125,-0.59375
12,12,1727901532474,-0.027832031,-0.9636841,-0.2630005,0.515625,-0.109375,-0.265625
13,13,1727901532514,-0.034179688,-0.9607544,-0.26031494,2.234375,0.765625,0.078125
14,14,1727901532554,-0.031982422,-0.9534302,-0.25543213,1.75,0.984375,0.296875
15,15,1727901532594,-0.03540039,-0.95758057,-0.2564087,1.578125,0.78125,0.21875
16,16,1727901532634,-0.028564453,-0.9524536,-0.24835205,1.640625,0.78125,0.421875
17,17,1727901532674,-0.033203125,-0.9446411,-0.28253174,1.25,0.109375,0.453125
18,18,1727901532714,-0.035888672,-0.9727173,-0.25616455,0.40625,-0.328125,0.3125
19,19,1727901532754,-0.013916016,-0.93927,-0.2786255,1.75,-0.671875,0.421875
20,20,1727901532794,-0.038330078,-0.9624634,-0.26104736,0.265625,1.25,0.421875
21,21,1727901532834,-0.025634766,-0.96099854,-0.2564087,0.421875,-0.03125,0.109375
22,22,1727901532874,-0.028320312,-0.9534302,-0.2654419,0.75,-0.125,-0.171875
23,23,1727901532914,-0.03149414,-0.9546509,-0.2576294,0.8125,0.015625,-0.609375
24,24,1727901532954,-0.03100586,-0.95928955,-0.26275635,0.71875,-1.203125,-0.5625
25,25,1727901532994,-0.03100586,-0.9558716,-0.25494385,0.65625,-0.390625,-0.4375
26,26,1727901533034,-0.03100586,-0.95269775,-0.26739502,0.609375,0.046875,-0.390625
27,27,1727901533074,-0.025146484,-0.9524536,-0.25958252,0.84375,-0.625,-0.28125
28,28,1727901533114,-0.024414062,-0.9553833,-0.25787354,0.953125,-0.171875,-0.296875
29,29,1727901533154,-0.029541016,-0.9553833,-0.25860596,0.671875,1.21875,-0.296875
30,30,1727901533194,-0.03564453,-0.9595337,-0.2571411,1.390625,-0.640625,-0.640625
31,31,1727901533234,-0.04638672,-0.9553833,-0.26226807,0.546875,0.71875,-0.640625
32,32,1727901533274,-0.044921875,-0.9500122,-0.26348877,0.359375,1.203125,-0.84375
33,33,1727901533314,-0.036376953,-0.9595337,-0.25909424,-0.828125,0.9375,-0.625
34,34,1727901533354,-0.040283203,-0.95928955,-0.25274658,-2.328125,1.28125,-0.828125
35,35,1727901533394,-0.037109375,-0.9561157,-0.2612915,0.015625,1.078125,-0.421875
36,36,1727901533434,-0.032714844,-0.9627075,-0.24517822,-0.09375,1.234375,-0.484375
37,37,1727901533474,-0.023925781,-0.9356079,-0.26397705,-0.703125,0.75,-0.46875
38,38,1727901533514,-0.022460938,-0.96295166,-0.23858643,1.90625,0.0625,-0.125
39,39,1727901533554,-0.029541016,-0.9668579,-0.2654419,0.171875,-0.609375,0.09375
40,40,1727901533594,-0.033203125,-0.96295166,-0.23931885,1.234375,-0.046875,0.015625
41,41,1727901533634,-0.03564453,-0.9546509,-0.25421143,0.875,-0.09375,0.0625
42,42,1727901533674,-0.03515625,-0.960022,-0.25030518,1.484375,-1.1875,-0.25
43,43,1727901533714,-0.032470703,-0.956604,-0.2559204,0.984375,-0.0625,-0.078125
44,44,1727901533754,-0.033447266,-0.9558716,-0.25128174,1.234375,-0.8125,-0.21875
45,45,1727901533794,-0.03466797,-0.9468384,-0.25299072,1.46875,-0.984375,-0.21875
46,46,1727901533834,-0.038085938,-0.96051025,-0.2498169,0.859375,-1.265625,-0.328125
47,47,1727901533874,-0.036376953,-0.96051025,-0.24884033,0.984375,-0.734375,-0.390625
48,48,1727901533914,-0.036132812,-0.9517212,-0.25909424,1.0625,-0.5,-0.34375
49,49,1727901533954,-0.024902344,-0.95758057,-0.25738525,0.796875,-0.203125,-0.28125
50,50,1727901533994,-0.036132812,-0.96343994,-0.253479,0.78125,-0.328125,-0.21875
51,51,1727901534034,-0.030029297,-0.9512329,-0.25445557,0.8125,-0.4375,0.21875
52,52,1727901534074,-0.029052734,-0.9524536,-0.2576294,0.765625,-0.1875,0.3125
53,53,1727901534114,-0.03564453,-0.95684814,-0.25836182,1.0625,-0.46875,-0.1875
54,54,1727901534154,-0.028320312,-0.96417236,-0.25054932,0.953125,-0.28125,-0.15625
55,55,1727901534194,-0.03125,-0.9524536,-0.25543213,0.53125,0.09375,-0.15625
56,56,1727901534234,-0.032226562,-0.9517212,-0.26202393,1.140625,-0.21875,-0.0625
57,57,1727901534274,-0.029541016,-0.9631958,-0.25811768,1.0,0.34375,0.03125
58,58,1727901534314,-0.03125,-0.9590454,-0.25445557,1.046875,-0.03125,-0.046875
59,59,1727901534354,-0.026611328,-0.94903564,-0.26861572,0.0625,0.46875,-0.015625
60,60,1727901534394,-0.03564453,-0.9678345,-0.2390747,3.484375,-0.921875,0.234375
61,61,1727901534434,-0.028076172,-0.9446411,-0.26983643,0.5,0.671875,0.671875
62,62,1727901534474,-0.025146484,-0.94732666,-0.2571411,1.890625,-0.421875,0.296875
63,63,1727901534514,-0.01928711,-0.95440674,-0.25177002,1.734375,0.5625,0.5
64,64,1727901534554,-0.029052734,-0.95196533,-0.2630005,2.40625,-0.421875,-0.015625
65,65,1727901534594,-0.0234375,-0.9578247,-0.2571411,1.71875,-0.671875,-0.34375
66,66,1727901534634,-0.020263672,-0.9590454,-0.2576294,2.140625,0.25,0.125
67,67,1727901534674,-0.02758789,-0.95391846,-0.25958252,1.609375,-0.90625,-0.328125
68,68,1727901534714,-0.015136719,-0.9507446,-0.2649536,1.453125,-0.84375,-0.25
69,69,1727901534754,-0.01928711,-0.9639282,-0.26080322,0.9375,-0.671875,0.046875
70,70,1727901534794,-0.024658203,-0.954895,-0.2617798,1.1875,-0.078125,0.03125
71,71,1727901534834,-0.017333984,-0.95269775,-0.2617798,1.0,-0.21875,-0.34375
72,72,1727901534874,-0.026855469,-0.9573364,-0.26739502,0.6875,-0.21875,-0.21875
73,73,1727901534914,-0.03149414,-0.9607544,-0.26348877,0.515625,0.375,-0.203125
74,74,1727901534954,-0.026611328,-0.9475708,-0.26715088,0.765625,0.421875,-0.171875
75,75,1727901534994,-0.029785156,-0.96051025,-0.26397705,0.578125,1.53125,0.296875
76,76,1727901535034,-0.028808594,-0.9495239,-0.2744751,0.203125,0.640625,0.15625
77,77,1727901535074,-0.026123047,-0.9380493,-0.27496338,0.609375,1.0,0.21875
78,78,1727901535114,-0.020996094,-0.95269775,-0.2617798,0.453125,1.640625,0.1875
79,79,1727901535154,-0.021972656,-0.95806885,-0.27252197,0.6875,0.671875,-0.421875
80,80,1727901535194,-0.022460938,-0.95635986,-0.2703247,1.328125,1.3125,-0.328125
81,81,1727901535234,-0.021728516,-0.960022,-0.25543213,0.65625,0.765625,-0.171875
82,82,1727901535274,-0.020507812,-0.94122314,-0.27911377,-0.46875,0.828125,-0.53125
83,83,1727901535314,-0.022460938,-0.960022,-0.24932861,0.921875,-0.0625,-0.765625
84,84,1727901535354,-0.029785156,-0.9558716,-0.2720337,0.3125,-0.015625,-0.546875
85,85,1727901535394,-0.026367188,-0.958313,-0.25811768,0.4375,0.34375,-0.84375
86,86,1727901535434,-0.032958984,-0.94903564,-0.26568604,-0.21875,0.640625,-0.5625
87,87,1727901535474,-0.029052734,-0.9534302,-0.26763916,0.390625,0.625,-0.6875
88,88,1727901535514,-0.027832031,-0.9492798,-0.26837158,1.8125,1.03125,-0.65625
89,89,1727901535554,-0.026367188,-0.9590454,-0.26348877,2.203125,1.078125,0.046875
90,90,1727901535594,-0.028076172,-0.94610596,-0.26080322,2.765625,0.09375,-0.4375
91,91,1727901535634,-0.034423828,-0.9636841,-0.26837158,3.0625,0.921875,0.125
92,92,1727901535674,-0.030761719,-0.9590454,-0.2642212,2.203125,0.625,0.34375
93,93,1727901535714,-0.021484375,-0.9463501,-0.2979126,3.125,0.078125,0.28125
94,94,1727901535754,-0.030273438,-0.95806885,-0.27105713,2.734375,0.515625,0.484375
95,95,1727901535794,-0.030029297,-0.95391846,-0.27764893,1.453125,0.078125,0.1875
96,96,1727901535834,-0.028564453,-0.9470825,-0.2805786,0.984375,0.71875,0.3125
97,97,1727901535874,-0.027832031,-0.9434204,-0.2774048,0.296875,0.296875,0.15625
98,98,1727901535914,-0.029052734,-0.94976807,-0.2798462,0.90625,-0.328125,0.1875
99,99,1727901535954,-0.028808594,-0.9573364,-0.27838135,0.921875,-0.21875,0.109375
100,100,1727901535994,-0.026611328,-0.94610596,-0.27789307,0.578125,0.046875,-0.375
101,101,1727901536034,-0.033447266,-0.9468384,-0.28277588,0.59375,-0.203125,-0.5
102,102,1727901536074,-0.02709961,-0.9512329,-0.27008057,1.125,-0.28125,-0.6875
103,103,1727901536114,-0.029052734,-0.9507446,-0.2720337,0.15625,-0.765625,-0.859375
104,104,1727901536154,-0.022460938,-0.9404907,-0.28448486,0.296875,0.21875,-0.84375
105,105,1727901536194,-0.030761719,-0.9495239,-0.26715088,0.59375,0.359375,-0.859375
106,106,1727901536234,-0.03125,-0.94854736,-0.27423096,-1.234375,-0.609375,-1.046875
107,107,1727901536274,-0.03930664,-0.9541626,-0.26885986,-0.828125,-0.015625,-0.734375
108,108,1727901536314,-0.025390625,-0.9483032,-0.26763916,-0.46875,0.515625,-0.859375
109,109,1727901536354,-0.03955078,-0.954895,-0.2630005,0.578125,-0.515625,-0.890625
110,110,1727901536394,-0.033691406,-0.95635986,-0.26519775,0.296875,-0.34375,-0.796875
111,111,1727901536434,-0.028320312,-0.95391846,-0.26861572,-0.1875,-0.421875,-0.734375
112,112,1727901536474,-0.030029297,-0.9495239,-0.26348877,-0.59375,-0.203125,-0.859375
113,113,1727901536514,-0.034179688,-0.95147705,-0.26348877,-0.6875,-0.421875,-0.328125
114,114,1727901536554,-0.03125,-0.9585571,-0.2625122,-0.40625,-0.875,-0.421875
115,115,1727901536594,-0.032958984,-0.95098877,-0.25494385,0.21875,-0.796875,-0.5
116,116,1727901536634,-0.036621094,-0.96661377,-0.2559204,1.578125,-0.6875,-0.375
117,117,1727901536674,-0.040283203,-0.96588135,-0.2498169,0.8125,-0.375,-0.578125
118,118,1727901536714,-0.030517578,-0.9522095,-0.25933838,0.5625,-0.734375,-0.25
119,119,1727901536754,-0.041992188,-0.9512329,-0.25958252,1.359375,-0.578125,0.109375
120,120,1727901536794,-0.034423828,-0.954895,-0.25689697,1.78125,0.140625,0.0625
121,121,1727901536834,-0.030273438,-0.9578247,-0.253479,1.109375,-0.515625,-0.34375
122,122,1727901536874,-0.02734375,-0.9541626,-0.2612915,1.046875,-0.484375,-0.234375
123,123,1727901536914,-0.028320312,-0.9534302,-0.25958252,1.515625,-0.078125,-0.015625
124,124,1727901536954,-0.022216797,-0.9607544,-0.25299072,1.109375,-0.328125,0.0
125,125,1727901536994,-0.032958984,-0.9522095,-0.2695923,0.96875,-0.359375,0.171875
126,126,1727901537034,-0.029296875,-0.9512329,-0.25543213,1.421875,-0.5625,0.15625
127,127,1727901537074,-0.03540039,-0.9536743,-0.27227783,0.75,-0.53125,0.25
128,128,1727901537114,-0.024902344,-0.95440674,-0.25982666,1.25,-0.359375,0.28125
129,129,1727901537154,-0.016845703,-0.94000244,-0.27471924,0.453125,-0.171875,0.515625
130,130,1727901537194,-0.031982422,-0.9470825,-0.26446533,0.59375,-0.734375,0.0
131,131,1727901537234,-0.030517578,-0.9570923,-0.27130127,0.40625,-0.8125,-0.59375
132,132,1727901537274,-0.030761719,-0.94976807,-0.26641846,0.71875,-0.484375,-0.34375
133,133,1727901537314,-0.032226562,-0.9434204,-0.25616455,1.15625,-0.03125,-0.28125
134,134,1727901537354,-0.029296875,-0.94781494,-0.27593994,0.5625,0.0625,-0.1875
135,135,1727901537394,-0.025878906,-0.9507446,-0.25958252,1.09375,-0.109375,-0.109375
136,136,1727901537434,-0.026611328,-0.95391846,-0.26812744,0.375,-0.0625,0.0
137,137,1727901537474,-0.022460938,-0.95269775,-0.2617798,0.46875,0.515625,0.03125
138,138,1727901537514,-0.023925781,-0.9505005,-0.26055908,0.8125,0.0625,-0.03125
139,139,1727901537554,-0.026855469,-0.95391846,-0.2703247,1.375,-0.421875,-0.125
140,140,1727901537594,-0.026611328,-0.9546509,-0.2649536,0.703125,0.0,-0.0625
141,141,1727901537634,-0.032714844,-0.94366455,-0.26763916,1.21875,-0.171875,-0.0625
142,142,1727901537674,-0.02368164,-0.95806885,-0.27008057,1.125,-0.296875,-0.015625
143,143,1727901537714,-0.026123047,-0.94732666,-0.2637329,1.09375,-0.484375,-0.03125
144,144,1727901537754,-0.026367188,-0.954895,-0.26715088,1.34375,-0.453125,-0.125
145,145,1727901537794,-0.022216797,-0.9500122,-0.27056885,1.5,-0.140625,-0.125
146,146,1727901537834,-0.022216797,-0.9492798,-0.270813,1.03125,0.1875,0.0
147,147,1727901537874,-0.034423828,-0.96466064,-0.2510376,1.671875,-0.078125,-0.328125
148,148,1727901537914,-0.021484375,-0.93414307,-0.28936768,0.625,-0.09375,0.0625
149,149,1727901537954,-0.024169922,-0.95562744,-0.27008057,0.34375,-1.421875,-0.34375
150,150,1727901537994,-0.025146484,-0.9517212,-0.25616455,0.703125,0.3125,0.03125
151,151,1727901538034,-0.020996094,-0.9505005,-0.26934814,0.78125,-0.328125,-0.09375
152,152,1727901538074,-0.022949219,-0.95806885,-0.26446533,1.40625,-0.25,-0.3125
153,153,1727901538114,-0.020263672,-0.9553833,-0.27252197,0.609375,-0.0625,0.046875
154,154,1727901538154,-0.024902344,-0.9475708,-0.26739502,1.03125,-0.125,0.171875
155,155,1727901538194,-0.020751953,-0.9429321,-0.27398682,1.546875,-0.484375,0.03125
156,156,1727901538234,-0.017822266,-0.9536743,-0.26885986,1.0,-0.328125,0.15625
157,157,1727901538274,-0.024169922,-0.9553833,-0.27471924,0.796875,0.015625,0.15625
158,158,1727901538314,-0.021972656,-0.94732666,-0.269104,1.171875,-0.25,-0.21875
159,159,1727901538354,-0.015136719,-0.95440674,-0.2637329,0.46875,-0.1875,-0.171875
160,160,1727901538394,-0.025146484,-0.95440674,-0.2678833,0.875,-0.125,-0.3125
161,161,1727901538434,-0.018066406,-0.95880127,-0.2703247,0.25,-0.15625,-0.296875
162,162,1727901538474,-0.022705078,-0.9607544,-0.2715454,0.703125,0.359375,-0.21875
163,163,1727901538514,-0.01586914,-0.95147705,-0.2625122,0.40625,0.015625,-0.4375
164,164,1727901538554,-0.029296875,-0.954895,-0.26885986,0.5625,0.375,-0.203125
165,165,1727901538594,-0.017822266,-0.95318604,-0.26861572,0.75,0.421875,-0.046875
166,166,1727901538634,-0.013916016,-0.9492798,-0.27130127,0.875,-0.21875,-0.25
167,167,1727901538674,-0.02368164,-0.9644165,-0.26226807,1.125,0.34375,-0.5625
168,168,1727901538714,-0.023925781,-0.94903564,-0.2744751,0.109375,0.390625,-0.328125
169,169,1727901538754,-0.018554688,-0.9470825,-0.26617432,0.421875,0.125,-0.234375
170,170,1727901538794,-0.020019531,-0.9553833,-0.27642822,1.125,-0.65625,-0.328125
171,171,1727901538834,-0.01953125,-0.960022,-0.25494385,0.984375,1.140625,-0.0625
172,172,1727901538874,-0.01977539,-0.94781494,-0.27471924,2.140625,1.0,-0.671875
173,173,1727901538914,-0.028808594,-0.95635986,-0.27349854,1.71875,0.453125,-0.78125
174,174,1727901538954,-0.014160156,-0.9470825,-0.2703247,1.46875,0.40625,-0.53125
175,175,1727901538994,-0.020507812,-0.94976807,-0.26934814,1.3125,-0.046875,-0.46875
176,176,1727901539034,-0.016601562,-0.9378052,-0.28253174,1.671875,-0.828125,-0.140625
177,177,1727901539074,-0.020996094,-0.94781494,-0.27545166,1.515625,-0.375,0.125
178,178,1727901539114,-0.026611328,-0.9522095,-0.2649536,0.703125,-0.25,-0.09375
179,179,1727901539154,-0.024169922,-0.95391846,-0.27764893,0.90625,-0.28125,-0.234375
180,180,1727901539194,-0.019042969,-0.9558716,-0.27911377,1.109375,-0.125,0.078125
181,181,1727901539234,-0.015625,-0.94903564,-0.2727661,0.296875,-0.046875,0.234375
182,182,1727901539274,-0.024414062,-0.94976807,-0.27008057,0.25,-0.078125,0.078125
183,183,1727901539314,-0.024902344,-0.9458618,-0.26983643,-0.078125,-0.015625,0.0625
184,184,1727901539354,-0.01928711,-0.94610596,-0.27056885,0.21875,0.046875,-0.015625
185,185,1727901539394,-0.02758789,-0.9517212,-0.27349854,0.5,0.125,-0.34375
186,186,1727901539434,-0.025390625,-0.9570923,-0.26031494,0.484375,0.328125,-0.5
187,187,1727901539474,-0.029785156,-0.95391846,-0.27056885,0.109375,0.375,-0.328125
188,188,1727901539514,-0.026123047,-0.9522095,-0.26837158,0.109375,1.671875,-0.34375
189,189,1727901539554,-0.024414062,-0.94488525,-0.27520752,0.9375,1.0,-0.375
190,190,1727901539594,-0.030029297,-0.95269775,-0.2642212,0.984375,1.484375,-0.09375
191,191,1727901539634,-0.022705078,-0.9404907,-0.28546143,1.1875,1.28125,-0.15625
192,192,1727901539674,-0.024414062,-0.9390259,-0.3086548,2.46875,-0.828125,-0.359375
193,193,1727901539714,-0.026367188,-0.9697876,-0.24542236,2.578125,1.828125,-0.125
194,194,1727901539754,-0.034179688,-0.94244385,-0.28204346,1.015625,2.0625,0.234375
195,195,1727901539794,-0.030761719,-0.9541626,-0.27178955,1.109375,0.859375,-0.40625
196,196,1727901539834,-0.026611328,-0.9573364,-0.27301025,0.03125,0.65625,-0.59375
197,197,1727901539874,-0.028076172,-0.9507446,-0.2756958,0.578125,0.65625,-0.40625
198,198,1727901539914,-0.029785156,-0.94854736,-0.2732544,0.90625,0.390625,-0.453125
199,199,1727901539954,-0.028320312,-0.95806885,-0.27764893,0.84375,0.296875,0.109375
200,200,1727901539994,-0.017578125,-0.9507446,-0.28155518,1.09375,1.21875,0.0
201,201,1727901540034,-0.030517578,-0.9505005,-0.2744751,0.453125,0.890625,-0.0625
202,202,1727901540074,-0.027832031,-0.9524536,-0.27618408,1.234375,1.03125,-0.125
203,203,1727901540114,-0.028320312,-0.94854736,-0.27960205,1.359375,0.578125,-0.09375
204,204,1727901540154,-0.027832031,-0.9470825,-0.2720337,1.53125,0.859375,-0.109375
205,205,1727901540194,-0.028808594,-0.9541626,-0.27789307,1.390625,0.015625,-0.21875
206,206,1727901540234,-0.030761719,-0.9451294,-0.2805786,2.359375,-0.578125,-0.21875
207,207,1727901540274,-0.032226562,-0.95684814,-0.2695923,1.28125,-0.359375,-0.59375
208,208,1727901540314,-0.026611328,-0.9470825,-0.28131104,1.203125,-0.671875,-0.953125
209,209,1727901540354,-0.030273438,-0.9517212,-0.27789307,0.625,0.375,-0.671875
210,210,1727901540394,-0.03149414,-0.95977783,-0.27642822,-0.015625,-0.15625,-0.796875
211,211,1727901540434,-0.028320312,-0.9487915,-0.28204346,0.40625,-0.375,-0.796875
212,212,1727901540474,-0.026367188,-0.94659424,-0.27252197,0.96875,-0.09375,-0.453125
213,213,1727901540514,-0.030029297,-0.9505005,-0.29083252,-0.21875,-0.65625,-0.75
214,214,1727901540554,-0.030273438,-0.9439087,-0.28375244,0.609375,-0.296875,-0.078125
215,215,1727901540594,-0.020263672,-0.91973877,-0.29400635,1.4375,-1.53125,1.078125
216,216,1727901540634,-0.028564453,-0.9624634,-0.25665283,0.09375,-0.171875,0.046875
217,217,1727901540674,-0.026123047,-0.94854736,-0.27496338,-1.6875,-0.1875,-0.1875
218,218,1727901540714,-0.032226562,-0.95269775,-0.2654419,-0.59375,0.125,-0.484375
219,219,1727901540754,-0.025878906,-0.9463501,-0.26861572,-0.28125,0.0625,-0.46875
220,220,1727901540794,-0.03149414,-0.9573364,-0.2695923,0.09375,0.234375,-0.171875
221,221,1727901540834,-0.028564453,-0.95147705,-0.26983643,-0.09375,0.078125,-0.28125
222,222,1727901540874,-0.028808594,-0.9505005,-0.26812744,0.78125,-0.078125,-0.390625
223,223,1727901540914,-0.021728516,-0.95513916,-0.27008057,0.515625,-0.1875,-0.515625
224,224,1727901540954,-0.024658203,-0.9483032,-0.26593018,0.65625,-0.46875,-0.5625
225,225,1727901540994,-0.027832031,-0.95318604,-0.26715088,0.65625,-0.34375,-0.5
226,226,1727901541034,-0.033447266,-0.9522095,-0.26715088,0.09375,-0.328125,-0.1875
227,227,1727901541074,-0.028320312,-0.95440674,-0.2612915,0.078125,-0.375,-0.140625
228,228,1727901541114,-0.022460938,-0.9546509,-0.26055908,1.28125,0.28125,-0.03125
229,229,1727901541154,-0.03564453,-0.95391846,-0.2588501,1.046875,0.046875,-0.1875
230,230,1727901541194,-0.03881836,-0.9492798,-0.26324463,0.4375,-0.4375,-0.28125
231,231,1727901541234,-0.025634766,-0.9463501,-0.2715454,0.71875,-1.015625,-0.296875
232,232,1727901541274,-0.032958984,-0.95880127,-0.2510376,0.921875,0.0,-0.25
233,233,1727901541314,-0.02734375,-0.9483032,-0.2781372,0.765625,-0.53125,-0.15625
234,234,1727901541354,-0.032226562,-0.96661377,-0.25958252,-0.453125,-1.640625,-0.84375
235,235,1727901541394,-0.023925781,-0.9517212,-0.25372314,0.015625,0.078125,-0.53125
236,236,1727901541434,-0.028564453,-0.95025635,-0.2625122,1.015625,-0.921875,-0.5625
237,237,1727901541474,-0.032714844,-0.9570923,-0.26055908,1.40625,-0.578125,-0.359375
238,238,1727901541514,-0.036621094,-0.96221924,-0.27178955,1.1875,-0.15625,-0.390625
239,239,1727901541554,-0.022705078,-0.9446411,-0.26275635,1.546875,-0.53125,0.203125
240,240,1727901541594,-0.033691406,-0.94903564,-0.26739502,1.453125,-0.296875,0.09375
241,241,1727901541634,-0.026367188,-0.9546509,-0.26837158,1.53125,-0.03125,0.1875
242,242,1727901541674,-0.028076172,-0.94854736,-0.27130127,0.96875,-0.09375,0.3125
243,243,1727901541714,-0.0234375,-0.9505005,-0.27349854,1.484375,-0.078125,0.078125
244,244,1727901541754,-0.029296875,-0.9573364,-0.2637329,1.0625,0.140625,-0.140625
245,245,1727901541794,-0.03100586,-0.956604,-0.27056885,0.703125,0.171875,-0.125
246,246,1727901541834,-0.030517578,-0.9534302,-0.27374268,0.609375,0.296875,-0.453125
247,247,1727901541874,-0.024414062,-0.95318604,-0.27178955,0.28125,0.296875,-0.546875
248,248,1727901541914,-0.026855469,-0.95635986,-0.26470947,0.609375,0.609375,-0.453125
249,249,1727901541954,-0.034179688,-0.9573364,-0.26470947,0.671875,0.203125,-0.65625
250,250,1727901541994,-0.032714844,-0.9595337,-0.25787354,-0.390625,0.546875,-0.25
251,251,1727901542034,-0.040771484,-0.9619751,-0.26275635,-0.78125,1.109375,-0.140625
252,252,1727901542074,-0.018554688,-0.9368286,-0.28204346,1.078125,-0.609375,0.109375
253,253,1727901542114,-0.028564453,-0.94903564,-0.2654419,3.125,0.5625,0.359375
254,254,1727901542154,-0.030029297,-0.9529419,-0.2781372,1.234375,-1.484375,-0.375
255,255,1727901542194,-0.0234375,-0.9585571,-0.25982666,2.4375,-0.359375,-0.015625
256,256,1727901542234,-0.031982422,-0.9487915,-0.28179932,0.9375,0.40625,0.3125
257,257,1727901542274,-0.027832031,-0.95147705,-0.2727661,1.453125,-0.515625,-0.296875
258,258,1727901542314,-0.021240234,-0.958313,-0.27520752,1.328125,-0.265625,-0.125
259,259,1727901542354,-0.02758789,-0.94976807,-0.27130127,2.53125,0.125,-0.015625
260,260,1727901542394,-0.026367188,-0.93707275,-0.27105713,2.09375,-0.328125,-0.140625
261,261,1727901542434,-0.017578125,-0.9522095,-0.2727661,0.96875,-0.171875,-0.03125
262,262,1727901542474,-0.01977539,-0.95562744,-0.27349854,0.765625,-0.234375,-0.09375
263,263,1727901542514,-0.024169922,-0.94488525,-0.27667236,0.671875,-0.59375,-0.21875
264,264,1727901542554,-0.026367188,-0.9512329,-0.2732544,0.484375,-0.046875,-0.328125
265,265,1727901542594,-0.030273438,-0.9522095,-0.27227783,0.671875,-0.078125,-0.203125
266,266,1727901542634,-0.022216797,-0.95318604,-0.270813,-0.078125,-0.3125,0.03125
267,267,1727901542674,-0.028076172,-0.95318604,-0.27056885,-0.1875,0.015625,-0.1875
268,268,1727901542714,-0.0234375,-0.9553833,-0.2732544,0.15625,-0.421875,-0.171875
269,269,1727901542754,-0.025146484,-0.95025635,-0.26983643,-0.171875,-0.515625,-0.203125
270,270,1727901542794,-0.021972656,-0.95562744,-0.2769165,1.296875,-0.1875,0.21875
271,271,1727901542834,-0.018066406,-0.94317627,-0.28936768,0.515625,0.109375,0.296875
272,272,1727901542874,-0.020996094,-0.9522095,-0.26055908,1.703125,-0.78125,0.125
273,273,1727901542914,-0.029785156,-0.9512329,-0.28155518,1.34375,-0.46875,0.265625
274,274,1727901542954,-0.021972656,-0.9507446,-0.27764893,0.765625,-0.21875,0.03125
275,275,1727901542994,-0.010009766,-0.9446411,-0.27178955,0.171875,0.484375,0.21875
276,276,1727901543034,-0.0234375,-0.94976807,-0.2793579,0.96875,-0.5625,-0.03125
277,277,1727901543074,-0.024169922,-0.9546509,-0.27496338,0.15625,0.109375,-0.234375
278,278,1727901543114,-0.017333984,-0.94854736,-0.2715454,0.3125,-0.0625,-0.25
279,279,1727901543154,-0.018066406,-0.95098877,-0.27105713,0.328125,-0.203125,-0.21875
280,280,1727901543194,-0.020263672,-0.94659424,-0.28033447,0.125,-0.25,-0.109375
281,281,1727901543234,-0.017822266,-0.9546509,-0.27349854,0.359375,0.71875,-0.125
282,282,1727901543274,-0.020507812,-0.9434204,-0.2727661,0.40625,0.140625,-0.125
283,283,1727901543314,-0.025146484,-0.95318604,-0.2637329,0.375,0.375,-0.25
284,284,1727901543354,-0.020996094,-0.954895,-0.27056885,-0.234375,0.359375,-0.484375
285,285,1727901543394,-0.018310547,-0.95391846,-0.26153564,-0.390625,0.5625,-0.234375
286,286,1727901543434,-0.018554688,-0.93878174,-0.28790283,1.453125,-0.4375,-0.25
287,287,1727901543474,-0.028076172,-0.94732666,-0.26690674,2.015625,1.078125,0.109375
288,288,1727901543514,-0.013427734,-0.95196533,-0.2756958,1.578125,-0.1875,0.21875
289,289,1727901543554,-0.013671875,-0.9421997,-0.2756958,2.25,-0.3125,0.296875
290,290,1727901543594,-0.02368164,-0.9651489,-0.25665283,2.90625,0.453125,0.234375
291,291,1727901543634,-0.016357422,-0.94415283,-0.28741455,1.03125,0.3125,-0.140625
292,292,1727901543674,-0.012207031,-0.9578247,-0.28131104,0.9375,-1.390625,-0.75
293,293,1727901543714,-0.010009766,-0.95758057,-0.24859619,0.8125,1.0,-0.15625
294,294,1727901543754,-0.018554688,-0.9458618,-0.27423096,0.359375,0.234375,-0.625
295,295,1727901543794,-0.026367188,-0.96954346,-0.25299072,-0.6875,-0.234375,-1.0625
296,296,1727901543834,-0.010498047,-0.94610596,-0.28375244,1.203125,-0.59375,-0.453125
297,297,1727901543874,-0.013671875,-0.93756104,-0.28009033,2.65625,0.796875,0.078125
298,298,1727901543914,-0.019042969,-0.9541626,-0.27789307,0.578125,0.515625,0.0
299,299,1727901543954,-0.018066406,-0.94854736,-0.27130127,0.40625,1.03125,0.453125
300,300,1727901543994,-0.017822266,-0.9487915,-0.270813,1.59375,-0.203125,0.140625
301,301,1727901544034,-0.01977539,-0.9517212,-0.26812744,1.4375,0.09375,0.03125
302,302,1727901544074,-0.021240234,-0.9463501,-0.27496338,1.671875,0.0,-0.046875
303,303,1727901544114,-0.019042969,-0.94976807,-0.27716064,1.5625,-0.09375,-0.015625
304,304,1727901544154,-0.017578125,-0.94732666,-0.27252197,1.328125,0.296875,0.171875
305,305,1727901544194,-0.017333984,-0.9546509,-0.27618408,1.96875,0.15625,-0.171875
306,306,1727901544234,-0.013427734,-0.95513916,-0.27301025,1.8125,0.234375,-0.234375
307,307,1727901544274,-0.016601562,-0.94659424,-0.28302002,1.640625,-0.203125,-0.5
308,308,1727901544314,-0.024658203,-0.9529419,-0.28497314,1.5,0.6875,-0.515625
309,309,1727901544354,-0.014404297,-0.94244385,-0.29400635,0.78125,0.421875,-0.28125
310,310,1727901544394,-0.016113281,-0.96588135,-0.2769165,0.09375,-0.609375,-0.359375
311,311,1727901544434,-0.012207031,-0.9536743,-0.2786255,0.953125,0.734375,-0.1875
312,312,1727901544474,-0.020507812,-0.94244385,-0.2949829,0.546875,0.109375,-0.390625
313,313,1727901544514,-0.018798828,-0.9429321,-0.2756958,0.0625,-0.1875,-0.890625
314,314,1727901544554,-0.01928711,-0.9417114,-0.28009033,0.5625,0.015625,-0.640625
315,315,1727901544594,-0.024902344,-0.93829346,-0.28204346,0.4375,-0.28125,-0.59375
316,316,1727901544634,-0.021240234,-0.9487915,-0.28204346,0.265625,-0.296875,-0.3125
317,317,1727901544674,-0.020996094,-0.9541626,-0.2756958,0.234375,-0.546875,-0.46875
318,318,1727901544714,-0.024414062,-0.9495239,-0.28082275,0.25,-0.890625,-0.6875
319,319,1727901544754,-0.026855469,-0.9500122,-0.2810669,0.734375,-0.203125,-0.59375
320,320,1727901544794,-0.021240234,-0.94659424,-0.27838135,0.4375,-0.078125,-0.171875
321,321,1727901544834,-0.025146484,-0.9456177,-0.28277588,0.140625,-0.0625,-0.234375
322,322,1727901544874,-0.024658203,-0.9451294,-0.27252197,-0.421875,-0.234375,-0.3125
323,323,1727901544914,-0.01977539,-0.9446411,-0.2810669,-0.78125,-0.796875,-0.4375
324,324,1727901544954,-0.021484375,-0.94122314,-0.28302002,-0.03125,-0.640625,-0.078125
325,325,1727901544994,-0.029052734,-0.95635986,-0.26104736,0.34375,0.171875,-0.265625
326,326,1727901545034,-0.022460938,-0.94537354,-0.29034424,0.609375,0.125,-0.0625
327,327,1727901545074,-0.025634766,-0.9668579,-0.25494385,0.53125,-0.4375,-0.171875
328,328,1727901545114,-0.016357422,-0.9480591,-0.27618408,1.03125,0.515625,-0.21875
329,329,1727901545154,-0.028564453,-0.9522095,-0.27374268,1.09375,0.125,-0.25
330,330,1727901545194,-0.024414062,-0.9536743,-0.26739502,1.03125,-0.5,-0.3125
331,331,1727901545234,-0.025634766,-0.95025635,-0.27471924,1.0,-0.15625,-0.296875
332,332,1727901545274,-0.0234375,-0.9468384,-0.27349854,0.421875,-0.21875,-0.625
333,333,1727901545314,-0.022216797,-0.9500122,-0.26837158,0.234375,-0.34375,-0.453125
334,334,1727901545354,-0.021240234,-0.9536743,-0.2678833,0.265625,-0.203125,-0.515625
335,335,1727901545394,-0.019042969,-0.9495239,-0.27423096,-0.046875,-0.1875,-0.578125
336,336,1727901545434,-0.01928711,-0.94903564,-0.2666626,-0.21875,-0.171875,-0.53125
337,337,1727901545474,-0.020996094,-0.95098877,-0.26690674,0.21875,-0.53125,-0.609375
338,338,1727901545514,-0.021972656,-0.9558716,-0.26397705,0.109375,-0.234375,-0.421875
339,339,1727901545554,-0.026123047,-0.95318604,-0.26324463,0.359375,0.0,-0.375
340,340,1727901545594,-0.021240234,-0.954895,-0.26885986,0.359375,-0.15625,-0.375
341,341,1727901545634,-0.020996094,-0.94610596,-0.27349854,0.46875,-0.484375,-0.578125
342,342,1727901545674,-0.029541016,-0.9668579,-0.24737549,2.078125,0.125,-0.296875
343,343,1727901545714,-0.019042969,-0.94000244,-0.2835083,-0.09375,-0.390625,-0.390625
344,344,1727901545754,-0.02758789,-0.9536743,-0.25811768,0.546875,-0.890625,-0.515625
345,345,1727901545794,-0.024902344,-0.96051025,-0.26519775,0.515625,0.984375,-0.015625
346,346,1727901545834,-0.02734375,-0.9553833,-0.2744751,0.46875,0.0625,-0.15625
347,347,1727901545874,-0.022949219,-0.9639282,-0.2539673,0.46875,-0.140625,-0.296875
348,348,1727901545914,-0.033203125,-0.95758057,-0.253479,0.34375,0.203125,-0.578125
349,349,1727901545954,-0.023925781,-0.9505005,-0.26397705,0.625,-0.421875,-0.671875
350,350,1727901545994,-0.022460938,-0.9546509,-0.26104736,0.875,0.0,-0.078125
351,351,1727901546034,-0.028320312,-0.9627075,-0.2637329,0.953125,-0.4375,-0.28125
352,352,1727901546074,-0.028076172,-0.9541626,-0.2612915,0.5625,-0.109375,-0.4375
353,353,1727901546114,-0.020996094,-0.9541626,-0.2625122,0.515625,-0.375,-0.40625
354,354,1727901546154,-0.026123047,-0.9636841,-0.25933838,0.28125,-0.28125,-0.171875
355,355,1727901546194,-0.022460938,-0.9573364,-0.255188,-0.109375,-0.15625,-0.234375
356,356,1727901546234,-0.025390625,-0.95928955,-0.2571411,0.0,-0.21875,-0.375
357,357,1727901546274,-0.031982422,-0.9663696,-0.24908447,-0.734375,0.21875,0.03125
358,358,1727901546314,-0.016845703,-0.94415283,-0.2715454,-1.328125,-1.28125,-0.265625
359,359,1727901546354,-0.023925781,-0.9639282,-0.23858643,0.953125,-1.15625,0.03125
360,360,1727901546394,-0.029785156,-0.95269775,-0.26593018,-0.484375,-1.0625,0.109375
361,361,1727901546434,-0.01977539,-0.95196533,-0.253479,1.046875,-0.8125,-0.125
362,362,1727901546474,-0.030273438,-0.9546509,-0.25201416,0.828125,0.71875,0.140625
363,363,1727901546514,-0.020751953,-0.9602661,-0.25030518,0.828125,-0.421875,-0.328125
364,364,1727901546554,-0.028076172,-0.9619751,-0.26031494,0.671875,-0.40625,-0.328125
365,365,1727901546594,-0.024902344,-0.95928955,-0.2456665,1.09375,0.09375,-0.203125
366,366,1727901546634,-0.017089844,-0.9536743,-0.25006104,0.5625,-0.640625,-0.234375
367,367,1727901546674,-0.022460938,-0.958313,-0.24249268,0.5,0.359375,0.03125
368,368,1727901546714,-0.027832031,-0.9570923,-0.2539673,0.875,0.28125,-0.015625
369,369,1727901546754,-0.018554688,-0.94903564,-0.25299072,1.109375,-0.09375,-0.234375
370,370,1727901546794,-0.021240234,-0.9663696,-0.24884033,0.953125,0.390625,-0.046875
371,371,1727901546834,-0.020751953,-0.9573364,-0.25274658,0.671875,0.078125,-0.140625
372,372,1727901546874,-0.021972656,-0.9573364,-0.25323486,0.75,0.203125,-0.234375
373,373,1727901546914,-0.020507812,-0.9631958,-0.24713135,0.015625,0.53125,-0.34375
374,374,1727901546954,-0.03149414,-0.9624634,-0.2456665,0.328125,-0.125,-0.34375
375,375,1727901546994,-0.020263672,-0.9492798,-0.255188,0.234375,1.171875,-0.09375
376,376,1727901547034,-0.021484375,-0.9651489,-0.24273682,1.09375,-0.015625,0.015625
377,377,1727901547074,-0.021972656,-0.9573364,-0.26324463,-0.171875,-0.46875,-0.1875
378,378,1727901547114,-0.02709961,-0.9619751,-0.23638916,0.78125,1.1875,0.46875
379,379,1727901547154,-0.024169922,-0.9573364,-0.2510376,0.296875,0.4375,0.40625
380,380,1727901547194,-0.024414062,-0.956604,-0.2456665,0.9375,0.21875,0.15625
381,381,1727901547234,-0.017089844,-0.9631958,-0.2510376,0.625,-0.078125,0.125
382,382,1727901547274,-0.021240234,-0.95758057,-0.25079346,1.109375,0.3125,0.359375
383,383,1727901547314,-0.020507812,-0.95635986,-0.2510376,0.921875,-0.046875,0.125
384,384,1727901547354,-0.022216797,-0.96051025,-0.2468872,1.140625,-0.25,0.34375
385,385,1727901547394,-0.01977539,-0.95880127,-0.24761963,1.515625,0.203125,0.234375
386,386,1727901547434,-0.020019531,-0.9602661,-0.25567627,1.734375,-0.359375,0.0
387,387,1727901547474,-0.011474609,-0.95880127,-0.24932861,1.484375,-0.203125,0.015625
388,388,1727901547514,-0.020019531,-0.9619751,-0.2444458,0.984375,-0.34375,-0.359375
389,389,1727901547554,-0.01171875,-0.94488525,-0.26446533,1.6875,-0.921875,-0.15625
390,390,1727901547594,-0.021728516,-0.9624634,-0.2510376,3.6875,0.625,-0.125
391,391,1727901547634,-0.018310547,-0.96221924,-0.25128174,2.4375,0.15625,-0.59375
392,392,1727901547674,-0.024414062,-0.95025635,-0.24884033,2.015625,0.53125,-0.875
393,393,1727901547714,-0.014892578,-0.94781494,-0.2774048,0.5625,0.203125,-0.625
394,394,1727901547754,-0.020751953,-0.97198486,-0.24005127,2.015625,0.296875,-0.703125
395,395,1727901547794,-0.017578125,-0.94854736,-0.26690674,-0.4375,0.078125,-0.484375
396,396,1727901547834,-0.013183594,-0.9524536,-0.25860596,0.9375,0.359375,-0.328125
397,397,1727901547874,-0.016601562,-0.9534302,-0.26104736,1.0,0.5625,-0.515625
398,398,1727901547914,-0.024658203,-0.96051025,-0.25909424,1.421875,0.609375,-0.484375
399,399,1727901547954,-0.024902344,-0.956604,-0.26470947,1.21875,0.515625,-0.578125
400,400,1727901547994,-0.024414062,-0.9570923,-0.26446533,1.78125,0.6875,-0.21875
401,401,1727901548034,-0.026611328,-0.95440674,-0.2649536,0.765625,0.421875,-0.546875
402,402,1727901548074,-0.021972656,-0.9541626,-0.26763916,0.71875,-0.125,-0.5
403,403,1727901548114,-0.021728516,-0.95391846,-0.26617432,1.03125,0.328125,-0.5625
404,404,1727901548154,-0.02319336,-0.9505005,-0.26446533,0.453125,-0.15625,-0.625
405,405,1727901548194,-0.027832031,-0.9507446,-0.26885986,0.625,-0.203125,-0.53125
406,406,1727901548234,-0.028808594,-0.956604,-0.26055908,0.8125,-0.390625,-0.703125
407,407,1727901548274,-0.020263672,-0.9561157,-0.26861572,0.75,-0.421875,-0.671875
408,408,1727901548314,-0.03100586,-0.9558716,-0.25811768,0.59375,-0.25,-0.71875
409,409,1727901548354,-0.029541016,-0.95635986,-0.26690674,0.625,-0.203125,-0.5
410,410,1727901548394,-0.02319336,-0.95684814,-0.2625122,0.515625,-0.03125,-0.578125
411,411,1727901548434,-0.034179688,-0.95513916,-0.26593018,0.453125,-0.515625,-0.640625
412,412,1727901548474,-0.022460938,-0.9524536,-0.2617798,-0.125,0.171875,-0.703125
413,413,1727901548514,-0.030273438,-0.95806885,-0.23858643,0.953125,0.046875,-0.3125
414,414,1727901548554,-0.02758789,-0.9524536,-0.27618408,-1.109375,-0.03125,-0.53125
415,415,1727901548594,-0.024902344,-0.9590454,-0.25811768,0.3125,0.078125,-0.4375
416,416,1727901548634,-0.029541016,-0.9483032,-0.26226807,-0.03125,0.703125,-0.09375
417,417,1727901548674,-0.02368164,-0.954895,-0.26031494,0.5,0.171875,-0.359375
418,418,1727901548714,-0.031982422,-0.9639282,-0.25836182,-0.125,0.328125,-0.71875
419,419,1727901548754,-0.033691406,-0.94976807,-0.2539673,0.578125,0.75,-0.25
420,420,1727901548794,-0.036376953,-0.9595337,-0.24713135,0.609375,0.15625,-0.15625
421,421,1727901548834,-0.030761719,-0.95758057,-0.25445557,0.484375,0.03125,-0.21875
422,422,1727901548874,-0.029052734,-0.95880127,-0.2539673,0.5,0.09375,-0.34375
423,423,1727901548914,-0.028808594,-0.9578247,-0.25543213,0.328125,-0.0625,-0.40625
424,424,1727901548954,-0.03466797,-0.95684814,-0.24761963,0.28125,-0.0625,-0.3125
425,425,1727901548994,-0.036132812,-0.95098877,-0.24908447,0.4375,-0.109375,-0.296875
426,426,1727901549034,-0.03125,-0.956604,-0.25860596,0.203125,-0.734375,-0.15625
427,427,1727901549074,-0.032226562,-0.9553833,-0.24859619,0.515625,-0.515625,0.078125
428,428,1727901549114,-0.033691406,-0.96295166,-0.24786377,1.09375,0.046875,-0.03125
429,429,1727901549154,-0.027832031,-0.9517212,-0.24932861,1.03125,-0.515625,-0.046875
430,430,1727901549194,-0.032714844,-0.9612427,-0.24884033,0.5625,-0.25,-0.109375
431,431,1727901549234,-0.035888672,-0.9553833,-0.24591064,0.5625,0.375,-0.3125
432,432,1727901549274,-0.03149414,-0.95269775,-0.25860596,1.015625,-0.140625,-0.015625
433,433,1727901549314,-0.032470703,-0.9656372,-0.25054932,0.0,-1.28125,-0.1875
434,434,1727901549354,-0.030761719,-0.95391846,-0.2390747,1.03125,0.359375,0.28125
435,435,1727901549394,-0.028320312,-0.95635986,-0.25274658,1.140625,0.21875,-0.28125
436,436,1727901549434,-0.033691406,-0.96954346,-0.2456665,1.078125,-0.328125,-0.25
437,437,1727901549474,-0.032226562,-0.94976807,-0.25372314,0.15625,-0.203125,0.4375
438,438,1727901549514,-0.028564453,-0.956604,-0.2510376,1.09375,-0.4375,0.546875
439,439,1727901549554,-0.03100586,-0.9570923,-0.2468872,0.40625,-0.015625,0.34375
440,440,1727901549594,-0.0234375,-0.9607544,-0.2564087,0.765625,-0.421875,0.0625
441,441,1727901549634,-0.02734375,-0.95440674,-0.2468872,0.625,0.203125,-0.0625
442,442,1727901549674,-0.032226562,-0.956604,-0.24591064,0.828125,0.015625,-0.4375
443,443,1727901549714,-0.031982422,-0.96173096,-0.25079346,0.65625,-0.3125,-0.265625
444,444,1727901549754,-0.029052734,-0.95977783,-0.2498169,0.765625,-0.15625,-0.0625
445,445,1727901549794,-0.032714844,-0.95562744,-0.25128174,0.46875,-0.234375,-0.15625
446,446,1727901549834,-0.025878906,-0.95806885,-0.25323486,0.5625,-0.046875,0.109375
447,447,1727901549874,-0.025634766,-0.9631958,-0.25152588,0.90625,0.703125,0.234375
448,448,1727901549914,-0.02368164,-0.95318604,-0.24737549,0.625,-0.015625,0.015625
449,449,1727901549954,-0.02709961,-0.9619751,-0.24713135,0.765625,-0.078125,-0.21875
450,450,1727901549994,-0.02368164,-0.954895,-0.25445557,0.15625,0.515625,-0.125
451,451,1727901550034,-0.022949219,-0.9590454,-0.24468994,0.28125,-0.390625,0.0
452,452,1727901550074,-0.028564453,-0.956604,-0.2654419,-0.5,-1.15625,-0.171875
453,453,1727901550114,-0.024902344,-0.96173096,-0.23248291,0.8125,-0.171875,0.078125
454,454,1727901550154,-0.019042969,-0.9517212,-0.25372314,0.296875,-0.421875,0.328125
455,455,1727901550194,-0.03125,-0.9685669,-0.23956299,0.578125,-0.671875,-0.171875
456,456,1727901550234,-0.024902344,-0.956604,-0.24957275,0.03125,-0.328125,-0.234375
457,457,1727901550274,-0.021484375,-0.9578247,-0.2468872,1.109375,-0.578125,-0.234375
458,458,1727901550314,-0.020751953,-0.95635986,-0.24371338,0.640625,-0.640625,-0.3125
459,459,1727901550354,-0.021240234,-0.9602661,-0.25250244,1.09375,-0.546875,-0.296875
460,460,1727901550394,-0.024658203,-0.96710205,-0.24298096,1.109375,-0.140625,-0.40625
461,461,1727901550434,-0.022705078,-0.95684814,-0.24249268,0.796875,0.046875,-0.4375
462,462,1727901550474,-0.022216797,-0.9627075,-0.2468872,0.921875,0.296875,-0.25
463,463,1727901550514,-0.016357422,-0.9644165,-0.24151611,0.765625,0.03125,-0.40625
464,464,1727901550554,-0.026367188,-0.95977783,-0.23687744,0.5,0.53125,-0.578125
465,465,1727901550594,-0.017822266,-0.9639282,-0.23687744,0.90625,0.40625,-0.75
466,466,1727901550634,-0.025390625,-0.9612427,-0.24298096,1.4375,0.453125,-0.671875
467,467,1727901550674,-0.029296875,-0.95758057,-0.24859619,2.359375,1.921875,-0.21875
468,468,1727901550714,-0.03125,-0.9529419,-0.24468994,2.375,1.015625,-0.375
469,469,1727901550754,-0.018798828,-0.94415283,-0.2617798,2.40625,2.078125,0.078125
470,470,1727901550794,-0.04321289,-0.9768677,-0.21759033,4.15625,1.234375,-0.109375
471,471,1727901550834,-0.028076172,-0.9463501,-0.27301025,2.453125,1.25,0.109375
472,472,1727901550874,-0.023925781,-0.9505005,-0.2637329,2.625,-0.75,-0.234375
473,473,1727901550914,-0.025146484,-0.9612427,-0.24932861,2.609375,1.15625,0.03125
474,474,1727901550954,-0.020996094,-0.9546509,-0.27056885,2.109375,0.15625,-0.21875
475,475,1727901550994,-0.032714844,-0.95513916,-0.2625122,1.484375,-0.3125,-0.4375
476,476,1727901551034,-0.029296875,-0.9524536,-0.25836182,1.53125,0.109375,-0.078125
477,477,1727901551074,-0.020751953,-0.9463501,-0.27252197,1.984375,0.03125,-0.265625
478,478,1727901551114,-0.029052734,-0.95440674,-0.2678833,1.078125,-0.109375,-0.484375
479,479,1727901551154,-0.021240234,-0.9585571,-0.25982666,0.9375,0.171875,-0.625
480,480,1727901551194,-0.028076172,-0.9558716,-0.2642212,1.234375,0.46875,-1.078125
481,481,1727901551234,-0.027832031,-0.9483032,-0.27349854,1.03125,-0.265625,-1.28125
482,482,1727901551274,-0.03125,-0.9522095,-0.27130127,1.296875,1.0,-0.40625
483,483,1727901551314,-0.03100586,-0.9487915,-0.27838135,0.3125,0.28125,-0.734375
484,484,1727901551354,-0.024658203,-0.9546509,-0.2678833,1.0625,0.109375,-0.34375
485,485,1727901551394,-0.037109375,-0.9612427,-0.26202393,0.703125,-0.03125,-0.171875
486,486,1727901551434,-0.024414062,-0.95513916,-0.26934814,0.65625,0.046875,-0.515625
487,487,1727901551474,-0.03125,-0.96051025,-0.25836182,0.625,0.078125,-0.84375
488,488,1727901551514,-0.028564453,-0.95098877,-0.26763916,0.65625,0.078125,-0.578125
489,489,1727901551554,-0.021972656,-0.9495239,-0.25323486,1.28125,-0.40625,-0.421875
490,490,1727901551594,-0.03515625,-0.9495239,-0.2769165,0.0625,-1.375,-0.546875
491,491,1727901551634,-0.028320312,-0.9463501,-0.26226807,0.53125,0.4375,0.15625
492,492,1727901551674,-0.02368164,-0.9480591,-0.27056885,1.59375,0.078125,-0.609375
493,493,1727901551714,-0.046875,-0.956604,-0.25665283,2.984375,0.625,-0.25
494,494,1727901551754,-0.040283203,-0.9536743,-0.26470947,0.96875,-0.125,-0.234375
495,495,1727901551794,-0.03515625,-0.9524536,-0.26617432,1.296875,-0.140625,0.0
496,496,1727901551834,-0.044189453,-0.9607544,-0.26470947,1.578125,-0.015625,0.140625
497,497,1727901551874,-0.032470703,-0.9487915,-0.27178955,0.703125,-0.265625,0.25
498,498,1727901551914,-0.030761719,-0.9505005,-0.27618408,0.453125,-0.40625,-0.1875
499,499,1727901551954,-0.03173828,-0.94610596,-0.26446533,0.171875,0.234375,-0.359375
500,500,1727901551994,-0.040039062,-0.9546509,-0.27105713,-0.5,-0.265625,-0.65625
501,501,1727901552034,-0.028808594,-0.95806885,-0.2625122,0.125,-0.375,-0.46875
502,502,1727901552074,-0.03100586,-0.9536743,-0.26617432,-0.15625,-0.28125,-0.328125
503,503,1727901552114,-0.033691406,-0.95513916,-0.26031494,-0.328125,-0.390625,-0.390625
504,504,1727901552154,-0.026123047,-0.9507446,-0.26763916,-0.15625,-0.640625,-0.328125
505,505,1727901552194,-0.024414062,-0.9612427,-0.25665283,-0.109375,0.0625,-0.140625
506,506,1727901552234,-0.031982422,-0.9561157,-0.26837158,-0.375,-1.0,-0.265625
507,507,1727901552274,-0.03149414,-0.9631958,-0.24371338,1.5625,-0.421875,-0.359375
508,508,1727901552314,-0.037841797,-0.95684814,-0.26397705,-0.328125,-0.4375,-0.546875
509,509,1727901552354,-0.026611328,-0.95391846,-0.24346924,1.09375,-0.46875,-0.484375
510,510,1727901552394,-0.033691406,-0.9495239,-0.269104,0.71875,0.828125,-0.140625
511,511,1727901552434,-0.03149414,-0.9590454,-0.25860596,1.015625,-0.3125,-0.5625
512,512,1727901552474,-0.032958984,-0.96710205,-0.26080322,0.296875,0.140625,-0.453125
513,513,1727901552514,-0.032958984,-0.9546509,-0.25372314,0.78125,0.78125,-0.171875
514,514,1727901552554,-0.030761719,-0.95391846,-0.25299072,0.71875,0.203125,-0.578125
515,515,1727901552594,-0.032714844,-0.960022,-0.2539673,0.609375,0.1875,-0.234375
516,516,1727901552634,-0.032470703,-0.9536743,-0.25982666,0.125,0.4375,-0.03125
517,517,1727901552674,-0.033691406,-0.95147705,-0.25933838,0.4375,-0.046875,-0.3125
518,518,1727901552714,-0.032958984,-0.9595337,-0.2571411,0.671875,-0.0625,-0.265625
519,519,1727901552754,-0.03173828,-0.9585571,-0.26446533,1.453125,-0.0625,-0.25
520,520,1727901552794,-0.037353516,-0.954895,-0.25079346,1.4375,0.140625,0.015625
521,521,1727901552834,-0.034179688,-0.9522095,-0.25982666,1.171875,-0.109375,-0.125
522,522,1727901552874,-0.030273438,-0.9483032,-0.25860596,1.9375,-0.109375,-0.109375
523,523,1727901552914,-0.032714844,-0.95684814,-0.2642212,1.28125,-0.765625,-0.25
524,524,1727901552954,-0.03857422,-0.96832275,-0.24005127,2.578125,-0.8125,-0.046875
525,525,1727901552994,-0.030273438,-0.9331665,-0.27618408,0.703125,-0.21875,0.21875
526,526,1727901553034,-0.030761719,-0.9590454,-0.2559204,0.9375,-1.546875,-0.125
527,527,1727901553074,-0.03491211,-0.95977783,-0.25689697,0.796875,-0.359375,0.0
528,528,1727901553114,-0.033691406,-0.95391846,-0.25958252,0.609375,0.28125,-0.03125
529,529,1727901553154,-0.028076172,-0.9553833,-0.26055908,0.9375,-0.625,-0.078125
530,530,1727901553194,-0.03564453,-0.9595337,-0.2642212,1.0,-0.46875,0.203125
531,531,1727901553234,-0.022460938,-0.9512329,-0.2564087,0.875,-0.875,-0.171875
532,532,1727901553274,-0.026123047,-0.95635986,-0.26348877,0.125,-1.0,0.0
533,533,1727901553314,-0.029296875,-0.95318604,-0.26031494,-0.015625,-1.453125,-0.015625
534,534,1727901553354,-0.022705078,-0.9507446,-0.26812744,-0.6875,-1.125,0.25
535,535,1727901553394,-0.026367188,-0.9624634,-0.25933838,-0.546875,-2.375,-0.421875
536,536,1727901553434,-0.025878906,-0.9636841,-0.25030518,0.875,0.828125,0.328125
537,537,1727901553474,-0.026611328,-0.95318604,-0.26641846,0.59375,-0.125,0.15625
538,538,1727901553514,-0.027832031,-0.95806885,-0.25787354,0.828125,0.359375,0.21875
539,539,1727901553554,-0.027832031,-0.96881104,-0.25177002,0.71875,0.78125,0.109375
540,540,1727901553594,-0.023925781,-0.9446411,-0.27178955,0.203125,-0.0625,0.046875
541,541,1727901553634,-0.02368164,-0.96221924,-0.23516846,1.078125,-0.15625,-0.078125
542,542,1727901553674,-0.026611328,-0.95391846,-0.26617432,-0.609375,-0.6875,-0.28125
543,543,1727901553714,-0.017333984,-0.9612427,-0.25054932,0.5625,0.671875,-0.078125
544,544,1727901553754,-0.022460938,-0.9627075,-0.25494385,0.15625,0.78125,-0.015625
545,545,1727901553794,-0.0146484375,-0.9590454,-0.25323486,0.390625,-0.484375,-0.4375
546,546,1727901553834,-0.028564453,-0.9590454,-0.25860596,0.21875,-0.125,-0.28125
547,547,1727901553874,-0.026123047,-0.960022,-0.24859619,-0.015625,-0.40625,-0.203125
548,548,1727901553914,-0.02709961,-0.956604,-0.2559204,0.5625,0.203125,0.21875
549,549,1727901553954,-0.028564453,-0.960022,-0.25152588,0.859375,-0.28125,0.34375
550,550,1727901553994,-0.022460938,-0.9602661,-0.2522583,1.1875,0.25,0.65625
551,551,1727901554034,-0.016845703,-0.956604,-0.25177002,1.421875,-0.171875,0.109375
552,552,1727901554074,-0.01953125,-0.9595337,-0.25445557,1.234375,0.34375,0.0625
553,553,1727901554114,-0.017333984,-0.9651489,-0.25152588,1.125,0.296875,0.015625
554,554,1727901554154,-0.02319336,-0.95880127,-0.24835205,0.71875,0.140625,-0.21875
555,555,1727901554194,-0.017822266,-0.9541626,-0.24932861,1.171875,0.15625,-0.5
556,556,1727901554234,-0.017333984,-0.9458618,-0.25689697,1.109375,0.390625,-0.484375
557,557,1727901554274,-0.031982422,-0.9673462,-0.22857666,2.953125,0.34375,-0.703125
558,558,1727901554314,-0.022949219,-0.956604,-0.26446533,1.140625,1.09375,0.046875
559,559,1727901554354,-0.017822266,-0.96417236,-0.26226807,1.609375,-0.21875,-0.609375
560,560,1727901554394,-0.027832031,-0.9573364,-0.24224854,0.875,1.921875,-0.140625
561,561,1727901554434,-0.021728516,-0.95269775,-0.26519775,1.359375,1.1875,-0.296875
562,562,1727901554474,-0.025146484,-0.96588135,-0.26153564,1.890625,0.3125,-0.46875
563,563,1727901554514,-0.021728516,-0.95147705,-0.26275635,2.140625,0.75,-0.390625
564,564,1727901554554,-0.023925781,-0.9507446,-0.26055908,2.1875,0.09375,-0.640625
565,565,1727901554594,-0.025146484,-0.956604,-0.27130127,1.53125,0.21875,-0.28125
566,566,1727901554634,-0.026611328,-0.9558716,-0.2588501,1.59375,0.34375,-0.3125
567,567,1727901554674,-0.032470703,-0.954895,-0.26812744,1.359375,0.109375,-0.609375
568,568,1727901554714,-0.022460938,-0.95513916,-0.26226807,1.34375,0.171875,-0.390625
569,569,1727901554754,-0.020996094,-0.954895,-0.26446533,0.875,-0.1875,-0.640625
570,570,1727901554794,-0.029785156,-0.95269775,-0.26837158,1.875,-0.4375,-1.140625
571,571,1727901554834,-0.026367188,-0.95513916,-0.27130127,1.859375,0.375,-0.546875
572,572,1727901554874,-0.031982422,-0.960022,-0.27056885,1.28125,0.515625,-0.296875
573,573,1727901554914,-0.025146484,-0.94781494,-0.27008057,0.34375,0.359375,-0.375
574,574,1727901554954,-0.028320312,-0.95147705,-0.25909424,1.71875,0.203125,0.0625
575,575,1727901554994,-0.02734375,-0.9522095,-0.27838135,-0.140625,-0.828125,-0.421875
576,576,1727901555034,-0.02368164,-0.9524536,-0.2642212,1.09375,0.328125,-0.375
577,577,1727901555074,-0.03100586,-0.9470825,-0.27838135,0.84375,0.28125,-0.140625
578,578,1727901555114,-0.03466797,-0.9570923,-0.2617798,1.015625,-0.265625,-0.640625
579,579,1727901555154,-0.033935547,-0.9480591,-0.27496338,0.453125,0.203125,-0.375
580,580,1727901555194,-0.029296875,-0.9373169,-0.27642822,1.171875,-0.171875,-0.234375
581,581,1727901555234,-0.031982422,-0.9534302,-0.26690674,1.078125,-0.59375,-0.609375
582,582,1727901555274,-0.03149414,-0.95513916,-0.2637329,0.15625,-0.1875,-0.625
583,583,1727901555314,-0.022216797,-0.9470825,-0.2744751,-0.46875,-0.328125,-0.546875
584,584,1727901555354,-0.03100586,-0.94854736,-0.26812744,-0.171875,0.078125,-0.546875
585,585,1727901555394,-0.035888672,-0.9546509,-0.2649536,-0.140625,-0.1875,-0.65625
586,586,1727901555434,-0.033935547,-0.95318604,-0.26690674,-0.359375,0.15625,-0.796875
587,587,1727901555474,-0.02758789,-0.9522095,-0.25860596,-0.015625,0.0625,-0.609375
588,588,1727901555514,-0.03125,-0.958313,-0.25909424,0.3125,0.3125,-0.390625
589,589,1727901555554,-0.031982422,-0.9373169,-0.270813,0.0625,-0.3125,-0.59375
590,590,1727901555594,-0.03515625,-0.96343994,-0.23883057,1.40625,0.53125,-0.5
591,591,1727901555634,-0.03100586,-0.944397,-0.27960205,-1.125,-0.140625,-0.625
592,592,1727901555674,-0.037597656,-0.95196533,-0.2522583,0.640625,-0.546875,-0.421875
593,593,1727901555714,-0.028076172,-0.95269775,-0.25128174,-0.265625,0.46875,-0.21875
594,594,1727901555754,-0.034179688,-0.95440674,-0.2617798,0.265625,-0.203125,-0.15625
595,595,1727901555794,-0.036621094,-0.95928955,-0.25054932,0.171875,-0.328125,0.015625
596,596,1727901555834,-0.032714844,-0.96221924,-0.25054932,0.96875,0.171875,0.140625
597,597,1727901555874,-0.03149414,-0.9607544,-0.24957275,0.9375,-0.234375,0.125
598,598,1727901555914,-0.036865234,-0.96099854,-0.25567627,1.046875,-0.171875,-0.015625
599,599,1727901555954,-0.029296875,-0.95513916,-0.2539673,0.734375,-0.078125,0.234375
600,600,1727901555994,-0.033447266,-0.95196533,-0.24664307,0.9375,0.28125,0.109375
601,601,1727901556034,-0.033203125,-0.9578247,-0.2539673,1.15625,-0.890625,-0.1875
602,602,1727901556074,-0.036865234,-0.9573364,-0.25201416,1.875,0.171875,0.265625
603,603,1727901556114,-0.036621094,-0.9536743,-0.25933838,1.03125,0.234375,0.59375
604,604,1727901556154,-0.0234375,-0.9585571,-0.2564087,1.515625,-0.5,0.5
605,605,1727901556194,-0.025634766,-0.9578247,-0.25128174,1.734375,-0.3125,0.34375
606,606,1727901556234,-0.022460938,-0.9500122,-0.26739502,0.40625,-0.625,-0.21875
607,607,1727901556274,-0.03125,-0.97247314,-0.2312622,2.28125,-1.015625,-0.0625
608,608,1727901556314,-0.024658203,-0.94244385,-0.2786255,-0.71875,-1.0625,-0.3125
609,609,1727901556354,-0.029541016,-0.9590454,-0.2510376,0.765625,-0.296875,-0.265625
610,610,1727901556394,-0.030761719,-0.95880127,-0.2559204,0.03125,0.203125,-0.03125
611,611,1727901556434,-0.034179688,-0.95196533,-0.26055908,0.25,-0.453125,-0.28125
612,612,1727901556474,-0.03125,-0.9644165,-0.25567627,-0.125,0.140625,-0.109375
613,613,1727901556514,-0.029785156,-0.9607544,-0.25079346,0.28125,-0.109375,-0.234375
614,614,1727901556554,-0.022460938,-0.9614868,-0.2564087,0.40625,-0.34375,-0.078125
615,615,1727901556594,-0.019042969,-0.95391846,-0.25567627,0.234375,-0.921875,-0.203125
616,616,1727901556634,-0.0234375,-0.9578247,-0.24957275,0.234375,-0.125,-0.109375
617,617,1727901556674,-0.019042969,-0.9534302,-0.25201416,0.65625,-0.1875,-0.25
618,618,1727901556714,-0.022460938,-0.9558716,-0.24835205,0.8125,-0.078125,-0.09375
619,619,1727901556754,-0.028808594,-0.9631958,-0.25274658,0.703125,0.03125,-0.4375
620,620,1727901556794,-0.0234375,-0.96343994,-0.2546997,0.65625,-0.234375,-0.375
621,621,1727901556834,-0.022949219,-0.9590454,-0.24908447,0.375,0.203125,-0.15625
622,622,1727901556874,-0.028808594,-0.96588135,-0.24786377,0.5625,0.109375,-0.125
623,623,1727901556914,-0.028808594,-0.9619751,-0.2456665,1.109375,0.109375,-0.421875
624,624,1727901556954,-0.020019531,-0.9546509,-0.25201416,0.796875,0.84375,-0.03125
625,625,1727901556994,-0.020751953,-0.9558716,-0.2522583,1.03125,0.0625,0.125
626,626,1727901557034,-0.028564453,-0.9602661,-0.25372314,0.71875,-1.0625,-0.4375
627,627,1727901557074,-0.01953125,-0.96051025,-0.24273682,1.109375,0.765625,-0.03125
628,628,1727901557114,-0.024658203,-0.95880127,-0.25787354,0.984375,-0.15625,-0.125
629,629,1727901557154,-0.025634766,-0.9619751,-0.2510376,0.953125,0.296875,-0.34375
630,630,1727901557194,-0.018554688,-0.95806885,-0.25836182,1.484375,-0.234375,-0.125
631,631,1727901557234,-0.026855469,-0.95562744,-0.24786377,1.78125,0.109375,0.140625
632,632,1727901557274,-0.028808594,-0.95513916,-0.2539673,0.6875,0.15625,0.046875
633,633,1727901557314,-0.02319336,-0.9607544,-0.2588501,1.796875,0.359375,0.03125
634,634,1727901557354,-0.01953125,-0.96051025,-0.26641846,2.421875,0.5625,0.203125
635,635,1727901557394,-0.025146484,-0.95513916,-0.2600708,3.40625,0.90625,0.25
636,636,1727901557434,-0.032958984,-0.95684814,-0.2510376,2.0625,0.5625,-0.046875
637,637,1727901557474,-0.028564453,-0.96343994,-0.25982666,2.328125,0.484375,-0.203125
638,638,1727901557514,-0.013183594,-0.9612427,-0.26519775,1.53125,0.171875,-0.234375
639,639,1727901557554,-0.029541016,-0.9534302,-0.25933838,1.8125,0.734375,-0.3125
640,640,1727901557594,-0.019042969,-0.9480591,-0.26837158,2.15625,-0.390625,-0.375
641,641,1727901557634,-0.029785156,-0.95562744,-0.2617798,1.28125,0.5,-0.390625
642,642,1727901557674,-0.022949219,-0.94366455,-0.27520752,0.859375,-0.296875,-0.390625
643,643,1727901557714,-0.03955078,-0.9673462,-0.24786377,2.234375,0.640625,-0.3125
644,644,1727901557754,-0.0234375,-0.9360962,-0.2871704,0.34375,0.5,-0.65625
645,645,1727901557794,-0.026611328,-0.9558716,-0.2727661,1.28125,-0.96875,-0.671875
646,646,1727901557834,-0.024902344,-0.94976807,-0.27130127,1.109375,1.5,-0.0625
647,647,1727901557874,-0.029785156,-0.9507446,-0.2769165,1.25,-0.078125,-0.296875
648,648,1727901557914,-0.032226562,-0.95391846,-0.27227783,1.015625,0.34375,-0.328125
649,649,1727901557954,-0.030517578,-0.956604,-0.27398682,1.25,0.28125,-0.234375
650,650,1727901557994,-0.017333984,-0.942688,-0.27471924,0.46875,0.515625,-0.640625
651,651,1727901558034,-0.027832031,-0.95440674,-0.27667236,1.15625,0.046875,-0.609375
652,652,1727901558074,-0.026855469,-0.9561157,-0.27252197,0.578125,0.03125,-0.640625
653,653,1727901558114,-0.03515625,-0.9517212,-0.28009033,0.59375,-0.046875,-0.5
654,654,1727901558154,-0.030273438,-0.95562744,-0.2727661,0.515625,-0.03125,-0.625
655,655,1727901558194,-0.03100586,-0.9458618,-0.26837158,-0.03125,-0.328125,-0.734375
656,656,1727901558234,-0.038330078,-0.9446411,-0.2888794,1.921875,0.09375,-0.28125
657,657,1727901558274,-0.030761719,-0.9451294,-0.27764893,1.203125,0.109375,0.203125
658,658,1727901558314,-0.029296875,-0.94732666,-0.2769165,0.875,0.109375,-0.09375
659,659,1727901558354,-0.029052734,-0.9404907,-0.27520752,0.640625,0.4375,-0.234375
660,660,1727901558394,-0.033935547,-0.96099854,-0.26763916,1.484375,0.671875,-0.359375
661,661,1727901558434,-0.03173828,-0.95025635,-0.2774048,0.375,0.40625,-0.40625
662,662,1727901558474,-0.022949219,-0.95684814,-0.2546997,1.140625,0.484375,-0.03125
663,663,1727901558514,-0.030761719,-0.9573364,-0.27520752,-0.4375,-1.1875,-0.6875
664,664,1727901558554,-0.017822266,-0.94732666,-0.26739502,1.25,0.171875,-0.3125
665,665,1727901558594,-0.033691406,-0.9463501,-0.27105713,0.21875,0.1875,-0.40625
666,666,1727901558634,-0.03540039,-0.9578247,-0.27105713,0.421875,-0.8125,-0.53125
667,667,1727901558674,-0.032958984,-0.9624634,-0.2781372,-0.171875,0.109375,-0.296875
668,668,1727901558714,-0.034179688,-0.9558716,-0.26934814,0.390625,0.3125,-0.25
669,669,1727901558754,-0.033935547,-0.95391846,-0.2625122,0.5,-0.390625,-0.4375
670,670,1727901558794,-0.032714844,-0.9553833,-0.270813,0.5,-0.28125,-0.421875
671,671,1727901558834,-0.030761719,-0.95391846,-0.26690674,-0.015625,-0.03125,-0.34375
672,672,1727901558874,-0.033691406,-0.9404907,-0.26324463,0.125,-0.328125,-0.1875
673,673,1727901558914,-0.032714844,-0.960022,-0.26153564,-0.53125,0.140625,0.046875
674,674,1727901558954,-0.03515625,-0.9578247,-0.26641846,0.109375,-0.078125,-0.078125
675,675,1727901558994,-0.02734375,-0.9505005,-0.26617432,0.1875,-0.765625,0.0625
676,676,1727901559034,-0.032958984,-0.95318604,-0.2654419,0.90625,-0.453125,0.03125
677,677,1727901559074,-0.033935547,-0.9541626,-0.26031494,0.984375,-0.359375,0.09375
678,678,1727901559114,-0.028564453,-0.9561157,-0.25811768,0.515625,0.609375,0.15625
679,679,1727901559154,-0.03466797,-0.95635986,-0.2625122,-0.375,0.21875,-0.203125
680,680,1727901559194,-0.046875,-0.9578247,-0.2498169,1.28125,0.359375,-0.125
681,681,1727901559234,-0.029785156,-0.9385376,-0.27618408,0.265625,0.515625,0.234375
682,682,1727901559274,-0.03515625,-0.9585571,-0.2695923,0.375,-0.90625,-0.21875
683,683,1727901559314,-0.028320312,-0.958313,-0.2510376,0.171875,0.578125,0.078125
684,684,1727901559354,-0.025390625,-0.9480591,-0.27398682,0.90625,0.09375,0.109375
685,685,1727901559394,-0.032714844,-0.9595337,-0.2576294,0.8125,0.546875,-0.25
686,686,1727901559434,-0.02734375,-0.95147705,-0.26080322,0.390625,-0.015625,-0.25
687,687,1727901559474,-0.024169922,-0.9492798,-0.26715088,1.21875,-0.453125,-0.078125
688,688,1727901559514,-0.037109375,-0.95318604,-0.2617798,0.625,-0.171875,0.25
689,689,1727901559554,-0.022460938,-0.954895,-0.2625122,0.796875,-0.25,0.125
690,690,1727901559594,-0.027832031,-0.9558716,-0.2612915,0.953125,-0.28125,0.09375
691,691,1727901559634,-0.01977539,-0.9561157,-0.25836182,1.171875,-0.375,0.015625
692,692,1727901559674,-0.023925781,-0.9534302,-0.2576294,0.71875,-0.21875,-0.078125
693,693,1727901559714,-0.022216797,-0.95513916,-0.25201416,0.5,-0.25,-0.03125
694,694,1727901559754,-0.02734375,-0.9517212,-0.26104736,0.296875,-0.640625,-0.015625
695,695,1727901559794,-0.024902344,-0.954895,-0.25860596,0.9375,-0.484375,0.0
696,696,1727901559834,-0.02758789,-0.9585571,-0.25421143,0.96875,0.0,-0.28125
697,697,1727901559874,-0.024658203,-0.95513916,-0.25933838,1.1875,0.0625,0.0
698,698,1727901559914,-0.022460938,-0.95880127,-0.2588501,0.515625,-0.015625,-0.078125
699,699,1727901559954,-0.03857422,-0.97198486,-0.2300415,2.296875,-0.296875,-0.21875
700,700,1727901559994,-0.018554688,-0.9380493,-0.2666626,0.0625,-0.28125,-0.046875
701,701,1727901560034,-0.026855469,-0.96295166,-0.26153564,0.703125,-0.4375,-0.328125
702,702,1727901560074,-0.021240234,-0.9624634,-0.25836182,-0.015625,0.53125,0.078125
703,703,1727901560114,-0.022460938,-0.9536743,-0.24835205,0.53125,0.1875,-0.03125
704,704,1727901560154,-0.015625,-0.95806885,-0.25299072,0.140625,0.515625,0.203125
705,705,1727901560194,-0.017089844,-0.9517212,-0.25958252,0.578125,-0.3125,0.078125
706,706,1727901560234,-0.017089844,-0.9512329,-0.253479,1.046875,-0.1875,0.265625
707,707,1727901560274,-0.017333984,-0.95391846,-0.26446533,0.765625,-0.609375,0.15625
708,708,1727901560314,-0.017578125,-0.9690552,-0.24859619,0.734375,-0.390625,-0.140625
709,709,1727901560354,-0.018798828,-0.95684814,-0.25445557,0.78125,0.125,-0.265625
710,710,1727901560394,-0.022705078,-0.9529419,-0.25909424,1.640625,0.359375,-0.21875
711,711,1727901560434,-0.016845703,-0.95562744,-0.25543213,2.453125,0.265625,0.015625
712,712,1727901560474,-0.014892578,-0.95391846,-0.24835205,1.671875,0.625,0.0625
713,713,1727901560514,-0.018554688,-0.9487915,-0.25958252,1.390625,0.328125,-0.015625
714,714,1727901560554,-0.018066406,-0.956604,-0.2732544,1.453125,-0.484375,-0.5625
715,715,1727901560594,-0.017089844,-0.95758057,-0.26568604,1.40625,0.8125,-0.84375
716,716,1727901560634,-0.024658203,-0.95318604,-0.2756958,1.5,1.1875,-0.671875
717,717,1727901560674,-0.02709961,-0.9546509,-0.26055908,1.265625,1.0,-0.640625
718,718,1727901560714,-0.030029297,-0.954895,-0.26324463,1.484375,1.015625,-0.515625
719,719,1727901560754,-0.022460938,-0.9483032,-0.27374268,0.953125,0.0,-0.109375
720,720,1727901560794,-0.025390625,-0.9546509,-0.2774048,0.796875,-1.015625,-0.5
721,721,1727901560834,-0.0234375,-0.95635986,-0.253479,1.015625,1.609375,0.0
722,722,1727901560874,-0.0234375,-0.94415283,-0.284729,0.734375,0.359375,-0.03125
723,723,1727901560914,-0.020996094,-0.9612427,-0.26055908,0.796875,0.234375,-0.25
724,724,1727901560954,-0.017333984,-0.9505005,-0.26837158,1.25,0.3125,-0.171875
725,725,1727901560994,-0.022949219,-0.9451294,-0.2715454,1.03125,0.046875,-0.390625
726,726,1727901561034,-0.02734375,-0.95391846,-0.2756958,0.25,-0.125,-0.484375
727,727,1727901561074,-0.021240234,-0.95318604,-0.2666626,0.96875,0.09375,-0.515625
728,728,1727901561114,-0.028076172,-0.95147705,-0.27593994,0.625,-0.0625,-0.5625
729,729,1727901561154,-0.02319336,-0.95269775,-0.27130127,0.234375,-0.0625,-0.5
730,730,1727901561194,-0.034423828,-0.9487915,-0.26397705,0.703125,-0.625,-0.8125
731,731,1727901561234,-0.023925781,-0.9480591,-0.27008057,0.3125,-0.0625,-0.515625
732,732,1727901561274,-0.025390625,-0.95806885,-0.26226807,0.40625,-0.03125,-0.4375
733,733,1727901561314,-0.02758789,-0.96051025,-0.26641846,0.5,-0.40625,-0.5625
734,734,1727901561354,-0.024414062,-0.95196533,-0.26641846,0.609375,-0.359375,-0.640625
735,735,1727901561394,-0.029785156,-0.95635986,-0.26837158,0.359375,-0.9375,-0.578125
