,Unnamed: 0,timestamp,accel_x,accel_y,accel_z,gyro_x,gyro_y,gyro_z
0,0,1727440148791,-0.0034179688,-0.9927368,-0.06085205,1.4375,-0.1875,-0.890625
1,1,1727440148831,0.0126953125,-0.991272,-0.06329346,0.3125,0.0625,-0.359375
2,2,1727440148871,0.0146484375,-0.99224854,-0.062805176,0.359375,-0.171875,-0.140625
3,3,1727440148911,0.012207031,-0.9920044,-0.06842041,0.203125,0.28125,-0.234375
4,4,1727440148951,0.011474609,-0.98394775,-0.06036377,0.4375,0.28125,-0.21875
5,5,1727440148991,0.008056641,-0.9871216,-0.0635376,0.40625,0.109375,-0.375
6,6,1727440149031,0.011962891,-0.99005127,-0.06427002,0.015625,-0.203125,-0.53125
7,7,1727440149071,0.015136719,-0.9883423,-0.06402588,-0.078125,-0.03125,-0.5
8,8,1727440149111,0.014404297,-0.9990845,-0.07574463,-0.546875,-0.078125,-0.546875
9,9,1727440149151,0.005859375,-0.9885864,-0.062561035,0.78125,0.515625,-0.421875
10,10,1727440149191,0.012939453,-0.99420166,-0.078186035,0.03125,0.015625,-0.5
11,11,1727440149231,0.008300781,-0.99005127,-0.06524658,0.453125,0.625,-0.390625
12,12,1727440149271,0.0078125,-0.98760986,-0.06329346,-0.0625,0.09375,-0.453125
13,13,1727440149311,0.011474609,-0.9932251,-0.06573486,-0.03125,0.046875,-0.453125
14,14,1727440149351,0.0063476562,-0.987854,-0.0647583,-0.125,0.15625,-0.234375
15,15,1727440149391,0.009765625,-0.98883057,-0.066223145,0.0625,0.234375,-0.140625
16,16,1727440149431,0.009033203,-0.99957275,-0.066467285,-0.421875,0.078125,-0.109375
17,17,1727440149471,0.012939453,-0.98028564,-0.06549072,-0.40625,0.296875,-0.078125
18,18,1727440149511,0.011962891,-0.9898071,-0.062316895,-0.109375,-0.171875,-0.28125
19,19,1727440149551,0.0068359375,-0.99102783,-0.07110596,-0.078125,-0.328125,-0.203125
20,20,1727440149591,0.009033203,-0.9849243,-0.06329346,-0.328125,-0.265625,-0.234375
21,21,1727440149631,0.009521484,-0.9866333,-0.058166504,0.078125,0.3125,-0.03125
22,22,1727440149671,0.00390625,-0.9932251,-0.06768799,-0.046875,0.40625,-0.03125
23,23,1727440149711,0.009033203,-0.9932251,-0.06036377,-0.140625,0.28125,-0.09375
24,24,1727440149751,0.0063476562,-0.98516846,-0.061584473,-0.46875,0.859375,0.046875
25,25,1727440149791,0.008300781,-0.987854,-0.05303955,0.265625,0.296875,-0.015625
26,26,1727440149831,0.010009766,-0.98638916,-0.062316895,0.3125,1.515625,-0.09375
27,27,1727440149871,0.008544922,-0.98931885,-0.04473877,-0.671875,-0.140625,-0.25
28,28,1727440149911,0.014892578,-0.9834595,-0.06768799,-0.234375,1.84375,0.078125
29,29,1727440149951,0.0087890625,-0.9976196,-0.04888916,-1.375,1.15625,-0.28125
30,30,1727440149991,0.012207031,-0.98565674,-0.05621338,-0.625,0.9375,-0.046875
31,31,1727440150031,0.010009766,-0.991272,-0.055480957,-0.703125,1.0625,-0.015625
32,32,1727440150071,0.0073242188,-0.9883423,-0.05206299,-0.609375,0.765625,-0.203125
33,33,1727440150111,0.010498047,-0.99224854,-0.046936035,-0.5625,1.03125,-0.390625
34,34,1727440150151,0.012939453,-0.9898071,-0.050354004,-0.25,0.4375,-0.03125
35,35,1727440150191,0.008544922,-0.99053955,-0.043273926,-0.328125,0.1875,-0.1875
36,36,1727440150231,0.011962891,-0.991272,-0.05303955,0.46875,-0.109375,-0.015625
37,37,1727440150271,0.010253906,-0.99053955,-0.050109863,0.078125,-0.03125,-0.171875
38,38,1727440150311,0.010253906,-0.9885864,-0.050109863,0.46875,-0.078125,-0.21875
39,39,1727440150351,0.01171875,-0.99053955,-0.050842285,0.453125,-0.171875,-0.09375
40,40,1727440150391,0.010009766,-0.9927368,-0.055480957,0.78125,-0.46875,-0.140625
41,41,1727440150431,0.0063476562,-0.98223877,-0.054992676,0.609375,-0.296875,-0.015625
42,42,1727440150471,0.014404297,-0.99176025,-0.051086426,0.59375,-0.078125,-0.125
43,43,1727440150511,0.013916016,-0.975647,-0.058898926,0.625,0.0625,-0.046875
44,44,1727440150551,0.006591797,-0.989563,-0.04058838,1.109375,-1.265625,-0.03125
45,45,1727440150591,0.015136719,-0.986145,-0.06915283,0.21875,-0.828125,-0.53125
46,46,1727440150631,-0.0009765625,-0.99420166,-0.04888916,-0.140625,-0.546875,-0.484375
47,47,1727440150671,0.011230469,-0.99176025,-0.05303955,0.46875,-0.21875,-0.515625
48,48,1727440150711,0.0026855469,-0.9902954,-0.05328369,0.421875,0.203125,-0.421875
49,49,1727440150751,-0.001953125,-0.98809814,-0.05303955,0.640625,-0.21875,-0.15625
50,50,1727440150791,0.011474609,-0.9819946,-0.05255127,0.71875,-0.09375,-0.296875
51,51,1727440150831,0.014892578,-0.9902954,-0.0569458,0.328125,0.015625,-0.28125
52,52,1727440150871,-0.0021972656,-0.9937134,-0.051818848,-0.28125,-0.34375,-0.390625
53,53,1727440150911,0.0087890625,-0.986145,-0.055725098,0.75,-0.6875,-0.296875
54,54,1727440150951,0.0061035156,-0.9944458,-0.057434082,1.171875,-0.484375,-0.234375
55,55,1727440150991,0.0056152344,-0.9898071,-0.05596924,0.96875,-0.296875,-0.25
56,56,1727440151031,0.0053710938,-0.99542236,-0.05279541,1.078125,-0.28125,-0.234375
57,57,1727440151071,0.007080078,-0.9937134,-0.057922363,0.828125,-0.390625,-0.40625
58,58,1727440151111,0.007080078,-0.98321533,-0.0635376,0.953125,-0.34375,-0.21875
59,59,1727440151151,0.013427734,-0.98687744,-0.062561035,0.875,-0.359375,-0.046875
60,60,1727440151191,0.0146484375,-0.9849243,-0.058654785,0.5,-0.03125,-0.203125
61,61,1727440151231,0.010986328,-0.98321533,-0.06549072,0.25,0.21875,-0.25
62,62,1727440151271,0.008544922,-0.9846802,-0.05230713,1.5,0.109375,-0.09375
63,63,1727440151311,0.016357422,-0.99298096,-0.06964111,0.265625,0.359375,-0.15625
64,64,1727440151351,-0.0036621094,-0.99005127,-0.06378174,0.25,0.625,-0.09375
65,65,1727440151391,0.010498047,-0.99468994,-0.058410645,0.53125,0.21875,-0.25
66,66,1727440151431,0.0068359375,-0.9927368,-0.06915283,0.046875,0.46875,-0.25
67,67,1727440151471,0.007080078,-0.986145,-0.065979004,0.09375,0.28125,0.046875
68,68,1727440151511,0.0078125,-0.9817505,-0.06915283,0.296875,0.359375,-0.109375
69,69,1727440151551,0.0107421875,-0.99102783,-0.06036377,-0.015625,0.125,-0.28125
70,70,1727440151591,0.0048828125,-0.98883057,-0.061828613,-0.203125,0.453125,-0.046875
71,71,1727440151631,0.011230469,-0.9859009,-0.0635376,0.296875,0.3125,-0.015625
72,72,1727440151671,0.009033203,-0.99542236,-0.06500244,0.5625,-0.140625,-0.125
73,73,1727440151711,0.010009766,-0.98883057,-0.06793213,0.1875,0.34375,-0.28125
74,74,1727440151751,0.011230469,-0.9849243,-0.065979004,0.375,0.15625,-0.078125
75,75,1727440151791,0.005859375,-0.99542236,-0.066711426,0.1875,0.15625,-0.28125
76,76,1727440151831,0.0061035156,-0.9920044,-0.06304932,0.15625,0.59375,-0.234375
77,77,1727440151871,0.010253906,-0.9819946,-0.066223145,0.203125,0.046875,-0.078125
78,78,1727440151911,0.008056641,-0.9937134,-0.06842041,0.109375,0.125,0.0
79,79,1727440151951,0.0107421875,-0.9937134,-0.06744385,0.140625,0.296875,-0.125
80,80,1727440151991,0.009521484,-0.9812622,-0.06842041,0.03125,0.171875,-0.28125
81,81,1727440152031,0.010009766,-0.98272705,-0.054992676,1.203125,0.265625,0.140625
82,82,1727440152071,0.016113281,-0.9885864,-0.078186035,-0.09375,0.453125,-0.234375
83,83,1727440152111,0.0041503906,-0.9873657,-0.066711426,0.21875,0.640625,-0.140625
84,84,1727440152151,0.013916016,-0.9927368,-0.06500244,0.359375,0.5,-0.296875
85,85,1727440152191,-0.00024414062,-0.989563,-0.06842041,-0.09375,0.34375,-0.171875
86,86,1727440152231,0.0053710938,-0.9849243,-0.066223145,-0.265625,0.4375,-0.15625
87,87,1727440152271,0.005859375,-0.9883423,-0.06768799,-0.21875,0.1875,-0.375
88,88,1727440152311,0.012939453,-0.9973755,-0.062561035,-0.1875,-0.28125,-0.203125
89,89,1727440152351,0.0078125,-0.99005127,-0.062805176,-0.453125,-0.09375,-0.234375
90,90,1727440152391,0.012939453,-0.987854,-0.06915283,0.015625,-0.265625,-0.328125
91,91,1727440152431,0.013183594,-0.989563,-0.062805176,0.53125,-0.375,-0.1875
92,92,1727440152471,0.0043945312,-0.9898071,-0.059631348,0.046875,0.15625,-0.171875
93,93,1727440152511,0.008544922,-0.99102783,-0.066467285,-0.03125,0.09375,-0.21875
94,94,1727440152551,0.010009766,-0.98809814,-0.06573486,-0.171875,0.390625,-0.21875
95,95,1727440152591,0.0107421875,-0.98931885,-0.06329346,-0.109375,0.34375,-0.078125
96,96,1727440152631,0.006591797,-0.99176025,-0.062561035,-0.171875,0.484375,-0.015625
97,97,1727440152671,0.010253906,-0.9907837,-0.06524658,0.03125,0.21875,0.109375
98,98,1727440152711,0.012939453,-0.9907837,-0.06011963,-0.21875,0.25,-0.078125
99,99,1727440152751,0.004638672,-0.99224854,-0.0569458,0.0625,0.78125,-0.0625
100,100,1727440152791,0.0075683594,-0.97735596,-0.070129395,-0.03125,1.125,0.078125
101,101,1727440152831,0.0063476562,-1.0010376,-0.051574707,0.421875,0.734375,0.09375
102,102,1727440152871,0.016601562,-0.9898071,-0.070617676,-0.71875,1.3125,0.078125
103,103,1727440152911,-0.001953125,-0.989563,-0.05255127,-1.0,1.0625,-0.171875
104,104,1727440152951,0.007080078,-0.9915161,-0.05621338,-0.578125,0.796875,-0.296875
105,105,1727440152991,0.0078125,-0.98516846,-0.06378174,-0.328125,0.828125,-0.078125
106,106,1727440153031,0.0107421875,-0.9915161,-0.05645752,-0.265625,0.703125,-0.046875
107,107,1727440153071,0.010253906,-0.99005127,-0.054992676,-0.28125,0.53125,-0.21875
108,108,1727440153111,0.01171875,-0.9902954,-0.050842285,-0.75,0.34375,-0.109375
109,109,1727440153151,0.009765625,-0.9849243,-0.054504395,-0.734375,0.53125,0.078125
110,110,1727440153191,0.015136719,-0.987854,-0.05255127,-0.140625,0.453125,-0.109375
111,111,1727440153231,0.015380859,-0.9932251,-0.051330566,0.296875,0.1875,-0.046875
112,112,1727440153271,0.013671875,-0.99298096,-0.05645752,0.15625,-0.09375,-0.125
113,113,1727440153311,0.011230469,-0.9812622,-0.053527832,0.453125,-0.125,-0.09375
114,114,1727440153351,0.0107421875,-0.99102783,-0.057678223,0.46875,-0.390625,-0.140625
115,115,1727440153391,0.011962891,-0.99005127,-0.062072754,0.40625,-0.234375,-0.078125
116,116,1727440153431,0.0126953125,-0.9873657,-0.057434082,0.53125,-0.234375,-0.046875
117,117,1727440153471,0.013671875,-0.98760986,-0.05670166,0.859375,-0.578125,0.046875
118,118,1727440153511,0.016845703,-0.9927368,-0.050354004,0.671875,-0.5,0.015625
119,119,1727440153551,0.008300781,-0.987854,-0.053771973,0.640625,-0.140625,0.015625
120,120,1727440153591,0.0075683594,-0.97662354,-0.0635376,0.765625,0.28125,0.03125
121,121,1727440153631,0.009521484,-0.9968872,-0.042785645,1.265625,-0.546875,-0.078125
122,122,1727440153671,0.020751953,-0.98931885,-0.074279785,0.328125,0.0625,-0.140625
123,123,1727440153711,0.0024414062,-0.9920044,-0.058410645,0.234375,0.171875,-0.125
124,124,1727440153751,0.009277344,-0.9915161,-0.058654785,0.09375,0.0,-0.3125
125,125,1727440153791,0.01171875,-0.9873657,-0.06549072,0.296875,0.140625,-0.15625
126,126,1727440153831,0.0073242188,-0.9824829,-0.0569458,0.546875,-0.328125,-0.0625
127,127,1727440153871,0.018066406,-0.9907837,-0.061340332,0.671875,-0.234375,-0.21875
128,128,1727440153911,0.012939453,-0.99957275,-0.06109619,0.359375,-0.6875,-0.40625
129,129,1727440153951,0.01977539,-0.9924927,-0.061828613,0.21875,-0.546875,-0.21875
130,130,1727440153991,0.012939453,-0.98883057,-0.058410645,0.640625,-0.703125,-0.203125
131,131,1727440154031,0.017822266,-0.98687744,-0.06378174,1.15625,-0.875,-0.15625
132,132,1727440154071,0.017333984,-0.9915161,-0.06085205,0.640625,-0.4375,-0.265625
133,133,1727440154111,0.01977539,-0.986145,-0.062072754,1.078125,-0.46875,-0.140625
134,134,1727440154151,0.014404297,-0.98809814,-0.06109619,0.734375,-0.15625,-0.0625
135,135,1727440154191,0.010253906,-0.99176025,-0.06719971,0.859375,-0.4375,-0.4375
136,136,1727440154231,0.012451172,-0.98883057,-0.065979004,0.59375,-0.28125,-0.125
137,137,1727440154271,0.014404297,-0.98931885,-0.06842041,0.78125,-0.1875,-0.3125
138,138,1727440154311,0.0126953125,-0.98638916,-0.0635376,1.015625,-0.71875,-0.140625
139,139,1727440154351,0.018066406,-0.9915161,-0.066223145,0.78125,-0.078125,-0.15625
140,140,1727440154391,0.010986328,-0.99591064,-0.062072754,1.046875,-0.4375,-0.109375
141,141,1727440154431,0.012207031,-0.9890747,-0.06939697,1.453125,0.1875,-0.171875
142,142,1727440154471,0.012451172,-0.9854126,-0.06768799,0.78125,-0.953125,-0.34375
143,143,1727440154511,0.011230469,-0.991272,-0.08135986,0.421875,0.625,-0.0625
144,144,1727440154551,0.013916016,-0.9920044,-0.06304932,0.0625,0.0625,-0.265625
145,145,1727440154591,0.008300781,-0.98687744,-0.0725708,0.515625,0.09375,-0.28125
146,146,1727440154631,0.010009766,-0.9890747,-0.073791504,0.09375,0.09375,-0.0625
147,147,1727440154671,0.016845703,-0.98516846,-0.06402588,0.0625,0.25,-0.1875
148,148,1727440154711,0.0234375,-0.9985962,-0.081604004,0.296875,0.296875,-0.1875
149,149,1727440154751,0.013671875,-0.99224854,-0.074035645,-0.109375,0.15625,-0.015625
150,150,1727440154791,0.012451172,-0.9854126,-0.07623291,0.0,0.421875,-0.0625
151,151,1727440154831,0.0146484375,-0.99468994,-0.06817627,0.28125,0.21875,-0.078125
152,152,1727440154871,0.011962891,-0.9915161,-0.073791504,0.203125,-0.015625,-0.171875
153,153,1727440154911,0.014160156,-0.9841919,-0.0713501,0.078125,-0.03125,-0.21875
154,154,1727440154951,0.011230469,-0.989563,-0.06744385,0.25,0.140625,-0.140625
155,155,1727440154991,0.01953125,-0.9873657,-0.07745361,0.5,0.046875,-0.203125
156,156,1727440155031,0.01928711,-0.9854126,-0.07550049,0.265625,0.203125,-0.28125
157,157,1727440155071,0.015380859,-0.9859009,-0.074035645,0.15625,0.234375,-0.078125
158,158,1727440155111,0.014892578,-0.9890747,-0.06890869,0.390625,0.296875,-0.1875
159,159,1727440155151,0.020751953,-0.9859009,-0.070129395,0.40625,0.171875,-0.171875
160,160,1727440155191,0.014892578,-0.9873657,-0.07183838,0.40625,-0.0625,-0.125
161,161,1727440155231,0.017578125,-0.99005127,-0.07476807,0.1875,0.1875,-0.1875
162,162,1727440155271,0.016601562,-0.9834595,-0.07476807,0.28125,0.171875,-0.234375
163,163,1727440155311,0.018066406,-0.98760986,-0.066711426,1.15625,-0.09375,-0.046875
164,164,1727440155351,0.024902344,-0.99224854,-0.08868408,-0.421875,0.078125,-0.140625
165,165,1727440155391,0.0029296875,-0.9837036,-0.073791504,-0.15625,0.515625,-0.203125
166,166,1727440155431,0.01928711,-0.9883423,-0.06915283,-0.375,0.265625,-0.34375
167,167,1727440155471,0.011230469,-0.98760986,-0.06939697,-0.25,0.1875,-0.265625
168,168,1727440155511,0.013916016,-0.986145,-0.069885254,-0.28125,0.125,-0.15625
169,169,1727440155551,0.017333984,-0.98760986,-0.07305908,-0.453125,0.109375,-0.078125
170,170,1727440155591,0.012207031,-0.9854126,-0.059387207,-0.375,0.015625,-0.375
171,171,1727440155631,0.02319336,-0.98565674,-0.066223145,-0.625,0.375,-0.3125
172,172,1727440155671,0.010009766,-0.989563,-0.06329346,-0.6875,0.625,-0.25
173,173,1727440155711,0.021484375,-0.98760986,-0.06427002,0.0,0.109375,-0.078125
174,174,1727440155751,0.0073242188,-0.98883057,-0.0647583,-0.15625,0.3125,-0.015625
175,175,1727440155791,0.020996094,-0.98638916,-0.06817627,-0.125,0.875,-0.15625
176,176,1727440155831,0.012451172,-0.9937134,-0.06329346,-0.015625,0.75,-0.265625
177,177,1727440155871,0.018798828,-0.99102783,-0.062316895,-0.140625,0.53125,-0.109375
178,178,1727440155911,0.0078125,-0.98638916,-0.06451416,-0.1875,0.6875,0.0
179,179,1727440155951,0.019042969,-0.98931885,-0.062805176,-0.421875,0.453125,0.046875
180,180,1727440155991,0.012939453,-0.98321533,-0.06695557,-0.09375,0.359375,-0.078125
181,181,1727440156031,0.017578125,-0.98443604,-0.06402588,0.0625,0.078125,-0.21875
182,182,1727440156071,0.01928711,-0.9883423,-0.066711426,-0.3125,0.390625,-0.125
183,183,1727440156111,0.013916016,-0.9949341,-0.061828613,-0.140625,0.03125,-0.140625
184,184,1727440156151,0.019042969,-0.99346924,-0.062805176,0.6875,0.9375,-0.125
185,185,1727440156191,0.018554688,-0.99591064,-0.055236816,-0.078125,-0.390625,-0.171875
186,186,1727440156231,0.021728516,-0.97979736,-0.06939697,0.03125,1.421875,-0.046875
187,187,1727440156271,0.013916016,-0.9915161,-0.047424316,-0.703125,0.828125,-0.53125
188,188,1727440156311,0.01953125,-0.9956665,-0.06719971,-0.265625,0.65625,-0.328125
189,189,1727440156351,0.01586914,-0.99053955,-0.059631348,-0.40625,0.78125,-0.140625
190,190,1727440156391,0.0073242188,-0.9920044,-0.05987549,-0.234375,0.546875,-0.09375
191,191,1727440156431,0.022705078,-0.9885864,-0.057922363,-0.1875,0.6875,-0.21875
192,192,1727440156471,0.014892578,-0.989563,-0.0647583,-0.578125,0.546875,-0.125
193,193,1727440156511,0.013671875,-0.98809814,-0.05670166,-0.765625,0.46875,-0.109375
194,194,1727440156551,0.015380859,-0.98516846,-0.05621338,0.390625,0.1875,-0.203125
195,195,1727440156591,0.015136719,-0.9920044,-0.061584473,0.765625,0.03125,-0.15625
196,196,1727440156631,0.015136719,-0.987854,-0.055725098,0.640625,-0.015625,-0.078125
197,197,1727440156671,0.020019531,-0.9898071,-0.054016113,0.875,-0.125,-0.09375
198,198,1727440156711,0.018310547,-0.9907837,-0.061340332,0.765625,-0.15625,-0.390625
199,199,1727440156751,0.013671875,-0.9846802,-0.058898926,0.734375,-0.484375,-0.09375
200,200,1727440156791,0.01953125,-0.986145,-0.05718994,0.875,-0.796875,-0.28125
201,201,1727440156831,0.020019531,-0.98565674,-0.059387207,0.828125,-1.015625,-0.125
202,202,1727440156871,0.0126953125,-0.98931885,-0.061584473,0.96875,-0.984375,-0.140625
203,203,1727440156911,0.01586914,-0.9898071,-0.06500244,0.71875,-0.859375,-0.140625
204,204,1727440156951,0.015625,-0.98443604,-0.062561035,0.796875,-0.640625,-0.34375
205,205,1727440156991,0.025390625,-0.9776001,-0.08135986,1.40625,-0.0625,-0.171875
206,206,1727440157031,0.014160156,-0.9993286,-0.05279541,1.609375,-1.109375,-0.28125
207,207,1727440157071,0.01977539,-0.9885864,-0.073791504,0.421875,-0.15625,-0.484375
208,208,1727440157111,0.007080078,-0.9846802,-0.062561035,0.421875,-0.015625,-0.25
209,209,1727440157151,0.018310547,-0.99542236,-0.062561035,0.59375,-0.03125,-0.359375
210,210,1727440157191,0.010986328,-0.99420166,-0.06500244,0.46875,0.203125,-0.25
211,211,1727440157231,0.013183594,-0.98272705,-0.06524658,0.3125,0.078125,-0.28125
212,212,1727440157271,0.014404297,-0.99420166,-0.07208252,0.421875,0.09375,-0.171875
213,213,1727440157311,0.016845703,-0.98931885,-0.06719971,0.3125,0.015625,-0.28125
214,214,1727440157351,0.0234375,-0.98687744,-0.06817627,0.078125,0.15625,-0.234375
215,215,1727440157391,0.011474609,-0.98565674,-0.062561035,0.15625,0.09375,-0.21875
216,216,1727440157431,0.020751953,-0.99346924,-0.073791504,0.703125,0.078125,-0.171875
217,217,1727440157471,0.018798828,-0.9871216,-0.065979004,0.1875,0.0625,-0.234375
218,218,1727440157511,0.016601562,-0.9898071,-0.07183838,0.46875,0.3125,-0.125
219,219,1727440157551,0.012939453,-0.9956665,-0.06768799,0.53125,0.265625,-0.328125
220,220,1727440157591,0.015625,-0.9849243,-0.066223145,0.515625,0.109375,-0.25
221,221,1727440157631,0.013671875,-0.98028564,-0.07598877,0.421875,0.15625,-0.109375
222,222,1727440157671,0.017089844,-0.9866333,-0.06768799,0.203125,0.234375,-0.15625
223,223,1727440157711,0.016357422,-1.0003052,-0.07501221,0.3125,0.015625,-0.296875
224,224,1727440157751,0.019042969,-0.98516846,-0.066711426,0.359375,0.015625,-0.21875
225,225,1727440157791,0.016845703,-0.99176025,-0.074523926,0.375,0.3125,-0.15625
226,226,1727440157831,0.020019531,-0.9866333,-0.074523926,-0.109375,0.234375,-0.421875
227,227,1727440157871,0.013183594,-0.97979736,-0.05645752,1.0625,0.171875,-0.015625
228,228,1727440157911,0.018798828,-0.9924927,-0.08062744,-0.03125,0.234375,-0.265625
229,229,1727440157951,0.010253906,-0.98565674,-0.074035645,0.109375,0.90625,-0.25
230,230,1727440157991,0.021484375,-0.98809814,-0.06964111,0.078125,0.375,-0.59375
231,231,1727440158031,0.0068359375,-0.98931885,-0.06964111,-0.15625,0.359375,-0.328125
232,232,1727440158071,0.016845703,-0.9795532,-0.06817627,0.015625,0.265625,-0.25
233,233,1727440158111,0.022949219,-0.9883423,-0.07110596,0.171875,0.109375,-0.171875
234,234,1727440158151,0.016113281,-0.98809814,-0.06573486,0.34375,0.34375,-0.140625
235,235,1727440158191,0.014404297,-0.9956665,-0.07208252,-0.1875,0.453125,-0.296875
236,236,1727440158231,0.008544922,-0.987854,-0.06964111,-0.078125,0.265625,-0.265625
237,237,1727440158271,0.0146484375,-0.9890747,-0.06378174,0.234375,0.015625,-0.296875
238,238,1727440158311,0.013916016,-0.98883057,-0.06549072,0.203125,-0.1875,-0.296875
239,239,1727440158351,0.01586914,-0.9898071,-0.06964111,0.015625,0.15625,-0.328125
240,240,1727440158391,0.0146484375,-0.9824829,-0.058898926,0.359375,0.296875,-0.25
241,241,1727440158431,0.014404297,-0.9890747,-0.07110596,0.234375,0.3125,-0.140625
242,242,1727440158471,0.01953125,-0.98883057,-0.06964111,0.1875,0.15625,-0.171875
243,243,1727440158511,0.01586914,-0.98760986,-0.066223145,0.296875,0.09375,-0.1875
244,244,1727440158551,0.014160156,-0.9834595,-0.06915283,0.375,-0.140625,-0.171875
245,245,1727440158591,0.017578125,-0.9939575,-0.0647583,0.34375,-0.28125,-0.265625
246,246,1727440158631,0.013427734,-0.986145,-0.06719971,0.265625,-0.1875,-0.15625
247,247,1727440158671,0.017578125,-0.9915161,-0.07550049,0.109375,-0.28125,-0.140625
248,248,1727440158711,0.010009766,-0.98687744,-0.06866455,0.734375,-0.171875,-0.078125
249,249,1727440158751,0.017333984,-0.98565674,-0.08062744,-0.265625,-0.5,-0.265625
250,250,1727440158791,0.009277344,-0.98809814,-0.07476807,-0.296875,0.078125,-0.21875
251,251,1727440158831,0.01953125,-0.99713135,-0.06378174,-0.78125,0.125,-0.640625
252,252,1727440158871,0.015380859,-0.989563,-0.066223145,-0.546875,0.71875,-0.1875
253,253,1727440158911,0.0034179688,-0.99053955,-0.062561035,-0.65625,0.453125,-0.28125
254,254,1727440158951,0.015136719,-0.9873657,-0.06060791,-0.671875,0.65625,-0.265625
255,255,1727440158991,0.01586914,-0.987854,-0.054016113,-0.25,0.9375,-0.25
256,256,1727440159031,0.012207031,-0.989563,-0.06402588,-0.6875,0.71875,-0.28125
257,257,1727440159071,0.0073242188,-0.989563,-0.06085205,-0.734375,0.359375,-0.296875
258,258,1727440159111,0.015625,-0.9949341,-0.058166504,-0.109375,0.578125,-0.125
259,259,1727440159151,0.011962891,-0.99176025,-0.06011963,-0.078125,0.1875,-0.140625
260,260,1727440159191,0.011962891,-0.9883423,-0.06402588,0.015625,0.421875,-0.078125
261,261,1727440159231,0.011230469,-0.99298096,-0.058166504,-0.015625,0.28125,-0.15625
262,262,1727440159271,0.013916016,-0.98883057,-0.062316895,-0.015625,0.4375,-0.078125
263,263,1727440159311,0.009521484,-0.99713135,-0.062316895,-0.09375,0.265625,-0.25
264,264,1727440159351,0.011474609,-0.9915161,-0.0569458,-0.03125,0.265625,-0.0625
265,265,1727440159391,0.011230469,-0.9883423,-0.057922363,-0.03125,-0.0625,-0.1875
266,266,1727440159431,0.0034179688,-0.9902954,-0.051574707,-0.21875,0.375,-0.234375
267,267,1727440159471,0.011474609,-0.9915161,-0.051818848,0.3125,0.34375,-0.046875
268,268,1727440159511,0.011474609,-0.9849243,-0.055725098,0.8125,0.671875,-0.15625
269,269,1727440159551,0.005126953,-0.99591064,-0.050354004,0.03125,-0.34375,-0.171875
270,270,1727440159591,0.015380859,-0.98321533,-0.06744385,0.15625,1.375,-0.171875
271,271,1727440159631,0.0034179688,-0.9937134,-0.046203613,-0.671875,0.546875,-0.328125
272,272,1727440159671,0.010009766,-0.98638916,-0.061828613,-0.390625,0.34375,-0.25
273,273,1727440159711,0.01171875,-0.99102783,-0.059631348,-0.046875,0.671875,-0.15625
274,274,1727440159751,0.011230469,-0.9898071,-0.05328369,0.171875,0.1875,-0.109375
275,275,1727440159791,0.014892578,-0.9902954,-0.0569458,0.046875,0.59375,-0.375
276,276,1727440159831,0.015136719,-0.99005127,-0.05230713,-0.46875,0.265625,-0.078125
277,277,1727440159871,0.008300781,-0.9939575,-0.05303955,-0.609375,-0.15625,-0.109375
278,278,1727440159911,0.010253906,-0.9885864,-0.054016113,0.125,-0.328125,-0.234375
279,279,1727440159951,0.013916016,-0.9890747,-0.051330566,0.765625,-0.140625,-0.09375
280,280,1727440159991,0.01171875,-0.9885864,-0.054016113,0.734375,0.03125,-0.140625
281,281,1727440160031,0.01171875,-0.9920044,-0.053527832,0.921875,-0.234375,-0.265625
282,282,1727440160071,0.010009766,-0.9907837,-0.054260254,0.875,-0.03125,-0.203125
283,283,1727440160111,0.009765625,-0.98760986,-0.057922363,0.5625,-0.203125,-0.1875
284,284,1727440160151,0.0146484375,-0.98809814,-0.054992676,0.734375,-0.171875,-0.125
285,285,1727440160191,0.0078125,-0.9927368,-0.058410645,0.640625,-0.25,0.171875
286,286,1727440160231,0.013427734,-0.9885864,-0.062316895,0.296875,0.125,-0.0625
287,287,1727440160271,0.015625,-0.9883423,-0.05718994,0.515625,-0.375,-0.1875
288,288,1727440160311,0.012451172,-0.98443604,-0.05645752,1.59375,-0.125,-0.28125
289,289,1727440160351,0.010986328,-0.9956665,-0.051330566,0.53125,-0.984375,-0.234375
290,290,1727440160391,0.017333984,-0.9829712,-0.06915283,0.703125,0.5,-0.15625
291,291,1727440160431,0.013916016,-0.98809814,-0.054992676,0.265625,-0.15625,-0.3125
292,292,1727440160471,0.01953125,-0.9824829,-0.06890869,0.640625,-0.34375,-0.171875
293,293,1727440160511,0.015136719,-0.98760986,-0.06964111,0.34375,-0.4375,-0.3125
294,294,1727440160551,0.013427734,-0.98223877,-0.066711426,0.71875,-0.765625,-0.171875
295,295,1727440160591,0.01586914,-0.98809814,-0.061584473,0.78125,-0.53125,-0.265625
296,296,1727440160631,0.016113281,-0.99542236,-0.0647583,0.140625,-0.5,-0.34375
297,297,1727440160671,0.010986328,-0.991272,-0.057434082,-0.296875,-0.0625,-0.375
298,298,1727440160711,0.013916016,-0.9871216,-0.062072754,0.453125,-0.390625,-0.25
299,299,1727440160751,0.013671875,-0.99102783,-0.06378174,0.765625,-0.25,-0.0625
300,300,1727440160791,0.017822266,-0.9951782,-0.062561035,0.609375,-0.015625,-0.21875
301,301,1727440160831,0.018798828,-0.9902954,-0.06500244,0.8125,0.03125,-0.171875
302,302,1727440160871,0.011962891,-0.99176025,-0.06719971,0.6875,0.171875,-0.234375
303,303,1727440160911,0.020019531,-0.9920044,-0.0635376,0.4375,0.0,-0.265625
304,304,1727440160951,0.020751953,-0.98443604,-0.061584473,0.515625,0.078125,-0.078125
305,305,1727440160991,0.015136719,-0.9871216,-0.070617676,0.640625,-0.359375,-0.28125
306,306,1727440161031,0.013916016,-0.9951782,-0.06329346,0.359375,0.0625,-0.140625
307,307,1727440161071,0.016113281,-0.99176025,-0.066711426,0.328125,-0.125,-0.375
308,308,1727440161111,0.020263672,-0.9885864,-0.07110596,0.859375,0.359375,-0.28125
309,309,1727440161151,0.017822266,-0.9920044,-0.062805176,0.515625,-0.453125,-0.203125
310,310,1727440161191,0.014892578,-0.98028564,-0.074523926,0.484375,0.8125,-0.21875
311,311,1727440161231,0.015625,-0.9920044,-0.062805176,0.09375,0.359375,-0.515625
312,312,1727440161271,0.015136719,-0.98516846,-0.06939697,0.25,0.234375,-0.40625
313,313,1727440161311,0.0043945312,-0.9866333,-0.06890869,-0.203125,0.28125,-0.125
314,314,1727440161351,0.018310547,-0.987854,-0.065979004,0.234375,0.1875,0.125
315,315,1727440161391,0.014404297,-0.9873657,-0.0647583,0.359375,0.1875,-0.015625
316,316,1727440161431,0.021972656,-0.99542236,-0.07281494,-0.359375,0.40625,-0.140625
317,317,1727440161471,0.009033203,-0.9859009,-0.066223145,-0.140625,0.796875,0.0625
318,318,1727440161511,0.017089844,-0.9956665,-0.06549072,0.34375,0.28125,-0.140625
319,319,1727440161551,0.016113281,-0.99053955,-0.06866455,0.375,0.15625,-0.125
320,320,1727440161591,0.010009766,-0.98394775,-0.07183838,0.09375,0.34375,-0.03125
321,321,1727440161631,0.020507812,-0.989563,-0.06573486,0.375,0.25,-0.125
322,322,1727440161671,0.014160156,-0.9939575,-0.06817627,0.25,0.265625,-0.1875
323,323,1727440161711,0.012451172,-0.9927368,-0.07232666,0.171875,0.203125,-0.125
324,324,1727440161751,0.014404297,-0.99224854,-0.06427002,0.21875,0.234375,-0.234375
325,325,1727440161791,0.0146484375,-0.98760986,-0.06793213,0.203125,-0.0625,-0.234375
326,326,1727440161831,0.016845703,-0.9873657,-0.065979004,0.109375,0.28125,-0.171875
327,327,1727440161871,0.015380859,-0.99468994,-0.06329346,0.3125,-0.046875,-0.078125
328,328,1727440161911,0.013427734,-0.9885864,-0.074035645,0.78125,0.09375,-0.171875
329,329,1727440161951,0.012207031,-0.9898071,-0.06109619,0.328125,-1.40625,-0.109375
330,330,1727440161991,0.020507812,-0.989563,-0.0791626,-0.15625,0.03125,-0.375
331,331,1727440162031,0.01586914,-0.99468994,-0.05328369,-0.546875,-0.609375,-0.359375
332,332,1727440162071,0.007080078,-0.9898071,-0.07183838,-0.15625,-0.09375,-0.234375
333,333,1727440162111,0.010253906,-0.986145,-0.06744385,-0.375,0.625,0.0
334,334,1727440162151,0.012939453,-0.9944458,-0.06768799,-0.578125,0.609375,0.015625
335,335,1727440162191,0.020263672,-0.99005127,-0.066467285,-0.28125,0.78125,-0.296875
336,336,1727440162231,0.01928711,-0.9907837,-0.06304932,-0.859375,0.40625,-0.21875
337,337,1727440162271,0.013183594,-0.9871216,-0.05670166,-0.65625,0.953125,-0.140625
338,338,1727440162311,0.016357422,-0.9915161,-0.05987549,-0.234375,0.8125,-0.28125
339,339,1727440162351,0.018798828,-0.9932251,-0.06817627,-0.140625,0.59375,-0.265625
340,340,1727440162391,0.013427734,-0.9915161,-0.058654785,-0.3125,0.78125,-0.109375
341,341,1727440162431,0.011474609,-0.99053955,-0.058410645,0.109375,0.921875,0.015625
342,342,1727440162471,0.0078125,-0.9915161,-0.065979004,-0.140625,0.859375,-0.265625
343,343,1727440162511,0.015380859,-0.99298096,-0.06011963,-0.03125,0.484375,-0.203125
344,344,1727440162551,0.018554688,-0.99053955,-0.057922363,-0.1875,0.703125,0.03125
345,345,1727440162591,0.013183594,-0.9873657,-0.058654785,-0.125,0.375,-0.25
346,346,1727440162631,0.016113281,-0.9949341,-0.05987549,-0.234375,0.546875,-0.171875
347,347,1727440162671,0.009765625,-0.9890747,-0.055480957,0.109375,0.578125,-0.15625
348,348,1727440162711,0.01586914,-0.9812622,-0.06378174,0.765625,0.96875,-0.3125
349,349,1727440162751,0.0075683594,-0.9873657,-0.043029785,0.0625,-0.171875,-0.140625
350,350,1727440162791,0.02319336,-0.9783325,-0.0725708,-0.390625,1.40625,-0.4375
351,351,1727440162831,0.007080078,-0.99468994,-0.04522705,-0.78125,0.9375,-0.234375
352,352,1727440162871,0.014892578,-0.98760986,-0.054504395,-0.53125,1.0625,-0.375
353,353,1727440162911,0.0053710938,-0.98321533,-0.06036377,-0.421875,0.859375,-0.4375
354,354,1727440162951,0.01586914,-0.9907837,-0.05255127,-0.0625,0.265625,-0.140625
355,355,1727440162991,0.016845703,-0.98883057,-0.05255127,-0.203125,0.421875,-0.3125
356,356,1727440163031,0.016113281,-0.9981079,-0.049621582,-0.375,-0.125,-0.046875
357,357,1727440163071,0.01977539,-0.99298096,-0.047180176,-0.390625,0.015625,0.015625
358,358,1727440163111,0.01586914,-0.9890747,-0.055480957,-0.3125,-0.453125,-0.21875
359,359,1727440163151,0.021728516,-0.99005127,-0.054748535,0.40625,-0.34375,-0.125
360,360,1727440163191,0.013427734,-0.991272,-0.051574707,0.21875,-0.234375,-0.109375
361,361,1727440163231,0.01171875,-0.989563,-0.051818848,0.453125,-0.25,-0.125
362,362,1727440163271,0.009521484,-0.9924927,-0.050598145,0.609375,0.0,-0.296875
363,363,1727440163311,0.017822266,-0.9834595,-0.05255127,0.484375,-0.078125,-0.1875
364,364,1727440163351,0.018798828,-0.991272,-0.05328369,0.78125,-0.375,-0.015625
365,365,1727440163391,0.013671875,-0.99468994,-0.05596924,0.640625,-0.3125,-0.203125
366,366,1727440163431,0.018798828,-0.99176025,-0.05621338,0.40625,-0.046875,-0.140625
367,367,1727440163471,0.0107421875,-0.9920044,-0.06085205,0.015625,-0.40625,-0.265625
368,368,1727440163511,0.015380859,-0.9920044,-0.045715332,1.359375,0.140625,-0.203125
369,369,1727440163551,0.01953125,-0.99713135,-0.062316895,0.703125,-0.375,-0.296875
370,370,1727440163591,0.013427734,-0.99224854,-0.051574707,0.71875,0.796875,-0.171875
371,371,1727440163631,0.011230469,-0.9915161,-0.055725098,-0.015625,0.28125,-0.640625
372,372,1727440163671,0.014160156,-0.9837036,-0.05621338,0.28125,0.03125,-0.28125
373,373,1727440163711,0.0107421875,-0.9846802,-0.05596924,0.46875,0.125,0.03125
374,374,1727440163751,0.016601562,-1.0012817,-0.057434082,0.5,0.125,-0.0625
375,375,1727440163791,0.019042969,-0.9951782,-0.05328369,0.71875,0.203125,-0.09375
376,376,1727440163831,0.017578125,-0.991272,-0.059387207,0.0625,0.296875,-0.046875
377,377,1727440163871,0.008300781,-0.9885864,-0.057678223,-0.328125,0.34375,-0.03125
378,378,1727440163911,0.01977539,-0.99005127,-0.059387207,0.28125,-0.3125,-0.0625
379,379,1727440163951,0.013916016,-0.98687744,-0.059631348,0.578125,-1.03125,-0.21875
380,380,1727440163991,0.010498047,-0.97979736,-0.062072754,0.71875,-1.015625,-0.1875
381,381,1727440164031,0.01586914,-0.98760986,-0.058898926,0.828125,-0.96875,-0.234375
382,382,1727440164071,0.013427734,-0.9915161,-0.059143066,1.015625,-1.03125,-0.40625
383,383,1727440164111,0.011962891,-0.9924927,-0.06011963,0.71875,-0.796875,-0.375
384,384,1727440164151,0.008300781,-0.98809814,-0.061340332,0.984375,-0.578125,-0.1875
385,385,1727440164191,0.016845703,-0.98809814,-0.062072754,0.765625,-0.40625,-0.28125
386,386,1727440164231,0.011962891,-0.98272705,-0.062805176,0.671875,0.015625,-0.3125
387,387,1727440164271,0.012939453,-0.98931885,-0.06719971,0.4375,-0.015625,-0.21875
388,388,1727440164311,0.017822266,-0.98150635,-0.057678223,1.890625,-0.34375,-0.0625
389,389,1727440164351,0.01953125,-0.9915161,-0.07476807,0.203125,-0.109375,-0.171875
390,390,1727440164391,0.009277344,-0.9883423,-0.06744385,0.296875,0.640625,-0.140625
391,391,1727440164431,0.023925781,-0.98223877,-0.058898926,0.484375,0.375,-0.34375
392,392,1727440164471,0.01953125,-0.98394775,-0.070129395,0.0,0.71875,-0.15625
393,393,1727440164511,0.0107421875,-0.98272705,-0.06524658,0.03125,0.34375,0.078125
394,394,1727440164551,0.013916016,-0.9871216,-0.06768799,0.0,0.09375,-0.078125
395,395,1727440164591,0.017333984,-0.9849243,-0.0569458,0.453125,0.046875,-0.078125
396,396,1727440164631,0.020996094,-0.98272705,-0.06500244,-0.15625,0.53125,-0.25
397,397,1727440164671,0.014404297,-0.9783325,-0.066223145,0.078125,0.1875,-0.171875
398,398,1727440164711,0.015136719,-0.9885864,-0.06890869,0.46875,0.09375,-0.0625
399,399,1727440164751,0.012451172,-0.99102783,-0.0647583,0.21875,0.1875,-0.171875
400,400,1727440164791,0.017578125,-0.98223877,-0.06793213,0.109375,0.703125,-0.171875
401,401,1727440164831,0.018066406,-0.9854126,-0.06402588,0.078125,0.53125,-0.328125
402,402,1727440164871,0.016113281,-0.9866333,-0.06524658,0.203125,0.1875,-0.203125
403,403,1727440164911,0.017089844,-0.99176025,-0.06378174,0.078125,-0.046875,-0.265625
404,404,1727440164951,0.022216797,-0.99005127,-0.06402588,0.328125,-0.109375,-0.1875
405,405,1727440164991,0.0061035156,-0.9944458,-0.066711426,0.359375,0.09375,-0.234375
406,406,1727440165031,0.014892578,-0.99005127,-0.06719971,0.234375,0.4375,-0.21875
407,407,1727440165071,0.017578125,-0.98883057,-0.07208252,0.1875,-0.1875,-0.28125
408,408,1727440165111,0.015136719,-0.9817505,-0.069885254,0.671875,0.40625,-0.109375
409,409,1727440165151,0.025146484,-0.9837036,-0.061828613,0.265625,-0.25,-0.1875
410,410,1727440165191,0.016845703,-0.9817505,-0.07086182,0.40625,0.796875,-0.265625
411,411,1727440165231,0.021972656,-0.99224854,-0.062316895,0.109375,0.15625,-0.4375
412,412,1727440165271,0.014404297,-0.99224854,-0.06744385,0.265625,0.421875,-0.296875
413,413,1727440165311,0.0146484375,-0.99005127,-0.06329346,-0.078125,0.171875,-0.109375
414,414,1727440165351,0.01171875,-0.99298096,-0.06036377,-0.28125,0.625,0.078125
415,415,1727440165391,0.018554688,-0.9871216,-0.07110596,-0.078125,0.4375,-0.1875
416,416,1727440165431,0.018798828,-0.99053955,-0.0635376,-0.5,0.4375,0.046875
417,417,1727440165471,0.01171875,-0.9937134,-0.06451416,-0.140625,0.46875,-0.015625
418,418,1727440165511,0.022216797,-0.9849243,-0.06573486,0.0,0.046875,-0.015625
419,419,1727440165551,0.016601562,-0.99053955,-0.062561035,0.234375,-0.078125,-0.109375
420,420,1727440165591,0.022216797,-0.9898071,-0.06817627,0.125,-0.375,-0.171875
421,421,1727440165631,0.019042969,-0.9937134,-0.062316895,0.234375,-0.421875,-0.109375
422,422,1727440165671,0.015625,-0.9956665,-0.070129395,0.03125,-0.515625,-0.203125
423,423,1727440165711,0.020751953,-0.9849243,-0.07110596,-0.328125,-0.15625,-0.125
424,424,1727440165751,0.018798828,-0.98883057,-0.06427002,-0.3125,0.046875,-0.296875
425,425,1727440165791,0.018310547,-0.9902954,-0.06500244,-0.171875,-0.21875,-0.28125
426,426,1727440165831,0.021728516,-0.9949341,-0.05987549,-0.390625,0.09375,-0.34375
427,427,1727440165871,0.013671875,-0.9883423,-0.065979004,-0.484375,0.515625,-0.375
428,428,1727440165911,0.02319336,-0.98809814,-0.06719971,-0.40625,0.875,-0.3125
429,429,1727440165951,0.014160156,-0.9849243,-0.047912598,0.859375,0.625,-0.03125
430,430,1727440165991,0.024169922,-0.9898071,-0.0713501,-0.390625,0.140625,-0.375
431,431,1727440166031,0.008300781,-0.9859009,-0.058654785,-0.5,0.9375,-0.203125
432,432,1727440166071,0.017578125,-0.99176025,-0.062561035,-0.875,0.515625,-0.609375
433,433,1727440166111,0.0146484375,-0.9890747,-0.06915283,-0.609375,0.484375,-0.390625
434,434,1727440166151,0.019042969,-0.9849243,-0.05303955,-0.328125,0.3125,-0.109375
435,435,1727440166191,0.017333984,-0.9973755,-0.062805176,-0.34375,0.34375,-0.3125
436,436,1727440166231,0.011962891,-0.98760986,-0.047912598,-0.25,0.4375,-0.25
437,437,1727440166271,0.018798828,-0.9846802,-0.04815674,-0.4375,0.0625,-0.140625
438,438,1727440166311,0.012451172,-0.98565674,-0.04864502,-0.59375,0.296875,-0.140625
439,439,1727440166351,0.015136719,-0.9951782,-0.050109863,0.171875,0.171875,0.015625
440,440,1727440166391,0.015380859,-0.99176025,-0.051330566,-0.046875,0.125,-0.078125
441,441,1727440166431,0.01928711,-0.9807739,-0.053527832,-0.140625,0.140625,-0.046875
442,442,1727440166471,0.009277344,-0.9854126,-0.054992676,0.140625,0.15625,-0.15625
443,443,1727440166511,0.016113281,-0.9883423,-0.051086426,0.140625,0.078125,-0.203125
444,444,1727440166551,0.01586914,-0.9824829,-0.055236816,0.078125,0.09375,-0.140625
445,445,1727440166591,0.019042969,-0.98760986,-0.05328369,0.4375,0.0,-0.015625
446,446,1727440166631,0.01928711,-0.9890747,-0.050842285,0.484375,0.015625,-0.171875
447,447,1727440166671,0.012451172,-0.991272,-0.047180176,0.171875,0.1875,-0.234375
448,448,1727440166711,0.016113281,-0.9951782,-0.047180176,0.09375,-0.390625,-0.1875
449,449,1727440166751,0.013183594,-0.98687744,-0.058166504,0.59375,0.453125,-0.15625
450,450,1727440166791,0.01928711,-0.9907837,-0.050842285,0.0,-0.640625,-0.203125
451,451,1727440166831,0.013916016,-0.98150635,-0.05645752,0.421875,1.15625,-0.078125
452,452,1727440166871,0.016845703,-0.9968872,-0.04449463,-0.609375,0.453125,-0.546875
453,453,1727440166911,0.016601562,-0.9824829,-0.05718994,-0.21875,0.40625,-0.28125
454,454,1727440166951,0.017578125,-0.9859009,-0.0569458,0.03125,0.4375,-0.09375
455,455,1727440166991,0.017578125,-0.9937134,-0.051330566,0.25,0.109375,-0.09375
456,456,1727440167031,0.01586914,-0.98638916,-0.05303955,0.296875,0.25,-0.328125
457,457,1727440167071,0.014160156,-0.9915161,-0.051574707,0.34375,-0.203125,-0.203125
458,458,1727440167111,0.016845703,-0.99420166,-0.05303955,-0.15625,-0.9375,-0.359375
459,459,1727440167151,0.02368164,-0.9944458,-0.045715332,0.71875,-0.53125,-0.265625
460,460,1727440167191,0.014404297,-0.9949341,-0.061584473,0.609375,0.203125,-0.15625
461,461,1727440167231,0.014892578,-0.98809814,-0.051086426,0.515625,0.453125,-0.09375
462,462,1727440167271,0.010009766,-0.9937134,-0.046447754,0.65625,0.09375,-0.21875
463,463,1727440167311,0.017578125,-0.9920044,-0.050598145,0.609375,0.0,-0.1875
464,464,1727440167351,0.016357422,-0.98638916,-0.055725098,0.609375,-0.28125,-0.25
465,465,1727440167391,0.01586914,-0.991272,-0.05596924,0.96875,-0.46875,-0.171875
466,466,1727440167431,0.018310547,-0.9937134,-0.055236816,0.90625,-0.75,-0.203125
467,467,1727440167471,0.014160156,-0.98809814,-0.058410645,0.578125,-0.625,-0.1875
468,468,1727440167511,0.016113281,-0.9907837,-0.0569458,1.0625,-0.796875,-0.25
469,469,1727440167551,0.022949219,-0.98223877,-0.06573486,1.578125,-0.046875,-0.28125
470,470,1727440167591,0.017333984,-0.9907837,-0.050842285,1.03125,-1.328125,-0.375
471,471,1727440167631,0.017822266,-0.9937134,-0.07086182,0.65625,0.578125,-0.3125
472,472,1727440167671,0.013427734,-0.9873657,-0.05230713,0.46875,0.0625,-0.625
473,473,1727440167711,0.013427734,-0.99005127,-0.06524658,0.671875,0.0625,-0.390625
474,474,1727440167751,0.016113281,-0.9924927,-0.062561035,0.46875,0.296875,-0.1875
475,475,1727440167791,0.016357422,-0.9859009,-0.06402588,0.359375,0.265625,-0.140625
476,476,1727440167831,0.017333984,-0.98321533,-0.062561035,0.484375,0.5625,-0.375
477,477,1727440167871,0.011962891,-0.99786377,-0.05670166,0.09375,0.0,-0.171875
478,478,1727440167911,0.015625,-0.98565674,-0.06427002,-0.140625,0.4375,-0.109375
479,479,1727440167951,0.01171875,-0.9890747,-0.06060791,0.4375,0.28125,-0.265625
480,480,1727440167991,0.015625,-0.9907837,-0.066223145,0.421875,0.15625,-0.0625
481,481,1727440168031,0.017089844,-0.9800415,-0.06964111,0.15625,0.1875,-0.171875
482,482,1727440168071,0.013671875,-0.9841919,-0.062316895,0.59375,0.296875,-0.015625
483,483,1727440168111,0.0146484375,-0.98931885,-0.061340332,0.4375,0.15625,-0.328125
484,484,1727440168151,0.017089844,-0.9883423,-0.066711426,0.53125,0.09375,-0.4375
485,485,1727440168191,0.014892578,-0.99053955,-0.062316895,0.40625,0.28125,-0.203125
486,486,1727440168231,0.011962891,-0.9859009,-0.06085205,0.5625,-0.21875,-0.25
487,487,1727440168271,0.018554688,-0.9932251,-0.059143066,0.359375,-0.078125,-0.28125
488,488,1727440168311,0.01928711,-0.987854,-0.065979004,0.28125,0.109375,-0.078125
489,489,1727440168351,0.016845703,-0.9817505,-0.07501221,0.25,0.375,-0.34375
490,490,1727440168391,0.0087890625,-0.9849243,-0.057434082,1.125,0.0625,0.0
491,491,1727440168431,0.01586914,-0.987854,-0.07501221,-0.125,0.078125,-0.21875
492,492,1727440168471,0.020019531,-0.98760986,-0.066223145,0.09375,0.40625,-0.140625
493,493,1727440168511,0.01928711,-0.98883057,-0.062316895,0.15625,0.40625,-0.234375
494,494,1727440168551,0.009033203,-0.99224854,-0.062561035,-0.25,0.40625,-0.25
495,495,1727440168591,0.012451172,-0.9846802,-0.06793213,-0.234375,0.359375,-0.078125
496,496,1727440168631,0.016113281,-0.99005127,-0.06329346,0.0625,0.265625,-0.15625
497,497,1727440168671,0.012939453,-0.98883057,-0.06378174,0.078125,0.3125,-0.1875
498,498,1727440168711,0.017822266,-0.98394775,-0.06451416,-0.4375,0.75,-0.234375
499,499,1727440168751,0.006591797,-0.9834595,-0.057922363,-0.015625,0.453125,-0.140625
500,500,1727440168791,0.021972656,-0.9873657,-0.062805176,0.21875,0.375,-0.125
501,501,1727440168831,0.018798828,-0.9951782,-0.066223145,0.359375,0.1875,-0.25
502,502,1727440168871,0.022949219,-0.9885864,-0.06451416,0.25,0.015625,-0.0625
503,503,1727440168911,0.0146484375,-0.99298096,-0.066467285,0.46875,0.109375,-0.15625
504,504,1727440168951,0.021484375,-0.9846802,-0.070373535,0.40625,0.09375,-0.3125
505,505,1727440168991,0.011230469,-0.99176025,-0.062072754,0.265625,-0.1875,-0.15625
506,506,1727440169031,0.013916016,-0.99468994,-0.06573486,0.375,-0.4375,-0.140625
507,507,1727440169071,0.014892578,-0.9849243,-0.062316895,0.296875,-0.546875,-0.1875
508,508,1727440169111,0.010498047,-0.9890747,-0.07305908,-0.140625,-0.234375,-0.390625
509,509,1727440169151,0.0146484375,-0.99298096,-0.07598877,-0.359375,-0.40625,-0.359375
510,510,1727440169191,0.014404297,-0.9944458,-0.06719971,0.140625,0.46875,-0.484375
511,511,1727440169231,0.015136719,-0.987854,-0.06500244,-0.28125,-0.125,-0.5
512,512,1727440169271,0.010009766,-0.98565674,-0.06793213,-0.515625,1.265625,-0.09375
513,513,1727440169311,0.018066406,-0.9907837,-0.061828613,-0.75,0.78125,-0.421875
514,514,1727440169351,0.010009766,-0.99224854,-0.062072754,-0.609375,0.765625,-0.359375
515,515,1727440169391,0.012207031,-0.98687744,-0.06402588,-0.578125,0.921875,-0.3125
516,516,1727440169431,0.009521484,-0.98931885,-0.059143066,-0.40625,0.6875,-0.25
517,517,1727440169471,0.013183594,-0.989563,-0.062072754,-0.375,0.5625,-0.3125
518,518,1727440169511,0.021972656,-0.99224854,-0.05621338,-0.796875,0.8125,-0.390625
519,519,1727440169551,0.0075683594,-0.9854126,-0.053771973,-0.71875,0.75,-0.1875
520,520,1727440169591,0.015380859,-0.98809814,-0.054992676,-0.03125,0.359375,-0.375
521,521,1727440169631,0.0126953125,-0.98883057,-0.05645752,0.0625,0.1875,-0.1875
522,522,1727440169671,0.01171875,-0.9819946,-0.05987549,-0.109375,0.40625,-0.21875
523,523,1727440169711,0.010253906,-0.99005127,-0.055480957,0.25,0.6875,-0.328125
524,524,1727440169751,0.0087890625,-0.98809814,-0.05255127,0.15625,0.34375,-0.265625
525,525,1727440169791,0.0075683594,-0.98883057,-0.05645752,0.25,0.203125,-0.234375
526,526,1727440169831,0.01586914,-0.98565674,-0.05303955,0.34375,-0.0625,-0.125
527,527,1727440169871,0.015136719,-0.9963989,-0.05206299,0.125,-0.078125,-0.171875
528,528,1727440169911,0.0146484375,-0.989563,-0.054260254,0.03125,0.296875,-0.046875
529,529,1727440169951,0.012939453,-0.9951782,-0.069885254,-0.34375,-0.203125,-0.3125
530,530,1727440169991,0.012451172,-0.9924927,-0.053771973,0.671875,0.5625,-0.15625
531,531,1727440170031,0.020751953,-0.9937134,-0.061340332,0.125,-0.21875,-0.21875
532,532,1727440170071,0.018066406,-0.9849243,-0.05206299,0.265625,1.09375,-0.125
533,533,1727440170111,0.022460938,-0.99346924,-0.051818848,-0.328125,0.28125,-0.5
534,534,1727440170151,0.020507812,-0.99298096,-0.06011963,0.015625,0.46875,-0.203125
535,535,1727440170191,0.011962891,-0.9866333,-0.05230713,0.0,0.3125,-0.15625
536,536,1727440170231,0.015625,-0.98760986,-0.055725098,0.078125,0.28125,-0.1875
537,537,1727440170271,0.011962891,-0.98931885,-0.043029785,0.265625,0.53125,-0.234375
538,538,1727440170311,0.01977539,-0.98443604,-0.054016113,0.0,0.40625,-0.265625
539,539,1727440170351,0.012939453,-0.98809814,-0.04888916,-0.640625,0.1875,-0.15625
540,540,1727440170391,0.017089844,-0.98687744,-0.0569458,0.25,-0.25,-0.28125
541,541,1727440170431,0.014404297,-0.9985962,-0.050109863,0.4375,-0.28125,-0.109375
542,542,1727440170471,0.017822266,-0.98516846,-0.05303955,0.53125,-0.171875,-0.09375
543,543,1727440170511,0.013183594,-0.989563,-0.049865723,0.65625,-0.03125,-0.28125
544,544,1727440170551,0.010253906,-0.9871216,-0.057434082,0.71875,0.09375,-0.125
545,545,1727440170591,0.013183594,-0.9829712,-0.051086426,0.828125,0.015625,-0.015625
546,546,1727440170631,0.012207031,-0.99591064,-0.054016113,0.609375,-0.078125,-0.171875
547,547,1727440170671,0.011230469,-0.9898071,-0.055236816,0.359375,0.28125,-0.1875
548,548,1727440170711,0.009277344,-0.99468994,-0.047668457,0.671875,-0.265625,-0.1875
549,549,1727440170751,0.013671875,-0.9873657,-0.061584473,1.515625,0.34375,-0.078125
550,550,1727440170791,0.010253906,-0.99224854,-0.046936035,0.578125,-1.140625,-0.125
551,551,1727440170831,0.021972656,-0.98638916,-0.07208252,0.515625,0.6875,-0.125
552,552,1727440170871,0.010498047,-0.9915161,-0.046691895,0.25,-0.046875,-0.328125
553,553,1727440170911,0.016113281,-0.99420166,-0.06060791,0.296875,0.09375,-0.28125
554,554,1727440170951,0.010009766,-0.9937134,-0.062316895,0.25,0.46875,-0.15625
555,555,1727440170991,0.015380859,-0.99053955,-0.054504395,0.421875,-0.03125,0.0
556,556,1727440171031,0.019042969,-0.9849243,-0.059143066,0.421875,0.265625,-0.34375
557,557,1727440171071,0.014404297,-0.9902954,-0.0569458,-0.0625,-0.15625,-0.1875
558,558,1727440171111,0.0126953125,-0.9932251,-0.05596924,-0.140625,0.015625,-0.28125
559,559,1727440171151,0.01953125,-0.98760986,-0.054260254,0.28125,-0.046875,-0.40625
560,560,1727440171191,0.017578125,-0.98565674,-0.05670166,0.6875,-0.546875,-0.375
561,561,1727440171231,0.013916016,-0.98687744,-0.062805176,0.421875,-0.65625,-0.25
562,562,1727440171271,0.0146484375,-0.99298096,-0.059387207,0.71875,-0.625,-0.078125
563,563,1727440171311,0.009277344,-0.98687744,-0.06109619,0.546875,-0.453125,-0.390625
564,564,1727440171351,0.012451172,-0.9898071,-0.062072754,0.734375,-0.453125,-0.3125
565,565,1727440171391,0.009277344,-0.98883057,-0.06378174,0.796875,-0.59375,-0.09375
566,566,1727440171431,0.010009766,-0.9944458,-0.06036377,0.75,-0.359375,-0.03125
567,567,1727440171471,0.017578125,-0.9927368,-0.06524658,0.546875,-0.140625,-0.265625
568,568,1727440171511,0.020263672,-0.99542236,-0.062561035,0.265625,-0.46875,-0.375
569,569,1727440171551,0.012451172,-0.9915161,-0.06085205,1.015625,0.109375,-0.1875
570,570,1727440171591,0.017822266,-0.9866333,-0.06890869,0.484375,-0.296875,-0.1875
571,571,1727440171631,0.017822266,-0.9915161,-0.066467285,0.5625,0.703125,-0.21875
572,572,1727440171671,0.01953125,-0.986145,-0.06842041,0.421875,0.53125,-0.46875
573,573,1727440171711,0.012451172,-0.9944458,-0.06402588,0.109375,0.40625,-0.390625
574,574,1727440171751,0.014160156,-0.98638916,-0.069885254,0.234375,0.1875,-0.359375
575,575,1727440171791,0.013671875,-0.99005127,-0.065979004,0.171875,0.140625,-0.140625
576,576,1727440171831,0.016601562,-0.98638916,-0.06451416,0.453125,0.0625,-0.28125
577,577,1727440171871,0.011230469,-0.98883057,-0.06500244,-0.0625,0.203125,-0.34375
578,578,1727440171911,0.009521484,-0.9849243,-0.05987549,-0.078125,0.484375,-0.171875
579,579,1727440171951,0.01977539,-0.99713135,-0.06939697,0.5625,0.0,-0.140625
580,580,1727440171991,0.015625,-0.99005127,-0.06402588,0.4375,0.078125,-0.28125
581,581,1727440172031,0.021240234,-0.98565674,-0.07086182,0.4375,0.34375,-0.109375
582,582,1727440172071,0.016845703,-0.9866333,-0.070617676,0.515625,0.125,-0.34375
583,583,1727440172111,0.013671875,-0.98565674,-0.06549072,0.609375,0.15625,-0.390625
584,584,1727440172151,0.011962891,-0.99298096,-0.06695557,0.296875,-0.015625,-0.109375
585,585,1727440172191,0.0107421875,-0.987854,-0.06451416,0.46875,-0.109375,-0.171875
586,586,1727440172231,0.013427734,-0.98272705,-0.06768799,0.34375,-0.03125,-0.1875
587,587,1727440172271,0.0107421875,-0.9854126,-0.065979004,0.375,0.25,-0.296875
588,588,1727440172311,0.021240234,-0.98321533,-0.07598877,0.71875,0.625,-0.0625
589,589,1727440172351,0.006591797,-0.9898071,-0.066223145,1.046875,0.09375,-0.03125
590,590,1727440172391,0.013183594,-0.9873657,-0.08428955,-0.171875,-0.125,-0.171875
591,591,1727440172431,0.0056152344,-0.987854,-0.06890869,0.03125,0.40625,-0.171875
592,592,1727440172471,0.020263672,-0.99542236,-0.069885254,-0.015625,0.046875,-0.203125
593,593,1727440172511,0.010253906,-0.9837036,-0.07159424,-0.46875,0.171875,-0.046875
594,594,1727440172551,0.018554688,-0.98516846,-0.06793213,-0.21875,0.09375,-0.1875
595,595,1727440172591,0.014892578,-0.9920044,-0.06719971,0.046875,0.140625,-0.171875
596,596,1727440172631,0.012207031,-0.9890747,-0.058654785,0.0,-0.234375,-0.46875
597,597,1727440172671,0.021240234,-0.98443604,-0.065979004,-0.359375,0.140625,-0.28125
598,598,1727440172711,0.009521484,-0.9846802,-0.06011963,-0.375,0.140625,-0.359375
599,599,1727440172751,0.017333984,-0.9841919,-0.06109619,0.015625,-0.03125,-0.3125
600,600,1727440172791,0.015380859,-0.99005127,-0.06915283,-0.328125,0.171875,-0.203125
601,601,1727440172831,0.012451172,-0.9793091,-0.06939697,-0.03125,0.546875,-0.265625
602,602,1727440172871,0.0041503906,-0.9902954,-0.0647583,-0.1875,0.40625,0.0625
603,603,1727440172911,0.015625,-0.98931885,-0.06378174,-0.0625,0.1875,-0.078125
604,604,1727440172951,0.010253906,-0.9920044,-0.062072754,-0.0625,0.109375,-0.09375
605,605,1727440172991,0.0146484375,-0.98443604,-0.05670166,0.21875,-0.328125,-0.109375
606,606,1727440173031,0.013183594,-0.98150635,-0.06011963,-0.25,-0.0625,-0.21875
607,607,1727440173071,0.012939453,-0.98931885,-0.054504395,0.140625,-0.078125,-0.1875
608,608,1727440173111,0.021728516,-0.9800415,-0.062316895,0.75,0.828125,-0.1875
609,609,1727440173151,0.008300781,-0.9963989,-0.05987549,-0.015625,-0.6875,-0.171875
610,610,1727440173191,0.021484375,-0.98760986,-0.07501221,-0.046875,1.359375,0.03125
611,611,1727440173231,0.009765625,-0.99346924,-0.054504395,-0.734375,0.921875,-0.171875
612,612,1727440173271,0.012451172,-0.98321533,-0.061828613,-0.375,0.734375,-0.125
613,613,1727440173311,0.0107421875,-0.98516846,-0.066223145,-0.328125,0.96875,-0.125
614,614,1727440173351,0.009521484,-0.98687744,-0.05621338,-0.359375,0.78125,-0.09375
615,615,1727440173391,0.016601562,-0.9841919,-0.059143066,-0.265625,0.734375,-0.234375
616,616,1727440173431,0.016357422,-0.9920044,-0.057922363,-0.890625,0.21875,-0.21875
617,617,1727440173471,0.016601562,-0.987854,-0.053527832,-0.9375,0.375,-0.15625
618,618,1727440173511,0.01928711,-0.98931885,-0.055725098,-0.15625,0.125,-0.21875
619,619,1727440173551,0.012451172,-0.991272,-0.053771973,0.34375,0.171875,-0.125
620,620,1727440173591,0.0146484375,-0.989563,-0.05303955,0.046875,0.1875,-0.046875
621,621,1727440173631,0.015625,-0.9871216,-0.054504395,0.328125,0.234375,-0.234375
622,622,1727440173671,0.010253906,-0.9885864,-0.05670166,0.359375,0.0625,-0.203125
623,623,1727440173711,0.016113281,-0.9866333,-0.05670166,0.359375,0.03125,-0.265625
624,624,1727440173751,0.01586914,-0.9898071,-0.058654785,0.515625,-0.21875,-0.015625
625,625,1727440173791,0.020019531,-0.9915161,-0.055236816,0.3125,-0.21875,-0.171875
626,626,1727440173831,0.013183594,-0.98394775,-0.05718994,0.3125,0.296875,-0.0625
627,627,1727440173871,0.022216797,-0.99346924,-0.06817627,-0.21875,0.0625,-0.375
628,628,1727440173911,0.010253906,-0.9944458,-0.05279541,1.015625,0.375,0.09375
629,629,1727440173951,0.01977539,-0.9907837,-0.06744385,-0.078125,-0.21875,-0.140625
630,630,1727440173991,0.010498047,-0.9920044,-0.061340332,0.40625,1.109375,0.03125
631,631,1727440174031,0.015625,-0.98883057,-0.05279541,-0.5625,0.3125,-0.484375
632,632,1727440174071,0.015136719,-0.98516846,-0.06011963,0.0,0.59375,-0.34375
633,633,1727440174111,0.017089844,-0.98883057,-0.05230713,0.3125,0.21875,-0.21875
634,634,1727440174151,0.01928711,-0.99591064,-0.05303955,0.390625,0.140625,-0.171875
635,635,1727440174191,0.013183594,-0.98638916,-0.04498291,0.5625,0.15625,-0.234375
636,636,1727440174231,0.01953125,-0.991272,-0.058654785,0.3125,0.03125,-0.109375
637,637,1727440174271,0.013671875,-0.99298096,-0.051574707,-0.140625,0.203125,-0.265625
638,638,1727440174311,0.01977539,-0.99298096,-0.058410645,0.65625,-0.25,-0.109375
639,639,1727440174351,0.017578125,-0.9915161,-0.05596924,0.5625,-0.140625,-0.203125
640,640,1727440174391,0.015136719,-0.9898071,-0.059631348,0.6875,-0.1875,-0.109375
641,641,1727440174431,0.013183594,-0.9890747,-0.0569458,0.671875,-0.578125,-0.171875
642,642,1727440174471,0.017089844,-0.98272705,-0.062561035,0.78125,-0.546875,-0.234375
643,643,1727440174511,0.016845703,-0.98809814,-0.062805176,0.90625,-0.078125,-0.234375
644,644,1727440174551,0.020996094,-0.98883057,-0.058410645,0.828125,-0.515625,-0.25
645,645,1727440174591,0.019042969,-0.9812622,-0.06085205,0.53125,-0.171875,-0.296875
646,646,1727440174631,0.013916016,-0.99468994,-0.062072754,0.5625,-0.609375,-0.3125
647,647,1727440174671,0.01977539,-0.98883057,-0.062072754,1.3125,-0.171875,-0.1875
648,648,1727440174711,0.024414062,-0.98883057,-0.062072754,0.796875,-1.078125,-0.25
649,649,1727440174751,0.018554688,-0.98565674,-0.07330322,0.71875,0.53125,-0.125
650,650,1727440174791,0.016601562,-0.98565674,-0.057922363,0.265625,-0.171875,-0.546875
651,651,1727440174831,0.018798828,-0.9883423,-0.065979004,0.6875,-0.4375,-0.421875
652,652,1727440174871,0.015625,-0.99298096,-0.06573486,0.359375,-0.203125,-0.265625
653,653,1727440174911,0.024169922,-0.99298096,-0.066223145,0.234375,-0.40625,-0.21875
654,654,1727440174951,0.01928711,-0.9885864,-0.07159424,0.4375,-0.171875,-0.3125
655,655,1727440174991,0.019042969,-0.99542236,-0.06549072,-0.125,0.140625,-0.28125
656,656,1727440175031,0.016113281,-0.98321533,-0.06329346,-0.046875,0.453125,-0.078125
657,657,1727440175071,0.024658203,-0.9873657,-0.06939697,0.609375,-0.140625,-0.28125
658,658,1727440175111,0.014160156,-0.9846802,-0.070373535,0.53125,-0.171875,-0.1875
659,659,1727440175151,0.015136719,-0.9849243,-0.06768799,0.40625,0.078125,-0.140625
660,660,1727440175191,0.015380859,-0.9871216,-0.06549072,0.625,-0.03125,-0.265625
661,661,1727440175231,0.01953125,-0.9883423,-0.06842041,0.546875,0.140625,-0.21875
662,662,1727440175271,0.013916016,-0.9898071,-0.06793213,0.40625,0.171875,-0.203125
663,663,1727440175311,0.020507812,-0.9854126,-0.06793213,0.703125,-0.109375,-0.21875
664,664,1727440175351,0.017578125,-0.99591064,-0.070129395,0.5,-0.140625,-0.25
665,665,1727440175391,0.013671875,-0.98760986,-0.07159424,0.25,0.15625,-0.125
666,666,1727440175431,0.020019531,-0.98565674,-0.07354736,0.265625,0.03125,-0.296875
667,667,1727440175471,0.014160156,-0.9834595,-0.06573486,1.203125,0.0625,-0.03125
668,668,1727440175511,0.020507812,-0.99298096,-0.07672119,0.21875,0.0,-0.375
669,669,1727440175551,0.009033203,-0.98150635,-0.0713501,0.203125,0.59375,-0.109375
670,670,1727440175591,0.020263672,-0.98760986,-0.06817627,0.375,0.234375,-0.234375
671,671,1727440175631,0.014892578,-0.9902954,-0.06842041,-0.046875,0.328125,-0.296875
672,672,1727440175671,0.01977539,-0.98565674,-0.070129395,-0.0625,0.375,-0.09375
673,673,1727440175711,0.019042969,-0.98272705,-0.07501221,0.046875,0.265625,-0.078125
674,674,1727440175751,0.011962891,-0.9902954,-0.06451416,0.203125,0.171875,-0.125
675,675,1727440175791,0.016601562,-0.99176025,-0.06402588,-0.296875,0.46875,-0.1875
676,676,1727440175831,0.0146484375,-0.9834595,-0.070617676,-0.28125,0.15625,-0.03125
677,677,1727440175871,0.020751953,-0.9841919,-0.06890869,0.140625,0.109375,-0.171875
678,678,1727440175911,0.01586914,-0.9859009,-0.06451416,0.15625,0.09375,-0.265625
679,679,1727440175951,0.016113281,-0.9829712,-0.065979004,0.15625,0.25,-0.28125
680,680,1727440175991,0.015625,-0.99835205,-0.07159424,0.4375,0.015625,-0.140625
681,681,1727440176031,0.014404297,-0.987854,-0.07232666,0.390625,-0.109375,-0.4375
682,682,1727440176071,0.01977539,-0.98516846,-0.069885254,0.28125,0.109375,-0.234375
683,683,1727440176111,0.018798828,-0.9951782,-0.066467285,0.390625,-0.109375,-0.203125
684,684,1727440176151,0.013671875,-0.98687744,-0.07086182,0.21875,0.0,-0.046875
685,685,1727440176191,0.014404297,-0.9871216,-0.06427002,0.484375,0.078125,-0.0625
686,686,1727440176231,0.015136719,-0.98223877,-0.07232666,0.859375,0.40625,-0.03125
687,687,1727440176271,0.0087890625,-0.9932251,-0.06304932,0.4375,-0.453125,-0.125
688,688,1727440176311,0.020263672,-0.9812622,-0.077697754,-0.390625,0.28125,-0.234375
689,689,1727440176351,0.0075683594,-0.9829712,-0.06427002,-0.5,0.359375,-0.359375
690,690,1727440176391,0.018554688,-0.989563,-0.06817627,-0.3125,0.3125,-0.40625
691,691,1727440176431,0.009765625,-0.98272705,-0.077941895,-0.625,0.75,-0.265625
692,692,1727440176471,0.01171875,-0.99053955,-0.06573486,-0.4375,1.09375,-0.203125
693,693,1727440176511,0.016601562,-0.99346924,-0.07672119,-0.421875,0.765625,-0.203125
694,694,1727440176551,0.022949219,-0.98809814,-0.06060791,-0.921875,0.453125,-0.4375
695,695,1727440176591,0.017578125,-0.9885864,-0.059143066,-0.828125,0.96875,-0.21875
696,696,1727440176631,0.0126953125,-0.9927368,-0.05596924,-0.390625,0.46875,-0.1875
697,697,1727440176671,0.017333984,-0.9907837,-0.0647583,0.015625,0.234375,-0.28125
698,698,1727440176711,0.016113281,-0.98565674,-0.057678223,-0.3125,0.375,-0.21875
699,699,1727440176751,0.0107421875,-0.989563,-0.057434082,0.109375,0.265625,-0.234375
700,700,1727440176791,0.007080078,-0.9937134,-0.062561035,0.0,0.1875,-0.28125
701,701,1727440176831,0.013183594,-0.99053955,-0.061828613,-0.0625,0.4375,-0.03125
702,702,1727440176871,0.015136719,-0.9890747,-0.059631348,0.0,0.234375,0.0
703,703,1727440176911,0.018066406,-0.9871216,-0.06060791,-0.09375,0.109375,0.015625
704,704,1727440176951,0.02368164,-0.98516846,-0.062561035,-0.09375,0.34375,-0.078125
705,705,1727440176991,0.018310547,-0.9907837,-0.06329346,-0.421875,0.125,-0.15625
706,706,1727440177031,0.013183594,-0.99420166,-0.051330566,0.59375,0.3125,-0.15625
707,707,1727440177071,0.018310547,-0.9937134,-0.06964111,0.125,0.0625,-0.296875
708,708,1727440177111,0.012451172,-0.98638916,-0.057434082,0.234375,1.296875,-0.046875
709,709,1727440177151,0.015380859,-0.99346924,-0.055480957,-0.640625,0.328125,-0.5625
710,710,1727440177191,0.016357422,-0.98443604,-0.0647583,-0.296875,0.5625,-0.296875
711,711,1727440177231,0.014160156,-0.9890747,-0.058898926,0.03125,0.40625,0.03125
712,712,1727440177271,0.01928711,-0.9902954,-0.06036377,0.0,0.375,-0.109375
713,713,1727440177311,0.01171875,-0.9871216,-0.044006348,0.078125,0.34375,-0.265625
714,714,1727440177351,0.018066406,-0.9837036,-0.05621338,0.109375,0.46875,-0.0625
715,715,1727440177391,0.009765625,-0.9854126,-0.051818848,-0.421875,0.5,-0.109375
716,716,1727440177431,0.024414062,-0.9944458,-0.057434082,0.4375,-0.09375,-0.078125
717,717,1727440177471,0.014160156,-0.991272,-0.05718994,0.359375,0.078125,-0.15625
718,718,1727440177511,0.019042969,-0.99005127,-0.059143066,0.328125,-0.015625,-0.125
719,719,1727440177551,0.013427734,-0.9866333,-0.059387207,0.46875,0.078125,-0.328125
720,720,1727440177591,0.020996094,-0.991272,-0.058410645,0.421875,-0.109375,-0.328125
721,721,1727440177631,0.020751953,-0.9890747,-0.054504395,0.765625,-0.375,-0.046875
722,722,1727440177671,0.015625,-0.98638916,-0.05596924,0.765625,-0.40625,-0.0625
723,723,1727440177711,0.016845703,-0.9944458,-0.05645752,0.53125,0.015625,-0.234375
724,724,1727440177751,0.020507812,-0.9924927,-0.06011963,0.40625,-0.328125,-0.234375
725,725,1727440177791,0.01953125,-0.991272,-0.05670166,1.3125,0.109375,-0.265625
726,726,1727440177831,0.028808594,-0.9963989,-0.058166504,0.46875,-0.703125,-0.140625
727,727,1727440177871,0.022949219,-0.9841919,-0.07183838,0.78125,0.96875,-0.171875
728,728,1727440177911,0.014160156,-0.99176025,-0.053771973,0.171875,0.359375,-0.328125
729,729,1727440177951,0.016845703,-0.9890747,-0.054748535,0.21875,0.0625,-0.1875
730,730,1727440177991,0.018066406,-0.9846802,-0.06427002,0.25,0.21875,0.0625
731,731,1727440178031,0.020507812,-0.9890747,-0.05987549,0.46875,-0.15625,-0.109375
732,732,1727440178071,0.017822266,-0.9902954,-0.058654785,0.625,-0.078125,-0.234375
733,733,1727440178111,0.015625,-0.9885864,-0.06451416,0.03125,-0.078125,-0.15625
734,734,1727440178151,0.017089844,-0.9841919,-0.06085205,-0.203125,-0.4375,-0.1875
735,735,1727440178191,0.025146484,-0.99298096,-0.06744385,0.671875,-0.65625,-0.4375
736,736,1727440178231,0.020263672,-0.9924927,-0.061828613,0.8125,-0.125,-0.390625
737,737,1727440178271,0.018798828,-0.98809814,-0.061584473,0.640625,-0.0625,-0.25
738,738,1727440178311,0.01977539,-0.9859009,-0.06549072,0.84375,-0.140625,-0.15625
739,739,1727440178351,0.0146484375,-0.98687744,-0.06817627,0.84375,-0.1875,-0.34375
740,740,1727440178391,0.01586914,-0.98687744,-0.06427002,0.765625,-0.25,-0.21875
741,741,1727440178431,0.01586914,-0.9932251,-0.073791504,0.96875,-0.53125,-0.203125
742,742,1727440178471,0.020751953,-0.9898071,-0.06744385,0.34375,-0.34375,-0.03125
743,743,1727440178511,0.01586914,-0.9873657,-0.07281494,0.921875,-0.375,-0.03125
744,744,1727440178551,0.016601562,-0.9920044,-0.07232666,1.359375,0.328125,0.015625
745,745,1727440178591,0.012451172,-1.0032349,-0.062561035,0.78125,-0.8125,-0.078125
746,746,1727440178631,0.025146484,-0.9846802,-0.07989502,0.171875,0.703125,-0.09375
747,747,1727440178671,0.013916016,-0.98638916,-0.06842041,0.109375,0.53125,-0.390625
748,748,1727440178711,0.021240234,-0.9885864,-0.07183838,0.46875,0.109375,-0.15625
749,749,1727440178751,0.016113281,-0.99053955,-0.07232666,0.046875,0.53125,-0.0625
750,750,1727440178791,0.015625,-0.99176025,-0.06890869,0.0,0.328125,-0.046875
751,751,1727440178831,0.018066406,-0.98687744,-0.078186035,0.1875,0.46875,-0.171875
752,752,1727440178871,0.018554688,-0.989563,-0.066711426,-0.21875,0.234375,-0.1875
753,753,1727440178911,0.020751953,-0.9795532,-0.069885254,-0.359375,0.484375,-0.25
754,754,1727440178951,0.018310547,-0.9915161,-0.06304932,0.296875,0.21875,-0.234375
755,755,1727440178991,0.013671875,-0.9885864,-0.06719971,0.328125,0.109375,-0.28125
756,756,1727440179031,0.022949219,-0.99053955,-0.06011963,-0.046875,0.328125,-0.21875
757,757,1727440179071,0.017578125,-0.98394775,-0.074035645,0.3125,0.1875,-0.09375
758,758,1727440179111,0.018066406,-0.9902954,-0.06915283,0.28125,0.078125,-0.296875
759,759,1727440179151,0.01928711,-0.9837036,-0.07110596,0.25,0.25,-0.109375
