,timestamp,accel_x,accel_y,accel_z,gyro_x,gyro_y,gyro_z
0,1726928758938,-0.19116211,-0.96295166,0.21722412,-0.765625,0.5625,-0.40625
1,1726928758982,-0.16992188,-0.9570923,0.24066162,-1.34375,2.34375,-1.171875
2,1726928759028,-0.19018555,-0.9522095,0.24090576,1.078125,0.125,-0.09375
3,1726928759057,-0.17358398,-0.9500122,0.22064209,-0.765625,1.828125,-0.84375
4,1726928759102,-0.17480469,-0.9595337,0.21356201,-1.546875,0.328125,-0.5625
5,1726928759147,-0.1899414,-0.9614868,0.23553467,0.859375,-0.96875,0.0625
6,1726928759177,-0.1796875,-0.9517212,0.23309326,0.0625,-0.03125,-0.53125
7,1726928759222,-0.19116211,-0.95977783,0.22698975,-0.390625,-0.578125,0.234375
8,1726928759267,-0.18481445,-0.94854736,0.23602295,0.21875,-1.0,0.015625
9,1726928759298,-0.1796875,-0.9534302,0.22406006,-0.015625,-1.453125,0.234375
10,1726928759342,-0.19897461,-0.9487915,0.23382568,0.171875,-1.21875,0.359375
11,1726928759387,-0.19726562,-0.94488525,0.22991943,0.84375,-1.125,0.375
12,1726928759433,-0.18896484,-0.95880127,0.22039795,0.0,-1.703125,0.296875
13,1726928759462,-0.19384766,-0.94537354,0.24920654,1.890625,-1.796875,0.59375
14,1726928759508,-0.19580078,-0.94366455,0.21600342,-2.609375,-0.6875,-0.796875
15,1726928759537,-0.2006836,-0.96173096,0.24163818,1.53125,-1.484375,0.375
16,1726928759582,-0.17871094,-0.9446411,0.2140503,-3.171875,0.453125,-1.28125
17,1726928759612,-0.20825195,-0.95147705,0.25994873,3.828125,0.515625,0.78125
18,1726928759658,-0.18579102,-0.95098877,0.22283936,0.140625,0.40625,0.078125
19,1726928759702,-0.18334961,-0.9483032,0.22064209,-0.421875,0.546875,-0.453125
20,1726928759733,-0.19360352,-0.9631958,0.24359131,2.015625,0.859375,0.3125
21,1726928759777,-0.19482422,-0.9553833,0.2255249,-1.015625,0.3125,-0.28125
22,1726928759821,-0.18310547,-0.9500122,0.22039795,-0.734375,0.4375,0.015625
23,1726928759853,-0.18432617,-0.96295166,0.2243042,0.375,0.140625,0.1875
24,1726928759897,-0.19213867,-0.9487915,0.22283936,-0.25,-0.25,-0.125
25,1726928759941,-0.18310547,-0.9590454,0.22845459,-0.75,-0.046875,-0.234375
26,1726928759972,-0.18164062,-0.9512329,0.2296753,-0.25,-0.234375,-0.171875
27,1726928760017,-0.18579102,-0.95806885,0.22479248,-0.125,0.015625,-0.359375
28,1726928760062,-0.19799805,-0.96539307,0.21966553,-0.890625,-0.328125,-0.625
29,1726928760092,-0.1821289,-0.96759033,0.21136475,-0.390625,0.4375,-0.171875
30,1726928760137,-0.17675781,-0.93878174,0.25653076,1.46875,0.28125,-0.15625
31,1726928760182,-0.19946289,-0.956604,0.1906128,-4.109375,-0.5,-0.3125
32,1726928760212,-0.20385742,-0.94537354,0.24188232,-0.625,0.390625,-0.453125
33,1726928760257,-0.18408203,-0.9522095,0.2399292,1.859375,0.078125,0.71875
34,1726928760302,-0.19067383,-0.94781494,0.22210693,-1.140625,-0.1875,-0.53125
35,1726928760331,-0.17553711,-0.9365845,0.23236084,-0.171875,-0.328125,-0.0625
36,1726928760377,-0.1875,-0.9614868,0.21844482,-1.140625,-0.328125,0.0625
37,1726928760407,-0.17651367,-0.9607544,0.22332764,-0.5,-0.421875,-0.28125
38,1726928760452,-0.19482422,-0.95806885,0.23846436,0.1875,-0.4375,-0.125
39,1726928760497,-0.18652344,-0.9536743,0.22772217,-1.296875,-1.28125,-0.28125
40,1726928760527,-0.18164062,-0.960022,0.23602295,-1.0,-0.640625,-0.5625
41,1726928760572,-0.19677734,-0.95562744,0.22113037,-1.265625,-0.640625,-0.890625
42,1726928760618,-0.18603516,-0.9651489,0.23895264,-0.796875,-0.140625,-0.609375
43,1726928760647,-0.18530273,-0.94244385,0.23529053,-1.5,-0.578125,-0.734375
44,1726928760693,-0.18847656,-0.94244385,0.2321167,-2.09375,-1.015625,-0.640625
45,1726928760737,-0.19750977,-0.9710083,0.22039795,-2.609375,-0.71875,-0.546875
46,1726928760767,-0.19116211,-0.9338989,0.26800537,2.09375,-1.265625,-0.25
47,1726928760812,-0.18676758,-0.956604,0.1942749,-6.0625,0.609375,-1.109375
48,1726928760858,-0.20019531,-0.95562744,0.27435303,2.515625,-0.140625,0.796875
49,1726928760887,-0.18359375,-0.95098877,0.22747803,-0.125,-0.859375,0.75
50,1726928760933,-0.17993164,-0.9368286,0.23797607,-0.5625,-0.53125,0.03125
51,1726928760989,-0.1953125,-0.9439087,0.2543335,0.75,-0.859375,0.640625
52,1726928761007,-0.19091797,-0.9602661,0.22943115,-1.546875,-1.546875,0.40625
53,1726928761052,-0.1928711,-0.95391846,0.24481201,-0.78125,-1.5,0.328125
54,1726928761097,-0.18579102,-0.94073486,0.24041748,-0.5625,-1.625,0.453125
55,1726928761130,-0.18017578,-0.94610596,0.2345581,-1.390625,-3.140625,0.234375
56,1726928761172,-0.1940918,-0.956604,0.24066162,-1.453125,-2.75,-0.09375
57,1726928761202,-0.1965332,-0.9512329,0.2411499,-0.5,-2.0625,0.515625
58,1726928761248,-0.19702148,-0.94854736,0.24481201,-0.1875,-1.546875,0.125
59,1726928761292,-0.18579102,-0.95196533,0.2411499,-0.34375,-0.984375,-0.25
60,1726928761322,-0.19824219,-0.9414673,0.25164795,0.296875,-0.75,0.125
61,1726928761367,-0.19604492,-0.94488525,0.20721436,-2.71875,0.078125,-0.65625
62,1726928761412,-0.20166016,-0.9451294,0.24920654,1.578125,-1.046875,0.3125
63,1726928761442,-0.16894531,-0.9507446,0.23260498,-2.4375,1.53125,-0.984375
64,1726928761502,-0.19238281,-0.94537354,0.26654053,1.578125,-0.734375,0.4375
65,1726928761537,-0.17333984,-0.9365845,0.21917725,0.109375,0.953125,-0.078125
66,1726928761562,-0.18041992,-0.9512329,0.2387085,0.390625,0.265625,0.171875
67,1726928761607,-0.18554688,-0.9522095,0.2453003,2.390625,-0.90625,0.234375
68,1726928761652,-0.17895508,-0.95269775,0.2374878,0.234375,-0.796875,-0.078125
69,1726928761682,-0.18115234,-0.95147705,0.23114014,-0.46875,-0.640625,-0.34375
70,1726928761727,-0.1850586,-0.9495239,0.22991943,1.09375,-0.984375,0.453125
71,1726928761772,-0.19091797,-0.95269775,0.23529053,-0.015625,-0.65625,0.0
72,1726928761802,-0.18334961,-0.9446411,0.23187256,0.609375,-0.140625,0.15625
73,1726928761848,-0.18310547,-0.94854736,0.23162842,0.234375,-0.875,0.234375
74,1726928761892,-0.18579102,-0.95440674,0.23699951,0.5,-0.53125,-0.125
75,1726928761922,-0.17651367,-0.95391846,0.22991943,-0.203125,-0.515625,-0.109375
76,1726928761967,-0.18725586,-0.9536743,0.2321167,-0.9375,-0.6875,-0.0625
77,1726928761997,-0.18725586,-0.9636841,0.1954956,0.59375,-0.28125,0.25
78,1726928762043,-0.17260742,-0.9373169,0.2789917,4.609375,0.453125,0.109375
79,1726928762087,-0.19238281,-0.96221924,0.16497803,-5.90625,0.171875,-0.328125
80,1726928762117,-0.19116211,-0.940979,0.26019287,2.125,0.21875,0.484375
81,1726928762162,-0.1899414,-0.9585571,0.23602295,0.90625,-0.21875,0.46875
82,1726928762208,-0.18115234,-0.9446411,0.21990967,-0.515625,0.296875,-0.109375
83,1726928762239,-0.17504883,-0.9390259,0.2453003,1.078125,0.203125,0.171875
84,1726928762283,-0.1928711,-0.9546509,0.21746826,-0.78125,-0.609375,0.171875
85,1726928762327,-0.1772461,-0.96099854,0.22503662,-1.34375,-0.296875,-0.734375
86,1726928762357,-0.1796875,-0.9561157,0.23602295,0.234375,-0.21875,-0.078125
87,1726928762407,-0.18530273,-0.9524536,0.22625732,-0.375,-0.640625,-0.1875
88,1726928762451,-0.18261719,-0.9590454,0.23187256,-0.640625,-0.296875,-0.484375
89,1726928762477,-0.18383789,-0.95880127,0.22576904,-0.5,-0.0625,-0.28125
90,1726928762522,-0.18383789,-0.9558716,0.22576904,-0.8125,-0.65625,-0.34375
91,1726928762567,-0.17138672,-0.95635986,0.2230835,-1.015625,-1.09375,-0.34375
92,1726928762598,-0.18066406,-0.9534302,0.23309326,-0.5,-0.609375,-0.125
93,1726928762642,-0.18725586,-0.9507446,0.23651123,-0.6875,-0.96875,-0.390625
94,1726928762687,-0.17822266,-0.94195557,0.23529053,-0.96875,-1.1875,-0.21875
95,1726928762718,-0.18579102,-0.9578247,0.20697021,-1.671875,-0.859375,-0.359375
96,1726928762763,-0.18139648,-0.958313,0.2489624,0.90625,-2.1875,0.1875
97,1726928762794,-0.16796875,-0.95440674,0.20013428,-6.015625,-0.625,-1.875
98,1726928762837,-0.19116211,-0.9500122,0.2584839,2.28125,-0.046875,0.71875
99,1726928762882,-0.18383789,-0.9534302,0.23480225,0.234375,-0.875,-0.046875
100,1726928762912,-0.17578125,-0.94073486,0.22918701,-1.390625,-1.21875,-0.515625
101,1726928762958,-0.17407227,-0.9475708,0.24188232,-0.296875,-1.15625,-0.4375
102,1726928763003,-0.18945312,-0.954895,0.22918701,-1.953125,-1.0625,-0.203125
103,1726928763032,-0.18359375,-0.9573364,0.23846436,-1.21875,-1.140625,-0.234375
104,1726928763078,-0.17895508,-0.94976807,0.23675537,-0.328125,-1.28125,0.265625
105,1726928763122,-0.18530273,-0.94317627,0.24383545,-0.984375,-1.421875,-0.1875
106,1726928763154,-0.18115234,-0.9483032,0.22943115,-1.21875,-1.46875,-0.03125
107,1726928763198,-0.19091797,-0.954895,0.23651123,-1.375,-1.65625,0.03125
108,1726928763242,-0.19262695,-0.94854736,0.24212646,-1.1875,-1.5625,0.28125
109,1726928763273,-0.18481445,-0.95025635,0.23504639,-1.28125,-1.4375,-0.03125
110,1726928763320,-0.1772461,-0.95025635,0.24017334,-1.40625,-1.734375,0.140625
111,1726928763362,-0.17919922,-0.9553833,0.24871826,-1.390625,-1.875,-0.125
112,1726928763392,-0.18383789,-0.9463501,0.24041748,-1.875,-1.984375,-0.28125
113,1726928763437,-0.19018555,-0.96173096,0.24188232,-1.375,-2.75,-0.203125
114,1726928763482,-0.17871094,-0.9368286,0.2772827,-2.53125,-3.140625,-1.09375
115,1726928763512,-0.20166016,-0.94610596,0.22894287,-5.921875,-2.9375,-0.234375
116,1726928763557,-0.18969727,-0.9373169,0.24359131,-3.5,-1.125,-0.984375
117,1726928763587,-0.20288086,-0.95880127,0.2765503,0.921875,-0.640625,0.65625
118,1726928763632,-0.18701172,-0.93463135,0.25823975,-2.375,-1.0625,-0.84375
119,1726928763677,-0.1796875,-0.9368286,0.2518921,-1.390625,-0.515625,-0.453125
120,1726928763708,-0.1965332,-0.95440674,0.2645874,-0.96875,-0.203125,-0.140625
121,1726928763752,-0.19555664,-0.9390259,0.25701904,-1.171875,-0.46875,-0.71875
122,1726928763797,-0.18554688,-0.9446411,0.26287842,-0.359375,-0.65625,-0.234375
123,1726928763827,-0.19091797,-0.9429321,0.260437,-0.484375,-0.84375,-0.078125
124,1726928763873,-0.1899414,-0.94195557,0.26531982,-0.75,-0.90625,-0.140625
125,1726928763917,-0.19238281,-0.9487915,0.26531982,-0.546875,-0.75,-0.375
126,1726928763947,-0.18286133,-0.9380493,0.26190186,-0.59375,-1.09375,-0.09375
127,1726928763993,-0.19067383,-0.944397,0.2682495,-0.53125,-0.78125,-0.34375
128,1726928764038,-0.19384766,-0.94415283,0.2645874,-0.375,-0.6875,-0.09375
129,1726928764067,-0.18896484,-0.94659424,0.26019287,-0.5,-1.171875,0.03125
130,1726928764112,-0.18701172,-0.944397,0.26727295,-0.171875,-1.0,0.0625
131,1726928764157,-0.20019531,-0.94488525,0.26678467,-0.5,-0.984375,0.03125
132,1726928764187,-0.19116211,-0.93707275,0.2753296,0.203125,-1.5,0.234375
133,1726928764233,-0.18701172,-0.9336548,0.26287842,-2.125,-0.234375,-0.359375
134,1726928764277,-0.19628906,-0.95269775,0.26385498,-0.546875,-1.65625,0.171875
135,1726928764308,-0.1821289,-0.93292236,0.24749756,-2.515625,-0.53125,-1.09375
136,1726928764352,-0.20678711,-0.94976807,0.29266357,2.734375,0.140625,1.109375
137,1726928764383,-0.1965332,-0.94415283,0.2579956,-0.234375,0.234375,-0.234375
138,1726928764429,-0.17651367,-0.9373169,0.26531982,-0.59375,-0.125,-0.203125
139,1726928764472,-0.1862793,-0.973938,0.24920654,5.015625,0.484375,0.96875
140,1726928764523,-0.2006836,-0.9246216,0.2675171,1.75,0.703125,0.609375
141,1726928764547,-0.19995117,-0.9421997,0.25823975,-0.734375,-0.265625,-0.359375
142,1726928764593,-0.1784668,-0.9458618,0.25628662,-0.703125,-0.3125,0.03125
143,1726928764623,-0.18286133,-0.9365845,0.25946045,-0.640625,-0.421875,-0.046875
144,1726928764668,-0.19604492,-0.9495239,0.26287842,-0.734375,0.25,-0.609375
145,1726928764712,-0.18920898,-0.9397583,0.25726318,-1.375,-0.3125,-0.703125
146,1726928764742,-0.18774414,-0.9480591,0.25726318,-1.84375,-1.125,-0.640625
147,1726928764790,-0.18310547,-0.94244385,0.26434326,-1.625,-1.109375,-0.5
148,1726928764832,-0.19580078,-0.94659424,0.26141357,-2.015625,-0.65625,-0.703125
149,1726928764862,-0.19116211,-0.95025635,0.26409912,-2.015625,-0.53125,-0.390625
150,1726928764907,-0.19360352,-0.940979,0.27044678,-1.25,-0.984375,-0.078125
151,1726928764952,-0.19384766,-0.9463501,0.27581787,-1.296875,-1.03125,-0.515625
152,1726928764983,-0.19555664,-0.9265747,0.27752686,-1.125,-1.109375,-0.1875
153,1726928765027,-0.18481445,-0.9480591,0.2584839,-2.578125,-0.578125,-0.1875
154,1726928765072,-0.18847656,-0.9475708,0.27874756,0.421875,-2.03125,-0.03125
155,1726928765102,-0.19189453,-0.93292236,0.25457764,-5.140625,0.5,-1.3125
156,1726928765147,-0.2055664,-0.9456177,0.3053589,3.265625,0.421875,1.3125
157,1726928765177,-0.18286133,-0.94781494,0.2526245,-2.28125,-0.03125,-0.5
158,1726928765222,-0.19116211,-0.92559814,0.2699585,-1.265625,-0.75,-0.375
159,1726928765267,-0.19482422,-0.95513916,0.2904663,1.203125,-0.15625,0.6875
160,1726928765297,-0.18530273,-0.940979,0.2753296,-1.25,-0.640625,-0.078125
161,1726928765342,-0.19799805,-0.93536377,0.27508545,-0.84375,-0.796875,0.078125
162,1726928765387,-0.19580078,-0.9439087,0.27923584,-0.125,-1.03125,0.140625
163,1726928765418,-0.19213867,-0.9380493,0.27093506,-0.5,-0.734375,0.171875
164,1726928765462,-0.1899414,-0.93707275,0.27264404,-0.5,-1.25,-0.03125
165,1726928765507,-0.18920898,-0.9404907,0.27166748,-1.015625,-1.078125,0.015625
166,1726928765540,-0.18652344,-0.9429321,0.27581787,0.25,-0.375,0.1875
167,1726928765582,-0.18359375,-0.93707275,0.2694702,0.9375,1.015625,0.25
168,1726928765628,-0.18359375,-0.94366455,0.28582764,1.96875,1.328125,0.640625
169,1726928765657,-0.18676758,-0.93878174,0.2670288,0.765625,0.078125,0.0625
170,1726928765703,-0.18408203,-0.94610596,0.2741089,1.03125,-0.296875,0.09375
171,1726928765747,-0.17749023,-0.94903564,0.2687378,0.328125,-0.53125,0.125
172,1726928765779,-0.18896484,-0.9368286,0.2904663,1.984375,-0.9375,0.3125
173,1726928765822,-0.18481445,-0.9229126,0.28094482,-2.171875,-0.984375,-0.578125
174,1726928765867,-0.18969727,-0.94659424,0.22576904,-1.515625,-1.75,-0.078125
175,1726928765898,-0.1743164,-0.93878174,0.2982788,0.03125,0.0625,-0.5
176,1726928765942,-0.19702148,-0.94854736,0.27386475,0.734375,-2.09375,0.15625
177,1726928765973,-0.1730957,-0.9312134,0.25628662,-0.546875,-0.765625,-0.53125
178,1726928766017,-0.18481445,-0.94854736,0.2699585,0.265625,-0.609375,0.234375
179,1726928766063,-0.19067383,-0.9397583,0.25994873,0.234375,-1.71875,-0.046875
180,1726928766095,-0.17944336,-0.9365845,0.2682495,0.890625,-0.59375,-0.046875
181,1726928766138,-0.18676758,-0.94366455,0.26361084,-0.5625,-0.546875,-0.3125
182,1726928766198,-0.1887207,-0.9456177,0.26556396,-0.015625,-0.34375,0.0625
183,1726928766212,-0.18774414,-0.9500122,0.27630615,0.90625,1.6875,-0.265625
184,1726928766257,-0.19189453,-0.942688,0.2584839,1.03125,1.421875,-0.046875
185,1726928766302,-0.18310547,-0.9429321,0.26483154,1.171875,0.453125,-0.1875
186,1726928766333,-0.18286133,-0.9356079,0.25823975,0.140625,0.109375,-0.21875
187,1726928766377,-0.18408203,-0.94732666,0.25579834,-0.546875,-0.453125,-0.203125
188,1726928766422,-0.18237305,-0.94903564,0.2609253,-0.25,-0.46875,-0.25
189,1726928766452,-0.18432617,-0.942688,0.2555542,0.4375,0.03125,-0.390625
190,1726928766497,-0.18359375,-0.93218994,0.27630615,2.671875,-0.140625,0.46875
191,1726928766550,-0.18334961,-0.927063,0.25286865,-2.421875,0.296875,-0.5625
192,1726928766575,-0.18530273,-0.95318604,0.25604248,0.671875,-1.421875,0.15625
193,1726928766619,-0.16992188,-0.9397583,0.2531128,-2.265625,0.671875,-1.09375
194,1726928766662,-0.1940918,-0.9458618,0.27825928,2.1875,-1.3125,0.78125
195,1726928766692,-0.17993164,-0.93829346,0.2453003,-0.328125,-0.625,-0.0625
196,1726928766737,-0.17675781,-0.94415283,0.2489624,-0.625,-0.046875,-0.40625
197,1726928766768,-0.18823242,-0.96466064,0.2723999,1.984375,-0.046875,0.203125
198,1726928766814,-0.18066406,-0.9541626,0.25238037,-0.765625,-0.5625,-0.453125
199,1726928766857,-0.17919922,-0.94415283,0.2518921,-1.078125,-0.53125,-0.5
200,1726928766887,-0.1850586,-0.94903564,0.25360107,0.09375,-0.828125,-0.109375
201,1726928766932,-0.18139648,-0.95196533,0.25604248,-0.296875,-0.359375,-0.359375
202,1726928766977,-0.18603516,-0.9512329,0.25775146,-1.0625,-0.78125,-0.703125
203,1726928767007,-0.18579102,-0.9483032,0.25726318,-0.671875,-0.578125,-0.5625
204,1726928767052,-0.18408203,-0.94488525,0.2567749,-0.515625,-0.296875,-0.359375
205,1726928767097,-0.18481445,-0.9451294,0.2555542,-0.15625,-0.484375,-0.46875
206,1726928767128,-0.19091797,-0.9483032,0.2579956,-0.59375,-0.859375,-0.171875
207,1726928767173,-0.1821289,-0.9451294,0.25115967,-0.828125,-0.859375,-0.359375
208,1726928767217,-0.18725586,-0.93707275,0.27044678,1.765625,-0.796875,0.125
209,1726928767248,-0.171875,-0.942688,0.26361084,-1.765625,0.0625,-0.75
210,1726928767292,-0.1940918,-0.9541626,0.2477417,-0.828125,-1.8125,0.59375
211,1726928767337,-0.17993164,-0.93048096,0.25775146,-2.859375,-0.1875,-1.5625
212,1726928767369,-0.19580078,-0.9529419,0.2765503,3.375,-0.34375,1.296875
213,1726928767413,-0.1809082,-0.942688,0.25628662,-0.484375,-1.34375,0.15625
214,1726928767457,-0.18530273,-0.94195557,0.25872803,-0.90625,-1.375,0.140625
215,1726928767487,-0.19140625,-0.9578247,0.26434326,0.359375,-0.53125,0.1875
216,1726928767532,-0.18017578,-0.9343872,0.25482178,-0.875,-0.484375,-0.546875
217,1726928767562,-0.18701172,-0.95025635,0.262146,-0.3125,-0.875,0.078125
218,1726928767607,-0.18481445,-0.94244385,0.25946045,-0.703125,-1.484375,0.453125
219,1726928767652,-0.18334961,-0.9404907,0.26141357,-1.234375,-1.578125,0.1875
220,1726928767682,-0.18237305,-0.95098877,0.26287842,-1.578125,-1.375,-0.09375
221,1726928767728,-0.19335938,-0.9421997,0.260437,-1.53125,-0.765625,-0.484375
222,1726928767772,-0.18530273,-0.9380493,0.2699585,-0.59375,-0.40625,-0.59375
223,1726928767803,-0.18798828,-0.94000244,0.26239014,-0.296875,-0.546875,-0.265625
224,1726928767848,-0.17895508,-0.9429321,0.25531006,-0.765625,-1.3125,-0.296875
225,1726928767893,-0.18530273,-0.9512329,0.26409912,-0.875,-0.90625,-0.203125
226,1726928767922,-0.19165039,-0.9351196,0.277771,0.828125,-0.34375,0.21875
227,1726928767968,-0.18164062,-0.9470825,0.2543335,-2.46875,0.15625,-0.640625
228,1726928768012,-0.1899414,-0.95025635,0.26434326,0.015625,-2.40625,0.328125
229,1726928768042,-0.1694336,-0.9336548,0.2477417,-3.46875,-0.75,-1.953125
230,1726928768088,-0.20092773,-0.9517212,0.29388428,2.359375,0.171875,0.765625
231,1726928768132,-0.19213867,-0.9414673,0.26385498,-0.8125,-0.53125,-0.109375
232,1726928768163,-0.17871094,-0.93341064,0.27069092,-0.8125,-0.8125,-0.328125
233,1726928768207,-0.18603516,-0.94122314,0.2741089,0.15625,-1.328125,-0.21875
234,1726928768253,-0.1875,-0.9475708,0.26263428,-1.6875,-0.78125,-0.5
235,1726928768282,-0.18676758,-0.93951416,0.2633667,-0.734375,-0.34375,-0.203125
236,1726928768327,-0.18774414,-0.94317627,0.2645874,0.0625,-0.734375,0.0625
237,1726928768357,-0.19018555,-0.9390259,0.26898193,0.40625,-0.484375,-0.21875
238,1726928768402,-0.18139648,-0.9439087,0.2584839,-0.171875,-1.265625,-0.140625
239,1726928768447,-0.18652344,-0.94488525,0.27288818,0.34375,-0.59375,-0.046875
240,1726928768477,-0.19238281,-0.94073486,0.26678467,-0.046875,-0.625,0.0625
241,1726928768523,-0.18725586,-0.93927,0.2584839,-0.15625,-0.984375,0.203125
242,1726928768567,-0.18261719,-0.94073486,0.2526245,-0.265625,-0.765625,0.234375
243,1726928768598,-0.17504883,-0.94122314,0.2662964,-0.65625,-1.234375,0.21875
244,1726928768642,-0.19335938,-0.9480591,0.26434326,-0.125,-1.4375,0.53125
245,1726928768688,-0.19995117,-0.93341064,0.2904663,1.390625,-0.75,0.21875
246,1726928768717,-0.18920898,-0.94854736,0.26287842,-0.953125,1.359375,-0.203125
247,1726928768762,-0.19384766,-0.9480591,0.26507568,1.71875,-0.3125,0.265625
248,1726928768808,-0.17480469,-0.9368286,0.24041748,-3.078125,-0.15625,-1.640625
249,1726928768837,-0.18383789,-0.9483032,0.28167725,2.578125,-0.28125,1.0625
250,1726928768883,-0.1743164,-0.9512329,0.25628662,-0.609375,-0.390625,-0.3125
251,1726928768928,-0.19140625,-0.9480591,0.25872803,-1.640625,-0.484375,-0.453125
252,1726928768957,-0.18920898,-0.94366455,0.2748413,0.609375,-0.5,-0.421875
253,1726928769002,-0.18945312,-0.93707275,0.26361084,-1.234375,-0.578125,-0.8125
254,1726928769047,-0.18603516,-0.9470825,0.2609253,-0.828125,-0.828125,-0.03125
255,1726928769078,-0.18554688,-0.94537354,0.27044678,-0.078125,0.015625,0.21875
256,1726928769122,-0.19140625,-0.9397583,0.26434326,-0.484375,-0.21875,0.328125
257,1726928769152,-0.1821289,-0.95098877,0.26556396,-0.671875,-0.59375,0.0625
258,1726928769198,-0.1887207,-0.9404907,0.26385498,1.390625,0.5,0.421875
259,1726928769243,-0.1743164,-0.9463501,0.25286865,0.828125,0.859375,0.640625
260,1726928769272,-0.18237305,-0.9522095,0.26434326,0.796875,0.28125,0.8125
261,1726928769318,-0.18554688,-0.9402466,0.2658081,0.703125,0.140625,0.296875
262,1726928769362,-0.1743164,-0.9536743,0.25994873,0.1875,0.25,0.203125
263,1726928769392,-0.17236328,-0.9434204,0.25164795,-0.15625,-1.265625,0.34375
264,1726928769437,-0.18237305,-0.94073486,0.26483154,-0.234375,-1.390625,-0.109375
265,1726928769482,-0.19433594,-0.9590454,0.24945068,-2.078125,0.4375,-0.15625
266,1726928769512,-0.16918945,-0.944397,0.277771,2.078125,-0.078125,0.09375
267,1726928769559,-0.17529297,-0.93463135,0.22747803,-4.84375,1.296875,-1.5
268,1726928769602,-0.19458008,-0.94537354,0.29315186,2.765625,-0.390625,0.71875
269,1726928769632,-0.17016602,-0.9483032,0.2543335,-0.4375,-0.515625,-0.015625
270,1726928769678,-0.16894531,-0.93634033,0.26190186,-1.140625,-0.546875,-0.421875
271,1726928769722,-0.17407227,-0.95147705,0.27093506,0.484375,-1.40625,0.1875
272,1726928769753,-0.17993164,-0.95147705,0.2538452,-0.671875,-0.859375,-0.328125
273,1726928769797,-0.17626953,-0.9458618,0.2543335,-0.765625,-0.671875,-0.46875
274,1726928769842,-0.18115234,-0.9446411,0.2616577,-0.328125,-0.8125,-0.125
275,1726928769873,-0.171875,-0.93927,0.2531128,-0.953125,-1.140625,-0.375
276,1726928769918,-0.17041016,-0.95977783,0.2616577,-1.21875,-0.984375,-0.75
277,1726928769948,-0.18115234,-0.9468384,0.26263428,-0.921875,-1.03125,-0.578125
278,1726928769992,-0.18139648,-0.95025635,0.2662964,-1.140625,-0.796875,-0.484375
279,1726928770038,-0.18408203,-0.94488525,0.24945068,-0.890625,-1.140625,-0.4375
280,1726928770069,-0.17797852,-0.94366455,0.27459717,0.546875,-0.328125,0.21875
281,1726928770112,-0.18237305,-0.9368286,0.26116943,-0.96875,-1.03125,-0.34375
282,1726928770157,-0.1706543,-0.9429321,0.2584839,-0.296875,-1.09375,0.09375
283,1726928770187,-0.18115234,-0.93218994,0.27264404,0.0625,-1.4375,0.21875
284,1726928770232,-0.17602539,-0.9480591,0.24310303,-3.0,-1.140625,-0.640625
285,1726928770277,-0.19262695,-0.93707275,0.28582764,1.125,-0.9375,-0.140625
286,1726928770308,-0.16796875,-0.9480591,0.24383545,-2.84375,0.640625,-0.984375
287,1726928770354,-0.19238281,-0.9451294,0.28411865,1.578125,-2.234375,0.296875
288,1726928770398,-0.17333984,-0.93634033,0.25872803,-0.46875,-0.109375,-0.265625
289,1726928770428,-0.18334961,-0.9451294,0.2584839,-0.109375,-0.109375,-0.0625
290,1726928770472,-0.1821289,-0.95391846,0.2723999,1.75,-0.6875,-0.171875
291,1726928770518,-0.17382812,-0.94366455,0.2597046,0.03125,-0.578125,-0.125
292,1726928770547,-0.17993164,-0.94122314,0.25946045,-0.78125,-0.234375,-0.515625
293,1726928770597,-0.18041992,-0.9456177,0.25457764,0.015625,-0.484375,-0.234375
294,1726928770638,-0.17749023,-0.9470825,0.26776123,0.046875,-0.34375,-0.34375
295,1726928770668,-0.1850586,-0.94903564,0.260437,-0.5,-0.3125,-0.234375
296,1726928770716,-0.18725586,-0.9451294,0.25775146,-0.328125,-0.34375,-0.390625
297,1726928770742,-0.18554688,-0.94195557,0.2567749,0.0625,-0.390625,-0.25
298,1726928770789,-0.17822266,-0.942688,0.25872803,-0.1875,0.171875,-0.046875
299,1726928770832,-0.18579102,-0.94415283,0.26019287,0.453125,-0.1875,0.109375
300,1726928770863,-0.18383789,-0.94732666,0.26019287,0.078125,-0.53125,0.171875
301,1726928770907,-0.1772461,-0.9414673,0.24920654,0.296875,-0.53125,-0.03125
302,1726928770953,-0.18188477,-0.9390259,0.28778076,2.609375,-0.078125,0.40625
303,1726928770982,-0.17944336,-0.9338989,0.2543335,-2.140625,0.125,-1.078125
304,1726928771027,-0.18041992,-0.9614868,0.24481201,-0.171875,-1.578125,0.140625
305,1726928771073,-0.17529297,-0.94073486,0.26019287,-1.78125,1.1875,-1.15625
306,1726928771103,-0.19140625,-0.9505005,0.276062,2.359375,-0.390625,0.34375
307,1726928771148,-0.17553711,-0.94000244,0.23773193,-0.171875,0.328125,-0.421875
308,1726928771193,-0.1821289,-0.94732666,0.2501831,-0.390625,0.28125,-0.40625
309,1726928771223,-0.19091797,-0.9668579,0.2609253,1.8125,-0.015625,0.234375
310,1726928771269,-0.17358398,-0.944397,0.25482178,-0.53125,-0.125,-0.578125
311,1726928771312,-0.18041992,-0.94122314,0.25628662,-0.609375,-0.4375,-0.265625
312,1726928771345,-0.18457031,-0.94781494,0.25457764,0.3125,-0.125,0.078125
313,1726928771387,-0.17456055,-0.9439087,0.25604248,-0.28125,-0.15625,0.09375
314,1726928771449,-0.17504883,-0.9463501,0.2538452,-0.46875,-0.6875,-0.28125
315,1726928771461,-0.18969727,-0.95318604,0.2609253,-0.34375,-0.03125,-0.046875
316,1726928771509,-0.17675781,-0.94781494,0.25213623,-0.640625,-0.484375,-0.21875
317,1726928771537,-0.18457031,-0.9458618,0.25823975,-0.03125,-0.5,-0.125
318,1726928771582,-0.1821289,-0.9458618,0.2501831,-0.640625,-0.609375,-0.015625
319,1726928771627,-0.17944336,-0.9492798,0.2567749,-0.296875,-0.84375,0.03125
320,1726928771658,-0.18237305,-0.9439087,0.25360107,-0.828125,-0.796875,-0.296875
321,1726928771702,-0.1875,-0.9512329,0.25213623,1.515625,-0.4375,0.0625
322,1726928771748,-0.16674805,-0.9414673,0.2675171,-1.078125,-0.34375,-0.609375
323,1726928771778,-0.18530273,-0.9607544,0.23968506,-2.046875,-2.3125,0.4375
324,1726928771822,-0.17163086,-0.94000244,0.25531006,-2.09375,-0.109375,-1.328125
325,1726928771868,-0.19213867,-0.958313,0.27825928,2.984375,-0.078125,1.171875
326,1726928771900,-0.16918945,-0.95025635,0.24700928,-0.9375,-1.0,-0.28125
327,1726928771943,-0.17333984,-0.95025635,0.2592163,-0.640625,-0.65625,-0.25
328,1726928771987,-0.1821289,-0.9573364,0.25823975,0.25,-1.109375,0.171875
329,1726928772018,-0.17211914,-0.9429321,0.25506592,-1.9375,-1.546875,-0.453125
330,1726928772066,-0.17871094,-0.9468384,0.26019287,-0.875,-0.96875,-0.234375
331,1726928772113,-0.18237305,-0.9475708,0.25823975,-0.484375,-0.53125,0.109375
332,1726928772141,-0.17871094,-0.94659424,0.25628662,-0.9375,-0.6875,-0.171875
333,1726928772183,-0.1784668,-0.9470825,0.25823975,-1.0,-0.6875,-0.34375
334,1726928772227,-0.18164062,-0.9378052,0.26361084,-0.578125,-0.59375,-0.4375
335,1726928772257,-0.18041992,-0.9505005,0.25872803,-0.546875,-0.28125,-0.34375
336,1726928772302,-0.1809082,-0.94415283,0.25408936,-0.671875,-0.75,-0.359375
337,1726928772332,-0.17749023,-0.9421997,0.260437,-0.75,-0.84375,-0.28125
338,1726928772377,-0.18261719,-0.9456177,0.26068115,-0.25,-0.625,-0.171875
339,1726928772422,-0.18676758,-0.94903564,0.27435303,-0.375,-0.875,-0.296875
340,1726928772452,-0.18017578,-0.9458618,0.2501831,-1.34375,-1.359375,-0.21875
341,1726928772497,-0.19140625,-0.9644165,0.24749756,-0.46875,-0.4375,0.3125
342,1726928772541,-0.17651367,-0.9260864,0.29144287,1.34375,-0.703125,-0.375
343,1726928772572,-0.18676758,-0.9505005,0.23895264,-3.71875,-0.21875,-0.421875
344,1726928772617,-0.18920898,-0.9385376,0.276062,0.421875,-0.671875,0.484375
345,1726928772661,-0.18237305,-0.9507446,0.26605225,1.34375,-1.015625,0.828125
346,1726928772692,-0.18701172,-0.9451294,0.25701904,-1.359375,-0.875,-0.25
347,1726928772737,-0.17504883,-0.94244385,0.26727295,-0.53125,-0.8125,0.046875
348,1726928772781,-0.19555664,-0.954895,0.26068115,-0.453125,-1.03125,0.125
349,1726928772812,-0.17895508,-0.94122314,0.2658081,-0.609375,-0.875,-0.734375
350,1726928772857,-0.18530273,-0.9468384,0.26531982,-0.046875,-0.8125,0.09375
351,1726928772901,-0.18359375,-0.9380493,0.26409912,-0.453125,-0.921875,-0.359375
352,1726928772931,-0.17993164,-0.9434204,0.260437,-0.5625,-0.625,-0.328125
353,1726928772977,-0.18066406,-0.94244385,0.26385498,-0.578125,-0.21875,-0.25
354,1726928773022,-0.18554688,-0.9458618,0.2670288,-0.453125,-0.84375,-0.34375
355,1726928773052,-0.18359375,-0.94488525,0.26385498,-0.765625,-0.5,-0.578125
356,1726928773097,-0.18286133,-0.9553833,0.26483154,-0.34375,-0.234375,-0.1875
357,1726928773127,-0.18359375,-0.9402466,0.26605225,-0.25,-0.53125,0.0625
358,1726928773173,-0.18115234,-0.9417114,0.26776123,-0.390625,-0.625,-0.203125
359,1726928773217,-0.1809082,-0.94317627,0.26287842,-0.140625,-0.46875,-0.0625
360,1726928773247,-0.18798828,-0.94781494,0.26727295,-0.578125,-0.6875,-0.359375
361,1726928773292,-0.1821289,-0.93878174,0.2826538,0.8125,-1.1875,0.0625
362,1726928773337,-0.18237305,-0.9456177,0.26019287,-2.296875,0.3125,-0.9375
363,1726928773367,-0.17822266,-0.96466064,0.2543335,-0.375,-1.953125,0.5625
364,1726928773412,-0.17211914,-0.9373169,0.25750732,-2.09375,-0.734375,-1.234375
365,1726928773457,-0.21020508,-0.9468384,0.28948975,2.03125,-0.328125,0.984375
366,1726928773487,-0.17211914,-0.94659424,0.25360107,-0.953125,-0.015625,-0.578125
367,1726928773535,-0.17993164,-0.93463135,0.26727295,-0.53125,-0.171875,-0.25
368,1726928773577,-0.18457031,-0.94976807,0.2819214,0.671875,-0.734375,-0.15625
369,1726928773607,-0.18261719,-0.9483032,0.26409912,-1.609375,-1.125,-0.59375
370,1726928773652,-0.18334961,-0.94366455,0.26239014,-0.375,-0.9375,-0.328125
371,1726928773697,-0.1899414,-0.94415283,0.2670288,-0.03125,-0.171875,0.140625
372,1726928773726,-0.17773438,-0.94415283,0.26531982,-1.0,-0.6875,-0.1875
373,1726928773772,-0.17944336,-0.9417114,0.27191162,-0.953125,-0.640625,-0.359375
374,1726928773818,-0.19335938,-0.95098877,0.26556396,-0.59375,-0.46875,-0.296875
375,1726928773847,-0.18432617,-0.9495239,0.27142334,-0.8125,-0.640625,-0.25
376,1726928773892,-0.17871094,-0.93707275,0.2711792,-0.8125,-0.75,-0.109375
377,1726928773923,-0.18554688,-0.9404907,0.27191162,-0.78125,-0.328125,-0.125
378,1726928773968,-0.18188477,-0.94488525,0.27459717,-1.125,-0.84375,-0.15625
379,1726928774014,-0.18652344,-0.9439087,0.26239014,-0.71875,-0.46875,-0.078125
380,1726928774043,-0.18603516,-0.944397,0.2694702,-0.28125,-0.234375,-0.15625
381,1726928774088,-0.17211914,-0.93536377,0.2682495,0.0625,-0.15625,0.21875
382,1726928774132,-0.18774414,-0.9324341,0.27996826,0.96875,-1.34375,0.421875
383,1726928774162,-0.17456055,-0.9368286,0.2711792,-2.171875,-0.78125,-0.703125
384,1726928774208,-0.19140625,-0.94317627,0.26409912,-0.25,-2.203125,0.4375
385,1726928774252,-0.17041016,-0.9312134,0.27166748,-2.640625,0.171875,-1.703125
386,1726928774282,-0.20166016,-0.9553833,0.29901123,2.46875,-1.203125,0.671875
387,1726928774327,-0.17626953,-0.9492798,0.24847412,-1.390625,-0.515625,-0.640625
388,1726928774373,-0.17626953,-0.93878174,0.28240967,0.5625,-0.296875,-0.4375
389,1726928774403,-0.19116211,-0.95318604,0.28289795,1.65625,-1.078125,0.15625
390,1726928774447,-0.17822266,-0.9414673,0.2736206,0.015625,-1.234375,-0.21875
391,1726928774492,-0.18920898,-0.93927,0.26922607,-0.265625,-1.40625,-0.125
392,1726928774523,-0.19506836,-0.94317627,0.26776123,-0.09375,-0.859375,0.0
393,1726928774568,-0.17895508,-0.94366455,0.26507568,-0.484375,-1.265625,-0.34375
394,1726928774612,-0.18017578,-0.9404907,0.2670288,-0.375,-1.21875,-0.125
395,1726928774642,-0.1940918,-0.94488525,0.27142334,-0.796875,-1.4375,-0.1875
396,1726928774687,-0.19360352,-0.9404907,0.27142334,-0.5,-1.15625,-0.171875
397,1726928774717,-0.18408203,-0.9417114,0.25946045,-0.359375,-0.796875,-0.421875
398,1726928774761,-0.18481445,-0.9417114,0.26239014,0.3125,-0.5625,0.140625
399,1726928774814,-0.18554688,-0.93756104,0.26190186,-0.078125,-1.609375,-0.3125
400,1726928774837,-0.18896484,-0.9456177,0.26483154,-0.21875,-1.8125,-0.21875
401,1726928774882,-0.1875,-0.9402466,0.25823975,-0.390625,-0.9375,-0.4375
402,1726928774929,-0.18847656,-0.9351196,0.25994873,-0.203125,-0.59375,-0.46875
403,1726928774957,-0.19042969,-0.9529419,0.23773193,-1.96875,-0.671875,-0.5625
404,1726928775002,-0.18237305,-0.92755127,0.29364014,2.625,-0.578125,-0.375
405,1726928775048,-0.18725586,-0.9487915,0.21722412,-4.46875,0.390625,-1.28125
406,1726928775080,-0.21020508,-0.9446411,0.3007202,2.578125,-0.171875,0.109375
407,1726928775122,-0.18896484,-0.9429321,0.2543335,-0.328125,-0.640625,-0.4375
408,1726928775167,-0.1862793,-0.93585205,0.25408936,-0.46875,0.5,-0.625
409,1726928775198,-0.19384766,-0.93463135,0.2789917,1.765625,0.109375,0.203125
410,1726928775242,-0.20166016,-0.94781494,0.2543335,-0.59375,-0.953125,-0.203125
411,1726928775287,-0.17993164,-0.95318604,0.25360107,-0.125,-0.390625,-0.4375
412,1726928775317,-0.1862793,-0.9378052,0.2584839,0.3125,-0.203125,-0.171875
413,1726928775362,-0.19946289,-0.942688,0.2694702,0.171875,-0.15625,-0.265625
414,1726928775408,-0.1899414,-0.94366455,0.26068115,0.03125,-0.421875,-0.203125
415,1726928775438,-0.18701172,-0.9385376,0.24603271,0.21875,-0.328125,-0.34375
416,1726928775482,-0.18945312,-0.94195557,0.26312256,0.0,-0.515625,-0.21875
417,1726928775512,-0.19433594,-0.93756104,0.25750732,-0.46875,-0.796875,0.046875
418,1726928775557,-0.19091797,-0.9451294,0.2633667,-0.34375,-0.5,-0.265625
419,1726928775607,-0.19824219,-0.94415283,0.2592163,-0.390625,-1.0,0.15625
420,1726928775638,-0.19580078,-0.9429321,0.26434326,-0.171875,-0.78125,-0.140625
421,1726928775677,-0.19482422,-0.9458618,0.25408936,-1.234375,-0.546875,-0.4375
422,1726928775724,-0.19189453,-0.9578247,0.2518921,0.53125,-0.203125,-0.0625
423,1726928775768,-0.1899414,-0.9241333,0.29241943,0.46875,-1.03125,-0.78125
424,1726928775798,-0.19506836,-0.96539307,0.22747803,-4.1875,-1.59375,-0.265625
425,1726928775842,-0.18847656,-0.9343872,0.26922607,-1.234375,-0.390625,-0.859375
426,1726928775873,-0.20361328,-0.95635986,0.27850342,2.21875,-1.0,0.90625
427,1726928775918,-0.19750977,-0.9402466,0.24603271,-1.234375,-0.796875,-0.28125
428,1726928775962,-0.18676758,-0.9451294,0.26385498,-0.671875,-0.203125,-0.734375
429,1726928775995,-0.20385742,-0.95684814,0.26239014,0.015625,-0.34375,-0.078125
430,1726928776037,-0.1809082,-0.93951416,0.26776123,-1.140625,-0.765625,-0.984375
431,1726928776082,-0.19995117,-0.93707275,0.2658081,-0.125,-0.171875,-0.046875
432,1726928776113,-0.19335938,-0.93463135,0.25579834,-0.46875,-0.546875,-0.21875
433,1726928776157,-0.18896484,-0.93634033,0.262146,-0.28125,-0.5,-0.140625
434,1726928776202,-0.20629883,-0.94195557,0.2662964,-0.40625,-0.328125,-0.09375
435,1726928776232,-0.19726562,-0.9380493,0.26312256,-0.75,-0.4375,-0.15625
436,1726928776277,-0.19067383,-0.9429321,0.2592163,-0.46875,-0.96875,-0.046875
437,1726928776307,-0.19921875,-0.9480591,0.25946045,-0.578125,-0.796875,-0.1875
438,1726928776353,-0.19335938,-0.9338989,0.2682495,-0.984375,-0.671875,0.015625
439,1726928776397,-0.20092773,-0.94000244,0.26434326,-0.859375,-1.421875,-0.09375
440,1726928776429,-0.19482422,-0.93878174,0.26556396,-2.0,-1.390625,-0.3125
441,1726928776472,-0.19897461,-0.9483032,0.25506592,-1.84375,-0.578125,0.203125
442,1726928776518,-0.1887207,-0.9295044,0.30096436,0.9375,-0.5,-0.4375
443,1726928776547,-0.20581055,-0.95269775,0.23919678,-3.828125,-0.6875,-0.484375
444,1726928776595,-0.20532227,-0.93096924,0.277771,-0.40625,-0.296875,-0.5
445,1726928776637,-0.20166016,-0.94610596,0.27947998,1.0,-0.65625,0.453125
446,1726928776668,-0.19140625,-0.940979,0.2592163,-1.6875,-0.890625,-0.796875
447,1726928776712,-0.19604492,-0.94488525,0.27996826,-0.59375,-0.828125,-0.359375
448,1726928776757,-0.2006836,-0.9487915,0.27020264,-1.125,-1.296875,-0.1875
449,1726928776787,-0.18383789,-0.9331665,0.2723999,-1.15625,-1.328125,-0.71875
450,1726928776847,-0.20581055,-0.94415283,0.28167725,-0.265625,-0.75,0.09375
451,1726928776878,-0.203125,-0.93414307,0.28216553,-0.578125,-0.9375,0.046875
452,1726928776907,-0.18823242,-0.93927,0.27288818,-0.71875,-1.109375,-0.25
453,1726928776952,-0.19946289,-0.94122314,0.27923584,-0.296875,-0.5625,-0.25
454,1726928776998,-0.19946289,-0.940979,0.27801514,-0.640625,-0.875,-0.171875
455,1726928777028,-0.1977539,-0.9338989,0.2736206,-0.59375,-0.796875,-0.34375
456,1726928777072,-0.20385742,-0.94415283,0.28411865,-0.03125,-0.046875,0.078125
457,1726928777101,-0.20336914,-0.9273071,0.2748413,-0.5625,-0.375,-0.109375
458,1726928777150,-0.2019043,-0.93463135,0.27093506,-0.921875,-0.125,-0.59375
459,1726928777193,-0.19726562,-0.95635986,0.26263428,0.015625,-0.125,-0.203125
460,1726928777222,-0.1875,-0.91607666,0.30511475,0.46875,-0.4375,-1.203125
461,1726928777267,-0.20703125,-0.9578247,0.25506592,-2.46875,-0.578125,-0.109375
462,1726928777312,-0.20092773,-0.92852783,0.28167725,-0.828125,-0.015625,-1.1875
463,1726928777345,-0.20800781,-0.9456177,0.2958374,1.625,-0.203125,0.640625
464,1726928777387,-0.19165039,-0.9421997,0.2694702,-1.140625,-0.234375,-0.46875
465,1726928777433,-0.1899414,-0.9378052,0.27386475,-0.09375,-0.125,-0.3125
466,1726928777462,-0.20214844,-0.95635986,0.2711792,-0.1875,-0.84375,-0.203125
467,1726928777508,-0.1850586,-0.9290161,0.28485107,-0.453125,-0.875,-0.375
468,1726928777553,-0.2109375,-0.93707275,0.27313232,-0.046875,-0.59375,0.03125
469,1726928777582,-0.203125,-0.94073486,0.2694702,-0.40625,-1.0,0.0
470,1726928777627,-0.19702148,-0.93218994,0.27947998,-0.34375,-0.859375,-0.171875
471,1726928777672,-0.20581055,-0.94317627,0.2843628,-0.46875,-0.53125,-0.21875
472,1726928777702,-0.19970703,-0.9402466,0.27557373,-0.625,-1.03125,0.1875
473,1726928777747,-0.19873047,-0.93829346,0.27752686,-0.53125,-0.671875,-0.0625
474,1726928777799,-0.19995117,-0.9368286,0.27801514,-0.359375,-0.5625,0.4375
475,1726928777822,-0.20117188,-0.940979,0.27947998,-0.203125,-0.625,0.15625
476,1726928777868,-0.19799805,-0.9404907,0.27264404,-0.90625,-0.734375,-0.0625
477,1726928777898,-0.19604492,-0.9522095,0.26361084,0.625,0.015625,0.34375
478,1726928777943,-0.1928711,-0.92193604,0.3078003,1.484375,0.8125,-0.453125
479,1726928777987,-0.20361328,-0.9529419,0.2501831,-1.484375,-0.3125,0.59375
480,1726928778018,-0.1796875,-0.92633057,0.2789917,0.03125,0.65625,-0.703125
481,1726928778078,-0.21191406,-0.9475708,0.28875732,1.875,0.0625,0.9375
482,1726928778107,-0.18530273,-0.9402466,0.26141357,-1.09375,-0.34375,-0.359375
483,1726928778138,-0.18823242,-0.93585205,0.27972412,0.3125,0.203125,0.140625
484,1726928778186,-0.20874023,-0.9507446,0.27508545,-0.78125,-1.0625,0.28125
485,1726928778228,-0.17919922,-0.9414673,0.27313232,-0.84375,-1.265625,-0.65625
486,1726928778273,-0.20166016,-0.942688,0.2748413,0.015625,-0.765625,0.453125
487,1726928778302,-0.19897461,-0.93756104,0.27801514,-0.578125,-0.828125,-0.03125
488,1726928778347,-0.19018555,-0.9302368,0.27801514,-0.75,-0.859375,-0.171875
489,1726928778377,-0.19897461,-0.9378052,0.2723999,-0.875,-1.109375,-0.21875
490,1726928778422,-0.20019531,-0.93536377,0.28460693,-0.421875,-1.203125,0.1875
491,1726928778467,-0.19360352,-0.94366455,0.27508545,-0.75,-1.6875,0.0
492,1726928778498,-0.19189453,-0.93414307,0.27630615,-0.546875,-1.28125,-0.046875
493,1726928778544,-0.19897461,-0.93951416,0.28045654,-0.3125,-1.25,0.0
494,1726928778588,-0.19335938,-0.9404907,0.2711792,-1.515625,-1.34375,-0.5625
495,1726928778617,-0.19189453,-0.96539307,0.25482178,-0.15625,-0.40625,0.265625
496,1726928778662,-0.19189453,-0.9138794,0.3163452,1.609375,-0.78125,-0.609375
497,1726928778693,-0.1977539,-0.95147705,0.23236084,-3.828125,-0.328125,-0.421875
498,1726928778737,-0.19506836,-0.9351196,0.30804443,1.765625,0.21875,-0.21875
499,1726928778782,-0.20263672,-0.9390259,0.27191162,0.140625,-1.5625,0.21875
500,1726928778812,-0.19458008,-0.9299927,0.2711792,-1.078125,-0.484375,-1.015625
501,1726928778858,-0.1977539,-0.9417114,0.2838745,0.203125,-0.65625,0.21875
502,1726928778902,-0.2006836,-0.94610596,0.2675171,-0.78125,-1.140625,-0.296875
503,1726928778932,-0.18554688,-0.9446411,0.27191162,-0.015625,-0.9375,-0.234375
504,1726928778980,-0.2019043,-0.9312134,0.27386475,0.078125,-0.71875,0.09375
505,1726928779023,-0.20019531,-0.9356079,0.27215576,-0.09375,-0.890625,-0.09375
506,1726928779053,-0.19262695,-0.9373169,0.27313232,0.28125,-0.53125,-0.15625
507,1726928779097,-0.20117188,-0.9351196,0.277771,0.046875,-0.21875,-0.171875
508,1726928779142,-0.19799805,-0.94073486,0.276062,-0.15625,-0.5625,-0.421875
509,1726928779173,-0.20092773,-0.93951416,0.27630615,-0.015625,-0.28125,-0.015625
510,1726928779217,-0.19824219,-0.9446411,0.2723999,-0.421875,-0.296875,-0.046875
511,1726928779265,-0.20117188,-0.9365845,0.27825928,0.0,-0.15625,-0.296875
512,1726928779293,-0.20336914,-0.925354,0.29534912,1.578125,-0.4375,0.15625
513,1726928779338,-0.18920898,-0.9265747,0.26361084,-2.640625,0.203125,-0.671875
514,1726928779382,-0.19628906,-0.9480591,0.27850342,1.609375,-0.828125,0.453125
515,1726928779413,-0.18359375,-0.92852783,0.260437,-2.140625,1.484375,-0.9375
516,1726928779458,-0.20507812,-0.9390259,0.29144287,3.171875,-0.34375,1.21875
517,1726928779487,-0.1850586,-0.93951416,0.262146,0.296875,0.234375,-0.03125
518,1726928779534,-0.19360352,-0.93414307,0.27191162,0.5,0.953125,-0.328125
519,1726928779577,-0.19506836,-0.9500122,0.2736206,2.0,0.265625,0.546875
520,1726928779608,-0.19848633,-0.9351196,0.27459717,-0.375,-0.6875,-0.4375
521,1726928779652,-0.19042969,-0.9338989,0.26727295,-0.890625,-0.40625,-0.28125
522,1726928779699,-0.19506836,-0.93878174,0.26019287,0.015625,-0.703125,0.3125
523,1726928779730,-0.19116211,-0.93951416,0.27191162,0.203125,0.109375,-0.109375
524,1726928779772,-0.18798828,-0.9421997,0.2662964,0.140625,-0.203125,-0.09375
525,1726928779817,-0.19384766,-0.9451294,0.26190186,-0.015625,-0.40625,-0.015625
526,1726928779847,-0.19506836,-0.9351196,0.2694702,0.125,-0.09375,-0.28125
527,1726928779892,-0.19091797,-0.9439087,0.26239014,-0.125,-0.15625,0.015625
528,1726928779939,-0.18725586,-0.93951416,0.27044678,-0.421875,-0.59375,0.140625
529,1726928779967,-0.19311523,-0.9360962,0.27142334,-0.71875,-0.9375,-0.140625
530,1726928780012,-0.18481445,-0.94488525,0.25164795,-2.453125,-0.28125,-0.09375
531,1726928780058,-0.19018555,-0.93829346,0.29193115,2.25,-1.171875,0.3125
532,1726928780087,-0.18920898,-0.94854736,0.2387085,-4.6875,-0.125,-1.09375
533,1726928780132,-0.20629883,-0.93341064,0.28363037,1.671875,0.484375,0.59375
534,1726928780177,-0.18579102,-0.9458618,0.2741089,0.8125,-0.375,0.515625
535,1726928780207,-0.18359375,-0.93463135,0.26287842,-1.28125,-0.34375,-0.375
536,1726928780252,-0.18798828,-0.9378052,0.2843628,0.609375,0.265625,0.125
537,1726928780282,-0.1977539,-0.94781494,0.2675171,-0.84375,-0.109375,0.078125
538,1726928780328,-0.19311523,-0.93829346,0.26654053,-0.703125,-0.640625,-0.25
539,1726928780373,-0.19433594,-0.9468384,0.27093506,-0.09375,-0.8125,0.328125
540,1726928780402,-0.19140625,-0.9378052,0.27142334,-0.296875,-0.359375,0.140625
541,1726928780450,-0.1796875,-0.93927,0.26361084,-0.5625,-0.75,-0.234375
542,1726928780492,-0.1928711,-0.9417114,0.26409912,-0.296875,-0.59375,0.03125
543,1726928780522,-0.18359375,-0.94537354,0.26556396,-0.53125,-1.125,0.03125
544,1726928780568,-0.19335938,-0.93927,0.27337646,-0.390625,-0.984375,0.078125
545,1726928780614,-0.19067383,-0.9439087,0.26849365,-0.34375,-0.390625,0.015625
546,1726928780643,-0.18481445,-0.94659424,0.2658081,-0.71875,-0.546875,-0.21875
547,1726928780688,-0.18945312,-0.9402466,0.27923584,1.109375,-0.921875,0.296875
548,1726928780733,-0.17993164,-0.93292236,0.27679443,-1.828125,-0.078125,-0.890625
549,1726928780763,-0.19067383,-0.9558716,0.2592163,-0.765625,-1.265625,0.5625
550,1726928780809,-0.17456055,-0.93292236,0.26068115,-2.234375,-0.5,-1.671875
551,1726928780852,-0.19311523,-0.9458618,0.28851318,2.3125,0.265625,0.96875
552,1726928780882,-0.19116211,-0.944397,0.26507568,-0.921875,-0.609375,-0.515625
553,1726928780927,-0.18383789,-0.93634033,0.2687378,-0.625,-0.546875,-0.203125
554,1726928780972,-0.18969727,-0.954895,0.27264404,0.328125,-0.90625,-0.09375
555,1726928781004,-0.18383789,-0.94244385,0.26971436,-1.140625,-1.109375,-0.5
556,1726928781048,-0.19091797,-0.93951416,0.27044678,-0.1875,-0.828125,-0.03125
557,1726928781078,-0.19042969,-0.9390259,0.27264404,-0.140625,-0.28125,-0.015625
558,1726928781122,-0.17407227,-0.940979,0.2682495,-0.75,-0.6875,-0.40625
559,1726928781168,-0.18969727,-0.9463501,0.27069092,-0.21875,-0.640625,-0.4375
560,1726928781199,-0.19067383,-0.9378052,0.27264404,-0.4375,-0.3125,-0.203125
561,1726928781243,-0.17797852,-0.94366455,0.26800537,-0.484375,-0.78125,-0.328125
562,1726928781287,-0.1862793,-0.9390259,0.26678467,-0.234375,-0.921875,-0.15625
563,1726928781318,-0.19067383,-0.94195557,0.27191162,-0.125,-0.421875,-0.0625
564,1726928781365,-0.18774414,-0.94610596,0.2699585,-0.84375,-0.703125,-0.234375
565,1726928781407,-0.19311523,-0.9404907,0.27215576,1.046875,-1.15625,0.296875
566,1726928781438,-0.17871094,-0.9299927,0.28656006,-1.359375,-0.59375,-0.90625
567,1726928781482,-0.2043457,-0.95635986,0.25604248,-1.515625,-1.71875,0.3125
568,1726928781527,-0.18457031,-0.9241333,0.27093506,-2.546875,-0.21875,-1.765625
569,1726928781558,-0.20141602,-0.9522095,0.293396,2.25,-0.546875,0.703125
570,1726928781617,-0.18481445,-0.94122314,0.26287842,-1.59375,-1.046875,-0.5625
571,1726928781648,-0.18359375,-0.9314575,0.2687378,-0.765625,-0.921875,-0.21875
572,1726928781677,-0.2019043,-0.95562744,0.27923584,-0.796875,-0.984375,-0.46875
573,1726928781723,-0.18652344,-0.93634033,0.27972412,-1.578125,-1.21875,-0.765625
574,1726928781767,-0.18774414,-0.9365845,0.27337646,-0.4375,-1.0625,-0.5
575,1726928781798,-0.20166016,-0.94073486,0.27923584,-1.28125,-1.5,-0.4375
576,1726928781843,-0.1875,-0.9348755,0.276062,-1.78125,-1.546875,-0.796875
577,1726928781873,-0.19750977,-0.9404907,0.28582764,-1.53125,-0.71875,-0.796875
578,1726928781920,-0.20532227,-0.93756104,0.27947998,-1.546875,-1.4375,-0.46875
579,1726928781963,-0.19506836,-0.9290161,0.2789917,-1.375,-1.796875,-0.515625
580,1726928781993,-0.20092773,-0.9360962,0.276062,-1.40625,-1.359375,-0.5
581,1726928782038,-0.19702148,-0.93463135,0.28118896,-0.625,-1.640625,-0.3125
582,1726928782082,-0.19604492,-0.9307251,0.2868042,-1.0,-1.390625,-0.625
583,1726928782113,-0.20166016,-0.9356079,0.27947998,-1.140625,-1.421875,-0.578125
584,1726928782158,-0.19555664,-0.954895,0.2531128,-1.03125,-0.828125,0.3125
585,1726928782202,-0.19750977,-0.9121704,0.3348999,3.015625,-1.296875,-0.421875
586,1726928782233,-0.2019043,-0.9595337,0.22528076,-5.515625,-1.03125,-0.71875
587,1726928782280,-0.21435547,-0.93585205,0.32781982,2.578125,-0.953125,0.28125
588,1726928782322,-0.20239258,-0.93341064,0.2772827,-0.5,-0.921875,-0.125
589,1726928782352,-0.20410156,-0.92559814,0.27508545,-0.3125,-0.640625,-0.46875
590,1726928782397,-0.20336914,-0.9385376,0.30267334,1.5,-0.625,0.0
591,1726928782442,-0.21240234,-0.93096924,0.26434326,-0.25,-1.125,-0.09375
592,1726928782472,-0.20239258,-0.93829346,0.276062,0.734375,-0.53125,-0.203125
593,1726928782518,-0.20239258,-0.9351196,0.27679443,0.609375,-0.609375,0.125
594,1726928782562,-0.2097168,-0.9302368,0.28118896,0.421875,-0.625,-0.21875
595,1726928782593,-0.19848633,-0.9299927,0.27459717,-0.078125,-0.328125,-0.265625
596,1726928782638,-0.20727539,-0.93756104,0.2741089,0.0625,-0.25,-0.078125
597,1726928782667,-0.20922852,-0.93829346,0.2850952,0.25,-0.28125,-0.109375
598,1726928782717,-0.20092773,-0.9360962,0.2765503,-0.046875,0.03125,-0.234375
599,1726928782757,-0.19726562,-0.93341064,0.276062,0.359375,-0.03125,0.046875
600,1726928782787,-0.20922852,-0.93341064,0.2748413,0.625,0.390625,-0.015625
601,1726928782833,-0.19677734,-0.94195557,0.27069092,0.328125,0.640625,-0.09375
602,1726928782878,-0.203125,-0.9404907,0.28363037,2.828125,0.265625,0.453125
603,1726928782910,-0.20117188,-0.9187622,0.29559326,-0.015625,0.625,-0.578125
604,1726928782952,-0.21166992,-0.95806885,0.24578857,-1.265625,-0.53125,0.34375
605,1726928783000,-0.18554688,-0.9273071,0.29510498,-0.515625,1.203125,-1.046875
606,1726928783027,-0.2084961,-0.94244385,0.29071045,3.515625,0.09375,1.328125
607,1726928783073,-0.19360352,-0.93096924,0.25628662,-0.546875,0.0,-0.03125
608,1726928783118,-0.17993164,-0.93218994,0.27288818,0.015625,0.3125,-0.140625
609,1726928783148,-0.2109375,-0.95635986,0.2736206,1.375,0.171875,0.609375
610,1726928783192,-0.19702148,-0.9414673,0.2765503,-0.546875,0.28125,-0.6875
611,1726928783237,-0.19262695,-0.9348755,0.2662964,-0.609375,-0.109375,-0.125
612,1726928783268,-0.2084961,-0.94537354,0.27581787,0.265625,0.59375,-0.015625
613,1726928783312,-0.19946289,-0.93536377,0.26409912,-0.359375,0.28125,-0.03125
614,1726928783360,-0.18896484,-0.9414673,0.26800537,-0.4375,-0.625,-0.203125
615,1726928783388,-0.20581055,-0.94732666,0.27313232,-0.6875,-0.765625,-0.046875
616,1726928783432,-0.18920898,-0.94000244,0.27435303,-1.234375,-0.125,-0.125
617,1726928783463,-0.19580078,-0.9338989,0.2711792,-0.390625,0.328125,0.046875
618,1726928783507,-0.20117188,-0.9397583,0.27020264,0.09375,-0.046875,-0.015625
619,1726928783552,-0.1875,-0.94317627,0.26068115,-1.390625,-0.578125,-0.328125
620,1726928783582,-0.1953125,-0.9561157,0.2616577,0.828125,0.6875,0.25
621,1726928783627,-0.19433594,-0.9258423,0.29388428,-0.234375,0.75,-0.765625
622,1726928783673,-0.20507812,-0.95318604,0.24359131,-2.34375,-0.515625,0.34375
623,1726928783702,-0.18603516,-0.92852783,0.2753296,-1.875,0.15625,-1.671875
624,1726928783747,-0.20605469,-0.95025635,0.29437256,2.703125,0.796875,0.890625
625,1726928783792,-0.19677734,-0.93585205,0.26556396,-0.875,0.28125,-0.515625
626,1726928783824,-0.19482422,-0.9402466,0.27215576,-0.28125,0.5625,-0.609375
627,1726928783867,-0.19458008,-0.94317627,0.27557373,0.125,0.21875,-0.1875
628,1726928783913,-0.18798828,-0.94195557,0.26898193,-0.875,0.140625,-0.921875
629,1726928783944,-0.1965332,-0.93634033,0.27313232,-0.5,0.15625,-0.390625
630,1726928783987,-0.19506836,-0.9414673,0.27264404,-0.28125,-0.21875,-0.046875
631,1726928784032,-0.19458008,-0.93634033,0.27215576,-0.828125,-0.484375,-0.453125
632,1726928784063,-0.19628906,-0.9417114,0.2753296,-0.34375,0.609375,-0.28125
633,1726928784107,-0.19580078,-0.93341064,0.28460693,0.171875,0.671875,-0.046875
634,1726928784152,-0.19335938,-0.944397,0.27215576,-0.34375,0.015625,0.109375
635,1726928784182,-0.18554688,-0.9336548,0.2699585,-0.28125,-0.140625,0.53125
636,1726928784227,-0.18310547,-0.942688,0.27581787,-0.4375,-0.359375,0.625
637,1726928784259,-0.18701172,-0.93829346,0.2765503,-0.9375,-0.359375,0.3125
638,1726928784303,-0.19116211,-0.95684814,0.26190186,-0.78125,0.140625,0.75
639,1726928784347,-0.18261719,-0.91900635,0.31121826,1.734375,0.015625,0.21875
640,1726928784377,-0.1965332,-0.9522095,0.24847412,-3.671875,-0.3125,0.21875
641,1726928784422,-0.19213867,-0.9273071,0.28631592,0.015625,-0.34375,0.25
642,1726928784468,-0.18554688,-0.9470825,0.2909546,1.453125,-0.515625,1.015625
643,1726928784499,-0.17236328,-0.93829346,0.2699585,-1.265625,-0.546875,0.140625
644,1726928784542,-0.18334961,-0.9336548,0.2826538,-0.1875,-0.484375,0.59375
645,1726928784587,-0.19165039,-0.9446411,0.2748413,-0.640625,-1.25,0.375
646,1726928784618,-0.17773438,-0.9351196,0.27630615,-1.09375,-1.171875,-0.234375
647,1726928784663,-0.1821289,-0.94073486,0.276062,-0.328125,-0.953125,0.453125
648,1726928784707,-0.18432617,-0.93341064,0.276062,-0.546875,-1.28125,0.1875
649,1726928784737,-0.18237305,-0.9397583,0.28167725,-0.90625,-0.953125,-0.03125
650,1726928784783,-0.17993164,-0.9417114,0.27923584,-0.65625,-0.609375,-0.328125
651,1726928784828,-0.17895508,-0.93463135,0.28045654,-0.625,-1.1875,-0.109375
652,1726928784858,-0.19018555,-0.9434204,0.28045654,-0.5,-0.546875,-0.28125
653,1726928784902,-0.17700195,-0.9360962,0.2723999,-0.390625,-0.546875,-0.171875
654,1726928784947,-0.17480469,-0.94122314,0.2850952,-0.515625,-1.015625,-0.265625
655,1726928784977,-0.18676758,-0.9365845,0.2736206,-1.203125,-0.765625,-0.28125
656,1726928785022,-0.18481445,-0.95440674,0.26263428,-1.375,0.46875,0.03125
657,1726928785052,-0.17749023,-0.9260864,0.309021,1.578125,-0.390625,-0.5
658,1726928785098,-0.1899414,-0.95025635,0.25360107,-4.0,-0.40625,-0.734375
659,1726928785142,-0.19360352,-0.9343872,0.29071045,0.5,0.375,0.015625
660,1726928785174,-0.18286133,-0.9434204,0.2897339,0.609375,-0.5,0.28125
661,1726928785217,-0.17944336,-0.9373169,0.2699585,-1.6875,-0.90625,-0.859375
662,1726928785262,-0.17797852,-0.9302368,0.2909546,0.40625,-0.46875,-0.015625
663,1726928785292,-0.1953125,-0.94244385,0.27703857,-1.125,-1.109375,-0.09375
664,1726928785337,-0.17480469,-0.9314575,0.2814331,-0.828125,-0.796875,-0.546875
665,1726928785382,-0.18579102,-0.9456177,0.277771,0.0,-0.609375,0.1875
666,1726928785412,-0.17871094,-0.9378052,0.2772827,-0.71875,-1.328125,-0.21875
667,1726928785457,-0.17553711,-0.93951416,0.2843628,-0.5,-1.171875,-0.34375
668,1726928785502,-0.19018555,-0.9368286,0.28338623,-0.28125,-1.1875,-0.265625
669,1726928785533,-0.19311523,-0.93463135,0.27972412,-0.546875,-1.625,-0.25
670,1726928785580,-0.18432617,-0.9397583,0.28753662,-0.359375,-1.046875,-0.125
671,1726928785623,-0.19238281,-0.93634033,0.28070068,-0.171875,-1.046875,0.203125
672,1726928785652,-0.18017578,-0.9356079,0.28533936,-0.296875,-1.21875,-0.1875
673,1726928785698,-0.18701172,-0.940979,0.27752686,-0.59375,-1.921875,0.1875
674,1726928785742,-0.18139648,-0.9390259,0.26678467,-1.84375,-1.0,0.03125
675,1726928785772,-0.18554688,-0.93292236,0.3036499,2.265625,-1.40625,-0.03125
676,1726928785818,-0.20288086,-0.94659424,0.24871826,-3.359375,-0.296875,-0.46875
677,1726928785847,-0.20239258,-0.9326782,0.30291748,2.328125,0.28125,0.71875
678,1726928785892,-0.19213867,-0.9512329,0.28289795,1.4375,-1.03125,0.46875
679,1726928785937,-0.18823242,-0.9260864,0.2658081,-1.1875,-0.875,-0.53125
680,1726928785968,-0.17749023,-0.94415283,0.28533936,0.234375,-1.28125,0.265625
681,1726928786012,-0.19677734,-0.94610596,0.27459717,-1.125,-1.171875,-0.3125
682,1726928786058,-0.1809082,-0.9360962,0.2753296,-0.6875,-0.859375,-0.40625
683,1726928786088,-0.18945312,-0.9446411,0.27386475,-0.703125,-1.234375,-0.203125
684,1726928786132,-0.19091797,-0.92852783,0.2892456,-0.09375,-0.78125,-0.296875
685,1726928786180,-0.19091797,-0.94317627,0.27801514,-0.375,-0.59375,-0.4375
686,1726928786208,-0.18920898,-0.94317627,0.28094482,-0.5625,-0.71875,-0.125
687,1726928786252,-0.18554688,-0.942688,0.2765503,-0.453125,-0.6875,-0.171875
688,1726928786298,-0.19042969,-0.94537354,0.28704834,-0.609375,-0.21875,-0.390625
689,1726928786327,-0.18676758,-0.93414307,0.27435303,-0.671875,-0.8125,-0.046875
690,1726928786372,-0.18725586,-0.93585205,0.276062,-1.203125,-1.109375,-0.515625
691,1726928786418,-0.18701172,-0.9661255,0.25115967,-1.640625,-0.640625,-0.328125
692,1726928786448,-0.18164062,-0.92315674,0.3204956,1.953125,-0.9375,-1.4375
693,1726928786492,-0.20751953,-0.954895,0.24066162,-2.890625,-0.703125,-0.9375
694,1726928786537,-0.19189453,-0.9314575,0.30291748,1.359375,-0.265625,-0.625
695,1726928786569,-0.20483398,-0.9534302,0.27850342,0.734375,-0.34375,0.140625
696,1726928786613,-0.19262695,-0.94195557,0.26898193,-1.28125,0.171875,-0.703125
697,1726928786642,-0.1875,-0.9326782,0.28363037,0.921875,-0.109375,-0.140625
698,1726928786687,-0.1928711,-0.9417114,0.2736206,-0.796875,-0.671875,-0.4375
699,1726928786732,-0.18164062,-0.9360962,0.2819214,0.046875,-0.265625,-0.53125
700,1726928786763,-0.19799805,-0.9417114,0.2723999,0.234375,-0.4375,0.046875
701,1726928786807,-0.19799805,-0.93634033,0.2802124,0.09375,-0.671875,-0.125
702,1726928786854,-0.19506836,-0.94195557,0.27264404,-0.296875,-0.96875,0.109375
703,1726928786882,-0.18701172,-0.9373169,0.27679443,-0.34375,-0.8125,0.109375
704,1726928786927,-0.19262695,-0.93707275,0.27850342,-0.25,-0.875,0.15625
705,1726928786972,-0.19116211,-0.93170166,0.27703857,-0.296875,-1.25,-0.03125
706,1726928787003,-0.19262695,-0.93707275,0.27923584,-0.0625,-0.609375,-0.03125
707,1726928787048,-0.19726562,-0.9314575,0.27093506,-0.375,-1.171875,-0.171875
708,1726928787092,-0.1887207,-0.9483032,0.24920654,-2.5,-0.84375,-0.234375
709,1726928787122,-0.19458008,-0.93536377,0.30804443,2.9375,-0.3125,0.265625
710,1726928787168,-0.18408203,-0.94366455,0.22650146,-4.515625,0.484375,-0.828125
711,1726928787212,-0.20532227,-0.94366455,0.31536865,2.421875,-0.25,0.6875
712,1726928787242,-0.19360352,-0.9331665,0.2597046,-0.921875,-0.25,-0.484375
713,1726928787288,-0.1796875,-0.9373169,0.27703857,-0.9375,-0.234375,-0.265625
714,1726928787333,-0.19995117,-0.9351196,0.30316162,1.421875,-0.375,0.265625
715,1726928787364,-0.2006836,-0.9331665,0.260437,-1.390625,-1.0625,-0.484375
716,1726928787407,-0.18701172,-0.94244385,0.27069092,-0.484375,-0.015625,-0.34375
717,1726928787439,-0.20141602,-0.9402466,0.276062,0.046875,-0.421875,0.171875
718,1726928787489,-0.19458008,-0.9348755,0.276062,-0.328125,-0.46875,-0.40625
719,1726928787527,-0.1862793,-0.93634033,0.27020264,-0.609375,-0.453125,-0.234375
720,1726928787558,-0.19067383,-0.94244385,0.2819214,-0.25,-0.09375,-0.1875
721,1726928787602,-0.18945312,-0.9397583,0.27874756,0.109375,-0.046875,-0.046875
722,1726928787648,-0.19482422,-0.9368286,0.27166748,-0.109375,-0.4375,0.015625
723,1726928787677,-0.18896484,-0.94366455,0.2687378,-0.578125,-0.4375,-0.484375
724,1726928787728,-0.19458008,-0.92755127,0.29412842,1.75,-0.234375,0.0
725,1726928787768,-0.18408203,-0.927063,0.27801514,-2.078125,-0.203125,-0.8125
726,1726928787797,-0.19238281,-0.9468384,0.27557373,0.15625,-1.890625,0.203125
727,1726928787842,-0.17333984,-0.9348755,0.27508545,-2.828125,0.359375,-1.515625
728,1726928787888,-0.20141602,-0.94244385,0.29071045,2.75,-0.015625,0.984375
729,1726928787920,-0.1953125,-0.93634033,0.26971436,-0.09375,-0.203125,0.03125
730,1726928787963,-0.18359375,-0.9348755,0.27313232,-0.5,-0.203125,-0.640625
731,1726928788008,-0.19555664,-0.9561157,0.27996826,0.65625,-0.53125,0.390625
732,1726928788038,-0.18725586,-0.93414307,0.2748413,-1.5,-1.15625,-0.703125
733,1726928788087,-0.19848633,-0.93951416,0.2789917,-1.328125,-1.296875,-0.234375
734,1726928788128,-0.19384766,-0.9390259,0.27850342,-1.015625,-1.125,-0.265625
735,1726928788157,-0.19506836,-0.93170166,0.28118896,-0.21875,-0.4375,-0.25
736,1726928788202,-0.19726562,-0.94073486,0.27630615,-0.4375,-0.75,-0.625
737,1726928788232,-0.19506836,-0.9397583,0.28070068,-0.09375,-0.546875,-0.15625
738,1726928788279,-0.19335938,-0.93951416,0.2831421,-0.109375,-0.546875,0.03125
739,1726928788322,-0.18896484,-0.9402466,0.2723999,-0.34375,-0.734375,0.046875
740,1726928788352,-0.18457031,-0.9402466,0.27288818,-0.890625,-0.65625,-0.046875
741,1726928788398,-0.19702148,-0.958313,0.26312256,-0.390625,0.078125,0.421875
742,1726928788444,-0.19091797,-0.9229126,0.31951904,0.96875,-0.53125,-0.4375
743,1726928788473,-0.20117188,-0.9500122,0.25335693,-3.484375,-1.53125,-0.109375
744,1726928788517,-0.19238281,-0.92193604,0.29144287,-1.078125,-0.6875,-0.609375
745,1726928788562,-0.19726562,-0.9495239,0.29266357,0.890625,-1.328125,0.828125
746,1726928788607,-0.1850586,-0.9397583,0.26434326,-2.03125,-1.21875,-0.3125
747,1726928788638,-0.18041992,-0.9404907,0.28167725,-0.15625,-0.375,0.265625
748,1726928788683,-0.20727539,-0.94659424,0.2819214,-0.625,-0.578125,0.09375
749,1726928788713,-0.1850586,-0.93218994,0.28240967,-0.71875,-0.78125,-0.625
750,1726928788757,-0.19238281,-0.94073486,0.2802124,-0.390625,-0.34375,0.1875
751,1726928788804,-0.19091797,-0.9336548,0.2843628,-0.140625,-0.5625,0.328125
752,1726928788833,-0.19018555,-0.9402466,0.2855835,-0.421875,-0.578125,-0.15625
753,1726928788877,-0.19091797,-0.94195557,0.28118896,-0.0625,0.0,-0.203125
754,1726928788922,-0.1899414,-0.9380493,0.28045654,-0.21875,-0.484375,-0.203125
755,1726928788952,-0.18554688,-0.9380493,0.27801514,-0.34375,-0.609375,-0.09375
756,1726928789002,-0.19604492,-0.9348755,0.28656006,-0.21875,-0.359375,-0.1875
757,1726928789027,-0.18774414,-0.94195557,0.2765503,-0.875,-0.234375,-0.40625
758,1726928789073,-0.19335938,-0.960022,0.2645874,0.0,0.453125,0.40625
759,1726928789118,-0.18774414,-0.9221802,0.31072998,1.546875,-0.46875,-0.625
760,1726928789147,-0.19140625,-0.95318604,0.25482178,-3.015625,-0.703125,0.015625
761,1726928789194,-0.19262695,-0.9312134,0.29119873,0.234375,0.09375,-0.375
762,1726928789237,-0.1928711,-0.94854736,0.29632568,1.6875,-0.53125,0.609375
763,1726928789268,-0.19189453,-0.9282837,0.2723999,-1.390625,-0.5625,-0.546875
764,1726928789312,-0.18554688,-0.94317627,0.27996826,0.359375,-0.4375,0.109375
765,1726928789358,-0.20288086,-0.9434204,0.2831421,-0.40625,-0.796875,-0.265625
766,1726928789388,-0.17626953,-0.92926025,0.277771,-0.421875,-1.0625,-0.75
767,1726928789432,-0.19482422,-0.9356079,0.29071045,0.09375,-0.609375,-0.03125
768,1726928789477,-0.19482422,-0.9295044,0.27557373,-0.53125,-0.90625,-0.078125
769,1726928789507,-0.18701172,-0.9421997,0.27972412,-0.34375,-0.6875,-0.25
770,1726928789552,-0.1953125,-0.9378052,0.2814331,-0.34375,-0.1875,-0.171875
771,1726928789597,-0.19018555,-0.9365845,0.27557373,-0.46875,-0.640625,-0.09375
772,1726928789630,-0.1850586,-0.93878174,0.28094482,-0.265625,-0.78125,-0.125
773,1726928789672,-0.19067383,-0.93536377,0.28338623,-0.3125,-0.328125,-0.109375
774,1726928789719,-0.19604492,-0.93634033,0.28045654,-0.5,-0.71875,-0.203125
775,1726928789748,-0.19750977,-0.9319458,0.28704834,1.296875,-1.09375,0.015625
