,Unnamed: 0,timestamp,accel_x,accel_y,accel_z,gyro_x,gyro_y,gyro_z
0,0,1727217896089,-0.19018555,-0.9507446,0.27703857,-0.515625,-0.75,-0.453125
1,1,1727217896129,-0.1977539,-0.95318604,0.27874756,-0.578125,-0.34375,-0.546875
2,2,1727217896169,-0.19311523,-0.95147705,0.2765503,-0.296875,-0.5,-0.15625
3,3,1727217896209,-0.19067383,-0.9546509,0.27874756,-0.4375,-0.5,-0.21875
4,4,1727217896249,-0.19238281,-0.95684814,0.28167725,-0.234375,-0.609375,0.125
5,5,1727217896289,-0.19848633,-0.9585571,0.28607178,0.1875,-0.171875,-0.03125
6,6,1727217896329,-0.203125,-0.9546509,0.2826538,0.125,-0.265625,0.28125
7,7,1727217896369,-0.20092773,-0.95513916,0.27313232,-1.546875,-0.6875,0.25
8,8,1727217896409,-0.20141602,-0.94854736,0.291687,0.859375,-0.375,0.203125
9,9,1727217896449,-0.19628906,-0.9636841,0.2609253,-2.03125,0.78125,-0.515625
10,10,1727217896489,-0.21264648,-0.95269775,0.2814331,1.921875,0.046875,0.109375
11,11,1727217896529,-0.18603516,-0.956604,0.27142334,1.265625,0.9375,-0.265625
12,12,1727217896569,-0.20410156,-0.95635986,0.27264404,0.53125,0.5625,0.0625
13,13,1727217896609,-0.19262695,-0.956604,0.27166748,0.0625,0.453125,0.3125
14,14,1727217896649,-0.19506836,-0.9651489,0.26605225,-0.125,0.1875,0.140625
15,15,1727217896689,-0.19970703,-0.9639282,0.26898193,-0.203125,0.65625,-0.015625
16,16,1727217896729,-0.1965332,-0.9573364,0.28631592,-1.109375,0.328125,-0.140625
17,17,1727217896769,-0.19848633,-0.9619751,0.2772827,-1.828125,0.0625,0.140625
18,18,1727217896809,-0.19824219,-0.95806885,0.28338623,-0.390625,-0.25,0.203125
19,19,1727217896849,-0.19506836,-0.9631958,0.2772827,-0.28125,-0.15625,0.296875
20,20,1727217896889,-0.19580078,-0.9578247,0.27581787,-0.5,-0.125,0.0625
21,21,1727217896929,-0.19726562,-0.95758057,0.276062,-0.4375,0.125,0.09375
22,22,1727217896969,-0.19433594,-0.95806885,0.27581787,-0.515625,0.40625,0.171875
23,23,1727217897009,-0.20092773,-0.9524536,0.27752686,-0.796875,0.40625,-0.046875
24,24,1727217897049,-0.19213867,-0.956604,0.27264404,-0.453125,0.46875,-0.15625
25,25,1727217897089,-0.19360352,-0.9546509,0.2789917,-0.28125,0.359375,0.09375
26,26,1727217897129,-0.19018555,-0.95147705,0.27752686,-0.140625,0.40625,0.21875
27,27,1727217897169,-0.19580078,-0.9522095,0.2826538,0.125,0.4375,0.109375
28,28,1727217897209,-0.19873047,-0.9558716,0.2682495,-1.171875,-0.109375,0.109375
29,29,1727217897249,-0.19482422,-0.9492798,0.29901123,0.953125,0.234375,0.265625
30,30,1727217897289,-0.19213867,-0.96173096,0.2682495,-1.40625,0.859375,-0.203125
31,31,1727217897329,-0.20092773,-0.95513916,0.27703857,1.90625,0.390625,0.28125
32,32,1727217897369,-0.18359375,-0.96539307,0.26727295,1.375,1.03125,0.078125
33,33,1727217897409,-0.19897461,-0.9590454,0.26922607,0.46875,1.125,-0.0625
34,34,1727217897449,-0.18676758,-0.95977783,0.27386475,0.25,1.125,-0.1875
35,35,1727217897489,-0.19458008,-0.958313,0.2658081,-0.0625,0.671875,-0.28125
36,36,1727217897529,-0.18286133,-0.96343994,0.2711792,-0.203125,0.796875,-0.171875
37,37,1727217897569,-0.19018555,-0.9507446,0.27752686,-0.671875,0.75,-0.5
38,38,1727217897609,-0.1940918,-0.9680786,0.262146,-1.40625,0.5,-0.296875
39,39,1727217897649,-0.19140625,-0.9590454,0.27044678,-0.296875,-0.015625,-0.25
40,40,1727217897689,-0.18920898,-0.96051025,0.26361084,-0.390625,0.46875,-0.328125
41,41,1727217897729,-0.19091797,-0.9590454,0.27288818,-0.578125,0.421875,-0.203125
42,42,1727217897769,-0.19165039,-0.9636841,0.27069092,-0.53125,0.265625,-0.3125
43,43,1727217897809,-0.19555664,-0.9570923,0.27166748,-0.375,0.328125,-0.1875
44,44,1727217897849,-0.19897461,-0.95562744,0.27337646,-0.46875,0.40625,-0.421875
45,45,1727217897889,-0.19555664,-0.9595337,0.27313232,-0.46875,0.34375,-0.1875
46,46,1727217897929,-0.19042969,-0.9612427,0.2723999,-0.328125,0.5625,-0.3125
47,47,1727217897969,-0.20019531,-0.9614868,0.277771,-0.21875,0.421875,-0.1875
48,48,1727217898009,-0.19921875,-0.9553833,0.2789917,0.03125,0.453125,-0.078125
49,49,1727217898049,-0.19873047,-0.95635986,0.2748413,-0.109375,0.4375,-0.265625
50,50,1727217898089,-0.19506836,-0.9619751,0.27044678,-1.21875,-0.046875,0.03125
51,51,1727217898129,-0.19921875,-0.94976807,0.2946167,1.078125,0.234375,0.03125
52,52,1727217898169,-0.19189453,-0.9570923,0.26385498,-1.90625,1.03125,-0.484375
53,53,1727217898209,-0.20166016,-0.9561157,0.28460693,2.515625,0.625,-0.046875
54,54,1727217898249,-0.17944336,-0.9631958,0.27044678,1.078125,1.171875,-0.28125
55,55,1727217898289,-0.20361328,-0.9541626,0.27972412,0.078125,0.765625,-0.421875
56,56,1727217898329,-0.19604492,-0.960022,0.27215576,-0.1875,0.84375,-0.421875
57,57,1727217898369,-0.19165039,-0.9595337,0.27191162,-0.390625,0.421875,-0.375
58,58,1727217898409,-0.18945312,-0.960022,0.26849365,-0.234375,0.4375,-0.3125
59,59,1727217898449,-0.19042969,-0.95391846,0.2814331,-0.53125,0.125,-0.4375
60,60,1727217898489,-0.20043945,-0.9558716,0.2741089,-1.28125,0.375,-0.09375
61,61,1727217898529,-0.19628906,-0.9534302,0.2772827,-0.234375,0.3125,-0.109375
62,62,1727217898569,-0.19604492,-0.95758057,0.28094482,-0.5,0.296875,-0.125
63,63,1727217898609,-0.19946289,-0.9517212,0.2772827,-0.421875,0.609375,-0.15625
64,64,1727217898649,-0.20043945,-0.9573364,0.27166748,-0.234375,0.71875,0.0625
65,65,1727217898689,-0.19897461,-0.958313,0.2772827,-0.5,0.640625,0.078125
66,66,1727217898729,-0.19213867,-0.954895,0.2772827,-0.421875,0.8125,0.125
67,67,1727217898769,-0.19213867,-0.95318604,0.27069092,-0.5,0.578125,0.171875
68,68,1727217898809,-0.20019531,-0.9578247,0.2772827,-0.40625,0.484375,0.375
69,69,1727217898849,-0.18896484,-0.9558716,0.27850342,-0.25,0.21875,0.3125
70,70,1727217898889,-0.19482422,-0.9536743,0.27215576,-0.421875,0.265625,0.203125
71,71,1727217898929,-0.1953125,-0.9678345,0.26483154,-1.515625,-0.578125,0.34375
72,72,1727217898969,-0.19384766,-0.94976807,0.28753662,0.015625,0.0,0.375
73,73,1727217899009,-0.18920898,-0.9673462,0.25872803,-1.875,0.953125,-0.15625
74,74,1727217899049,-0.20263672,-0.9439087,0.3085327,2.515625,0.125,0.4375
75,75,1727217899089,-0.17993164,-0.96417236,0.2645874,-0.0625,0.9375,0.0
76,76,1727217899129,-0.20043945,-0.9480591,0.2819214,0.0,0.15625,0.078125
77,77,1727217899169,-0.1850586,-0.96295166,0.27947998,-0.453125,0.421875,0.078125
78,78,1727217899209,-0.19042969,-0.9570923,0.27264404,-0.6875,-0.265625,-0.078125
79,79,1727217899249,-0.19482422,-0.9553833,0.28875732,0.359375,-0.03125,0.21875
80,80,1727217899289,-0.19262695,-0.94244385,0.28460693,-1.03125,-0.546875,-0.234375
81,81,1727217899329,-0.1965332,-0.9619751,0.27557373,-1.4375,0.125,-0.234375
82,82,1727217899369,-0.19360352,-0.95391846,0.27630615,-0.4375,-0.28125,-0.28125
83,83,1727217899409,-0.19091797,-0.96221924,0.27972412,-0.5,-0.078125,-0.0625
84,84,1727217899449,-0.18847656,-0.9541626,0.2772827,-0.640625,0.140625,-0.109375
85,85,1727217899489,-0.18945312,-0.9612427,0.2838745,-0.609375,0.21875,-0.03125
86,86,1727217899529,-0.18969727,-0.95318604,0.27947998,-0.390625,0.203125,0.046875
87,87,1727217899569,-0.18969727,-0.9570923,0.28094482,-0.5,0.234375,-0.09375
88,88,1727217899609,-0.18798828,-0.95880127,0.28045654,-0.5625,0.0,-0.03125
89,89,1727217899649,-0.19042969,-0.95440674,0.28411865,-0.171875,0.5,-0.0625
90,90,1727217899689,-0.19750977,-0.95391846,0.27752686,0.15625,0.859375,0.203125
91,91,1727217899729,-0.19116211,-0.9534302,0.27874756,0.09375,0.4375,0.296875
92,92,1727217899769,-0.19262695,-0.9612427,0.28753662,0.875,0.21875,0.140625
93,93,1727217899809,-0.18164062,-0.9578247,0.28045654,-0.1875,0.484375,-0.640625
94,94,1727217899849,-0.18847656,-0.95684814,0.2880249,0.28125,-0.265625,-0.296875
95,95,1727217899889,-0.18920898,-0.9458618,0.28631592,-0.1875,-0.671875,-0.71875
96,96,1727217899929,-0.19628906,-0.9661255,0.26287842,-0.1875,0.671875,-0.359375
97,97,1727217899969,-0.19067383,-0.9500122,0.27288818,0.984375,0.390625,-0.046875
98,98,1727217900009,-0.1887207,-0.95440674,0.28167725,-0.078125,0.4375,-0.28125
99,99,1727217900049,-0.18945312,-0.96343994,0.277771,-0.078125,0.140625,-0.328125
100,100,1727217900089,-0.1940918,-0.95758057,0.27337646,-0.34375,-0.296875,-0.125
101,101,1727217900129,-0.19042969,-0.95880127,0.262146,-1.5625,0.0,-0.3125
102,102,1727217900169,-0.19360352,-0.960022,0.28289795,0.171875,-0.09375,-0.375
103,103,1727217900209,-0.18969727,-0.9612427,0.277771,-0.71875,-0.359375,-0.140625
104,104,1727217900249,-0.1899414,-0.9522095,0.28167725,-0.6875,-0.1875,-0.203125
105,105,1727217900289,-0.19213867,-0.9546509,0.27947998,-0.546875,0.0625,-0.515625
106,106,1727217900329,-0.1862793,-0.9619751,0.27679443,-0.609375,-0.140625,-0.484375
107,107,1727217900369,-0.19848633,-0.95806885,0.276062,-0.78125,-0.171875,-0.421875
108,108,1727217900409,-0.19384766,-0.954895,0.27874756,-0.3125,-0.03125,-0.1875
109,109,1727217900449,-0.19238281,-0.95513916,0.27874756,-0.5,-0.109375,-0.078125
110,110,1727217900489,-0.19360352,-0.9619751,0.27825928,-0.578125,-0.125,-0.203125
111,111,1727217900529,-0.19165039,-0.9636841,0.27972412,-0.40625,-0.1875,-0.25
112,112,1727217900569,-0.1977539,-0.9585571,0.2850952,-0.25,-0.359375,-0.03125
113,113,1727217900609,-0.19921875,-0.95880127,0.2819214,0.140625,0.0,-0.234375
114,114,1727217900649,-0.20239258,-0.94976807,0.2850952,0.8125,0.234375,-0.40625
115,115,1727217900689,-0.19018555,-0.9517212,0.27923584,-0.28125,0.671875,-0.640625
116,116,1727217900729,-0.19238281,-0.95806885,0.28411865,0.4375,0.03125,-0.25
117,117,1727217900769,-0.1928711,-0.9456177,0.2929077,0.3125,0.0625,-0.640625
118,118,1727217900809,-0.20288086,-0.9612427,0.26239014,-0.234375,1.078125,-0.34375
119,119,1727217900849,-0.19360352,-0.95391846,0.26507568,1.21875,0.234375,-0.234375
120,120,1727217900889,-0.20092773,-0.95977783,0.2711792,0.359375,0.953125,-0.53125
121,121,1727217900929,-0.19165039,-0.9612427,0.2694702,-0.125,0.515625,-0.5
122,122,1727217900969,-0.19921875,-0.9590454,0.27288818,-0.234375,0.140625,-0.125
123,123,1727217901009,-0.19995117,-0.9612427,0.27215576,-1.28125,0.3125,-0.140625
124,124,1727217901049,-0.19970703,-0.9546509,0.2819214,0.296875,0.234375,-0.609375
125,125,1727217901089,-0.20092773,-0.9595337,0.27996826,-0.828125,0.359375,-0.28125
126,126,1727217901129,-0.20092773,-0.9534302,0.27801514,-0.40625,0.078125,-0.171875
127,127,1727217901169,-0.20141602,-0.95684814,0.276062,-0.328125,0.59375,-0.3125
128,128,1727217901209,-0.19897461,-0.9573364,0.27557373,-0.265625,0.359375,-0.203125
129,129,1727217901249,-0.19506836,-0.96343994,0.2765503,-0.546875,0.46875,-0.15625
130,130,1727217901289,-0.2006836,-0.96173096,0.27581787,-0.296875,0.53125,-0.140625
131,131,1727217901329,-0.2019043,-0.9573364,0.27874756,-0.46875,0.5,-0.234375
132,132,1727217901369,-0.20043945,-0.9570923,0.2772827,-0.375,0.28125,0.0
133,133,1727217901409,-0.19628906,-0.95147705,0.27191162,-0.375,0.40625,0.03125
134,134,1727217901449,-0.19824219,-0.95562744,0.276062,-0.28125,0.1875,0.015625
135,135,1727217901489,-0.20361328,-0.95806885,0.2814331,-0.21875,0.15625,0.21875
136,136,1727217901529,-0.20166016,-0.9561157,0.27288818,-0.15625,0.46875,-0.015625
137,137,1727217901569,-0.19628906,-0.9607544,0.27386475,-0.0625,0.234375,0.0625
138,138,1727217901609,-0.19506836,-0.9607544,0.27386475,-0.1875,0.921875,-0.59375
139,139,1727217901649,-0.19555664,-0.9631958,0.27435303,-0.296875,0.421875,-0.171875
140,140,1727217901689,-0.20703125,-0.9456177,0.29925537,1.71875,-0.0625,-0.34375
141,141,1727217901729,-0.19604492,-0.9585571,0.26434326,-0.234375,1.296875,-0.25
142,142,1727217901769,-0.19897461,-0.9475708,0.27288818,0.90625,0.671875,-0.109375
143,143,1727217901809,-0.19946289,-0.96173096,0.2741089,0.1875,0.828125,-0.09375
144,144,1727217901849,-0.19360352,-0.95880127,0.26678467,0.078125,0.625,-0.25
145,145,1727217901889,-0.20141602,-0.9529419,0.2748413,-0.109375,0.328125,0.03125
146,146,1727217901929,-0.19677734,-0.9631958,0.2711792,-1.640625,0.109375,-0.0625
147,147,1727217901969,-0.20092773,-0.95098877,0.28240967,0.078125,0.34375,-0.265625
148,148,1727217902009,-0.19360352,-0.96881104,0.2753296,-0.375,0.578125,-0.28125
149,149,1727217902049,-0.20703125,-0.9524536,0.2753296,-0.15625,0.515625,-0.328125
150,150,1727217902089,-0.19921875,-0.95318604,0.27044678,-0.46875,0.59375,-0.328125
151,151,1727217902129,-0.20239258,-0.95391846,0.27630615,-0.5625,0.28125,-0.25
152,152,1727217902169,-0.19116211,-0.9585571,0.27801514,-0.171875,0.546875,-0.265625
153,153,1727217902209,-0.19995117,-0.94976807,0.2741089,-0.5,0.34375,-0.203125
154,154,1727217902249,-0.20043945,-0.9602661,0.2723999,-0.40625,0.375,0.015625
155,155,1727217902289,-0.2006836,-0.954895,0.27386475,-0.59375,0.140625,0.015625
156,156,1727217902329,-0.1977539,-0.95758057,0.27703857,-0.328125,-0.21875,0.078125
157,157,1727217902369,-0.19116211,-0.9627075,0.2765503,-0.140625,0.109375,0.109375
158,158,1727217902409,-0.19921875,-0.94854736,0.27972412,-0.203125,-0.28125,0.0
159,159,1727217902449,-0.2019043,-0.95196533,0.2699585,-1.625,-0.390625,-0.046875
160,160,1727217902489,-0.21069336,-0.94854736,0.29241943,0.640625,-0.140625,0.09375
161,161,1727217902529,-0.19482422,-0.9673462,0.25726318,-2.109375,0.4375,-0.25
162,162,1727217902569,-0.20898438,-0.95440674,0.29681396,2.546875,0.6875,0.046875
163,163,1727217902609,-0.18896484,-0.9631958,0.2699585,0.8125,1.015625,-0.078125
164,164,1727217902649,-0.2043457,-0.95440674,0.27923584,0.515625,0.984375,-0.125
165,165,1727217902689,-0.19824219,-0.960022,0.27337646,0.109375,0.875,-0.078125
166,166,1727217902729,-0.19360352,-0.95684814,0.26531982,-0.3125,0.40625,-0.125
167,167,1727217902769,-0.20092773,-0.95635986,0.2753296,-0.09375,0.71875,-0.15625
168,168,1727217902809,-0.1928711,-0.9470825,0.28778076,-0.1875,0.53125,-0.46875
169,169,1727217902849,-0.20166016,-0.95513916,0.27581787,-1.3125,0.8125,-0.171875
170,170,1727217902889,-0.1899414,-0.95977783,0.27093506,-0.203125,0.5625,-0.03125
171,171,1727217902929,-0.1965332,-0.95562744,0.27337646,-0.03125,0.515625,0.171875
172,172,1727217902969,-0.19042969,-0.95635986,0.26971436,-0.34375,0.75,-0.140625
173,173,1727217903009,-0.1977539,-0.95269775,0.27703857,-0.265625,0.9375,-0.0625
174,174,1727217903049,-0.1940918,-0.9500122,0.2789917,-0.34375,0.734375,-0.28125
175,175,1727217903089,-0.1965332,-0.95758057,0.2748413,-0.46875,0.84375,-0.15625
176,176,1727217903129,-0.1965332,-0.9585571,0.28045654,-0.34375,0.671875,-0.15625
177,177,1727217903169,-0.19213867,-0.9631958,0.2699585,-0.1875,0.328125,0.109375
178,178,1727217903209,-0.1940918,-0.95196533,0.2789917,-0.1875,0.65625,0.046875
179,179,1727217903249,-0.19189453,-0.958313,0.27313232,-0.578125,0.421875,-0.0625
180,180,1727217903289,-0.19555664,-0.9668579,0.262146,-1.34375,-0.171875,0.046875
181,181,1727217903329,-0.20263672,-0.94903564,0.28997803,0.171875,0.359375,-0.1875
182,182,1727217903369,-0.19116211,-0.96759033,0.24920654,-1.375,1.078125,-0.515625
183,183,1727217903409,-0.20703125,-0.94366455,0.3143921,2.328125,0.5,-0.078125
184,184,1727217903449,-0.18969727,-0.9631958,0.2658081,-0.15625,0.90625,-0.25
185,185,1727217903489,-0.20214844,-0.95391846,0.27386475,0.78125,0.921875,-0.171875
186,186,1727217903529,-0.1965332,-0.95562744,0.27874756,0.609375,0.71875,0.265625
187,187,1727217903569,-0.19555664,-0.96221924,0.27288818,0.0,0.53125,0.078125
188,188,1727217903609,-0.1940918,-0.94781494,0.28729248,0.5625,0.296875,0.359375
189,189,1727217903649,-0.18823242,-0.95098877,0.2789917,-1.0625,-0.25,-0.359375
190,190,1727217903689,-0.20483398,-0.96051025,0.2687378,-1.890625,-0.25,-0.4375
191,191,1727217903729,-0.18701172,-0.9536743,0.27166748,-0.796875,-1.015625,-0.390625
192,192,1727217903769,-0.20141602,-0.9561157,0.2814331,-0.796875,-0.796875,-0.265625
193,193,1727217903809,-0.20385742,-0.95758057,0.27996826,-0.6875,-0.421875,-0.5
194,194,1727217903849,-0.19921875,-0.9534302,0.27825928,-0.515625,-0.421875,-0.296875
195,195,1727217903889,-0.19921875,-0.9561157,0.27215576,-0.53125,-0.265625,-0.421875
196,196,1727217903929,-0.19848633,-0.96099854,0.28045654,-0.640625,0.15625,-0.390625
197,197,1727217903969,-0.19140625,-0.9607544,0.276062,-0.640625,0.046875,-0.296875
198,198,1727217904009,-0.19726562,-0.9561157,0.27972412,-0.328125,-0.46875,-0.125
199,199,1727217904049,-0.20214844,-0.9512329,0.27801514,-0.046875,-0.40625,-0.109375
200,200,1727217904089,-0.19726562,-0.9624634,0.2789917,0.546875,-0.5,0.1875
201,201,1727217904129,-0.1887207,-0.9570923,0.27947998,-0.40625,-0.15625,-0.3125
202,202,1727217904169,-0.2006836,-0.9541626,0.2843628,0.28125,-0.140625,0.0
203,203,1727217904209,-0.1953125,-0.9456177,0.2819214,-0.484375,-0.671875,-0.578125
204,204,1727217904249,-0.20678711,-0.9624634,0.26287842,-0.21875,0.46875,0.078125
205,205,1727217904289,-0.19726562,-0.9492798,0.26800537,0.65625,0.234375,-0.09375
206,206,1727217904329,-0.20019531,-0.9546509,0.27972412,-0.0625,0.5,-0.265625
207,207,1727217904369,-0.1965332,-0.9573364,0.27874756,-0.15625,0.015625,-0.015625
208,208,1727217904409,-0.19262695,-0.95928955,0.27435303,-0.546875,-0.15625,0.109375
209,209,1727217904449,-0.19335938,-0.9602661,0.26605225,-1.65625,0.125,-0.0625
210,210,1727217904489,-0.2006836,-0.9558716,0.27874756,-0.046875,-0.21875,-0.484375
211,211,1727217904529,-0.20043945,-0.95562744,0.27825928,-0.859375,-0.1875,-0.25
212,212,1727217904569,-0.20507812,-0.958313,0.27435303,-0.65625,-0.21875,-0.078125
213,213,1727217904609,-0.20507812,-0.9570923,0.2765503,-0.640625,0.09375,-0.21875
214,214,1727217904649,-0.1977539,-0.9534302,0.27874756,-0.265625,0.140625,-0.234375
215,215,1727217904689,-0.19921875,-0.9541626,0.27972412,-0.40625,0.25,0.03125
216,216,1727217904729,-0.20239258,-0.9561157,0.28070068,-0.078125,0.34375,0.15625
217,217,1727217904769,-0.20166016,-0.9561157,0.28167725,-0.546875,0.375,0.0625
218,218,1727217904809,-0.19921875,-0.958313,0.28216553,-0.296875,0.0625,0.09375
219,219,1727217904849,-0.20019531,-0.9561157,0.2736206,-0.28125,-0.171875,0.234375
220,220,1727217904889,-0.20043945,-0.9529419,0.28460693,-0.1875,0.0,0.171875
221,221,1727217904929,-0.18701172,-0.9624634,0.27435303,-0.21875,0.125,0.15625
222,222,1727217904969,-0.19580078,-0.9685669,0.26727295,-1.0,-0.21875,0.0625
223,223,1727217905009,-0.19824219,-0.9517212,0.28070068,0.046875,0.1875,-0.0625
224,224,1727217905049,-0.20410156,-0.9636841,0.27264404,-0.65625,0.84375,-0.40625
225,225,1727217905089,-0.20581055,-0.94244385,0.3143921,2.84375,0.390625,-0.015625
226,226,1727217905129,-0.1875,-0.9639282,0.26654053,0.53125,1.28125,0.0625
227,227,1727217905169,-0.19311523,-0.9517212,0.26898193,1.09375,0.125,0.3125
228,228,1727217905209,-0.19897461,-0.9553833,0.28289795,0.25,0.921875,-0.046875
229,229,1727217905249,-0.19238281,-0.95391846,0.2736206,0.296875,0.40625,0.109375
230,230,1727217905289,-0.20043945,-0.9595337,0.27044678,-0.40625,0.0,0.21875
231,231,1727217905329,-0.19604492,-0.96099854,0.2658081,-1.828125,0.421875,-0.0625
232,232,1727217905369,-0.20214844,-0.9541626,0.27679443,-0.265625,0.3125,-0.28125
233,233,1727217905409,-0.19750977,-0.9570923,0.28411865,-0.328125,0.625,-0.296875
234,234,1727217905449,-0.20117188,-0.958313,0.27850342,-0.375,0.515625,-0.09375
235,235,1727217905489,-0.19384766,-0.95684814,0.2736206,-0.265625,0.8125,-0.25
236,236,1727217905529,-0.1965332,-0.95440674,0.27703857,-0.3125,0.34375,-0.109375
237,237,1727217905569,-0.19628906,-0.95880127,0.27264404,-0.65625,0.484375,-0.125
238,238,1727217905609,-0.19604492,-0.9470825,0.27752686,-0.484375,0.40625,-0.015625
239,239,1727217905649,-0.19482422,-0.9561157,0.27703857,-0.46875,0.46875,0.015625
240,240,1727217905689,-0.19702148,-0.9612427,0.28118896,-0.375,0.15625,0.109375
241,241,1727217905729,-0.19458008,-0.9627075,0.2802124,-0.328125,0.109375,0.3125
242,242,1727217905769,-0.19384766,-0.9536743,0.27435303,-0.375,0.125,0.015625
243,243,1727217905809,-0.19897461,-0.9573364,0.27679443,-0.375,0.25,0.125
244,244,1727217905849,-0.19702148,-0.956604,0.27679443,-0.171875,0.390625,0.125
245,245,1727217905889,-0.19873047,-0.9636841,0.277771,-0.109375,0.375,-0.046875
246,246,1727217905929,-0.18969727,-0.9680786,0.2687378,-1.296875,-0.078125,0.15625
247,247,1727217905969,-0.19702148,-0.9524536,0.28460693,0.125,0.34375,-0.015625
248,248,1727217906009,-0.19799805,-0.9661255,0.26898193,-1.109375,0.65625,-0.203125
249,249,1727217906049,-0.20483398,-0.9421997,0.31048584,3.359375,0.1875,0.03125
250,250,1727217906089,-0.1850586,-0.97198486,0.2699585,0.515625,1.359375,-0.3125
251,251,1727217906129,-0.20483398,-0.9500122,0.27581787,0.90625,0.21875,0.09375
252,252,1727217906169,-0.19677734,-0.95684814,0.27044678,0.265625,0.65625,-0.03125
253,253,1727217906209,-0.19580078,-0.9595337,0.27288818,0.296875,0.484375,-0.046875
254,254,1727217906249,-0.1899414,-0.9553833,0.27508545,0.0,0.46875,-0.125
255,255,1727217906289,-0.1953125,-0.9607544,0.26239014,-1.484375,0.5625,-0.25
256,256,1727217906329,-0.19824219,-0.956604,0.27581787,0.078125,0.421875,-0.390625
257,257,1727217906369,-0.18701172,-0.9644165,0.28045654,-0.109375,0.53125,-0.28125
258,258,1727217906409,-0.19262695,-0.9541626,0.27825928,-0.21875,0.484375,-0.28125
259,259,1727217906449,-0.19335938,-0.95806885,0.2699585,-0.4375,0.703125,-0.203125
260,260,1727217906489,-0.19580078,-0.95562744,0.277771,-0.359375,0.296875,-0.25
261,261,1727217906529,-0.1899414,-0.95318604,0.27020264,-0.46875,0.40625,-0.328125
262,262,1727217906569,-0.19384766,-0.9522095,0.27874756,-0.390625,0.515625,-0.171875
263,263,1727217906609,-0.19604492,-0.95513916,0.26556396,-0.640625,0.78125,-0.21875
264,264,1727217906649,-0.19458008,-0.95147705,0.27850342,-0.40625,0.828125,-0.28125
265,265,1727217906689,-0.20263672,-0.9541626,0.27630615,-0.34375,0.53125,-0.234375
266,266,1727217906729,-0.19628906,-0.95440674,0.27752686,-0.3125,0.421875,-0.1875
267,267,1727217906769,-0.19677734,-0.9536743,0.27703857,-0.171875,0.265625,0.09375
268,268,1727217906809,-0.19165039,-0.9561157,0.2814331,0.015625,0.515625,0.140625
269,269,1727217906849,-0.19873047,-0.95440674,0.28070068,0.078125,0.3125,-0.03125
270,270,1727217906889,-0.20385742,-0.956604,0.2748413,-1.28125,0.296875,-0.046875
271,271,1727217906929,-0.20336914,-0.95269775,0.29534912,0.484375,0.421875,0.234375
272,272,1727217906969,-0.18481445,-0.9644165,0.25457764,-2.125,0.875,-0.3125
273,273,1727217907009,-0.2084961,-0.958313,0.2970581,3.03125,0.71875,0.125
274,274,1727217907049,-0.17822266,-0.96466064,0.2592163,0.75,1.078125,-0.15625
275,275,1727217907089,-0.20703125,-0.9578247,0.2711792,0.5,0.546875,-0.109375
276,276,1727217907129,-0.1875,-0.96295166,0.27166748,-0.15625,0.734375,-0.09375
277,277,1727217907169,-0.1965332,-0.95098877,0.26922607,-0.21875,0.65625,-0.1875
278,278,1727217907209,-0.1928711,-0.9573364,0.27801514,0.359375,0.734375,-0.1875
279,279,1727217907249,-0.19018555,-0.9505005,0.28240967,-0.546875,0.234375,-0.421875
280,280,1727217907289,-0.19628906,-0.9619751,0.27069092,-1.453125,0.625,-0.40625
281,281,1727217907329,-0.18652344,-0.96099854,0.26849365,-0.5,0.265625,-0.421875
282,282,1727217907369,-0.18847656,-0.95880127,0.27825928,-0.265625,0.15625,-0.34375
283,283,1727217907409,-0.19067383,-0.9595337,0.2753296,-0.40625,0.515625,-0.3125
284,284,1727217907449,-0.1977539,-0.95562744,0.2723999,-0.3125,0.15625,-0.15625
285,285,1727217907489,-0.19165039,-0.9595337,0.276062,-0.359375,0.21875,0.140625
286,286,1727217907529,-0.1940918,-0.9524536,0.28045654,-0.4375,0.421875,-0.15625
287,287,1727217907569,-0.19677734,-0.96099854,0.28045654,-0.4375,0.484375,-0.15625
288,288,1727217907609,-0.19360352,-0.9624634,0.27557373,-0.296875,0.140625,-0.171875
289,289,1727217907649,-0.19580078,-0.95880127,0.27825928,-0.4375,-0.296875,-0.046875
290,290,1727217907689,-0.1887207,-0.95758057,0.2765503,-0.171875,0.015625,0.0625
291,291,1727217907729,-0.19384766,-0.9536743,0.27508545,-0.40625,-0.390625,-0.15625
292,292,1727217907769,-0.19921875,-0.95880127,0.26849365,-2.15625,-0.96875,0.109375
293,293,1727217907809,-0.2043457,-0.94854736,0.28582764,0.015625,-0.59375,0.078125
294,294,1727217907849,-0.1928711,-0.97003174,0.2538452,-2.0,0.109375,-0.328125
295,295,1727217907889,-0.20410156,-0.9468384,0.31072998,2.265625,-0.515625,-0.1875
296,296,1727217907929,-0.18408203,-0.9636841,0.26483154,-0.078125,-0.140625,-0.1875
297,297,1727217907969,-0.1965332,-0.9553833,0.27703857,0.078125,-0.671875,-0.078125
298,298,1727217908009,-0.19628906,-0.9668579,0.2772827,-0.265625,-0.28125,-0.125
299,299,1727217908049,-0.19995117,-0.9624634,0.27435303,-0.203125,-0.5,-0.140625
300,300,1727217908089,-0.19677734,-0.9495239,0.28826904,0.375,-0.3125,0.125
301,301,1727217908129,-0.19946289,-0.954895,0.27459717,-1.859375,-0.375,-0.09375
302,302,1727217908169,-0.20117188,-0.9612427,0.27337646,-1.34375,0.015625,-0.21875
303,303,1727217908209,-0.19970703,-0.95562744,0.2753296,-0.65625,-0.234375,-0.265625
304,304,1727217908249,-0.1977539,-0.95391846,0.2819214,-0.46875,-0.09375,-0.21875
305,305,1727217908289,-0.1875,-0.9534302,0.27508545,-0.734375,0.296875,-0.34375
306,306,1727217908329,-0.19677734,-0.96099854,0.27801514,-0.578125,0.171875,-0.375
307,307,1727217908369,-0.20092773,-0.95684814,0.27996826,-0.546875,0.34375,-0.265625
308,308,1727217908409,-0.2006836,-0.9561157,0.276062,-0.390625,0.453125,-0.078125
309,309,1727217908449,-0.19482422,-0.956604,0.27825928,-0.453125,0.21875,-0.21875
310,310,1727217908489,-0.20239258,-0.9553833,0.28094482,-0.546875,0.03125,-0.171875
311,311,1727217908529,-0.19360352,-0.9524536,0.2826538,-0.390625,-0.109375,0.109375
312,312,1727217908569,-0.19995117,-0.95513916,0.27972412,-0.203125,-0.140625,0.046875
313,313,1727217908609,-0.19702148,-0.9590454,0.2819214,-0.21875,-0.078125,0.09375
314,314,1727217908649,-0.1977539,-0.956604,0.27557373,0.015625,-0.21875,-0.109375
315,315,1727217908689,-0.19067383,-0.95684814,0.2831421,-0.265625,0.171875,-0.5625
316,316,1727217908729,-0.19873047,-0.94903564,0.28240967,0.015625,0.015625,-0.265625
317,317,1727217908769,-0.19677734,-0.9505005,0.293396,0.390625,-0.171875,-0.609375
318,318,1727217908809,-0.20483398,-0.96466064,0.26361084,-0.40625,0.875,-0.34375
319,319,1727217908849,-0.19702148,-0.9483032,0.2772827,0.921875,0.34375,-0.140625
320,320,1727217908889,-0.20507812,-0.96221924,0.277771,0.21875,0.828125,-0.296875
321,321,1727217908929,-0.19360352,-0.9570923,0.276062,-0.09375,0.71875,-0.140625
322,322,1727217908969,-0.19799805,-0.9546509,0.27386475,-0.359375,0.34375,-0.09375
323,323,1727217909009,-0.19995117,-0.95806885,0.27044678,-1.015625,0.34375,-0.375
324,324,1727217909049,-0.20239258,-0.94659424,0.28948975,0.03125,0.484375,-0.671875
325,325,1727217909089,-0.19897461,-0.96099854,0.2753296,-0.90625,0.421875,-0.09375
326,326,1727217909129,-0.19897461,-0.9534302,0.27972412,-0.234375,0.25,-0.046875
327,327,1727217909169,-0.19824219,-0.954895,0.27825928,-0.234375,0.53125,-0.25
328,328,1727217909209,-0.19873047,-0.9553833,0.2772827,-0.1875,0.390625,-0.171875
329,329,1727217909249,-0.20361328,-0.95684814,0.276062,-0.484375,0.53125,-0.140625
330,330,1727217909289,-0.19628906,-0.95928955,0.27679443,-0.375,0.5625,-0.046875
331,331,1727217909329,-0.19580078,-0.9573364,0.28094482,-0.328125,0.671875,-0.078125
332,332,1727217909369,-0.19946289,-0.9524536,0.27947998,-0.296875,0.53125,0.015625
333,333,1727217909409,-0.19726562,-0.9536743,0.2819214,-0.34375,0.4375,0.078125
334,334,1727217909449,-0.19921875,-0.9624634,0.27972412,-0.296875,0.140625,0.015625
335,335,1727217909489,-0.20336914,-0.958313,0.28118896,0.03125,0.15625,0.046875
336,336,1727217909529,-0.20043945,-0.95562744,0.27630615,0.046875,0.296875,0.046875
337,337,1727217909569,-0.19018555,-0.9636841,0.2694702,-0.484375,0.03125,0.046875
338,338,1727217909609,-0.19360352,-0.9627075,0.277771,-0.0625,0.421875,-0.3125
339,339,1727217909649,-0.20117188,-0.9573364,0.27459717,-0.453125,0.84375,-0.21875
340,340,1727217909689,-0.20214844,-0.94317627,0.30096436,2.03125,0.25,-0.296875
341,341,1727217909729,-0.19482422,-0.97052,0.26849365,-0.125,1.25,-0.28125
342,342,1727217909769,-0.19848633,-0.94854736,0.26922607,1.5,-0.09375,0.046875
343,343,1727217909809,-0.19897461,-0.96539307,0.27020264,0.875,1.0625,-0.28125
344,344,1727217909849,-0.19458008,-0.958313,0.26654053,0.828125,0.59375,0.140625
345,345,1727217909889,-0.19677734,-0.9607544,0.26971436,0.0,0.265625,0.03125
346,346,1727217909929,-0.19360352,-0.9619751,0.25775146,-1.09375,0.421875,-0.03125
347,347,1727217909969,-0.19873047,-0.95562744,0.2765503,0.546875,0.234375,-0.1875
348,348,1727217910009,-0.20263672,-0.9612427,0.26776123,0.171875,0.65625,-0.046875
349,349,1727217910049,-0.19750977,-0.9524536,0.27215576,-0.09375,0.359375,-0.015625
350,350,1727217910089,-0.19116211,-0.9612427,0.27020264,-0.3125,0.75,-0.21875
351,351,1727217910129,-0.19873047,-0.95269775,0.27703857,-0.640625,0.5625,-0.21875
352,352,1727217910169,-0.19458008,-0.9678345,0.26776123,-0.734375,0.671875,-0.453125
353,353,1727217910209,-0.19970703,-0.9534302,0.27581787,-0.59375,0.6875,-0.328125
354,354,1727217910249,-0.19091797,-0.95635986,0.27288818,-0.703125,0.890625,-0.421875
355,355,1727217910289,-0.19677734,-0.96173096,0.27581787,-0.515625,0.90625,-0.171875
356,356,1727217910329,-0.1928711,-0.9536743,0.27850342,-0.5,0.609375,-0.21875
357,357,1727217910369,-0.19311523,-0.958313,0.27337646,-0.1875,0.546875,-0.09375
358,358,1727217910409,-0.20141602,-0.9612427,0.2711792,-0.40625,0.609375,-0.203125
359,359,1727217910449,-0.2043457,-0.95635986,0.27508545,-0.125,0.59375,-0.265625
360,360,1727217910489,-0.19824219,-0.9614868,0.2772827,0.546875,0.828125,-0.078125
361,361,1727217910529,-0.17993164,-0.9585571,0.27215576,-0.234375,1.1875,-0.625
362,362,1727217910569,-0.19677734,-0.95440674,0.2819214,0.15625,0.90625,-0.078125
363,363,1727217910609,-0.19165039,-0.9500122,0.2826538,-0.0625,0.3125,-0.46875
364,364,1727217910649,-0.19873047,-0.9685669,0.26483154,-0.171875,0.53125,0.015625
365,365,1727217910689,-0.19824219,-0.9546509,0.26605225,0.953125,0.734375,-0.078125
366,366,1727217910729,-0.20117188,-0.96051025,0.2736206,0.203125,0.890625,-0.359375
367,367,1727217910769,-0.19042969,-0.9656372,0.2658081,-0.203125,0.71875,-0.28125
368,368,1727217910809,-0.19995117,-0.9570923,0.2682495,-0.703125,0.53125,-0.125
369,369,1727217910849,-0.19750977,-0.95513916,0.26385498,-0.96875,0.875,-0.296875
370,370,1727217910889,-0.1928711,-0.956604,0.28338623,-0.0625,1.09375,-0.53125
371,371,1727217910929,-0.1940918,-0.96417236,0.2753296,-0.640625,1.625,-0.140625
372,372,1727217910969,-0.19311523,-0.9534302,0.27581787,-0.25,0.9375,-0.375
373,373,1727217911009,-0.19506836,-0.95806885,0.2699585,-0.4375,1.203125,-0.5
374,374,1727217911049,-0.19921875,-0.9595337,0.27044678,-0.296875,1.484375,-0.515625
375,375,1727217911089,-0.19335938,-0.954895,0.2748413,-0.1875,1.328125,-0.3125
376,376,1727217911129,-0.19506836,-0.9573364,0.2741089,-0.15625,1.0625,-0.484375
377,377,1727217911169,-0.19213867,-0.9578247,0.27435303,-0.21875,1.453125,-0.3125
378,378,1727217911209,-0.1977539,-0.9546509,0.27093506,0.03125,0.984375,-0.25
379,379,1727217911249,-0.19702148,-0.956604,0.2748413,-0.03125,0.6875,-0.0625
380,380,1727217911289,-0.19799805,-0.9529419,0.27752686,0.125,0.578125,0.0625
381,381,1727217911329,-0.19604492,-0.9602661,0.277771,0.25,0.125,0.09375
382,382,1727217911369,-0.19946289,-0.95977783,0.27337646,-0.15625,0.046875,0.078125
383,383,1727217911409,-0.19384766,-0.96954346,0.26776123,-0.125,0.015625,0.171875
384,384,1727217911449,-0.19165039,-0.95635986,0.27386475,-0.28125,0.296875,-0.40625
385,385,1727217911489,-0.19018555,-0.96295166,0.26556396,-0.390625,0.546875,-0.265625
386,386,1727217911529,-0.19750977,-0.94244385,0.29608154,1.328125,-0.140625,-0.4375
387,387,1727217911569,-0.19360352,-0.9649048,0.25750732,-0.328125,0.59375,-0.09375
388,388,1727217911609,-0.19482422,-0.9463501,0.26849365,0.65625,0.5625,0.015625
389,389,1727217911649,-0.19482422,-0.96539307,0.2741089,-0.15625,0.421875,-0.25
390,390,1727217911689,-0.19360352,-0.9558716,0.26898193,-0.203125,0.359375,-0.078125
391,391,1727217911729,-0.1977539,-0.960022,0.27191162,-0.296875,-0.078125,0.03125
392,392,1727217911769,-0.19482422,-0.9644165,0.25408936,-2.03125,0.265625,-0.109375
393,393,1727217911809,-0.19677734,-0.95928955,0.27093506,-0.171875,0.21875,-0.15625
394,394,1727217911849,-0.19360352,-0.96099854,0.27215576,-0.234375,0.109375,-0.078125
395,395,1727217911889,-0.20117188,-0.95635986,0.2711792,-0.359375,-0.171875,-0.15625
396,396,1727217911929,-0.19458008,-0.95513916,0.2699585,-0.484375,0.3125,-0.203125
397,397,1727217911969,-0.2006836,-0.960022,0.26776123,-0.59375,0.03125,-0.171875
398,398,1727217912009,-0.18969727,-0.954895,0.2711792,-0.34375,0.015625,-0.1875
399,399,1727217912049,-0.19042969,-0.9536743,0.2765503,-0.578125,0.140625,-0.21875
400,400,1727217912089,-0.20483398,-0.9602661,0.27703857,-0.59375,0.078125,-0.046875
401,401,1727217912129,-0.1977539,-0.95269775,0.277771,-0.53125,-0.3125,-0.1875
402,402,1727217912169,-0.19677734,-0.9585571,0.2687378,-0.3125,-0.359375,0.0
403,403,1727217912209,-0.20043945,-0.95806885,0.27142334,-0.109375,-0.390625,-0.015625
404,404,1727217912249,-0.18774414,-0.9529419,0.27020264,-0.46875,-0.53125,0.078125
405,405,1727217912289,-0.20117188,-0.956604,0.26287842,-1.9375,-1.046875,0.015625
406,406,1727217912329,-0.20458984,-0.9534302,0.2855835,0.453125,-0.5625,-0.078125
407,407,1727217912369,-0.19458008,-0.9614868,0.25091553,-2.34375,0.28125,-0.28125
408,408,1727217912409,-0.20605469,-0.94659424,0.29486084,2.59375,-0.375,0.0625
409,409,1727217912449,-0.18725586,-0.9627075,0.26361084,0.5625,0.453125,-0.4375
410,410,1727217912489,-0.2019043,-0.9570923,0.2711792,0.375,0.234375,-0.015625
411,411,1727217912529,-0.19262695,-0.9595337,0.26971436,-0.125,0.375,-0.171875
412,412,1727217912569,-0.19482422,-0.96221924,0.2699585,-0.1875,-0.25,-0.046875
413,413,1727217912609,-0.2055664,-0.9522095,0.27679443,0.5,-0.171875,0.265625
414,414,1727217912649,-0.19360352,-0.9522095,0.27215576,-1.375,-0.296875,-0.375
415,415,1727217912689,-0.203125,-0.954895,0.2645874,-1.4375,-0.078125,-0.09375
416,416,1727217912729,-0.19433594,-0.9573364,0.27313232,-0.53125,-0.09375,-0.046875
417,417,1727217912769,-0.203125,-0.95977783,0.2682495,-0.265625,-0.125,-0.03125
418,418,1727217912809,-0.20166016,-0.9578247,0.2753296,-0.65625,0.234375,-0.265625
419,419,1727217912849,-0.20361328,-0.95635986,0.27703857,-0.515625,0.109375,-0.203125
420,420,1727217912889,-0.20092773,-0.9627075,0.27459717,-0.546875,0.046875,-0.4375
421,421,1727217912929,-0.19384766,-0.956604,0.27801514,-0.390625,0.140625,-0.203125
422,422,1727217912969,-0.20385742,-0.96221924,0.27630615,-0.75,-0.046875,-0.21875
423,423,1727217913009,-0.19750977,-0.9624634,0.2687378,-0.390625,-0.1875,-0.21875
424,424,1727217913049,-0.19213867,-0.95391846,0.2765503,-0.296875,-0.03125,-0.09375
425,425,1727217913089,-0.2019043,-0.95513916,0.27264404,-0.203125,0.09375,-0.140625
426,426,1727217913129,-0.19799805,-0.9570923,0.27801514,-0.09375,-0.125,-0.21875
427,427,1727217913169,-0.19311523,-0.95758057,0.27630615,-0.25,0.40625,-0.765625
428,428,1727217913209,-0.20751953,-0.954895,0.27972412,-0.171875,0.078125,-0.265625
429,429,1727217913249,-0.20727539,-0.9463501,0.2892456,0.5625,-0.359375,-0.421875
430,430,1727217913289,-0.20776367,-0.9678345,0.26239014,-0.34375,0.234375,-0.09375
431,431,1727217913329,-0.20117188,-0.9495239,0.2662964,1.015625,-0.015625,0.0625
432,432,1727217913369,-0.21044922,-0.9651489,0.27679443,0.265625,0.484375,-0.25
433,433,1727217913409,-0.19897461,-0.96099854,0.26263428,-0.078125,0.328125,-0.171875
434,434,1727217913449,-0.20825195,-0.960022,0.26556396,-0.453125,0.109375,-0.03125
435,435,1727217913489,-0.21069336,-0.96295166,0.2645874,-1.28125,0.484375,-0.140625
436,436,1727217913529,-0.20776367,-0.9463501,0.28045654,0.203125,0.390625,-0.25
437,437,1727217913569,-0.19750977,-0.95513916,0.27508545,-0.546875,0.328125,-0.15625
438,438,1727217913609,-0.20458984,-0.95269775,0.27337646,-0.390625,0.015625,-0.078125
439,439,1727217913649,-0.20043945,-0.9624634,0.26971436,-0.53125,0.25,-0.3125
440,440,1727217913689,-0.19726562,-0.9505005,0.27215576,-0.390625,0.359375,-0.1875
441,441,1727217913729,-0.19726562,-0.95684814,0.27166748,-0.375,0.296875,-0.34375
442,442,1727217913769,-0.19750977,-0.95562744,0.27825928,-0.25,0.5,-0.28125
443,443,1727217913809,-0.19580078,-0.95806885,0.27801514,-0.328125,0.296875,-0.1875
444,444,1727217913849,-0.20361328,-0.9624634,0.276062,-0.40625,0.125,0.078125
445,445,1727217913889,-0.20605469,-0.95440674,0.27191162,-0.4375,0.15625,0.015625
446,446,1727217913929,-0.20654297,-0.95269775,0.2723999,-0.25,0.0625,0.109375
447,447,1727217913969,-0.19628906,-0.9595337,0.27459717,-0.125,0.25,0.125
448,448,1727217914009,-0.20092773,-0.9524536,0.27337646,0.640625,0.203125,0.09375
449,449,1727217914049,-0.19458008,-0.95318604,0.27703857,-0.171875,1.078125,-0.609375
450,450,1727217914089,-0.20361328,-0.9524536,0.28094482,0.46875,0.453125,0.15625
451,451,1727217914129,-0.19458008,-0.9553833,0.27337646,-0.3125,0.28125,-0.234375
452,452,1727217914169,-0.20703125,-0.9649048,0.26287842,0.125,0.921875,0.234375
453,453,1727217914209,-0.19482422,-0.9492798,0.2645874,1.25,1.0625,0.1875
454,454,1727217914249,-0.20532227,-0.9639282,0.27703857,0.609375,1.015625,-0.125
455,455,1727217914289,-0.19335938,-0.9590454,0.26483154,0.21875,0.78125,0.0
456,456,1727217914329,-0.20605469,-0.9573364,0.27166748,-0.140625,0.453125,0.109375
457,457,1727217914369,-0.19970703,-0.9680786,0.26434326,-0.578125,0.84375,0.015625
458,458,1727217914409,-0.19506836,-0.954895,0.2819214,0.109375,0.875,-0.34375
459,459,1727217914449,-0.19848633,-0.95758057,0.27142334,-1.0,1.046875,-0.1875
460,460,1727217914489,-0.19458008,-0.95635986,0.27191162,-0.125,1.015625,-0.0625
461,461,1727217914529,-0.203125,-0.9517212,0.26727295,-0.640625,1.109375,-0.015625
462,462,1727217914569,-0.19091797,-0.95806885,0.2675171,-0.375,1.046875,-0.125
463,463,1727217914609,-0.20263672,-0.9595337,0.26678467,-0.390625,1.015625,0.0
464,464,1727217914649,-0.19018555,-0.95806885,0.2711792,-0.15625,0.859375,0.0
465,465,1727217914689,-0.19360352,-0.9546509,0.27166748,-0.25,1.15625,-0.109375
466,466,1727217914729,-0.19189453,-0.9553833,0.26776123,-0.328125,0.578125,-0.046875
467,467,1727217914769,-0.19604492,-0.9661255,0.27020264,-0.375,0.546875,0.265625
468,468,1727217914809,-0.19628906,-0.9573364,0.27752686,-0.140625,0.625,0.203125
469,469,1727217914849,-0.1953125,-0.9534302,0.27093506,-0.578125,0.328125,0.109375
470,470,1727217914889,-0.20141602,-0.96417236,0.26116943,-2.0625,-0.234375,-0.015625
471,471,1727217914929,-0.20263672,-0.9458618,0.28875732,-0.09375,0.3125,-0.078125
472,472,1727217914969,-0.1977539,-0.9697876,0.25286865,-2.171875,0.921875,-0.3125
473,473,1727217915009,-0.20605469,-0.94317627,0.307312,2.890625,0.875,-0.171875
474,474,1727217915049,-0.18188477,-0.95758057,0.26605225,0.21875,1.109375,-0.15625
475,475,1727217915089,-0.20288086,-0.9541626,0.27752686,0.140625,0.796875,-0.328125
476,476,1727217915129,-0.18823242,-0.96173096,0.27337646,-0.140625,1.0,-0.265625
477,477,1727217915169,-0.18847656,-0.9644165,0.2748413,-0.203125,0.71875,-0.25
478,478,1727217915209,-0.19628906,-0.95147705,0.2838745,0.578125,0.625,-0.03125
479,479,1727217915249,-0.19067383,-0.9507446,0.27801514,-0.890625,-0.15625,-0.421875
480,480,1727217915289,-0.20581055,-0.960022,0.2694702,-1.546875,0.265625,-0.09375
481,481,1727217915329,-0.18847656,-0.958313,0.27459717,-0.40625,-0.296875,0.0
482,482,1727217915369,-0.19677734,-0.95928955,0.27191162,-0.4375,-0.078125,-0.234375
483,483,1727217915409,-0.19555664,-0.96173096,0.2748413,-0.203125,0.46875,-0.296875
484,484,1727217915449,-0.19311523,-0.9607544,0.27020264,-0.5,0.234375,-0.21875
485,485,1727217915489,-0.19580078,-0.9541626,0.27752686,-0.28125,0.265625,-0.09375
486,486,1727217915529,-0.19580078,-0.9541626,0.27630615,-0.328125,0.375,-0.1875
487,487,1727217915569,-0.19311523,-0.958313,0.2748413,-0.34375,0.0625,-0.1875
488,488,1727217915609,-0.19946289,-0.9546509,0.2819214,-0.046875,-0.234375,0.078125
489,489,1727217915649,-0.19262695,-0.9546509,0.27557373,-0.3125,-0.125,-0.0625
490,490,1727217915689,-0.19458008,-0.9661255,0.276062,0.375,-0.234375,0.09375
491,491,1727217915729,-0.18359375,-0.9561157,0.27825928,-0.390625,0.25,-0.46875
492,492,1727217915769,-0.1965332,-0.9507446,0.27630615,0.125,0.046875,-0.03125
493,493,1727217915809,-0.19677734,-0.9536743,0.27850342,-0.40625,-0.359375,-0.421875
494,494,1727217915849,-0.19824219,-0.96417236,0.26800537,0.21875,0.4375,0.03125
495,495,1727217915889,-0.1953125,-0.94732666,0.2633667,0.953125,0.171875,0.125
496,496,1727217915929,-0.19702148,-0.9602661,0.27874756,0.25,0.40625,-0.125
497,497,1727217915969,-0.18920898,-0.9570923,0.26849365,-0.34375,-0.296875,0.140625
498,498,1727217916009,-0.19506836,-0.9619751,0.26849365,-0.296875,-0.5625,0.28125
499,499,1727217916049,-0.19433594,-0.95880127,0.26141357,-1.484375,-0.515625,0.09375
500,500,1727217916089,-0.19628906,-0.9578247,0.2753296,0.203125,-0.453125,-0.203125
501,501,1727217916129,-0.19726562,-0.9522095,0.27679443,-0.734375,-0.421875,-0.078125
502,502,1727217916169,-0.19995117,-0.95440674,0.27557373,-0.46875,-0.390625,-0.203125
503,503,1727217916209,-0.19140625,-0.9607544,0.276062,-0.59375,0.015625,-0.21875
504,504,1727217916249,-0.19677734,-0.956604,0.26971436,-0.53125,-0.28125,-0.265625
505,505,1727217916289,-0.2006836,-0.96173096,0.27069092,-0.515625,-0.234375,-0.25
506,506,1727217916329,-0.19628906,-0.9536743,0.2741089,-0.40625,-0.015625,-0.09375
507,507,1727217916369,-0.19360352,-0.9558716,0.27752686,-0.6875,-0.296875,-0.109375
508,508,1727217916409,-0.19604492,-0.95880127,0.27313232,-0.515625,-0.296875,-0.21875
509,509,1727217916449,-0.19702148,-0.9644165,0.27435303,-0.40625,-0.484375,0.203125
510,510,1727217916489,-0.19677734,-0.9561157,0.27386475,-0.171875,-0.375,0.078125
511,511,1727217916529,-0.19677734,-0.9561157,0.28460693,0.515625,-0.46875,0.140625
512,512,1727217916569,-0.1899414,-0.95880127,0.27386475,-0.875,0.0,-0.53125
513,513,1727217916609,-0.19799805,-0.9534302,0.2880249,0.59375,-0.234375,0.125
514,514,1727217916649,-0.19482422,-0.95269775,0.27166748,-1.515625,-0.109375,-0.5
515,515,1727217916689,-0.21166992,-0.9636841,0.26654053,0.21875,0.125,0.09375
516,516,1727217916729,-0.18945312,-0.9536743,0.27288818,1.328125,0.265625,-0.125
517,517,1727217916769,-0.20043945,-0.958313,0.27191162,0.171875,0.53125,-0.28125
518,518,1727217916809,-0.19042969,-0.96051025,0.26898193,-0.09375,0.34375,-0.265625
519,519,1727217916849,-0.19726562,-0.9636841,0.26678467,-0.15625,0.109375,-0.109375
520,520,1727217916889,-0.1899414,-0.960022,0.2658081,-0.53125,0.140625,-0.203125
521,521,1727217916929,-0.19555664,-0.94781494,0.28240967,-0.46875,0.234375,-0.5625
522,522,1727217916969,-0.1977539,-0.9639282,0.2765503,-1.453125,0.140625,-0.21875
523,523,1727217917009,-0.19360352,-0.95269775,0.2736206,-0.546875,0.0,-0.25
524,524,1727217917049,-0.20410156,-0.95928955,0.2765503,-0.609375,0.34375,-0.234375
525,525,1727217917089,-0.20214844,-0.9570923,0.26800537,-0.578125,0.375,-0.25
526,526,1727217917129,-0.20336914,-0.95928955,0.28167725,-0.671875,0.46875,-0.234375
527,527,1727217917169,-0.20019531,-0.96051025,0.27386475,-0.546875,0.4375,-0.234375
528,528,1727217917209,-0.20117188,-0.9570923,0.2765503,-0.6875,0.390625,-0.0625
529,529,1727217917249,-0.19799805,-0.9468384,0.277771,-0.484375,0.34375,-0.078125
530,530,1727217917289,-0.19995117,-0.9541626,0.2723999,-0.421875,0.125,-0.046875
531,531,1727217917329,-0.19677734,-0.9529419,0.27020264,-0.25,0.03125,0.1875
532,532,1727217917369,-0.19702148,-0.9546509,0.27825928,-0.09375,0.3125,0.109375
533,533,1727217917409,-0.20629883,-0.94976807,0.28631592,0.390625,0.1875,0.0
534,534,1727217917449,-0.19628906,-0.9570923,0.2694702,-0.796875,0.375,-0.28125
535,535,1727217917489,-0.1977539,-0.95318604,0.29193115,0.546875,0.21875,0.078125
536,536,1727217917529,-0.19116211,-0.95684814,0.26507568,-1.515625,0.4375,-0.203125
537,537,1727217917569,-0.20922852,-0.9590454,0.2662964,1.265625,0.734375,0.265625
538,538,1727217917609,-0.18969727,-0.958313,0.27264404,1.28125,0.765625,0.0
539,539,1727217917649,-0.20629883,-0.9553833,0.27288818,0.375,0.984375,0.015625
540,540,1727217917689,-0.19628906,-0.96466064,0.26971436,0.0,0.515625,0.0625
541,541,1727217917729,-0.19580078,-0.960022,0.27020264,-0.3125,0.375,-0.046875
542,542,1727217917769,-0.19238281,-0.9529419,0.26898193,-0.359375,0.546875,-0.09375
543,543,1727217917809,-0.19604492,-0.94976807,0.2855835,-0.71875,0.296875,-0.421875
544,544,1727217917849,-0.19677734,-0.96417236,0.2699585,-1.5625,0.28125,-0.015625
545,545,1727217917889,-0.19262695,-0.9529419,0.28411865,-0.4375,0.171875,-0.375
546,546,1727217917929,-0.19750977,-0.95318604,0.27972412,-0.5,0.453125,-0.203125
547,547,1727217917969,-0.1965332,-0.95562744,0.27166748,-0.484375,0.484375,-0.25
548,548,1727217918009,-0.1953125,-0.95928955,0.27801514,-0.390625,0.375,-0.125
549,549,1727217918049,-0.20092773,-0.9585571,0.27874756,-0.1875,0.515625,-0.328125
550,550,1727217918089,-0.1977539,-0.956604,0.27874756,-0.375,0.671875,-0.34375
551,551,1727217918129,-0.19824219,-0.9561157,0.27557373,-0.296875,0.671875,-0.046875
552,552,1727217918169,-0.1977539,-0.95880127,0.27630615,-0.328125,0.390625,0.078125
553,553,1727217918209,-0.19921875,-0.95562744,0.2772827,-0.140625,0.046875,0.0
554,554,1727217918249,-0.19506836,-0.9558716,0.27996826,0.140625,0.25,0.09375
555,555,1727217918289,-0.20043945,-0.95562744,0.28045654,0.09375,0.171875,0.078125
556,556,1727217918329,-0.20263672,-0.95562744,0.26971436,-1.25,-0.1875,-0.0625
557,557,1727217918369,-0.19921875,-0.94781494,0.29486084,0.65625,0.375,-0.0625
558,558,1727217918409,-0.19750977,-0.97198486,0.2526245,-1.875,0.953125,-0.171875
559,559,1727217918449,-0.20410156,-0.9468384,0.2987671,3.484375,0.890625,0.21875
560,560,1727217918489,-0.17944336,-0.9624634,0.27215576,0.9375,1.234375,-0.25
561,561,1727217918529,-0.2043457,-0.95196533,0.28094482,0.390625,0.921875,-0.28125
562,562,1727217918569,-0.19335938,-0.956604,0.27044678,-0.171875,1.171875,-0.203125
563,563,1727217918609,-0.20507812,-0.9553833,0.26922607,-0.078125,0.734375,-0.015625
564,564,1727217918649,-0.19897461,-0.96051025,0.27972412,0.109375,1.09375,0.0625
565,565,1727217918689,-0.19311523,-0.9573364,0.2772827,-1.0,0.609375,-0.25
566,566,1727217918729,-0.19995117,-0.9578247,0.26971436,-1.234375,0.78125,-0.203125
567,567,1727217918769,-0.19433594,-0.95391846,0.27337646,-0.15625,0.328125,-0.125
568,568,1727217918809,-0.19799805,-0.9534302,0.27801514,-0.296875,0.671875,-0.125
569,569,1727217918849,-0.19750977,-0.9614868,0.2711792,-0.375,0.71875,-0.28125
570,570,1727217918889,-0.20043945,-0.954895,0.27752686,-0.375,0.578125,-0.296875
571,571,1727217918929,-0.20141602,-0.95513916,0.2753296,-0.421875,0.984375,-0.359375
572,572,1727217918969,-0.19311523,-0.9534302,0.27825928,-0.59375,0.65625,-0.21875
573,573,1727217919009,-0.19677734,-0.9524536,0.28118896,-0.515625,0.546875,-0.34375
574,574,1727217919049,-0.19506836,-0.95440674,0.27923584,-0.578125,0.671875,-0.265625
575,575,1727217919089,-0.19799805,-0.9561157,0.2789917,-0.25,0.328125,-0.171875
576,576,1727217919129,-0.20410156,-0.9553833,0.28485107,-0.328125,0.734375,-0.046875
577,577,1727217919169,-0.1965332,-0.958313,0.2789917,-0.171875,0.109375,-0.09375
578,578,1727217919209,-0.19824219,-0.9607544,0.26605225,-1.890625,-0.46875,0.015625
579,579,1727217919249,-0.19921875,-0.94488525,0.2904663,0.328125,-0.09375,0.015625
580,580,1727217919289,-0.1875,-0.9619751,0.25604248,-1.921875,0.984375,-0.421875
581,581,1727217919329,-0.20581055,-0.94244385,0.3131714,2.46875,0.765625,-0.234375
582,582,1727217919369,-0.18676758,-0.9619751,0.2670288,0.078125,1.0,-0.28125
583,583,1727217919409,-0.20288086,-0.9463501,0.28094482,0.03125,0.578125,-0.375
584,584,1727217919449,-0.19580078,-0.95635986,0.27557373,0.015625,0.8125,-0.171875
585,585,1727217919489,-0.19482422,-0.9607544,0.27459717,-0.171875,0.421875,-0.078125
586,586,1727217919529,-0.19628906,-0.94854736,0.28631592,0.6875,0.296875,0.03125
587,587,1727217919569,-0.19824219,-0.9507446,0.2772827,-1.28125,-0.03125,-0.390625
588,588,1727217919609,-0.203125,-0.9558716,0.2748413,-1.421875,0.125,-0.1875
589,589,1727217919649,-0.19677734,-0.9558716,0.277771,-0.359375,-0.296875,-0.15625
590,590,1727217919689,-0.19677734,-0.95196533,0.27825928,-0.453125,-0.21875,-0.234375
591,591,1727217919729,-0.19580078,-0.9553833,0.27703857,-0.609375,0.03125,-0.5
592,592,1727217919769,-0.20239258,-0.94903564,0.28485107,-0.625,0.09375,-0.203125
593,593,1727217919809,-0.19897461,-0.95391846,0.2789917,-0.296875,0.0625,-0.234375
594,594,1727217919849,-0.20239258,-0.9578247,0.27703857,-0.5625,0.15625,-0.328125
595,595,1727217919889,-0.19580078,-0.9561157,0.2826538,-0.5,-0.28125,-0.1875
596,596,1727217919929,-0.20117188,-0.9512329,0.2843628,-0.296875,-0.609375,-0.109375
597,597,1727217919969,-0.19628906,-0.9522095,0.2850952,-0.171875,-0.265625,-0.140625
598,598,1727217920009,-0.2019043,-0.9470825,0.2789917,0.015625,-0.359375,0.0
599,599,1727217920049,-0.203125,-0.95147705,0.2765503,-1.6875,-0.75,-0.171875
600,600,1727217920089,-0.20532227,-0.9512329,0.2921753,0.578125,-0.4375,0.15625
601,601,1727217920129,-0.19628906,-0.9624634,0.25750732,-2.0,-0.078125,-0.296875
602,602,1727217920169,-0.21777344,-0.9458618,0.29681396,2.515625,-0.03125,-0.109375
603,603,1727217920209,-0.19433594,-0.9607544,0.2753296,0.734375,-0.03125,-0.046875
604,604,1727217920249,-0.20385742,-0.958313,0.27679443,0.234375,-0.265625,-0.140625
605,605,1727217920289,-0.20605469,-0.9612427,0.27630615,-0.40625,-0.15625,-0.1875
606,606,1727217920329,-0.19604492,-0.9546509,0.2753296,-0.421875,-0.21875,-0.234375
607,607,1727217920369,-0.20483398,-0.95269775,0.28289795,0.078125,-0.296875,-0.0625
608,608,1727217920409,-0.20263672,-0.95440674,0.27947998,-1.125,-0.65625,-0.5625
609,609,1727217920449,-0.20117188,-0.9529419,0.2753296,-1.90625,-0.125,-0.171875
610,610,1727217920489,-0.19335938,-0.960022,0.28118896,-0.546875,-0.484375,-0.265625
611,611,1727217920529,-0.2019043,-0.9536743,0.28216553,-0.59375,-0.1875,-0.34375
612,612,1727217920569,-0.20336914,-0.9541626,0.27825928,-0.828125,0.171875,-0.296875
613,613,1727217920609,-0.20019531,-0.9558716,0.2880249,-0.609375,0.171875,-0.171875
614,614,1727217920649,-0.2043457,-0.9553833,0.28070068,-0.453125,-0.078125,-0.265625
615,615,1727217920689,-0.20361328,-0.95684814,0.27630615,-0.640625,0.21875,-0.3125
616,616,1727217920729,-0.2055664,-0.96295166,0.277771,-0.453125,0.03125,-0.125
617,617,1727217920769,-0.19628906,-0.95928955,0.28094482,-0.515625,-0.078125,-0.0625
618,618,1727217920809,-0.20141602,-0.9590454,0.28289795,-0.734375,0.234375,0.015625
619,619,1727217920849,-0.20410156,-0.9624634,0.27337646,-1.078125,-0.265625,-0.28125
620,620,1727217920889,-0.19946289,-0.9522095,0.28778076,-0.5625,0.15625,-0.46875
621,621,1727217920929,-0.2043457,-0.95758057,0.2831421,-0.6875,0.453125,-0.234375
622,622,1727217920969,-0.20874023,-0.9356079,0.31170654,1.296875,0.125,-0.28125
623,623,1727217921009,-0.20092773,-0.95928955,0.26849365,-0.546875,1.078125,-0.109375
624,624,1727217921049,-0.20800781,-0.9463501,0.27947998,0.703125,0.375,0.015625
625,625,1727217921089,-0.2055664,-0.9590454,0.28216553,0.046875,1.0,-0.203125
626,626,1727217921129,-0.2006836,-0.95391846,0.27874756,-0.1875,0.53125,-0.25
627,627,1727217921169,-0.20727539,-0.94732666,0.28094482,-0.4375,0.1875,0.015625
628,628,1727217921209,-0.20727539,-0.9627075,0.27825928,-1.984375,0.515625,-0.265625
629,629,1727217921249,-0.20458984,-0.9522095,0.2843628,-0.140625,0.34375,-0.203125
630,630,1727217921289,-0.20141602,-0.956604,0.2921753,-0.6875,0.46875,-0.359375
631,631,1727217921329,-0.20996094,-0.94854736,0.28045654,-0.390625,0.484375,-0.015625
632,632,1727217921369,-0.20141602,-0.954895,0.277771,-0.71875,0.609375,-0.21875
633,633,1727217921409,-0.20800781,-0.95196533,0.28729248,-0.453125,0.484375,-0.265625
634,634,1727217921449,-0.20581055,-0.9517212,0.2897339,-0.625,0.4375,-0.15625
635,635,1727217921489,-0.20141602,-0.9456177,0.28948975,-0.484375,0.59375,-0.1875
636,636,1727217921529,-0.19921875,-0.9522095,0.28631592,-0.390625,0.5625,-0.34375
637,637,1727217921569,-0.21533203,-0.95562744,0.28485107,-0.359375,0.234375,-0.03125
638,638,1727217921609,-0.20678711,-0.95513916,0.2946167,-0.171875,0.453125,0.15625
639,639,1727217921649,-0.20581055,-0.95440674,0.28753662,-0.359375,0.09375,0.125
640,640,1727217921689,-0.2055664,-0.9612427,0.28118896,-1.625,-0.359375,-0.03125
641,641,1727217921729,-0.2109375,-0.9421997,0.29534912,0.140625,0.078125,-0.125
642,642,1727217921769,-0.20996094,-0.95440674,0.27850342,-0.953125,0.875,-0.234375
643,643,1727217921809,-0.21557617,-0.93536377,0.32269287,3.375,0.5,-0.0625
644,644,1727217921849,-0.19360352,-0.9590454,0.27752686,0.703125,1.375,-0.296875
645,645,1727217921889,-0.2109375,-0.9456177,0.28240967,1.15625,0.609375,0.03125
646,646,1727217921929,-0.20483398,-0.9614868,0.2826538,0.40625,0.71875,-0.140625
647,647,1727217921969,-0.20385742,-0.95880127,0.27630615,0.375,0.546875,-0.015625
648,648,1727217922009,-0.20263672,-0.9570923,0.28656006,0.296875,0.484375,0.140625
649,649,1727217922049,-0.20288086,-0.9570923,0.28167725,-1.109375,0.609375,-0.109375
650,650,1727217922089,-0.20825195,-0.9558716,0.27435303,-0.703125,0.578125,-0.15625
651,651,1727217922129,-0.2006836,-0.9546509,0.28240967,0.15625,0.484375,-0.1875
652,652,1727217922169,-0.20605469,-0.94659424,0.28216553,-0.046875,0.75,0.140625
653,653,1727217922209,-0.19628906,-0.9573364,0.27752686,-0.078125,0.765625,-0.171875
654,654,1727217922249,-0.2006836,-0.9595337,0.27801514,-0.15625,0.875,-0.078125
655,655,1727217922289,-0.19848633,-0.95635986,0.2765503,-0.015625,0.609375,0.078125
656,656,1727217922329,-0.20361328,-0.94610596,0.27703857,-0.078125,0.703125,-0.125
657,657,1727217922369,-0.19921875,-0.95635986,0.27972412,-0.078125,0.5,0.0
658,658,1727217922409,-0.19995117,-0.95880127,0.2802124,0.21875,0.359375,0.140625
659,659,1727217922449,-0.20166016,-0.9595337,0.27972412,0.140625,0.484375,0.109375
660,660,1727217922489,-0.19702148,-0.9578247,0.28216553,0.609375,0.296875,0.140625
661,661,1727217922529,-0.18945312,-0.9570923,0.27557373,-0.34375,0.78125,-0.34375
662,662,1727217922569,-0.1965332,-0.95684814,0.29534912,0.4375,0.046875,-0.109375
663,663,1727217922609,-0.19946289,-0.95025635,0.27972412,-0.75,0.078125,-0.328125
664,664,1727217922649,-0.20825195,-0.95880127,0.27630615,0.5625,1.078125,0.125
665,665,1727217922689,-0.19311523,-0.9487915,0.27142334,0.984375,0.484375,-0.015625
666,666,1727217922729,-0.20092773,-0.95928955,0.27996826,0.234375,0.859375,-0.15625
667,667,1727217922769,-0.19433594,-0.9541626,0.27020264,-0.1875,0.21875,-0.203125
668,668,1727217922809,-0.2019043,-0.95196533,0.2826538,-0.546875,0.078125,0.015625
669,669,1727217922849,-0.20166016,-0.96173096,0.26556396,-2.03125,0.265625,0.078125
670,670,1727217922889,-0.19946289,-0.9512329,0.2819214,0.109375,0.265625,-0.25
671,671,1727217922929,-0.2043457,-0.96221924,0.27508545,-0.21875,0.34375,-0.25
672,672,1727217922969,-0.19897461,-0.95806885,0.2765503,-0.125,0.0625,-0.09375
673,673,1727217923009,-0.19921875,-0.95513916,0.27020264,-0.375,0.59375,-0.21875
674,674,1727217923049,-0.203125,-0.9590454,0.2748413,-0.34375,0.390625,-0.171875
675,675,1727217923089,-0.20263672,-0.958313,0.2753296,-0.390625,0.21875,-0.09375
676,676,1727217923129,-0.20214844,-0.9534302,0.2748413,-0.34375,0.359375,-0.03125
677,677,1727217923169,-0.19848633,-0.95513916,0.27679443,-0.375,0.28125,0.09375
678,678,1727217923209,-0.1953125,-0.95635986,0.27679443,-0.328125,-0.078125,0.015625
679,679,1727217923249,-0.19726562,-0.9541626,0.27752686,-0.5625,0.03125,-0.203125
680,680,1727217923289,-0.19335938,-0.97003174,0.27337646,-0.4375,-0.46875,-0.28125
681,681,1727217923329,-0.19677734,-0.9546509,0.27630615,-0.921875,-0.078125,-0.828125
682,682,1727217923369,-0.2019043,-0.9534302,0.29119873,-0.09375,-0.328125,-0.296875
683,683,1727217923409,-0.20410156,-0.94073486,0.28875732,-0.34375,-0.671875,-0.34375
684,684,1727217923449,-0.20898438,-0.9573364,0.2723999,-0.0625,0.34375,-0.09375
685,685,1727217923489,-0.19897461,-0.95269775,0.27923584,0.578125,-0.25,-0.0625
686,686,1727217923529,-0.2055664,-0.9578247,0.277771,-0.078125,0.34375,-0.390625
687,687,1727217923569,-0.20361328,-0.9573364,0.28118896,-0.09375,0.0625,-0.25
688,688,1727217923609,-0.20629883,-0.9480591,0.28485107,-0.578125,0.078125,-0.078125
689,689,1727217923649,-0.19750977,-0.9553833,0.27166748,-2.359375,0.125,-0.125
690,690,1727217923689,-0.19677734,-0.95684814,0.27825928,-0.578125,0.125,-0.125
691,691,1727217923729,-0.20678711,-0.96051025,0.28118896,-0.296875,-0.078125,-0.109375
692,692,1727217923769,-0.20581055,-0.9480591,0.28607178,-0.484375,0.03125,-0.046875
693,693,1727217923809,-0.19433594,-0.95513916,0.27557373,-0.53125,0.1875,-0.21875
694,694,1727217923849,-0.20288086,-0.94976807,0.276062,-0.578125,-0.21875,-0.125
695,695,1727217923889,-0.19970703,-0.95684814,0.28338623,-0.375,-0.171875,0.125
696,696,1727217923929,-0.20532227,-0.9507446,0.27581787,-0.5,0.078125,-0.21875
697,697,1727217923969,-0.19726562,-0.9558716,0.28338623,-0.28125,0.0625,-0.1875
698,698,1727217924009,-0.2006836,-0.958313,0.27923584,-0.4375,-0.390625,-0.03125
699,699,1727217924049,-0.20532227,-0.9495239,0.28704834,-0.1875,-0.03125,0.0
700,700,1727217924089,-0.19824219,-0.9570923,0.27972412,-0.4375,0.125,-0.09375
701,701,1727217924129,-0.20458984,-0.95684814,0.27459717,-1.9375,-0.609375,-0.046875
702,702,1727217924169,-0.21289062,-0.942688,0.2975464,-0.015625,0.03125,-0.21875
703,703,1727217924209,-0.20776367,-0.96099854,0.27288818,-1.515625,0.875,-0.40625
704,704,1727217924249,-0.21240234,-0.94610596,0.31243896,2.96875,0.578125,-0.140625
705,705,1727217924289,-0.19604492,-0.96051025,0.26605225,0.65625,1.234375,-0.234375
706,706,1727217924329,-0.20532227,-0.9512329,0.2831421,0.546875,0.625,-0.296875
707,707,1727217924369,-0.20751953,-0.95758057,0.27923584,-0.15625,0.84375,-0.234375
708,708,1727217924409,-0.19750977,-0.96173096,0.27850342,-0.3125,0.484375,-0.265625
709,709,1727217924449,-0.21118164,-0.95391846,0.28875732,-0.15625,0.53125,-0.171875
710,710,1727217924489,-0.20727539,-0.95391846,0.28338623,-1.875,0.484375,-0.578125
711,711,1727217924529,-0.21386719,-0.95318604,0.277771,-1.546875,0.21875,-0.25
712,712,1727217924569,-0.203125,-0.9578247,0.28533936,-0.421875,0.3125,-0.390625
713,713,1727217924609,-0.20605469,-0.9517212,0.28485107,-0.6875,0.1875,-0.203125
714,714,1727217924649,-0.20922852,-0.9570923,0.28656006,-0.75,0.265625,-0.421875
715,715,1727217924689,-0.21044922,-0.94903564,0.2855835,-0.59375,0.25,-0.25
716,716,1727217924729,-0.21020508,-0.95391846,0.28533936,-0.625,0.46875,-0.21875
717,717,1727217924769,-0.20751953,-0.9541626,0.28826904,-0.515625,0.53125,-0.140625
718,718,1727217924809,-0.20629883,-0.95147705,0.2909546,-0.59375,0.421875,-0.109375
719,719,1727217924849,-0.20239258,-0.9536743,0.2850952,-0.375,0.3125,0.0
720,720,1727217924889,-0.20263672,-0.9529419,0.28997803,-0.234375,0.25,0.140625
721,721,1727217924929,-0.20605469,-0.9483032,0.28704834,-0.15625,0.234375,0.03125
722,722,1727217924969,-0.20776367,-0.95147705,0.27557373,-1.78125,-0.359375,0.046875
723,723,1727217925009,-0.20874023,-0.94073486,0.3007202,0.03125,0.0625,-0.03125
724,724,1727217925049,-0.20117188,-0.96539307,0.27947998,-1.0,0.609375,-0.140625
725,725,1727217925089,-0.2175293,-0.9348755,0.32537842,3.421875,0.53125,0.0625
726,726,1727217925129,-0.1887207,-0.9553833,0.27679443,0.8125,1.375,-0.171875
727,727,1727217925169,-0.20947266,-0.9434204,0.28533936,1.03125,0.484375,0.015625
728,728,1727217925209,-0.20458984,-0.95513916,0.28240967,0.0,0.453125,-0.265625
729,729,1727217925249,-0.203125,-0.9546509,0.27972412,-0.21875,0.296875,-0.078125
730,730,1727217925289,-0.2084961,-0.9541626,0.2909546,-0.078125,0.296875,0.21875
731,731,1727217925329,-0.20458984,-0.94659424,0.2814331,-1.796875,0.25,-0.140625
732,732,1727217925369,-0.20922852,-0.95880127,0.27947998,-1.359375,0.171875,-0.171875
733,733,1727217925409,-0.19995117,-0.954895,0.29071045,-0.25,0.359375,-0.140625
734,734,1727217925449,-0.21142578,-0.9507446,0.28533936,-0.4375,0.421875,0.0
735,735,1727217925489,-0.20092773,-0.9534302,0.2880249,-0.390625,0.46875,-0.046875
736,736,1727217925529,-0.20605469,-0.9573364,0.28607178,-0.203125,0.4375,-0.125
737,737,1727217925569,-0.20410156,-0.94781494,0.29071045,-0.3125,0.328125,-0.046875
738,738,1727217925609,-0.20532227,-0.954895,0.28656006,-0.265625,0.359375,-0.140625
739,739,1727217925649,-0.2043457,-0.9522095,0.28631592,-0.125,0.28125,-0.046875
740,740,1727217925689,-0.20288086,-0.9456177,0.2868042,-0.3125,0.296875,0.078125
741,741,1727217925729,-0.20776367,-0.9546509,0.28851318,-0.328125,0.1875,0.109375
742,742,1727217925769,-0.20141602,-0.956604,0.28729248,-0.078125,0.390625,-0.03125
743,743,1727217925809,-0.20800781,-0.9492798,0.2843628,-0.265625,0.359375,-0.140625
744,744,1727217925849,-0.20483398,-0.9553833,0.27972412,-1.359375,-0.015625,0.0625
745,745,1727217925889,-0.20629883,-0.94659424,0.30194092,0.40625,0.484375,-0.015625
746,746,1727217925929,-0.1977539,-0.9578247,0.27313232,-0.921875,0.8125,-0.21875
747,747,1727217925969,-0.21679688,-0.9421997,0.3163452,3.78125,0.640625,0.1875
748,748,1727217926009,-0.18969727,-0.9585571,0.27313232,1.234375,1.78125,-0.453125
749,749,1727217926049,-0.2084961,-0.9456177,0.276062,1.3125,0.484375,-0.046875
750,750,1727217926089,-0.20336914,-0.9602661,0.27337646,0.234375,0.390625,-0.1875
751,751,1727217926129,-0.19726562,-0.9553833,0.277771,0.265625,0.390625,-0.265625
752,752,1727217926169,-0.20727539,-0.95562744,0.28240967,0.3125,0.546875,-0.109375
753,753,1727217926209,-0.19848633,-0.94781494,0.27825928,-0.921875,0.4375,-0.46875
754,754,1727217926249,-0.21142578,-0.9529419,0.27459717,-1.125,0.3125,-0.171875
755,755,1727217926289,-0.20043945,-0.958313,0.27752686,0.046875,0.390625,-0.328125
756,756,1727217926329,-0.20751953,-0.958313,0.28167725,-0.046875,0.46875,-0.046875
757,757,1727217926369,-0.20288086,-0.9546509,0.2814331,-0.1875,0.5,-0.328125
758,758,1727217926409,-0.20385742,-0.95635986,0.27874756,-0.1875,0.484375,0.015625
759,759,1727217926449,-0.20385742,-0.9561157,0.2802124,-0.296875,0.390625,-0.03125
