,Unnamed: 0,timestamp,accel_x,accel_y,accel_z,gyro_x,gyro_y,gyro_z
0,0,1727965468019,-0.0690918,-0.9668579,0.2946167,-0.515625,0.0625,0.625
1,1,1727965468059,-0.068847656,-0.9585571,0.29803467,-0.375,-0.578125,0.4375
2,2,1727965468099,-0.0625,-0.95635986,0.29730225,0.1875,-0.1875,0.453125
3,3,1727965468139,-0.06762695,-0.9595337,0.28875732,-0.96875,-0.765625,0.3125
4,4,1727965468179,-0.06347656,-0.9656372,0.29388428,-0.171875,-0.796875,0.75
5,5,1727965468219,-0.060058594,-0.9505005,0.31414795,1.109375,-0.703125,0.453125
6,6,1727965468259,-0.060302734,-0.97076416,0.27752686,-3.59375,-0.921875,0.21875
7,7,1727965468299,-0.06713867,-0.9522095,0.31097412,0.890625,-0.5,0.046875
8,8,1727965468339,-0.06542969,-0.9649048,0.30316162,-0.03125,-0.640625,0.453125
9,9,1727965468379,-0.06738281,-0.9402466,0.29315186,-0.625,0.28125,0.609375
10,10,1727965468419,-0.072509766,-0.958313,0.29510498,0.71875,-0.09375,0.6875
11,11,1727965468459,-0.053955078,-0.9619751,0.30340576,0.9375,-0.015625,1.046875
12,12,1727965468499,-0.057617188,-0.97003174,0.29437256,-0.734375,0.046875,0.703125
13,13,1727965468539,-0.068359375,-0.95684814,0.2850952,-0.84375,-0.078125,0.828125
14,14,1727965468579,-0.056152344,-0.96417236,0.29364014,0.015625,-1.390625,0.625
15,15,1727965468619,-0.064697266,-0.960022,0.2958374,-0.25,-1.046875,0.59375
16,16,1727965468659,-0.075927734,-0.954895,0.29730225,-0.8125,-1.015625,0.953125
17,17,1727965468699,-0.0625,-0.95928955,0.3012085,-0.390625,-0.296875,0.59375
18,18,1727965468739,-0.057617188,-0.9690552,0.29730225,-0.890625,-0.765625,0.734375
19,19,1727965468779,-0.0637207,-0.9631958,0.29925537,-0.609375,-0.265625,0.5625
20,20,1727965468819,-0.06640625,-0.9492798,0.2892456,-0.328125,0.109375,0.859375
21,21,1727965468859,-0.07739258,-0.96588135,0.2843628,-0.578125,-0.09375,0.375
22,22,1727965468899,-0.06323242,-0.9795532,0.29656982,-0.1875,-0.8125,0.71875
23,23,1727965468939,-0.05859375,-0.94610596,0.30438232,0.75,0.40625,0.453125
24,24,1727965468979,-0.05102539,-0.96295166,0.27508545,-4.484375,-1.15625,-0.203125
25,25,1727965469019,-0.06542969,-0.96221924,0.30706787,1.453125,-0.71875,0.90625
26,26,1727965469059,-0.05493164,-0.9651489,0.3012085,-0.859375,-0.078125,0.28125
27,27,1727965469099,-0.068115234,-0.95098877,0.28948975,-0.578125,-0.25,0.671875
28,28,1727965469139,-0.061767578,-0.96173096,0.2987671,-0.234375,-0.625,0.203125
29,29,1727965469179,-0.050048828,-0.9585571,0.2982788,0.421875,-0.53125,0.71875
30,30,1727965469219,-0.06640625,-0.96051025,0.30413818,-0.421875,-0.40625,0.015625
31,31,1727965469259,-0.05493164,-0.96295166,0.2958374,-0.75,-0.234375,0.265625
32,32,1727965469299,-0.052246094,-0.96588135,0.30169678,-0.296875,0.234375,0.1875
33,33,1727965469339,-0.068359375,-0.9534302,0.30096436,-0.3125,0.421875,0.25
34,34,1727965469379,-0.05908203,-0.9590454,0.2982788,-0.703125,0.1875,0.109375
35,35,1727965469419,-0.05883789,-0.9468384,0.29852295,-0.796875,-0.1875,-0.015625
36,36,1727965469459,-0.072265625,-0.96661377,0.29681396,-0.203125,0.015625,-0.046875
37,37,1727965469499,-0.059814453,-0.9644165,0.30096436,-0.578125,-0.296875,0.109375
38,38,1727965469539,-0.056396484,-0.958313,0.29779053,-0.828125,0.171875,-0.078125
39,39,1727965469579,-0.0715332,-0.97052,0.30682373,-0.21875,0.234375,0.0
40,40,1727965469619,-0.06323242,-0.94415283,0.31463623,-0.859375,-0.625,-0.15625
41,41,1727965469659,-0.061035156,-0.9697876,0.27435303,-2.359375,0.15625,-0.125
42,42,1727965469699,-0.07324219,-0.96881104,0.3036499,-1.71875,-0.390625,-0.953125
43,43,1727965469739,-0.06518555,-0.96343994,0.31829834,0.640625,0.453125,-0.1875
44,44,1727965469779,-0.057617188,-0.9512329,0.30047607,-0.875,0.75,-0.21875
45,45,1727965469819,-0.075927734,-0.95758057,0.30145264,-0.453125,0.28125,-0.09375
46,46,1727965469859,-0.07470703,-0.95562744,0.30828857,-0.453125,-0.09375,0.171875
47,47,1727965469899,-0.05810547,-0.96710205,0.30389404,-0.046875,-0.109375,0.296875
48,48,1727965469939,-0.068115234,-0.96588135,0.3012085,-0.96875,-0.140625,-0.328125
49,49,1727965469979,-0.07348633,-0.9536743,0.3085327,-0.1875,0.203125,0.375
50,50,1727965470019,-0.064941406,-0.9590454,0.309021,-0.140625,-0.234375,0.171875
51,51,1727965470059,-0.06665039,-0.954895,0.30194092,-0.53125,-0.15625,0.109375
52,52,1727965470099,-0.06933594,-0.95635986,0.3102417,-1.015625,-0.046875,0.125
53,53,1727965470139,-0.064941406,-0.95635986,0.30584717,-0.25,-0.390625,0.3125
54,54,1727965470179,-0.07714844,-0.9631958,0.30804443,-0.21875,0.171875,0.1875
55,55,1727965470219,-0.08203125,-0.9561157,0.30877686,0.1875,0.171875,0.3125
56,56,1727965470259,-0.064453125,-0.960022,0.30560303,-0.296875,-0.03125,0.34375
57,57,1727965470299,-0.076171875,-0.95684814,0.30511475,0.0625,0.546875,0.390625
58,58,1727965470339,-0.064697266,-0.9483032,0.3168335,-0.453125,-0.421875,0.078125
59,59,1727965470379,-0.07055664,-0.9710083,0.29388428,-0.421875,0.421875,0.84375
60,60,1727965470419,-0.072753906,-0.95269775,0.2999878,-2.390625,-0.078125,-0.71875
61,61,1727965470459,-0.068115234,-0.9656372,0.31951904,0.875,-0.484375,0.59375
62,62,1727965470499,-0.0703125,-0.95562744,0.30584717,-0.484375,0.703125,0.03125
63,63,1727965470539,-0.06982422,-0.96221924,0.3053589,-0.390625,0.359375,0.390625
64,64,1727965470579,-0.072753906,-0.9505005,0.30682373,-0.296875,-0.40625,0.140625
65,65,1727965470619,-0.068603516,-0.9561157,0.3065796,0.421875,-0.109375,0.484375
66,66,1727965470659,-0.08129883,-0.96343994,0.30950928,-1.015625,1.15625,-0.40625
67,67,1727965470699,-0.07299805,-0.9570923,0.29681396,-0.6875,-0.484375,0.015625
68,68,1727965470739,-0.07373047,-0.9546509,0.30584717,0.234375,-0.671875,0.265625
69,69,1727965470779,-0.08105469,-0.9595337,0.3126831,-0.484375,0.34375,0.25
70,70,1727965470819,-0.06933594,-0.96295166,0.29412842,-0.5,-0.25,0.234375
71,71,1727965470859,-0.07348633,-0.9524536,0.3024292,0.328125,-0.234375,0.359375
72,72,1727965470899,-0.07397461,-0.9612427,0.307312,-0.390625,-0.203125,0.40625
73,73,1727965470939,-0.06958008,-0.95684814,0.2999878,-0.125,-0.671875,0.359375
74,74,1727965470979,-0.078125,-0.9483032,0.3024292,0.328125,-0.21875,0.40625
75,75,1727965471019,-0.07714844,-0.96832275,0.3053589,-0.75,-0.9375,0.265625
76,76,1727965471059,-0.06982422,-0.9710083,0.30462646,-0.421875,-0.15625,0.6875
77,77,1727965471099,-0.08569336,-0.94903564,0.32269287,1.421875,0.125,0.515625
78,78,1727965471139,-0.0715332,-0.97735596,0.28851318,-3.5625,-0.6875,0.15625
79,79,1727965471179,-0.06762695,-0.9397583,0.30828857,-0.21875,-0.234375,0.078125
80,80,1727965471219,-0.076416016,-0.9697876,0.3114624,0.421875,-0.78125,0.859375
81,81,1727965471259,-0.07324219,-0.940979,0.29852295,-0.46875,-0.5625,0.171875
82,82,1727965471299,-0.07910156,-0.9631958,0.28851318,-0.03125,-0.796875,0.734375
83,83,1727965471339,-0.07763672,-0.9656372,0.3114624,0.578125,-0.515625,0.8125
84,84,1727965471379,-0.07739258,-0.95977783,0.2994995,-0.1875,-0.421875,1.1875
85,85,1727965471419,-0.08276367,-0.95684814,0.30096436,-0.296875,-0.640625,0.609375
86,86,1727965471459,-0.06738281,-0.9573364,0.30999756,0.90625,-0.515625,1.21875
87,87,1727965471499,-0.06665039,-0.95806885,0.30511475,-0.0625,-0.796875,1.0
88,88,1727965471539,-0.068359375,-0.9470825,0.29730225,-0.28125,-0.796875,0.9375
89,89,1727965471579,-0.061767578,-0.9627075,0.30462646,-0.125,-0.6875,0.984375
90,90,1727965471619,-0.06298828,-0.9585571,0.30511475,-0.4375,-0.46875,0.828125
91,91,1727965471659,-0.072509766,-0.9673462,0.3036499,-0.3125,0.03125,1.03125
92,92,1727965471699,-0.0769043,-0.9673462,0.2994995,-0.109375,-0.46875,0.9375
93,93,1727965471739,-0.06274414,-0.96539307,0.29730225,-0.25,-0.125,1.0625
94,94,1727965471779,-0.06274414,-0.9524536,0.291687,-1.09375,-0.46875,0.6875
95,95,1727965471819,-0.06713867,-0.9685669,0.2892456,-0.375,-0.796875,1.140625
96,96,1727965471859,-0.068359375,-0.9553833,0.30340576,1.5625,0.203125,0.859375
97,97,1727965471899,-0.056152344,-0.96173096,0.28070068,-4.0625,-0.984375,-0.1875
98,98,1727965471939,-0.07055664,-0.95977783,0.3180542,1.296875,-0.9375,0.875
99,99,1727965471979,-0.064697266,-0.96173096,0.30218506,-1.328125,-0.625,0.34375
100,100,1727965472019,-0.068847656,-0.95513916,0.2904663,-1.4375,-0.390625,0.390625
101,101,1727965472059,-0.068115234,-0.9541626,0.30023193,-1.40625,-0.78125,0.5
102,102,1727965472099,-0.0625,-0.95977783,0.30560303,0.21875,-0.296875,0.453125
103,103,1727965472139,-0.068847656,-0.956604,0.30438232,-0.328125,-0.078125,0.546875
104,104,1727965472179,-0.06958008,-0.9541626,0.3048706,-0.8125,-0.234375,0.40625
105,105,1727965472219,-0.05883789,-0.95880127,0.3065796,-0.046875,-0.34375,0.71875
106,106,1727965472259,-0.06958008,-0.9590454,0.2982788,-0.328125,-0.328125,0.328125
107,107,1727965472299,-0.061523438,-0.95440674,0.31048584,-0.296875,-0.3125,0.484375
108,108,1727965472339,-0.068847656,-0.9612427,0.30926514,-0.046875,-0.21875,0.65625
109,109,1727965472379,-0.06616211,-0.9631958,0.3012085,0.09375,-0.25,0.65625
110,110,1727965472419,-0.06665039,-0.9570923,0.30950928,0.671875,0.171875,0.828125
111,111,1727965472459,-0.05908203,-0.95806885,0.29656982,0.0,0.953125,0.78125
112,112,1727965472499,-0.0546875,-0.96295166,0.27923584,-0.875,1.15625,0.203125
113,113,1727965472539,-0.06347656,-0.9495239,0.2975464,-0.6875,-0.859375,0.5
114,114,1727965472579,-0.087646484,-0.95635986,0.31829834,0.03125,-1.1875,2.0
115,115,1727965472619,-0.08081055,-0.9570923,0.28997803,0.140625,0.03125,1.984375
116,116,1727965472659,-0.064208984,-0.96954346,0.33319092,1.0,-0.84375,1.640625
117,117,1727965472699,-0.041259766,-0.9920044,0.32025146,1.5,-0.359375,0.875
118,118,1727965472739,-0.04345703,-0.9446411,0.28631592,-1.3125,1.765625,0.53125
119,119,1727965472779,-0.041748047,-0.9500122,0.2814331,-0.609375,-1.578125,0.765625
120,120,1727965472819,-0.051757812,-0.9529419,0.28118896,1.25,-2.046875,0.0625
121,121,1727965472859,-0.05053711,-0.97491455,0.2855835,0.75,-1.8125,1.234375
122,122,1727965472899,-0.059570312,-0.96881104,0.28729248,-0.5,-1.53125,0.40625
123,123,1727965472939,-0.076660156,-0.9627075,0.2970581,0.609375,-1.546875,0.515625
124,124,1727965472979,-0.061523438,-0.97052,0.307312,1.265625,-0.96875,1.3125
125,125,1727965473019,-0.056396484,-0.9644165,0.29022217,0.40625,-0.140625,0.46875
126,126,1727965473059,-0.060302734,-0.9378052,0.2892456,0.703125,0.625,0.703125
127,127,1727965473099,-0.057128906,-0.9524536,0.29974365,1.625,0.296875,0.546875
128,128,1727965473139,-0.068359375,-0.97906494,0.2909546,0.96875,0.09375,1.0625
129,129,1727965473179,-0.06689453,-0.9680786,0.28289795,0.75,-0.078125,1.46875
130,130,1727965473219,-0.04736328,-0.9570923,0.28631592,2.109375,1.265625,1.125
131,131,1727965473259,-0.040039062,-0.9783325,0.2711792,1.078125,1.546875,1.859375
132,132,1727965473299,-0.028564453,-0.9480591,0.28656006,1.25,1.390625,-0.078125
133,133,1727965473339,-0.045410156,-0.9585571,0.23724365,0.171875,0.78125,1.359375
134,134,1727965473379,-0.07324219,-0.9522095,0.26800537,0.609375,-1.203125,0.453125
135,135,1727965473419,-0.07519531,-0.9937134,0.28289795,2.78125,-1.59375,1.78125
136,136,1727965473459,-0.05834961,-0.9788208,0.26898193,0.84375,0.109375,1.75
137,137,1727965473499,-0.05834961,-0.95977783,0.26556396,1.078125,0.640625,3.203125
138,138,1727965473539,-0.037353516,-0.9690552,0.27264404,1.671875,0.0625,2.71875
139,139,1727965473579,-0.024902344,-0.96759033,0.25115967,0.328125,0.4375,2.890625
140,140,1727965473619,-0.017089844,-0.9663696,0.23577881,0.171875,0.625,1.625
141,141,1727965473659,-0.018310547,-0.97247314,0.25213623,0.765625,-0.53125,0.921875
142,142,1727965473699,-0.029541016,-0.9702759,0.26287842,-0.84375,-1.046875,0.984375
143,143,1727965473739,-0.025878906,-0.97369385,0.26678467,-1.5,-0.34375,0.375
144,144,1727965473779,-0.04663086,-0.9614868,0.27581787,0.40625,1.3125,0.15625
145,145,1727965473819,-0.024658203,-0.9849243,0.26776123,0.046875,-0.203125,0.21875
146,146,1727965473859,-0.013671875,-0.9729614,0.25994873,-0.25,0.484375,-0.078125
147,147,1727965473899,-0.034179688,-0.96881104,0.2543335,-0.984375,0.921875,0.078125
148,148,1727965473939,-0.037841797,-0.9602661,0.25750732,0.3125,-0.046875,0.03125
149,149,1727965473979,-0.020751953,-0.9741821,0.25604248,-2.109375,-0.8125,0.015625
150,150,1727965474019,-0.050048828,-0.9644165,0.2687378,0.25,-0.328125,0.484375
151,151,1727965474059,-0.040771484,-0.98687744,0.25946045,-4.3125,-0.40625,-1.1875
152,152,1727965474099,-0.031982422,-0.9680786,0.2694702,0.125,-0.296875,-0.265625
153,153,1727965474139,-0.036132812,-0.96661377,0.26898193,0.390625,-0.03125,-0.03125
154,154,1727965474179,-0.053222656,-0.96832275,0.27191162,-1.1875,0.28125,-0.28125
155,155,1727965474219,-0.044189453,-0.9639282,0.25482178,-0.28125,0.3125,0.046875
156,156,1727965474259,-0.040039062,-0.96539307,0.2662964,0.375,0.5,0.375
157,157,1727965474299,-0.0234375,-0.97247314,0.26116943,-0.203125,-0.109375,0.28125
158,158,1727965474339,-0.033935547,-0.97613525,0.25701904,-0.296875,-0.359375,0.421875
159,159,1727965474379,-0.031982422,-0.97540283,0.27801514,0.703125,-1.34375,0.578125
160,160,1727965474419,-0.05102539,-0.96881104,0.26605225,-0.34375,-0.953125,0.125
161,161,1727965474459,-0.046875,-0.97052,0.2670288,-0.625,0.125,0.6875
162,162,1727965474499,-0.03491211,-0.98101807,0.26239014,-1.078125,-0.21875,-0.03125
163,163,1727965474539,-0.044189453,-0.9800415,0.24261475,-1.515625,0.234375,-0.03125
164,164,1727965474579,-0.025146484,-0.97052,0.25946045,-1.765625,-0.046875,-0.28125
165,165,1727965474619,-0.046875,-0.92193604,0.27288818,-0.140625,0.625,-0.8125
166,166,1727965474659,-0.045898438,-0.986145,0.26654053,-2.453125,-3.25,0.9375
167,167,1727965474699,-0.018798828,-0.9758911,0.26654053,0.015625,-1.265625,0.0
168,168,1727965474739,-0.06274414,-0.95391846,0.26556396,-0.15625,1.390625,0.546875
169,169,1727965474779,-0.059326172,-0.98028564,0.28094482,-3.234375,-0.21875,-0.984375
170,170,1727965474819,-0.045654297,-0.9651489,0.2909546,1.296875,-0.625,0.21875
171,171,1727965474859,-0.03955078,-0.98223877,0.28411865,0.359375,0.90625,0.90625
172,172,1727965474899,-0.03955078,-0.9751587,0.25897217,-0.28125,0.796875,1.65625
173,173,1727965474939,-0.038085938,-0.93927,0.26287842,0.34375,-0.40625,0.765625
174,174,1727965474979,-0.040771484,-0.97540283,0.25408936,0.765625,-1.0,1.359375
175,175,1727965475019,-0.043945312,-0.9644165,0.25653076,0.28125,0.203125,0.875
176,176,1727965475059,-0.03491211,-0.97906494,0.25579834,-0.4375,0.078125,1.328125
177,177,1727965475099,-0.044189453,-0.9631958,0.2687378,0.046875,0.5625,1.234375
178,178,1727965475139,-0.024169922,-0.96710205,0.2682495,-0.703125,-0.34375,1.546875
179,179,1727965475179,-0.039794922,-0.9702759,0.27166748,-0.140625,-0.6875,0.859375
180,180,1727965475219,-0.035888672,-0.97491455,0.25872803,-0.796875,-1.15625,1.234375
181,181,1727965475259,-0.037353516,-0.95758057,0.26312256,0.3125,-0.390625,0.578125
182,182,1727965475299,-0.017578125,-0.97662354,0.25653076,-2.15625,0.984375,-0.265625
183,183,1727965475339,-0.03857422,-0.97662354,0.27996826,0.578125,1.40625,0.609375
184,184,1727965475379,-0.049072266,-0.94488525,0.2855835,0.34375,0.75,0.4375
185,185,1727965475419,-0.03149414,-0.97320557,0.24188232,-2.25,1.96875,1.125
186,186,1727965475459,-0.030517578,-0.9771118,0.27825928,0.484375,0.6875,0.796875
187,187,1727965475499,-0.034423828,-0.97076416,0.27191162,0.484375,0.65625,1.53125
188,188,1727965475539,-0.03515625,-0.9697876,0.2658081,-0.296875,0.25,1.328125
189,189,1727965475579,-0.03466797,-0.96710205,0.26654053,0.53125,0.359375,0.953125
190,190,1727965475619,-0.017089844,-0.9746704,0.26409912,1.234375,-0.359375,1.4375
191,191,1727965475659,-0.011230469,-0.96710205,0.2670288,-0.234375,-0.734375,1.296875
192,192,1727965475699,-0.025878906,-0.97125244,0.25726318,-0.921875,-0.890625,0.953125
193,193,1727965475739,-0.018066406,-0.9702759,0.26361084,0.359375,-0.734375,1.265625
194,194,1727965475779,-0.01953125,-0.9663696,0.2592163,-0.640625,-0.46875,0.75
195,195,1727965475819,-0.017578125,-0.97662354,0.26239014,-0.578125,-0.859375,0.9375
196,196,1727965475859,-0.020263672,-0.96343994,0.26776123,0.28125,0.15625,0.375
197,197,1727965475899,-0.02319336,-0.96832275,0.2592163,-0.046875,-0.109375,0.5625
198,198,1727965475939,-0.024902344,-0.97003174,0.2567749,0.296875,0.203125,0.484375
199,199,1727965475979,-0.026367188,-0.9697876,0.2609253,-0.578125,0.375,0.265625
200,200,1727965476019,-0.020019531,-0.9824829,0.24383545,-1.375,-0.546875,0.359375
201,201,1727965476059,-0.03173828,-0.9595337,0.27191162,2.640625,1.96875,0.90625
202,202,1727965476099,-0.009521484,-0.9805298,0.2514038,-4.546875,-0.09375,-0.234375
203,203,1727965476139,-0.028320312,-0.95806885,0.27166748,1.078125,-0.640625,0.328125
204,204,1727965476179,-0.013671875,-0.97784424,0.26678467,-0.796875,0.390625,0.046875
205,205,1727965476219,-0.030761719,-0.9573364,0.26141357,-0.75,0.53125,-0.171875
206,206,1727965476259,-0.02319336,-0.9710083,0.26068115,-0.578125,0.046875,-0.484375
207,207,1727965476299,-0.025634766,-0.97662354,0.25701904,0.34375,1.65625,0.453125
208,208,1727965476339,-0.02319336,-0.96051025,0.25775146,0.609375,2.6875,0.515625
209,209,1727965476379,-0.024658203,-0.96954346,0.2526245,0.9375,0.71875,0.296875
210,210,1727965476419,-0.015625,-0.97540283,0.26287842,-0.125,0.265625,0.0
211,211,1727965476459,-0.032470703,-0.9741821,0.27069092,-0.59375,0.765625,-0.453125
212,212,1727965476499,-0.01953125,-0.9661255,0.25408936,-1.421875,0.5625,-0.640625
213,213,1727965476539,-0.033203125,-0.9639282,0.262146,-0.9375,-0.1875,-0.5625
214,214,1727965476579,-0.029541016,-0.96710205,0.262146,-0.28125,-0.1875,0.078125
215,215,1727965476619,-0.030517578,-0.9673462,0.25604248,-0.140625,0.296875,0.421875
216,216,1727965476659,-0.032714844,-0.97320557,0.26409912,0.390625,0.71875,0.59375
217,217,1727965476699,-0.015625,-0.97003174,0.2675171,-1.625,-0.6875,0.25
218,218,1727965476739,-0.02758789,-0.9805298,0.25042725,0.78125,0.453125,0.71875
219,219,1727965476779,-0.022460938,-0.9697876,0.25946045,-3.03125,0.140625,-0.609375
220,220,1727965476819,-0.025146484,-0.96221924,0.2765503,1.03125,0.09375,0.90625
221,221,1727965476859,-0.026855469,-0.9788208,0.25408936,-1.109375,0.375,0.15625
222,222,1727965476899,-0.026611328,-0.9673462,0.24945068,-0.59375,0.15625,-0.125
223,223,1727965476939,-0.027832031,-0.9558716,0.2699585,0.140625,-0.421875,-0.296875
224,224,1727965476979,-0.023925781,-0.9763794,0.25360107,-0.671875,-0.4375,0.1875
225,225,1727965477019,-0.033935547,-0.9714966,0.25482178,-0.96875,0.328125,-0.015625
226,226,1727965477059,-0.032226562,-0.97857666,0.26531982,0.703125,-0.4375,0.390625
227,227,1727965477099,-0.025634766,-0.972229,0.2682495,-0.796875,-0.671875,0.21875
228,228,1727965477139,-0.033447266,-0.96710205,0.2592163,-0.5,-0.390625,-0.015625
229,229,1727965477179,0.0053710938,-0.96466064,0.15765381,-1.234375,2.125,0.640625
230,230,1727965477219,0.01928711,-0.9783325,0.16497803,1.421875,0.40625,0.484375
231,231,1727965477259,0.008544922,-0.9776001,0.1696167,2.78125,1.640625,0.40625
232,232,1727965477299,0.018554688,-0.99176025,0.18035889,1.734375,-0.265625,0.078125
233,233,1727965477339,0.0041503906,-0.9871216,0.15252686,1.125,-0.75,-0.59375
234,234,1727965477379,-0.0007324219,-0.9788208,0.15203857,1.296875,-0.578125,0.515625
235,235,1727965477419,0.018066406,-0.99713135,0.16131592,1.09375,0.734375,-0.015625
236,236,1727965477459,-0.0021972656,-0.9690552,0.14056396,0.65625,-0.671875,0.65625
237,237,1727965477499,0.0056152344,-0.99102783,0.15130615,0.921875,-2.078125,0.734375
238,238,1727965477539,0.011474609,-0.9866333,0.14544678,-0.234375,-1.40625,0.1875
239,239,1727965477579,0.012939453,-0.99468994,0.15081787,-0.53125,-1.484375,0.0625
240,240,1727965477619,-0.0017089844,-0.97735596,0.15350342,-0.078125,-1.546875,0.375
241,241,1727965477659,0.009521484,-0.9795532,0.1564331,0.65625,-1.078125,0.84375
242,242,1727965477699,0.020996094,-0.99835205,0.14324951,-0.890625,-1.625,0.5625
243,243,1727965477739,-0.008056641,-0.98028564,0.15960693,2.921875,-0.609375,1.0
244,244,1727965477779,0.012939453,-0.97906494,0.13323975,-4.046875,-0.125,-0.375
245,245,1727965477819,0.0107421875,-0.9883423,0.15960693,2.796875,0.171875,1.140625
246,246,1727965477859,0.0063476562,-0.99713135,0.14764404,0.40625,-0.6875,0.625
247,247,1727965477899,0.020263672,-0.9702759,0.14105225,-0.890625,-0.078125,0.03125
248,248,1727965477939,0.013916016,-0.97662354,0.14007568,-0.421875,-2.734375,0.296875
249,249,1727965477979,0.0024414062,-0.98565674,0.13885498,0.921875,-2.84375,1.0
250,250,1727965478019,0.015136719,-0.991272,0.14593506,-0.09375,-2.359375,1.140625
251,251,1727965478059,0.0014648438,-0.98321533,0.14666748,-0.6875,-1.9375,0.921875
252,252,1727965478099,0.008544922,-0.9961548,0.14691162,-0.40625,-0.890625,0.953125
253,253,1727965478139,0.014404297,-0.98272705,0.14813232,-0.734375,-0.625,0.375
254,254,1727965478179,0.0026855469,-0.98321533,0.13861084,-1.046875,-0.015625,0.1875
255,255,1727965478219,0.0087890625,-0.9963989,0.14422607,-0.84375,0.09375,0.046875
256,256,1727965478259,0.0087890625,-0.9697876,0.1564331,-0.25,0.734375,0.21875
257,257,1727965478299,0.01171875,-0.9937134,0.15423584,0.328125,0.015625,1.125
258,258,1727965478339,0.01977539,-0.98272705,0.14178467,-0.28125,-1.03125,1.125
259,259,1727965478379,0.015625,-0.99591064,0.12200928,-2.015625,-1.0,0.03125
260,260,1727965478419,0.013427734,-0.9800415,0.15887451,1.328125,-1.3125,0.1875
261,261,1727965478459,0.0014648438,-0.9961548,0.13494873,-3.8125,-1.109375,0.375
262,262,1727965478499,0.009765625,-0.98394775,0.1593628,-0.78125,0.015625,0.171875
263,263,1727965478539,-0.0009765625,-0.99176025,0.1605835,0.734375,-0.859375,0.671875
264,264,1727965478579,0.011474609,-0.97247314,0.1539917,-1.46875,0.4375,0.6875
265,265,1727965478619,0.0053710938,-0.98272705,0.13763428,0.15625,-0.734375,1.109375
266,266,1727965478659,0.037109375,-0.99298096,0.15374756,0.796875,-1.4375,0.34375
267,267,1727965478699,0.014892578,-0.9885864,0.13519287,-1.875,-0.921875,-0.15625
268,268,1727965478739,-0.0007324219,-0.98883057,0.15179443,-1.375,-0.421875,-0.140625
269,269,1727965478779,0.005126953,-0.9849243,0.16766357,0.46875,0.234375,0.625
270,270,1727965478819,0.009521484,-0.9902954,0.15447998,-0.375,-0.234375,0.609375
271,271,1727965478859,0.010009766,-0.9780884,0.1449585,-0.84375,0.484375,0.28125
272,272,1727965478899,0.010986328,-0.9854126,0.14910889,-0.640625,0.9375,0.515625
273,273,1727965478939,0.016357422,-0.991272,0.14593506,-0.296875,0.59375,0.390625
274,274,1727965478979,0.009521484,-0.9854126,0.15374756,0.34375,0.578125,0.484375
275,275,1727965479019,0.009521484,-0.98638916,0.14886475,-0.546875,0.3125,0.28125
276,276,1727965479059,0.013183594,-0.98638916,0.13861084,-1.5,0.203125,0.390625
277,277,1727965479099,0.009033203,-0.9783325,0.16912842,1.703125,0.671875,0.515625
278,278,1727965479139,0.025146484,-0.989563,0.13690186,-3.3125,-0.625,-0.3125
279,279,1727965479179,0.0073242188,-0.9866333,0.16278076,-0.71875,0.1875,-0.28125
280,280,1727965479219,0.009765625,-0.9920044,0.15911865,0.015625,-0.25,0.453125
281,281,1727965479259,0.010986328,-0.9780884,0.15057373,-0.6875,0.515625,0.5625
282,282,1727965479299,0.0031738281,-0.99102783,0.15130615,-1.109375,0.328125,0.5
283,283,1727965479339,0.018310547,-0.98321533,0.152771,0.734375,0.1875,0.96875
284,284,1727965479379,0.005126953,-0.9885864,0.15716553,-0.328125,0.59375,0.59375
285,285,1727965479419,0.013183594,-0.9885864,0.15008545,-0.375,0.265625,0.328125
286,286,1727965479459,0.0061035156,-0.99224854,0.14886475,-0.796875,-0.21875,0.15625
287,287,1727965479499,0.014160156,-0.9817505,0.15301514,-0.328125,0.625,0.28125
288,288,1727965479539,0.0146484375,-0.9898071,0.15130615,-0.59375,0.515625,0.21875
289,289,1727965479579,0.02709961,-0.9807739,0.1486206,-0.96875,-0.25,0.6875
290,290,1727965479619,0.021728516,-0.9883423,0.1486206,-2.4375,-0.8125,-0.171875
291,291,1727965479659,0.004638672,-0.9841919,0.15252686,-1.984375,0.09375,-0.328125
292,292,1727965479699,0.0061035156,-0.97857666,0.15496826,-1.1875,-0.46875,-0.09375
293,293,1727965479739,0.016601562,-0.99053955,0.1564331,-0.6875,-0.828125,0.046875
294,294,1727965479779,0.0021972656,-0.9717407,0.18182373,0.375,0.46875,-0.34375
295,295,1727965479819,0.004638672,-0.9932251,0.14764404,-2.40625,-0.046875,0.46875
296,296,1727965479859,0.014160156,-0.97613525,0.1642456,-1.265625,0.28125,-0.34375
297,297,1727965479899,0.0021972656,-0.99591064,0.1708374,0.703125,-1.09375,0.65625
298,298,1727965479939,0.010986328,-0.9859009,0.1618042,-2.234375,1.421875,1.359375
299,299,1727965479979,0.006591797,-0.96881104,0.15252686,-1.4375,-0.21875,0.765625
300,300,1727965480019,0.0017089844,-0.99224854,0.16571045,1.328125,-0.328125,0.703125
301,301,1727965480059,0.014160156,-0.9812622,0.15863037,-0.59375,-0.171875,0.609375
302,302,1727965480099,0.008544922,-0.9829712,0.1642456,-0.375,1.046875,0.203125
303,303,1727965480139,0.013183594,-0.98394775,0.1720581,0.265625,-0.21875,0.765625
304,304,1727965480179,0.008056641,-0.9871216,0.16937256,-0.375,0.390625,0.359375
305,305,1727965480219,0.0021972656,-0.9819946,0.16107178,-0.328125,0.0625,0.875
306,306,1727965480259,0.015380859,-0.9846802,0.16448975,0.046875,-0.765625,0.484375
307,307,1727965480299,0.0017089844,-0.99664307,0.1618042,-0.921875,0.0,0.96875
308,308,1727965480339,0.01928711,-0.9924927,0.16546631,-2.4375,1.6875,0.578125
309,309,1727965480379,0.014160156,-0.9746704,0.15301514,-1.96875,0.53125,0.328125
310,310,1727965480419,0.006591797,-0.9758911,0.16497803,-0.234375,0.34375,0.6875
311,311,1727965480459,0.0126953125,-0.9854126,0.168396,-1.765625,-1.4375,0.640625
312,312,1727965480499,0.0031738281,-0.987854,0.1618042,1.5,-0.765625,1.125
313,313,1727965480539,0.024414062,-0.9776001,0.15570068,-2.90625,-1.015625,-0.078125
314,314,1727965480579,0.0061035156,-0.99102783,0.19378662,1.734375,-0.625,0.609375
315,315,1727965480619,0.014404297,-0.99053955,0.1671753,-1.109375,-1.0,0.890625
316,316,1727965480659,0.020019531,-0.97003174,0.16131592,-0.671875,-0.1875,0.546875
317,317,1727965480699,0.005859375,-0.9795532,0.18060303,0.53125,-1.0,0.765625
318,318,1727965480739,0.018066406,-0.9812622,0.16253662,-1.25,-1.265625,0.609375
319,319,1727965480779,0.015136719,-0.98883057,0.1564331,-1.078125,-1.171875,0.609375
320,320,1727965480819,0.014892578,-0.9932251,0.17840576,-0.1875,-1.171875,0.46875
321,321,1727965480859,0.015380859,-0.9807739,0.16619873,-0.78125,-0.546875,0.734375
322,322,1727965480899,0.01953125,-0.9849243,0.17572021,-0.765625,-0.328125,0.34375
323,323,1727965480939,0.017822266,-0.97442627,0.17449951,-0.703125,-0.03125,0.46875
324,324,1727965480979,0.015380859,-0.98443604,0.16131592,-0.6875,-1.234375,0.96875
325,325,1727965481019,0.012451172,-0.9841919,0.18328857,-0.375,-0.921875,0.84375
326,326,1727965481059,0.018066406,-0.97906494,0.16766357,-0.03125,-0.609375,0.546875
327,327,1727965481099,0.0146484375,-0.9768677,0.17303467,-0.140625,-0.703125,0.671875
328,328,1727965481139,0.025390625,-0.9932251,0.168396,-1.796875,-1.46875,0.578125
329,329,1727965481179,0.01586914,-0.9780884,0.18499756,2.390625,-0.15625,0.75
330,330,1727965481219,0.025634766,-0.98394775,0.1605835,-3.484375,-0.984375,-0.5625
331,331,1727965481259,0.013427734,-0.98931885,0.18572998,1.65625,-1.265625,0.703125
332,332,1727965481299,0.018554688,-0.97735596,0.1786499,0.4375,-1.859375,0.65625
333,333,1727965481339,0.0073242188,-0.9746704,0.15594482,-2.15625,-1.921875,0.640625
334,334,1727965481379,0.033203125,-0.9871216,0.1696167,-0.5,-1.40625,0.296875
335,335,1727965481419,0.015625,-0.97979736,0.15350342,-0.6875,-1.4375,-0.09375
336,336,1727965481459,0.017089844,-0.9907837,0.16082764,0.328125,-1.0,0.15625
337,337,1727965481499,0.015380859,-0.9885864,0.18255615,-0.015625,-0.515625,0.0
338,338,1727965481539,0.010986328,-0.98150635,0.17376709,-0.203125,-0.5,-0.0625
339,339,1727965481579,0.0126953125,-0.9758911,0.17034912,-0.375,-0.390625,0.40625
340,340,1727965481619,0.020751953,-0.98223877,0.1696167,-0.703125,-0.375,0.1875
341,341,1727965481659,0.012939453,-0.9812622,0.16400146,-0.765625,-0.296875,0.21875
342,342,1727965481699,0.020019531,-0.9829712,0.17279053,-0.0625,-0.5,0.515625
343,343,1727965481739,0.010253906,-0.9834595,0.17010498,-0.3125,0.234375,0.28125
344,344,1727965481779,0.009521484,-0.9883423,0.17523193,0.46875,-0.234375,0.78125
345,345,1727965481819,0.021728516,-0.97735596,0.17059326,-1.875,-1.1875,0.0
346,346,1727965481859,0.013183594,-0.99346924,0.15838623,-0.8125,-0.03125,0.046875
347,347,1727965481899,0.012207031,-0.97247314,0.18206787,-1.234375,-0.546875,-0.28125
348,348,1727965481939,0.007080078,-0.99005127,0.18084717,-0.390625,-0.078125,0.09375
349,349,1727965481979,0.02734375,-0.9734497,0.16741943,-1.234375,0.34375,-0.296875
350,350,1727965482019,0.0034179688,-0.9727173,0.1786499,-0.21875,-0.34375,-0.203125
351,351,1727965482059,0.014160156,-0.97857666,0.18841553,0.828125,0.46875,0.0
352,352,1727965482099,0.009765625,-0.97540283,0.17523193,-0.015625,0.421875,-0.09375
353,353,1727965482139,0.01171875,-0.98883057,0.1642456,-0.59375,-0.03125,0.0625
354,354,1727965482179,0.007080078,-0.99005127,0.17645264,0.6875,0.40625,-0.0625
355,355,1727965482219,0.0126953125,-0.9807739,0.16888428,1.09375,-0.375,0.0
356,356,1727965482259,-0.005859375,-0.9812622,0.16497803,1.453125,0.15625,0.1875
357,357,1727965482299,0.016601562,-0.98638916,0.1618042,0.203125,0.28125,0.359375
358,358,1727965482339,0.016601562,-0.97906494,0.16156006,0.453125,0.234375,0.25
359,359,1727965482379,0.010253906,-0.99005127,0.17156982,0.28125,0.421875,0.3125
360,360,1727965482419,0.0041503906,-0.98101807,0.16741943,-0.15625,0.46875,0.234375
361,361,1727965482459,0.011230469,-0.987854,0.1671753,0.03125,0.5625,0.015625
362,362,1727965482499,0.005859375,-0.98272705,0.16326904,-1.765625,0.421875,-0.171875
363,363,1727965482539,0.0075683594,-0.9915161,0.15594482,0.765625,1.390625,0.40625
364,364,1727965482579,0.008300781,-0.9793091,0.15301514,-2.734375,0.15625,-1.125
365,365,1727965482619,-0.004638672,-0.9817505,0.1828003,1.53125,0.765625,0.21875
366,366,1727965482659,0.0075683594,-0.9805298,0.1593628,-1.328125,0.203125,-0.0625
367,367,1727965482699,0.010498047,-0.9729614,0.16351318,-0.671875,0.0,-0.21875
368,368,1727965482739,-0.008056641,-0.9783325,0.18231201,-0.125,-0.046875,0.140625
369,369,1727965482779,0.012939453,-0.9854126,0.16009521,-0.90625,-0.28125,0.125
370,370,1727965482819,0.0087890625,-0.98687744,0.1605835,-0.65625,-0.328125,-0.265625
371,371,1727965482859,-0.008544922,-0.99420166,0.17840576,-0.453125,0.34375,-0.015625
372,372,1727965482899,0.005126953,-0.99005127,0.16644287,-1.40625,0.140625,0.015625
373,373,1727965482939,-0.0036621094,-0.9829712,0.16156006,-0.59375,0.015625,-0.0625
374,374,1727965482979,0.0026855469,-0.9854126,0.17572021,-0.75,0.484375,-0.140625
375,375,1727965483019,0.0041503906,-0.98101807,0.17108154,-0.8125,-0.15625,-0.34375
376,376,1727965483059,-0.0041503906,-0.98516846,0.16326904,-0.671875,0.015625,0.125
377,377,1727965483099,0.0026855469,-0.9841919,0.16082764,0.203125,0.84375,0.421875
378,378,1727965483139,0.00048828125,-0.98638916,0.1708374,-0.078125,0.921875,-0.296875
379,379,1727965483179,-0.008300781,-0.99005127,0.16351318,-0.296875,0.953125,0.046875
380,380,1727965483219,0.0024414062,-0.9644165,0.18011475,0.375,-0.453125,-0.046875
381,381,1727965483259,-0.0036621094,-0.99713135,0.15179443,-1.53125,-0.671875,0.34375
382,382,1727965483299,-0.0014648438,-0.973938,0.17547607,-1.796875,0.46875,-0.828125
383,383,1727965483339,-0.0056152344,-0.99224854,0.17816162,0.75,0.0,0.265625
384,384,1727965483379,0.0017089844,-0.98565674,0.16644287,-1.203125,0.515625,0.15625
385,385,1727965483419,-0.010009766,-0.97540283,0.15472412,-1.046875,0.359375,-0.0625
386,386,1727965483459,-0.00024414062,-0.9673462,0.17401123,0.859375,0.578125,-0.25
387,387,1727965483499,-0.0021972656,-0.99005127,0.16888428,-1.203125,-0.5625,0.046875
388,388,1727965483539,-0.009765625,-0.9854126,0.16790771,-1.65625,0.375,-0.5625
389,389,1727965483579,-0.016357422,-0.98638916,0.18084717,0.265625,0.296875,0.09375
390,390,1727965483619,-0.009277344,-0.9849243,0.1749878,-1.1875,-0.046875,-0.015625
391,391,1727965483659,-0.020019531,-0.9812622,0.1720581,-1.078125,0.40625,0.453125
392,392,1727965483699,-0.0053710938,-0.9915161,0.17449951,-1.8125,-0.0625,0.453125
393,393,1727965483739,-0.0036621094,-0.97003174,0.16619873,0.078125,-0.265625,0.4375
394,394,1727965483779,-0.017089844,-0.98883057,0.17425537,0.59375,-0.265625,1.03125
395,395,1727965483819,-0.0024414062,-0.98223877,0.1749878,0.25,-0.84375,0.234375
396,396,1727965483859,-0.017578125,-0.9729614,0.16473389,-0.5,0.234375,0.484375
397,397,1727965483899,-0.0029296875,-0.99298096,0.1642456,-1.625,-0.59375,0.609375
398,398,1727965483939,-0.0146484375,-0.97125244,0.1930542,1.421875,0.734375,0.1875
399,399,1727965483979,-0.009277344,-0.98931885,0.1593628,-3.046875,-0.265625,0.328125
400,400,1727965484019,0.00390625,-0.9841919,0.18157959,-0.96875,0.453125,-0.1875
401,401,1727965484059,-0.017822266,-0.9873657,0.18133545,-0.671875,-0.28125,0.40625
402,402,1727965484099,-0.0007324219,-0.9817505,0.18084717,-0.984375,-0.40625,0.5625
403,403,1727965484139,-0.022460938,-0.98223877,0.1749878,-1.421875,-0.59375,0.734375
404,404,1727965484179,0.00024414062,-0.98272705,0.1774292,-0.390625,-0.640625,0.90625
405,405,1727965484219,-0.0007324219,-0.98687744,0.17718506,-2.71875,-0.296875,0.484375
406,406,1727965484259,0.0,-0.97247314,0.17669678,-0.828125,0.140625,0.078125
407,407,1727965484299,-0.011230469,-0.9866333,0.17791748,0.421875,-0.75,0.296875
408,408,1727965484339,-0.013916016,-0.97369385,0.18597412,-0.703125,-0.59375,0.6875
409,409,1727965484379,-0.0034179688,-0.9788208,0.18182373,-0.125,-0.4375,0.640625
410,410,1727965484419,-0.008056641,-0.98321533,0.18817139,0.515625,-0.328125,1.09375
411,411,1727965484459,0.00024414062,-0.99102783,0.18377686,-0.078125,0.65625,0.875
412,412,1727965484499,-0.008056641,-0.98443604,0.17889404,0.984375,0.375,1.0625
413,413,1727965484539,-0.0053710938,-0.9834595,0.17059326,-0.15625,-0.078125,0.671875
414,414,1727965484579,0.005126953,-0.9924927,0.16595459,-0.734375,1.546875,0.484375
415,415,1727965484619,0.0075683594,-0.9702759,0.16107178,-2.078125,1.609375,-0.46875
416,416,1727965484659,-0.024902344,-0.99420166,0.1774292,1.546875,-0.453125,1.140625
417,417,1727965484699,0.0053710938,-0.9834595,0.1864624,-2.9375,-0.734375,-0.421875
418,418,1727965484739,-0.0078125,-0.9817505,0.19329834,1.21875,0.328125,0.90625
419,419,1727965484779,-0.008544922,-0.98150635,0.17547607,-0.84375,-0.359375,0.421875
420,420,1727965484819,-0.005859375,-0.98516846,0.17059326,-0.171875,-0.421875,0.765625
421,421,1727965484859,-0.010498047,-0.97125244,0.17938232,0.8125,-0.28125,0.4375
422,422,1727965484899,0.0009765625,-0.98272705,0.17132568,-0.203125,-0.796875,0.9375
423,423,1727965484939,0.00024414062,-0.9885864,0.17108154,-0.578125,-0.625,0.578125
424,424,1727965484979,-0.010498047,-0.9819946,0.18011475,-0.109375,-0.375,0.609375
425,425,1727965485019,0.0061035156,-0.98321533,0.1828003,-0.046875,0.140625,0.484375
426,426,1727965485059,-0.017578125,-0.98028564,0.16375732,-0.625,1.109375,0.5
427,427,1727965485099,0.009033203,-0.9834595,0.17401123,-0.25,-0.109375,1.046875
428,428,1727965485139,-0.004638672,-0.9783325,0.17816162,-0.046875,0.71875,0.21875
429,429,1727965485179,-0.008056641,-0.98883057,0.17449951,-0.3125,0.625,0.609375
430,430,1727965485219,0.0031738281,-0.98394775,0.17108154,0.015625,0.0625,0.515625
431,431,1727965485259,-0.0036621094,-0.9824829,0.17791748,-0.109375,0.296875,0.5625
432,432,1727965485299,0.004638672,-0.9859009,0.15692139,-1.5,-1.65625,0.515625
433,433,1727965485339,-0.0021972656,-0.9793091,0.18597412,1.890625,-0.234375,1.0
434,434,1727965485379,0.0056152344,-0.9763794,0.16815186,-3.515625,-1.125,-0.1875
435,435,1727965485419,-0.009765625,-0.9885864,0.17694092,0.84375,-1.4375,0.734375
436,436,1727965485459,-0.00390625,-0.9854126,0.16888428,-1.515625,-0.90625,0.140625
437,437,1727965485499,-0.0034179688,-0.9771118,0.1876831,-0.4375,0.0,0.34375
438,438,1727965485539,-0.0146484375,-0.98443604,0.1918335,-0.296875,-1.3125,0.515625
439,439,1727965485579,0.009277344,-0.9824829,0.16546631,-1.0,-0.71875,0.5625
440,440,1727965485619,0.0053710938,-0.9890747,0.17181396,-0.296875,-0.375,0.25
441,441,1727965485659,-0.004638672,-0.98687744,0.17669678,-0.359375,-0.46875,0.46875
442,442,1727965485699,0.0075683594,-0.98760986,0.17596436,-0.875,-0.5,0.453125
443,443,1727965485739,-0.005126953,-0.97784424,0.18206787,-0.421875,0.375,0.109375
444,444,1727965485779,0.005859375,-0.98150635,0.17645264,-0.796875,-0.140625,0.484375
445,445,1727965485819,-0.0017089844,-0.98028564,0.17327881,-0.546875,-0.625,0.34375
446,446,1727965485859,-0.0078125,-0.9854126,0.18328857,-0.609375,0.0,0.25
447,447,1727965485899,-0.0012207031,-0.9805298,0.17401123,-0.203125,-0.03125,0.546875
448,448,1727965485939,0.0014648438,-0.9780884,0.1852417,0.078125,0.25,0.28125
449,449,1727965485979,0.0026855469,-0.9898071,0.1798706,-1.578125,-0.484375,0.078125
450,450,1727965486019,-0.012939453,-0.9871216,0.1774292,1.78125,-0.109375,1.0625
451,451,1727965486059,0.0036621094,-0.97076416,0.16400146,-3.359375,-0.125,-0.515625
452,452,1727965486099,0.00048828125,-0.98883057,0.1864624,0.859375,-0.078125,0.578125
453,453,1727965486139,0.0017089844,-0.97784424,0.1774292,-1.09375,0.15625,0.03125
454,454,1727965486179,-0.00024414062,-0.9776001,0.17938232,-0.4375,0.375,0.03125
455,455,1727965486219,-0.005859375,-0.98028564,0.18841553,0.375,-0.390625,-0.0625
456,456,1727965486259,-0.001953125,-0.99053955,0.17230225,-0.953125,-0.359375,0.46875
457,457,1727965486299,-0.0061035156,-0.99005127,0.17449951,-0.5625,-0.046875,-0.125
458,458,1727965486339,-0.011474609,-0.9949341,0.18157959,-0.34375,-0.546875,0.109375
459,459,1727965486379,-0.0034179688,-0.98150635,0.18426514,-0.921875,0.34375,0.046875
460,460,1727965486419,-0.0068359375,-0.9812622,0.17474365,-0.4375,0.484375,0.203125
461,461,1727965486459,-0.0043945312,-0.9907837,0.17889404,-0.921875,-0.296875,0.09375
462,462,1727965486499,-0.0031738281,-0.98028564,0.18011475,-0.34375,-0.15625,0.234375
463,463,1727965486539,-0.0053710938,-0.9846802,0.18304443,-0.09375,0.03125,-0.046875
464,464,1727965486579,-0.009033203,-0.9819946,0.17596436,-0.609375,-0.140625,0.1875
465,465,1727965486619,-0.0063476562,-0.98516846,0.1749878,-0.046875,0.078125,0.34375
466,466,1727965486659,0.001953125,-0.97613525,0.18621826,-0.59375,-0.859375,-0.1875
467,467,1727965486699,-0.012939453,-0.9927368,0.1798706,0.8125,-0.0625,0.515625
468,468,1727965486739,-0.010498047,-0.97540283,0.17327881,-2.328125,0.546875,-0.671875
469,469,1727965486779,-0.013427734,-0.9932251,0.19281006,1.796875,0.0625,0.578125
470,470,1727965486819,-0.006591797,-0.9841919,0.18060303,-0.53125,0.34375,0.328125
471,471,1727965486859,-0.017089844,-0.9763794,0.16766357,-0.296875,0.59375,0.3125
472,472,1727965486899,-0.0029296875,-0.9807739,0.18328857,0.796875,-0.578125,0.265625
473,473,1727965486939,-0.010986328,-0.9819946,0.17425537,-0.40625,-0.484375,0.328125
474,474,1727965486979,-0.011230469,-0.98931885,0.17669678,-1.0625,0.015625,-0.203125
475,475,1727965487019,-0.0107421875,-0.9866333,0.184021,0.25,-0.34375,0.078125
476,476,1727965487059,-0.011474609,-0.98565674,0.1876831,-0.390625,0.421875,0.25
477,477,1727965487099,-0.015625,-0.9907837,0.18011475,-0.75,0.578125,0.40625
478,478,1727965487139,-0.020751953,-0.9834595,0.17425537,-0.6875,0.15625,0.71875
479,479,1727965487179,-0.0012207031,-0.9907837,0.18157959,-0.90625,-0.78125,0.90625
480,480,1727965487219,-0.015380859,-0.9944458,0.19378662,-1.1875,0.328125,1.25
481,481,1727965487259,-0.028076172,-0.9685669,0.16766357,-2.703125,-1.625,0.6875
482,482,1727965487299,0.00024414062,-0.9907837,0.17962646,-0.75,0.109375,0.140625
483,483,1727965487339,-0.0024414062,-0.9783325,0.1852417,-1.65625,-0.09375,0.328125
484,484,1727965487379,-0.0078125,-0.98028564,0.17791748,1.65625,-0.34375,1.421875
485,485,1727965487419,0.0034179688,-0.98028564,0.18133545,-2.203125,-0.40625,0.125
486,486,1727965487459,-0.021240234,-0.98516846,0.19769287,1.828125,1.203125,0.984375
487,487,1727965487499,-0.0012207031,-0.9817505,0.17816162,-0.390625,-0.421875,1.0
488,488,1727965487539,0.0007324219,-0.97613525,0.1828003,-0.15625,-0.140625,0.296875
489,489,1727965487579,-0.009033203,-0.98760986,0.19500732,-0.109375,1.4375,1.078125
490,490,1727965487619,-0.0036621094,-0.97662354,0.1774292,-0.828125,2.078125,1.703125
491,491,1727965487659,0.004638672,-0.9841919,0.17010498,1.75,1.140625,1.28125
492,492,1727965487699,-0.009521484,-0.991272,0.18060303,1.8125,0.828125,1.21875
493,493,1727965487739,0.0087890625,-0.96661377,0.16253662,1.1875,0.921875,0.796875
494,494,1727965487779,-0.0036621094,-0.98101807,0.16766357,1.078125,0.359375,0.578125
495,495,1727965487819,0.0029296875,-0.9859009,0.17327881,0.375,0.15625,0.890625
496,496,1727965487859,0.008300781,-0.98272705,0.16595459,0.4375,0.203125,0.78125
497,497,1727965487899,0.0031738281,-0.9915161,0.16448975,0.15625,0.390625,0.90625
498,498,1727965487939,0.006591797,-0.9788208,0.17230225,0.25,1.171875,0.71875
499,499,1727965487979,0.0029296875,-0.9944458,0.14691162,-0.890625,-0.234375,0.921875
500,500,1727965488019,0.008056641,-0.96710205,0.18011475,3.140625,-0.25,0.90625
501,501,1727965488059,-0.0009765625,-0.98883057,0.14691162,-2.609375,-0.671875,0.484375
502,502,1727965488099,0.0041503906,-0.9841919,0.17352295,1.171875,-0.171875,0.5625
503,503,1727965488139,-0.0012207031,-0.98443604,0.16131592,-0.15625,-0.671875,0.5625
504,504,1727965488179,0.0063476562,-0.97491455,0.16131592,-0.546875,0.390625,0.703125
505,505,1727965488219,0.0126953125,-0.9968872,0.15789795,-0.875,-0.984375,0.65625
506,506,1727965488259,0.0107421875,-0.9812622,0.15765381,0.8125,-0.046875,0.65625
507,507,1727965488299,0.012451172,-0.9873657,0.15423584,-0.34375,-0.5,0.59375
508,508,1727965488339,0.008544922,-0.98565674,0.16571045,-0.375,-1.234375,0.390625
509,509,1727965488379,0.00024414062,-0.9837036,0.16619873,-0.671875,-1.328125,0.46875
510,510,1727965488419,0.010498047,-0.98638916,0.1564331,0.390625,0.1875,0.703125
511,511,1727965488459,0.00024414062,-0.98321533,0.1642456,-0.296875,-1.21875,0.59375
512,512,1727965488499,-0.0009765625,-0.99298096,0.16790771,0.3125,-0.734375,0.796875
513,513,1727965488539,0.015136719,-0.9829712,0.15594482,-0.546875,-0.734375,0.484375
514,514,1727965488579,0.0021972656,-0.9846802,0.15887451,-0.046875,-0.890625,0.5625
515,515,1727965488619,0.0034179688,-0.98272705,0.16375732,-0.8125,-1.0625,0.40625
516,516,1727965488659,0.021484375,-0.9883423,0.16253662,-2.8125,-1.53125,-0.046875
517,517,1727965488699,0.0,-0.97784424,0.17767334,1.484375,-0.21875,0.734375
518,518,1727965488739,0.020996094,-0.97540283,0.15032959,-4.375,-1.4375,-0.453125
519,519,1727965488779,0.0014648438,-0.9907837,0.17596436,-0.34375,-0.6875,-0.15625
520,520,1727965488819,-0.0017089844,-0.9846802,0.17132568,-1.140625,-0.46875,-0.140625
521,521,1727965488859,-0.0014648438,-0.97613525,0.15692139,-1.375,-0.5625,-0.140625
522,522,1727965488899,-0.0034179688,-0.9846802,0.16937256,-1.3125,-0.84375,-0.140625
523,523,1727965488939,0.005859375,-0.98394775,0.16156006,-0.28125,-0.578125,0.703125
524,524,1727965488979,0.0075683594,-0.98101807,0.1671753,-0.65625,-0.296875,-0.03125
525,525,1727965489019,-0.007080078,-0.9854126,0.1786499,-0.390625,0.234375,0.1875
526,526,1727965489059,0.004638672,-0.9829712,0.17132568,-0.640625,0.0,0.265625
527,527,1727965489099,0.0014648438,-0.9780884,0.17718506,-1.078125,1.34375,-0.078125
528,528,1727965489139,0.0024414062,-0.97979736,0.17010498,-0.203125,0.875,0.1875
529,529,1727965489179,-0.0024414062,-0.9776001,0.17156982,1.046875,-0.3125,0.59375
530,530,1727965489219,0.0043945312,-0.98272705,0.1696167,0.90625,0.609375,0.9375
531,531,1727965489259,0.0063476562,-0.9837036,0.17156982,1.28125,-0.265625,0.40625
532,532,1727965489299,-0.00048828125,-0.98101807,0.1696167,-0.109375,-0.578125,0.171875
533,533,1727965489339,0.0007324219,-0.99298096,0.1630249,-1.359375,-0.828125,-0.109375
534,534,1727965489379,-0.0007324219,-0.97320557,0.18939209,2.109375,-0.390625,0.28125
535,535,1727965489419,0.0017089844,-0.99176025,0.1486206,-3.5625,-1.21875,-0.0625
536,536,1727965489459,-0.0007324219,-0.98101807,0.1720581,-0.3125,0.015625,-0.421875
537,537,1727965489499,-0.0053710938,-0.9944458,0.17449951,0.078125,0.109375,0.1875
538,538,1727965489539,0.0048828125,-0.9812622,0.15814209,-0.765625,0.203125,-0.046875
539,539,1727965489579,-0.008300781,-0.98516846,0.1605835,-0.375,-0.484375,-0.078125
540,540,1727965489619,-0.0021972656,-0.9807739,0.17767334,0.796875,-0.546875,0.359375
541,541,1727965489659,-0.0024414062,-0.98028564,0.16815186,-0.25,-0.109375,0.140625
542,542,1727965489699,-0.0041503906,-0.99298096,0.16497803,-0.78125,0.234375,0.109375
543,543,1727965489739,-0.0041503906,-0.9885864,0.16815186,-0.078125,-0.140625,0.296875
544,544,1727965489779,0.0017089844,-0.9805298,0.16546631,-0.21875,0.109375,0.265625
545,545,1727965489819,-0.0024414062,-0.9902954,0.17303467,-0.671875,-0.296875,-0.03125
546,546,1727965489859,-0.00390625,-0.9795532,0.17156982,-0.203125,-0.109375,0.109375
547,547,1727965489899,-0.010498047,-0.9859009,0.16107178,-0.15625,0.453125,0.515625
548,548,1727965489939,-0.0041503906,-0.9854126,0.16497803,0.78125,0.46875,0.90625
549,549,1727965489979,-0.006591797,-0.9805298,0.15960693,-0.03125,0.453125,0.5625
550,550,1727965490019,0.0029296875,-1.0005493,0.15911865,-0.859375,-0.734375,0.4375
551,551,1727965490059,-0.0029296875,-0.9636841,0.18182373,-0.171875,-0.484375,-0.0625
552,552,1727965490099,-0.0017089844,-0.99957275,0.15765381,-1.875,-0.53125,0.75
553,553,1727965490139,0.0041503906,-0.98687744,0.168396,-4.703125,0.0,-0.140625
554,554,1727965490179,0.0036621094,-0.9854126,0.1876831,-2.234375,1.578125,0.078125
555,555,1727965490219,0.0048828125,-0.9763794,0.16986084,-0.875,2.484375,0.140625
556,556,1727965490259,-0.016601562,-0.97735596,0.15887451,0.703125,0.3125,-0.171875
557,557,1727965490299,-0.005859375,-0.9854126,0.17523193,2.09375,-1.28125,0.15625
558,558,1727965490339,-0.0068359375,-0.98394775,0.17596436,0.484375,-0.515625,0.546875
559,559,1727965490379,-0.013183594,-0.98028564,0.16619873,-0.375,0.546875,0.390625
560,560,1727965490419,-0.010986328,-0.9932251,0.17352295,0.671875,0.09375,0.625
561,561,1727965490459,-0.0012207031,-0.9834595,0.16375732,-0.296875,0.21875,0.484375
562,562,1727965490499,-0.018798828,-0.99005127,0.17401123,0.3125,0.15625,0.640625
563,563,1727965490539,0.0,-0.98760986,0.1696167,0.0,-0.171875,0.515625
564,564,1727965490579,0.0024414062,-0.9758911,0.16864014,0.21875,-0.109375,0.890625
565,565,1727965490619,-0.0075683594,-0.98516846,0.17596436,-0.34375,-0.359375,1.109375
566,566,1727965490659,-0.0056152344,-0.9873657,0.16815186,-0.984375,-0.59375,2.0625
567,567,1727965490699,0.005859375,-0.98443604,0.15472412,-2.109375,-0.078125,0.984375
568,568,1727965490739,0.014892578,-0.991272,0.1630249,0.046875,-0.546875,0.96875
569,569,1727965490779,-0.0056152344,-0.9692993,0.19256592,0.859375,-0.609375,0.84375
570,570,1727965490819,0.016845703,-0.9883423,0.14349365,-1.78125,-0.640625,1.375
571,571,1727965490859,0.0053710938,-0.97540283,0.17376709,-0.375,0.671875,0.46875
572,572,1727965490899,0.0068359375,-0.9961548,0.18133545,0.890625,0.46875,1.578125
573,573,1727965490939,0.017089844,-0.9788208,0.16107178,-1.453125,0.125,0.71875
574,574,1727965490979,0.009521484,-0.9819946,0.15301514,0.53125,-0.265625,0.953125
575,575,1727965491019,0.0021972656,-0.98760986,0.18572998,1.75,-0.5,0.96875
576,576,1727965491059,0.007080078,-0.9819946,0.16326904,-1.25,-0.578125,1.359375
577,577,1727965491099,0.0075683594,-0.9937134,0.16131592,-2.25,-0.765625,1.78125
578,578,1727965491139,0.014892578,-0.96832275,0.15911865,0.046875,-0.6875,1.359375
579,579,1727965491179,0.011474609,-1.0007935,0.17303467,-0.078125,-0.46875,1.5
580,580,1727965491219,0.010986328,-0.9834595,0.16644287,-0.453125,-0.96875,1.15625
581,581,1727965491259,0.020019531,-0.99346924,0.16619873,-0.390625,-0.6875,1.234375
582,582,1727965491299,0.025146484,-0.986145,0.15618896,-0.5625,-0.671875,1.28125
583,583,1727965491339,0.017822266,-0.9788208,0.16766357,-0.3125,-0.703125,1.109375
584,584,1727965491379,0.026855469,-0.9824829,0.16253662,-0.171875,-0.890625,0.859375
585,585,1727965491419,0.0146484375,-0.98638916,0.16448975,-1.5,-1.234375,0.5
586,586,1727965491459,0.026855469,-0.9890747,0.16229248,-1.734375,-1.203125,0.375
587,587,1727965491499,0.012451172,-0.9614868,0.18548584,-0.265625,-1.328125,0.171875
588,588,1727965491539,0.020263672,-1.0007935,0.14910889,-2.3125,-1.609375,0.53125
589,589,1727965491579,0.026367188,-0.9824829,0.17791748,-1.84375,-0.375,-0.6875
590,590,1727965491619,0.014160156,-0.9898071,0.18597412,-0.03125,-0.296875,0.84375
591,591,1727965491659,0.02319336,-0.97491455,0.17327881,-1.28125,0.421875,0.25
592,592,1727965491699,0.011474609,-0.9898071,0.17547607,-1.5625,0.59375,0.5
593,593,1727965491739,0.024658203,-0.9758911,0.18988037,1.171875,0.171875,0.46875
594,594,1727965491779,0.010498047,-0.9783325,0.17523193,-0.984375,0.515625,0.515625
595,595,1727965491819,0.025634766,-0.9927368,0.16546631,-1.015625,0.40625,0.3125
596,596,1727965491859,0.013916016,-0.9817505,0.18206787,-0.0625,0.734375,0.015625
597,597,1727965491899,0.020996094,-0.9873657,0.17474365,-0.609375,0.890625,0.25
598,598,1727965491939,0.018310547,-0.9783325,0.17547607,-0.59375,0.0625,-0.265625
599,599,1727965491979,0.012939453,-0.98565674,0.17645264,-0.984375,-0.171875,-0.046875
600,600,1727965492019,0.020751953,-0.989563,0.17767334,0.046875,-0.4375,-0.046875
601,601,1727965492059,0.015136719,-0.9871216,0.1774292,-0.25,-0.390625,-0.046875
602,602,1727965492099,0.011962891,-0.98150635,0.18157959,-0.1875,-0.078125,0.015625
603,603,1727965492139,0.015380859,-0.98443604,0.1774292,-1.046875,-0.140625,-0.125
604,604,1727965492179,0.010986328,-0.9841919,0.17181396,-0.875,0.203125,0.140625
605,605,1727965492219,0.0126953125,-0.9702759,0.18670654,0.640625,0.28125,-0.328125
606,606,1727965492259,0.0075683594,-0.99420166,0.16156006,-1.484375,-0.5,0.71875
607,607,1727965492299,0.015380859,-0.9812622,0.17303467,-2.0625,0.484375,-0.765625
608,608,1727965492339,0.012207031,-0.9949341,0.19256592,0.703125,0.15625,0.390625
609,609,1727965492379,0.015625,-0.9817505,0.1774292,-0.484375,-0.0625,0.25
610,610,1727965492419,0.020507812,-0.9795532,0.17889404,-0.078125,-0.3125,0.0
611,611,1727965492459,0.0026855469,-0.97906494,0.18426514,-0.15625,-0.375,0.125
612,612,1727965492499,0.019042969,-0.9776001,0.17034912,-1.234375,-0.390625,0.578125
613,613,1727965492539,0.0056152344,-0.9898071,0.17254639,-1.15625,0.28125,-0.078125
614,614,1727965492579,0.0078125,-0.9871216,0.18450928,-0.25,-0.265625,0.0625
615,615,1727965492619,0.012451172,-0.9800415,0.1798706,-1.71875,-0.03125,-0.140625
616,616,1727965492659,0.010009766,-0.9727173,0.18304443,-0.671875,0.328125,-1.015625
617,617,1727965492699,0.0024414062,-0.97540283,0.1930542,0.53125,-0.625,-1.046875
618,618,1727965492739,0.0034179688,-0.9902954,0.18963623,-0.3125,0.21875,-0.484375
619,619,1727965492779,0.0078125,-0.98809814,0.17376709,-0.3125,0.390625,-0.1875
620,620,1727965492819,-0.005859375,-0.9824829,0.17645264,0.40625,0.28125,-0.3125
621,621,1727965492859,0.0014648438,-0.98272705,0.17913818,0.40625,-0.203125,-0.28125
622,622,1727965492899,-0.004638672,-0.9817505,0.16668701,-0.421875,-0.59375,-0.671875
623,623,1727965492939,0.00024414062,-0.9751587,0.1918335,1.015625,-0.546875,-0.734375
624,624,1727965492979,-0.0007324219,-0.9920044,0.16546631,-1.984375,-1.03125,-0.09375
625,625,1727965493019,-0.005126953,-0.9849243,0.1864624,-0.84375,-0.046875,-0.421875
626,626,1727965493059,-0.0036621094,-0.99713135,0.18865967,0.109375,-0.484375,-0.015625
627,627,1727965493099,-0.0087890625,-0.97979736,0.17303467,-1.375,0.71875,0.0625
628,628,1727965493139,-0.009277344,-0.98883057,0.17059326,-0.578125,-0.140625,0.15625
629,629,1727965493179,-0.0026855469,-0.9932251,0.18865967,0.328125,0.203125,0.125
630,630,1727965493219,-0.0036621094,-0.98223877,0.18206787,-0.953125,0.4375,0.46875
631,631,1727965493259,-0.007080078,-0.989563,0.17840576,-0.640625,-0.25,0.25
632,632,1727965493299,-0.01586914,-0.9793091,0.18792725,0.578125,0.078125,0.9375
633,633,1727965493339,0.0009765625,-0.98272705,0.18231201,-0.390625,-0.015625,1.046875
634,634,1727965493379,-0.004638672,-0.9805298,0.18231201,-0.046875,0.234375,0.734375
635,635,1727965493419,0.0009765625,-0.98321533,0.17376709,-0.03125,-0.421875,1.046875
636,636,1727965493459,0.015380859,-0.98443604,0.18231201,0.15625,-0.234375,1.15625
637,637,1727965493499,-0.0034179688,-0.98809814,0.18328857,-0.171875,0.0625,1.046875
638,638,1727965493539,0.0009765625,-0.98028564,0.17962646,-0.046875,-0.75,0.875
639,639,1727965493579,0.0017089844,-0.9849243,0.18157959,-0.59375,-0.671875,0.796875
640,640,1727965493619,0.006591797,-0.9859009,0.16937256,-1.6875,-0.65625,0.75
641,641,1727965493659,-0.005859375,-0.9795532,0.1942749,1.859375,-0.375,0.828125
642,642,1727965493699,-0.017333984,-0.9898071,0.15960693,-2.6875,-0.4375,0.625
643,643,1727965493739,0.0107421875,-0.98565674,0.18841553,0.296875,0.375,0.765625
644,644,1727965493779,-0.00390625,-0.9873657,0.18109131,0.53125,0.09375,1.15625
645,645,1727965493819,0.0036621094,-0.975647,0.17645264,-0.921875,-0.015625,1.09375
646,646,1727965493859,0.001953125,-0.98565674,0.17938232,-0.203125,-0.296875,1.078125
647,647,1727965493899,0.010253906,-0.9834595,0.17547607,0.109375,0.140625,1.546875
648,648,1727965493939,0.020263672,-0.98565674,0.15301514,-1.140625,-0.453125,0.46875
649,649,1727965493979,0.022460938,-0.98516846,0.15765381,-0.765625,0.296875,0.140625
650,650,1727965494019,0.026367188,-0.98223877,0.1630249,-0.84375,-0.25,0.203125
651,651,1727965494059,0.016845703,-0.9859009,0.15814209,-0.890625,-1.046875,0.109375
652,652,1727965494099,0.02319336,-0.98272705,0.15985107,-0.6875,-0.5625,0.265625
653,653,1727965494139,0.01928711,-0.9849243,0.16595459,-0.71875,-0.515625,0.046875
654,654,1727965494179,0.018066406,-0.98443604,0.16253662,-1.5625,-0.390625,0.109375
655,655,1727965494219,0.029052734,-0.9866333,0.15228271,-1.578125,-0.796875,0.203125
656,656,1727965494259,0.013671875,-0.9751587,0.18743896,0.578125,0.015625,0.0
657,657,1727965494299,0.021484375,-0.986145,0.1449585,-4.265625,-0.328125,-0.171875
658,658,1727965494339,0.01171875,-0.9734497,0.1749878,-0.265625,-0.296875,-0.28125
659,659,1727965494379,0.014160156,-0.9973755,0.17254639,-0.796875,-0.140625,0.53125
660,660,1727965494419,0.018798828,-0.972229,0.16619873,-1.203125,0.828125,-0.140625
661,661,1727965494459,0.0087890625,-0.98638916,0.168396,-0.984375,-0.484375,0.140625
662,662,1727965494499,0.022949219,-0.98760986,0.17376709,0.140625,0.03125,0.1875
663,663,1727965494539,0.013183594,-0.9837036,0.16986084,-1.25,0.171875,0.078125
664,664,1727965494579,0.011230469,-0.9834595,0.1671753,-0.796875,-0.0625,0.09375
665,665,1727965494619,0.016601562,-0.98638916,0.1786499,-0.078125,0.0,0.140625
666,666,1727965494659,0.020263672,-0.97979736,0.17279053,-0.390625,-0.234375,0.015625
667,667,1727965494699,0.016845703,-0.98516846,0.16815186,-0.390625,-0.09375,0.0625
668,668,1727965494739,0.005126953,-0.9837036,0.17791748,-0.4375,-0.140625,0.046875
669,669,1727965494779,0.016601562,-0.99176025,0.16741943,-1.140625,-0.34375,0.109375
670,670,1727965494819,0.018798828,-0.98101807,0.17474365,0.015625,-0.421875,-0.328125
671,671,1727965494859,0.0126953125,-0.98101807,0.18304443,0.796875,-0.3125,-0.421875
672,672,1727965494899,0.010009766,-0.989563,0.16473389,-0.828125,-0.921875,-0.4375
673,673,1727965494939,0.008300781,-0.9937134,0.17401123,0.421875,0.421875,-0.109375
674,674,1727965494979,0.01586914,-0.97125244,0.18182373,0.84375,0.703125,-0.5625
675,675,1727965495019,0.0041503906,-0.9981079,0.15350342,-1.484375,-0.453125,0.0625
676,676,1727965495059,0.010009766,-0.9883423,0.168396,-1.28125,0.53125,-0.8125
677,677,1727965495099,-0.0034179688,-0.9985962,0.18109131,1.0,0.53125,0.0625
678,678,1727965495139,0.0031738281,-0.96759033,0.16375732,-0.9375,-0.203125,-0.1875
679,679,1727965495179,0.0053710938,-0.98638916,0.16375732,-0.625,-0.53125,0.109375
680,680,1727965495219,0.0012207031,-0.9829712,0.18157959,-0.390625,-0.765625,-0.25
681,681,1727965495259,-0.0021972656,-0.99664307,0.18255615,-1.015625,-0.421875,0.109375
682,682,1727965495299,0.011474609,-0.9902954,0.16326904,-1.71875,0.15625,0.046875
683,683,1727965495339,0.0034179688,-0.97662354,0.17767334,-0.6875,0.265625,0.265625
684,684,1727965495379,-0.0073242188,-0.98223877,0.17816162,-0.625,0.3125,0.3125
685,685,1727965495419,0.0,-0.9788208,0.17572021,-0.703125,0.359375,0.65625
686,686,1727965495459,0.0048828125,-0.9849243,0.18109131,-1.859375,-0.21875,0.390625
687,687,1727965495499,0.0007324219,-0.99298096,0.18695068,-2.359375,0.765625,0.390625
688,688,1727965495539,0.0041503906,-0.98565674,0.18890381,-4.171875,0.65625,0.234375
689,689,1727965495579,0.0031738281,-0.9668579,0.18670654,-2.375,0.3125,0.375
690,690,1727965495619,-0.0053710938,-0.9780884,0.18572998,-1.296875,-0.015625,0.640625
691,691,1727965495659,0.01586914,-0.9898071,0.1918335,-2.625,-0.40625,0.640625
692,692,1727965495699,-0.005859375,-0.98394775,0.1918335,-1.453125,0.609375,0.65625
693,693,1727965495739,0.009765625,-0.9734497,0.21282959,-0.28125,0.734375,1.03125
694,694,1727965495779,0.0107421875,-0.9859009,0.17279053,-4.515625,-1.015625,0.484375
695,695,1727965495819,0.001953125,-0.9714966,0.20281982,-1.578125,0.640625,0.09375
696,696,1727965495859,0.010986328,-0.9907837,0.21063232,0.546875,-0.234375,0.96875
697,697,1727965495899,0.016845703,-0.97369385,0.19573975,-1.0,0.09375,0.375
698,698,1727965495939,0.0024414062,-0.97052,0.19573975,-1.6875,-0.421875,0.578125
699,699,1727965495979,0.008544922,-0.9873657,0.20281982,0.421875,-0.484375,0.453125
700,700,1727965496019,0.005859375,-0.9866333,0.20013428,-0.328125,0.390625,0.40625
701,701,1727965496059,0.009765625,-0.98223877,0.20111084,-0.328125,-0.234375,0.40625
702,702,1727965496099,-0.001953125,-0.97369385,0.21258545,0.296875,-0.203125,0.578125
703,703,1727965496139,0.0034179688,-0.97491455,0.20037842,-0.25,-0.375,0.546875
704,704,1727965496179,-0.0021972656,-0.9758911,0.2020874,-0.984375,-0.21875,0.265625
705,705,1727965496219,0.010498047,-0.98394775,0.18963623,-1.59375,-0.328125,0.703125
706,706,1727965496259,0.018554688,-0.9949341,0.19598389,-1.25,-0.046875,0.203125
707,707,1727965496299,0.012939453,-0.98638916,0.2008667,-1.84375,0.1875,-0.3125
708,708,1727965496339,0.0056152344,-0.96539307,0.20721436,-0.515625,-0.53125,-0.515625
709,709,1727965496379,-0.0061035156,-0.96759033,0.21160889,-0.578125,-0.84375,-0.0625
710,710,1727965496419,0.0014648438,-0.9837036,0.20550537,0.109375,0.078125,0.703125
711,711,1727965496459,0.0061035156,-0.96051025,0.22698975,1.078125,-0.25,-0.0625
712,712,1727965496499,0.0041503906,-1.0061646,0.17474365,-2.5,0.046875,-0.140625
713,713,1727965496539,0.01171875,-0.9800415,0.20379639,-1.546875,-0.15625,-1.03125
714,714,1727965496579,-0.011474609,-0.99176025,0.21234131,-0.140625,-1.09375,-0.390625
715,715,1727965496619,0.014892578,-0.9636841,0.20648193,-1.1875,-0.546875,-1.09375
716,716,1727965496659,-0.0063476562,-0.97052,0.21673584,0.265625,-1.09375,-0.640625
717,717,1727965496699,-0.016601562,-0.9807739,0.23114014,0.859375,-0.3125,-0.234375
718,718,1727965496739,-0.005859375,-0.9800415,0.19793701,-0.484375,-0.46875,-0.4375
719,719,1727965496779,-0.011230469,-1.0015259,0.20355225,0.015625,-0.515625,-0.421875
720,720,1727965496819,-0.023925781,-0.98150635,0.21600342,0.796875,0.609375,-0.109375
721,721,1727965496859,-0.013183594,-0.97735596,0.19915771,0.40625,0.40625,0.03125
722,722,1727965496899,-0.0026855469,-0.9763794,0.20306396,0.75,-0.8125,0.125
723,723,1727965496939,-0.0146484375,-0.97857666,0.19866943,-0.28125,-0.453125,-0.21875
724,724,1727965496979,-0.0017089844,-0.9829712,0.19451904,-0.625,-0.875,0.140625
725,725,1727965497019,-0.012939453,-0.9771118,0.20159912,0.15625,-0.9375,0.015625
726,726,1727965497059,-0.010986328,-0.98883057,0.20672607,0.203125,-0.96875,0.40625
727,727,1727965497099,-0.016601562,-0.9714966,0.21185303,-1.015625,-0.625,0.0625
728,728,1727965497139,-0.013183594,-0.9805298,0.19891357,-2.234375,-1.03125,0.078125
729,729,1727965497179,-0.01171875,-0.9873657,0.21282959,2.4375,0.015625,0.765625
730,730,1727965497219,-0.0053710938,-0.973938,0.18499756,-3.953125,-0.296875,-0.1875
731,731,1727965497259,-0.013183594,-0.98516846,0.20404053,0.40625,-0.578125,0.015625
732,732,1727965497299,-0.01586914,-0.9805298,0.20452881,0.640625,0.28125,0.28125
733,733,1727965497339,-0.0024414062,-0.9619751,0.19989014,-0.84375,0.5,0.390625
734,734,1727965497379,-0.016357422,-0.98565674,0.1942749,-0.125,-0.625,0.34375
735,735,1727965497419,-0.0078125,-0.98150635,0.20477295,1.5,-0.375,0.421875
736,736,1727965497459,-0.009033203,-0.98565674,0.20233154,0.453125,-1.296875,0.265625
737,737,1727965497499,-0.007080078,-0.9829712,0.20648193,-1.21875,0.609375,0.125
738,738,1727965497539,-0.016357422,-0.9849243,0.19915771,-0.078125,-0.5625,0.390625
739,739,1727965497579,-0.018310547,-0.96661377,0.19451904,-0.5,0.0,0.15625
740,740,1727965497619,-0.017089844,-0.98272705,0.20428467,-0.625,-0.09375,0.421875
741,741,1727965497659,-0.011474609,-0.97662354,0.19598389,0.15625,-0.515625,0.390625
742,742,1727965497699,-0.010498047,-0.98321533,0.199646,-0.25,-0.453125,0.265625
743,743,1727965497739,-0.013183594,-0.98443604,0.20819092,-0.1875,0.125,0.328125
744,744,1727965497779,-0.012939453,-0.9685669,0.1918335,-0.75,-0.09375,0.109375
745,745,1727965497819,-0.012207031,-0.9963989,0.19012451,-0.734375,-0.6875,0.53125
746,746,1727965497859,-0.016113281,-0.96759033,0.21575928,1.015625,-0.015625,0.1875
747,747,1727965497899,-0.020263672,-0.9885864,0.1774292,-2.5,-0.625,0.390625
748,748,1727965497939,-0.012451172,-0.9800415,0.20599365,-0.578125,0.5625,-0.859375
749,749,1727965497979,-0.025390625,-0.98760986,0.21136475,0.640625,0.34375,0.21875
750,750,1727965498019,-0.016113281,-0.9697876,0.19744873,-0.125,-0.25,0.109375
751,751,1727965498059,-0.017333984,-0.9771118,0.19158936,-0.296875,-0.078125,-0.234375
752,752,1727965498099,-0.016357422,-0.9824829,0.19866943,0.5,-0.546875,0.234375
753,753,1727965498139,-0.0126953125,-0.98272705,0.20355225,-0.28125,-0.90625,0.390625
754,754,1727965498179,-0.02758789,-0.989563,0.20257568,-1.515625,0.078125,0.578125
755,755,1727965498219,-0.0068359375,-0.9885864,0.19891357,-0.78125,-0.109375,0.46875
756,756,1727965498259,-0.014892578,-0.9783325,0.19281006,-0.859375,0.390625,0.515625
757,757,1727965498299,-0.027832031,-0.9727173,0.19940186,0.03125,0.5,0.984375
758,758,1727965498339,-0.006591797,-0.9819946,0.19451904,-1.234375,0.21875,0.765625
759,759,1727965498379,-0.021972656,-0.9727173,0.1930542,-0.421875,1.0,0.625
