,Unnamed: 0,timestamp,accel_x,accel_y,accel_z,gyro_x,gyro_y,gyro_z
0,0,1727897234753,-0.27856445,-0.95098877,0.3151245,7.390625,-0.109375,0.21875
1,1,1727897234793,-0.2836914,-0.9295044,0.28948975,-7.125,1.328125,-0.34375
2,2,1727897234833,-0.30029297,-0.9319458,0.27264404,2.984375,0.09375,0.234375
3,3,1727897234873,-0.26416016,-0.93829346,0.30975342,-2.046875,0.625,-0.515625
4,4,1727897234913,-0.28149414,-0.9351196,0.2633667,-0.34375,0.09375,0.078125
5,5,1727897234953,-0.27148438,-0.9365845,0.2987671,0.046875,0.046875,0.21875
6,6,1727897234993,-0.28125,-0.9331665,0.27386475,-0.921875,0.4375,0.375
7,7,1727897235033,-0.2775879,-0.9390259,0.30096436,1.109375,0.21875,0.1875
8,8,1727897235073,-0.2824707,-0.928772,0.28656006,-1.984375,0.28125,-0.078125
9,9,1727897235113,-0.28393555,-0.9290161,0.28460693,-0.53125,0.328125,0.140625
10,10,1727897235153,-0.28295898,-0.93829346,0.2892456,-1.71875,0.375,-0.109375
11,11,1727897235193,-0.26953125,-0.93292236,0.29559326,0.1875,-0.515625,0.171875
12,12,1727897235233,-0.27954102,-0.942688,0.29608154,-0.359375,-0.421875,-0.21875
13,13,1727897235273,-0.2722168,-0.9221802,0.26239014,-2.84375,0.828125,-0.375
14,14,1727897235313,-0.29370117,-0.9429321,0.3060913,3.703125,0.125,0.40625
15,15,1727897235353,-0.2866211,-0.9307251,0.28900146,-3.265625,0.71875,-0.328125
16,16,1727897235393,-0.2824707,-0.93585205,0.2753296,0.625,0.1875,-0.015625
17,17,1727897235433,-0.2841797,-0.9356079,0.29559326,-1.28125,0.328125,-0.28125
18,18,1727897235473,-0.2841797,-0.94610596,0.29486084,0.453125,0.53125,-0.09375
19,19,1727897235513,-0.27246094,-0.93292236,0.28485107,-1.828125,0.53125,-0.296875
20,20,1727897235553,-0.29467773,-0.94073486,0.29119873,0.578125,0.65625,-0.03125
21,21,1727897235593,-0.2836914,-0.9336548,0.29608154,0.734375,0.59375,-0.03125
22,22,1727897235633,-0.29223633,-0.9385376,0.28363037,-1.03125,0.53125,0.046875
23,23,1727897235673,-0.2746582,-0.9324341,0.28485107,-0.046875,0.984375,0.3125
24,24,1727897235713,-0.27612305,-0.94000244,0.28411865,-0.25,0.6875,0.34375
25,25,1727897235753,-0.27954102,-0.9368286,0.28656006,0.640625,0.734375,0.453125
26,26,1727897235793,-0.28393555,-0.93634033,0.29608154,0.421875,0.4375,0.5625
27,27,1727897235833,-0.28393555,-0.9343872,0.291687,-0.859375,0.453125,0.53125
28,28,1727897235873,-0.28637695,-0.9348755,0.27801514,-0.359375,1.09375,0.359375
29,29,1727897235913,-0.2758789,-0.94366455,0.28607178,-1.359375,0.859375,0.59375
30,30,1727897235953,-0.26464844,-0.93634033,0.27996826,0.96875,0.625,0.21875
31,31,1727897235993,-0.28100586,-0.9397583,0.3065796,1.671875,0.359375,0.703125
32,32,1727897236033,-0.2734375,-0.93292236,0.26116943,-4.828125,1.796875,0.328125
33,33,1727897236073,-0.2763672,-0.9324341,0.2831421,3.0625,0.953125,0.78125
34,34,1727897236113,-0.27783203,-0.93170166,0.3036499,-1.4375,0.421875,0.78125
35,35,1727897236153,-0.28100586,-0.9390259,0.27996826,-1.90625,0.3125,0.53125
36,36,1727897236193,-0.2788086,-0.94195557,0.2970581,-0.65625,0.8125,0.203125
37,37,1727897236233,-0.2626953,-0.9522095,0.29534912,-0.109375,0.078125,-0.1875
38,38,1727897236273,-0.27075195,-0.93414307,0.29022217,-3.1875,1.34375,-0.125
39,39,1727897236313,-0.27294922,-0.93951416,0.2819214,-1.640625,0.703125,-0.09375
40,40,1727897236353,-0.27514648,-0.9439087,0.3024292,-0.453125,-0.015625,-0.09375
41,41,1727897236393,-0.26904297,-0.92852783,0.29608154,-2.0,0.03125,-0.296875
42,42,1727897236433,-0.2602539,-0.93292236,0.2958374,-1.59375,0.140625,0.25
43,43,1727897236473,-0.27856445,-0.9402466,0.30438232,-1.15625,-0.546875,0.125
44,44,1727897236513,-0.28588867,-0.93414307,0.3024292,-0.6875,0.390625,0.03125
45,45,1727897236553,-0.27539062,-0.92755127,0.2982788,-1.59375,0.84375,-0.09375
46,46,1727897236593,-0.26489258,-0.9299927,0.29803467,-0.390625,0.578125,-0.296875
47,47,1727897236633,-0.27783203,-0.9390259,0.3060913,-0.171875,0.84375,0.21875
48,48,1727897236673,-0.27563477,-0.9360962,0.28607178,-0.71875,0.71875,0.140625
49,49,1727897236713,-0.28149414,-0.9326782,0.3053589,-0.390625,0.265625,0.203125
50,50,1727897236753,-0.27612305,-0.9324341,0.2929077,-2.234375,0.96875,-0.25
51,51,1727897236793,-0.2849121,-0.9336548,0.30511475,-1.546875,0.515625,0.375
52,52,1727897236833,-0.26635742,-0.93341064,0.31219482,-0.765625,0.578125,-0.34375
53,53,1727897236873,-0.2722168,-0.93292236,0.30975342,-1.046875,-0.53125,-0.3125
54,54,1727897236913,-0.26879883,-0.9234009,0.2838745,-5.171875,1.265625,-0.625
55,55,1727897236953,-0.29174805,-0.9338989,0.3234253,3.34375,1.0625,0.296875
56,56,1727897236993,-0.26708984,-0.9224243,0.31121826,-3.515625,1.75,-0.171875
57,57,1727897237033,-0.2705078,-0.9331665,0.29315186,-1.09375,1.109375,-0.125
58,58,1727897237073,-0.28564453,-0.92852783,0.31732178,-0.53125,0.6875,0.03125
59,59,1727897237113,-0.27954102,-0.9417114,0.31463623,-0.4375,0.84375,-0.265625
60,60,1727897237153,-0.26538086,-0.9248657,0.30462646,-3.15625,0.796875,-0.546875
61,61,1727897237193,-0.2932129,-0.9378052,0.31878662,0.171875,0.359375,-0.015625
62,62,1727897237233,-0.26000977,-0.9273071,0.31951904,-1.84375,0.671875,0.046875
63,63,1727897237273,-0.28222656,-0.9324341,0.3139038,-0.703125,0.109375,0.171875
64,64,1727897237313,-0.265625,-0.9273071,0.31170654,-2.203125,0.3125,-0.125
65,65,1727897237353,-0.28515625,-0.93536377,0.31610107,0.3125,0.4375,0.328125
66,66,1727897237393,-0.2746582,-0.9331665,0.324646,-0.625,0.640625,0.234375
67,67,1727897237433,-0.2775879,-0.92803955,0.3131714,-0.328125,0.609375,0.0625
68,68,1727897237473,-0.28051758,-0.93096924,0.31097412,-0.890625,0.265625,0.21875
69,69,1727897237513,-0.26953125,-0.9314575,0.31219482,1.046875,0.4375,0.453125
70,70,1727897237553,-0.26513672,-0.923645,0.31658936,0.34375,0.609375,0.5625
71,71,1727897237593,-0.28149414,-0.92315674,0.3060913,1.234375,0.1875,0.390625
72,72,1727897237633,-0.2697754,-0.93585205,0.3143921,3.328125,0.53125,1.03125
73,73,1727897237673,-0.27270508,-0.92974854,0.29901123,2.109375,0.484375,0.5
74,74,1727897237713,-0.27929688,-0.9348755,0.3163452,4.203125,0.046875,0.8125
75,75,1727897237753,-0.27954102,-0.93634033,0.31121826,-2.328125,1.46875,0.203125
76,76,1727897237793,-0.2770996,-0.927063,0.28363037,2.4375,0.46875,0.71875
77,77,1727897237833,-0.26904297,-0.9326782,0.31878662,2.625,1.484375,0.3125
78,78,1727897237873,-0.26708984,-0.9314575,0.29388428,1.78125,1.265625,0.796875
79,79,1727897237913,-0.26464844,-0.940979,0.29779053,-0.046875,0.859375,0.546875
80,80,1727897237953,-0.27416992,-0.9373169,0.30682373,3.203125,1.390625,0.609375
81,81,1727897237993,-0.2709961,-0.93927,0.30340576,-1.125,1.421875,0.3125
82,82,1727897238033,-0.25341797,-0.9326782,0.27630615,-0.578125,-0.1875,0.40625
83,83,1727897238073,-0.26611328,-0.9439087,0.2946167,1.421875,0.65625,0.328125
84,84,1727897238113,-0.26391602,-0.9326782,0.2855835,-0.046875,0.0625,0.515625
85,85,1727897238153,-0.26513672,-0.9336548,0.2897339,0.3125,0.203125,0.390625
86,86,1727897238193,-0.26879883,-0.94610596,0.2904663,-1.484375,0.109375,0.3125
87,87,1727897238233,-0.2631836,-0.93585205,0.28582764,0.90625,0.5625,0.484375
88,88,1727897238273,-0.25708008,-0.94195557,0.29412842,-0.671875,0.3125,0.28125
89,89,1727897238313,-0.26538086,-0.94000244,0.28826904,-0.1875,0.265625,0.625
90,90,1727897238353,-0.26098633,-0.9417114,0.2880249,-0.03125,0.03125,0.6875
91,91,1727897238393,-0.2607422,-0.9356079,0.28656006,-0.5,0.390625,0.515625
92,92,1727897238433,-0.26391602,-0.9475708,0.2880249,1.140625,0.484375,0.875
93,93,1727897238473,-0.25732422,-0.94073486,0.28485107,-1.28125,0.796875,0.390625
94,94,1727897238513,-0.26513672,-0.94000244,0.27703857,1.234375,-0.53125,0.6875
95,95,1727897238553,-0.2644043,-0.9468384,0.2802124,0.890625,0.15625,0.140625
96,96,1727897238593,-0.25439453,-0.9380493,0.28411865,2.9375,0.09375,0.609375
97,97,1727897238633,-0.2631836,-0.9356079,0.29364014,-3.890625,0.859375,0.296875
98,98,1727897238673,-0.25170898,-0.94000244,0.25213623,-0.0625,0.234375,0.359375
99,99,1727897238713,-0.2578125,-0.9446411,0.30438232,2.375,0.765625,0.03125
100,100,1727897238753,-0.25561523,-0.9331665,0.27166748,-1.859375,0.53125,0.140625
101,101,1727897238793,-0.2614746,-0.9475708,0.2868042,0.953125,0.40625,0.484375
102,102,1727897238833,-0.26245117,-0.94122314,0.28411865,-1.390625,0.65625,-0.03125
103,103,1727897238873,-0.26220703,-0.9483032,0.2970581,-0.859375,0.53125,0.359375
104,104,1727897238913,-0.25195312,-0.9360962,0.2682495,-3.109375,-0.59375,-0.328125
105,105,1727897238953,-0.26245117,-0.9463501,0.2909546,1.46875,-0.359375,0.359375
106,106,1727897238993,-0.25390625,-0.94415283,0.26776123,-2.296875,-1.21875,0.09375
107,107,1727897239033,-0.23803711,-0.93878174,0.27801514,3.453125,-1.578125,0.375
108,108,1727897239073,-0.25195312,-0.9492798,0.30145264,-3.03125,-0.796875,0.578125
109,109,1727897239113,-0.2553711,-0.9397583,0.26971436,0.125,-0.53125,0.515625
110,110,1727897239153,-0.25732422,-0.94537354,0.27972412,0.34375,-0.75,0.421875
111,111,1727897239193,-0.2590332,-0.9434204,0.28704834,1.140625,-0.4375,0.59375
112,112,1727897239233,-0.25927734,-0.93707275,0.2741089,-0.953125,0.0625,0.3125
113,113,1727897239273,-0.26000977,-0.9402466,0.28240967,1.375,0.203125,0.1875
114,114,1727897239313,-0.25683594,-0.94610596,0.28216553,0.53125,0.75,0.3125
115,115,1727897239353,-0.25830078,-0.95269775,0.28875732,0.328125,1.078125,0.0625
116,116,1727897239393,-0.26245117,-0.9456177,0.2753296,-0.203125,0.859375,0.03125
117,117,1727897239433,-0.26098633,-0.9468384,0.27020264,-0.015625,0.75,-0.671875
118,118,1727897239473,-0.24926758,-0.9373169,0.28289795,2.46875,-0.09375,0.203125
119,119,1727897239513,-0.2619629,-0.9468384,0.28656006,-5.390625,0.828125,-0.484375
120,120,1727897239553,-0.25561523,-0.93463135,0.25579834,1.21875,-0.234375,-0.359375
121,121,1727897239593,-0.2602539,-0.94903564,0.30462646,0.984375,0.65625,-0.109375
122,122,1727897239633,-0.25952148,-0.93878174,0.26531982,-1.96875,1.234375,-0.125
123,123,1727897239673,-0.25317383,-0.9446411,0.27508545,0.046875,0.6875,0.0
124,124,1727897239713,-0.2626953,-0.940979,0.2741089,-0.328125,0.671875,-0.140625
125,125,1727897239753,-0.25634766,-0.9456177,0.28778076,-0.59375,1.171875,0.234375
126,126,1727897239793,-0.24633789,-0.9390259,0.27313232,-1.4375,0.203125,0.0625
127,127,1727897239833,-0.26733398,-0.9480591,0.28656006,0.46875,0.140625,0.09375
128,128,1727897239873,-0.2668457,-0.9456177,0.2765503,-0.28125,0.328125,0.328125
129,129,1727897239913,-0.25024414,-0.944397,0.28045654,0.125,0.65625,0.203125
130,130,1727897239953,-0.26220703,-0.9434204,0.2802124,-0.921875,0.78125,0.0625
131,131,1727897239993,-0.26464844,-0.9483032,0.2802124,-0.25,0.78125,0.0625
132,132,1727897240033,-0.25512695,-0.9522095,0.2838745,-2.046875,1.171875,0.0
133,133,1727897240073,-0.2548828,-0.944397,0.28631592,-0.4375,1.375,0.5625
134,134,1727897240113,-0.2644043,-0.9378052,0.28240967,-2.28125,0.953125,0.078125
135,135,1727897240153,-0.24975586,-0.94366455,0.2868042,-1.671875,1.015625,0.1875
136,136,1727897240193,-0.25024414,-0.9439087,0.28460693,0.28125,0.640625,0.328125
137,137,1727897240233,-0.25927734,-0.9385376,0.2970581,-0.84375,0.375,0.34375
138,138,1727897240273,-0.27319336,-0.93878174,0.27874756,-1.65625,0.140625,0.03125
139,139,1727897240313,-0.25073242,-0.93951416,0.2789917,-1.96875,0.84375,-0.3125
140,140,1727897240353,-0.23803711,-0.9319458,0.28094482,-0.515625,-0.546875,0.5
141,141,1727897240393,-0.25097656,-0.9468384,0.29901123,-0.890625,-0.15625,0.25
142,142,1727897240433,-0.24902344,-0.93634033,0.2633667,-0.890625,0.171875,-0.0625
143,143,1727897240473,-0.27075195,-0.94903564,0.32855225,2.671875,0.515625,0.09375
144,144,1727897240513,-0.26708984,-0.9324341,0.28289795,-3.796875,1.234375,-0.578125
145,145,1727897240553,-0.25024414,-0.9446411,0.2802124,-0.609375,0.90625,-0.703125
146,146,1727897240593,-0.25146484,-0.94659424,0.28240967,-1.578125,0.9375,-0.34375
147,147,1727897240633,-0.25,-0.94537354,0.28826904,-0.515625,0.078125,-0.046875
148,148,1727897240673,-0.24829102,-0.9368286,0.29681396,-1.734375,-0.25,-0.359375
149,149,1727897240713,-0.28564453,-0.94732666,0.30145264,-0.484375,0.59375,-0.203125
150,150,1727897240753,-0.25830078,-0.9365845,0.291687,-0.875,0.765625,-0.4375
151,151,1727897240793,-0.2529297,-0.94122314,0.2892456,-0.421875,0.78125,-0.265625
152,152,1727897240833,-0.25976562,-0.94122314,0.28582764,-1.71875,0.609375,-0.140625
153,153,1727897240873,-0.25634766,-0.942688,0.29559326,0.40625,0.359375,0.09375
154,154,1727897240913,-0.25805664,-0.9348755,0.29534912,-1.84375,0.28125,-0.046875
155,155,1727897240953,-0.25927734,-0.9512329,0.29925537,-0.46875,0.453125,0.0625
156,156,1727897240993,-0.26416016,-0.9365845,0.29656982,-1.59375,0.28125,0.0625
157,157,1727897241033,-0.25195312,-0.9417114,0.29559326,-0.265625,0.3125,0.03125
158,158,1727897241073,-0.26098633,-0.93585205,0.29925537,-0.765625,0.28125,0.1875
159,159,1727897241113,-0.2607422,-0.93951416,0.29559326,-1.78125,0.5625,-0.4375
160,160,1727897241153,-0.25952148,-0.94903564,0.29730225,-0.578125,0.28125,-0.140625
161,161,1727897241193,-0.24829102,-0.9385376,0.30047607,0.90625,0.78125,-0.34375
162,162,1727897241233,-0.26586914,-0.9402466,0.2982788,0.109375,-0.5625,0.0
163,163,1727897241273,-0.2548828,-0.93096924,0.28045654,-3.4375,1.21875,-0.53125
164,164,1727897241313,-0.26733398,-0.940979,0.31195068,4.546875,0.265625,0.28125
165,165,1727897241353,-0.26586914,-0.942688,0.31072998,-3.140625,1.96875,-0.203125
166,166,1727897241393,-0.2565918,-0.93170166,0.27557373,0.25,1.328125,-0.21875
167,167,1727897241433,-0.25756836,-0.9365845,0.3048706,-0.734375,0.875,-0.265625
168,168,1727897241473,-0.26245117,-0.942688,0.29925537,2.296875,0.265625,0.0625
169,169,1727897241513,-0.26489258,-0.93585205,0.29534912,-2.015625,1.5,-0.3125
170,170,1727897241553,-0.2668457,-0.94195557,0.29656982,0.671875,0.609375,0.453125
171,171,1727897241593,-0.25512695,-0.9385376,0.2946167,-0.078125,0.40625,0.109375
172,172,1727897241633,-0.26220703,-0.942688,0.29656982,0.125,0.125,0.203125
173,173,1727897241673,-0.25512695,-0.9385376,0.28729248,-0.8125,0.65625,0.46875
174,174,1727897241713,-0.26831055,-0.9338989,0.30169678,0.515625,0.375,0.46875
175,175,1727897241753,-0.26757812,-0.9456177,0.30438232,-1.203125,0.421875,0.0
176,176,1727897241793,-0.26049805,-0.9378052,0.29437256,-0.609375,1.0,0.234375
177,177,1727897241833,-0.25732422,-0.9336548,0.29486084,-1.296875,0.640625,0.28125
178,178,1727897241873,-0.25927734,-0.93585205,0.293396,-0.109375,0.65625,0.265625
179,179,1727897241913,-0.25927734,-0.9378052,0.3024292,0.203125,0.59375,0.34375
180,180,1727897241953,-0.26953125,-0.9385376,0.29119873,-0.578125,0.171875,0.34375
181,181,1727897241993,-0.2607422,-0.93218994,0.29534912,-0.625,0.796875,0.265625
182,182,1727897242033,-0.2536621,-0.927063,0.30584717,-0.15625,0.140625,0.421875
183,183,1727897242073,-0.25097656,-0.9456177,0.29901123,-1.40625,0.484375,0.171875
184,184,1727897242113,-0.25512695,-0.9302368,0.2765503,0.1875,0.53125,0.0625
185,185,1727897242153,-0.26367188,-0.94976807,0.32977295,2.078125,1.21875,0.171875
186,186,1727897242193,-0.2607422,-0.9356079,0.28094482,-1.609375,1.125,0.03125
187,187,1727897242233,-0.2529297,-0.94732666,0.309021,1.1875,0.765625,-0.203125
188,188,1727897242273,-0.2536621,-0.93218994,0.28070068,-1.640625,1.046875,-0.234375
189,189,1727897242313,-0.25878906,-0.95147705,0.31463623,0.984375,0.65625,0.5
190,190,1727897242353,-0.24169922,-0.93048096,0.27752686,-1.8125,-0.15625,-0.15625
191,191,1727897242393,-0.27539062,-0.944397,0.29266357,1.296875,0.578125,0.46875
192,192,1727897242433,-0.24853516,-0.94537354,0.29144287,0.125,0.234375,0.46875
193,193,1727897242473,-0.2626953,-0.94122314,0.28900146,0.109375,0.546875,0.203125
194,194,1727897242513,-0.25878906,-0.944397,0.28656006,0.359375,1.0,0.296875
195,195,1727897242553,-0.26220703,-0.93951416,0.29364014,0.015625,0.625,0.015625
196,196,1727897242593,-0.25463867,-0.93096924,0.28729248,-0.46875,0.875,-0.046875
197,197,1727897242633,-0.2590332,-0.93927,0.28094482,-0.421875,0.453125,-0.140625
198,198,1727897242673,-0.2524414,-0.940979,0.2868042,-0.0625,0.09375,-0.1875
199,199,1727897242713,-0.26123047,-0.9468384,0.293396,1.0,0.265625,0.09375
200,200,1727897242753,-0.25878906,-0.9470825,0.28778076,-1.328125,0.859375,0.09375
201,201,1727897242793,-0.25976562,-0.95196533,0.2838745,-0.71875,0.359375,0.015625
202,202,1727897242833,-0.2529297,-0.94854736,0.29437256,0.765625,0.828125,0.1875
203,203,1727897242873,-0.25512695,-0.94976807,0.29534912,1.78125,-0.28125,0.359375
204,204,1727897242913,-0.2553711,-0.9360962,0.26678467,-3.140625,1.65625,-0.03125
205,205,1727897242953,-0.25805664,-0.9463501,0.2929077,4.453125,0.6875,0.8125
206,206,1727897242993,-0.25976562,-0.94659424,0.2975464,-0.234375,1.1875,0.0625
207,207,1727897243033,-0.2548828,-0.93878174,0.2802124,-0.484375,0.921875,-0.046875
208,208,1727897243073,-0.24633789,-0.9402466,0.277771,-0.53125,0.90625,0.0
209,209,1727897243113,-0.25756836,-0.9546509,0.29852295,1.359375,0.265625,-0.09375
210,210,1727897243153,-0.2536621,-0.9417114,0.27557373,-2.59375,1.296875,-0.296875
211,211,1727897243193,-0.26391602,-0.94854736,0.2850952,0.390625,0.40625,0.265625
212,212,1727897243233,-0.24584961,-0.9446411,0.2748413,0.40625,0.40625,-0.125
213,213,1727897243273,-0.25952148,-0.9458618,0.29241943,-0.65625,0.078125,0.28125
214,214,1727897243313,-0.24780273,-0.9434204,0.2765503,-0.21875,0.34375,-0.046875
215,215,1727897243353,-0.2626953,-0.94073486,0.28900146,-0.046875,0.328125,0.015625
216,216,1727897243393,-0.25073242,-0.94122314,0.28704834,-0.59375,0.59375,-0.328125
217,217,1727897243433,-0.24780273,-0.9351196,0.2831421,-0.46875,0.359375,0.03125
218,218,1727897243473,-0.2631836,-0.9529419,0.28533936,0.421875,0.578125,0.015625
219,219,1727897243513,-0.25170898,-0.94244385,0.2819214,-0.625,0.8125,-0.125
220,220,1727897243553,-0.25610352,-0.94610596,0.27947998,-0.203125,0.40625,-0.09375
221,221,1727897243593,-0.2536621,-0.95098877,0.27581787,-1.90625,0.71875,-0.171875
222,222,1727897243633,-0.24560547,-0.94317627,0.27801514,0.703125,0.25,-0.03125
223,223,1727897243673,-0.2602539,-0.95513916,0.30291748,0.484375,-0.296875,-0.078125
224,224,1727897243713,-0.24511719,-0.9380493,0.24456787,-4.046875,0.78125,-0.28125
225,225,1727897243753,-0.2697754,-0.9507446,0.30584717,5.484375,0.296875,0.984375
226,226,1727897243793,-0.26635742,-0.94122314,0.27972412,-3.109375,1.03125,-0.234375
227,227,1727897243833,-0.24609375,-0.93951416,0.27386475,0.625,0.5,0.0625
228,228,1727897243873,-0.2644043,-0.9517212,0.2838745,-1.34375,0.96875,0.046875
229,229,1727897243913,-0.2548828,-0.9590454,0.2929077,-0.234375,0.375,0.125
230,230,1727897243953,-0.24316406,-0.9312134,0.27435303,-3.265625,0.640625,-0.1875
231,231,1727897243993,-0.26538086,-0.9417114,0.27801514,0.03125,0.265625,0.515625
232,232,1727897244033,-0.24804688,-0.9463501,0.29486084,-0.703125,0.625,-0.046875
233,233,1727897244073,-0.25195312,-0.93414307,0.28118896,-1.53125,0.09375,0.28125
234,234,1727897244113,-0.25854492,-0.9483032,0.2868042,-0.453125,0.3125,0.03125
235,235,1727897244153,-0.2614746,-0.9463501,0.2868042,-1.421875,0.34375,0.140625
236,236,1727897244193,-0.25756836,-0.9470825,0.2904663,-1.09375,0.453125,-0.140625
237,237,1727897244233,-0.25146484,-0.9417114,0.2789917,-0.65625,0.515625,-0.03125
238,238,1727897244273,-0.26171875,-0.9336548,0.29730225,-0.25,0.265625,0.359375
239,239,1727897244313,-0.25463867,-0.94244385,0.28582764,-1.359375,0.5,-0.109375
240,240,1727897244353,-0.2548828,-0.94854736,0.2819214,-0.15625,0.734375,0.140625
241,241,1727897244393,-0.25585938,-0.9463501,0.2850952,-0.9375,0.640625,0.1875
242,242,1727897244433,-0.25219727,-0.9463501,0.2897339,0.546875,0.359375,0.265625
243,243,1727897244473,-0.25439453,-0.95025635,0.28216553,2.28125,-0.21875,0.421875
244,244,1727897244513,-0.24560547,-0.9402466,0.2699585,-1.875,1.625,0.1875
245,245,1727897244553,-0.26123047,-0.94659424,0.27630615,5.53125,0.515625,1.0625
246,246,1727897244593,-0.25390625,-0.954895,0.30194092,2.5625,1.46875,0.640625
247,247,1727897244633,-0.24902344,-0.94244385,0.25482178,-2.125,1.28125,0.234375
248,248,1727897244673,-0.2541504,-0.95513916,0.28533936,1.71875,0.703125,0.421875
249,249,1727897244713,-0.24902344,-0.9541626,0.28216553,-1.90625,0.375,-0.3125
250,250,1727897244753,-0.23950195,-0.9458618,0.26971436,-0.578125,0.78125,-0.375
251,251,1727897244793,-0.2631836,-0.95318604,0.2843628,-1.21875,-0.171875,0.171875
252,252,1727897244833,-0.25512695,-0.9434204,0.27850342,0.90625,0.03125,-0.265625
253,253,1727897244873,-0.24975586,-0.9417114,0.277771,-2.65625,0.046875,-0.375
254,254,1727897244913,-0.25512695,-0.9421997,0.27069092,-0.296875,0.0,-0.421875
255,255,1727897244953,-0.25219727,-0.94317627,0.28900146,-1.53125,0.421875,-0.28125
256,256,1727897244993,-0.25830078,-0.9397583,0.27386475,-2.15625,0.5,-0.4375
257,257,1727897245033,-0.2487793,-0.954895,0.28363037,-0.875,0.296875,-0.53125
258,258,1727897245073,-0.25878906,-0.94488525,0.28289795,-1.625,0.484375,-0.125
259,259,1727897245113,-0.2578125,-0.95098877,0.2909546,-0.921875,0.34375,-0.203125
260,260,1727897245153,-0.25634766,-0.93536377,0.2753296,-1.265625,0.71875,0.015625
261,261,1727897245193,-0.2487793,-0.93829346,0.2772827,1.34375,0.03125,0.25
262,262,1727897245233,-0.25854492,-0.9390259,0.28070068,0.203125,0.265625,0.46875
263,263,1727897245273,-0.25708008,-0.9373169,0.29925537,1.890625,-0.125,0.5625
264,264,1727897245313,-0.24609375,-0.95196533,0.2814331,-1.609375,1.1875,0.0625
265,265,1727897245353,-0.2529297,-0.9456177,0.27020264,2.609375,0.4375,0.40625
266,266,1727897245393,-0.26342773,-0.9505005,0.3007202,-0.203125,1.21875,-0.21875
267,267,1727897245433,-0.24267578,-0.9302368,0.23699951,2.78125,1.171875,0.46875
268,268,1727897245473,-0.25512695,-0.9595337,0.3078003,3.53125,1.015625,0.546875
269,269,1727897245513,-0.2607422,-0.9451294,0.26556396,-1.359375,1.8125,0.015625
270,270,1727897245553,-0.2434082,-0.9397583,0.24603271,4.546875,1.234375,0.71875
271,271,1727897245593,-0.24926758,-0.954895,0.27996826,6.765625,0.109375,0.5
272,272,1727897245633,-0.2602539,-0.95098877,0.2543335,0.1875,1.296875,0.375
273,273,1727897245673,-0.24853516,-0.9468384,0.22503662,6.25,1.765625,0.984375
274,274,1727897245713,-0.25317383,-0.954895,0.24749756,7.578125,0.390625,0.8125
275,275,1727897245753,-0.34423828,-1.0383911,0.17352295,23.1875,-7.1875,2.546875
276,276,1727897245793,-0.1262207,-0.9570923,0.3378296,5.203125,1.984375,2.0
277,277,1727897245833,-0.2512207,-0.92193604,0.085632324,-17.046875,-0.96875,5.15625
278,278,1727897245873,-0.2692871,-0.97076416,0.22332764,29.25,0.828125,1.765625
279,279,1727897245913,-0.21606445,-0.9758911,0.2584839,-18.046875,0.765625,2.796875
280,280,1727897245953,-0.25439453,-0.98101807,0.12835693,7.8125,0.875,2.1875
281,281,1727897245993,-0.2006836,-0.9541626,0.22845459,-1.671875,1.015625,1.78125
282,282,1727897246033,-0.22973633,-0.9500122,0.1437378,-1.34375,-1.453125,1.046875
283,283,1727897246073,-0.24633789,-0.9697876,0.2333374,6.109375,-0.796875,1.0625
284,284,1727897246113,-0.23535156,-0.9663696,0.1876831,-7.796875,-0.8125,0.015625
285,285,1727897246153,-0.22998047,-0.9692993,0.16522217,4.0,0.15625,0.5625
286,286,1727897246193,-0.22070312,-0.972229,0.22601318,-0.6875,-0.53125,-0.28125
287,287,1727897246233,-0.24169922,-0.96295166,0.17694092,-2.765625,0.6875,-0.34375
288,288,1727897246273,-0.21777344,-0.97052,0.21038818,2.796875,0.71875,-0.25
289,289,1727897246313,-0.22973633,-0.9763794,0.19915771,-3.296875,0.921875,-0.625
290,290,1727897246353,-0.22558594,-0.96295166,0.1930542,0.4375,0.6875,-0.328125
291,291,1727897246393,-0.23242188,-0.97003174,0.20648193,-0.359375,0.453125,-0.6875
292,292,1727897246433,-0.21459961,-0.9636841,0.1984253,-2.125,0.265625,-0.6875
293,293,1727897246473,-0.23901367,-0.9788208,0.2074585,2.453125,-0.09375,-0.328125
294,294,1727897246513,-0.23071289,-0.96881104,0.21331787,-3.21875,0.640625,-0.75
295,295,1727897246553,-0.22167969,-0.9639282,0.18695068,-0.09375,0.09375,-0.515625
296,296,1727897246593,-0.23803711,-0.97662354,0.20941162,0.65625,0.109375,-0.859375
297,297,1727897246633,-0.23388672,-0.96539307,0.20111084,-4.203125,0.28125,-1.3125
298,298,1727897246673,-0.22558594,-0.95684814,0.19598389,0.359375,0.1875,-1.25
299,299,1727897246713,-0.23779297,-0.9661255,0.21014404,-1.59375,-0.078125,-1.09375
300,300,1727897246753,-0.24169922,-0.96832275,0.1942749,-2.03125,0.46875,-1.53125
301,301,1727897246793,-0.23022461,-0.95880127,0.19573975,-1.578125,0.515625,-0.96875
302,302,1727897246833,-0.25073242,-0.9661255,0.21209717,-0.03125,0.03125,-0.84375
303,303,1727897246873,-0.234375,-0.9678345,0.22235107,-3.328125,0.40625,-1.46875
304,304,1727897246913,-0.2475586,-0.95269775,0.20452881,-3.5,0.0,-0.953125
305,305,1727897246953,-0.2529297,-0.9573364,0.21063232,-0.5625,0.453125,-0.828125
306,306,1727897246993,-0.24853516,-0.95391846,0.22576904,-1.140625,0.609375,-0.640625
307,307,1727897247033,-0.25146484,-0.9644165,0.21356201,-4.328125,0.484375,-1.234375
308,308,1727897247073,-0.24072266,-0.9512329,0.18548584,-2.796875,0.5625,-1.0625
309,309,1727897247113,-0.2578125,-0.96466064,0.24676514,2.796875,1.375,-0.46875
310,310,1727897247153,-0.2548828,-0.9553833,0.23406982,-6.21875,1.140625,-0.640625
311,311,1727897247193,-0.25170898,-0.9553833,0.19940186,-0.625,1.09375,-0.59375
312,312,1727897247233,-0.25439453,-0.9612427,0.24310303,-0.328125,0.84375,-0.28125
313,313,1727897247273,-0.2536621,-0.95928955,0.22894287,-4.796875,0.390625,0.03125
314,314,1727897247313,-0.23730469,-0.9512329,0.22576904,0.1875,0.03125,-0.3125
315,315,1727897247353,-0.2614746,-0.96417236,0.23968506,-0.9375,0.921875,0.21875
316,316,1727897247393,-0.24780273,-0.9573364,0.23016357,-1.046875,0.296875,0.078125
317,317,1727897247433,-0.25219727,-0.95684814,0.23382568,-0.625,0.28125,0.0
318,318,1727897247473,-0.2590332,-0.9561157,0.23431396,-1.96875,0.453125,0.1875
319,319,1727897247513,-0.25317383,-0.9487915,0.23309326,-1.578125,0.625,-0.203125
320,320,1727897247553,-0.24804688,-0.95758057,0.23529053,-0.5625,0.4375,0.234375
321,321,1727897247593,-0.25952148,-0.9529419,0.24505615,-1.734375,0.53125,0.1875
322,322,1727897247633,-0.2524414,-0.9541626,0.22845459,-2.046875,0.53125,0.0625
323,323,1727897247673,-0.24731445,-0.9553833,0.24066162,1.109375,0.328125,0.296875
324,324,1727897247713,-0.25219727,-0.95147705,0.24163818,-3.015625,0.5,0.15625
325,325,1727897247753,-0.2487793,-0.9536743,0.2321167,-0.25,0.3125,0.109375
326,326,1727897247793,-0.25024414,-0.95440674,0.2453003,0.171875,0.21875,0.421875
327,327,1727897247833,-0.24389648,-0.9553833,0.22259521,-0.53125,0.71875,0.1875
328,328,1727897247873,-0.2590332,-0.9573364,0.24432373,0.984375,0.453125,0.5
329,329,1727897247913,-0.2409668,-0.9529419,0.23236084,1.46875,1.0625,0.234375
330,330,1727897247953,-0.25610352,-0.9507446,0.2514038,0.453125,-0.1875,0.453125
331,331,1727897247993,-0.24926758,-0.95562744,0.19940186,-3.375,1.359375,-0.1875
332,332,1727897248033,-0.26049805,-0.960022,0.26678467,7.59375,0.53125,0.921875
333,333,1727897248073,-0.24243164,-0.94976807,0.230896,-6.046875,1.640625,-0.046875
334,334,1727897248113,-0.25268555,-0.9578247,0.21966553,4.609375,0.546875,0.140625
335,335,1727897248153,-0.25830078,-0.9607544,0.2555542,-1.078125,0.59375,0.203125
336,336,1727897248193,-0.25048828,-0.9590454,0.21820068,0.375,0.609375,-0.328125
337,337,1727897248233,-0.24267578,-0.9585571,0.24188232,-0.265625,1.0,0.109375
338,338,1727897248273,-0.2631836,-0.96099854,0.22894287,-2.859375,0.328125,0.125
339,339,1727897248313,-0.24194336,-0.95758057,0.2255249,0.90625,0.1875,-0.234375
340,340,1727897248353,-0.24707031,-0.9573364,0.2296753,-0.34375,0.234375,0.625
341,341,1727897248393,-0.24414062,-0.95269775,0.21990967,1.0625,0.265625,0.421875
342,342,1727897248433,-0.24365234,-0.96173096,0.22528076,0.546875,0.859375,0.734375
343,343,1727897248473,-0.24365234,-0.95806885,0.23016357,1.578125,1.015625,1.015625
344,344,1727897248513,-0.24707031,-0.95928955,0.23724365,0.203125,0.578125,0.890625
345,345,1727897248553,-0.25585938,-0.9536743,0.21673584,-0.125,1.078125,0.609375
346,346,1727897248593,-0.24121094,-0.95758057,0.2243042,2.921875,1.453125,0.734375
347,347,1727897248633,-0.25195312,-0.9758911,0.24481201,-0.375,0.859375,1.171875
348,348,1727897248673,-0.23828125,-0.94854736,0.20037842,-3.015625,1.3125,0.078125
349,349,1727897248713,-0.23583984,-0.9595337,0.21795654,4.21875,0.578125,1.203125
350,350,1727897248753,-0.23852539,-0.96661377,0.23284912,-1.109375,0.4375,0.828125
351,351,1727897248793,-0.2487793,-0.95977783,0.20794678,1.140625,0.796875,0.96875
352,352,1727897248833,-0.2331543,-0.942688,0.20233154,1.171875,0.859375,1.265625
353,353,1727897248873,-0.2290039,-0.9541626,0.22088623,4.953125,-0.015625,1.625
354,354,1727897248913,-0.2434082,-0.9763794,0.24554443,0.015625,0.78125,1.1875
355,355,1727897248953,-0.22021484,-0.9522095,0.18182373,-3.140625,1.125,0.484375
356,356,1727897248993,-0.23657227,-0.97320557,0.20526123,6.359375,0.921875,1.0625
357,357,1727897249033,-0.2265625,-0.96710205,0.23797607,-1.6875,0.71875,0.4375
358,358,1727897249073,-0.23706055,-0.96661377,0.18963623,-1.75,0.796875,0.0
359,359,1727897249113,-0.22314453,-0.9727173,0.20892334,0.21875,0.40625,0.21875
360,360,1727897249153,-0.2211914,-0.972229,0.2164917,-0.84375,-0.046875,0.46875
361,361,1727897249193,-0.22827148,-0.96343994,0.21209717,-0.75,-0.25,0.0625
362,362,1727897249233,-0.23388672,-0.96343994,0.20062256,-1.515625,-0.171875,-0.125
363,363,1727897249273,-0.22680664,-0.97052,0.20501709,0.921875,-0.625,-0.40625
364,364,1727897249313,-0.22827148,-0.9612427,0.21258545,-2.703125,-0.171875,-0.1875
365,365,1727897249353,-0.23046875,-0.9595337,0.20062256,0.296875,-0.09375,0.09375
366,366,1727897249393,-0.2368164,-0.96221924,0.22723389,-0.46875,-0.265625,0.015625
367,367,1727897249433,-0.23022461,-0.96343994,0.19647217,-2.28125,0.015625,-0.28125
368,368,1727897249473,-0.21899414,-0.96099854,0.20355225,0.203125,0.265625,0.1875
369,369,1727897249513,-0.2355957,-0.9692993,0.21551514,-1.53125,0.09375,-0.125
370,370,1727897249553,-0.23803711,-0.960022,0.20574951,-1.359375,0.15625,0.125
371,371,1727897249593,-0.21850586,-0.9624634,0.20794678,0.40625,0.390625,-0.0625
372,372,1727897249633,-0.23608398,-0.9690552,0.21917725,-0.171875,0.265625,0.171875
373,373,1727897249673,-0.2331543,-0.9573364,0.20892334,-1.671875,-0.078125,0.203125
374,374,1727897249713,-0.25146484,-0.9644165,0.21160889,-0.5,0.359375,0.125
375,375,1727897249753,-0.22949219,-0.96099854,0.21380615,-1.421875,0.71875,-0.234375
376,376,1727897249793,-0.22338867,-0.94903564,0.2164917,-2.3125,-0.234375,0.546875
377,377,1727897249833,-0.23876953,-0.9800415,0.2255249,-0.0625,0.4375,0.078125
378,378,1727897249873,-0.21777344,-0.9602661,0.199646,-4.953125,0.8125,-0.34375
379,379,1727897249913,-0.2524414,-0.96881104,0.22381592,4.75,0.703125,0.453125
380,380,1727897249953,-0.22045898,-0.96295166,0.23529053,-4.796875,1.171875,-0.421875
381,381,1727897249993,-0.21972656,-0.9612427,0.20599365,-1.640625,0.5625,0.078125
382,382,1727897250033,-0.24023438,-0.9692993,0.22039795,0.46875,0.5,0.234375
383,383,1727897250073,-0.22143555,-0.9680786,0.21258545,2.78125,0.296875,0.078125
384,384,1727897250113,-0.22802734,-0.9573364,0.23260498,-1.5625,0.09375,-0.0625
385,385,1727897250153,-0.23144531,-0.956604,0.17669678,-2.34375,1.484375,0.3125
386,386,1727897250193,-0.22729492,-0.97369385,0.24798584,8.109375,0.296875,0.90625
387,387,1727897250233,-0.23754883,-0.95440674,0.22088623,-9.5625,1.078125,-0.796875
388,388,1727897250273,-0.2290039,-0.95758057,0.17474365,4.984375,0.234375,-0.046875
389,389,1727897250313,-0.22973633,-0.9741821,0.25457764,-0.34375,0.390625,-0.078125
390,390,1727897250353,-0.23461914,-0.9690552,0.17816162,-2.875,0.625,-0.4375
391,391,1727897250393,-0.23706055,-0.95880127,0.23284912,4.203125,0.40625,-0.078125
392,392,1727897250433,-0.24169922,-0.9697876,0.20843506,-2.5,1.09375,-0.53125
393,393,1727897250473,-0.24316406,-0.9807739,0.24603271,3.6875,0.796875,0.15625
394,394,1727897250513,-0.23583984,-0.94366455,0.18572998,-8.90625,1.296875,-1.03125
395,395,1727897250553,-0.21142578,-0.95684814,0.17449951,10.34375,-0.046875,0.515625
396,396,1727897250593,-0.22998047,-0.975647,0.26361084,-1.546875,0.0625,-0.109375
397,397,1727897250633,-0.2368164,-0.9624634,0.13861084,-3.34375,1.734375,0.421875
398,398,1727897250673,-0.19799805,-0.960022,0.25872803,11.703125,0.15625,0.84375
399,399,1727897250713,-0.25219727,-0.9763794,0.21234131,-10.203125,1.21875,0.625
400,400,1727897250753,-0.23266602,-0.95269775,0.13470459,8.40625,-0.078125,0.875
401,401,1727897250793,-0.23022461,-1.0066528,0.2694702,21.625,5.09375,2.03125
402,402,1727897250833,-0.19335938,-0.9429321,0.20037842,-21.28125,1.9375,1.546875
403,403,1727897250873,-0.24951172,-0.9475708,0.06536865,8.953125,-0.890625,1.265625
404,404,1727897250913,-0.20361328,-0.97906494,0.29974365,10.984375,-0.53125,0.453125
405,405,1727897250953,-0.2434082,-0.9866333,0.14129639,-17.796875,0.3125,1.453125
406,406,1727897250993,-0.18359375,-0.95635986,0.1618042,9.5625,-0.78125,1.125
407,407,1727897251033,-0.24902344,-0.9717407,0.19915771,-4.96875,-1.546875,1.125
408,408,1727897251073,-0.22094727,-0.97613525,0.17572021,2.78125,-1.734375,-0.0625
409,409,1727897251113,-0.22973633,-0.9570923,0.19256592,-3.859375,-1.671875,0.203125
410,410,1727897251153,-0.22363281,-0.97320557,0.16107178,-0.703125,-0.609375,-0.015625
411,411,1727897251193,-0.22265625,-0.97052,0.20159912,1.25,-0.640625,0.09375
412,412,1727897251233,-0.23071289,-0.9692993,0.18304443,-3.53125,0.09375,-0.453125
413,413,1727897251273,-0.22631836,-0.9751587,0.18304443,-0.03125,-0.046875,-0.640625
414,414,1727897251313,-0.21264648,-0.96954346,0.17327881,-1.53125,0.796875,-0.671875
415,415,1727897251353,-0.21582031,-0.9717407,0.1864624,1.0,0.390625,-0.734375
416,416,1727897251393,-0.22973633,-0.97369385,0.19525146,-2.1875,0.546875,-0.453125
417,417,1727897251433,-0.22216797,-0.9578247,0.16546631,-2.25,0.53125,-0.84375
418,418,1727897251473,-0.22143555,-0.9788208,0.19696045,0.75,0.515625,-0.296875
419,419,1727897251513,-0.22094727,-0.9746704,0.19866943,-3.4375,0.671875,-0.859375
420,420,1727897251553,-0.22314453,-0.97125244,0.18597412,0.96875,0.125,-0.125
421,421,1727897251593,-0.22045898,-0.96539307,0.17962646,-4.75,0.8125,-1.0
422,422,1727897251633,-0.22290039,-0.9710083,0.18304443,3.640625,0.296875,-0.171875
423,423,1727897251673,-0.22924805,-0.9776001,0.21600342,-1.953125,0.6875,-0.3125
424,424,1727897251713,-0.22387695,-0.96173096,0.168396,-5.21875,0.515625,-1.015625
425,425,1727897251753,-0.2319336,-0.97369385,0.19598389,3.21875,0.296875,-0.015625
426,426,1727897251793,-0.23632812,-0.9817505,0.2189331,-4.1875,0.109375,-0.765625
427,427,1727897251833,-0.22338867,-0.9512329,0.16693115,-5.09375,0.53125,-0.921875
428,428,1727897251873,-0.24853516,-0.9727173,0.21429443,1.171875,-0.3125,-0.53125
429,429,1727897251913,-0.22363281,-0.9651489,0.20501709,-5.390625,0.484375,-1.03125
430,430,1727897251953,-0.23120117,-0.9541626,0.18890381,-2.0,0.015625,-0.765625
431,431,1727897251993,-0.23144531,-0.9668579,0.20428467,-0.046875,0.171875,-0.328125
432,432,1727897252033,-0.25097656,-0.96954346,0.21917725,-2.421875,0.671875,-0.671875
433,433,1727897252073,-0.23388672,-0.95880127,0.20648193,-3.96875,0.640625,-0.984375
434,434,1727897252113,-0.24047852,-0.9673462,0.2074585,-0.890625,0.4375,-0.28125
435,435,1727897252153,-0.24072266,-0.9639282,0.22576904,-2.25,0.8125,-1.0
436,436,1727897252193,-0.2421875,-0.9585571,0.21917725,-2.890625,0.921875,-1.25
437,437,1727897252233,-0.24804688,-0.9619751,0.22088623,-2.953125,1.28125,-1.15625
438,438,1727897252273,-0.21386719,-0.95196533,0.20428467,-2.265625,1.3125,-0.78125
439,439,1727897252313,-0.24243164,-0.9636841,0.22869873,1.609375,-0.140625,-0.0625
440,440,1727897252353,-0.2631836,-0.96466064,0.24432373,-1.75,0.953125,-0.578125
441,441,1727897252393,-0.2421875,-0.95977783,0.22869873,-0.53125,0.5,-0.4375
442,442,1727897252433,-0.23852539,-0.9529419,0.22088623,-5.765625,2.0,-0.546875
443,443,1727897252473,-0.25048828,-0.95880127,0.21795654,2.6875,0.25,0.109375
444,444,1727897252513,-0.24926758,-0.9529419,0.27069092,-1.578125,1.203125,-0.5
445,445,1727897252553,-0.24682617,-0.9517212,0.21136475,-4.828125,1.296875,-0.6875
446,446,1727897252593,-0.24121094,-0.95758057,0.2477417,0.34375,0.625,-0.0625
447,447,1727897252633,-0.2529297,-0.94854736,0.24261475,-2.75,1.015625,-0.359375
448,448,1727897252673,-0.24365234,-0.9558716,0.24041748,-0.453125,0.484375,-0.203125
449,449,1727897252713,-0.24780273,-0.9517212,0.24676514,-2.109375,0.546875,0.1875
450,450,1727897252753,-0.24584961,-0.96295166,0.24139404,-0.078125,0.96875,-0.359375
451,451,1727897252793,-0.2475586,-0.95147705,0.24090576,-1.3125,0.34375,0.125
452,452,1727897252833,-0.24267578,-0.95391846,0.24212646,0.21875,0.578125,-0.0625
453,453,1727897252873,-0.25878906,-0.9573364,0.25238037,-0.96875,1.21875,0.015625
454,454,1727897252913,-0.25561523,-0.9480591,0.2531128,-1.59375,0.984375,-0.390625
455,455,1727897252953,-0.24829102,-0.95098877,0.24578857,-1.34375,0.921875,-0.265625
456,456,1727897252993,-0.24267578,-0.9517212,0.2506714,-0.265625,0.484375,0.09375
457,457,1727897253033,-0.24633789,-0.9470825,0.24725342,-1.0,0.234375,0.109375
458,458,1727897253073,-0.24902344,-0.9524536,0.2592163,0.734375,0.046875,0.234375
459,459,1727897253113,-0.24975586,-0.9495239,0.2489624,-1.40625,0.46875,0.015625
460,460,1727897253153,-0.24121094,-0.9378052,0.24188232,0.4375,-0.140625,0.265625
461,461,1727897253193,-0.2565918,-0.95196533,0.25482178,-0.015625,0.421875,0.421875
462,462,1727897253233,-0.23730469,-0.94122314,0.25701904,-0.390625,-0.3125,0.53125
463,463,1727897253273,-0.2536621,-0.95684814,0.2506714,-2.171875,0.5625,-0.09375
464,464,1727897253313,-0.24414062,-0.958313,0.23138428,0.765625,0.3125,0.0625
465,465,1727897253353,-0.2668457,-0.9558716,0.28216553,1.09375,0.515625,0.109375
466,466,1727897253393,-0.2487793,-0.94415283,0.23797607,-3.578125,1.046875,-0.0625
467,467,1727897253433,-0.2529297,-0.96051025,0.25164795,0.828125,0.234375,0.0625
468,468,1727897253473,-0.25073242,-0.96051025,0.25286865,-1.5625,0.71875,-0.109375
469,469,1727897253513,-0.24194336,-0.9536743,0.25115967,-0.25,-0.296875,0.3125
470,470,1727897253553,-0.23925781,-0.940979,0.24725342,-1.953125,-0.125,-0.3125
471,471,1727897253593,-0.26293945,-0.954895,0.2538452,0.765625,0.53125,0.28125
472,472,1727897253633,-0.2475586,-0.9517212,0.26483154,-0.625,0.03125,0.140625
473,473,1727897253673,-0.24902344,-0.9434204,0.24334717,-1.078125,0.46875,-0.09375
474,474,1727897253713,-0.25048828,-0.9546509,0.26068115,0.734375,0.53125,0.21875
475,475,1727897253753,-0.2524414,-0.95025635,0.25115967,-1.875,0.9375,-0.09375
476,476,1727897253793,-0.24853516,-0.9480591,0.24261475,0.625,0.609375,0.28125
477,477,1727897253833,-0.24145508,-0.95928955,0.25531006,-0.5625,0.5625,0.234375
478,478,1727897253873,-0.24731445,-0.9529419,0.24334717,-0.9375,0.359375,0.3125
479,479,1727897253913,-0.25146484,-0.95391846,0.2555542,0.703125,0.234375,0.359375
480,480,1727897253953,-0.2487793,-0.9534302,0.2584839,-0.78125,0.453125,0.375
481,481,1727897253993,-0.25268555,-0.9512329,0.2506714,-1.515625,0.859375,0.265625
482,482,1727897254033,-0.24902344,-0.9570923,0.24603271,-0.96875,0.4375,0.390625
483,483,1727897254073,-0.24072266,-0.9561157,0.25701904,-0.359375,0.890625,0.203125
484,484,1727897254113,-0.24633789,-0.9517212,0.26190186,1.578125,-0.171875,0.671875
485,485,1727897254153,-0.23779297,-0.9512329,0.22772217,-5.640625,1.265625,-0.296875
486,486,1727897254193,-0.25610352,-0.95635986,0.25091553,6.5625,0.78125,1.4375
487,487,1727897254233,-0.2319336,-0.95147705,0.26483154,-2.90625,1.875,0.265625
488,488,1727897254273,-0.24780273,-0.958313,0.2333374,0.296875,0.390625,0.5625
489,489,1727897254313,-0.24560547,-0.95928955,0.26019287,-0.0625,0.6875,0.578125
490,490,1727897254353,-0.24169922,-0.96051025,0.24676514,1.796875,0.15625,0.453125
491,491,1727897254393,-0.24609375,-0.9558716,0.246521,-1.5625,1.1875,-0.125
492,492,1727897254433,-0.24804688,-0.9595337,0.2453003,0.609375,0.421875,0.8125
493,493,1727897254473,-0.23706055,-0.960022,0.2518921,0.765625,0.25,0.1875
494,494,1727897254513,-0.2421875,-0.9570923,0.23968506,-1.6875,0.484375,0.46875
495,495,1727897254553,-0.23925781,-0.9595337,0.24310303,0.359375,0.546875,0.609375
496,496,1727897254593,-0.24487305,-0.94976807,0.24407959,-1.515625,0.59375,0.140625
497,497,1727897254633,-0.2397461,-0.9649048,0.24578857,0.53125,0.671875,0.109375
498,498,1727897254673,-0.23779297,-0.95513916,0.25164795,-1.4375,0.703125,0.15625
499,499,1727897254713,-0.24365234,-0.9561157,0.24578857,-0.390625,0.578125,0.03125
500,500,1727897254753,-0.23095703,-0.95635986,0.25213623,-0.328125,0.484375,0.171875
501,501,1727897254793,-0.24316406,-0.9529419,0.2477417,-0.5625,0.5,0.0625
502,502,1727897254833,-0.23876953,-0.9570923,0.24481201,-0.734375,0.53125,-0.09375
503,503,1727897254873,-0.23168945,-0.95196533,0.24676514,-0.421875,0.4375,-0.09375
504,504,1727897254913,-0.24975586,-0.9512329,0.24847412,-2.078125,0.65625,-0.046875
505,505,1727897254953,-0.21728516,-0.94537354,0.24871826,-1.125,0.640625,-0.109375
506,506,1727897254993,-0.24316406,-0.9614868,0.26287842,1.078125,-0.90625,0.453125
507,507,1727897255033,-0.23461914,-0.95196533,0.22772217,-4.234375,0.78125,-0.546875
508,508,1727897255073,-0.25610352,-0.960022,0.260437,4.328125,0.609375,0.671875
509,509,1727897255113,-0.23925781,-0.9529419,0.25042725,-2.65625,1.328125,-0.125
510,510,1727897255153,-0.2319336,-0.95928955,0.23504639,-0.578125,0.359375,-0.125
511,511,1727897255193,-0.2446289,-0.96417236,0.25360107,0.234375,0.671875,0.359375
512,512,1727897255233,-0.24145508,-0.96661377,0.26116943,-0.0625,0.234375,-0.171875
513,513,1727897255273,-0.2355957,-0.9487915,0.24066162,-2.46875,1.1875,-0.4375
514,514,1727897255313,-0.24023438,-0.95513916,0.24432373,-0.15625,0.3125,0.671875
515,515,1727897255353,-0.2355957,-0.9644165,0.2592163,0.109375,0.265625,-0.046875
516,516,1727897255393,-0.2446289,-0.9524536,0.25213623,-0.828125,0.625,0.203125
517,517,1727897255433,-0.23730469,-0.9505005,0.24700928,-0.5625,0.578125,0.21875
518,518,1727897255473,-0.2421875,-0.9553833,0.24871826,-0.875,0.703125,0.125
519,519,1727897255513,-0.2409668,-0.95758057,0.2538452,-1.125,0.46875,-0.1875
520,520,1727897255553,-0.23486328,-0.9517212,0.24822998,-1.015625,0.90625,-0.125
521,521,1727897255593,-0.23803711,-0.9507446,0.25457764,-0.671875,0.71875,-0.1875
522,522,1727897255633,-0.25024414,-0.9578247,0.25238037,-1.140625,0.390625,-0.296875
523,523,1727897255673,-0.2434082,-0.9546509,0.2567749,-0.171875,0.890625,-0.28125
524,524,1727897255713,-0.24365234,-0.9553833,0.2531128,-1.046875,0.765625,-0.140625
525,525,1727897255753,-0.24169922,-0.9512329,0.24041748,-1.765625,0.4375,-0.265625
526,526,1727897255793,-0.24414062,-0.95440674,0.25994873,-0.265625,0.21875,-0.140625
527,527,1727897255833,-0.2397461,-0.954895,0.26190186,-0.234375,0.96875,-0.703125
528,528,1727897255873,-0.24707031,-0.9663696,0.26409912,2.8125,-0.078125,-0.078125
529,529,1727897255913,-0.24291992,-0.9507446,0.26019287,-6.015625,1.859375,-0.625
530,530,1727897255953,-0.2434082,-0.9517212,0.24432373,2.96875,0.0625,0.4375
531,531,1727897255993,-0.2434082,-0.96295166,0.2868042,-1.046875,1.15625,-0.1875
532,532,1727897256033,-0.24291992,-0.9492798,0.24920654,-2.171875,0.859375,-0.09375
533,533,1727897256073,-0.24609375,-0.9558716,0.27142334,-1.328125,0.53125,-0.046875
534,534,1727897256113,-0.24560547,-0.9439087,0.26605225,-0.046875,0.703125,-0.21875
535,535,1727897256153,-0.23852539,-0.9434204,0.27337646,-2.265625,0.734375,-0.296875
536,536,1727897256193,-0.24731445,-0.94415283,0.25628662,-0.8125,-0.5,0.0
537,537,1727897256233,-0.24951172,-0.9522095,0.2748413,-0.0625,0.109375,-0.375
538,538,1727897256273,-0.2512207,-0.9451294,0.26849365,-1.03125,0.40625,-0.015625
539,539,1727897256313,-0.24633789,-0.9480591,0.27093506,-0.6875,0.171875,-0.15625
540,540,1727897256353,-0.25756836,-0.9505005,0.26361084,-1.15625,0.65625,-0.21875
541,541,1727897256393,-0.24267578,-0.9522095,0.27508545,-0.375,0.59375,-0.046875
542,542,1727897256433,-0.25317383,-0.9463501,0.26483154,-1.234375,0.515625,-0.046875
543,543,1727897256473,-0.24438477,-0.9492798,0.27191162,-0.6875,0.5,0.046875
544,544,1727897256513,-0.25610352,-0.94537354,0.27166748,-0.953125,0.375,0.171875
545,545,1727897256553,-0.24780273,-0.94781494,0.2736206,-0.421875,0.65625,-0.078125
546,546,1727897256593,-0.24633789,-0.94732666,0.2699585,-0.53125,0.296875,0.03125
547,547,1727897256633,-0.24633789,-0.9536743,0.26531982,-0.75,0.21875,-0.140625
548,548,1727897256673,-0.2421875,-0.9414673,0.26727295,-0.84375,0.453125,-0.03125
549,549,1727897256713,-0.25634766,-0.9558716,0.27435303,-2.28125,0.71875,-0.28125
550,550,1727897256753,-0.23754883,-0.9404907,0.27874756,-1.0,0.359375,0.015625
551,551,1727897256793,-0.24316406,-0.9561157,0.27581787,-0.375,0.0,-0.109375
552,552,1727897256833,-0.23876953,-0.942688,0.2501831,-3.28125,1.109375,-0.53125
553,553,1727897256873,-0.27124023,-0.95025635,0.29608154,3.28125,0.859375,0.328125
554,554,1727897256913,-0.23706055,-0.944397,0.26556396,-4.6875,1.453125,-0.328125
555,555,1727897256953,-0.24584961,-0.95196533,0.26727295,0.28125,0.3125,-0.09375
556,556,1727897256993,-0.25610352,-0.9558716,0.28216553,-1.453125,0.65625,0.03125
557,557,1727897257033,-0.24560547,-0.9495239,0.28753662,-0.25,-0.046875,0.046875
558,558,1727897257073,-0.23413086,-0.94244385,0.26507568,-2.15625,0.6875,-0.390625
559,559,1727897257113,-0.26660156,-0.9536743,0.28216553,1.546875,0.171875,0.203125
560,560,1727897257153,-0.23803711,-0.9446411,0.27630615,-0.71875,0.15625,0.09375
561,561,1727897257193,-0.24951172,-0.95025635,0.27801514,-0.1875,0.3125,-0.078125
562,562,1727897257233,-0.24780273,-0.9458618,0.2765503,-0.734375,0.484375,0.171875
563,563,1727897257273,-0.25317383,-0.9451294,0.2789917,-0.203125,0.34375,0.109375
564,564,1727897257313,-0.24829102,-0.9458618,0.2723999,-0.953125,0.734375,0.03125
565,565,1727897257353,-0.25585938,-0.95196533,0.28240967,-0.203125,0.390625,0.140625
566,566,1727897257393,-0.25732422,-0.94244385,0.27752686,-1.296875,0.453125,0.078125
567,567,1727897257433,-0.25,-0.95196533,0.28289795,0.546875,0.421875,0.171875
568,568,1727897257473,-0.24853516,-0.93878174,0.28167725,-0.9375,0.390625,0.015625
569,569,1727897257513,-0.25683594,-0.9475708,0.27923584,0.78125,0.453125,0.09375
570,570,1727897257553,-0.23901367,-0.9360962,0.26898193,-1.5625,0.890625,0.015625
571,571,1727897257593,-0.2529297,-0.9524536,0.27581787,0.171875,0.640625,-0.015625
572,572,1727897257633,-0.24169922,-0.94781494,0.2880249,-0.21875,0.59375,-0.171875
573,573,1727897257673,-0.25512695,-0.9522095,0.27825928,1.421875,-0.234375,0.25
574,574,1727897257713,-0.24487305,-0.94781494,0.25897217,-3.6875,1.671875,-0.671875
575,575,1727897257753,-0.26245117,-0.9517212,0.28094482,4.453125,0.609375,0.609375
576,576,1727897257793,-0.24853516,-0.93536377,0.27093506,-3.28125,1.75,-0.25
577,577,1727897257833,-0.24682617,-0.9463501,0.25726318,1.109375,0.625,0.21875
578,578,1727897257873,-0.25756836,-0.9639282,0.28167725,-0.125,0.90625,0.15625
579,579,1727897257913,-0.24804688,-0.95635986,0.28094482,1.78125,-0.0625,0.046875
580,580,1727897257953,-0.24682617,-0.94122314,0.26556396,-1.71875,1.03125,-0.703125
581,581,1727897257993,-0.26171875,-0.95562744,0.27215576,1.109375,0.3125,0.4375
582,582,1727897258033,-0.2434082,-0.942688,0.27215576,0.296875,0.71875,-0.078125
583,583,1727897258073,-0.2529297,-0.9397583,0.27508545,1.0,0.734375,0.328125
584,584,1727897258113,-0.2536621,-0.94854736,0.2748413,-0.484375,1.390625,0.109375
585,585,1727897258153,-0.25439453,-0.9463501,0.2609253,0.640625,1.21875,0.09375
586,586,1727897258193,-0.2446289,-0.9463501,0.2748413,0.734375,0.8125,0.15625
587,587,1727897258233,-0.2475586,-0.9507446,0.2662964,-0.59375,0.75,0.328125
588,588,1727897258273,-0.2434082,-0.95147705,0.26483154,0.546875,0.875,0.28125
589,589,1727897258313,-0.23266602,-0.9451294,0.26141357,0.546875,1.125,0.5625
590,590,1727897258353,-0.25195312,-0.95562744,0.2662964,1.015625,0.625,0.625
591,591,1727897258393,-0.2524414,-0.9570923,0.2723999,-0.046875,0.859375,0.5625
592,592,1727897258433,-0.2524414,-0.94317627,0.2633667,-0.375,0.9375,0.203125
593,593,1727897258473,-0.23901367,-0.95806885,0.26239014,1.453125,0.03125,0.53125
594,594,1727897258513,-0.25317383,-0.9480591,0.25482178,1.0,1.015625,0.34375
595,595,1727897258553,-0.23950195,-0.93951416,0.26898193,2.375,-0.078125,0.859375
596,596,1727897258593,-0.24023438,-0.9529419,0.26556396,-2.484375,1.140625,0.109375
597,597,1727897258633,-0.23779297,-0.93878174,0.24090576,0.765625,-0.0625,0.59375
598,598,1727897258673,-0.25634766,-0.9644165,0.2868042,4.75,1.140625,0.71875
599,599,1727897258713,-0.24511719,-0.94488525,0.24603271,-0.828125,1.609375,0.59375
600,600,1727897258753,-0.23583984,-0.9585571,0.24871826,2.875,0.609375,0.453125
601,601,1727897258793,-0.24511719,-0.95562744,0.2506714,-0.703125,1.0625,0.328125
602,602,1727897258833,-0.24267578,-0.9631958,0.26312256,0.90625,0.53125,0.75
603,603,1727897258873,-0.23144531,-0.944397,0.2453003,-2.296875,0.171875,-0.21875
604,604,1727897258913,-0.2434082,-0.9570923,0.24041748,1.0,1.0,0.328125
605,605,1727897258953,-0.23046875,-0.9522095,0.25457764,0.828125,0.3125,0.734375
606,606,1727897258993,-0.23754883,-0.95806885,0.23822021,-0.109375,0.5625,0.203125
607,607,1727897259033,-0.2434082,-0.95635986,0.24871826,1.15625,0.40625,0.421875
608,608,1727897259073,-0.234375,-0.9631958,0.24554443,0.4375,0.8125,0.109375
609,609,1727897259113,-0.23364258,-0.9570923,0.24871826,0.578125,0.46875,0.21875
610,610,1727897259153,-0.23779297,-0.958313,0.24188232,-0.421875,0.484375,-0.03125
611,611,1727897259193,-0.23144531,-0.9578247,0.2411499,-0.171875,0.328125,0.03125
612,612,1727897259233,-0.24414062,-0.96173096,0.24407959,0.015625,0.015625,0.015625
613,613,1727897259273,-0.234375,-0.958313,0.2506714,-0.359375,0.65625,-0.203125
614,614,1727897259313,-0.23779297,-0.94610596,0.23162842,-1.4375,0.234375,0.0625
615,615,1727897259353,-0.24145508,-0.95758057,0.23895264,-0.171875,0.40625,-0.125
616,616,1727897259393,-0.21948242,-0.9631958,0.23675537,-0.578125,0.890625,-0.421875
617,617,1727897259433,-0.24316406,-0.96221924,0.24334717,2.53125,-0.4375,0.265625
618,618,1727897259473,-0.2409668,-0.9546509,0.24090576,-5.140625,1.234375,-0.515625
619,619,1727897259513,-0.23999023,-0.9570923,0.22698975,2.109375,0.40625,0.40625
620,620,1727897259553,-0.23046875,-0.95806885,0.25604248,-0.1875,0.828125,-0.046875
621,621,1727897259593,-0.23657227,-0.9578247,0.23382568,-1.375,0.421875,-0.078125
622,622,1727897259633,-0.24169922,-0.9602661,0.24920654,-0.03125,0.453125,0.234375
623,623,1727897259673,-0.23583984,-0.95391846,0.25164795,1.09375,0.53125,-0.296875
624,624,1727897259713,-0.22729492,-0.95440674,0.24407959,-2.671875,0.859375,-0.171875
625,625,1727897259753,-0.24829102,-0.9553833,0.23846436,-0.84375,-0.3125,0.28125
626,626,1727897259793,-0.2368164,-0.96661377,0.24676514,0.015625,0.421875,-0.390625
627,627,1727897259833,-0.23339844,-0.954895,0.24725342,-2.140625,0.3125,-0.078125
628,628,1727897259873,-0.2409668,-0.95391846,0.24725342,-0.28125,-0.34375,0.265625
629,629,1727897259913,-0.24829102,-0.9585571,0.25042725,-1.46875,0.75,-0.265625
630,630,1727897259953,-0.2265625,-0.9495239,0.24847412,-0.421875,0.59375,-0.09375
631,631,1727897259993,-0.23999023,-0.9529419,0.25115967,-1.09375,0.359375,-0.03125
632,632,1727897260033,-0.24194336,-0.9561157,0.25628662,-0.15625,0.4375,-0.140625
633,633,1727897260073,-0.24316406,-0.9578247,0.24627686,-1.125,0.640625,-0.109375
634,634,1727897260113,-0.23266602,-0.9614868,0.25091553,-0.609375,0.484375,-0.1875
635,635,1727897260153,-0.2421875,-0.9534302,0.25238037,-1.78125,0.40625,-0.109375
636,636,1727897260193,-0.2446289,-0.9602661,0.2506714,-0.484375,0.5625,-0.0625
637,637,1727897260233,-0.23876953,-0.9607544,0.2477417,0.546875,1.09375,-0.53125
638,638,1727897260273,-0.2409668,-0.9578247,0.25482178,1.890625,-0.046875,0.125
639,639,1727897260313,-0.24975586,-0.9507446,0.25360107,-4.515625,1.765625,-0.28125
640,640,1727897260353,-0.23535156,-0.9546509,0.23406982,1.53125,0.40625,0.234375
641,641,1727897260393,-0.24438477,-0.9578247,0.28070068,0.140625,1.28125,-0.078125
642,642,1727897260433,-0.22973633,-0.9495239,0.2411499,-3.0625,1.265625,-0.125
643,643,1727897260473,-0.23632812,-0.95806885,0.25701904,0.25,0.484375,0.375
644,644,1727897260513,-0.24414062,-0.9507446,0.26922607,-0.21875,0.3125,0.28125
645,645,1727897260553,-0.23535156,-0.9505005,0.25775146,-2.671875,1.4375,0.15625
646,646,1727897260593,-0.2368164,-0.95684814,0.24554443,-0.46875,-0.28125,0.78125
647,647,1727897260633,-0.25,-0.9522095,0.26898193,-0.34375,0.078125,-0.03125
648,648,1727897260673,-0.24438477,-0.9505005,0.26263428,-1.3125,0.46875,0.21875
649,649,1727897260713,-0.2368164,-0.95440674,0.24554443,-0.03125,0.515625,0.265625
650,650,1727897260753,-0.24169922,-0.9534302,0.2675171,-0.6875,0.5,-0.078125
651,651,1727897260793,-0.24267578,-0.9468384,0.25408936,-1.109375,0.515625,0.078125
652,652,1727897260833,-0.23876953,-0.95196533,0.25628662,-0.59375,0.5,-0.375
653,653,1727897260873,-0.23950195,-0.95440674,0.25775146,-0.9375,0.546875,-0.1875
654,654,1727897260913,-0.24047852,-0.9585571,0.26019287,-1.125,0.578125,-0.28125
655,655,1727897260953,-0.23486328,-0.9492798,0.25531006,-0.46875,0.546875,-0.390625
656,656,1727897260993,-0.2409668,-0.9522095,0.2675171,-0.421875,0.125,-0.125
657,657,1727897261033,-0.24731445,-0.9524536,0.24822998,-1.140625,0.3125,-0.4375
658,658,1727897261073,-0.2397461,-0.94659424,0.2687378,-1.234375,0.734375,-0.25
659,659,1727897261113,-0.23120117,-0.94976807,0.2658081,-1.734375,0.015625,0.0
660,660,1727897261153,-0.24023438,-0.95635986,0.27215576,-0.4375,0.0625,-0.359375
661,661,1727897261193,-0.23120117,-0.9529419,0.24554443,-2.171875,1.0625,-0.3125
662,662,1727897261233,-0.25610352,-0.9627075,0.29486084,2.0,0.46875,0.109375
663,663,1727897261273,-0.23852539,-0.944397,0.24969482,-3.21875,1.484375,-0.5
664,664,1727897261313,-0.23730469,-0.95440674,0.26776123,0.6875,0.234375,0.0
665,665,1727897261353,-0.24780273,-0.95147705,0.2597046,-1.75,0.9375,-0.1875
666,666,1727897261393,-0.23999023,-0.9590454,0.27435303,0.703125,0.1875,0.28125
667,667,1727897261433,-0.22509766,-0.9421997,0.25115967,-2.0625,0.0625,-0.390625
668,668,1727897261473,-0.2548828,-0.9578247,0.26556396,1.765625,0.5,0.203125
669,669,1727897261513,-0.23999023,-0.9470825,0.2616577,-0.03125,0.5,0.421875
670,670,1727897261553,-0.23657227,-0.9480591,0.25775146,-0.234375,0.296875,-0.015625
671,671,1727897261593,-0.2487793,-0.9561157,0.2723999,0.203125,0.03125,0.421875
672,672,1727897261633,-0.24780273,-0.94659424,0.2597046,0.65625,0.78125,0.34375
673,673,1727897261673,-0.24121094,-0.9492798,0.2675171,-0.234375,0.828125,-0.015625
674,674,1727897261713,-0.24804688,-0.9534302,0.2584839,0.3125,0.5,0.3125
675,675,1727897261753,-0.23242188,-0.94854736,0.26239014,0.15625,0.75,0.078125
676,676,1727897261793,-0.24267578,-0.95098877,0.26385498,0.671875,0.515625,0.15625
677,677,1727897261833,-0.23266602,-0.954895,0.26019287,0.34375,0.78125,0.21875
678,678,1727897261873,-0.23999023,-0.96173096,0.25994873,2.203125,0.609375,0.390625
679,679,1727897261913,-0.23657227,-0.9573364,0.25213623,0.21875,0.328125,0.171875
680,680,1727897261953,-0.24926758,-0.95318604,0.24725342,3.9375,0.734375,0.125
681,681,1727897261993,-0.24487305,-0.9570923,0.26483154,1.9375,-0.09375,0.3125
682,682,1727897262033,-0.23999023,-0.960022,0.2423706,-4.28125,1.328125,-0.375
683,683,1727897262073,-0.23925781,-0.9480591,0.23846436,4.21875,-0.3125,0.5
684,684,1727897262113,-0.24511719,-0.96173096,0.277771,-0.171875,1.03125,-0.25
685,685,1727897262153,-0.24023438,-0.95269775,0.22943115,-1.8125,0.828125,-0.015625
686,686,1727897262193,-0.23901367,-0.9553833,0.24725342,1.078125,0.53125,0.09375
687,687,1727897262233,-0.23608398,-0.94903564,0.25604248,1.375,0.015625,-0.09375
688,688,1727897262273,-0.25463867,-0.95098877,0.25701904,-2.28125,0.78125,0.078125
689,689,1727897262313,-0.23144531,-0.95440674,0.23406982,-0.765625,-0.328125,-0.09375
690,690,1727897262353,-0.24194336,-0.9558716,0.25238037,0.71875,0.203125,-0.25
691,691,1727897262393,-0.24414062,-0.9561157,0.2453003,-0.84375,0.1875,0.3125
692,692,1727897262433,-0.24023438,-0.95269775,0.2411499,-0.421875,0.28125,0.171875
693,693,1727897262473,-0.24072266,-0.9558716,0.24700928,-0.703125,0.328125,0.0
694,694,1727897262513,-0.234375,-0.9495239,0.2423706,-0.4375,0.3125,0.015625
695,695,1727897262553,-0.24511719,-0.95635986,0.25164795,-0.734375,0.5,0.234375
696,696,1727897262593,-0.24023438,-0.9492798,0.24603271,-0.453125,0.53125,0.140625
697,697,1727897262633,-0.25195312,-0.95147705,0.2543335,-0.46875,0.671875,0.015625
698,698,1727897262673,-0.24511719,-0.9536743,0.24456787,-1.484375,0.984375,-0.234375
699,699,1727897262713,-0.22705078,-0.9561157,0.24310303,-0.21875,0.9375,-0.5
700,700,1727897262753,-0.23657227,-0.95025635,0.24749756,-1.625,0.390625,-0.265625
701,701,1727897262793,-0.2446289,-0.956604,0.24749756,-0.203125,0.328125,-0.046875
702,702,1727897262833,-0.24121094,-0.95440674,0.25115967,0.015625,0.640625,0.03125
703,703,1727897262873,-0.24414062,-0.9517212,0.2411499,0.984375,0.734375,0.015625
704,704,1727897262913,-0.25341797,-0.9607544,0.2555542,3.234375,-0.625,0.828125
705,705,1727897262953,-0.23999023,-0.9573364,0.24481201,-3.953125,1.421875,0.109375
706,706,1727897262993,-0.2434082,-0.9573364,0.23724365,3.078125,0.15625,0.6875
707,707,1727897263033,-0.24951172,-0.9553833,0.2682495,0.109375,0.90625,-0.015625
708,708,1727897263073,-0.24731445,-0.9546509,0.23480225,-2.203125,1.109375,-0.515625
709,709,1727897263113,-0.23852539,-0.9507446,0.2453003,-0.203125,0.671875,-0.0625
710,710,1727897263153,-0.24853516,-0.95318604,0.26116943,1.234375,0.828125,-0.34375
711,711,1727897263193,-0.24951172,-0.95758057,0.25897217,-3.90625,1.078125,-0.328125
712,712,1727897263233,-0.23608398,-0.954895,0.23065186,-0.828125,-0.25,-0.421875
713,713,1727897263273,-0.24902344,-0.9529419,0.25091553,-0.171875,0.65625,-0.59375
714,714,1727897263313,-0.24511719,-0.9536743,0.24945068,-0.765625,0.6875,0.0
715,715,1727897263353,-0.24047852,-0.94903564,0.24261475,-0.9375,0.46875,-0.234375
716,716,1727897263393,-0.24853516,-0.9573364,0.2543335,-0.859375,0.90625,0.0
717,717,1727897263433,-0.24169922,-0.9456177,0.24310303,-0.984375,0.828125,-0.109375
718,718,1727897263473,-0.25805664,-0.956604,0.25653076,-0.359375,0.65625,0.09375
719,719,1727897263513,-0.23754883,-0.9536743,0.2579956,-1.40625,1.15625,0.125
720,720,1727897263553,-0.24902344,-0.9470825,0.24969482,-0.546875,0.71875,0.3125
721,721,1727897263593,-0.24169922,-0.9487915,0.25579834,-0.921875,0.859375,0.09375
722,722,1727897263633,-0.23461914,-0.9546509,0.24798584,-0.0625,0.453125,0.578125
723,723,1727897263673,-0.24853516,-0.9585571,0.2687378,-0.09375,0.34375,0.28125
724,724,1727897263713,-0.2397461,-0.9456177,0.2514038,-1.734375,0.609375,0.109375
725,725,1727897263753,-0.25097656,-0.95758057,0.2514038,0.578125,-0.171875,0.078125
726,726,1727897263793,-0.2368164,-0.958313,0.25701904,0.46875,0.671875,-0.21875
727,727,1727897263833,-0.2553711,-0.9451294,0.2579956,1.8125,-0.078125,0.359375
728,728,1727897263873,-0.24169922,-0.9534302,0.25823975,-4.15625,1.390625,-0.15625
729,729,1727897263913,-0.2368164,-0.94366455,0.22869873,0.859375,-0.125,0.0625
730,730,1727897263953,-0.2548828,-0.96588135,0.28948975,0.5625,0.65625,-0.203125
731,731,1727897263993,-0.25024414,-0.9397583,0.24456787,-3.140625,0.671875,-0.4375
732,732,1727897264033,-0.2368164,-0.95513916,0.26409912,-0.109375,1.046875,-0.296875
733,733,1727897264073,-0.24926758,-0.95025635,0.26239014,-2.34375,0.640625,-0.546875
734,734,1727897264113,-0.24658203,-0.95977783,0.27337646,-2.203125,0.765625,-0.359375
735,735,1727897264153,-0.2290039,-0.9356079,0.24945068,-3.609375,-0.4375,-0.6875
736,736,1727897264193,-0.25854492,-0.95196533,0.2687378,-0.53125,0.25,-0.203125
737,737,1727897264233,-0.24951172,-0.9534302,0.2748413,-2.1875,0.390625,-0.46875
738,738,1727897264273,-0.2487793,-0.94488525,0.25579834,-0.796875,0.140625,-0.375
739,739,1727897264313,-0.24707031,-0.9505005,0.276062,-0.875,0.46875,-0.453125
740,740,1727897264353,-0.24780273,-0.9483032,0.26971436,-1.625,0.421875,-0.34375
741,741,1727897264393,-0.24731445,-0.9480591,0.26922607,-0.703125,0.65625,-0.375
742,742,1727897264433,-0.24633789,-0.9463501,0.27288818,-2.046875,0.46875,-0.296875
743,743,1727897264473,-0.25,-0.9487915,0.27874756,-1.46875,0.359375,-0.34375
744,744,1727897264513,-0.25146484,-0.9402466,0.27825928,-1.21875,0.40625,-0.3125
745,745,1727897264553,-0.24951172,-0.9451294,0.27264404,-2.21875,0.671875,-0.375
746,746,1727897264593,-0.25073242,-0.9458618,0.2814331,-0.4375,0.40625,-0.21875
747,747,1727897264633,-0.26049805,-0.94244385,0.28289795,-1.65625,0.453125,-0.125
748,748,1727897264673,-0.25634766,-0.9451294,0.28533936,-0.90625,0.828125,-0.46875
749,749,1727897264713,-0.25341797,-0.9414673,0.28338623,-1.0625,0.34375,-0.125
750,750,1727897264753,-0.25073242,-0.9470825,0.27581787,1.9375,0.59375,-0.15625
751,751,1727897264793,-0.25512695,-0.9483032,0.28851318,0.796875,-0.046875,0.140625
752,752,1727897264833,-0.24853516,-0.9446411,0.2772827,-3.96875,1.375,-0.328125
753,753,1727897264873,-0.25952148,-0.9378052,0.27459717,2.875,0.203125,0.484375
754,754,1727897264913,-0.25708008,-0.94659424,0.2982788,-1.46875,1.40625,-0.546875
755,755,1727897264953,-0.2524414,-0.93878174,0.26971436,-1.09375,0.609375,-0.28125
756,756,1727897264993,-0.25610352,-0.9451294,0.2855835,-0.421875,0.9375,-0.171875
