,timestamp,accel_x,accel_y,accel_z,gyro_x,gyro_y,gyro_z
0,1727056400015,0.118652344,-0.9885864,0.11566162,0.59375,0.296875,0.203125
1,1727056400048,0.12207031,-0.9859009,0.105895996,0.453125,0.5,0.296875
2,1727056400095,0.12207031,-0.986145,0.101745605,-0.25,-0.3125,0.09375
3,1727056400128,0.12475586,-0.9873657,0.116882324,-0.140625,-0.375,0.078125
4,1727056400180,0.13085938,-0.98809814,0.11444092,0.5625,-0.21875,-0.015625
5,1727056400211,0.1315918,-0.9927368,0.109313965,0.453125,-0.984375,-0.15625
6,1727056400247,0.13012695,-0.99102783,0.10076904,0.453125,-1.3125,-0.1875
7,1727056400297,0.13134766,-0.9846802,0.105651855,0.4375,-0.828125,-0.171875
8,1727056400324,0.12646484,-0.98565674,0.10491943,0.078125,-0.4375,-0.265625
9,1727056400371,0.1171875,-0.98223877,0.10345459,0.40625,-0.890625,-0.046875
10,1727056400404,0.12548828,-0.986145,0.09857178,0.40625,0.109375,-0.234375
11,1727056400437,0.12817383,-0.9834595,0.11004639,0.046875,0.171875,-0.265625
12,1727056400486,0.13647461,-0.9837036,0.09588623,-0.234375,0.1875,-0.4375
13,1727056400519,0.114746094,-0.9907837,0.113464355,0.0625,-2.0625,0.234375
14,1727056400567,0.115478516,-0.9841919,0.10223389,0.09375,-0.984375,0.078125
15,1727056400600,0.11450195,-0.9898071,0.1071167,1.40625,-1.9375,-0.140625
16,1727056400681,0.12451172,-0.99468994,0.08465576,0.4375,-0.34375,-0.078125
17,1727056400697,0.118896484,-0.9915161,0.10882568,0.9375,-0.671875,0.046875
18,1727056400713,0.12402344,-0.9800415,0.09539795,0.359375,-0.390625,0.34375
19,1727056400762,0.12573242,-0.99224854,0.09197998,0.484375,-0.546875,0.328125
20,1727056400795,0.12426758,-0.987854,0.09954834,0.5,-0.671875,0.296875
21,1727056400845,0.12768555,-0.99005127,0.09539795,0.625,-1.15625,0.203125
22,1727056400876,0.13085938,-0.9915161,0.09295654,0.703125,-0.421875,0.375
23,1727056400908,0.1274414,-0.98565674,0.09832764,0.5,-0.421875,0.328125
24,1727056400957,0.13720703,-0.99298096,0.09075928,0.890625,-0.484375,0.203125
25,1727056400990,0.13647461,-0.989563,0.08880615,1.125,-1.015625,0.125
26,1727056401040,0.12988281,-0.9846802,0.09100342,0.84375,-0.421875,0.1875
27,1727056401071,0.12841797,-0.98931885,0.098083496,0.578125,-0.421875,0.359375
28,1727056401120,0.12841797,-0.98638916,0.08441162,0.203125,-0.875,0.375
29,1727056401152,0.1237793,-0.987854,0.08929443,0.203125,-0.625,0.328125
30,1727056401185,0.125,-0.9768677,0.0836792,0.34375,-0.71875,0.203125
31,1727056401234,0.13183594,-0.987854,0.08319092,0.3125,-0.921875,0.0
32,1727056401267,0.13696289,-0.9780884,0.0692749,0.015625,-1.0625,0.1875
33,1727056401315,0.1171875,-0.9871216,0.10784912,0.875,-1.15625,0.171875
34,1727056401348,0.13232422,-0.9793091,0.06072998,0.390625,-1.015625,0.21875
35,1727056401381,0.12426758,-0.9841919,0.09197998,0.828125,-0.328125,0.203125
36,1727056401428,0.13647461,-0.9849243,0.0758667,0.390625,-1.484375,0.125
37,1727056401461,0.12817383,-0.9883423,0.08148193,0.1875,-0.859375,0.125
38,1727056401509,0.12939453,-0.9885864,0.08319092,0.234375,-1.390625,0.03125
39,1727056401542,0.13183594,-0.9824829,0.07244873,0.203125,-0.890625,-0.03125
40,1727056401590,0.13208008,-0.9734497,0.070251465,-0.265625,-2.140625,-0.046875
41,1727056401624,0.13183594,-0.98809814,0.07928467,-0.609375,-1.515625,-0.03125
42,1727056401656,0.1262207,-0.98809814,0.09197998,-0.546875,-2.125,-0.140625
43,1727056401705,0.12109375,-0.9854126,0.08294678,-0.5625,-2.390625,-0.15625
44,1727056401737,0.12524414,-0.991272,0.085876465,-0.78125,-1.625,-0.125
45,1727056401786,0.1262207,-0.987854,0.09295654,-0.546875,-1.171875,-0.25
46,1727056401821,0.111328125,-0.97784424,0.082458496,-0.71875,-0.953125,-0.28125
47,1727056401851,0.12670898,-0.989563,0.09539795,-0.703125,-1.875,0.078125
48,1727056401899,0.13110352,-0.989563,0.097351074,-0.75,-0.671875,0.015625
49,1727056401932,0.13378906,-0.98443604,0.09881592,-0.625,-1.484375,0.046875
50,1727056401981,0.12475586,-0.99298096,0.09832764,-0.53125,-1.578125,0.15625
51,1727056402014,0.13769531,-0.9841919,0.08099365,-0.46875,-1.234375,0.078125
52,1727056402064,0.12402344,-0.98760986,0.0993042,0.140625,-2.828125,0.46875
53,1727056402097,0.11645508,-0.9937134,0.08319092,-1.453125,-1.546875,0.28125
54,1727056402127,0.12988281,-0.9788208,0.10418701,-1.0,-1.375,0.203125
55,1727056402176,0.12084961,-0.9871216,0.086364746,-0.96875,-2.0,0.140625
56,1727056402208,0.118896484,-0.9854126,0.097595215,-0.59375,-0.578125,-0.15625
57,1727056402257,0.1303711,-0.986145,0.08807373,-1.125,-1.8125,-0.40625
58,1727056402289,0.12182617,-0.9866333,0.10443115,-0.96875,-2.265625,-0.140625
59,1727056402323,0.1274414,-0.9890747,0.1005249,-0.671875,-2.328125,0.125
60,1727056402371,0.12182617,-0.98321533,0.10296631,-0.0625,-1.890625,0.109375
61,1727056402404,0.13061523,-0.9915161,0.117614746,-0.203125,-1.21875,0.03125
62,1727056402452,0.12597656,-0.99591064,0.10223389,-0.5625,-1.921875,0.09375
63,1727056402486,0.122558594,-0.9890747,0.09539795,-0.40625,-0.578125,0.0625
64,1727056402533,0.12060547,-0.99176025,0.109802246,-0.390625,-0.3125,-0.09375
65,1727056402566,0.12695312,-0.9902954,0.11248779,-0.46875,-0.21875,-0.078125
66,1727056402599,0.1303711,-0.9800415,0.11199951,-1.140625,-0.5625,-0.046875
67,1727056402648,0.123291016,-0.9939575,0.10809326,-0.6875,-1.15625,0.15625
68,1727056402680,0.12158203,-0.98809814,0.10858154,-0.328125,-1.96875,0.109375
69,1727056402729,0.125,-0.9805298,0.09686279,-0.375,-1.25,0.109375
70,1727056402761,0.114746094,-0.9793091,0.12591553,0.4375,-1.46875,-0.03125
71,1727056402793,0.12695312,-0.97906494,0.08782959,-0.421875,-1.1875,-0.109375
72,1727056402843,0.1184082,-0.98516846,0.12567139,-0.203125,-1.078125,0.203125
73,1727056402876,0.118652344,-0.986145,0.11126709,0.234375,0.125,0.4375
74,1727056402923,0.11035156,-0.9898071,0.10076904,0.453125,0.5625,0.0
75,1727056402957,0.13354492,-0.99224854,0.11151123,-0.34375,0.65625,-0.3125
76,1727056403005,0.12841797,-0.9866333,0.11663818,-0.65625,0.28125,-0.296875
77,1727056403037,0.13354492,-0.98931885,0.105407715,-0.484375,0.09375,-0.09375
78,1727056403070,0.12426758,-0.9849243,0.105163574,-0.265625,-0.671875,0.0625
79,1727056403119,0.13867188,-0.9885864,0.10809326,0.0,-1.515625,0.03125
80,1727056403151,0.13330078,-0.9819946,0.10491943,-0.203125,-2.5,0.140625
81,1727056403200,0.12841797,-0.986145,0.101745605,0.046875,-3.03125,0.21875
82,1727056403232,0.11425781,-0.98272705,0.109802246,0.359375,-2.1875,0.15625
83,1727056403265,0.11303711,-0.9902954,0.10321045,0.109375,-1.90625,-0.046875
84,1727056403314,0.12084961,-0.98516846,0.11175537,0.6875,-0.984375,-0.359375
85,1727056403346,0.11791992,-0.9902954,0.105407715,0.859375,0.25,-0.3125
86,1727056403395,0.1274414,-0.99005127,0.109558105,0.734375,0.328125,-0.4375
87,1727056403427,0.13183594,-0.98760986,0.1251831,0.078125,0.28125,-0.078125
88,1727056403476,0.12646484,-0.99420166,0.09490967,-0.640625,0.109375,0.203125
89,1727056403509,0.13183594,-0.9758911,0.11273193,-0.09375,-1.1875,0.015625
90,1727056403541,0.122558594,-0.9871216,0.101745605,-0.5625,-0.65625,0.328125
91,1727056403590,0.13061523,-0.98223877,0.116882324,-0.078125,-1.296875,0.03125
92,1727056403623,0.11645508,-0.98883057,0.10882568,0.53125,-1.25,0.25
93,1727056403671,0.12158203,-0.98883057,0.10467529,-0.25,-1.78125,-0.046875
94,1727056403704,0.12573242,-0.9824829,0.105651855,-0.015625,-1.75,-0.109375
95,1727056403737,0.115722656,-0.9871216,0.10784912,0.265625,-1.78125,0.0
96,1727056403785,0.12988281,-0.9873657,0.10614014,0.546875,-1.0,0.0
97,1727056403819,0.11376953,-0.9871216,0.109802246,0.1875,-1.28125,0.15625
98,1727056403865,0.114746094,-0.99005127,0.11004639,0.625,-0.375,-0.265625
99,1727056403899,0.12646484,-0.9859009,0.094177246,-0.171875,-0.71875,-0.21875
100,1727056403947,0.12231445,-0.9834595,0.10760498,-0.046875,-0.25,-0.15625
101,1727056403980,0.1184082,-0.987854,0.10296631,0.5,-0.046875,0.140625
102,1727056404013,0.12646484,-0.99053955,0.10614014,0.6875,0.171875,0.0
103,1727056404061,0.11987305,-0.98809814,0.10687256,0.53125,-0.5,0.0
104,1727056404095,0.12768555,-0.9920044,0.09515381,0.171875,-0.984375,-0.15625
105,1727056404143,0.12719727,-0.98223877,0.10736084,-0.328125,-1.703125,0.21875
106,1727056404175,0.12524414,-0.9771118,0.097595215,-0.078125,-1.859375,0.390625
107,1727056404208,0.11206055,-0.9915161,0.11566162,0.984375,-2.359375,0.40625
108,1727056404256,0.118896484,-0.9854126,0.086120605,0.125,-1.890625,0.234375
109,1727056404289,0.12011719,-0.9873657,0.109802246,0.171875,-1.796875,0.109375
110,1727056404337,0.118896484,-0.98931885,0.1005249,0.078125,-1.21875,0.015625
111,1727056404374,0.11425781,-0.9902954,0.101501465,0.234375,-0.640625,-0.015625
112,1727056404402,0.1237793,-0.991272,0.10784912,0.0625,-0.453125,0.0625
113,1727056404452,0.12573242,-0.98272705,0.105651855,0.078125,-0.15625,0.203125
114,1727056404484,0.12695312,-0.9885864,0.10394287,0.1875,-0.046875,0.28125
115,1727056404533,0.125,-0.987854,0.09954834,0.78125,-0.21875,0.0625
116,1727056404565,0.1274414,-0.9883423,0.1005249,0.6875,-0.546875,0.390625
117,1727056404613,0.12695312,-0.986145,0.09564209,0.296875,-0.3125,0.328125
118,1727056404646,0.12597656,-0.9859009,0.10247803,0.28125,-0.34375,0.328125
119,1727056404679,0.12426758,-0.9817505,0.08831787,0.34375,-0.1875,0.046875
120,1727056404728,0.12475586,-0.9871216,0.09613037,0.53125,-0.28125,0.0625
121,1727056404760,0.1171875,-0.97857666,0.0927124,0.28125,-0.46875,0.109375
122,1727056404809,0.12231445,-0.98272705,0.08416748,0.265625,-0.578125,0.015625
123,1727056404842,0.12866211,-0.9834595,0.08001709,0.375,-0.421875,-0.09375
124,1727056404875,0.119384766,-0.9951782,0.10809326,0.765625,-0.375,-0.109375
125,1727056404923,0.13012695,-0.975647,0.07342529,0.375,-1.046875,-0.015625
126,1727056404955,0.12475586,-0.99298096,0.09857178,0.484375,-0.765625,-0.046875
127,1727056405004,0.12036133,-0.98687744,0.09197998,-0.0625,-2.09375,-0.046875
128,1727056405036,0.125,-0.99053955,0.08270264,-0.296875,-2.59375,-0.125
129,1727056405085,0.11816406,-0.9824829,0.101745605,-0.328125,-1.921875,-0.09375
130,1727056405119,0.11669922,-0.98638916,0.08514404,-0.546875,-1.6875,0.125
131,1727056405151,0.11279297,-0.98809814,0.09173584,-0.46875,-0.640625,-0.125
132,1727056405199,0.12060547,-0.98638916,0.090270996,-0.46875,-1.1875,0.046875
133,1727056405231,0.11767578,-0.9927368,0.093444824,-0.421875,-0.25,0.09375
134,1727056405280,0.11352539,-0.98760986,0.09613037,-0.015625,-0.453125,-0.078125
135,1727056405313,0.13183594,-0.9920044,0.08660889,-0.59375,-0.75,0.203125
136,1727056405345,0.11450195,-0.98443604,0.09564209,-0.296875,-0.921875,0.109375
137,1727056405394,0.125,-0.9824829,0.09490967,-0.421875,-0.828125,0.0625
138,1727056405426,0.118652344,-0.9885864,0.097595215,-0.53125,-0.84375,0.203125
139,1727056405478,0.12207031,-0.9841919,0.1005249,-0.234375,-1.03125,0.109375
140,1727056405507,0.12939453,-0.991272,0.10003662,-0.609375,-1.890625,0.0
141,1727056405557,0.11425781,-0.98443604,0.09979248,-0.1875,-1.453125,0.0625
142,1727056405589,0.1159668,-0.9890747,0.109558105,0.734375,-0.796875,-0.03125
143,1727056405622,0.12011719,-0.9944458,0.08001709,-0.828125,-0.6875,-0.078125
144,1727056405671,0.125,-0.98272705,0.097595215,-0.59375,-0.796875,-0.09375
145,1727056405704,0.12158203,-0.9866333,0.09613037,-0.09375,-0.59375,-0.109375
146,1727056405751,0.12011719,-0.9837036,0.10687256,-0.515625,-0.875,0.078125
147,1727056405783,0.12109375,-0.98150635,0.10076904,-0.390625,-0.796875,0.046875
148,1727056405816,0.12207031,-0.9920044,0.10247803,-0.375,-0.65625,0.03125
149,1727056405865,0.122802734,-0.98883057,0.10101318,-0.53125,-0.671875,0.03125
150,1727056405901,0.123535156,-0.97979736,0.09832764,-0.453125,-1.40625,-0.03125
151,1727056405946,0.123291016,-0.9837036,0.105407715,-0.140625,-0.9375,0.171875
152,1727056405978,0.114746094,-0.9883423,0.09539795,-0.453125,-1.640625,0.203125
153,1727056406028,0.11401367,-0.99102783,0.10321045,-0.234375,-0.84375,0.015625
154,1727056406060,0.11230469,-0.989563,0.101745605,-0.046875,-0.21875,-0.4375
155,1727056406093,0.13012695,-0.99224854,0.10784912,-0.46875,-0.609375,-0.5
156,1727056406142,0.125,-0.99176025,0.10491943,-0.625,-1.171875,-0.03125
157,1727056406173,0.11645508,-0.9812622,0.09979248,-0.25,-1.765625,0.140625
158,1727056406222,0.11621094,-0.98516846,0.10467529,0.0625,-1.515625,0.171875
159,1727056406256,0.122802734,-0.99005127,0.117126465,0.453125,-1.171875,-0.046875
160,1727056406287,0.119628906,-0.99005127,0.089538574,-0.125,-1.4375,0.125
161,1727056406336,0.11328125,-0.9939575,0.10882568,-0.03125,-0.859375,0.046875
162,1727056406368,0.12133789,-0.98516846,0.11468506,0.265625,-0.578125,-0.109375
163,1727056406417,0.11450195,-0.9927368,0.09832764,-0.21875,-0.71875,-0.078125
164,1727056406451,0.11987305,-0.9883423,0.109802246,-0.34375,-0.75,-0.0625
165,1727056406498,0.11767578,-0.98687744,0.10394287,-0.3125,-0.859375,0.078125
166,1727056406531,0.118896484,-0.99176025,0.094177246,-0.03125,-1.046875,0.0
167,1727056406563,0.13134766,-0.9927368,0.10443115,0.1875,-1.0,0.0
168,1727056406612,0.12109375,-0.99176025,0.10882568,-0.0625,-1.09375,0.0625
169,1727056406644,0.11376953,-0.9898071,0.09857178,0.28125,-1.8125,0.109375
170,1727056406693,0.12011719,-0.9854126,0.105895996,-0.03125,-2.1875,0.125
171,1727056406727,0.114990234,-0.98101807,0.105407715,-0.046875,-1.6875,0.03125
172,1727056406759,0.10888672,-0.99786377,0.09954834,0.109375,-1.40625,-0.046875
173,1727056406808,0.11743164,-0.9824829,0.10809326,-0.09375,-1.5,-0.21875
174,1727056406840,0.114990234,-0.98931885,0.10858154,0.015625,-0.390625,0.0
175,1727056406888,0.11767578,-0.9841919,0.09564209,-0.140625,-1.34375,-0.25
176,1727056406921,0.12841797,-0.987854,0.09979248,-0.046875,-1.0,-0.09375
177,1727056406971,0.11230469,-0.9973755,0.11102295,0.4375,-0.578125,-0.15625
178,1727056407003,0.12036133,-0.9834595,0.08026123,-0.90625,-1.078125,-0.125
179,1727056407037,0.10839844,-0.9924927,0.11639404,-0.453125,-0.390625,-0.15625
180,1727056407083,0.12402344,-0.97662354,0.109558105,-0.265625,-1.21875,-0.234375
181,1727056407116,0.107910156,-0.98394775,0.097351074,0.46875,-2.28125,-0.015625
182,1727056407166,0.11621094,-0.98394775,0.10394287,0.421875,-1.46875,-0.296875
183,1727056407198,0.11206055,-0.989563,0.10076904,0.21875,-1.65625,-0.125
184,1727056407230,0.11230469,-0.9924927,0.10223389,-0.0625,-1.078125,-0.125
185,1727056407278,0.11767578,-0.98565674,0.10809326,0.125,-1.078125,-0.09375
186,1727056407311,0.118652344,-0.9927368,0.11126709,0.328125,-1.125,0.03125
187,1727056407360,0.11621094,-0.99176025,0.10443115,0.546875,-1.46875,-0.125
188,1727056407392,0.10913086,-0.99224854,0.09442139,0.0,-0.8125,-0.015625
189,1727056407441,0.11645508,-0.98272705,0.09857178,0.140625,-0.359375,-0.140625
190,1727056407473,0.12207031,-0.986145,0.11273193,-0.09375,-1.1875,0.109375
191,1727056407508,0.09692383,-0.9998169,0.09832764,0.046875,-0.890625,0.46875
192,1727056407555,0.10913086,-0.98883057,0.09710693,0.984375,-0.671875,0.28125
193,1727056407587,0.123046875,-0.9859009,0.1005249,0.421875,-0.53125,-0.125
194,1727056407636,0.118896484,-0.99224854,0.09954834,-0.703125,-1.28125,0.15625
195,1727056407669,0.1015625,-0.9915161,0.11590576,0.546875,-1.390625,0.296875
196,1727056407701,0.12109375,-0.98272705,0.0758667,0.140625,-0.84375,0.265625
197,1727056407749,0.11206055,-0.9951782,0.10784912,0.234375,-0.09375,0.296875
198,1727056407783,0.11376953,-0.9883423,0.09197998,0.15625,-0.46875,0.140625
199,1727056407832,0.11352539,-0.98760986,0.08807373,0.15625,-0.53125,0.15625
200,1727056407864,0.114746094,-0.9932251,0.105651855,0.125,-0.453125,0.21875
201,1727056407913,0.119628906,-0.9976196,0.094177246,-0.171875,-0.90625,0.15625
202,1727056407945,0.115478516,-0.986145,0.0927124,-0.34375,-1.109375,0.234375
203,1727056407978,0.11303711,-0.98443604,0.09710693,-0.59375,-1.171875,0.046875
204,1727056408026,0.119140625,-0.99102783,0.105163574,-0.328125,-1.296875,0.125
205,1727056408059,0.11450195,-0.9937134,0.09661865,-0.28125,-1.09375,0.078125
206,1727056408107,0.11816406,-0.9883423,0.10223389,-0.6875,-1.65625,0.21875
207,1727056408140,0.11279297,-0.9873657,0.10247803,-0.609375,-0.921875,0.171875
208,1727056408174,0.11010742,-0.98883057,0.113708496,-0.40625,-1.0,0.0
209,1727056408222,0.10864258,-0.98565674,0.10076904,-0.484375,0.078125,-0.109375
210,1727056408253,0.107910156,-0.9907837,0.10687256,-0.46875,-0.34375,-0.21875
211,1727056408302,0.123046875,-0.99102783,0.105163574,-0.34375,-0.34375,-0.140625
212,1727056408337,0.115478516,-0.9927368,0.121520996,0.140625,-0.953125,0.0
213,1727056408384,0.114746094,-0.9871216,0.09222412,0.015625,-0.421875,0.3125
214,1727056408417,0.12182617,-0.97857666,0.10467529,0.734375,-1.21875,0.203125
215,1727056408450,0.11694336,-0.9907837,0.101501465,-0.421875,-1.171875,0.421875
216,1727056408497,0.10961914,-0.97735596,0.11224365,-0.390625,-0.484375,0.328125
217,1727056408530,0.11767578,-0.989563,0.09832764,-0.140625,-0.890625,0.296875
218,1727056408579,0.11767578,-0.98394775,0.10345459,-0.1875,-0.59375,0.21875
219,1727056408611,0.11816406,-0.98565674,0.10882568,-0.34375,-0.625,0.21875
220,1727056408644,0.11303711,-0.9956665,0.10223389,-0.25,-1.0,0.078125
221,1727056408695,0.12133789,-0.98638916,0.109069824,0.140625,-0.8125,0.015625
222,1727056408726,0.12548828,-0.9890747,0.105163574,-0.25,-0.953125,0.140625
223,1727056408773,0.115478516,-0.9944458,0.10809326,-0.21875,-0.953125,0.265625
224,1727056408805,0.119384766,-0.98760986,0.09832764,0.0,-0.828125,-0.09375
225,1727056408888,0.1274414,-0.98223877,0.10272217,-0.140625,-0.953125,0.09375
226,1727056408904,0.115722656,-0.987854,0.0993042,-0.171875,-0.921875,0.046875
227,1727056408921,0.1171875,-0.98223877,0.112976074,0.046875,-0.828125,-0.03125
228,1727056408968,0.109375,-0.9871216,0.105407715,0.046875,-0.859375,0.078125
229,1727056409002,0.114990234,-0.98516846,0.105651855,0.234375,-0.75,-0.0625
230,1727056409050,0.11816406,-0.9883423,0.10394287,-0.046875,-0.8125,-0.078125
231,1727056409083,0.11425781,-0.98565674,0.09906006,-0.328125,-0.765625,0.015625
232,1727056409116,0.12524414,-0.989563,0.10272217,-0.09375,-0.6875,-0.09375
233,1727056409163,0.11328125,-0.9951782,0.12200928,0.90625,-0.71875,0.078125
234,1727056409196,0.12719727,-0.9805298,0.08514404,-0.453125,-0.796875,-0.078125
235,1727056409244,0.11694336,-0.99005127,0.11468506,-0.109375,-0.953125,-0.046875
236,1727056409277,0.1184082,-0.9871216,0.105407715,-0.046875,-0.8125,0.21875
237,1727056409327,0.11425781,-0.989563,0.10296631,0.109375,-0.78125,0.28125
238,1727056409358,0.11450195,-0.986145,0.11541748,0.40625,-0.453125,0.21875
239,1727056409390,0.11425781,-0.9939575,0.11029053,0.65625,-0.734375,0.15625
240,1727056409441,0.115234375,-0.98883057,0.09710693,0.53125,-0.875,0.203125
241,1727056409472,0.10864258,-0.986145,0.11004639,0.015625,-0.828125,0.0625
242,1727056409523,0.119140625,-0.9854126,0.109558105,-0.03125,-1.296875,0.171875
243,1727056409553,0.119384766,-0.9968872,0.10003662,0.0625,-1.09375,0.25
244,1727056409585,0.11303711,-0.9812622,0.09637451,-0.109375,-0.671875,0.3125
245,1727056409636,0.12158203,-0.986145,0.105651855,-0.515625,-0.71875,0.46875
246,1727056409668,0.123291016,-0.98760986,0.10760498,-0.484375,-0.796875,0.03125
247,1727056409716,0.1159668,-0.9859009,0.10345459,0.0,-0.71875,0.296875
248,1727056409749,0.11230469,-0.9885864,0.105895996,-0.0625,-0.8125,0.140625
249,1727056409797,0.119628906,-0.9841919,0.10345459,-0.140625,-0.65625,0.15625
250,1727056409830,0.12011719,-0.989563,0.10443115,-0.171875,-1.09375,0.046875
251,1727056409862,0.125,-0.98321533,0.10076904,0.21875,-0.9375,0.015625
252,1727056409911,0.119384766,-0.98516846,0.10003662,-0.265625,-0.71875,0.125
253,1727056409944,0.12207031,-0.9873657,0.09490967,-0.234375,-1.625,-0.015625
254,1727056409991,0.11743164,-0.98687744,0.1161499,0.328125,-0.84375,-0.21875
255,1727056410024,0.119384766,-0.9793091,0.081726074,-0.65625,-1.640625,-0.03125
256,1727056410058,0.11010742,-0.99591064,0.12005615,0.171875,-1.3125,0.046875
257,1727056410107,0.123535156,-0.98321533,0.09857178,-0.078125,-1.171875,0.171875
258,1727056410140,0.107910156,-0.98931885,0.10223389,0.015625,-1.328125,-0.046875
259,1727056410189,0.11303711,-0.9898071,0.11102295,-0.03125,-1.078125,-0.265625
260,1727056410220,0.1159668,-0.9859009,0.105895996,-0.125,-1.46875,-0.140625
261,1727056410268,0.12548828,-0.9834595,0.10296631,-0.046875,-1.875,0.140625
262,1727056410302,0.11376953,-0.9902954,0.10736084,0.015625,-1.328125,0.03125
263,1727056410334,0.10888672,-0.9846802,0.10687256,-0.03125,-2.203125,0.28125
264,1727056410383,0.11254883,-0.9837036,0.0993042,0.15625,-2.0625,0.140625
265,1727056410416,0.11621094,-0.98565674,0.093933105,0.046875,-1.953125,0.09375
266,1727056410463,0.11791992,-0.9883423,0.10443115,0.1875,-1.421875,0.140625
267,1727056410498,0.11767578,-0.98760986,0.0993042,0.125,-1.03125,0.28125
268,1727056410530,0.11401367,-0.9883423,0.10223389,0.390625,-1.3125,0.484375
269,1727056410579,0.123046875,-0.98223877,0.101989746,0.515625,-0.84375,0.3125
270,1727056410610,0.12426758,-0.98883057,0.10491943,0.3125,-1.296875,0.421875
271,1727056410659,0.119140625,-1.0007935,0.09906006,-0.015625,-1.4375,0.46875
272,1727056410691,0.11401367,-0.98565674,0.109802246,0.0,-0.921875,0.328125
273,1727056410743,0.115722656,-0.98443604,0.093933105,-0.46875,-0.6875,0.234375
274,1727056410773,0.114990234,-0.9932251,0.09954834,-0.640625,-0.625,0.171875
275,1727056410805,0.11669922,-0.9915161,0.12445068,-0.296875,-0.328125,-0.0625
276,1727056410856,0.12451172,-0.99542236,0.08709717,-1.015625,-1.421875,-0.03125
277,1727056410887,0.11254883,-0.99176025,0.109558105,-0.609375,-1.25,0.0
278,1727056410938,0.12866211,-0.9837036,0.1083374,-0.6875,-1.171875,-0.125
279,1727056410968,0.118896484,-0.9898071,0.09979248,-0.96875,-0.625,-0.015625
280,1727056411001,0.106933594,-0.9812622,0.10369873,-0.671875,-0.84375,-0.015625
281,1727056411050,0.1171875,-0.986145,0.10296631,-0.75,0.0,-0.125
282,1727056411081,0.123535156,-0.986145,0.12176514,-0.4375,-0.6875,-0.40625
283,1727056411131,0.11376953,-0.9849243,0.11273193,-0.375,-1.125,-0.140625
284,1727056411162,0.11669922,-0.9795532,0.11395264,-0.015625,-1.5,-0.234375
285,1727056411211,0.12719727,-0.9817505,0.11834717,-0.203125,-2.453125,-0.078125
286,1727056411245,0.103027344,-0.9871216,0.10345459,-0.234375,-2.140625,0.15625
287,1727056411277,0.11206055,-0.9885864,0.105651855,0.25,-1.15625,0.21875
288,1727056411325,0.10961914,-0.98150635,0.11175537,0.28125,-0.140625,0.09375
289,1727056411359,0.1237793,-0.99053955,0.113464355,-0.03125,0.359375,-0.015625
290,1727056411411,0.1171875,-0.9907837,0.11395264,-0.09375,-0.578125,0.03125
291,1727056411440,0.11645508,-0.9871216,0.11126709,0.140625,-0.625,-0.03125
292,1727056411472,0.11401367,-0.9968872,0.113708496,0.015625,-0.5625,0.140625
293,1727056411520,0.119384766,-0.9883423,0.1071167,0.015625,-0.78125,-0.0625
294,1727056411553,0.12207031,-0.9859009,0.11053467,0.09375,-1.0,0.03125
295,1727056411601,0.11791992,-0.9885864,0.10394287,0.015625,-1.21875,0.1875
296,1727056411634,0.118896484,-0.97662354,0.098083496,0.359375,-1.8125,0.28125
297,1727056411682,0.107910156,-0.9924927,0.12738037,0.859375,-1.03125,0.171875
298,1727056411715,0.119384766,-0.99005127,0.08709717,-0.140625,-1.265625,0.1875
299,1727056411747,0.11621094,-0.9841919,0.121520996,-0.03125,-1.15625,0.078125
300,1727056411797,0.11254883,-0.99053955,0.10345459,0.25,-0.90625,0.15625
301,1727056411831,0.115234375,-0.99053955,0.10882568,-0.09375,-0.703125,0.140625
302,1727056411877,0.115478516,-0.98565674,0.109069824,-0.109375,-0.84375,-0.03125
303,1727056411912,0.12207031,-0.9902954,0.1005249,-0.109375,-0.359375,0.0625
304,1727056411943,0.1171875,-0.98638916,0.10882568,0.015625,-0.9375,0.09375
305,1727056411992,0.10961914,-0.986145,0.10809326,-0.140625,-0.609375,0.171875
306,1727056412023,0.119628906,-0.9890747,0.112976074,-0.0625,-0.484375,0.0
307,1727056412072,0.12133789,-0.9915161,0.10662842,-0.03125,-0.671875,0.078125
308,1727056412105,0.10986328,-0.98443604,0.10760498,-0.4375,-0.625,-0.046875
309,1727056412153,0.11401367,-0.9902954,0.11175537,-0.078125,-0.453125,-0.03125
310,1727056412186,0.119140625,-0.98760986,0.109802246,-0.171875,-0.640625,0.0625
311,1727056412219,0.11279297,-0.9873657,0.109802246,0.0,-0.546875,0.3125
312,1727056412267,0.11279297,-0.9885864,0.11175537,0.15625,-0.9375,0.09375
313,1727056412301,0.12158203,-0.98101807,0.105163574,0.0,-0.5625,0.078125
314,1727056412349,0.1171875,-0.98516846,0.11468506,0.15625,-1.34375,0.046875
315,1727056412381,0.114990234,-0.98760986,0.10662842,0.234375,-0.875,0.125
316,1727056412414,0.11328125,-0.99053955,0.11907959,0.15625,-1.171875,0.015625
317,1727056412462,0.119628906,-0.9849243,0.1083374,0.25,-1.171875,0.046875
318,1727056412495,0.115234375,-0.9849243,0.10809326,0.171875,-1.25,-0.0625
319,1727056412545,0.11230469,-0.9976196,0.121032715,0.34375,-0.359375,0.203125
320,1727056412576,0.12011719,-0.9920044,0.090270996,-0.3125,-1.4375,0.125
321,1727056412609,0.11303711,-0.99053955,0.11199951,-0.109375,-0.59375,0.078125
322,1727056412657,0.123291016,-0.9871216,0.1161499,-0.046875,-0.703125,0.171875
323,1727056412690,0.11987305,-0.9885864,0.10028076,0.015625,-1.1875,0.125
324,1727056412739,0.12036133,-0.986145,0.11273193,-0.078125,-0.734375,0.09375
325,1727056412773,0.10913086,-0.9902954,0.10809326,-0.046875,-0.859375,0.09375
326,1727056412819,0.119384766,-0.9854126,0.10784912,-0.109375,-0.734375,-0.21875
327,1727056412853,0.12084961,-0.986145,0.116882324,-0.28125,-1.21875,-0.265625
328,1727056412885,0.119384766,-0.99102783,0.11102295,-0.1875,-1.8125,0.015625
329,1727056412933,0.11450195,-0.99346924,0.11077881,0.078125,-1.5625,0.234375
330,1727056412967,0.1159668,-0.9873657,0.11077881,-0.03125,-1.796875,-0.015625
331,1727056413014,0.1105957,-0.9920044,0.105163574,0.015625,-0.921875,-0.25
332,1727056413048,0.11816406,-0.9885864,0.10662842,0.328125,-1.171875,0.015625
333,1727056413082,0.119628906,-0.9866333,0.105651855,-0.015625,-1.0,0.109375
334,1727056413128,0.114990234,-0.98883057,0.10638428,-0.046875,-0.890625,-0.046875
335,1727056413161,0.115478516,-0.98883057,0.11395264,-0.1875,-0.96875,-0.078125
336,1727056413210,0.111816406,-0.98883057,0.109558105,-0.265625,-0.34375,-0.09375
337,1727056413243,0.114990234,-0.9885864,0.10736084,-0.28125,-0.953125,-0.1875
338,1727056413292,0.118896484,-0.9924927,0.12298584,0.0625,-0.8125,-0.078125
339,1727056413326,0.11669922,-0.9824829,0.11541748,0.015625,-1.46875,0.046875
340,1727056413356,0.11669922,-0.9829712,0.10638428,0.234375,-1.8125,0.03125
341,1727056413405,0.10424805,-0.9924927,0.11663818,0.34375,-1.265625,0.109375
342,1727056413437,0.11376953,-0.9834595,0.08807373,0.03125,-1.921875,0.25
343,1727056413486,0.10424805,-0.987854,0.11810303,0.359375,-0.203125,0.140625
344,1727056413519,0.119384766,-0.98638916,0.10662842,-0.171875,-0.984375,0.125
345,1727056413550,0.103271484,-0.989563,0.105407715,0.1875,-0.5,0.203125
346,1727056413599,0.11743164,-0.98809814,0.10443115,0.015625,-0.609375,-0.046875
347,1727056413633,0.11328125,-0.98687744,0.1005249,0.28125,-0.125,0.09375
348,1727056413681,0.1105957,-0.9924927,0.10784912,0.09375,-0.65625,-0.03125
349,1727056413713,0.11206055,-0.9937134,0.10736084,0.078125,-0.34375,0.140625
350,1727056413762,0.11425781,-0.9859009,0.10784912,0.09375,-1.28125,0.0625
351,1727056413795,0.1105957,-0.98931885,0.10760498,0.296875,-1.390625,0.171875
352,1727056413830,0.11230469,-0.989563,0.09686279,0.234375,-1.234375,0.015625
353,1727056413876,0.11645508,-0.99224854,0.1083374,-0.296875,-0.96875,0.078125
354,1727056413910,0.10986328,-0.9871216,0.10394287,0.03125,-0.890625,-0.015625
355,1727056413958,0.10913086,-0.989563,0.105651855,-0.015625,-1.015625,-0.046875
356,1727056413989,0.1171875,-0.9846802,0.0993042,-0.125,-0.4375,-0.09375
357,1727056414023,0.114990234,-0.98150635,0.10296631,-0.328125,-1.296875,-0.140625
358,1727056414071,0.110839844,-0.9907837,0.10760498,-0.109375,-0.953125,0.0
359,1727056414105,0.11645508,-0.99298096,0.09954834,-0.03125,-0.875,0.078125
360,1727056414156,0.11352539,-0.9898071,0.10272217,-0.015625,-0.71875,-0.125
361,1727056414185,0.1159668,-0.9866333,0.10101318,-0.390625,-1.296875,-0.234375
362,1727056414234,0.103271484,-0.9885864,0.11859131,-0.15625,-0.453125,-0.140625
363,1727056414270,0.11450195,-0.9846802,0.093444824,-0.1875,-0.65625,-0.3125
364,1727056414298,0.10864258,-0.9890747,0.11077881,-0.8125,-0.140625,-0.046875
365,1727056414348,0.10595703,-0.98516846,0.109802246,-0.640625,-0.296875,-0.09375
366,1727056414380,0.11206055,-0.99420166,0.10443115,-0.3125,-0.4375,-0.015625
367,1727056414429,0.10864258,-0.98321533,0.1083374,-0.78125,0.078125,-0.1875
368,1727056414461,0.110839844,-0.9834595,0.105163574,-0.328125,-0.546875,-0.15625
369,1727056414494,0.10961914,-0.98760986,0.11590576,-0.234375,-0.296875,0.109375
370,1727056414543,0.115478516,-0.9871216,0.109313965,0.0,-0.140625,0.046875
371,1727056414575,0.114746094,-0.989563,0.10858154,-0.125,-0.28125,0.21875
372,1727056414624,0.11303711,-0.986145,0.11004639,0.109375,-0.21875,0.21875
373,1727056414657,0.10961914,-0.989563,0.11224365,0.09375,-0.421875,0.1875
374,1727056414704,0.115722656,-0.99176025,0.11126709,-0.015625,-0.3125,0.078125
375,1727056414737,0.103515625,-0.98321533,0.11151123,-0.546875,-0.671875,0.34375
376,1727056414770,0.096191406,-0.987854,0.094177246,0.328125,-0.0625,0.1875
377,1727056414818,0.12060547,-0.9841919,0.11053467,0.1875,-0.125,-0.078125
378,1727056414852,0.11254883,-0.9981079,0.105895996,0.109375,-0.515625,0.125
379,1727056414900,0.118896484,-0.9768677,0.10418701,-0.140625,-1.03125,0.0625
380,1727056414933,0.106933594,-0.99102783,0.10809326,0.234375,-0.9375,0.71875
381,1727056414965,0.11376953,-0.99005127,0.10736084,0.765625,-0.234375,0.21875
382,1727056415015,0.11743164,-0.9834595,0.11834717,-0.375,-0.140625,0.28125
383,1727056415046,0.109375,-1.0025024,0.11175537,0.0625,-0.8125,0.21875
384,1727056415095,0.119384766,-0.9834595,0.10491943,-0.828125,-0.40625,0.328125
385,1727056415127,0.12109375,-0.9907837,0.10003662,-0.75,-0.921875,0.21875
386,1727056415176,0.11401367,-0.98565674,0.11224365,-0.609375,-0.546875,-0.234375
387,1727056415210,0.12158203,-0.99005127,0.113708496,-1.078125,-1.390625,-0.125
388,1727056415244,0.10839844,-0.98760986,0.11444092,-0.65625,-2.140625,0.15625
389,1727056415290,0.10913086,-0.9866333,0.112976074,-0.21875,-1.796875,0.125
390,1727056415323,0.11669922,-0.9788208,0.11029053,-0.078125,-2.125,0.203125
391,1727056415371,0.11376953,-0.9898071,0.11151123,-0.234375,-2.4375,0.078125
392,1727056415404,0.12036133,-0.9920044,0.12030029,-0.28125,-1.203125,0.15625
393,1727056415436,0.11206055,-0.98931885,0.113220215,-0.625,-0.984375,0.203125
394,1727056415484,0.12426758,-0.9817505,0.117370605,-0.59375,-0.765625,0.203125
395,1727056415517,0.10864258,-0.98687744,0.11444092,-0.359375,-0.734375,0.328125
396,1727056415566,0.11303711,-0.98565674,0.11444092,0.03125,-0.4375,0.25
397,1727056415599,0.1081543,-0.9944458,0.11566162,0.21875,-0.453125,0.171875
398,1727056415647,0.118896484,-0.9883423,0.1149292,0.4375,-0.3125,-0.328125
399,1727056415679,0.12084961,-0.9915161,0.11859131,-0.015625,-0.3125,-0.265625
400,1727056415712,0.12084961,-0.987854,0.11102295,0.1875,-0.84375,-0.015625
401,1727056415762,0.11621094,-0.99224854,0.12054443,0.109375,-1.3125,0.203125
402,1727056415793,0.11816406,-0.98809814,0.11029053,-0.15625,-1.265625,0.25
403,1727056415842,0.12036133,-0.9883423,0.11517334,0.1875,-1.75,0.40625
404,1727056415874,0.115722656,-0.9837036,0.11419678,-0.296875,-1.03125,0.375
405,1727056415907,0.12011719,-0.9795532,0.124694824,0.265625,-2.03125,0.203125
406,1727056415955,0.106933594,-0.9973755,0.109069824,0.765625,-1.265625,0.203125
407,1727056415988,0.11450195,-0.9890747,0.105163574,0.078125,-1.453125,0.125
408,1727056416037,0.11816406,-0.98394775,0.121520996,-0.046875,-1.03125,0.015625
409,1727056416069,0.11279297,-0.9920044,0.11566162,0.6875,-0.40625,0.015625
410,1727056416118,0.11328125,-0.98883057,0.11419678,0.3125,-0.890625,-0.03125
411,1727056416150,0.119140625,-0.99176025,0.11224365,0.1875,-0.53125,-0.109375
412,1727056416183,0.12792969,-0.98638916,0.10784912,0.03125,-1.25,0.234375
413,1727056416232,0.115478516,-0.9885864,0.11419678,-0.203125,-1.53125,0.453125
414,1727056416265,0.11621094,-0.98516846,0.10662842,0.015625,-0.8125,0.28125
415,1727056416314,0.122802734,-0.9873657,0.113464355,-0.109375,-0.953125,0.1875
416,1727056416346,0.115478516,-0.9841919,0.10614014,-0.28125,-1.171875,0.1875
417,1727056416379,0.11279297,-0.9902954,0.1005249,-0.1875,-1.390625,0.109375
418,1727056416427,0.11450195,-0.98809814,0.10809326,0.203125,-0.625,-0.125
419,1727056416460,0.12036133,-0.986145,0.11590576,0.078125,-0.59375,-0.046875
420,1727056416508,0.111572266,-0.98638916,0.109802246,-0.140625,-1.234375,0.03125
421,1727056416542,0.1105957,-0.98565674,0.117370605,0.296875,-1.09375,0.078125
422,1727056416591,0.10913086,-0.9976196,0.112976074,1.15625,-1.46875,0.234375
423,1727056416622,0.12060547,-0.9915161,0.097351074,-0.21875,-0.65625,0.078125
424,1727056416655,0.12036133,-0.9837036,0.11859131,-0.046875,-1.3125,0.203125
425,1727056416704,0.118896484,-0.989563,0.1149292,-0.03125,-1.046875,0.21875
426,1727056416737,0.11279297,-0.9807739,0.105407715,0.234375,-0.875,0.421875
427,1727056416785,0.1184082,-0.989563,0.11395264,0.1875,-0.84375,0.28125
428,1727056416817,0.122802734,-0.98883057,0.11590576,0.15625,-0.609375,0.203125
429,1727056416851,0.118896484,-0.98687744,0.10028076,0.03125,-0.40625,0.15625
430,1727056416898,0.12109375,-0.9873657,0.11590576,-0.046875,-1.0625,0.296875
431,1727056416931,0.11450195,-0.98638916,0.10638428,0.5625,-0.953125,0.109375
432,1727056416979,0.11645508,-0.98687744,0.1071167,0.265625,-0.875,-0.046875
433,1727056417012,0.12231445,-0.9829712,0.10003662,0.03125,-1.0625,-0.15625
434,1727056417095,0.11791992,-0.9890747,0.101989746,0.296875,-0.703125,-0.078125
435,1727056417110,0.12036133,-0.98443604,0.11199951,0.15625,-1.140625,-0.03125
436,1727056417126,0.114746094,-0.9890747,0.10809326,0.296875,-1.359375,-0.234375
437,1727056417175,0.12841797,-0.9866333,0.105163574,0.609375,-1.484375,-0.171875
438,1727056417208,0.11035156,-0.9883423,0.113464355,0.46875,-1.4375,0.15625
439,1727056417255,0.11669922,-0.9854126,0.08831787,0.796875,-1.171875,-0.078125
440,1727056417289,0.12109375,-0.97784424,0.11859131,1.46875,-1.5625,-0.0625
441,1727056417322,0.111328125,-0.986145,0.08880615,-0.453125,-1.5,0.3125
442,1727056417370,0.103271484,-0.9949341,0.10369873,0.5625,-1.53125,-0.015625
443,1727056417406,0.11743164,-0.9807739,0.10760498,0.484375,-0.96875,0.078125
444,1727056417452,0.11206055,-0.9993286,0.10418701,-0.09375,-1.03125,0.0
445,1727056417483,0.119384766,-0.9873657,0.10784912,-0.234375,-0.609375,-0.15625
446,1727056417533,0.123291016,-0.9854126,0.109313965,-0.4375,-0.921875,0.203125
447,1727056417566,0.11791992,-0.989563,0.08758545,-0.609375,-0.90625,0.3125
448,1727056417599,0.11401367,-0.9939575,0.105895996,-0.9375,-1.203125,0.203125
449,1727056417647,0.118896484,-0.99053955,0.1071167,-0.75,-0.90625,0.3125
450,1727056417679,0.10913086,-0.98516846,0.10223389,-0.40625,-1.75,0.078125
451,1727056417728,0.11328125,-0.986145,0.10272217,-0.90625,-1.015625,0.046875
452,1727056417761,0.12207031,-0.97979736,0.109802246,-0.75,-1.4375,-0.15625
453,1727056417792,0.115234375,-0.98223877,0.113708496,-0.515625,-1.34375,0.0
454,1727056417844,0.11669922,-0.98394775,0.10443115,-0.421875,-1.3125,0.125
455,1727056417874,0.11279297,-0.9805298,0.11444092,0.0625,-0.984375,0.203125
456,1727056417923,0.11254883,-0.9846802,0.10638428,-0.46875,-0.46875,0.109375
457,1727056417955,0.11279297,-0.98321533,0.10760498,-0.28125,-1.1875,0.078125
458,1727056418004,0.111083984,-0.98760986,0.12884521,1.3125,-0.515625,-0.109375
459,1727056418038,0.12036133,-0.98638916,0.09173584,-0.40625,0.109375,-0.015625
460,1727056418068,0.1237793,-0.9817505,0.12786865,-0.796875,-0.71875,-0.046875
461,1727056418118,0.11328125,-0.98931885,0.1161499,-0.234375,-0.3125,0.25
462,1727056418150,0.11791992,-0.9885864,0.1071167,-0.4375,-0.265625,-0.015625
463,1727056418199,0.11669922,-0.986145,0.11639404,-0.421875,-0.484375,0.046875
464,1727056418231,0.12011719,-0.98516846,0.10296631,-0.109375,-0.984375,-0.15625
465,1727056418264,0.1171875,-0.98223877,0.11419678,-0.296875,-0.609375,-0.0625
466,1727056418313,0.115478516,-0.9841919,0.11273193,-0.1875,-0.84375,-0.015625
467,1727056418346,0.1184082,-0.98321533,0.113220215,0.21875,-1.4375,-0.09375
468,1727056418396,0.1027832,-0.9898071,0.117370605,0.46875,-1.28125,0.0
469,1727056418429,0.11816406,-0.9890747,0.10614014,0.359375,-1.015625,-0.1875
470,1727056418476,0.12060547,-0.98443604,0.117614746,0.109375,-0.234375,0.03125
471,1727056418507,0.1184082,-0.989563,0.11395264,-0.046875,-0.578125,-0.015625
472,1727056418541,0.11743164,-0.9846802,0.10687256,-0.609375,-0.359375,0.171875
473,1727056418589,0.114990234,-0.9915161,0.11151123,-0.140625,-0.53125,0.03125
474,1727056418621,0.1159668,-0.98760986,0.109069824,-0.109375,-0.03125,0.234375
475,1727056418669,0.10473633,-0.9944458,0.1005249,0.015625,-0.828125,0.046875
476,1727056418702,0.115478516,-0.99005127,0.1293335,0.5,0.125,-0.234375
477,1727056418736,0.12841797,-0.9805298,0.101501465,-0.625,-0.734375,-0.0625
478,1727056418783,0.115478516,-0.989563,0.11151123,-0.140625,-1.375,-0.078125
479,1727056418816,0.1237793,-0.987854,0.11566162,0.390625,-1.25,0.28125
480,1727056418864,0.1081543,-1.0046997,0.093444824,0.484375,-1.703125,0.453125
481,1727056418897,0.12133789,-0.9800415,0.117126465,0.203125,-1.0,0.265625
482,1727056418979,0.111572266,-0.99420166,0.11859131,-0.046875,-0.828125,0.359375
483,1727056418995,0.11669922,-0.9927368,0.10028076,0.484375,-1.296875,0.25
484,1727056419011,0.115722656,-0.98565674,0.11273193,0.578125,-0.515625,0.265625
485,1727056419060,0.115234375,-0.99468994,0.11004639,0.109375,-0.5,-0.03125
486,1727056419092,0.115234375,-0.99102783,0.11151123,0.34375,-0.8125,0.21875
487,1727056419141,0.12646484,-0.9793091,0.1083374,0.359375,-0.6875,0.109375
488,1727056419174,0.115234375,-0.9902954,0.105651855,0.328125,-0.9375,0.421875
489,1727056419208,0.1262207,-0.99053955,0.11102295,1.15625,-0.484375,0.328125
490,1727056419256,0.12060547,-0.98394775,0.10345459,0.5625,-0.984375,-0.046875
491,1727056419288,0.11425781,-0.98028564,0.10760498,-0.03125,-0.828125,0.015625
492,1727056419338,0.11791992,-0.9924927,0.09588623,-0.03125,-0.9375,0.09375
493,1727056419369,0.12426758,-0.9837036,0.109069824,-0.15625,-0.65625,-0.015625
494,1727056419417,0.11401367,-0.991272,0.09515381,0.078125,-1.234375,0.09375
495,1727056419450,0.1171875,-0.98394775,0.101989746,-0.359375,-0.9375,-0.046875
496,1727056419482,0.119140625,-0.9898071,0.10467529,0.015625,-0.171875,0.109375
497,1727056419531,0.11254883,-0.9859009,0.11224365,0.78125,-0.890625,-0.09375
498,1727056419563,0.12109375,-0.9924927,0.09100342,-0.359375,0.078125,0.0625
499,1727056419612,0.12524414,-0.9915161,0.11566162,0.25,-0.796875,-0.203125
500,1727056419645,0.11376953,-0.989563,0.0993042,0.25,-0.890625,0.140625
501,1727056419677,0.1159668,-0.9824829,0.10394287,0.25,-0.9375,-0.203125
502,1727056419726,0.111816406,-0.98687744,0.09661865,0.484375,-0.59375,0.0
503,1727056419758,0.11694336,-0.98101807,0.101745605,0.40625,-1.28125,-0.171875
504,1727056419807,0.11791992,-0.9859009,0.08685303,0.328125,-0.28125,0.015625
505,1727056419841,0.1184082,-0.98638916,0.101501465,0.15625,-0.5,-0.328125
506,1727056419888,0.11816406,-0.98028564,0.10345459,0.078125,-1.421875,0.171875
507,1727056419922,0.1105957,-0.99420166,0.08465576,0.484375,-1.578125,0.140625
508,1727056419955,0.10668945,-0.97906494,0.0914917,0.015625,-1.234375,0.484375
509,1727056420002,0.10229492,-1.0010376,0.09613037,0.53125,-0.25,0.171875
510,1727056420035,0.11816406,-0.9751587,0.10638428,-0.21875,0.28125,-0.3125
511,1727056420084,0.11694336,-0.99664307,0.10247803,-0.8125,0.0,-0.3125
512,1727056420118,0.12670898,-0.989563,0.10736084,-0.828125,-0.046875,-0.28125
513,1727056420148,0.12036133,-0.99224854,0.101257324,-0.578125,-0.875,0.0625
514,1727056420197,0.123046875,-0.9866333,0.10784912,-0.078125,-0.6875,0.1875
515,1727056420230,0.119140625,-0.98809814,0.09661865,-0.078125,-1.375,0.546875
516,1727056420279,0.118652344,-0.98931885,0.10296631,-0.234375,-1.3125,0.328125
517,1727056420312,0.11352539,-0.986145,0.07904053,-0.296875,-1.71875,0.328125
518,1727056420360,0.110839844,-0.98687744,0.10418701,0.171875,-1.46875,0.0
519,1727056420392,0.110839844,-0.9951782,0.10369873,-0.53125,-1.421875,-0.171875
520,1727056420427,0.111083984,-0.9807739,0.10760498,-0.328125,-1.484375,-0.125
521,1727056420475,0.107421875,-0.99053955,0.09466553,-0.015625,-1.078125,-0.109375
522,1727056420510,0.118652344,-0.98272705,0.10296631,-0.59375,-0.671875,-0.0625
523,1727056420555,0.10864258,-0.99053955,0.10345459,-0.25,-0.109375,-0.015625
524,1727056420587,0.111572266,-0.98321533,0.10614014,0.03125,-0.3125,-0.09375
525,1727056420620,0.12890625,-0.9837036,0.10028076,-0.46875,-0.359375,0.078125
526,1727056420669,0.11279297,-0.99591064,0.1005249,-0.765625,-1.203125,0.140625
527,1727056420701,0.1171875,-0.986145,0.10784912,-0.203125,-1.484375,0.203125
528,1727056420749,0.10986328,-0.99176025,0.109313965,-0.234375,-1.796875,0.25
529,1727056420782,0.107421875,-0.9834595,0.10736084,-0.0625,-1.359375,0.109375
530,1727056420831,0.111572266,-0.99005127,0.10467529,-0.296875,-1.09375,-0.140625
531,1727056420863,0.11669922,-0.9824829,0.10369873,-0.59375,-0.90625,-0.140625
532,1727056420896,0.10888672,-0.99102783,0.105651855,-0.734375,-0.28125,-0.03125
533,1727056420945,0.114990234,-0.9883423,0.10491943,-0.78125,-0.59375,0.046875
534,1727056420982,0.11376953,-0.98321533,0.11053467,-0.53125,-0.5,0.265625
535,1727056421026,0.114746094,-0.9890747,0.10662842,-0.328125,-0.28125,0.203125
536,1727056421059,0.115722656,-0.98516846,0.11419678,-0.328125,-0.546875,0.0
537,1727056421092,0.1184082,-0.9849243,0.11395264,-0.3125,-0.59375,0.171875
538,1727056421140,0.111572266,-0.98516846,0.113708496,-0.234375,-0.890625,0.03125
539,1727056421173,0.12207031,-0.9783325,0.11639404,0.171875,-1.203125,-0.015625
540,1727056421221,0.11621094,-0.9937134,0.12615967,0.140625,-1.171875,0.34375
541,1727056421253,0.114746094,-0.98321533,0.09320068,-0.140625,-1.1875,0.15625
542,1727056421287,0.12182617,-0.9968872,0.1227417,0.015625,-1.046875,0.046875
543,1727056421335,0.125,-0.9849243,0.11663818,-0.40625,-1.140625,0.203125
544,1727056421367,0.10986328,-0.9890747,0.10784912,-0.09375,-1.0,0.28125
545,1727056421416,0.11621094,-0.9859009,0.11224365,0.40625,-1.109375,0.125
546,1727056421448,0.12133789,-0.99005127,0.11151123,-0.03125,-1.015625,0.046875
547,1727056421497,0.115722656,-0.9883423,0.12298584,0.125,-1.6875,0.171875
548,1727056421529,0.106933594,-0.9898071,0.101257324,-0.21875,-1.203125,0.15625
549,1727056421611,0.106933594,-0.98443604,0.09124756,-0.046875,-1.03125,0.015625
550,1727056421628,0.115478516,-0.9800415,0.101989746,0.234375,-0.21875,-0.296875
551,1727056421643,0.12451172,-0.991272,0.10443115,-0.296875,-1.21875,-0.078125
552,1727056421692,0.122802734,-0.9841919,0.10296631,-0.015625,-1.15625,0.1875
553,1727056421725,0.11743164,-0.99102783,0.109802246,0.765625,-1.953125,0.21875
554,1727056421757,0.11743164,-0.9937134,0.113464355,0.265625,-1.171875,0.328125
555,1727056421807,0.111083984,-0.99664307,0.10760498,-0.265625,-0.921875,0.453125
556,1727056421838,0.11450195,-0.9805298,0.10662842,-0.171875,-0.796875,0.203125
557,1727056421887,0.11376953,-0.9871216,0.113220215,-0.265625,-0.421875,0.171875
558,1727056421924,0.11254883,-0.99176025,0.11248779,-0.28125,-0.890625,0.125
559,1727056421969,0.11254883,-0.9817505,0.11468506,0.03125,-1.078125,0.03125
560,1727056422001,0.115234375,-0.99346924,0.11004639,0.3125,-1.265625,-0.1875
561,1727056422034,0.123046875,-0.9834595,0.10491943,0.109375,-1.046875,-0.1875
562,1727056422083,0.11621094,-0.99102783,0.12005615,0.34375,-1.390625,-0.171875
563,1727056422115,0.11816406,-0.98883057,0.10784912,0.4375,-1.390625,0.140625
564,1727056422164,0.12182617,-0.9873657,0.1083374,-0.03125,-1.15625,0.171875
565,1727056422197,0.111572266,-0.99420166,0.10882568,-0.265625,-0.609375,0.125
566,1727056422229,0.118896484,-0.9885864,0.12298584,-0.4375,-0.71875,0.234375
567,1727056422278,0.10498047,-0.9890747,0.09539795,-0.03125,-0.546875,0.171875
568,1727056422310,0.11767578,-0.98223877,0.11224365,0.015625,-0.578125,-0.03125
569,1727056422360,0.11669922,-0.9854126,0.10321045,0.15625,-0.328125,-0.046875
570,1727056422392,0.115478516,-0.98760986,0.10101318,0.234375,-1.03125,0.015625
571,1727056422442,0.11621094,-0.98101807,0.10101318,0.3125,-0.921875,0.21875
572,1727056422472,0.11450195,-0.99713135,0.1071167,0.0,-0.53125,0.09375
573,1727056422507,0.12158203,-0.9885864,0.11663818,0.09375,-1.390625,-0.171875
574,1727056422553,0.1237793,-0.9951782,0.101501465,0.015625,-1.875,0.109375
575,1727056422586,0.119384766,-0.9849243,0.105163574,-0.125,-1.375,0.15625
576,1727056422635,0.109375,-0.987854,0.105163574,0.046875,-1.390625,0.296875
577,1727056422668,0.110839844,-0.9807739,0.0993042,-0.171875,-0.84375,0.1875
578,1727056422700,0.111816406,-0.9854126,0.11004639,0.0625,-1.203125,0.046875
579,1727056422748,0.115722656,-0.987854,0.109313965,0.0,-0.75,0.171875
580,1727056422781,0.11206055,-0.98638916,0.11273193,0.078125,-1.046875,0.03125
581,1727056422829,0.12084961,-0.97857666,0.10418701,0.078125,-1.453125,-0.171875
582,1727056422863,0.119628906,-0.99102783,0.109069824,-0.234375,-1.734375,0.0
583,1727056422911,0.12036133,-0.9873657,0.109313965,-0.6875,-2.015625,0.1875
584,1727056422944,0.11279297,-0.98272705,0.1083374,-0.296875,-1.953125,0.21875
585,1727056422976,0.114990234,-0.9871216,0.101257324,0.03125,-1.21875,-0.046875
586,1727056423024,0.11694336,-0.9780884,0.11077881,-0.125,-1.90625,-0.03125
587,1727056423059,0.11401367,-0.9951782,0.101257324,-0.3125,-1.25,0.109375
588,1727056423107,0.1184082,-0.9834595,0.1149292,0.03125,-1.234375,0.015625
589,1727056423138,0.11425781,-0.98687744,0.101257324,0.03125,-1.09375,0.0
590,1727056423171,0.11376953,-0.9907837,0.10467529,-0.015625,-0.890625,0.03125
591,1727056423236,0.11767578,-0.98931885,0.101745605,0.640625,-0.765625,0.015625
592,1727056423253,0.115234375,-0.9866333,0.10784912,0.4375,-0.34375,0.171875
593,1727056423301,0.11450195,-0.9859009,0.09832764,0.09375,-0.921875,0.265625
594,1727056423349,0.110839844,-0.987854,0.1071167,-0.171875,-0.921875,0.34375
595,1727056423383,0.1184082,-0.98516846,0.10443115,0.234375,-0.765625,0.171875
596,1727056423415,0.11645508,-0.9927368,0.10321045,0.3125,-0.6875,0.03125
597,1727056423447,0.122558594,-0.98638916,0.11029053,-0.109375,-0.78125,0.015625
598,1727056423496,0.11791992,-0.9866333,0.10858154,-0.078125,-0.890625,-0.09375
599,1727056423529,0.11987305,-0.9837036,0.105407715,-0.125,-0.921875,0.078125
600,1727056423577,0.118652344,-0.991272,0.109069824,-0.296875,-0.578125,0.171875
601,1727056423611,0.11669922,-0.987854,0.105163574,-0.1875,-0.609375,0.03125
602,1727056423644,0.115478516,-0.98516846,0.11151123,-0.328125,-0.984375,0.0
603,1727056423691,0.1159668,-0.98516846,0.11102295,-0.296875,-1.296875,0.1875
604,1727056423724,0.11401367,-0.987854,0.105651855,0.125,-1.359375,0.25
605,1727056423775,0.110839844,-0.9859009,0.097595215,0.046875,-1.078125,-0.015625
606,1727056423805,0.1184082,-0.9859009,0.097595215,0.03125,-1.046875,-0.046875
607,1727056423855,0.10449219,-0.98760986,0.117370605,0.953125,-0.671875,-0.046875
608,1727056423886,0.12939453,-0.98760986,0.08905029,-0.3125,-1.03125,0.09375
609,1727056423919,0.122558594,-0.98565674,0.12225342,-0.15625,-0.8125,0.0625
610,1727056423968,0.11328125,-0.99224854,0.10687256,-0.453125,-0.984375,0.234375
611,1727056424001,0.11450195,-0.9873657,0.101989746,-0.375,-0.84375,0.203125
612,1727056424049,0.118652344,-0.98223877,0.11004639,-0.3125,-0.671875,0.046875
613,1727056424081,0.11206055,-0.9890747,0.10272217,-0.40625,-0.609375,0.125
614,1727056424114,0.11279297,-0.9846802,0.10784912,-0.0625,-0.4375,0.078125
615,1727056424162,0.12182617,-0.989563,0.11590576,-0.09375,-0.375,0.0
616,1727056424195,0.11352539,-0.9920044,0.11126709,-0.25,-0.890625,0.0625
617,1727056424245,0.1081543,-0.9885864,0.10223389,0.09375,-0.546875,0.171875
618,1727056424276,0.12133789,-0.9890747,0.10858154,-0.21875,-1.09375,-0.078125
619,1727056424325,0.119384766,-0.9846802,0.11224365,-0.34375,-1.09375,-0.03125
620,1727056424357,0.12084961,-0.9871216,0.109558105,0.0625,-0.984375,0.234375
621,1727056424390,0.1262207,-0.9907837,0.11834717,-0.09375,-1.09375,0.203125
622,1727056424438,0.11279297,-0.99102783,0.11004639,-0.03125,-1.046875,0.0
623,1727056424472,0.11694336,-0.9805298,0.11517334,0.375,-1.140625,-0.109375
624,1727056424520,0.10986328,-0.9937134,0.10638428,0.03125,-0.546875,-0.15625
625,1727056424553,0.11376953,-0.9873657,0.11126709,0.578125,-0.40625,-0.0625
626,1727056424584,0.12402344,-0.98760986,0.11566162,0.046875,0.0625,-0.21875
627,1727056424633,0.11816406,-0.9944458,0.11517334,-0.09375,-0.453125,-0.234375
628,1727056424667,0.119628906,-0.98883057,0.10638428,-0.0625,-0.53125,-0.0625
629,1727056424715,0.114990234,-0.99176025,0.12689209,0.34375,-1.21875,0.125
630,1727056424747,0.103759766,-0.9890747,0.09100342,-0.890625,-1.3125,0.046875
631,1727056424797,0.1159668,-0.97906494,0.12005615,0.3125,-1.3125,0.046875
632,1727056424829,0.12158203,-0.9915161,0.10491943,0.0,-1.421875,-0.015625
633,1727056424861,0.110839844,-0.9873657,0.105895996,-0.046875,-1.375,-0.046875
634,1727056424909,0.12207031,-0.99005127,0.105895996,0.03125,-1.125,-0.09375
635,1727056424942,0.11352539,-0.99346924,0.11639404,0.046875,-1.125,0.015625
636,1727056424991,0.10668945,-0.98516846,0.109558105,0.046875,-1.1875,-0.1875
637,1727056425023,0.114990234,-0.98931885,0.11834717,-0.328125,-0.859375,0.078125
638,1727056425058,0.11425781,-0.98809814,0.1251831,-0.265625,-1.015625,0.171875
639,1727056425105,0.10571289,-0.989563,0.10736084,0.125,-0.96875,0.34375
640,1727056425138,0.10888672,-0.9924927,0.10369873,-0.046875,-0.765625,0.015625
641,1727056425186,0.11279297,-0.98809814,0.113464355,-0.265625,0.0625,0.15625
642,1727056425222,0.1171875,-0.99420166,0.10687256,-0.171875,-0.5625,-0.09375
643,1727056425268,0.11328125,-0.99102783,0.10882568,-0.25,-0.859375,-0.046875
644,1727056425302,0.12084961,-0.9883423,0.11834717,-0.109375,-1.546875,0.125
645,1727056425333,0.1184082,-0.98687744,0.10784912,-0.375,-1.234375,0.078125
646,1727056425381,0.11987305,-0.98516846,0.10418701,-0.484375,-1.3125,0.109375
647,1727056425413,0.107421875,-0.98516846,0.109313965,0.078125,-1.0625,0.203125
648,1727056425463,0.12109375,-0.987854,0.10858154,0.234375,-1.21875,-0.125
649,1727056425495,0.11645508,-0.9859009,0.12957764,0.09375,-2.0625,0.03125
650,1727056425528,0.10449219,-0.9854126,0.10272217,0.21875,-1.84375,0.15625
651,1727056425575,0.10131836,-0.98101807,0.10662842,0.96875,-1.5,0.265625
652,1727056425608,0.1105957,-0.99420166,0.10467529,0.125,0.484375,-0.171875
653,1727056425657,0.13598633,-0.97906494,0.12005615,-0.34375,-0.8125,-0.1875
654,1727056425690,0.12182617,-0.991272,0.113708496,-0.671875,-1.546875,0.234375
655,1727056425771,0.10620117,-0.99224854,0.109313965,-0.265625,-1.390625,0.375
656,1727056425788,0.10473633,-0.99713135,0.11102295,0.1875,-1.28125,0.453125
657,1727056425804,0.107421875,-0.986145,0.11785889,0.109375,-1.28125,-0.109375
658,1727056425852,0.10913086,-0.9819946,0.097595215,0.046875,-1.359375,0.09375
659,1727056425886,0.119628906,-0.98516846,0.10809326,0.140625,-1.3125,0.0
660,1727056425933,0.122802734,-0.98394775,0.11004639,0.203125,-0.921875,-0.078125
661,1727056425967,0.111083984,-0.9885864,0.10784912,-0.0625,-1.640625,0.15625
662,1727056425999,0.11303711,-0.9788208,0.1071167,0.046875,-1.34375,-0.03125
663,1727056426047,0.11035156,-0.98321533,0.10784912,0.3125,-0.796875,0.03125
664,1727056426081,0.12182617,-0.99420166,0.0993042,0.171875,-1.5,-0.09375
665,1727056426129,0.1171875,-0.99005127,0.11004639,-0.1875,-1.375,-0.1875
666,1727056426162,0.11450195,-0.987854,0.10345459,0.046875,-1.28125,-0.03125
667,1727056426243,0.10913086,-0.9907837,0.10687256,0.046875,-0.828125,-0.203125
668,1727056426260,0.10913086,-0.9937134,0.109069824,-0.03125,-0.640625,-0.125
669,1727056426274,0.11376953,-0.98883057,0.105895996,-0.1875,-0.71875,-0.046875
670,1727056426323,0.115722656,-0.9883423,0.101501465,-0.390625,-0.65625,0.03125
671,1727056426356,0.10839844,-0.9920044,0.12567139,0.46875,-0.84375,-0.125
672,1727056426404,0.12207031,-0.987854,0.0927124,-0.8125,-0.65625,-0.015625
673,1727056426438,0.11743164,-0.98272705,0.1161499,-0.609375,-0.75,0.046875
674,1727056426471,0.11645508,-0.9866333,0.11444092,0.03125,-1.40625,0.09375
675,1727056426520,0.111083984,-0.9885864,0.11126709,0.09375,-0.59375,0.15625
676,1727056426551,0.104003906,-0.991272,0.11468506,-0.25,-1.21875,0.046875
677,1727056426600,0.109375,-0.98394775,0.10028076,-0.015625,-0.453125,-0.21875
678,1727056426632,0.119140625,-0.9834595,0.11273193,-0.828125,-0.375,-0.109375
679,1727056426682,0.11254883,-0.99957275,0.11151123,-1.0,-0.875,0.21875
680,1727056426714,0.11425781,-0.98565674,0.1083374,0.046875,-0.796875,0.09375
681,1727056426746,0.1081543,-0.9902954,0.11029053,0.09375,-1.03125,0.40625
682,1727056426794,0.103271484,-0.991272,0.113220215,-0.265625,-0.9375,0.015625
683,1727056426827,0.11206055,-0.9780884,0.113708496,-0.171875,-0.484375,-0.140625
684,1727056426876,0.11621094,-0.9841919,0.12615967,0.03125,-0.796875,0.09375
685,1727056426910,0.10498047,-0.9939575,0.109802246,0.0,-0.390625,0.09375
686,1727056426942,0.114990234,-0.98223877,0.11444092,-0.0625,-0.984375,0.03125
687,1727056426991,0.10986328,-0.989563,0.11029053,-0.078125,-0.5,0.03125
688,1727056427025,0.111083984,-0.9885864,0.116882324,-0.046875,-0.765625,0.0
689,1727056427071,0.11010742,-0.9866333,0.11395264,-0.0625,-1.140625,0.171875
690,1727056427104,0.11450195,-0.98565674,0.109313965,-0.0625,-0.703125,0.265625
691,1727056427155,0.10229492,-0.99713135,0.12738037,0.546875,-0.765625,0.140625
692,1727056427185,0.11254883,-0.9829712,0.09613037,-0.359375,-1.046875,0.078125
693,1727056427218,0.114746094,-0.98687744,0.12445068,-0.203125,-0.96875,0.015625
694,1727056427266,0.10961914,-0.99176025,0.113708496,-0.40625,-0.375,-0.078125
695,1727056427302,0.11254883,-0.9859009,0.113708496,-0.078125,-0.96875,0.046875
696,1727056427349,0.11254883,-0.98760986,0.113464355,-0.125,-0.828125,-0.046875
697,1727056427380,0.11035156,-0.9937134,0.11224365,-0.25,-1.09375,0.09375
698,1727056427412,0.111572266,-0.98809814,0.10858154,-0.140625,-1.359375,0.09375
699,1727056427462,0.111572266,-0.9873657,0.12249756,0.03125,-1.078125,-0.03125
700,1727056427511,0.11352539,-0.99468994,0.1281128,-0.21875,-0.9375,0.03125
701,1727056427543,0.107177734,-0.9939575,0.11053467,-0.234375,-0.984375,0.015625
702,1727056427576,0.10961914,-0.9795532,0.112976074,-0.40625,-1.203125,-0.0625
703,1727056427656,0.115722656,-0.9859009,0.11126709,-0.125,-0.796875,-0.015625
704,1727056427673,0.111083984,-0.9805298,0.11810303,-0.015625,-1.03125,0.140625
705,1727056427689,0.11035156,-0.98321533,0.1149292,-0.09375,-1.171875,0.0625
706,1727056427738,0.10644531,-0.989563,0.11248779,0.078125,-0.953125,0.0
707,1727056427770,0.10839844,-0.9849243,0.12298584,0.03125,-1.125,0.078125
708,1727056427819,0.107666016,-0.9932251,0.10784912,-0.234375,-0.90625,0.0
709,1727056427854,0.11791992,-0.98883057,0.105407715,0.15625,-1.0625,-0.046875
710,1727056427885,0.099609375,-0.9907837,0.1293335,1.21875,-0.828125,-0.078125
711,1727056427932,0.11767578,-0.99224854,0.09295654,-0.21875,-1.15625,-0.015625
712,1727056427965,0.11206055,-0.9927368,0.13226318,0.359375,-1.015625,0.109375
713,1727056428014,0.111572266,-0.99053955,0.11419678,-0.234375,-0.890625,0.015625
714,1727056428046,0.11035156,-0.98565674,0.109069824,-0.21875,-1.28125,0.0
715,1727056428096,0.103515625,-0.99053955,0.11810303,-0.046875,-1.265625,0.09375
716,1727056428129,0.1081543,-0.9902954,0.105651855,0.078125,-0.796875,-0.171875
717,1727056428160,0.10913086,-0.98565674,0.109802246,0.0,-1.03125,-0.015625
718,1727056428209,0.111328125,-0.99224854,0.11932373,-0.34375,-0.84375,0.0
719,1727056428241,0.11425781,-0.98931885,0.11175537,0.015625,-0.6875,0.1875
720,1727056428290,0.10180664,-0.98394775,0.10638428,0.09375,-0.796875,0.078125
721,1727056428323,0.11694336,-0.9902954,0.105651855,-0.234375,-1.234375,0.0
722,1727056428356,0.10644531,-0.99591064,0.11663818,-0.015625,-0.3125,0.046875
723,1727056428404,0.114746094,-0.9824829,0.112976074,-0.109375,-1.09375,0.171875
724,1727056428436,0.111572266,-0.98321533,0.11932373,-0.171875,-1.03125,0.28125
725,1727056428485,0.11401367,-0.98150635,0.113220215,0.15625,-1.1875,0.171875
726,1727056428518,0.1184082,-0.9854126,0.109558105,0.203125,-1.078125,0.171875
727,1727056428566,0.11254883,-0.9890747,0.11932373,-0.03125,-1.4375,0.015625
728,1727056428598,0.12084961,-0.9817505,0.10443115,-0.015625,-0.765625,0.09375
729,1727056428632,0.11206055,-0.98931885,0.1227417,0.25,-1.90625,-0.140625
730,1727056428680,0.111816406,-0.99176025,0.11199951,-0.09375,-0.5625,0.03125
731,1727056428712,0.11767578,-0.98883057,0.12786865,0.0,-1.734375,0.171875
732,1727056428761,0.10913086,-0.9854126,0.10491943,-0.3125,-1.5,0.15625
733,1727056428793,0.11230469,-0.986145,0.11541748,-0.046875,-0.96875,0.1875
734,1727056428827,0.11279297,-0.98687744,0.11175537,-0.03125,-1.046875,0.078125
735,1727056428875,0.11254883,-0.98565674,0.11248779,0.078125,-0.9375,0.234375
736,1727056428908,0.103027344,-0.987854,0.11175537,0.0,-0.53125,0.140625
737,1727056428956,0.10913086,-0.98150635,0.11639404,0.21875,-0.9375,0.125
738,1727056428991,0.118896484,-0.9898071,0.10662842,0.359375,-0.578125,0.171875
739,1727056429041,0.11425781,-0.98809814,0.10491943,0.46875,-1.046875,0.140625
740,1727056429070,0.11816406,-0.9883423,0.11175537,0.4375,-0.375,0.109375
741,1727056429104,0.11669922,-0.9961548,0.117614746,0.140625,-0.84375,0.046875
742,1727056429151,0.103759766,-0.98883057,0.11395264,0.25,-0.84375,0.234375
743,1727056429183,0.11669922,-0.986145,0.11077881,0.703125,-0.9375,0.0
744,1727056429232,0.11694336,-0.99346924,0.10345459,0.21875,-0.59375,0.25
745,1727056429281,0.109375,-0.9837036,0.11151123,0.0625,-1.203125,0.140625
746,1727056429298,0.10644531,-0.98760986,0.11444092,0.03125,-0.453125,0.03125
747,1727056429346,0.119384766,-0.98809814,0.10028076,-0.078125,-0.9375,0.0
748,1727056429379,0.11645508,-0.98809814,0.11444092,-0.0625,-0.796875,0.046875
749,1727056429428,0.115234375,-0.98565674,0.11468506,-0.5,-1.140625,0.078125
750,1727056429461,0.09790039,-0.99713135,0.10809326,-0.3125,-1.125,0.25
751,1727056429509,0.10668945,-0.9902954,0.11810303,-0.34375,-0.90625,0.046875
752,1727056429543,0.107177734,-0.99053955,0.11468506,-0.984375,-0.421875,0.109375
753,1727056429573,0.111328125,-0.99420166,0.11517334,-0.640625,-0.796875,0.1875
754,1727056429624,0.11669922,-0.99224854,0.11273193,-0.734375,-0.359375,-0.078125
755,1727056429655,0.10913086,-0.9834595,0.11444092,-0.859375,-0.515625,-0.15625
756,1727056429705,0.10620117,-0.9915161,0.11175537,-0.375,-0.59375,0.09375
757,1727056429736,0.10668945,-0.9824829,0.109802246,-0.46875,-1.078125,-0.03125
758,1727056429769,0.11328125,-0.9932251,0.11199951,-0.578125,-0.109375,-0.015625
759,1727056429817,0.11791992,-0.986145,0.124694824,-0.328125,-0.875,-0.1875
