,Unnamed: 0,timestamp,accel_x,accel_y,accel_z,gyro_x,gyro_y,gyro_z
0,0,1727708427834,-0.15625,-0.94415283,0.39007568,-1.375,-0.625,-0.578125
1,1,1727708427874,-0.15722656,-0.94610596,0.39398193,-1.484375,-0.640625,-0.640625
2,2,1727708427914,-0.17700195,-0.93536377,0.3920288,-1.609375,-0.125,-0.890625
3,3,1727708427954,-0.15698242,-0.9492798,0.40740967,-0.75,0.015625,-0.640625
4,4,1727708427994,-0.16821289,-0.93927,0.39007568,-1.09375,-0.0625,-0.703125
5,5,1727708428034,-0.16601562,-0.94659424,0.39666748,-1.828125,0.03125,-0.515625
6,6,1727708428074,-0.15917969,-0.93218994,0.40863037,-0.28125,-0.234375,-1.015625
7,7,1727708428114,-0.17163086,-0.942688,0.39666748,-1.234375,-0.75,0.21875
8,8,1727708428154,-0.15771484,-0.9378052,0.39276123,-4.390625,0.515625,-1.359375
9,9,1727708428194,-0.1706543,-0.93878174,0.42279053,-1.421875,-0.984375,-0.890625
10,10,1727708428234,-0.16723633,-0.9348755,0.40716553,-0.109375,0.109375,-0.71875
11,11,1727708428274,-0.16186523,-0.9414673,0.41448975,-1.359375,0.453125,-0.140625
12,12,1727708428314,-0.16821289,-0.944397,0.40985107,0.171875,-0.90625,-0.4375
13,13,1727708428354,-0.16333008,-0.9360962,0.4069214,0.265625,-1.140625,0.15625
14,14,1727708428394,-0.15136719,-0.9324341,0.40447998,-1.171875,-0.5,-0.34375
15,15,1727708428434,-0.18066406,-0.94122314,0.4171753,0.53125,-0.21875,-0.34375
16,16,1727708428474,-0.17529297,-0.9290161,0.4069214,0.4375,-0.578125,-0.25
17,17,1727708428514,-0.15527344,-0.93341064,0.40423584,-0.109375,-0.078125,-0.3125
18,18,1727708428554,-0.16821289,-0.940979,0.41253662,-0.703125,-0.578125,-0.15625
19,19,1727708428594,-0.17285156,-0.9373169,0.41375732,-0.625,-0.5625,-0.234375
20,20,1727708428634,-0.17773438,-0.9331665,0.41082764,0.546875,-0.078125,-0.40625
21,21,1727708428674,-0.1652832,-0.93878174,0.41204834,-0.609375,-0.203125,-0.1875
22,22,1727708428714,-0.16577148,-0.9326782,0.4069214,-1.0625,-0.046875,-0.234375
23,23,1727708428754,-0.16894531,-0.9360962,0.42010498,0.28125,-0.0625,-0.140625
24,24,1727708428794,-0.16967773,-0.93927,0.40594482,-0.546875,-0.640625,0.015625
25,25,1727708428834,-0.1574707,-0.9356079,0.40789795,-2.984375,-0.21875,-0.609375
26,26,1727708428874,-0.17749023,-0.9429321,0.42303467,-0.125,-0.734375,-0.015625
27,27,1727708428914,-0.1586914,-0.92926025,0.4130249,-0.34375,-0.390625,-0.296875
28,28,1727708428954,-0.16894531,-0.9404907,0.4171753,-0.625,-0.328125,-0.546875
29,29,1727708428994,-0.17138672,-0.93341064,0.4179077,1.0625,-0.3125,-0.0625
30,30,1727708429034,-0.15576172,-0.9260864,0.41229248,0.1875,-0.71875,-0.0625
31,31,1727708429074,-0.17236328,-0.9312134,0.4159546,-0.75,-0.59375,-0.296875
32,32,1727708429114,-0.17553711,-0.93585205,0.42352295,0.640625,-0.171875,-0.09375
33,33,1727708429154,-0.1640625,-0.9302368,0.41204834,0.03125,-0.28125,-0.046875
34,34,1727708429194,-0.15942383,-0.9299927,0.41107178,-0.078125,-0.296875,-0.25
35,35,1727708429234,-0.16674805,-0.9446411,0.4147339,-0.046875,-0.6875,0.03125
36,36,1727708429274,-0.16235352,-0.93414307,0.4142456,-0.265625,-0.234375,0.125
37,37,1727708429314,-0.16918945,-0.9360962,0.41204834,-0.015625,-0.4375,-0.03125
38,38,1727708429354,-0.1616211,-0.93829346,0.41571045,0.171875,-0.515625,0.046875
39,39,1727708429394,-0.17260742,-0.9338989,0.40838623,0.0,-0.609375,0.21875
40,40,1727708429434,-0.16503906,-0.9336548,0.42669678,1.515625,-0.53125,-0.046875
41,41,1727708429474,-0.17797852,-0.9404907,0.40179443,1.28125,-0.546875,0.90625
42,42,1727708429514,-0.14819336,-0.9307251,0.3991089,-2.265625,0.6875,-0.609375
43,43,1727708429554,-0.16699219,-0.9378052,0.42352295,-0.09375,-1.296875,0.15625
44,44,1727708429594,-0.1706543,-0.9343872,0.4100952,0.296875,0.0625,-0.34375
45,45,1727708429634,-0.16430664,-0.9385376,0.41522217,-0.796875,-0.234375,0.015625
46,46,1727708429674,-0.16674805,-0.94317627,0.41107178,0.8125,-0.3125,-0.328125
47,47,1727708429714,-0.16040039,-0.9348755,0.4052124,0.96875,-0.96875,0.109375
48,48,1727708429754,-0.16088867,-0.93951416,0.41082764,-0.34375,-0.25,-0.328125
49,49,1727708429794,-0.17089844,-0.94000244,0.41766357,0.984375,0.09375,-0.453125
50,50,1727708429834,-0.16894531,-0.9378052,0.39886475,1.09375,0.0625,0.15625
51,51,1727708429874,-0.16064453,-0.93951416,0.40179443,0.40625,0.015625,0.015625
52,52,1727708429914,-0.15893555,-0.93707275,0.4088745,0.515625,-0.359375,0.171875
53,53,1727708429954,-0.16577148,-0.9439087,0.40374756,0.546875,0.15625,-0.21875
54,54,1727708429994,-0.1616211,-0.9373169,0.40985107,0.625,0.0625,-0.171875
55,55,1727708430034,-0.16455078,-0.9365845,0.4052124,1.25,-0.28125,-0.0625
56,56,1727708430074,-0.16357422,-0.9446411,0.40081787,0.65625,0.3125,-0.109375
57,57,1727708430114,-0.16259766,-0.9495239,0.3973999,0.328125,-0.09375,0.015625
58,58,1727708430154,-0.15258789,-0.9299927,0.416687,1.375,0.109375,-0.65625
59,59,1727708430194,-0.1743164,-0.9512329,0.38885498,0.640625,-0.375,0.484375
60,60,1727708430234,-0.14550781,-0.93756104,0.39007568,-1.875,0.9375,-0.671875
61,61,1727708430274,-0.17529297,-0.944397,0.42108154,-0.3125,-0.09375,-0.59375
62,62,1727708430314,-0.15991211,-0.94195557,0.39569092,1.234375,0.96875,-0.328125
63,63,1727708430354,-0.15551758,-0.9351196,0.3908081,-0.09375,-0.265625,-0.4375
64,64,1727708430394,-0.16308594,-0.9456177,0.40057373,0.625,-0.390625,-0.5
65,65,1727708430434,-0.16210938,-0.9421997,0.39569092,0.6875,-0.53125,0.015625
66,66,1727708430474,-0.14990234,-0.9417114,0.39886475,0.046875,0.390625,-0.515625
67,67,1727708430514,-0.16113281,-0.942688,0.39398193,1.125,0.09375,-0.375
68,68,1727708430554,-0.15356445,-0.9483032,0.39056396,-0.640625,0.140625,-0.59375
69,69,1727708430594,-0.15771484,-0.9421997,0.39935303,-0.09375,0.515625,-0.640625
70,70,1727708430634,-0.15600586,-0.94317627,0.39349365,-2.40625,1.03125,-0.40625
71,71,1727708430674,-0.15722656,-0.9356079,0.4039917,-0.890625,1.984375,-0.671875
72,72,1727708430714,-0.1821289,-0.9456177,0.40301514,0.859375,-0.234375,-0.3125
73,73,1727708430754,-0.15576172,-0.9505005,0.39154053,1.4375,-0.78125,0.546875
74,74,1727708430794,-0.15063477,-0.94366455,0.39031982,0.390625,0.4375,-0.53125
75,75,1727708430834,-0.16113281,-0.9517212,0.39520264,1.015625,0.296875,-0.21875
76,76,1727708430874,-0.15429688,-0.9324341,0.40863037,2.109375,-0.015625,-0.234375
77,77,1727708430914,-0.15698242,-0.9434204,0.38494873,-1.78125,-0.171875,0.25
78,78,1727708430954,-0.15551758,-0.9390259,0.3859253,-1.359375,0.328125,-0.875
79,79,1727708430994,-0.16699219,-0.9380493,0.40179443,-0.453125,-0.609375,-0.21875
80,80,1727708431034,-0.15527344,-0.94317627,0.40350342,-0.390625,0.421875,-0.9375
81,81,1727708431074,-0.15673828,-0.93829346,0.39300537,-0.109375,0.0625,-0.21875
82,82,1727708431114,-0.16040039,-0.94244385,0.39349365,0.3125,-0.609375,-0.15625
83,83,1727708431154,-0.1694336,-0.9421997,0.39764404,0.140625,-1.296875,-0.234375
84,84,1727708431194,-0.15991211,-0.9414673,0.39227295,-0.890625,-0.046875,-0.71875
85,85,1727708431234,-0.15966797,-0.95098877,0.39178467,-0.5,-0.984375,-0.4375
86,86,1727708431274,-0.16259766,-0.9365845,0.39642334,-1.0625,-1.203125,-0.71875
87,87,1727708431314,-0.16357422,-0.9417114,0.39544678,-0.90625,0.0,-0.671875
88,88,1727708431354,-0.15966797,-0.9483032,0.39886475,-0.671875,-0.84375,-0.578125
89,89,1727708431394,-0.16088867,-0.93585205,0.4003296,-0.84375,-0.609375,-0.53125
90,90,1727708431434,-0.16381836,-0.9495239,0.39788818,-0.65625,-0.1875,-0.40625
91,91,1727708431474,-0.16455078,-0.9414673,0.3986206,-0.765625,-0.953125,-0.21875
92,92,1727708431514,-0.16088867,-0.9373169,0.402771,-1.328125,-0.640625,-0.171875
93,93,1727708431554,-0.17041016,-0.94366455,0.38909912,-1.15625,-0.78125,0.03125
94,94,1727708431594,-0.15893555,-0.928772,0.41204834,-0.25,-1.359375,0.03125
95,95,1727708431634,-0.17089844,-0.95318604,0.38885498,-2.96875,-1.109375,0.09375
96,96,1727708431674,-0.15527344,-0.94195557,0.40423584,-3.71875,-0.171875,-1.203125
97,97,1727708431714,-0.1772461,-0.93218994,0.42718506,0.46875,-1.03125,-0.03125
98,98,1727708431754,-0.16821289,-0.9360962,0.41204834,0.234375,-0.109375,-0.34375
99,99,1727708431794,-0.15966797,-0.9351196,0.41497803,-1.609375,0.109375,-0.671875
100,100,1727708431834,-0.17138672,-0.9385376,0.41815186,-0.375,0.078125,-0.78125
101,101,1727708431874,-0.16235352,-0.93829346,0.41571045,0.0625,-0.984375,-0.21875
102,102,1727708431914,-0.16210938,-0.9351196,0.40960693,-1.921875,-0.53125,-0.46875
103,103,1727708431954,-0.18017578,-0.9360962,0.41497803,-0.34375,-0.65625,-0.484375
104,104,1727708431994,-0.1640625,-0.93634033,0.41033936,0.078125,-0.453125,-0.0625
105,105,1727708432034,-0.16845703,-0.93829346,0.41375732,-0.578125,-0.28125,-0.46875
106,106,1727708432074,-0.1730957,-0.9351196,0.41278076,0.0625,-0.40625,-0.078125
107,107,1727708432114,-0.1730957,-0.93707275,0.40789795,-0.78125,0.078125,-0.296875
108,108,1727708432154,-0.16577148,-0.93829346,0.41619873,-0.3125,0.4375,-0.390625
109,109,1727708432194,-0.1706543,-0.9404907,0.41864014,0.421875,-0.0625,-0.40625
110,110,1727708432234,-0.17138672,-0.9373169,0.40911865,-0.484375,0.15625,-0.0625
111,111,1727708432274,-0.16723633,-0.94000244,0.4052124,-0.4375,-0.078125,0.046875
112,112,1727708432314,-0.1586914,-0.93218994,0.42108154,0.421875,-0.53125,-0.171875
113,113,1727708432354,-0.1809082,-0.9373169,0.41375732,0.1875,-0.875,0.21875
114,114,1727708432394,-0.15161133,-0.9368286,0.4015503,-4.3125,0.3125,-1.046875
115,115,1727708432434,-0.17211914,-0.92852783,0.43914795,-1.0,-1.328125,-0.140625
116,116,1727708432474,-0.17333984,-0.9365845,0.418396,1.140625,-0.21875,0.21875
117,117,1727708432514,-0.1640625,-0.928772,0.41815186,-0.21875,0.515625,-0.25
118,118,1727708432554,-0.16870117,-0.93878174,0.418396,0.234375,-0.1875,-0.234375
119,119,1727708432594,-0.16796875,-0.9331665,0.41864014,0.859375,-0.578125,0.3125
120,120,1727708432634,-0.16601562,-0.9331665,0.41204834,-1.09375,-0.328125,-0.3125
121,121,1727708432674,-0.16772461,-0.9390259,0.42034912,0.375,-0.203125,-0.34375
122,122,1727708432714,-0.16894531,-0.93096924,0.41571045,0.8125,-0.390625,0.0625
123,123,1727708432754,-0.16113281,-0.9324341,0.41400146,-0.46875,0.125,-0.578125
124,124,1727708432794,-0.16235352,-0.9319458,0.4130249,0.875,-0.234375,0.0
125,125,1727708432834,-0.171875,-0.940979,0.41131592,-0.203125,-0.1875,-0.203125
126,126,1727708432874,-0.1665039,-0.9324341,0.41741943,0.046875,-0.328125,-0.203125
127,127,1727708432914,-0.1640625,-0.94488525,0.41204834,0.203125,-0.359375,0.140625
128,128,1727708432954,-0.16357422,-0.9314575,0.41448975,0.625,-0.28125,-0.0625
129,129,1727708432994,-0.16748047,-0.9402466,0.4179077,-0.21875,-0.359375,-0.03125
130,130,1727708433034,-0.16333008,-0.9417114,0.41131592,-0.3125,-0.484375,0.109375
131,131,1727708433074,-0.15576172,-0.9260864,0.41619873,0.84375,-0.359375,-0.53125
132,132,1727708433114,-0.17138672,-0.9446411,0.41351318,1.421875,-0.359375,0.171875
133,133,1727708433154,-0.14648438,-0.9351196,0.39813232,-2.09375,-0.234375,-0.390625
134,134,1727708433194,-0.16430664,-0.9338989,0.42352295,-1.078125,-0.796875,-0.203125
135,135,1727708433234,-0.17163086,-0.9414673,0.41351318,0.546875,-0.484375,0.4375
136,136,1727708433274,-0.15258789,-0.9246216,0.4171753,-0.125,-0.40625,0.09375
137,137,1727708433314,-0.1640625,-0.94610596,0.4052124,-0.359375,-0.5625,0.125
138,138,1727708433354,-0.17114258,-0.93878174,0.41522217,0.828125,-0.859375,0.375
139,139,1727708433394,-0.14990234,-0.928772,0.4093628,0.53125,-0.625,-0.125
140,140,1727708433434,-0.17529297,-0.9397583,0.41326904,-0.125,-0.53125,-0.078125
141,141,1727708433474,-0.16503906,-0.9385376,0.41229248,1.4375,-0.671875,0.109375
142,142,1727708433514,-0.15258789,-0.9390259,0.40374756,0.640625,0.0625,0.296875
143,143,1727708433554,-0.16235352,-0.94122314,0.40740967,1.015625,-0.171875,-0.265625
144,144,1727708433594,-0.16674805,-0.942688,0.40301514,0.921875,-0.140625,0.078125
145,145,1727708433634,-0.1628418,-0.93878174,0.40301514,0.59375,0.328125,-0.453125
146,146,1727708433674,-0.17138672,-0.9446411,0.40545654,0.25,-0.234375,-0.1875
147,147,1727708433714,-0.15698242,-0.9348755,0.3986206,-1.03125,0.328125,-0.78125
148,148,1727708433754,-0.15161133,-0.94366455,0.4100952,0.53125,0.328125,-0.390625
149,149,1727708433794,-0.17114258,-0.93927,0.40301514,1.375,-0.171875,0.0
150,150,1727708433834,-0.15307617,-0.9356079,0.39788818,0.875,-0.0625,0.25
151,151,1727708433874,-0.16455078,-0.9434204,0.41278076,1.125,-0.125,0.109375
152,152,1727708433914,-0.15942383,-0.93414307,0.40301514,2.703125,-0.15625,0.265625
153,153,1727708433954,-0.1508789,-0.9529419,0.3866577,1.171875,0.5625,0.765625
154,154,1727708433994,-0.14648438,-0.9451294,0.39300537,-2.140625,0.90625,-0.296875
155,155,1727708434034,-0.16894531,-0.93927,0.40863037,-0.4375,-0.28125,0.109375
156,156,1727708434074,-0.15161133,-0.9404907,0.3925171,0.15625,0.609375,-0.546875
157,157,1727708434114,-0.16015625,-0.9348755,0.40350342,-0.53125,0.109375,-0.46875
158,158,1727708434154,-0.15576172,-0.944397,0.39666748,-0.375,-0.3125,-0.1875
159,159,1727708434194,-0.16137695,-0.9578247,0.3961792,0.984375,-0.765625,0.359375
160,160,1727708434234,-0.14331055,-0.9302368,0.39666748,0.453125,-0.671875,0.0
161,161,1727708434274,-0.16088867,-0.9500122,0.39007568,-0.65625,-0.796875,-0.25
162,162,1727708434314,-0.1484375,-0.93536377,0.39276123,-0.03125,-0.921875,-0.203125
163,163,1727708434354,-0.15722656,-0.94903564,0.4015503,-0.703125,-0.640625,0.0625
164,164,1727708434394,-0.15673828,-0.94488525,0.39178467,0.40625,-0.515625,-0.171875
165,165,1727708434434,-0.16137695,-0.9439087,0.40130615,0.40625,0.28125,-0.203125
166,166,1727708434474,-0.1616211,-0.94659424,0.3973999,0.359375,-0.375,-0.046875
167,167,1727708434514,-0.15405273,-0.94244385,0.3883667,0.171875,-0.328125,-0.09375
168,168,1727708434554,-0.15161133,-0.9475708,0.39593506,0.171875,-0.234375,-0.109375
169,169,1727708434594,-0.16357422,-0.9380493,0.3925171,0.296875,-0.203125,-0.28125
170,170,1727708434634,-0.15234375,-0.94610596,0.39520264,-0.359375,0.28125,-0.46875
171,171,1727708434674,-0.1628418,-0.9390259,0.39031982,-1.140625,-0.3125,-0.609375
172,172,1727708434714,-0.15893555,-0.9480591,0.38690186,-1.875,0.0625,-0.4375
173,173,1727708434754,-0.16210938,-0.9456177,0.38323975,-1.421875,0.671875,-0.421875
174,174,1727708434794,-0.15893555,-0.9487915,0.39105225,-3.015625,0.953125,-0.5625
175,175,1727708434834,-0.1574707,-0.9319458,0.4069214,-3.1875,-0.09375,-0.640625
176,176,1727708434874,-0.1616211,-0.9402466,0.42767334,-0.875,-0.234375,0.046875
177,177,1727708434914,-0.14819336,-0.9302368,0.40203857,0.140625,-0.9375,-0.0625
178,178,1727708434954,-0.15014648,-0.9487915,0.3991089,-1.4375,-0.375,-0.265625
179,179,1727708434994,-0.15649414,-0.94122314,0.41253662,-0.5625,-1.140625,-0.1875
180,180,1727708435034,-0.15673828,-0.93170166,0.40716553,-0.90625,-1.0625,-0.609375
181,181,1727708435074,-0.15258789,-0.94244385,0.41033936,-2.34375,0.203125,-0.546875
182,182,1727708435114,-0.15966797,-0.9360962,0.41253662,-0.75,-0.65625,-0.34375
183,183,1727708435154,-0.15917969,-0.9365845,0.41522217,-1.09375,-0.234375,-0.125
184,184,1727708435194,-0.16113281,-0.94366455,0.41888428,-2.34375,0.984375,-0.734375
185,185,1727708435234,-0.16601562,-0.9356079,0.41571045,-1.078125,-0.21875,-0.734375
186,186,1727708435274,-0.15649414,-0.93341064,0.4237671,-1.265625,0.0,-0.515625
187,187,1727708435314,-0.15771484,-0.9314575,0.4262085,-0.953125,0.078125,-0.515625
188,188,1727708435354,-0.16210938,-0.9360962,0.42694092,-0.359375,-0.1875,-0.859375
189,189,1727708435394,-0.16137695,-0.9324341,0.42156982,-0.53125,-0.125,-0.28125
190,190,1727708435434,-0.16137695,-0.9324341,0.4208374,-0.328125,-0.9375,-0.375
191,191,1727708435474,-0.15991211,-0.9312134,0.42132568,-0.28125,-0.125,-0.34375
192,192,1727708435514,-0.16088867,-0.93463135,0.41204834,-0.65625,0.296875,-0.4375
193,193,1727708435554,-0.16308594,-0.93585205,0.42474365,-1.359375,1.734375,-0.703125
194,194,1727708435594,-0.16699219,-0.9336548,0.42132568,-1.28125,-0.140625,-0.203125
195,195,1727708435634,-0.14111328,-0.93170166,0.42401123,-3.671875,0.53125,-0.65625
196,196,1727708435674,-0.17529297,-0.9312134,0.4454956,0.25,-0.640625,-0.234375
197,197,1727708435714,-0.15917969,-0.9260864,0.42132568,0.734375,-0.6875,-0.390625
198,198,1727708435754,-0.14990234,-0.93951416,0.42547607,-0.734375,-0.625,-0.015625
199,199,1727708435794,-0.16430664,-0.9290161,0.4303589,0.125,-1.203125,-0.265625
200,200,1727708435834,-0.1694336,-0.9299927,0.42767334,1.53125,-1.171875,0.03125
201,201,1727708435874,-0.16308594,-0.92559814,0.41741943,0.375,-0.734375,-0.328125
202,202,1727708435914,-0.16015625,-0.9390259,0.41693115,0.0,0.03125,-0.25
203,203,1727708435954,-0.15673828,-0.9312134,0.42181396,0.515625,-0.75,-0.203125
204,204,1727708435994,-0.16870117,-0.93218994,0.42156982,0.203125,-0.09375,-0.3125
205,205,1727708436034,-0.1586914,-0.9373169,0.41888428,0.03125,-0.265625,-0.0625
206,206,1727708436074,-0.16455078,-0.9324341,0.42156982,0.109375,-0.78125,-0.484375
207,207,1727708436114,-0.1694336,-0.93536377,0.42523193,-0.203125,0.046875,-0.375
208,208,1727708436154,-0.15893555,-0.9299927,0.41033936,-0.109375,-0.375,-0.609375
209,209,1727708436194,-0.16040039,-0.93414307,0.42425537,-0.46875,-0.5,-0.46875
210,210,1727708436234,-0.16699219,-0.9378052,0.42059326,0.171875,-0.53125,-0.3125
211,211,1727708436274,-0.16894531,-0.9295044,0.42596436,-0.578125,-0.328125,0.015625
212,212,1727708436314,-0.17236328,-0.9282837,0.41351318,-0.140625,0.3125,0.015625
213,213,1727708436354,-0.15991211,-0.93292236,0.42181396,0.234375,-0.015625,-0.09375
214,214,1727708436394,-0.17089844,-0.9373169,0.40472412,0.0,-0.828125,0.21875
215,215,1727708436434,-0.15795898,-0.9299927,0.41741943,-2.4375,0.546875,-1.015625
216,216,1727708436474,-0.17553711,-0.93463135,0.43499756,-0.140625,-0.859375,-0.15625
217,217,1727708436514,-0.16455078,-0.9290161,0.41888428,-0.65625,-0.546875,-0.15625
218,218,1727708436554,-0.1628418,-0.9365845,0.42596436,-0.875,-0.390625,-0.03125
219,219,1727708436594,-0.15966797,-0.92974854,0.43328857,0.28125,-1.140625,0.171875
220,220,1727708436634,-0.17016602,-0.9336548,0.4208374,1.5625,-1.21875,-0.015625
221,221,1727708436674,-0.15698242,-0.9365845,0.4105835,-0.375,-0.859375,-0.390625
222,222,1727708436714,-0.1628418,-0.9368286,0.4244995,0.0,-0.125,-0.3125
223,223,1727708436754,-0.17089844,-0.93414307,0.42352295,1.015625,-1.234375,0.0625
224,224,1727708436794,-0.15625,-0.93048096,0.4179077,1.03125,-0.078125,0.171875
225,225,1727708436834,-0.15917969,-0.9314575,0.4286499,0.71875,-0.046875,-0.15625
226,226,1727708436874,-0.17163086,-0.9402466,0.40789795,0.53125,-0.484375,-0.390625
227,227,1727708436914,-0.15722656,-0.9336548,0.4179077,-0.21875,-0.1875,-0.40625
228,228,1727708436954,-0.16430664,-0.9365845,0.41815186,0.484375,0.015625,-0.796875
229,229,1727708436994,-0.1772461,-0.94000244,0.41571045,0.609375,-0.578125,-0.359375
230,230,1727708437034,-0.16235352,-0.9338989,0.41619873,1.0,0.015625,-0.265625
231,231,1727708437074,-0.16235352,-0.940979,0.4179077,0.640625,-0.46875,-0.203125
232,232,1727708437114,-0.1538086,-0.93829346,0.41888428,1.296875,-0.4375,0.21875
233,233,1727708437154,-0.171875,-0.9319458,0.40838623,1.28125,-0.515625,-0.1875
234,234,1727708437194,-0.15527344,-0.9385376,0.402771,-0.375,0.59375,-0.234375
235,235,1727708437234,-0.1706543,-0.9356079,0.40789795,1.9375,-0.109375,-1.0
236,236,1727708437274,-0.17333984,-0.9480591,0.3895874,-0.328125,-0.265625,0.125
237,237,1727708437314,-0.15893555,-0.9373169,0.41375732,-1.375,-1.46875,-0.1875
238,238,1727708437354,-0.16552734,-0.94415283,0.40985107,2.703125,-0.609375,0.578125
239,239,1727708437394,-0.16333008,-0.93170166,0.3925171,2.71875,-0.609375,0.3125
240,240,1727708437434,-0.16552734,-0.9429321,0.39178467,0.984375,-1.078125,1.140625
241,241,1727708437474,-0.16381836,-0.9524536,0.38787842,-0.078125,-0.546875,0.171875
242,242,1727708437514,-0.16333008,-0.94415283,0.39276123,1.046875,-0.5625,-0.046875
243,243,1727708437554,-0.16552734,-0.94415283,0.39178467,0.375,-0.25,-0.4375
244,244,1727708437594,-0.16210938,-0.94732666,0.39276123,1.125,0.296875,-0.75
245,245,1727708437634,-0.16308594,-0.94781494,0.3883667,0.0625,0.484375,-0.484375
246,246,1727708437674,-0.15527344,-0.9483032,0.39569092,1.015625,-0.203125,-0.21875
247,247,1727708437714,-0.16113281,-0.944397,0.39422607,0.65625,-0.6875,-0.078125
248,248,1727708437754,-0.16967773,-0.9458618,0.38446045,1.3125,0.234375,-0.828125
249,249,1727708437794,-0.1616211,-0.9468384,0.39105225,1.609375,0.453125,-0.03125
250,250,1727708437834,-0.15991211,-0.94537354,0.385437,0.828125,-0.484375,-0.125
251,251,1727708437874,-0.16235352,-0.95147705,0.38153076,0.78125,-0.890625,-0.171875
252,252,1727708437914,-0.16333008,-0.93829346,0.38104248,0.703125,-0.21875,-0.3125
253,253,1727708437954,-0.15795898,-0.9541626,0.3805542,0.40625,-0.921875,-0.296875
254,254,1727708437994,-0.16210938,-0.93927,0.37713623,-0.640625,-0.9375,-0.34375
255,255,1727708438034,-0.16210938,-0.94000244,0.4064331,-0.953125,-1.09375,0.046875
256,256,1727708438074,-0.1694336,-0.9324341,0.41326904,-0.796875,-0.796875,-0.140625
257,257,1727708438114,-0.17358398,-0.94415283,0.41522217,-0.5,-1.203125,-0.046875
258,258,1727708438154,-0.16479492,-0.93096924,0.4154663,-1.234375,-0.640625,-0.375
259,259,1727708438194,-0.16674805,-0.9368286,0.4022827,-1.078125,-0.015625,-0.328125
260,260,1727708438234,-0.16870117,-0.9356079,0.42156982,-0.390625,-0.34375,-0.5625
261,261,1727708438274,-0.17382812,-0.9324341,0.4022827,-0.71875,-0.765625,0.21875
262,262,1727708438314,-0.16357422,-0.9273071,0.41253662,-3.59375,0.0625,-1.09375
263,263,1727708438354,-0.18603516,-0.9385376,0.43865967,-0.671875,-1.3125,-0.453125
264,264,1727708438394,-0.1694336,-0.9229126,0.41912842,0.59375,0.078125,-0.453125
265,265,1727708438434,-0.15795898,-0.9331665,0.4208374,-0.40625,0.0625,-0.5
266,266,1727708438474,-0.1730957,-0.9368286,0.4208374,-0.46875,-0.6875,-0.34375
267,267,1727708438514,-0.17041016,-0.9324341,0.41888428,0.71875,-0.4375,-0.078125
268,268,1727708438554,-0.16040039,-0.9290161,0.4208374,-0.453125,-0.265625,-0.390625
269,269,1727708438594,-0.1772461,-0.9368286,0.42108154,-0.125,-0.4375,-0.265625
270,270,1727708438634,-0.16723633,-0.92681885,0.41571045,0.40625,-0.84375,0.25
271,271,1727708438674,-0.16821289,-0.9360962,0.4179077,0.203125,0.03125,-0.296875
272,272,1727708438714,-0.17749023,-0.93341064,0.418396,0.203125,-0.578125,-0.15625
273,273,1727708438754,-0.17382812,-0.9338989,0.41375732,-0.5625,-0.078125,-0.203125
274,274,1727708438794,-0.16723633,-0.9378052,0.41693115,-0.109375,-0.265625,-0.09375
275,275,1727708438834,-0.17016602,-0.93634033,0.41571045,0.234375,-0.1875,-0.375
276,276,1727708438874,-0.17675781,-0.9356079,0.41912842,0.078125,0.1875,-0.375
277,277,1727708438914,-0.17382812,-0.93707275,0.41571045,0.328125,-0.59375,0.03125
278,278,1727708438954,-0.1706543,-0.9380493,0.41375732,-0.5625,-0.078125,-0.359375
279,279,1727708438994,-0.16625977,-0.9348755,0.40740967,-0.21875,-0.125,0.1875
280,280,1727708439034,-0.16674805,-0.9312134,0.42059326,0.109375,-0.21875,-0.4375
281,281,1727708439074,-0.17456055,-0.93927,0.40789795,0.265625,-0.609375,-0.234375
282,282,1727708439114,-0.16040039,-0.9290161,0.4081421,-3.0,0.5,-0.59375
283,283,1727708439154,-0.17651367,-0.9404907,0.4303589,-0.375,-1.203125,0.484375
284,284,1727708439194,-0.16479492,-0.9273071,0.4130249,0.28125,0.65625,-0.859375
285,285,1727708439234,-0.17285156,-0.93756104,0.42694092,-1.765625,3.0625,-0.671875
286,286,1727708439274,-0.17333984,-0.93218994,0.4142456,-0.484375,0.921875,0.109375
287,287,1727708439314,-0.15698242,-0.9336548,0.4232788,0.484375,-0.046875,0.203125
288,288,1727708439354,-0.17163086,-0.9265747,0.42352295,-0.53125,0.0625,-0.078125
289,289,1727708439394,-0.18041992,-0.93707275,0.42816162,0.28125,0.046875,-0.046875
290,290,1727708439434,-0.16796875,-0.9360962,0.4179077,0.90625,0.03125,-0.046875
291,291,1727708439474,-0.16308594,-0.93292236,0.41644287,0.796875,-0.25,-0.15625
292,292,1727708439514,-0.17138672,-0.9319458,0.4257202,0.671875,-0.625,0.0625
293,293,1727708439554,-0.1628418,-0.9380493,0.41986084,1.234375,-0.453125,0.203125
294,294,1727708439594,-0.16796875,-0.93170166,0.41815186,1.296875,-0.484375,0.359375
295,295,1727708439634,-0.17260742,-0.93829346,0.4105835,1.09375,-0.3125,-0.203125
296,296,1727708439674,-0.15966797,-0.9385376,0.41204834,1.234375,-0.421875,-0.015625
297,297,1727708439714,-0.1640625,-0.9343872,0.40374756,0.8125,-0.609375,-0.140625
298,298,1727708439754,-0.16210938,-0.940979,0.4081421,1.1875,-0.046875,0.21875
299,299,1727708439794,-0.16259766,-0.93218994,0.40838623,1.15625,-0.453125,0.125
300,300,1727708439834,-0.1665039,-0.93048096,0.402771,0.546875,-0.578125,-0.34375
301,301,1727708439874,-0.1640625,-0.94732666,0.4003296,0.4375,-0.046875,-0.015625
302,302,1727708439914,-0.15942383,-0.94122314,0.4081421,1.828125,-0.21875,0.125
303,303,1727708439954,-0.1628418,-0.93927,0.39154053,0.015625,-0.859375,0.015625
304,304,1727708439994,-0.16479492,-0.94317627,0.39935303,-0.828125,-0.15625,-0.453125
305,305,1727708440034,-0.17480469,-0.9451294,0.40496826,2.6875,-0.328125,0.515625
306,306,1727708440074,-0.15161133,-0.94122314,0.3829956,1.328125,0.65625,-0.1875
307,307,1727708440114,-0.14794922,-0.95269775,0.39398193,1.15625,-0.046875,0.421875
308,308,1727708440154,-0.1784668,-0.9463501,0.40008545,2.25,-0.765625,0.359375
309,309,1727708440194,-0.16235352,-0.93756104,0.3912964,3.484375,-0.765625,1.15625
310,310,1727708440234,-0.1496582,-0.9463501,0.36761475,-0.53125,0.96875,0.421875
311,311,1727708440274,-0.16381836,-0.960022,0.39886475,1.859375,0.296875,-0.1875
312,312,1727708440314,-0.15551758,-0.9343872,0.3781128,1.75,0.0,0.453125
313,313,1727708440354,-0.15161133,-0.94854736,0.3764038,0.5,0.609375,-0.375
314,314,1727708440394,-0.1550293,-0.95635986,0.38031006,0.8125,-0.78125,-0.140625
315,315,1727708440434,-0.15527344,-0.9414673,0.3751831,0.28125,-0.578125,-0.296875
316,316,1727708440474,-0.15722656,-0.9522095,0.371521,-0.578125,0.015625,-0.296875
317,317,1727708440514,-0.15917969,-0.942688,0.38446045,-0.578125,-0.15625,-0.96875
318,318,1727708440554,-0.15356445,-0.94903564,0.38372803,0.125,-0.125,-0.140625
319,319,1727708440594,-0.15600586,-0.94659424,0.3793335,-0.296875,-0.609375,-0.53125
320,320,1727708440634,-0.15161133,-0.95806885,0.37786865,-0.875,-0.703125,-0.453125
321,321,1727708440674,-0.15966797,-0.94659424,0.38372803,-2.015625,-0.28125,-0.71875
322,322,1727708440714,-0.16088867,-0.9522095,0.3834839,-1.90625,-0.296875,-0.765625
323,323,1727708440754,-0.14770508,-0.9402466,0.39666748,-1.375,-0.515625,-0.421875
324,324,1727708440794,-0.1616211,-0.94195557,0.3817749,-1.5625,-0.703125,-0.375
325,325,1727708440834,-0.1538086,-0.9434204,0.3859253,-3.609375,-0.65625,-0.890625
326,326,1727708440874,-0.17456055,-0.94317627,0.40179443,-3.96875,-0.78125,-0.90625
327,327,1727708440914,-0.17114258,-0.9421997,0.40447998,-0.71875,0.015625,-1.0
328,328,1727708440954,-0.15698242,-0.93756104,0.39666748,-0.375,-1.03125,-0.046875
329,329,1727708440994,-0.15698242,-0.940979,0.4003296,-0.640625,-0.578125,-0.46875
330,330,1727708441034,-0.17553711,-0.944397,0.40838623,0.03125,-0.890625,-0.09375
331,331,1727708441074,-0.15673828,-0.93707275,0.39642334,-0.65625,-0.6875,-0.046875
332,332,1727708441114,-0.15966797,-0.94366455,0.40179443,-2.296875,-0.4375,-0.1875
333,333,1727708441154,-0.17163086,-0.94317627,0.40911865,-1.03125,-0.984375,-0.203125
334,334,1727708441194,-0.16918945,-0.93634033,0.40618896,-0.5,-0.015625,-0.390625
335,335,1727708441234,-0.17041016,-0.9385376,0.40496826,-1.375,-0.1875,-1.046875
336,336,1727708441274,-0.16381836,-0.9385376,0.40545654,-0.53125,-0.875,-0.59375
337,337,1727708441314,-0.16381836,-0.9385376,0.40911865,-1.25,-0.1875,-0.796875
338,338,1727708441354,-0.16845703,-0.9456177,0.40838623,-0.765625,0.0625,-0.703125
339,339,1727708441394,-0.16699219,-0.9326782,0.41229248,-0.578125,-0.171875,-1.265625
340,340,1727708441434,-0.16699219,-0.942688,0.40667725,-1.859375,-0.5,-0.5625
341,341,1727708441474,-0.17382812,-0.9404907,0.40960693,-0.28125,-0.5625,-0.8125
342,342,1727708441514,-0.1574707,-0.9380493,0.41082764,0.09375,-0.296875,-0.390625
343,343,1727708441554,-0.1640625,-0.9331665,0.41326904,-0.5625,0.125,-0.46875
344,344,1727708441594,-0.17211914,-0.94122314,0.40472412,0.5,0.015625,-0.125
345,345,1727708441634,-0.16674805,-0.9319458,0.4171753,-0.125,0.4375,-0.609375
346,346,1727708441674,-0.18383789,-0.9434204,0.40301514,0.578125,-0.3125,0.46875
347,347,1727708441714,-0.15185547,-0.93048096,0.40130615,-2.15625,0.109375,-0.859375
348,348,1727708441754,-0.18701172,-0.93951416,0.4244995,-0.984375,-0.21875,-0.28125
349,349,1727708441794,-0.17407227,-0.9360962,0.41156006,0.640625,-0.265625,0.234375
350,350,1727708441834,-0.15478516,-0.9356079,0.41937256,-0.890625,0.1875,0.40625
351,351,1727708441874,-0.18701172,-0.93585205,0.4052124,-0.1875,0.0,-0.703125
352,352,1727708441914,-0.17480469,-0.94122314,0.4154663,0.953125,0.25,0.15625
353,353,1727708441954,-0.15893555,-0.93463135,0.4039917,-0.296875,-0.34375,-0.546875
354,354,1727708441994,-0.1772461,-0.9319458,0.4171753,-0.78125,-0.109375,-0.21875
355,355,1727708442034,-0.18261719,-0.9319458,0.40667725,1.078125,0.125,-0.421875
356,356,1727708442074,-0.1743164,-0.9324341,0.40350342,-0.234375,0.125,-0.046875
357,357,1727708442114,-0.16455078,-0.942688,0.40594482,-0.28125,0.0,-0.265625
358,358,1727708442154,-0.16503906,-0.928772,0.41400146,-0.671875,-0.125,-0.34375
359,359,1727708442194,-0.17797852,-0.9365845,0.41497803,-0.21875,0.171875,-0.375
360,360,1727708442234,-0.16796875,-0.93463135,0.41082764,-0.25,0.03125,-0.234375
361,361,1727708442274,-0.17211914,-0.9295044,0.41229248,-0.15625,-0.78125,-0.484375
362,362,1727708442314,-0.17504883,-0.9397583,0.40570068,-0.453125,-0.125,-0.25
363,363,1727708442354,-0.16503906,-0.9348755,0.40960693,-0.03125,-0.546875,-0.15625
364,364,1727708442394,-0.17333984,-0.93536377,0.40618896,1.109375,-0.703125,0.171875
365,365,1727708442434,-0.18017578,-0.93707275,0.41864014,0.453125,-1.171875,0.3125
366,366,1727708442474,-0.17993164,-0.93585205,0.40911865,0.53125,-0.609375,-0.125
367,367,1727708442514,-0.1574707,-0.93414307,0.40472412,1.015625,0.109375,-0.1875
368,368,1727708442554,-0.17163086,-0.9402466,0.4022827,1.515625,-0.3125,-0.03125
369,369,1727708442594,-0.16113281,-0.9365845,0.39227295,-0.828125,-0.40625,-0.328125
370,370,1727708442634,-0.18261719,-0.9326782,0.41448975,-1.875,0.171875,-0.546875
371,371,1727708442674,-0.18066406,-0.9470825,0.402771,1.40625,0.171875,0.125
372,372,1727708442714,-0.15795898,-0.93170166,0.40130615,0.34375,0.265625,-0.234375
373,373,1727708442754,-0.16772461,-0.94415283,0.4015503,0.984375,-0.140625,-0.296875
374,374,1727708442794,-0.1694336,-0.940979,0.40863037,0.671875,-0.4375,0.109375
375,375,1727708442834,-0.1640625,-0.9348755,0.402771,1.390625,-0.375,0.234375
376,376,1727708442874,-0.17211914,-0.9397583,0.39837646,-0.0625,0.4375,-0.1875
377,377,1727708442914,-0.16601562,-0.95098877,0.39520264,1.53125,-0.625,0.234375
378,378,1727708442954,-0.16113281,-0.9348755,0.3961792,0.609375,-0.53125,0.15625
379,379,1727708442994,-0.16552734,-0.94195557,0.3998413,-0.90625,-0.015625,0.046875
380,380,1727708443034,-0.16601562,-0.9463501,0.39398193,0.8125,-0.515625,0.40625
381,381,1727708443074,-0.16552734,-0.93951416,0.39520264,0.546875,-0.34375,0.0
382,382,1727708443114,-0.15600586,-0.9463501,0.3961792,0.421875,-0.078125,0.0625
383,383,1727708443154,-0.17480469,-0.9417114,0.38763428,0.90625,-0.15625,-0.15625
384,384,1727708443194,-0.17163086,-0.9414673,0.3925171,0.53125,-0.40625,-0.296875
385,385,1727708443234,-0.1616211,-0.94366455,0.39300537,-0.578125,-0.25,0.046875
386,386,1727708443274,-0.16479492,-0.9404907,0.37469482,-2.0,-0.21875,-0.171875
387,387,1727708443314,-0.15332031,-0.94781494,0.4052124,-0.75,0.640625,-0.59375
388,388,1727708443354,-0.17626953,-0.93951416,0.40130615,-0.78125,-0.75,-0.484375
389,389,1727708443394,-0.15576172,-0.9390259,0.3932495,-0.328125,-0.03125,-0.109375
390,390,1727708443434,-0.16040039,-0.93634033,0.39593506,-2.4375,2.96875,-0.59375
391,391,1727708443474,-0.16088867,-0.9338989,0.40594482,-3.28125,4.65625,0.125
392,392,1727708443514,-0.15283203,-0.93585205,0.3961792,-2.0,1.5625,-0.265625
393,393,1727708443554,-0.16088867,-0.9319458,0.41937256,1.734375,0.640625,-0.296875
394,394,1727708443594,-0.16552734,-0.9319458,0.40057373,-0.1875,-0.625,-0.296875
395,395,1727708443634,-0.14868164,-0.9446411,0.40496826,0.484375,-1.03125,-0.34375
396,396,1727708443674,-0.16333008,-0.94244385,0.4064331,0.59375,-1.234375,-0.578125
397,397,1727708443714,-0.16113281,-0.9404907,0.40130615,0.03125,-1.671875,0.25
398,398,1727708443754,-0.1484375,-0.9365845,0.3944702,-0.78125,-1.28125,-0.4375
399,399,1727708443794,-0.16186523,-0.9458618,0.41033936,0.921875,-2.109375,-0.296875
400,400,1727708443834,-0.16113281,-0.940979,0.39105225,-0.84375,-1.703125,0.03125
401,401,1727708443874,-0.15942383,-0.93951416,0.40545654,-0.6875,-0.84375,-0.40625
402,402,1727708443914,-0.17578125,-0.93634033,0.40374756,-1.046875,-0.765625,-0.390625
403,403,1727708443954,-0.1665039,-0.93536377,0.4003296,-0.84375,-1.0,-0.609375
404,404,1727708443994,-0.16723633,-0.9397583,0.4022827,-1.03125,-1.015625,-0.5
405,405,1727708444034,-0.15551758,-0.94366455,0.40325928,-1.40625,-0.859375,-0.484375
406,406,1727708444074,-0.1706543,-0.9380493,0.40838623,-1.53125,-0.46875,-0.859375
407,407,1727708444114,-0.1784668,-0.9402466,0.41156006,-0.84375,-0.890625,-0.765625
408,408,1727708444154,-0.1616211,-0.9360962,0.4064331,-1.375,-0.25,-0.4375
409,409,1727708444194,-0.16503906,-0.9373169,0.41131592,-1.296875,-0.328125,-0.875
410,410,1727708444234,-0.17895508,-0.93292236,0.4088745,-0.953125,0.03125,-0.765625
411,411,1727708444274,-0.16235352,-0.93096924,0.416687,0.0,0.015625,-0.484375
412,412,1727708444314,-0.17749023,-0.94073486,0.41033936,-0.59375,-0.65625,-0.546875
413,413,1727708444354,-0.16308594,-0.9331665,0.41033936,-3.625,0.125,-1.0
414,414,1727708444394,-0.17993164,-0.9326782,0.43084717,-0.953125,-0.546875,-0.59375
415,415,1727708444434,-0.16625977,-0.9319458,0.4220581,0.109375,0.109375,-0.46875
416,416,1727708444474,-0.16601562,-0.9343872,0.4196167,-0.40625,0.046875,-0.046875
417,417,1727708444514,-0.17822266,-0.9385376,0.416687,-0.25,-0.09375,-0.328125
418,418,1727708444554,-0.17749023,-0.93048096,0.42230225,1.171875,-0.203125,-0.171875
419,419,1727708444594,-0.16674805,-0.9273071,0.40789795,-0.859375,-0.03125,-0.640625
420,420,1727708444634,-0.17651367,-0.93707275,0.42156982,-0.46875,-0.015625,-0.28125
421,421,1727708444674,-0.17456055,-0.9265747,0.41888428,0.5,-0.46875,-0.125
422,422,1727708444714,-0.17138672,-0.9324341,0.42010498,0.015625,-0.125,-0.078125
423,423,1727708444754,-0.17163086,-0.9290161,0.41375732,-0.34375,-0.1875,-0.359375
424,424,1727708444794,-0.16699219,-0.9356079,0.4220581,-0.6875,-0.453125,-0.34375
425,425,1727708444834,-0.16674805,-0.9351196,0.42010498,-0.203125,-0.28125,-0.34375
426,426,1727708444874,-0.17211914,-0.9348755,0.41986084,-0.15625,-0.03125,-0.703125
427,427,1727708444914,-0.17553711,-0.9307251,0.42034912,-0.421875,-0.25,-0.515625
428,428,1727708444954,-0.1784668,-0.9338989,0.42547607,-0.46875,-0.28125,-0.203125
429,429,1727708444994,-0.1706543,-0.93096924,0.418396,-0.25,-0.078125,-0.53125
430,430,1727708445034,-0.16674805,-0.9338989,0.42352295,0.078125,-0.203125,-0.34375
431,431,1727708445074,-0.1706543,-0.92852783,0.42303467,0.4375,-0.296875,-0.578125
432,432,1727708445114,-0.17358398,-0.9380493,0.42645264,1.140625,-0.234375,0.125
433,433,1727708445154,-0.16137695,-0.9260864,0.4100952,-1.796875,0.015625,-0.875
434,434,1727708445194,-0.18066406,-0.9336548,0.43255615,-2.25,-0.375,-0.15625
435,435,1727708445234,-0.16992188,-0.93414307,0.4274292,0.5,-0.421875,-0.0625
436,436,1727708445274,-0.16894531,-0.927063,0.42767334,-0.328125,0.140625,-0.140625
437,437,1727708445314,-0.17041016,-0.9451294,0.41912842,0.515625,-0.125,-0.015625
438,438,1727708445354,-0.17602539,-0.92681885,0.42156982,0.8125,-0.484375,0.03125
439,439,1727708445394,-0.16601562,-0.92803955,0.42010498,-0.796875,-0.421875,0.015625
440,440,1727708445434,-0.17895508,-0.9351196,0.42694092,0.0625,0.078125,-0.125
441,441,1727708445474,-0.17553711,-0.9404907,0.42303467,0.359375,-0.375,0.046875
442,442,1727708445514,-0.17114258,-0.92633057,0.41033936,0.765625,-0.4375,0.296875
443,443,1727708445554,-0.1640625,-0.9319458,0.40985107,0.484375,0.21875,0.125
444,444,1727708445594,-0.18164062,-0.94073486,0.41864014,1.28125,0.1875,-0.265625
445,445,1727708445634,-0.16821289,-0.93927,0.41571045,1.21875,0.21875,0.203125
446,446,1727708445674,-0.16625977,-0.93292236,0.4179077,0.46875,0.203125,-0.28125
447,447,1727708445714,-0.17407227,-0.942688,0.40447998,0.359375,-0.1875,0.0
448,448,1727708445754,-0.1694336,-0.9351196,0.41229248,0.484375,0.328125,0.015625
449,449,1727708445794,-0.16674805,-0.9385376,0.40740967,0.4375,1.34375,0.203125
450,450,1727708445834,-0.1652832,-0.944397,0.41693115,0.296875,0.890625,0.46875
451,451,1727708445874,-0.1574707,-0.93829346,0.41351318,-0.390625,0.375,0.15625
452,452,1727708445914,-0.16503906,-0.9348755,0.40472412,1.25,0.890625,-0.03125
453,453,1727708445954,-0.15698242,-0.9429321,0.39788818,-0.359375,0.078125,0.59375
454,454,1727708445994,-0.15722656,-0.93414307,0.418396,-1.46875,0.125,-0.484375
455,455,1727708446034,-0.16992188,-0.94488525,0.42303467,0.9375,-0.65625,0.28125
456,456,1727708446074,-0.16015625,-0.93096924,0.4100952,1.75,0.109375,-0.21875
457,457,1727708446114,-0.1586914,-0.94659424,0.40472412,0.234375,-0.515625,0.5625
458,458,1727708446154,-0.16186523,-0.9380493,0.4081421,0.6875,-0.875,-0.03125
459,459,1727708446194,-0.15454102,-0.93414307,0.40252686,1.171875,-0.59375,0.03125
460,460,1727708446234,-0.1586914,-0.93878174,0.3991089,-0.078125,0.15625,-0.328125
461,461,1727708446274,-0.16455078,-0.94488525,0.40374756,0.875,-0.328125,-0.171875
462,462,1727708446314,-0.16748047,-0.9373169,0.39935303,0.921875,-0.578125,-0.046875
463,463,1727708446354,-0.15307617,-0.9414673,0.39788818,0.578125,-0.328125,-0.203125
464,464,1727708446394,-0.15551758,-0.9541626,0.3991089,0.546875,-0.78125,0.015625
465,465,1727708446434,-0.16430664,-0.9373169,0.39544678,0.21875,-0.625,-0.25
466,466,1727708446474,-0.15600586,-0.9439087,0.39520264,0.890625,-0.3125,-0.328125
467,467,1727708446514,-0.15649414,-0.9463501,0.39886475,0.015625,-0.03125,-0.296875
468,468,1727708446554,-0.16748047,-0.94415283,0.39300537,0.53125,-0.375,-0.390625
469,469,1727708446594,-0.15014648,-0.94415283,0.3908081,0.3125,-0.375,-0.140625
470,470,1727708446634,-0.16040039,-0.93951416,0.39788818,1.203125,-0.625,-0.265625
471,471,1727708446674,-0.1652832,-0.93756104,0.39276123,0.3125,-0.640625,-0.15625
472,472,1727708446714,-0.16186523,-0.9517212,0.3895874,0.9375,0.03125,0.125
473,473,1727708446754,-0.14575195,-0.9336548,0.402771,0.9375,-0.234375,-0.28125
474,474,1727708446794,-0.16040039,-0.94903564,0.3908081,-2.03125,0.0,-0.578125
475,475,1727708446834,-0.14428711,-0.9390259,0.3866577,-3.3125,-0.640625,-0.328125
476,476,1727708446874,-0.17333984,-0.93463135,0.40740967,-2.609375,-0.375,-0.40625
477,477,1727708446914,-0.1616211,-0.93829346,0.40350342,-1.34375,0.234375,-0.734375
478,478,1727708446954,-0.15844727,-0.94366455,0.39276123,-2.359375,-0.21875,-0.328125
479,479,1727708446994,-0.16088867,-0.9373169,0.40057373,-1.734375,-0.328125,-0.640625
480,480,1727708447034,-0.16723633,-0.9402466,0.4147339,-0.40625,-0.625,-0.265625
481,481,1727708447074,-0.15576172,-0.9378052,0.40472412,-0.671875,-0.578125,-0.265625
482,482,1727708447114,-0.171875,-0.9390259,0.4076538,-1.484375,-0.203125,-0.9375
483,483,1727708447154,-0.16674805,-0.94244385,0.41033936,0.140625,-0.390625,-0.484375
484,484,1727708447194,-0.15820312,-0.9338989,0.402771,-0.875,-0.578125,-0.1875
485,485,1727708447234,-0.16772461,-0.93829346,0.40960693,-0.859375,-0.375,-0.703125
486,486,1727708447274,-0.16333008,-0.94000244,0.41107178,-1.328125,-0.28125,-0.46875
487,487,1727708447314,-0.16845703,-0.9348755,0.40594482,-0.890625,0.125,-0.984375
488,488,1727708447354,-0.17480469,-0.93951416,0.41107178,-1.171875,-0.25,-0.546875
489,489,1727708447394,-0.15698242,-0.9421997,0.40838623,-0.734375,-0.234375,-0.234375
490,490,1727708447434,-0.16479492,-0.93634033,0.41082764,-1.328125,-0.203125,-0.828125
491,491,1727708447474,-0.17407227,-0.9360962,0.42230225,-0.546875,-0.421875,-0.515625
492,492,1727708447514,-0.16723633,-0.93341064,0.4154663,-0.75,-0.328125,-0.625
493,493,1727708447554,-0.16137695,-0.9414673,0.42181396,-1.5625,-0.4375,-0.546875
494,494,1727708447594,-0.16259766,-0.93292236,0.4208374,-0.328125,-0.453125,-1.03125
495,495,1727708447634,-0.1796875,-0.9402466,0.42767334,0.4375,-0.328125,-0.234375
496,496,1727708447674,-0.16259766,-0.92803955,0.40472412,-2.265625,-0.625,-0.578125
497,497,1727708447714,-0.17041016,-0.92755127,0.41986084,-2.734375,-0.46875,-0.859375
498,498,1727708447754,-0.17236328,-0.93536377,0.43182373,-0.0625,-0.25,-0.109375
499,499,1727708447794,-0.16235352,-0.9199829,0.42230225,0.484375,-0.03125,-0.375
500,500,1727708447834,-0.1796875,-0.9336548,0.42279053,-0.546875,0.265625,-0.71875
501,501,1727708447874,-0.171875,-0.9360962,0.41741943,0.34375,0.046875,-0.15625
502,502,1727708447914,-0.15698242,-0.92926025,0.43133545,0.484375,-0.296875,-0.234375
503,503,1727708447954,-0.17382812,-0.93048096,0.42059326,-1.078125,0.265625,-0.609375
504,504,1727708447994,-0.17944336,-0.9390259,0.42913818,0.46875,0.0625,-0.453125
505,505,1727708448034,-0.17138672,-0.925354,0.42279053,-0.125,-0.015625,-0.34375
506,506,1727708448074,-0.16845703,-0.9277954,0.41522217,0.0,0.125,-0.34375
507,507,1727708448114,-0.1743164,-0.93218994,0.42840576,-0.109375,-0.25,-0.140625
508,508,1727708448154,-0.17456055,-0.9331665,0.42718506,-0.296875,-0.109375,-0.359375
509,509,1727708448194,-0.17871094,-0.93536377,0.42181396,-0.140625,-0.140625,-0.375
510,510,1727708448234,-0.15966797,-0.9380493,0.42034912,-0.078125,-0.171875,-0.140625
511,511,1727708448274,-0.17358398,-0.923645,0.41888428,-0.4375,0.03125,-0.609375
512,512,1727708448314,-0.17626953,-0.92633057,0.42059326,-0.0625,0.078125,-0.25
513,513,1727708448354,-0.16992188,-0.93218994,0.4232788,-0.125,0.1875,-0.390625
514,514,1727708448394,-0.16845703,-0.94000244,0.4262085,-0.421875,-0.125,-0.46875
515,515,1727708448434,-0.16601562,-0.9241333,0.42034912,-0.015625,-0.421875,-0.421875
516,516,1727708448474,-0.16748047,-0.9429321,0.4328003,0.34375,0.546875,-0.53125
517,517,1727708448514,-0.16430664,-0.93463135,0.40985107,-1.671875,-0.421875,-0.546875
518,518,1727708448554,-0.171875,-0.923645,0.42767334,-2.40625,-0.046875,-0.546875
519,519,1727708448594,-0.1652832,-0.940979,0.43206787,-0.09375,-0.296875,-0.125
520,520,1727708448634,-0.17285156,-0.9216919,0.42669678,-0.21875,-0.515625,-0.5
521,521,1727708448674,-0.1730957,-0.9378052,0.42913818,-0.046875,0.09375,-0.265625
522,522,1727708448714,-0.16967773,-0.9336548,0.4220581,0.40625,-0.6875,-0.0625
523,523,1727708448754,-0.17041016,-0.9314575,0.42791748,0.96875,-0.984375,-0.125
524,524,1727708448794,-0.16967773,-0.9385376,0.4237671,-0.296875,-0.59375,-0.125
525,525,1727708448834,-0.17358398,-0.928772,0.42816162,1.15625,-0.28125,-0.28125
526,526,1727708448874,-0.17041016,-0.93341064,0.4244995,1.5,-0.296875,0.15625
527,527,1727708448914,-0.16601562,-0.93585205,0.416687,0.171875,-0.21875,-0.09375
528,528,1727708448954,-0.17236328,-0.93585205,0.42181396,0.796875,-0.3125,0.046875
529,529,1727708448994,-0.17211914,-0.93341064,0.41766357,0.859375,-0.5,-0.09375
530,530,1727708449034,-0.1652832,-0.92852783,0.42034912,0.921875,-0.5,0.125
531,531,1727708449074,-0.17626953,-0.93951416,0.41351318,0.25,-0.25,0.515625
532,532,1727708449114,-0.16186523,-0.93951416,0.41986084,0.984375,-0.390625,0.359375
533,533,1727708449154,-0.16845703,-0.9299927,0.4171753,1.421875,-0.5,0.3125
534,534,1727708449194,-0.15673828,-0.94610596,0.4064331,1.1875,-0.515625,0.453125
535,535,1727708449234,-0.16845703,-0.9324341,0.40911865,1.28125,-0.640625,0.109375
536,536,1727708449274,-0.17089844,-0.9314575,0.4118042,0.09375,0.734375,0.015625
537,537,1727708449314,-0.16333008,-0.9414673,0.3991089,-0.140625,0.78125,0.125
538,538,1727708449354,-0.15820312,-0.92437744,0.41351318,1.515625,0.484375,0.0625
539,539,1727708449394,-0.16113281,-0.9522095,0.3673706,-3.84375,0.765625,0.78125
540,540,1727708449434,-0.13989258,-0.92315674,0.432312,-4.375,2.59375,-2.359375
541,541,1727708449474,-0.19384766,-0.9319458,0.4381714,-0.234375,0.21875,0.390625
542,542,1727708449514,-0.14575195,-0.9319458,0.40838623,0.078125,0.703125,-0.34375
543,543,1727708449554,-0.16577148,-0.9331665,0.41375732,0.046875,0.453125,0.078125
544,544,1727708449594,-0.16870117,-0.9378052,0.40985107,-0.421875,1.0625,-0.171875
545,545,1727708449634,-0.15283203,-0.940979,0.41888428,1.421875,0.453125,0.328125
546,546,1727708449674,-0.15185547,-0.93218994,0.41571045,-0.109375,0.3125,-0.265625
547,547,1727708449714,-0.1628418,-0.93634033,0.41033936,0.671875,-0.515625,0.390625
548,548,1727708449754,-0.15258789,-0.925354,0.4105835,-0.21875,0.015625,0.28125
549,549,1727708449794,-0.1538086,-0.94854736,0.41033936,-1.5,-0.46875,0.0625
550,550,1727708449834,-0.15942383,-0.9224243,0.42132568,1.3125,-1.390625,-0.140625
551,551,1727708449874,-0.1550293,-0.9348755,0.42059326,0.265625,-0.46875,0.046875
552,552,1727708449914,-0.15795898,-0.93878174,0.4118042,0.609375,-0.9375,-0.34375
553,553,1727708449954,-0.1640625,-0.93463135,0.4105835,0.265625,-0.6875,-0.15625
554,554,1727708449994,-0.15209961,-0.94415283,0.40570068,-0.390625,-0.59375,-0.328125
555,555,1727708450034,-0.15917969,-0.93756104,0.4052124,-1.03125,-0.84375,-0.390625
556,556,1727708450074,-0.15942383,-0.9390259,0.41351318,-1.484375,-0.515625,-0.703125
557,557,1727708450114,-0.1628418,-0.93927,0.41400146,-1.046875,-0.734375,-0.59375
558,558,1727708450154,-0.1652832,-0.93951416,0.41107178,-1.640625,-0.796875,-0.59375
559,559,1727708450194,-0.16357422,-0.94415283,0.40716553,-2.328125,-0.828125,-0.5
560,560,1727708450234,-0.14990234,-0.93170166,0.4244995,-1.578125,-0.46875,-0.84375
561,561,1727708450274,-0.16381836,-0.93634033,0.418396,-0.59375,-1.03125,-0.640625
562,562,1727708450314,-0.15551758,-0.9180298,0.41107178,-1.4375,-1.03125,-0.625
563,563,1727708450354,-0.16357422,-0.94781494,0.4232788,-3.78125,-0.640625,0.078125
564,564,1727708450394,-0.17456055,-0.92681885,0.43182373,0.53125,-1.109375,-0.625
565,565,1727708450434,-0.15307617,-0.9260864,0.4303589,0.25,0.0,-0.203125
566,566,1727708450474,-0.16088867,-0.9439087,0.41864014,-1.09375,-0.03125,-0.59375
567,567,1727708450514,-0.1743164,-0.9273071,0.43426514,-0.203125,-0.703125,-0.421875
568,568,1727708450554,-0.16308594,-0.9260864,0.4328003,0.34375,-0.796875,0.203125
569,569,1727708450594,-0.17016602,-0.9290161,0.42401123,-0.78125,-0.09375,-0.625
570,570,1727708450634,-0.17578125,-0.928772,0.43182373,0.03125,-0.015625,-0.484375
571,571,1727708450674,-0.16137695,-0.9324341,0.42352295,0.34375,-0.21875,0.0625
572,572,1727708450714,-0.16601562,-0.93096924,0.42279053,-0.625,-0.171875,-0.703125
573,573,1727708450754,-0.16088867,-0.92803955,0.4274292,-0.15625,0.109375,-0.625
574,574,1727708450794,-0.16699219,-0.94415283,0.42718506,-1.140625,-0.46875,-0.59375
575,575,1727708450834,-0.16845703,-0.92071533,0.42230225,0.5625,-0.21875,-1.078125
576,576,1727708450874,-0.16015625,-0.94415283,0.4274292,-1.078125,0.578125,-0.328125
577,577,1727708450914,-0.16699219,-0.93292236,0.42181396,-0.171875,-0.75,-0.78125
578,578,1727708450954,-0.16870117,-0.92022705,0.43011475,-0.09375,0.125,-0.3125
579,579,1727708450994,-0.16674805,-0.940979,0.42596436,-0.78125,-0.234375,-0.421875
580,580,1727708451034,-0.17871094,-0.9221802,0.42547607,-0.296875,-0.765625,-0.4375
581,581,1727708451074,-0.15966797,-0.93463135,0.4274292,-0.1875,0.453125,-0.15625
582,582,1727708451114,-0.16796875,-0.92803955,0.42889404,0.28125,-0.5625,-0.703125
583,583,1727708451154,-0.18164062,-0.92974854,0.41229248,-0.546875,-1.515625,-0.046875
584,584,1727708451194,-0.14770508,-0.93878174,0.42596436,-2.921875,0.234375,-0.46875
585,585,1727708451234,-0.18066406,-0.92755127,0.44647217,0.328125,-0.890625,-0.1875
586,586,1727708451274,-0.16845703,-0.92315674,0.41986084,0.421875,-0.4375,0.125
587,587,1727708451314,-0.16577148,-0.91851807,0.43475342,-0.78125,0.359375,-0.234375
588,588,1727708451354,-0.17456055,-0.9475708,0.43475342,-0.25,-0.59375,-0.28125
589,589,1727708451394,-0.17333984,-0.9104614,0.42547607,0.78125,-0.125,-0.046875
590,590,1727708451434,-0.15795898,-0.9534302,0.41986084,-2.140625,1.234375,-0.4375
591,591,1727708451474,-0.18969727,-0.91656494,0.43182373,0.96875,-1.5,-0.765625
592,592,1727708451514,-0.16845703,-0.9234009,0.43988037,-0.0625,0.828125,0.53125
593,593,1727708451554,-0.1616211,-0.94122314,0.41741943,-0.5,-0.03125,-0.5625
594,594,1727708451594,-0.1784668,-0.9182739,0.42669678,0.296875,-0.390625,-0.140625
595,595,1727708451634,-0.16503906,-0.92852783,0.4352417,-0.453125,0.15625,0.015625
596,596,1727708451674,-0.17553711,-0.92266846,0.4298706,-0.53125,-0.3125,-0.65625
597,597,1727708451714,-0.1652832,-0.92755127,0.43060303,-0.21875,-0.25,-0.171875
598,598,1727708451754,-0.16210938,-0.93414307,0.43060303,-0.015625,-0.375,-0.109375
599,599,1727708451794,-0.18286133,-0.9229126,0.42523193,0.546875,-0.375,-0.421875
600,600,1727708451834,-0.15991211,-0.92315674,0.43621826,0.0,0.109375,0.015625
601,601,1727708451874,-0.171875,-0.9541626,0.42669678,0.109375,-1.0625,-0.15625
602,602,1727708451914,-0.16333008,-0.90093994,0.42962646,1.53125,-0.75,-0.34375
603,603,1727708451954,-0.16723633,-0.9480591,0.42962646,1.21875,0.0625,0.015625
604,604,1727708451994,-0.1665039,-0.92510986,0.4147339,-1.0625,-1.109375,-0.71875
605,605,1727708452034,-0.16967773,-0.9246216,0.4413452,-1.203125,0.015625,-0.078125
606,606,1727708452074,-0.16772461,-0.9421997,0.4303589,1.484375,-0.15625,-0.140625
607,607,1727708452114,-0.16699219,-0.9170532,0.42010498,0.515625,-0.484375,-0.140625
608,608,1727708452154,-0.16430664,-0.93634033,0.42718506,0.375,-0.390625,-0.078125
609,609,1727708452194,-0.16259766,-0.93634033,0.4232788,1.265625,-0.453125,0.25
610,610,1727708452234,-0.15893555,-0.9282837,0.4130249,1.3125,-0.71875,0.296875
611,611,1727708452274,-0.16723633,-0.93634033,0.41766357,0.171875,-0.28125,-0.046875
612,612,1727708452314,-0.16894531,-0.9385376,0.4249878,1.890625,-0.640625,-0.0625
613,613,1727708452354,-0.15307617,-0.91729736,0.41131592,0.359375,-0.46875,2.875
614,614,1727708452394,-0.16015625,-0.9402466,0.41497803,0.078125,-0.09375,0.375
615,615,1727708452434,-0.16015625,-0.93048096,0.4147339,-0.53125,-1.03125,0.015625
616,616,1727708452474,-0.17211914,-0.92559814,0.42181396,0.671875,-0.078125,0.03125
617,617,1727708452514,-0.1574707,-0.954895,0.41400146,0.296875,0.34375,-0.484375
618,618,1727708452554,-0.17016602,-0.92315674,0.40740967,0.765625,-0.765625,-0.1875
619,619,1727708452594,-0.15820312,-0.94244385,0.41644287,0.09375,0.5,0.046875
620,620,1727708452634,-0.16430664,-0.9378052,0.4015503,0.703125,-0.375,-0.328125
621,621,1727708452674,-0.16821289,-0.9265747,0.4088745,0.375,-0.546875,-0.03125
622,622,1727708452714,-0.16186523,-0.9397583,0.4142456,0.734375,-0.359375,0.15625
623,623,1727708452754,-0.16552734,-0.93096924,0.40301514,1.5,-0.953125,0.171875
624,624,1727708452794,-0.15771484,-0.93829346,0.39788818,-1.046875,0.015625,-0.296875
625,625,1727708452834,-0.15966797,-0.9468384,0.41204834,-1.015625,-0.6875,-0.0625
626,626,1727708452874,-0.17016602,-0.9338989,0.40960693,1.109375,-0.140625,-0.1875
627,627,1727708452914,-0.1538086,-0.93707275,0.401062,0.65625,0.171875,-0.15625
628,628,1727708452954,-0.16455078,-0.9536743,0.40252686,-0.484375,-0.296875,-0.359375
629,629,1727708452994,-0.16455078,-0.92755127,0.41204834,1.8125,-0.9375,-0.328125
630,630,1727708453034,-0.14770508,-0.93536377,0.401062,-0.25,-0.078125,0.0625
631,631,1727708453074,-0.16723633,-0.9492798,0.39788818,-0.46875,-0.6875,-0.59375
632,632,1727708453114,-0.16870117,-0.93292236,0.4064331,0.421875,-0.875,-0.328125
633,633,1727708453154,-0.15625,-0.93951416,0.401062,-1.0625,-0.546875,-0.203125
634,634,1727708453194,-0.17236328,-0.92852783,0.40423584,-0.828125,-0.859375,-0.578125
635,635,1727708453234,-0.1586914,-0.94000244,0.40594482,-1.453125,-0.65625,-0.546875
636,636,1727708453274,-0.1730957,-0.9480591,0.40447998,-1.328125,-0.3125,-0.8125
637,637,1727708453314,-0.16308594,-0.9402466,0.40594482,-0.890625,-0.328125,-0.65625
638,638,1727708453354,-0.1640625,-0.944397,0.4076538,-1.34375,-0.453125,-0.546875
639,639,1727708453394,-0.171875,-0.9331665,0.4130249,-0.4375,-0.78125,-0.703125
640,640,1727708453434,-0.16503906,-0.9385376,0.40789795,-1.015625,-0.234375,-0.390625
641,641,1727708453474,-0.16137695,-0.9429321,0.41082764,-1.28125,-0.390625,-0.484375
642,642,1727708453514,-0.16479492,-0.93829346,0.42767334,-0.671875,-0.546875,-0.859375
643,643,1727708453554,-0.18017578,-0.9348755,0.41156006,0.328125,-0.1875,-0.34375
644,644,1727708453594,-0.15625,-0.9421997,0.40570068,-3.46875,0.28125,-0.640625
645,645,1727708453634,-0.18261719,-0.92755127,0.42425537,-2.8125,-0.609375,-0.96875
646,646,1727708453674,-0.17529297,-0.93096924,0.42913818,-0.546875,0.234375,-0.296875
647,647,1727708453714,-0.15893555,-0.9356079,0.41766357,-0.484375,-0.53125,-0.625
648,648,1727708453754,-0.1796875,-0.9299927,0.4179077,-1.46875,0.625,-1.25
649,649,1727708453794,-0.16845703,-0.93292236,0.43133545,-0.125,-0.265625,-0.515625
650,650,1727708453834,-0.16040039,-0.93536377,0.42352295,-0.984375,-0.625,-0.640625
651,651,1727708453874,-0.17749023,-0.93096924,0.42596436,-1.328125,-0.0625,-0.6875
652,652,1727708453914,-0.17700195,-0.9324341,0.42938232,-0.109375,-0.234375,-0.484375
653,653,1727708453954,-0.17407227,-0.9282837,0.4220581,-0.234375,-0.390625,-0.140625
654,654,1727708453994,-0.171875,-0.93096924,0.42352295,-0.59375,0.078125,-0.796875
655,655,1727708454034,-0.17041016,-0.93634033,0.4303589,-0.359375,-0.0625,-0.21875
656,656,1727708454074,-0.17773438,-0.93170166,0.41864014,-0.625,0.0625,-0.484375
657,657,1727708454114,-0.17578125,-0.9299927,0.43475342,-0.203125,0.171875,-0.53125
658,658,1727708454154,-0.17260742,-0.93048096,0.42816162,-0.296875,-0.015625,-0.484375
659,659,1727708454194,-0.17358398,-0.923645,0.434021,-0.4375,0.0625,-0.34375
660,660,1727708454234,-0.17456055,-0.9307251,0.43060303,-0.46875,0.109375,-0.34375
661,661,1727708454274,-0.16992188,-0.94000244,0.4315796,-0.375,-0.28125,-0.453125
662,662,1727708454314,-0.16821289,-0.9155884,0.432312,-0.625,-0.109375,-0.71875
663,663,1727708454354,-0.17944336,-0.93341064,0.43475342,1.0,-0.09375,-0.375
664,664,1727708454394,-0.1628418,-0.92315674,0.42010498,-1.84375,-0.265625,-0.53125
665,665,1727708454434,-0.1772461,-0.92852783,0.43963623,-2.46875,0.265625,-0.53125
666,666,1727708454474,-0.18286133,-0.93341064,0.43865967,0.609375,0.125,-0.03125
667,667,1727708454514,-0.16821289,-0.9180298,0.4298706,0.0,0.359375,-0.34375
668,668,1727708454554,-0.16723633,-0.9365845,0.43597412,-0.125,0.3125,-0.296875
669,669,1727708454594,-0.18383789,-0.92803955,0.43328857,0.28125,-0.390625,-0.21875
670,670,1727708454634,-0.16894531,-0.9265747,0.43133545,0.59375,0.09375,-0.171875
671,671,1727708454674,-0.17749023,-0.9314575,0.4328003,-0.640625,0.015625,-0.34375
672,672,1727708454714,-0.16870117,-0.93634033,0.43182373,0.328125,0.03125,-0.296875
673,673,1727708454754,-0.17529297,-0.9234009,0.43377686,0.21875,-0.3125,0.109375
674,674,1727708454794,-0.17602539,-0.9295044,0.43206787,-0.1875,-0.125,-0.5625
675,675,1727708454834,-0.17236328,-0.92437744,0.42938232,-0.015625,-0.421875,-0.453125
676,676,1727708454874,-0.17626953,-0.92388916,0.4389038,0.0,-0.265625,-0.1875
677,677,1727708454914,-0.16625977,-0.9290161,0.42132568,0.375,-0.28125,-0.125
678,678,1727708454954,-0.17895508,-0.92437744,0.4298706,0.0,-1.0,-0.640625
679,679,1727708454994,-0.16845703,-0.9277954,0.43914795,0.578125,-0.453125,0.203125
680,680,1727708455034,-0.17114258,-0.9336548,0.4220581,0.53125,-0.171875,-0.03125
681,681,1727708455074,-0.17895508,-0.9312134,0.4220581,0.125,-0.203125,-0.25
682,682,1727708455114,-0.16894531,-0.9273071,0.42840576,1.171875,-0.296875,-0.140625
683,683,1727708455154,-0.18383789,-0.92926025,0.43695068,1.359375,-0.46875,-0.140625
684,684,1727708455194,-0.17236328,-0.93707275,0.41033936,-0.015625,-0.734375,0.15625
685,685,1727708455234,-0.16918945,-0.9258423,0.42034912,-1.890625,0.046875,-0.609375
686,686,1727708455274,-0.1899414,-0.9390259,0.43670654,1.171875,-0.5625,0.265625
687,687,1727708455314,-0.1665039,-0.92022705,0.41888428,1.046875,0.15625,-0.140625
688,688,1727708455354,-0.17504883,-0.94000244,0.41741943,0.328125,0.515625,-0.234375
689,689,1727708455394,-0.17016602,-0.93756104,0.4225464,0.625,-1.0,0.53125
690,690,1727708455434,-0.15820312,-0.93096924,0.41522217,1.75,-0.84375,0.203125
691,691,1727708455474,-0.171875,-0.9402466,0.41619873,-0.015625,-0.171875,0.03125
692,692,1727708455514,-0.18066406,-0.9368286,0.4208374,0.8125,-0.546875,0.484375
693,693,1727708455554,-0.16235352,-0.9336548,0.41497803,1.453125,-0.546875,0.328125
694,694,1727708455594,-0.16894531,-0.9312134,0.41741943,0.515625,-0.328125,0.015625
695,695,1727708455634,-0.16625977,-0.93829346,0.41278076,1.265625,-0.34375,0.171875
696,696,1727708455674,-0.17138672,-0.94073486,0.4154663,0.8125,-0.53125,-0.109375
697,697,1727708455714,-0.17138672,-0.9265747,0.4159546,0.4375,-0.515625,0.0
698,698,1727708455754,-0.16552734,-0.9378052,0.40911865,0.625,-0.3125,0.109375
699,699,1727708455794,-0.17333984,-0.9421997,0.41107178,0.625,-0.625,-0.28125
700,700,1727708455834,-0.16503906,-0.9365845,0.41033936,0.46875,-0.46875,0.015625
701,701,1727708455874,-0.15991211,-0.9402466,0.40252686,0.5625,0.03125,-0.078125
702,702,1727708455914,-0.16333008,-0.94000244,0.40618896,0.375,-0.1875,-0.046875
703,703,1727708455954,-0.16772461,-0.94195557,0.40374756,0.28125,0.046875,-0.171875
704,704,1727708455994,-0.15454102,-0.9434204,0.40740967,-0.03125,-0.328125,-0.171875
705,705,1727708456034,-0.16479492,-0.93951416,0.40081787,-0.203125,0.203125,-0.125
706,706,1727708456074,-0.16699219,-0.93218994,0.41033936,1.765625,-0.4375,0.140625
707,707,1727708456114,-0.16381836,-0.9475708,0.39593506,-0.359375,0.171875,-0.34375
708,708,1727708456154,-0.16308594,-0.93878174,0.40740967,-1.546875,-0.03125,-0.671875
709,709,1727708456194,-0.17749023,-0.93170166,0.41156006,0.65625,-0.21875,-0.03125
710,710,1727708456234,-0.15161133,-0.93878174,0.39837646,-0.1875,0.078125,-0.328125
711,711,1727708456274,-0.17016602,-0.93634033,0.39544678,-0.921875,-0.328125,-0.296875
712,712,1727708456314,-0.16552734,-0.9385376,0.41107178,-0.984375,-0.421875,-0.5
713,713,1727708456354,-0.16772461,-0.93414307,0.4093628,0.015625,-0.671875,-0.375
714,714,1727708456394,-0.16186523,-0.93756104,0.40130615,-1.5,0.125,-0.5625
715,715,1727708456434,-0.16796875,-0.9429321,0.40374756,-1.40625,-0.625,-0.34375
716,716,1727708456474,-0.16772461,-0.9360962,0.4100952,-0.375,-0.25,-0.265625
717,717,1727708456514,-0.17358398,-0.93341064,0.41448975,-1.15625,-0.21875,-0.5625
718,718,1727708456554,-0.16064453,-0.94244385,0.4147339,-1.296875,-0.484375,-0.484375
719,719,1727708456594,-0.16308594,-0.9338989,0.416687,-1.125,-0.359375,-0.609375
720,720,1727708456634,-0.17553711,-0.9343872,0.41619873,-0.984375,0.0,-0.5625
721,721,1727708456674,-0.16772461,-0.9343872,0.41497803,-0.703125,-0.03125,-0.46875
722,722,1727708456714,-0.17285156,-0.92926025,0.41619873,-1.078125,-0.234375,-0.625
723,723,1727708456754,-0.16992188,-0.93218994,0.42401123,-1.078125,-0.21875,-0.453125
724,724,1727708456794,-0.16870117,-0.9324341,0.416687,-0.6875,-0.390625,-0.671875
725,725,1727708456834,-0.17480469,-0.93756104,0.41815186,-0.546875,-0.03125,-0.46875
726,726,1727708456874,-0.17138672,-0.9314575,0.41326904,-1.53125,-0.25,-0.328125
727,727,1727708456914,-0.17163086,-0.93585205,0.41766357,-1.546875,-0.6875,-0.578125
728,728,1727708456954,-0.17651367,-0.92266846,0.43304443,-0.640625,-0.828125,-0.609375
729,729,1727708456994,-0.17504883,-0.94537354,0.4118042,-0.703125,-0.328125,-0.125
730,730,1727708457034,-0.15576172,-0.9248657,0.41326904,-2.71875,-0.15625,-1.265625
731,731,1727708457074,-0.18164062,-0.9338989,0.4328003,-2.171875,-0.359375,-0.46875
732,732,1727708457114,-0.17602539,-0.925354,0.4376831,0.578125,-0.078125,-0.171875
733,733,1727708457154,-0.1665039,-0.9295044,0.42645264,-0.125,-0.71875,-0.125
734,734,1727708457194,-0.18066406,-0.9282837,0.42034912,-0.84375,-0.421875,-0.6875
735,735,1727708457234,-0.17553711,-0.925354,0.4364624,1.203125,-0.34375,-0.265625
736,736,1727708457274,-0.1694336,-0.9265747,0.43426514,-0.65625,0.140625,-0.34375
737,737,1727708457314,-0.18383789,-0.9380493,0.42889404,-0.09375,-0.078125,-0.328125
738,738,1727708457354,-0.17382812,-0.9290161,0.4232788,0.265625,-0.296875,-0.03125
739,739,1727708457394,-0.17626953,-0.9326782,0.4257202,0.171875,-0.09375,-0.171875
740,740,1727708457434,-0.17651367,-0.92755127,0.42791748,-0.4375,0.265625,-0.234375
741,741,1727708457474,-0.16699219,-0.9365845,0.4303589,0.0,0.25,-0.375
742,742,1727708457514,-0.17236328,-0.9282837,0.42596436,-0.15625,-0.015625,-0.59375
743,743,1727708457554,-0.17456055,-0.9307251,0.4298706,-0.109375,0.015625,-0.21875
744,744,1727708457594,-0.1809082,-0.9299927,0.42645264,-0.21875,0.359375,-0.546875
745,745,1727708457634,-0.17089844,-0.9348755,0.4303589,-0.5625,0.578125,-0.5625
746,746,1727708457674,-0.1694336,-0.93414307,0.42889404,-0.5,-0.296875,-0.109375
747,747,1727708457714,-0.16479492,-0.927063,0.42132568,-0.1875,0.1875,-0.625
748,748,1727708457754,-0.17285156,-0.927063,0.43206787,-0.203125,0.015625,-0.34375
749,749,1727708457794,-0.16845703,-0.92755127,0.4303589,-0.875,0.5625,-0.40625
750,750,1727708457834,-0.16308594,-0.93048096,0.42889404,-0.734375,0.078125,-0.34375
751,751,1727708457874,-0.17871094,-0.9199829,0.4328003,1.0,-0.421875,-0.28125
752,752,1727708457914,-0.17456055,-0.92437744,0.41400146,-1.5625,0.15625,-0.140625
753,753,1727708457954,-0.16308594,-0.9336548,0.42962646,-2.484375,0.4375,-0.625
754,754,1727708457994,-0.18066406,-0.9302368,0.44036865,-0.296875,-0.03125,0.078125
755,755,1727708458034,-0.16430664,-0.9224243,0.43182373,-0.109375,-0.5625,-0.203125
756,756,1727708458074,-0.17553711,-0.928772,0.43377686,-0.3125,-0.15625,-0.1875
757,757,1727708458114,-0.17578125,-0.9273071,0.43865967,-0.296875,-0.25,0.109375
758,758,1727708458154,-0.18237305,-0.92755127,0.43084717,0.703125,-0.296875,-0.09375
759,759,1727708458194,-0.17114258,-0.9314575,0.43548584,-0.890625,-0.09375,-0.1875
