,Unnamed: 0,timestamp,accel_x,accel_y,accel_z,gyro_x,gyro_y,gyro_z
0,0,1729188913075,-0.055908203,-0.8999634,0.4940796,-0.015625,-0.09375,0.125
1,1,1729188913115,-0.041992188,-0.8904419,0.47625732,1.21875,-1.75,1.109375
2,2,1729188913155,-0.026123047,-0.9067993,0.4779663,-1.171875,0.890625,-0.5625
3,3,1729188913195,-0.043945312,-0.9053345,0.50579834,-1.28125,-1.640625,0.46875
4,4,1729188913235,-0.030517578,-0.90631104,0.4887085,1.4375,0.578125,-0.109375
5,5,1729188913275,-0.04248047,-0.897522,0.4833374,0.578125,0.015625,0.75
6,6,1729188913315,-0.028076172,-0.894104,0.48651123,1.015625,0.828125,-0.3125
7,7,1729188913355,-0.030517578,-0.89678955,0.4862671,0.75,-0.328125,-0.015625
8,8,1729188913395,-0.040039062,-0.90753174,0.47943115,0.921875,1.375,-0.140625
9,9,1729188913435,-0.038330078,-0.9048462,0.49822998,0.6875,0.453125,0.265625
10,10,1729188913475,-0.033691406,-0.9060669,0.4804077,0.140625,1.328125,0.203125
11,11,1729188913515,-0.03100586,-0.8909302,0.4796753,0.296875,0.078125,-0.125
12,12,1729188913555,-0.030761719,-0.9067993,0.46307373,0.71875,0.234375,-0.109375
13,13,1729188913595,-0.029785156,-0.9011841,0.46331787,-0.03125,0.1875,-0.171875
14,14,1729188913635,-0.029052734,-0.9011841,0.48553467,0.5625,-0.421875,-0.1875
15,15,1729188913675,-0.025146484,-0.8933716,0.47698975,1.796875,1.0625,0.234375
16,16,1729188913715,-0.030029297,-0.89678955,0.47113037,1.5625,-0.359375,-0.578125
17,17,1729188913755,-0.03564453,-0.91485596,0.4689331,1.09375,-0.53125,-0.890625
18,18,1729188913795,-0.03149414,-0.9121704,0.46551514,2.875,0.96875,-0.65625
19,19,1729188913835,-0.030029297,-0.91290283,0.46820068,0.09375,-0.25,-1.28125
20,20,1729188913875,-0.043945312,-0.9085083,0.46380615,-0.546875,-0.171875,-0.609375
21,21,1729188913915,-0.048828125,-0.89923096,0.46380615,-0.015625,0.125,0.5625
22,22,1729188913955,-0.032714844,-0.91119385,0.4743042,-0.375,0.921875,-0.046875
23,23,1729188913995,-0.027832031,-0.90582275,0.4779663,0.203125,-0.140625,0.203125
24,24,1729188914035,-0.034179688,-0.90802,0.47601318,-0.109375,-0.890625,-0.0625
25,25,1729188914075,-0.042236328,-0.9109497,0.46429443,0.828125,-0.046875,0.390625
26,26,1729188914115,-0.03881836,-0.9133911,0.4677124,-0.25,-0.96875,0.046875
27,27,1729188914155,-0.036132812,-0.90997314,0.46429443,-1.1875,0.53125,-0.5
28,28,1729188914195,-0.033447266,-0.8875122,0.46136475,-0.53125,0.265625,-0.171875
29,29,1729188914235,-0.043945312,-0.91656494,0.48260498,-0.421875,-0.171875,-0.140625
30,30,1729188914275,-0.038330078,-0.9048462,0.47528076,0.296875,1.328125,-0.140625
31,31,1729188914315,-0.033691406,-0.9038696,0.47747803,-0.453125,1.609375,0.015625
32,32,1729188914355,-0.03540039,-0.91412354,0.47210693,-1.125,0.5,-0.15625
33,33,1729188914395,-0.030517578,-0.9158325,0.4718628,-0.015625,1.671875,-1.765625
34,34,1729188914435,-0.037841797,-0.90338135,0.46502686,0.03125,3.125,-1.5625
35,35,1729188914475,-0.052246094,-0.8916626,0.48675537,-1.984375,-0.125,0.234375
36,36,1729188914515,-0.043701172,-0.90753174,0.47283936,-1.390625,0.03125,-0.1875
37,37,1729188914555,-0.043701172,-0.91290283,0.46966553,0.34375,1.125,-0.046875
38,38,1729188914595,-0.040527344,-0.9089966,0.47625732,-0.765625,0.21875,0.6875
39,39,1729188914635,-0.029785156,-0.9006958,0.47747803,-0.78125,-0.53125,0.4375
40,40,1729188914675,-0.033203125,-0.9126587,0.46820068,-1.09375,0.796875,-0.71875
41,41,1729188914715,-0.033691406,-0.90167236,0.4862671,0.890625,1.0,0.359375
42,42,1729188914755,-0.038085938,-0.90997314,0.4821167,-0.515625,0.28125,-0.265625
43,43,1729188914795,-0.037109375,-0.90167236,0.47772217,-0.53125,0.671875,-0.34375
44,44,1729188914835,-0.03100586,-0.9072876,0.47088623,-2.546875,0.125,-1.078125
45,45,1729188914875,-0.03564453,-0.8999634,0.47991943,0.421875,0.203125,-0.4375
46,46,1729188914915,-0.036376953,-0.90704346,0.48480225,-0.5625,1.1875,0.03125
47,47,1729188914955,-0.03564453,-0.91192627,0.4857788,-2.953125,-0.421875,-1.3125
48,48,1729188914995,-0.037109375,-0.9036255,0.4874878,-1.734375,-0.375,-0.828125
49,49,1729188915035,-0.049316406,-0.9014282,0.49188232,0.421875,0.875,-1.078125
50,50,1729188915075,-0.040527344,-0.89263916,0.49993896,-0.625,-1.28125,-0.296875
51,51,1729188915115,-0.037109375,-0.90216064,0.4882202,-0.375,0.0625,-0.609375
52,52,1729188915155,-0.045654297,-0.8882446,0.4862671,1.234375,0.28125,0.3125
53,53,1729188915195,-0.051513672,-0.9133911,0.47601318,-1.359375,0.25,-0.6875
54,54,1729188915235,-0.052734375,-0.8909302,0.49090576,0.484375,0.078125,-0.328125
55,55,1729188915275,-0.050048828,-0.9024048,0.4833374,1.484375,0.25,0.28125
56,56,1729188915315,-0.037597656,-0.9002075,0.48968506,2.015625,0.640625,0.015625
57,57,1729188915355,-0.049804688,-0.90631104,0.48529053,1.21875,0.828125,0.203125
58,58,1729188915395,-0.040527344,-0.9085083,0.48236084,1.0625,0.546875,0.359375
59,59,1729188915435,-0.030517578,-0.89971924,0.4677124,0.3125,1.328125,0.0
60,60,1729188915475,-0.044677734,-0.9053345,0.47698975,-0.359375,-0.359375,-0.0625
61,61,1729188915515,-0.040283203,-0.9121704,0.4743042,0.40625,1.375,-0.140625
62,62,1729188915555,-0.04638672,-0.90167236,0.48797607,1.6875,0.65625,0.796875
63,63,1729188915595,-0.044677734,-0.89971924,0.47625732,0.234375,-0.28125,0.21875
64,64,1729188915635,-0.04711914,-0.913147,0.47772217,1.75,0.171875,0.75
65,65,1729188915675,-0.030517578,-0.9055786,0.47039795,0.578125,1.125,-0.0625
66,66,1729188915715,-0.029052734,-0.913147,0.46673584,-0.265625,1.03125,-0.28125
67,67,1729188915755,-0.04272461,-0.894104,0.47698975,0.21875,-0.046875,0.125
68,68,1729188915795,-0.03125,-0.89678955,0.46380615,-0.453125,0.15625,0.125
69,69,1729188915835,-0.040039062,-0.9104614,0.4755249,-0.46875,-0.28125,-0.375
70,70,1729188915875,-0.034179688,-0.9116821,0.47503662,0.171875,0.3125,0.109375
71,71,1729188915915,-0.028320312,-0.9092407,0.46575928,-0.03125,-0.015625,0.015625
72,72,1729188915955,-0.04248047,-0.91363525,0.47576904,0.671875,-0.15625,-0.09375
73,73,1729188915995,-0.041015625,-0.9077759,0.4640503,-0.46875,-0.265625,0.1875
74,74,1729188916035,-0.030517578,-0.9104614,0.46624756,-0.640625,-0.34375,-0.296875
75,75,1729188916075,-0.0390625,-0.90948486,0.47039795,-0.03125,0.53125,-0.40625
76,76,1729188916115,-0.03515625,-0.9002075,0.47821045,-0.1875,-0.421875,-0.578125
77,77,1729188916155,-0.044921875,-0.9060669,0.4796753,-1.109375,0.1875,-0.078125
78,78,1729188916195,-0.037597656,-0.8882446,0.47576904,0.078125,-0.1875,0.0
79,79,1729188916235,-0.024902344,-0.8982544,0.46038818,0.640625,-0.109375,-0.53125
80,80,1729188916275,-0.03857422,-0.9104614,0.47479248,1.0625,0.0625,-0.0625
81,81,1729188916315,-0.03540039,-0.9158325,0.4713745,-0.84375,0.421875,-0.765625
82,82,1729188916355,-0.041748047,-0.9006958,0.47576904,1.453125,1.265625,-0.53125
83,83,1729188916395,-0.032226562,-0.9024048,0.45721436,3.859375,3.015625,0.859375
84,84,1729188916435,-0.036865234,-0.9060669,0.45941162,4.09375,2.609375,0.46875
85,85,1729188916475,-0.043945312,-0.92755127,0.46551514,0.5,0.0625,-0.4375
86,86,1729188916515,-0.03540039,-0.9109497,0.45770264,-0.21875,-0.359375,-0.53125
87,87,1729188916555,-0.035888672,-0.9067993,0.45819092,-1.21875,-0.5,-0.375
88,88,1729188916595,-0.022949219,-0.9065552,0.4694214,-0.953125,-0.078125,-0.578125
89,89,1729188916635,-0.046142578,-0.9055786,0.46868896,-0.75,-0.90625,-0.515625
90,90,1729188916675,-0.049072266,-0.9121704,0.46307373,-1.234375,-0.140625,-0.0625
91,91,1729188916715,-0.032226562,-0.90338135,0.46429443,-1.203125,0.59375,-0.234375
92,92,1729188916755,-0.043701172,-0.9036255,0.46722412,0.265625,0.453125,0.34375
93,93,1729188916795,-0.032958984,-0.9187622,0.47381592,0.203125,1.40625,0.953125
94,94,1729188916835,-0.05053711,-0.9077759,0.47113037,-1.859375,0.65625,0.3125
95,95,1729188916875,-0.030029297,-0.9102173,0.46990967,-1.5625,0.15625,-0.53125
96,96,1729188916915,-0.032958984,-0.90631104,0.46746826,-0.875,-0.40625,0.296875
97,97,1729188916955,-0.044433594,-0.90509033,0.4623413,-0.453125,0.078125,-0.140625
98,98,1729188916995,-0.045166016,-0.9002075,0.47869873,1.109375,0.484375,0.078125
99,99,1729188917035,-0.041992188,-0.8948364,0.47894287,1.40625,0.828125,0.203125
100,100,1729188917075,-0.022216797,-0.8862915,0.46209717,0.828125,-1.421875,0.046875
101,101,1729188917115,-0.011230469,-0.8945923,0.4694214,0.234375,-7.640625,-1.5625
102,102,1729188917155,-0.049560547,-0.8977661,0.45526123,3.828125,-2.515625,1.328125
103,103,1729188917195,-0.07324219,-0.94317627,0.45306396,3.65625,3.5625,1.328125
104,104,1729188917235,-0.033447266,-0.9702759,0.46429443,1.921875,3.359375,-0.234375
105,105,1729188917275,-0.03173828,-0.9158325,0.47113037,0.234375,0.90625,0.40625
106,106,1729188917315,-0.02368164,-0.8928833,0.432312,-2.015625,0.671875,0.78125
107,107,1729188917355,-0.033691406,-0.91607666,0.43011475,-4.15625,1.390625,-0.25
108,108,1729188917395,-0.057373047,-0.9265747,0.46917725,-1.375,-0.3125,-0.421875
109,109,1729188917435,-0.04272461,-0.9077759,0.4623413,0.671875,2.09375,0.265625
110,110,1729188917475,-0.033691406,-0.9048462,0.46575928,-0.625,1.6875,0.828125
111,111,1729188917515,-0.032470703,-0.9053345,0.463562,-1.0,-0.25,-0.0625
112,112,1729188917555,-0.036376953,-0.91192627,0.47161865,1.15625,-0.5625,0.359375
113,113,1729188917595,-0.03930664,-0.90631104,0.46258545,0.203125,0.296875,0.609375
114,114,1729188917635,-0.036132812,-0.9067993,0.46746826,0.34375,-0.578125,0.5
115,115,1729188917675,-0.026855469,-0.9151001,0.46990967,0.71875,1.0,0.46875
116,116,1729188917715,-0.030761719,-0.91412354,0.45648193,0.796875,0.375,0.296875
117,117,1729188917755,-0.036621094,-0.9031372,0.47479248,1.3125,0.78125,0.234375
118,118,1729188917795,-0.022705078,-0.92852783,0.4533081,0.359375,3.515625,0.9375
119,119,1729188917835,-0.01171875,-0.91119385,0.46209717,0.84375,1.421875,0.0625
120,120,1729188917875,-0.020019531,-0.9138794,0.46673584,-1.203125,0.09375,-0.671875
121,121,1729188917915,-0.037109375,-0.9085083,0.46209717,0.765625,0.53125,-1.5
122,122,1729188917955,-0.027832031,-0.9133911,0.46087646,0.671875,0.921875,-0.375
123,123,1729188917995,-0.011230469,-0.9221802,0.45526123,-0.4375,1.015625,-1.359375
124,124,1729188918035,-0.0390625,-0.90802,0.45306396,-1.734375,-0.203125,-1.046875
125,125,1729188918075,-0.03515625,-0.9241333,0.463562,-0.15625,0.421875,-0.46875
126,126,1729188918115,-0.025146484,-0.9158325,0.4677124,1.015625,1.5,0.40625
127,127,1729188918155,-0.020019531,-0.90948486,0.45062256,-2.34375,-0.59375,-0.90625
128,128,1729188918195,-0.030761719,-0.9212036,0.4557495,-0.90625,-0.328125,-0.640625
129,129,1729188918235,-0.03857422,-0.9085083,0.45648193,0.59375,0.796875,0.15625
130,130,1729188918275,-0.028320312,-0.91900635,0.46087646,-0.0625,-0.078125,-1.09375
131,131,1729188918315,-0.02758789,-0.92510986,0.4562378,0.625,1.203125,-0.1875
132,132,1729188918355,-0.03881836,-0.897522,0.4611206,1.078125,0.5,-0.3125
133,133,1729188918395,-0.030761719,-0.9067993,0.45965576,-0.453125,-0.015625,-0.34375
134,134,1729188918435,-0.040283203,-0.9170532,0.45599365,-0.75,0.671875,-0.21875
135,135,1729188918475,-0.026855469,-0.925354,0.4562378,-1.734375,0.640625,-0.59375
136,136,1729188918515,-0.029785156,-0.9104614,0.46722412,0.328125,-0.03125,-0.25
137,137,1729188918555,-0.036376953,-0.8843384,0.46795654,0.96875,1.234375,0.734375
138,138,1729188918595,-0.032714844,-0.90460205,0.45355225,0.359375,-0.875,0.15625
139,139,1729188918635,-0.028320312,-0.9224243,0.46697998,1.6875,-0.1875,-0.234375
140,140,1729188918675,-0.030517578,-0.9002075,0.45819092,2.453125,0.515625,0.53125
141,141,1729188918715,-0.025146484,-0.9024048,0.45550537,1.984375,-0.1875,0.34375
142,142,1729188918755,-0.03173828,-0.94537354,0.43719482,-0.328125,1.375,1.625
143,143,1729188918795,-0.027832031,-0.9241333,0.46429443,-1.46875,-0.40625,-0.5625
144,144,1729188918835,-0.023925781,-0.91534424,0.45843506,-2.140625,-0.8125,-0.578125
145,145,1729188918875,-0.0390625,-0.91607666,0.45135498,-3.21875,-0.671875,-1.078125
146,146,1729188918915,-0.035888672,-0.9151001,0.44696045,0.265625,0.1875,0.4375
147,147,1729188918955,-0.041015625,-0.9180298,0.4647827,0.375,0.546875,-0.203125
148,148,1729188918995,-0.03540039,-0.9194946,0.45965576,1.15625,1.6875,-0.015625
149,149,1729188919035,-0.030517578,-0.9011841,0.45306396,0.96875,0.515625,0.796875
150,150,1729188919075,-0.028564453,-0.91656494,0.46331787,-0.140625,0.046875,-0.21875
151,151,1729188919115,-0.041748047,-0.90802,0.46087646,0.625,0.890625,-0.328125
152,152,1729188919155,-0.02758789,-0.9060669,0.44989014,1.90625,1.265625,0.65625
153,153,1729188919195,-0.027832031,-0.9065552,0.46136475,3.046875,0.921875,0.609375
154,154,1729188919235,-0.018066406,-0.9212036,0.44110107,5.109375,0.25,1.359375
155,155,1729188919275,-0.016845703,-0.94317627,0.42279053,-0.4375,-0.765625,1.171875
156,156,1729188919315,-0.029541016,-0.9299927,0.4491577,-1.875,-0.234375,-0.25
157,157,1729188919355,-0.020507812,-0.9109497,0.44232178,-2.765625,-1.71875,-0.6875
158,158,1729188919395,-0.02709961,-0.92193604,0.44769287,-0.4375,1.109375,0.484375
159,159,1729188919435,-0.024414062,-0.9138794,0.44744873,-0.4375,-0.375,0.234375
160,160,1729188919475,-0.037597656,-0.90289307,0.45013428,-1.3125,-1.015625,-0.1875
161,161,1729188919515,-0.02734375,-0.92193604,0.45526123,0.5,-0.03125,0.25
162,162,1729188919555,-0.022705078,-0.9126587,0.44451904,0.015625,0.15625,0.390625
163,163,1729188919595,-0.024902344,-0.9102173,0.4484253,-0.953125,-0.34375,0.34375
164,164,1729188919635,-0.01977539,-0.9038696,0.45135498,0.71875,0.265625,0.21875
165,165,1729188919675,-0.016601562,-0.91973877,0.43377686,0.1875,1.671875,0.359375
166,166,1729188919715,-0.037597656,-0.90997314,0.4586792,-0.609375,-1.171875,-0.015625
167,167,1729188919755,-0.021728516,-0.91485596,0.4364624,0.578125,0.390625,0.234375
168,168,1729188919795,-0.033935547,-0.9209595,0.4574585,0.859375,-0.203125,0.953125
169,169,1729188919835,-0.023925781,-0.91778564,0.44989014,0.25,-0.28125,0.171875
170,170,1729188919875,-0.023925781,-0.92755127,0.4484253,-0.75,-0.09375,-0.09375
171,171,1729188919915,-0.0234375,-0.90582275,0.44451904,-0.46875,0.296875,-0.015625
172,172,1729188919955,-0.019042969,-0.9180298,0.43499756,-1.703125,0.21875,-0.9375
173,173,1729188919995,-0.020996094,-0.91290283,0.45794678,0.25,0.515625,-0.90625
174,174,1729188920035,-0.019042969,-0.90289307,0.44769287,0.25,0.4375,-0.328125
175,175,1729188920075,-0.030517578,-0.91607666,0.4569702,-0.640625,-0.1875,-0.265625
176,176,1729188920115,-0.036132812,-0.92803955,0.4557495,-0.875,0.09375,-0.796875
177,177,1729188920155,-0.029785156,-0.911438,0.46185303,-0.0625,-0.1875,0.078125
178,178,1729188920195,-0.01928711,-0.91729736,0.447937,-1.5625,0.296875,-0.875
179,179,1729188920235,-0.032714844,-0.9158325,0.4598999,0.3125,-0.109375,0.0625
180,180,1729188920275,-0.03173828,-0.9077759,0.44989014,-0.328125,0.390625,-0.21875
181,181,1729188920315,-0.029541016,-0.913147,0.45599365,-0.796875,0.765625,-0.84375
182,182,1729188920355,-0.026855469,-0.9077759,0.45550537,-0.40625,0.0,-0.078125
183,183,1729188920395,-0.028320312,-0.91119385,0.45599365,-0.5,0.71875,-0.453125
184,184,1729188920435,-0.017578125,-0.9116821,0.45355225,0.8125,1.015625,-0.609375
185,185,1729188920475,-0.026611328,-0.90631104,0.45892334,0.046875,0.25,-0.359375
186,186,1729188920515,-0.032470703,-0.91656494,0.45916748,-0.21875,0.25,-0.734375
187,187,1729188920555,-0.02758789,-0.9072876,0.44403076,-0.859375,0.125,-0.96875
188,188,1729188920595,-0.03881836,-0.9089966,0.46185303,-0.171875,-0.28125,-0.703125
189,189,1729188920635,-0.03173828,-0.92974854,0.4713745,-0.109375,0.125,-0.359375
190,190,1729188920675,-0.03100586,-0.90948486,0.46063232,-1.3125,-0.25,-0.234375
191,191,1729188920715,-0.03125,-0.9155884,0.45721436,-1.71875,0.515625,-0.921875
192,192,1729188920755,-0.038085938,-0.9163208,0.46209717,-0.3125,0.234375,-0.046875
193,193,1729188920795,-0.032226562,-0.90802,0.4550171,-0.0625,-0.234375,-0.375
194,194,1729188920835,-0.041259766,-0.913147,0.4664917,1.015625,-0.328125,-0.703125
195,195,1729188920875,-0.02319336,-0.92144775,0.4562378,1.25,0.890625,-0.171875
196,196,1729188920915,-0.036376953,-0.9146118,0.47039795,-0.734375,0.34375,-0.671875
197,197,1729188920955,-0.040283203,-0.9065552,0.46307373,-0.453125,0.265625,-0.578125
198,198,1729188920995,-0.037841797,-0.9116821,0.45428467,-0.5,0.359375,0.28125
199,199,1729188921035,-0.044189453,-0.9158325,0.45355225,-0.390625,0.3125,-0.46875
200,200,1729188921075,-0.043701172,-0.9055786,0.46087646,0.78125,0.421875,0.0625
201,201,1729188921115,-0.035888672,-0.90704346,0.4623413,0.203125,-0.0625,0.03125
202,202,1729188921155,-0.033691406,-0.9146118,0.44769287,-1.28125,0.0625,-0.46875
203,203,1729188921195,-0.036865234,-0.9102173,0.46307373,-0.3125,-0.5625,-0.90625
204,204,1729188921235,-0.044189453,-0.91607666,0.46844482,0.5,0.84375,0.0625
205,205,1729188921275,-0.037841797,-0.91534424,0.46014404,0.171875,0.859375,0.5625
206,206,1729188921315,-0.028564453,-0.9143677,0.46502686,-1.0625,-0.046875,-0.140625
207,207,1729188921355,-0.036132812,-0.9060669,0.45916748,0.359375,0.15625,0.65625
208,208,1729188921395,-0.029541016,-0.91778564,0.45892334,-0.203125,1.421875,-0.09375
209,209,1729188921435,-0.036376953,-0.91851807,0.46673584,0.3125,0.09375,-0.21875
210,210,1729188921475,-0.029052734,-0.91656494,0.45355225,0.53125,0.84375,-0.046875
211,211,1729188921515,-0.04248047,-0.9116821,0.45184326,0.390625,1.59375,-1.5
212,212,1729188921555,-0.04736328,-0.91070557,0.46551514,0.0625,2.171875,-1.6875
213,213,1729188921595,-0.044433594,-0.89923096,0.46844482,-0.578125,0.515625,0.921875
214,214,1729188921635,-0.015625,-0.92437744,0.4557495,-1.53125,0.0625,-0.171875
215,215,1729188921675,-0.036865234,-0.90875244,0.4569702,1.125,1.0,0.359375
216,216,1729188921715,-0.041992188,-0.9092407,0.45965576,0.453125,0.109375,0.546875
217,217,1729188921755,-0.025390625,-0.91729736,0.4574585,-0.1875,0.625,-0.328125
218,218,1729188921795,-0.036865234,-0.90289307,0.45037842,-1.0,-0.890625,0.125
219,219,1729188921835,-0.0390625,-0.91192627,0.46429443,0.390625,-0.0625,0.828125
220,220,1729188921875,-0.024414062,-0.9158325,0.45965576,0.53125,0.875,0.34375
221,221,1729188921915,-0.03100586,-0.9085083,0.4569702,-0.328125,-0.703125,0.21875
222,222,1729188921955,-0.03564453,-0.9143677,0.4562378,-1.25,-0.75,0.265625
223,223,1729188921995,-0.026855469,-0.9121704,0.45819092,-0.078125,-0.046875,0.296875
224,224,1729188922035,-0.03173828,-0.9146118,0.46722412,0.28125,0.203125,-0.03125
225,225,1729188922075,-0.033691406,-0.9138794,0.45648193,-0.75,-0.5625,0.015625
226,226,1729188922115,-0.03515625,-0.9055786,0.45672607,-0.546875,-0.59375,-0.140625
227,227,1729188922155,-0.033935547,-0.91778564,0.4562378,-0.296875,0.078125,0.5625
228,228,1729188922195,-0.03149414,-0.90802,0.46185303,0.1875,-0.171875,-0.140625
229,229,1729188922235,-0.0234375,-0.9180298,0.45404053,-0.59375,0.640625,-0.109375
230,230,1729188922275,-0.030517578,-0.9085083,0.46795654,0.09375,-0.078125,-0.1875
231,231,1729188922315,-0.030273438,-0.9038696,0.4550171,-0.0625,0.125,-0.03125
232,232,1729188922355,-0.03125,-0.91192627,0.4454956,-0.71875,0.515625,-0.203125
233,233,1729188922395,-0.033447266,-0.9072876,0.45916748,-0.28125,0.140625,-0.484375
234,234,1729188922435,-0.026855469,-0.9155884,0.46575928,-0.203125,-0.453125,-0.1875
235,235,1729188922475,-0.025634766,-0.91778564,0.4616089,0.1875,1.4375,-0.5625
236,236,1729188922515,-0.032226562,-0.9089966,0.46307373,-1.421875,-0.59375,-0.1875
237,237,1729188922555,-0.033203125,-0.9102173,0.46014404,-1.515625,-0.890625,-0.640625
238,238,1729188922595,-0.028076172,-0.90997314,0.4557495,1.0625,0.9375,0.484375
239,239,1729188922635,-0.030517578,-0.9060669,0.47943115,-0.671875,-0.765625,-0.328125
240,240,1729188922675,-0.030517578,-0.90875244,0.4586792,1.21875,0.59375,-0.046875
241,241,1729188922715,-0.034179688,-0.9077759,0.47283936,1.234375,-0.53125,-0.078125
242,242,1729188922755,-0.03173828,-0.9163208,0.47454834,-0.671875,-0.703125,-0.109375
243,243,1729188922795,-0.026855469,-0.9077759,0.45281982,-0.453125,-0.125,-0.171875
244,244,1729188922835,-0.033691406,-0.9077759,0.4640503,-0.328125,-0.609375,-0.03125
245,245,1729188922875,-0.02758789,-0.91070557,0.4508667,0.4375,1.109375,0.21875
246,246,1729188922915,-0.03515625,-0.92437744,0.46185303,-2.25,-0.46875,0.234375
247,247,1729188922955,-0.021972656,-0.8977661,0.4755249,-2.84375,0.515625,-0.515625
248,248,1729188922995,-0.023925781,-0.9036255,0.45428467,-2.546875,1.84375,-1.078125
249,249,1729188923035,-0.03540039,-0.913147,0.4784546,-1.484375,-0.0625,-1.015625
250,250,1729188923075,-0.038085938,-0.90704346,0.4833374,0.484375,0.03125,0.046875
251,251,1729188923115,-0.033691406,-0.9038696,0.47503662,-0.859375,-0.734375,-0.453125
252,252,1729188923155,-0.03149414,-0.8970337,0.47088623,-1.421875,-1.0,-1.046875
253,253,1729188923195,-0.049072266,-0.8999634,0.47210693,0.984375,-0.953125,-0.34375
254,254,1729188923235,-0.040771484,-0.9109497,0.46990967,1.0625,0.828125,-1.15625
255,255,1729188923275,-0.045654297,-0.909729,0.4887085,1.875,0.75,-0.453125
256,256,1729188923315,-0.04345703,-0.9133911,0.46844482,-0.53125,0.59375,-0.40625
257,257,1729188923355,-0.041259766,-0.9109497,0.4664917,-0.3125,0.328125,0.015625
258,258,1729188923395,-0.036376953,-0.9155884,0.4664917,-0.625,0.109375,-0.921875
259,259,1729188923435,-0.030761719,-0.89971924,0.47503662,1.765625,0.375,0.125
260,260,1729188923475,-0.049804688,-0.8987427,0.46136475,0.609375,-0.125,-0.578125
261,261,1729188923515,-0.053466797,-0.9180298,0.46331787,0.1875,0.953125,-0.28125
262,262,1729188923555,-0.0390625,-0.9212036,0.46624756,1.15625,1.734375,1.140625
263,263,1729188923595,-0.0234375,-0.91851807,0.47332764,-3.15625,-0.21875,-0.140625
264,264,1729188923635,-0.02758789,-0.9067993,0.47869873,-6.0,-3.59375,-3.640625
265,265,1729188923675,-0.060302734,-0.89385986,0.4616089,-2.890625,-0.328125,-1.0625
266,266,1729188923715,-0.068603516,-0.90411377,0.46917725,-2.359375,2.578125,-0.90625
267,267,1729188923755,-0.05444336,-0.8870239,0.49627686,2.140625,3.703125,-0.296875
268,268,1729188923795,-0.027832031,-0.9194946,0.48406982,-1.328125,4.0,0.703125
269,269,1729188923835,-0.037597656,-0.9043579,0.50408936,-0.390625,1.703125,-0.359375
270,270,1729188923875,-0.045654297,-0.9019165,0.48895264,-0.765625,0.546875,1.109375
271,271,1729188923915,-0.025390625,-0.90875244,0.4767456,0.453125,2.765625,-0.1875
272,272,1729188923955,-0.041015625,-0.8867798,0.47869873,2.046875,1.703125,-0.921875
273,273,1729188923995,-0.045898438,-0.9060669,0.4779663,-1.265625,1.734375,-0.71875
274,274,1729188924035,-0.042236328,-0.92022705,0.48846436,0.125,1.703125,0.484375
275,275,1729188924075,-0.024414062,-0.89556885,0.48187256,0.734375,2.5,0.578125
276,276,1729188924115,-0.025878906,-0.90045166,0.479187,-1.15625,0.765625,0.46875
277,277,1729188924155,-0.028808594,-0.895813,0.4911499,-0.421875,0.234375,0.921875
278,278,1729188924195,-0.023925781,-0.9053345,0.48162842,-0.953125,0.03125,-0.21875
279,279,1729188924235,-0.041259766,-0.88848877,0.4804077,-0.90625,-0.859375,0.6875
280,280,1729188924275,-0.025634766,-0.90948486,0.4862671,0.0,0.453125,-0.71875
281,281,1729188924315,-0.034179688,-0.88531494,0.49920654,2.265625,1.28125,0.609375
282,282,1729188924355,-0.029541016,-0.8921509,0.46258545,-0.484375,-0.4375,-0.15625
283,283,1729188924395,-0.036132812,-0.9151001,0.48773193,-0.375,-0.5625,-1.5625
284,284,1729188924435,-0.03857422,-0.90167236,0.46990967,1.0,1.5625,-0.625
285,285,1729188924475,-0.038330078,-0.8965454,0.49017334,0.921875,-1.09375,0.265625
286,286,1729188924515,-0.020507812,-0.9126587,0.479187,-0.96875,0.578125,-1.15625
287,287,1729188924555,-0.037597656,-0.9031372,0.48382568,0.390625,-0.296875,-0.140625
288,288,1729188924595,-0.041015625,-0.9038696,0.48114014,0.171875,-0.875,0.703125
289,289,1729188924635,-0.021240234,-0.8994751,0.4689331,-1.703125,1.203125,-0.859375
290,290,1729188924675,-0.042236328,-0.89923096,0.4923706,0.5,0.25,0.0625
291,291,1729188924715,-0.037109375,-0.9024048,0.47601318,0.09375,-0.734375,-0.3125
292,292,1729188924755,-0.03515625,-0.8948364,0.49163818,0.75,-0.15625,0.359375
293,293,1729188924795,-0.033935547,-0.911438,0.45819092,-0.640625,-0.125,-0.171875
294,294,1729188924835,-0.032470703,-0.9072876,0.46917725,-0.5625,-0.140625,-0.28125
295,295,1729188924875,-0.044921875,-0.9019165,0.4882202,1.203125,-0.90625,0.015625
296,296,1729188924915,-0.022705078,-0.9126587,0.48187256,1.359375,0.953125,0.4375
297,297,1729188924955,-0.034423828,-0.89971924,0.48260498,-0.5,-0.71875,0.671875
298,298,1729188924995,-0.024414062,-0.90948486,0.4718628,-1.3125,0.59375,-0.953125
299,299,1729188925035,-0.041748047,-0.8945923,0.48773193,0.90625,0.125,0.8125
300,300,1729188925075,-0.029541016,-0.9031372,0.47943115,-1.09375,-0.390625,-0.125
301,301,1729188925115,-0.030029297,-0.8994751,0.48016357,1.0,-0.046875,-0.078125
302,302,1729188925155,-0.040771484,-0.89630127,0.47625732,-0.125,0.0,-0.375
303,303,1729188925195,-0.037109375,-0.91363525,0.48187256,0.484375,0.296875,-0.59375
304,304,1729188925235,-0.037353516,-0.91412354,0.4743042,1.40625,0.609375,0.765625
305,305,1729188925275,-0.030761719,-0.90704346,0.47161865,0.265625,0.015625,0.328125
306,306,1729188925315,-0.033691406,-0.9024048,0.47479248,-0.8125,0.46875,-0.359375
307,307,1729188925355,-0.041259766,-0.9121704,0.4833374,-1.078125,0.265625,-0.28125
308,308,1729188925395,-0.03100586,-0.9031372,0.480896,-0.734375,0.65625,0.046875
309,309,1729188925435,-0.031982422,-0.8882446,0.4713745,-0.796875,1.109375,-0.5625
310,310,1729188925475,-0.032714844,-0.91241455,0.47454834,-1.625,1.0,-0.65625
311,311,1729188925515,-0.04663086,-0.8965454,0.48846436,1.984375,1.0,0.34375
312,312,1729188925555,-0.03125,-0.90753174,0.4725952,1.46875,2.109375,0.84375
313,313,1729188925595,-0.030273438,-0.9102173,0.4779663,-0.78125,-0.21875,-0.234375
314,314,1729188925635,-0.033203125,-0.9048462,0.48406982,-0.78125,-0.53125,-0.375
315,315,1729188925675,-0.02709961,-0.9089966,0.46990967,-0.46875,0.53125,-0.3125
316,316,1729188925715,-0.034423828,-0.90582275,0.49041748,-0.390625,0.0625,-0.46875
317,317,1729188925755,-0.03491211,-0.8982544,0.47283936,-0.078125,0.765625,-0.109375
318,318,1729188925795,-0.032470703,-0.8994751,0.48187256,-0.703125,0.109375,-0.234375
319,319,1729188925835,-0.03466797,-0.9036255,0.4767456,-0.015625,0.21875,-0.15625
320,320,1729188925875,-0.026367188,-0.89190674,0.4784546,0.40625,0.40625,0.234375
321,321,1729188925915,-0.026611328,-0.9104614,0.47601318,-0.34375,0.46875,-0.21875
322,322,1729188925955,-0.03515625,-0.9053345,0.4779663,0.03125,0.171875,-0.125
323,323,1729188925995,-0.045410156,-0.8994751,0.47772217,-0.46875,-0.015625,-0.203125
324,324,1729188926035,-0.03466797,-0.90216064,0.47650146,0.6875,0.828125,0.203125
325,325,1729188926075,-0.035888672,-0.8982544,0.4664917,-1.03125,0.734375,-0.296875
326,326,1729188926115,-0.04296875,-0.90875244,0.49310303,-0.328125,-0.890625,-0.5625
327,327,1729188926155,-0.036376953,-0.8928833,0.4899292,1.40625,1.625,0.296875
328,328,1729188926195,-0.033935547,-0.9085083,0.4767456,0.140625,0.40625,-0.015625
329,329,1729188926235,-0.032470703,-0.9104614,0.4743042,0.5,-0.203125,0.03125
330,330,1729188926275,-0.026123047,-0.90997314,0.4725952,1.125,1.15625,-0.078125
331,331,1729188926315,-0.032714844,-0.9163208,0.4706421,2.0625,2.984375,-1.875
332,332,1729188926355,-0.05444336,-0.9014282,0.4804077,2.1875,0.90625,-0.21875
333,333,1729188926395,-0.030517578,-0.9065552,0.46380615,1.21875,1.515625,-0.03125
334,334,1729188926435,-0.029052734,-0.9048462,0.47406006,-0.078125,0.265625,0.265625
335,335,1729188926475,-0.024414062,-0.91900635,0.4713745,-1.1875,0.84375,0.0625
336,336,1729188926515,-0.030517578,-0.9067993,0.47601318,-0.734375,-0.796875,-0.03125
337,337,1729188926555,-0.034179688,-0.9038696,0.4664917,-0.828125,-0.453125,0.75
338,338,1729188926595,-0.029785156,-0.9168091,0.46722412,-0.78125,-0.1875,-0.34375
339,339,1729188926635,-0.033447266,-0.90631104,0.46673584,1.046875,0.015625,0.171875
340,340,1729188926675,-0.029052734,-0.9019165,0.4689331,-0.140625,0.34375,0.203125
341,341,1729188926715,-0.030517578,-0.8965454,0.46868896,-0.203125,0.359375,0.03125
342,342,1729188926755,-0.03173828,-0.909729,0.45428467,-0.796875,-0.65625,0.359375
343,343,1729188926795,-0.027832031,-0.9146118,0.48382568,0.515625,0.9375,-0.515625
344,344,1729188926835,-0.0234375,-0.9036255,0.47332764,-0.1875,0.671875,0.0
345,345,1729188926875,-0.029541016,-0.9024048,0.46917725,-1.171875,-0.390625,-0.421875
346,346,1729188926915,-0.03564453,-0.9085083,0.47625732,0.828125,0.171875,0.359375
347,347,1729188926955,-0.022216797,-0.9085083,0.46795654,-0.171875,0.609375,-0.171875
348,348,1729188926995,-0.03149414,-0.89312744,0.47113037,-0.65625,-0.265625,-0.203125
349,349,1729188927035,-0.030761719,-0.8977661,0.46820068,-0.75,-0.078125,-0.390625
350,350,1729188927075,-0.030029297,-0.9085083,0.46722412,-0.15625,0.78125,-0.34375
351,351,1729188927115,-0.037109375,-0.90338135,0.47161865,-0.625,-0.546875,0.03125
352,352,1729188927155,-0.025634766,-0.9067993,0.46575928,-0.578125,-0.671875,0.453125
353,353,1729188927195,-0.02319336,-0.9102173,0.463562,-0.5625,0.75,-0.796875
354,354,1729188927235,-0.03173828,-0.9014282,0.47576904,-0.328125,0.328125,-0.015625
355,355,1729188927275,-0.037597656,-0.90802,0.4713745,-0.828125,-0.765625,-0.1875
356,356,1729188927315,-0.034179688,-0.9019165,0.4833374,0.484375,0.3125,-0.3125
357,357,1729188927355,-0.033935547,-0.90997314,0.4677124,-1.046875,0.5,-0.09375
358,358,1729188927395,-0.031982422,-0.909729,0.4772339,-1.25,-0.09375,-1.25
359,359,1729188927435,-0.03955078,-0.9036255,0.4804077,0.09375,0.390625,0.0625
360,360,1729188927475,-0.036132812,-0.9002075,0.48773193,0.46875,0.609375,-0.09375
361,361,1729188927515,-0.03100586,-0.895813,0.47210693,-0.390625,-0.015625,-0.046875
362,362,1729188927555,-0.034179688,-0.9126587,0.4713745,-1.78125,-0.546875,-0.140625
363,363,1729188927595,-0.028808594,-0.91412354,0.47454834,-0.28125,0.578125,0.65625
364,364,1729188927635,-0.029785156,-0.90045166,0.47357178,-1.6875,0.3125,-0.640625
365,365,1729188927675,-0.050048828,-0.89923096,0.48260498,-0.421875,-0.140625,0.125
366,366,1729188927715,-0.030029297,-0.911438,0.46697998,-0.015625,1.34375,0.234375
367,367,1729188927755,-0.034179688,-0.8965454,0.49139404,0.375,0.140625,-0.171875
368,368,1729188927795,-0.032226562,-0.89508057,0.4928589,-0.390625,0.109375,-0.21875
369,369,1729188927835,-0.032958984,-0.9014282,0.48651123,0.140625,-0.15625,0.140625
370,370,1729188927875,-0.033691406,-0.8989868,0.48358154,0.84375,0.625,0.671875
371,371,1729188927915,-0.033203125,-0.9006958,0.48162842,1.171875,-0.34375,1.640625
372,372,1729188927955,-0.018310547,-0.90997314,0.4882202,0.359375,0.84375,0.125
373,373,1729188927995,-0.026855469,-0.90045166,0.4767456,1.25,0.703125,0.515625
374,374,1729188928035,-0.022460938,-0.9036255,0.46209717,-1.09375,-0.59375,-0.34375
375,375,1729188928075,-0.03125,-0.9048462,0.47406006,1.484375,0.046875,0.078125
376,376,1729188928115,-0.028320312,-0.909729,0.4796753,1.53125,1.109375,-0.03125
377,377,1729188928155,-0.03100586,-0.9031372,0.47869873,-0.90625,0.09375,-0.484375
378,378,1729188928195,-0.025146484,-0.90948486,0.46844482,-2.296875,0.0,-0.984375
379,379,1729188928235,-0.03515625,-0.911438,0.4796753,0.5,0.9375,-0.28125
380,380,1729188928275,-0.02709961,-0.8953247,0.48187256,-0.40625,0.203125,-0.09375
381,381,1729188928315,-0.03466797,-0.91119385,0.4821167,-0.9375,0.4375,-0.578125
382,382,1729188928355,-0.0390625,-0.8928833,0.47991943,0.53125,0.328125,0.0625
383,383,1729188928395,-0.036865234,-0.9011841,0.48187256,0.328125,-0.640625,0.5625
384,384,1729188928435,-0.02734375,-0.9109497,0.47894287,-0.484375,0.75,-0.65625
385,385,1729188928475,-0.025146484,-0.9026489,0.48602295,0.421875,0.9375,0.28125
386,386,1729188928515,-0.03881836,-0.9077759,0.47772217,-0.09375,0.546875,0.234375
387,387,1729188928555,-0.028808594,-0.90875244,0.4718628,-0.03125,0.4375,-0.375
388,388,1729188928595,-0.024414062,-0.9109497,0.47454834,-0.125,0.484375,-0.4375
389,389,1729188928635,-0.026611328,-0.91070557,0.48016357,0.234375,0.5625,-0.078125
390,390,1729188928675,-0.02758789,-0.8977661,0.4706421,-0.5625,0.515625,0.03125
391,391,1729188928715,-0.03173828,-0.90631104,0.4784546,-0.96875,-0.171875,-0.46875
392,392,1729188928755,-0.033935547,-0.9024048,0.48406982,1.421875,1.0,0.046875
393,393,1729188928795,-0.024414062,-0.90753174,0.48284912,0.125,0.625,0.40625
394,394,1729188928835,-0.030273438,-0.91485596,0.48260498,-1.625,-0.203125,-0.453125
395,395,1729188928875,-0.026855469,-0.9026489,0.47625732,0.859375,0.015625,0.25
396,396,1729188928915,-0.026611328,-0.9002075,0.46795654,1.1875,0.46875,0.5625
397,397,1729188928955,-0.025390625,-0.9065552,0.48138428,-0.328125,0.21875,-0.03125
398,398,1729188928995,-0.029052734,-0.90704346,0.48016357,0.109375,0.1875,-0.25
399,399,1729188929035,-0.024658203,-0.89801025,0.46844482,0.875,0.53125,0.796875
400,400,1729188929075,-0.022216797,-0.9085083,0.46844482,0.234375,0.765625,-0.09375
401,401,1729188929115,-0.02368164,-0.89727783,0.47601318,0.5,0.171875,0.1875
402,402,1729188929155,-0.031982422,-0.9089966,0.46746826,0.8125,0.921875,0.4375
403,403,1729188929195,-0.0234375,-0.91534424,0.46307373,1.703125,0.734375,0.546875
404,404,1729188929235,-0.021240234,-0.9031372,0.47039795,0.234375,0.8125,0.125
405,405,1729188929275,-0.022949219,-0.9055786,0.4755249,0.453125,0.203125,0.109375
406,406,1729188929315,-0.022949219,-0.9194946,0.45819092,-0.53125,0.171875,-0.265625
407,407,1729188929355,-0.024658203,-0.90875244,0.4557495,-0.171875,0.46875,0.1875
408,408,1729188929395,-0.02734375,-0.9116821,0.4623413,0.96875,-0.140625,0.3125
409,409,1729188929435,-0.016845703,-0.9133911,0.4628296,0.171875,0.984375,0.09375
410,410,1729188929475,-0.029541016,-0.9104614,0.4689331,-0.875,-0.03125,-0.1875
411,411,1729188929515,-0.022705078,-0.9143677,0.4623413,0.28125,0.375,-0.28125
412,412,1729188929555,-0.017089844,-0.9077759,0.47772217,1.6875,0.984375,0.84375
413,413,1729188929595,-0.021240234,-0.90411377,0.46551514,0.15625,0.78125,0.09375
414,414,1729188929635,-0.026367188,-0.9133911,0.4743042,-0.125,-0.5625,-0.078125
415,415,1729188929675,-0.01928711,-0.9102173,0.46380615,-0.03125,-0.09375,0.171875
416,416,1729188929715,-0.019042969,-0.91534424,0.4550171,0.234375,-0.1875,0.203125
417,417,1729188929755,-0.020751953,-0.90509033,0.46258545,-0.078125,0.046875,0.171875
418,418,1729188929795,-0.029785156,-0.91290283,0.4611206,1.15625,-0.15625,0.703125
419,419,1729188929835,-0.025390625,-0.9204712,0.4574585,0.5625,-0.171875,-0.171875
420,420,1729188929875,-0.015136719,-0.9209595,0.4545288,-0.625,0.3125,-0.546875
421,421,1729188929915,-0.025634766,-0.9031372,0.47039795,0.046875,-0.671875,-0.125
422,422,1729188929955,-0.013183594,-0.91241455,0.4389038,-1.265625,0.40625,0.59375
423,423,1729188929995,-0.012451172,-0.91363525,0.45184326,-0.6875,-0.4375,0.21875
424,424,1729188930035,-0.013916016,-0.911438,0.47113037,0.21875,0.25,-0.234375
425,425,1729188930075,-0.021484375,-0.90631104,0.46209717,-0.046875,0.0625,-0.03125
426,426,1729188930115,-0.026611328,-0.90582275,0.46453857,-0.734375,0.046875,-0.75
427,427,1729188930155,-0.029785156,-0.9151001,0.46624756,-0.921875,-0.390625,-0.375
428,428,1729188930195,-0.017822266,-0.9158325,0.46746826,0.53125,-0.078125,0.0625
429,429,1729188930235,-0.01586914,-0.9031372,0.46038818,-0.78125,0.484375,-0.546875
430,430,1729188930275,-0.029296875,-0.9151001,0.4706421,-0.921875,0.578125,-0.34375
431,431,1729188930315,-0.013427734,-0.92022705,0.46502686,-0.046875,0.921875,-0.34375
432,432,1729188930355,-0.028564453,-0.90704346,0.47235107,-0.25,-0.125,-0.4375
433,433,1729188930395,-0.023925781,-0.9163208,0.45916748,-0.171875,0.0,-0.09375
434,434,1729188930435,-0.01953125,-0.90826416,0.45819092,-0.453125,0.203125,-1.515625
435,435,1729188930475,-0.01977539,-0.8989868,0.47479248,0.296875,0.828125,-0.140625
436,436,1729188930515,-0.029052734,-0.9192505,0.46844482,0.171875,0.734375,-0.109375
437,437,1729188930555,-0.034179688,-0.9092407,0.4706421,0.0625,-0.015625,-0.328125
438,438,1729188930595,-0.025146484,-0.92022705,0.4628296,-0.5625,0.546875,-0.375
439,439,1729188930635,-0.022949219,-0.913147,0.45965576,-1.625,1.78125,-1.375
440,440,1729188930675,-0.0234375,-0.8987427,0.46502686,-0.546875,1.96875,-1.375
441,441,1729188930715,-0.033935547,-0.9024048,0.47406006,0.921875,1.640625,0.15625
442,442,1729188930755,-0.024658203,-0.913147,0.46453857,0.0625,3.203125,-0.984375
443,443,1729188930795,-0.02709961,-0.90875244,0.47698975,-0.828125,3.015625,-1.328125
444,444,1729188930835,-0.017089844,-0.90704346,0.46209717,-1.09375,3.140625,-1.6875
445,445,1729188930875,-0.018310547,-0.9031372,0.46722412,-1.875,1.046875,-2.75
446,446,1729188930915,-0.034179688,-0.90216064,0.47039795,0.15625,2.203125,-1.703125
447,447,1729188930955,-0.03173828,-0.9170532,0.46917725,2.875,5.625,-0.984375
448,448,1729188930995,-0.013183594,-0.9036255,0.46917725,2.0,3.515625,0.390625
449,449,1729188931035,-0.01953125,-0.93756104,0.47357178,-1.46875,1.34375,-0.5625
450,450,1729188931075,-0.029052734,-0.9138794,0.4611206,-0.875,0.125,-0.28125
451,451,1729188931115,-0.01977539,-0.89971924,0.44451904,-0.15625,1.0625,0.390625
452,452,1729188931155,-0.023925781,-0.9102173,0.45477295,-0.875,0.0625,0.046875
453,453,1729188931195,-0.01171875,-0.90875244,0.47039795,0.5,0.3125,-0.265625
454,454,1729188931235,-0.010986328,-0.9089966,0.47161865,0.90625,0.109375,-0.09375
455,455,1729188931275,-0.005859375,-0.91973877,0.46087646,-0.6875,0.328125,0.4375
456,456,1729188931315,-0.018066406,-0.9043579,0.46307373,-1.859375,-1.296875,0.515625
457,457,1729188931355,-0.0234375,-0.91534424,0.47357178,-0.046875,-0.25,1.046875
458,458,1729188931395,-0.018798828,-0.90753174,0.47894287,-0.09375,0.65625,1.46875
459,459,1729188931435,-0.022705078,-0.90753174,0.47601318,-1.703125,-1.4375,0.796875
460,460,1729188931475,-0.023925781,-0.9043579,0.46820068,0.140625,-1.03125,0.984375
461,461,1729188931515,-0.008300781,-0.892395,0.46624756,1.796875,-0.078125,1.53125
462,462,1729188931555,-0.012939453,-0.9133911,0.4743042,-0.3125,-0.96875,0.140625
463,463,1729188931595,-0.021240234,-0.90460205,0.4743042,0.53125,-0.46875,0.484375
464,464,1729188931635,-0.016113281,-0.9055786,0.46331787,-0.09375,-0.015625,0.609375
465,465,1729188931675,-0.017089844,-0.9109497,0.4694214,0.015625,-0.3125,0.890625
466,466,1729188931715,-0.011230469,-0.90753174,0.46917725,0.1875,-0.015625,0.375
467,467,1729188931755,-0.010009766,-0.90948486,0.47235107,-0.0625,0.375,0.59375
468,468,1729188931795,-0.009765625,-0.9065552,0.46966553,-0.765625,0.84375,0.140625
469,469,1729188931835,-0.009277344,-0.8999634,0.45550537,0.15625,-0.34375,0.046875
470,470,1729188931875,-0.024414062,-0.9060669,0.47528076,0.34375,0.421875,0.359375
471,471,1729188931915,-0.0026855469,-0.91290283,0.4569702,-0.875,1.296875,0.78125
472,472,1729188931955,-0.008544922,-0.92315674,0.44866943,-1.171875,0.546875,-0.703125
473,473,1729188931995,-0.017333984,-0.90509033,0.48895264,-0.890625,-1.5625,-0.328125
474,474,1729188932035,-0.013427734,-0.9182739,0.46551514,0.265625,0.09375,-0.03125
475,475,1729188932075,-0.008300781,-0.9060669,0.47576904,-0.296875,-0.703125,0.234375
476,476,1729188932115,-0.0107421875,-0.91290283,0.46820068,-1.375,-0.984375,-0.5
477,477,1729188932155,-0.01928711,-0.911438,0.47235107,0.828125,-0.546875,0.640625
478,478,1729188932195,-0.010986328,-0.9014282,0.4623413,0.3125,0.109375,0.09375
479,479,1729188932235,-0.022460938,-0.9133911,0.4730835,-0.546875,-0.109375,-0.1875
480,480,1729188932275,-0.0126953125,-0.90509033,0.46820068,-0.390625,0.296875,0.09375
481,481,1729188932315,-0.015136719,-0.9011841,0.46063232,0.75,0.21875,0.4375
482,482,1729188932355,-0.016357422,-0.90509033,0.4611206,0.984375,-0.421875,-0.015625
483,483,1729188932395,-0.012207031,-0.91412354,0.46063232,0.8125,0.34375,-0.0625
484,484,1729188932435,-0.015380859,-0.9053345,0.4664917,0.75,0.328125,0.1875
485,485,1729188932475,-0.0087890625,-0.90948486,0.46966553,-0.859375,-0.6875,0.40625
486,486,1729188932515,-0.009521484,-0.9067993,0.46014404,-0.203125,-0.3125,-0.34375
487,487,1729188932555,-0.01171875,-0.91290283,0.45355225,0.65625,0.1875,0.390625
488,488,1729188932595,-0.0053710938,-0.9089966,0.4701538,-0.703125,0.015625,-0.9375
489,489,1729188932635,-0.01171875,-0.91534424,0.46185303,-0.078125,-0.21875,-0.265625
490,490,1729188932675,-0.014160156,-0.9102173,0.4706421,-0.328125,0.265625,-0.734375
491,491,1729188932715,-0.013916016,-0.9031372,0.4611206,-0.78125,0.40625,-0.03125
492,492,1729188932755,-0.015136719,-0.9109497,0.46429443,-0.78125,0.34375,-0.5
493,493,1729188932795,-0.018310547,-0.91534424,0.46746826,0.265625,0.421875,-0.40625
494,494,1729188932835,-0.018554688,-0.9133911,0.46624756,-0.375,0.4375,-0.4375
495,495,1729188932875,-0.016357422,-0.8987427,0.4743042,0.03125,0.109375,-0.28125
496,496,1729188932915,-0.022216797,-0.90997314,0.463562,0.171875,0.53125,-0.09375
497,497,1729188932955,-0.018066406,-0.90997314,0.4767456,0.46875,0.78125,0.203125
498,498,1729188932995,-0.0024414062,-0.909729,0.4804077,-0.125,0.5,0.140625
499,499,1729188933035,-0.012207031,-0.90997314,0.47210693,-0.296875,-0.453125,-0.53125
500,500,1729188933075,-0.014892578,-0.91070557,0.463562,-0.71875,-0.03125,-0.21875
501,501,1729188933115,-0.015625,-0.897522,0.47406006,0.453125,0.125,0.09375
502,502,1729188933155,-0.016113281,-0.90411377,0.46990967,0.109375,-0.46875,-0.171875
503,503,1729188933195,-0.012939453,-0.9121704,0.48065186,-0.625,-0.5,-0.5
504,504,1729188933235,-0.009277344,-0.92071533,0.4562378,-1.0625,0.390625,0.09375
505,505,1729188933275,-0.0014648438,-0.8989868,0.46502686,-0.890625,0.34375,-0.625
506,506,1729188933315,-0.018554688,-0.9043579,0.4743042,-0.140625,0.828125,-0.609375
507,507,1729188933355,-0.02319336,-0.91485596,0.47576904,-0.25,0.515625,-0.3125
508,508,1729188933395,-0.02709961,-0.911438,0.46307373,-1.09375,-0.109375,-0.765625
509,509,1729188933435,-0.025390625,-0.9143677,0.46673584,-0.875,0.5625,-0.234375
510,510,1729188933475,-0.021484375,-0.89801025,0.47650146,0.171875,0.34375,0.03125
511,511,1729188933515,-0.010986328,-0.9072876,0.46551514,-0.390625,0.578125,-0.03125
512,512,1729188933555,-0.017089844,-0.9067993,0.48553467,-0.28125,0.125,-0.328125
513,513,1729188933595,-0.013427734,-0.9053345,0.47381592,-0.015625,0.703125,-0.53125
514,514,1729188933635,-0.018310547,-0.8960571,0.4743042,-0.953125,0.484375,0.03125
515,515,1729188933675,-0.020751953,-0.90411377,0.47235107,-1.140625,-0.140625,0.21875
516,516,1729188933715,-0.01586914,-0.9038696,0.47772217,-0.1875,-0.15625,0.078125
517,517,1729188933755,-0.013916016,-0.90875244,0.4718628,-0.078125,0.609375,-0.15625
518,518,1729188933795,-0.012207031,-0.9077759,0.4725952,-0.09375,0.4375,0.125
519,519,1729188933835,-0.01171875,-0.9053345,0.4779663,-0.703125,-0.046875,-0.3125
520,520,1729188933875,-0.010498047,-0.9031372,0.48529053,0.125,0.4375,0.171875
521,521,1729188933915,-0.012207031,-0.9048462,0.46380615,-1.296875,0.625,-0.15625
522,522,1729188933955,-0.018554688,-0.90289307,0.48187256,-0.234375,-0.65625,-0.53125
523,523,1729188933995,-0.020751953,-0.9055786,0.4779663,1.015625,1.09375,0.125
524,524,1729188934035,-0.016601562,-0.90338135,0.48309326,-0.53125,0.40625,0.140625
525,525,1729188934075,-0.023925781,-0.9055786,0.48480225,-0.40625,-0.515625,-0.28125
526,526,1729188934115,-0.0126953125,-0.9019165,0.46600342,0.390625,1.109375,0.03125
527,527,1729188934155,-0.015380859,-0.8960571,0.47943115,0.5625,-0.40625,-0.046875
528,528,1729188934195,-0.01977539,-0.9102173,0.46868896,-0.21875,0.859375,-0.28125
529,529,1729188934235,-0.021972656,-0.9121704,0.47698975,1.796875,0.0,0.421875
530,530,1729188934275,-0.005859375,-0.9014282,0.47357178,-0.9375,1.03125,-0.40625
531,531,1729188934315,-0.024902344,-0.9024048,0.4857788,0.03125,0.046875,0.125
532,532,1729188934355,-0.013427734,-0.9060669,0.4706421,0.484375,0.484375,0.3125
533,533,1729188934395,0.00024414062,-0.9089966,0.47161865,0.125,0.984375,-0.171875
534,534,1729188934435,-0.018554688,-0.90045166,0.48138428,0.109375,0.421875,0.296875
535,535,1729188934475,-0.017333984,-0.913147,0.47381592,0.15625,0.265625,-0.265625
536,536,1729188934515,-0.0078125,-0.8948364,0.47235107,0.5,0.84375,-0.0625
537,537,1729188934555,-0.013427734,-0.91290283,0.4779663,-0.390625,0.40625,-0.203125
538,538,1729188934595,-0.015136719,-0.90509033,0.47161865,-0.53125,0.671875,-0.265625
539,539,1729188934635,-0.012451172,-0.8953247,0.46820068,0.6875,0.234375,0.140625
540,540,1729188934675,-0.012207031,-0.9151001,0.47210693,0.21875,0.96875,0.34375
541,541,1729188934715,-0.009521484,-0.9006958,0.47869873,0.578125,0.828125,0.359375
542,542,1729188934755,-0.009521484,-0.9026489,0.4701538,-0.109375,0.203125,-0.078125
543,543,1729188934795,-0.01171875,-0.91778564,0.4664917,0.421875,-0.25,0.203125
544,544,1729188934835,-0.010009766,-0.9116821,0.47039795,0.515625,0.796875,0.078125
545,545,1729188934875,-0.0061035156,-0.9053345,0.4767456,0.140625,-0.265625,0.1875
546,546,1729188934915,-0.0126953125,-0.8999634,0.47576904,0.140625,-0.46875,0.109375
547,547,1729188934955,-0.008544922,-0.90167236,0.46600342,0.109375,0.46875,-0.0625
548,548,1729188934995,-0.017089844,-0.8994751,0.4725952,0.796875,-1.765625,1.015625
549,549,1729188935035,-0.008544922,-0.91485596,0.46014404,-0.65625,0.4375,-0.5
550,550,1729188935075,-0.013671875,-0.9014282,0.47357178,0.421875,-0.578125,0.3125
551,551,1729188935115,-0.008544922,-0.91485596,0.4640503,-1.015625,-0.015625,-0.1875
552,552,1729188935155,-0.009521484,-0.9011841,0.46600342,0.703125,-0.546875,0.515625
553,553,1729188935195,-0.016845703,-0.91656494,0.463562,1.3125,0.171875,-0.171875
554,554,1729188935235,-0.0107421875,-0.9036255,0.46307373,0.578125,-0.125,-0.125
555,555,1729188935275,-0.009277344,-0.9246216,0.45526123,-1.015625,0.296875,-0.296875
556,556,1729188935315,-0.017578125,-0.9121704,0.46844482,-1.125,-0.828125,-0.328125
557,557,1729188935355,-0.010009766,-0.9024048,0.46820068,0.265625,0.578125,0.109375
558,558,1729188935395,-0.004638672,-0.91607666,0.45281982,-0.171875,0.96875,-0.234375
559,559,1729188935435,-0.0126953125,-0.90948486,0.4647827,-0.65625,-0.21875,-0.34375
560,560,1729188935475,-0.017089844,-0.91656494,0.4616089,-0.328125,-0.03125,0.03125
561,561,1729188935515,-0.010009766,-0.9038696,0.46429443,0.484375,0.296875,0.515625
562,562,1729188935555,-0.013183594,-0.90826416,0.4706421,-0.1875,0.96875,-0.578125
563,563,1729188935595,-0.0024414062,-0.90338135,0.46600342,0.9375,0.265625,0.296875
564,564,1729188935635,-0.018310547,-0.90289307,0.47625732,-0.421875,-0.25,-0.09375
565,565,1729188935675,0.00024414062,-0.9212036,0.44940186,-0.6875,1.25,-0.265625
566,566,1729188935715,-0.020996094,-0.8965454,0.4772339,0.078125,-0.390625,-0.046875
567,567,1729188935755,-0.0063476562,-0.90875244,0.4586792,0.3125,0.890625,-0.140625
568,568,1729188935795,-0.0107421875,-0.91192627,0.4664917,0.5,-0.015625,-0.078125
569,569,1729188935835,-0.0107421875,-0.90826416,0.4647827,-0.640625,-0.15625,-0.046875
570,570,1729188935875,-0.01171875,-0.9092407,0.46795654,1.03125,-0.234375,0.453125
571,571,1729188935915,-0.0078125,-0.9133911,0.46575928,1.296875,-0.09375,0.390625
572,572,1729188935955,-0.00024414062,-0.913147,0.45428467,0.03125,1.046875,-0.34375
573,573,1729188935995,-0.008544922,-0.9048462,0.4640503,-0.6875,0.46875,-0.484375
574,574,1729188936035,-0.016113281,-0.91192627,0.4706421,-0.203125,0.015625,-0.296875
575,575,1729188936075,-0.009765625,-0.91290283,0.46746826,-1.125,0.421875,-0.75
576,576,1729188936115,-0.007080078,-0.8987427,0.4677124,-0.8125,-0.109375,-0.46875
577,577,1729188936155,-0.010498047,-0.90826416,0.4713745,-0.5,1.0625,-0.5625
578,578,1729188936195,-0.009033203,-0.91363525,0.4677124,-1.3125,0.984375,-0.65625
579,579,1729188936235,-0.019042969,-0.8987427,0.47332764,0.109375,-0.09375,-0.421875
580,580,1729188936275,-0.013427734,-0.9109497,0.46795654,-0.6875,1.25,-0.53125
581,581,1729188936315,-0.018554688,-0.90338135,0.47503662,-0.328125,0.296875,-0.796875
582,582,1729188936355,-0.018798828,-0.91192627,0.46673584,-0.53125,-0.171875,-0.265625
583,583,1729188936395,-0.010986328,-0.9031372,0.47454834,0.140625,-0.078125,-0.21875
584,584,1729188936435,-0.010009766,-0.90582275,0.4833374,0.421875,0.3125,-0.140625
585,585,1729188936475,-0.020263672,-0.9060669,0.4767456,0.203125,0.171875,0.0625
586,586,1729188936515,-0.0061035156,-0.9158325,0.45721436,-0.796875,1.96875,-1.078125
587,587,1729188936555,-0.029052734,-0.89263916,0.48895264,0.6875,-0.203125,-0.015625
588,588,1729188936595,-0.009521484,-0.9089966,0.45965576,1.203125,0.46875,1.203125
589,589,1729188936635,0.0009765625,-0.90631104,0.46453857,-1.515625,0.203125,-0.84375
590,590,1729188936675,-0.017089844,-0.91192627,0.46136475,0.03125,0.796875,-0.109375
591,591,1729188936715,-0.023925781,-0.9077759,0.48187256,0.34375,-0.015625,0.078125
592,592,1729188936755,-0.012451172,-0.91119385,0.4598999,-0.1875,1.140625,-0.46875
593,593,1729188936795,-0.0126953125,-0.90753174,0.47235107,-0.921875,0.5,-0.6875
594,594,1729188936835,-0.017089844,-0.9043579,0.47113037,0.078125,0.3125,-0.046875
595,595,1729188936875,-0.007080078,-0.9006958,0.46575928,0.234375,0.6875,-0.125
596,596,1729188936915,-0.022949219,-0.90948486,0.48138428,-0.203125,0.265625,-0.0625
597,597,1729188936955,-0.0075683594,-0.9006958,0.46746826,0.203125,0.609375,0.09375
598,598,1729188936995,-0.015625,-0.91656494,0.46697998,-0.703125,0.15625,-0.234375
599,599,1729188937035,-0.01586914,-0.9085083,0.4689331,-0.125,0.375,-0.0625
600,600,1729188937075,-0.010986328,-0.90875244,0.46722412,-0.5625,0.375,-0.203125
601,601,1729188937115,-0.014404297,-0.9026489,0.47698975,0.21875,0.359375,0.15625
602,602,1729188937155,-0.0053710938,-0.91485596,0.4694214,-0.40625,0.640625,-0.53125
603,603,1729188937195,-0.018554688,-0.90216064,0.46600342,-0.0625,0.21875,-0.078125
604,604,1729188937235,-0.009277344,-0.90704346,0.46624756,-0.125,0.28125,-0.15625
605,605,1729188937275,-0.013916016,-0.911438,0.47601318,-0.046875,0.609375,0.0625
606,606,1729188937315,-0.0087890625,-0.8999634,0.46331787,-0.921875,0.609375,-0.25
607,607,1729188937355,-0.022705078,-0.90582275,0.4718628,-1.703125,-0.328125,-0.875
608,608,1729188937395,-0.023925781,-0.90997314,0.46966553,0.4375,1.96875,-0.21875
609,609,1729188937435,-0.0126953125,-0.8970337,0.47454834,0.359375,0.765625,-0.140625
610,610,1729188937475,-0.018310547,-0.8994751,0.47088623,-0.59375,-0.03125,-0.578125
611,611,1729188937515,-0.011474609,-0.90093994,0.4706421,0.28125,0.671875,-0.1875
612,612,1729188937555,-0.009033203,-0.9155884,0.47113037,0.109375,0.78125,-0.234375
613,613,1729188937595,-0.020751953,-0.90216064,0.47821045,0.140625,-0.1875,-0.125
614,614,1729188937635,-0.012939453,-0.9077759,0.47113037,0.34375,0.234375,-0.25
615,615,1729188937675,-0.007080078,-0.9053345,0.4694214,0.171875,0.0625,0.140625
616,616,1729188937715,-0.018310547,-0.9085083,0.47650146,0.359375,-0.078125,0.015625
617,617,1729188937755,-0.0087890625,-0.9036255,0.4730835,-0.15625,0.21875,-0.0625
618,618,1729188937795,-0.013916016,-0.91192627,0.47698975,-0.25,-0.09375,0.171875
619,619,1729188937835,-0.008544922,-0.9146118,0.47039795,-0.390625,0.953125,-0.375
620,620,1729188937875,-0.0146484375,-0.89849854,0.46844482,1.015625,0.09375,0.140625
621,621,1729188937915,-0.024169922,-0.91119385,0.4677124,-0.484375,-0.203125,0.15625
622,622,1729188937955,-0.021728516,-0.9092407,0.46917725,0.0625,-0.046875,0.328125
623,623,1729188937995,-0.015380859,-0.91656494,0.46453857,-0.671875,0.546875,0.46875
624,624,1729188938035,-0.03515625,-0.9265747,0.41253662,0.375,0.03125,-0.296875
625,625,1729188938075,-0.033203125,-0.9348755,0.41278076,1.859375,0.234375,-0.234375
626,626,1729188938115,-0.032958984,-0.9260864,0.41864014,1.4375,0.375,0.03125
627,627,1729188938155,-0.03857422,-0.93218994,0.416687,0.296875,0.5,-0.046875
628,628,1729188938195,-0.037353516,-0.9299927,0.41253662,0.484375,-0.46875,-0.21875
629,629,1729188938235,-0.03515625,-0.92803955,0.40496826,-0.09375,-1.125,-0.765625
630,630,1729188938275,-0.04248047,-0.9180298,0.42156982,0.625,-0.25,0.234375
631,631,1729188938315,-0.030517578,-0.9295044,0.39227295,-2.0,-0.171875,-0.71875
632,632,1729188938355,-0.036621094,-0.9326782,0.42523193,0.25,-0.828125,-0.609375
633,633,1729188938395,-0.036865234,-0.9338989,0.4147339,1.515625,0.8125,0.34375
634,634,1729188938435,-0.037353516,-0.928772,0.40350342,-0.75,-0.40625,-0.4375
635,635,1729188938475,-0.05053711,-0.9265747,0.41351318,-1.09375,-0.625,-0.734375
636,636,1729188938515,-0.04248047,-0.92974854,0.40667725,1.28125,0.59375,0.28125
637,637,1729188938555,-0.028320312,-0.93096924,0.39520264,0.25,0.6875,-0.203125
638,638,1729188938595,-0.05029297,-0.9365845,0.4208374,-0.328125,0.078125,-0.28125
639,639,1729188938635,-0.036132812,-0.9260864,0.4100952,0.28125,0.171875,-0.34375
640,640,1729188938675,-0.045654297,-0.9319458,0.41033936,-0.234375,-0.015625,-0.546875
641,641,1729188938715,-0.047607422,-0.9338989,0.4118042,0.046875,0.515625,-0.328125
642,642,1729188938755,-0.03955078,-0.9234009,0.4015503,0.46875,1.390625,-0.1875
643,643,1729188938795,-0.036865234,-0.9434204,0.41766357,-0.40625,0.5625,0.046875
644,644,1729188938835,-0.037109375,-0.92193604,0.41644287,-0.078125,0.703125,0.1875
645,645,1729188938875,-0.048828125,-0.9338989,0.39959717,-0.484375,1.3125,-0.75
646,646,1729188938915,-0.04321289,-0.94000244,0.42401123,1.53125,1.15625,0.671875
647,647,1729188938955,-0.046875,-0.9351196,0.41253662,0.515625,1.015625,-0.15625
648,648,1729188938995,-0.03955078,-0.93048096,0.40472412,-1.09375,0.921875,-0.640625
649,649,1729188939035,-0.036376953,-0.9319458,0.41375732,-0.109375,1.125,-0.484375
650,650,1729188939075,-0.041015625,-0.93170166,0.41253662,1.390625,0.71875,-0.125
651,651,1729188939115,-0.04296875,-0.92755127,0.41326904,0.203125,0.171875,-0.328125
652,652,1729188939155,-0.0390625,-0.94415283,0.4130249,0.359375,0.4375,-0.328125
653,653,1729188939195,-0.037841797,-0.93341064,0.41253662,0.15625,0.140625,-0.078125
654,654,1729188939235,-0.031982422,-0.92388916,0.4022827,-1.984375,-0.3125,-0.890625
655,655,1729188939275,-0.04711914,-0.92803955,0.41888428,-0.609375,-0.71875,-0.15625
656,656,1729188939315,-0.04272461,-0.9368286,0.41107178,0.53125,1.3125,-0.640625
657,657,1729188939355,-0.032226562,-0.9290161,0.40716553,-0.765625,0.59375,-0.09375
658,658,1729188939395,-0.04711914,-0.94073486,0.41278076,-1.109375,0.0625,-0.34375
659,659,1729188939435,-0.042236328,-0.9241333,0.40594482,0.71875,0.734375,0.171875
660,660,1729188939475,-0.040039062,-0.9295044,0.40838623,0.4375,0.359375,0.140625
661,661,1729188939515,-0.04711914,-0.9385376,0.40960693,-0.125,0.40625,-0.109375
662,662,1729188939555,-0.040283203,-0.93585205,0.40374756,0.09375,0.875,-0.140625
663,663,1729188939595,-0.045898438,-0.9299927,0.42401123,1.0,-0.578125,0.40625
664,664,1729188939635,-0.044189453,-0.93536377,0.40960693,0.15625,0.53125,0.078125
665,665,1729188939675,-0.032470703,-0.92559814,0.3920288,-1.28125,0.671875,-0.578125
666,666,1729188939715,-0.040771484,-0.9348755,0.40838623,0.234375,1.15625,-0.375
667,667,1729188939755,-0.048583984,-0.9360962,0.42889404,1.59375,0.203125,0.234375
668,668,1729188939795,-0.031982422,-0.93585205,0.4093628,0.265625,0.8125,-0.53125
669,669,1729188939835,-0.048828125,-0.93878174,0.42010498,-0.546875,-0.828125,0.0
670,670,1729188939875,-0.037841797,-0.92926025,0.40179443,0.671875,0.6875,-0.078125
671,671,1729188939915,-0.041503906,-0.93707275,0.4052124,0.671875,0.265625,0.328125
672,672,1729188939955,-0.037841797,-0.940979,0.3986206,0.5625,1.015625,-0.546875
673,673,1729188939995,-0.04321289,-0.9324341,0.4130249,0.140625,0.421875,-0.09375
674,674,1729188940035,-0.049316406,-0.9365845,0.4088745,-0.390625,0.28125,-0.3125
675,675,1729188940075,-0.03930664,-0.9336548,0.40423584,0.21875,0.53125,-0.390625
676,676,1729188940115,-0.033447266,-0.9378052,0.40374756,0.65625,0.796875,-0.5
677,677,1729188940155,-0.04272461,-0.9351196,0.40570068,-0.625,0.0625,-0.25
678,678,1729188940195,-0.037597656,-0.92681885,0.40570068,-1.453125,-0.65625,-0.71875
679,679,1729188940235,-0.040039062,-0.9307251,0.40985107,0.59375,0.078125,0.140625
680,680,1729188940275,-0.037841797,-0.9458618,0.3961792,-1.46875,-0.8125,-0.109375
681,681,1729188940315,-0.036376953,-0.9360962,0.4130249,0.828125,0.171875,0.28125
682,682,1729188940355,-0.0390625,-0.92803955,0.39959717,-0.5625,0.5,0.53125
683,683,1729188940395,-0.037109375,-0.9404907,0.40740967,-0.890625,-0.515625,-0.34375
684,684,1729188940435,-0.03857422,-0.9356079,0.40545654,1.78125,0.828125,0.75
685,685,1729188940475,-0.032470703,-0.9378052,0.4069214,-0.265625,0.265625,0.125
686,686,1729188940515,-0.04736328,-0.93463135,0.4022827,-2.0,-2.046875,-0.65625
687,687,1729188940555,-0.046875,-0.93463135,0.39935303,0.421875,-0.75,0.703125
688,688,1729188940595,-0.03466797,-0.9373169,0.40081787,0.921875,0.46875,0.265625
689,689,1729188940635,-0.041259766,-0.9348755,0.41815186,0.125,-0.140625,0.03125
690,690,1729188940675,-0.038085938,-0.93585205,0.40594482,0.765625,-1.0,0.359375
691,691,1729188940715,-0.035888672,-0.93829346,0.39569092,-0.703125,-1.09375,0.171875
692,692,1729188940755,-0.030761719,-0.9397583,0.39837646,0.671875,-0.5,-0.3125
693,693,1729188940795,-0.033203125,-0.92388916,0.40350342,1.28125,-0.078125,0.328125
694,694,1729188940835,-0.041748047,-0.94537354,0.4088745,-0.765625,-0.5,-0.015625
695,695,1729188940875,-0.043701172,-0.92974854,0.4088745,0.75,0.078125,-0.125
696,696,1729188940915,-0.026123047,-0.93951416,0.38616943,-0.375,-1.15625,0.203125
697,697,1729188940955,-0.045166016,-0.92926025,0.4130249,0.015625,-0.203125,-0.265625
698,698,1729188940995,-0.03857422,-0.942688,0.4003296,-0.03125,0.453125,0.125
699,699,1729188941035,-0.038330078,-0.9302368,0.39349365,-0.640625,0.734375,-0.65625
700,700,1729188941075,-0.04321289,-0.93170166,0.40179443,0.1875,0.28125,0.0
701,701,1729188941115,-0.038085938,-0.94317627,0.39154053,0.5,0.4375,-0.390625
702,702,1729188941155,-0.038330078,-0.9146118,0.40130615,-0.328125,0.734375,-0.578125
703,703,1729188941195,-0.052246094,-0.9282837,0.40447998,-1.421875,-0.0625,0.046875
704,704,1729188941235,-0.047607422,-0.93341064,0.39788818,0.375,0.4375,-0.296875
705,705,1729188941275,-0.029541016,-0.92559814,0.4015503,0.1875,1.15625,-0.03125
706,706,1729188941315,-0.043945312,-0.93634033,0.41253662,-1.53125,0.375,-0.21875
707,707,1729188941355,-0.03857422,-0.93292236,0.40472412,0.484375,0.78125,-0.3125
708,708,1729188941395,-0.036865234,-0.93463135,0.40594482,0.234375,1.0,0.015625
709,709,1729188941435,-0.04272461,-0.93218994,0.40545654,-0.984375,0.84375,-0.609375
710,710,1729188941475,-0.037109375,-0.9324341,0.41033936,-0.4375,0.265625,-0.1875
711,711,1729188941515,-0.040527344,-0.9348755,0.41107178,0.703125,0.609375,0.28125
712,712,1729188941555,-0.036132812,-0.9365845,0.39788818,0.609375,0.640625,-0.109375
713,713,1729188941595,-0.043701172,-0.94000244,0.40447998,-0.3125,0.3125,0.0625
714,714,1729188941635,-0.045410156,-0.9429321,0.41253662,0.015625,0.265625,-0.71875
715,715,1729188941675,-0.04638672,-0.93829346,0.40545654,-0.21875,0.609375,0.171875
716,716,1729188941715,-0.02709961,-0.9385376,0.3932495,-1.8125,1.1875,-0.453125
717,717,1729188941755,-0.040039062,-0.93341064,0.402771,-0.15625,0.453125,-0.34375
718,718,1729188941795,-0.044433594,-0.9421997,0.40960693,1.359375,1.03125,-0.125
719,719,1729188941835,-0.041503906,-0.93585205,0.41229248,0.109375,1.421875,-0.578125
720,720,1729188941875,-0.04736328,-0.92633057,0.40472412,-1.140625,0.71875,-0.171875
721,721,1729188941915,-0.037353516,-0.93634033,0.39422607,-0.375,0.546875,-0.03125
722,722,1729188941955,-0.03149414,-0.9348755,0.4015503,0.765625,0.9375,0.109375
723,723,1729188941995,-0.040771484,-0.9229126,0.40960693,0.046875,0.421875,0.015625
724,724,1729188942035,-0.040527344,-0.9343872,0.4015503,0.703125,0.703125,0.015625
725,725,1729188942075,-0.033935547,-0.9348755,0.3973999,1.34375,0.859375,0.390625
726,726,1729188942115,-0.037597656,-0.9397583,0.39959717,-0.09375,0.765625,-0.015625
727,727,1729188942155,-0.04711914,-0.94415283,0.4130249,-0.015625,-0.40625,-0.046875
728,728,1729188942195,-0.025146484,-0.94195557,0.3925171,0.890625,1.609375,0.234375
729,729,1729188942235,-0.045166016,-0.94195557,0.4076538,-0.640625,0.21875,0.078125
730,730,1729188942275,-0.033691406,-0.93707275,0.40057373,-0.265625,0.234375,-1.078125
731,731,1729188942315,-0.038330078,-0.9522095,0.39886475,0.640625,0.5625,-1.125
732,732,1729188942355,-0.044433594,-0.93218994,0.40789795,-0.546875,0.0,0.328125
733,733,1729188942395,-0.032714844,-0.9258423,0.38909912,-2.328125,0.96875,-0.28125
734,734,1729188942435,-0.036376953,-0.93951416,0.40301514,-0.296875,0.46875,-0.546875
735,735,1729188942475,-0.049072266,-0.93634033,0.4076538,1.625,0.515625,0.5
736,736,1729188942515,-0.0390625,-0.9312134,0.40374756,-0.75,0.46875,0.03125
737,737,1729188942555,-0.04248047,-0.93463135,0.39959717,-0.9375,0.21875,-0.09375
738,738,1729188942595,-0.03515625,-0.94244385,0.39837646,0.609375,-0.109375,0.46875
739,739,1729188942635,-0.033691406,-0.94073486,0.39764404,0.296875,0.484375,0.0625
740,740,1729188942675,-0.029785156,-0.92974854,0.4093628,-0.078125,-0.28125,-0.046875
741,741,1729188942715,-0.032226562,-0.9390259,0.4069214,0.140625,-1.1875,0.8125
742,742,1729188942755,-0.032958984,-0.93170166,0.40008545,-0.984375,-0.96875,0.109375
743,743,1729188942795,-0.037109375,-0.93048096,0.40179443,-0.3125,-0.71875,0.4375
744,744,1729188942835,-0.042236328,-0.9397583,0.40570068,-0.140625,-0.609375,-0.21875
745,745,1729188942875,-0.030761719,-0.940979,0.39300537,-0.21875,-0.890625,-0.21875
746,746,1729188942915,-0.033691406,-0.93585205,0.3986206,-0.921875,-0.796875,0.328125
747,747,1729188942955,-0.041503906,-0.940979,0.39349365,0.0,-0.046875,0.421875
748,748,1729188942995,-0.028320312,-0.9380493,0.39935303,1.59375,-0.328125,0.4375
749,749,1729188943035,-0.031982422,-0.9360962,0.3961792,0.953125,0.75,-0.0625
750,750,1729188943075,-0.039794922,-0.9356079,0.38153076,-0.875,0.921875,0.546875
751,751,1729188943115,-0.03515625,-0.9378052,0.40301514,0.359375,0.578125,0.140625
752,752,1729188943155,-0.029785156,-0.92974854,0.39715576,2.875,1.078125,0.984375
753,753,1729188943195,-0.021972656,-0.9487915,0.39349365,-0.734375,0.0625,-0.03125
754,754,1729188943235,-0.041503906,-0.93829346,0.39764404,-0.8125,-0.59375,-0.21875
755,755,1729188943275,-0.029785156,-0.92803955,0.38641357,1.109375,0.53125,0.546875
756,756,1729188943315,-0.0234375,-0.93756104,0.39837646,-0.328125,0.0625,0.28125
757,757,1729188943355,-0.032714844,-0.93707275,0.40447998,0.515625,-0.125,0.15625
758,758,1729188943395,-0.043701172,-0.9324341,0.39349365,0.09375,-0.15625,0.234375
759,759,1729188943435,-0.021484375,-0.9439087,0.3768921,0.359375,1.421875,-0.34375
