,Unnamed: 0,timestamp,accel_x,accel_y,accel_z,gyro_x,gyro_y,gyro_z
0,0,1727440422167,-0.028564453,-0.95513916,0.10662842,-0.140625,-2.4375,6.859375
1,1,1727440422207,0.2277832,-1.0462036,-0.057434082,1.21875,2.53125,-2.875
2,2,1727440422247,0.018066406,-1.2185669,0.12591553,-13.359375,2.21875,-7.34375
3,3,1727440422287,-0.099853516,-1.2957153,-0.2588501,6.28125,-14.75,-19.375
4,4,1727440422327,0.28051758,-1.3692017,-0.21783447,1.609375,-18.71875,-8.84375
5,5,1727440422367,-0.16430664,-1.0847778,-0.25933838,-14.75,-7.28125,-14.953125
6,6,1727440422407,0.15283203,-0.88531494,-0.27349854,1.578125,-3.421875,-2.078125
7,7,1727440422447,0.09033203,-0.92755127,-0.3106079,-3.0,5.203125,-0.6875
8,8,1727440422487,0.11303711,-1.0003052,-0.24176025,0.046875,5.234375,2.515625
9,9,1727440422527,0.03173828,-0.9763794,-0.14019775,-2.703125,7.59375,1.890625
10,10,1727440422567,-0.022705078,-0.8701782,-0.10430908,-1.125,4.78125,1.609375
11,11,1727440422607,-0.00048828125,-0.8557739,-0.15582275,-0.125,4.390625,1.28125
12,12,1727440422647,-0.023925781,-0.8381958,-0.13018799,-0.34375,3.125,2.953125
13,13,1727440422687,-0.08862305,-0.85943604,-0.051818848,-1.84375,2.984375,3.296875
14,14,1727440422727,-0.096191406,-0.8765259,-0.04058838,-2.609375,2.515625,2.140625
15,15,1727440422767,-0.08105469,-0.880188,-0.011047363,-4.015625,2.578125,1.6875
16,16,1727440422807,-0.01953125,-0.8821411,-0.054504395,-2.46875,-1.09375,0.203125
17,17,1727440422847,-0.14648438,-1.013977,-0.04425049,-4.40625,-2.21875,-2.75
18,18,1727440422887,-0.26293945,-1.1843872,0.055847168,-11.078125,3.234375,-6.046875
19,19,1727440422927,0.030517578,-1.4221802,0.054138184,-5.96875,6.46875,-12.5625
20,20,1727440422967,-0.051513672,-1.2009888,-0.16485596,-4.109375,7.078125,-0.96875
21,21,1727440423007,0.26098633,-1.0020142,-0.3411255,1.15625,0.4375,-6.140625
22,22,1727440423047,0.17651367,-1.0217896,-0.2263794,-5.109375,3.28125,-2.96875
23,23,1727440423087,0.19897461,-0.91900635,-0.16583252,-0.046875,-4.734375,0.1875
24,24,1727440423127,0.08984375,-1.0132446,-0.18389893,6.328125,-7.09375,3.8125
25,25,1727440423167,0.014892578,-0.9522095,-0.112854004,4.21875,-6.109375,7.125
26,26,1727440423207,0.028320312,-0.8689575,-0.035949707,1.109375,-4.609375,4.265625
27,27,1727440423247,-0.011230469,-0.8760376,0.001159668,3.4375,-5.359375,4.203125
28,28,1727440423287,0.048339844,-0.8706665,-0.051574707,3.484375,-2.671875,3.671875
29,29,1727440423327,-0.017578125,-0.87335205,0.026794434,0.875,-0.703125,3.140625
30,30,1727440423367,-0.015136719,-0.8726196,0.061462402,-0.140625,3.125,2.578125
31,31,1727440423407,-0.015380859,-0.8496704,0.05999756,0.109375,7.078125,0.71875
32,32,1727440423447,0.064208984,-0.90216064,-0.046936035,5.109375,0.140625,1.546875
33,33,1727440423487,0.11791992,-1.0603638,0.066833496,-3.265625,3.921875,1.609375
34,34,1727440423527,-0.17114258,-1.1668091,0.2177124,-10.859375,0.03125,-3.953125
35,35,1727440423567,-0.0925293,-1.2276001,-0.18487549,2.140625,-7.453125,-14.5625
36,36,1727440423607,0.14428711,-1.3357544,-0.14605713,2.015625,-10.46875,-9.578125
37,37,1727440423647,-0.05810547,-1.1306763,-0.07672119,-13.609375,-3.859375,-10.53125
38,38,1727440423687,0.06738281,-0.9212036,-0.2053833,-3.875,-4.328125,-9.65625
39,39,1727440423727,0.1027832,-0.91241455,-0.22174072,-4.390625,-0.828125,-2.59375
40,40,1727440423767,0.11694336,-0.9368286,-0.21392822,0.640625,0.8125,6.609375
41,41,1727440423807,0.10620117,-1.05719,-0.077697754,4.828125,0.96875,8.4375
42,42,1727440423847,0.045654297,-0.9973755,-0.018371582,0.546875,0.34375,6.28125
43,43,1727440423887,0.01928711,-0.86505127,-0.06524658,-0.75,-5.421875,3.015625
44,44,1727440423927,-0.01586914,-0.8789673,-0.05206299,5.171875,-9.5,3.921875
45,45,1727440423967,-0.064208984,-0.89971924,-0.035217285,4.125,-13.296875,3.046875
46,46,1727440424007,-0.12207031,-0.9014282,-0.0029907227,2.46875,-11.53125,2.4375
47,47,1727440424047,-0.092285156,-0.8765259,-0.0044555664,-1.53125,-9.5,2.15625
48,48,1727440424087,-0.087646484,-0.8765259,-0.00592041,-1.578125,-9.015625,0.53125
49,49,1727440424127,-0.092041016,-0.9077759,0.01776123,-2.296875,-7.578125,-0.359375
50,50,1727440424167,-0.10961914,-0.9981079,0.025817871,-1.40625,-4.4375,-1.28125
51,51,1727440424207,-0.08959961,-1.1838989,0.06341553,-3.0625,-4.5625,-4.265625
52,52,1727440424247,-0.12036133,-1.3648071,0.055847168,0.34375,1.96875,-2.703125
53,53,1727440424287,-0.052978516,-1.1575317,-0.09991455,-10.84375,2.25,-7.078125
54,54,1727440424327,0.16430664,-1.0308228,-0.15777588,-4.28125,-3.421875,-8.671875
55,55,1727440424367,0.1743164,-0.94366455,-0.1819458,0.5625,-7.828125,-2.640625
56,56,1727440424407,0.26098633,-0.8491821,-0.13482666,1.875,-9.3125,0.484375
57,57,1727440424447,0.11791992,-0.9795532,-0.081604004,9.71875,-15.09375,3.203125
58,58,1727440424487,0.032958984,-1.0059204,-0.09429932,13.625,-14.8125,3.375
59,59,1727440424527,0.060302734,-0.96661377,-0.06524658,9.6875,-11.65625,4.3125
60,60,1727440424567,0.041503906,-0.928772,-0.023254395,9.4375,-14.4375,4.359375
61,61,1727440424607,0.020751953,-0.8862915,-0.04107666,9.640625,-13.28125,5.578125
62,62,1727440424647,-0.022460938,-0.8814087,-0.010314941,8.015625,-11.375,5.75
63,63,1727440424687,-0.01928711,-0.8862915,0.032409668,6.21875,-3.171875,6.53125
64,64,1727440424727,-0.061279297,-0.8826294,0.04144287,4.171875,0.984375,3.546875
65,65,1727440424767,-0.056640625,-0.89019775,0.009460449,5.09375,2.9375,0.46875
66,66,1727440424807,0.048339844,-0.9373169,-0.07232666,3.9375,0.71875,-0.796875
67,67,1727440424847,0.024169922,-1.0271606,0.028503418,-5.6875,1.40625,-2.484375
68,68,1727440424887,-0.08618164,-1.1165161,0.13519287,-12.625,3.625,-8.046875
69,69,1727440424927,0.006591797,-1.3989868,-0.25177002,6.515625,-13.21875,-17.25
70,70,1727440424967,0.14892578,-1.335022,-0.1687622,-5.8125,-8.046875,-10.84375
71,71,1727440425007,-0.10253906,-1.1235962,-0.11773682,-4.171875,-3.28125,-11.59375
72,72,1727440425047,0.0925293,-0.927063,-0.20733643,0.703125,1.078125,-7.921875
73,73,1727440425087,0.107910156,-0.81915283,-0.30889893,1.71875,4.796875,-1.765625
74,74,1727440425127,0.08154297,-0.89068604,-0.22491455,0.578125,6.046875,2.484375
75,75,1727440425167,0.07006836,-0.99591064,-0.16461182,-3.703125,5.65625,1.296875
76,76,1727440425207,-0.0048828125,-0.95391846,-0.09527588,-0.640625,2.6875,3.625
77,77,1727440425247,-0.013916016,-0.8933716,-0.11138916,0.421875,-0.296875,3.109375
78,78,1727440425287,-0.05078125,-0.897522,-0.082336426,0.9375,-1.0625,1.9375
79,79,1727440425327,-0.05810547,-0.9067993,-0.05596924,1.390625,-0.359375,3.40625
80,80,1727440425367,-0.10083008,-0.9024048,-0.043029785,2.21875,-0.53125,3.6875
81,81,1727440425407,-0.06689453,-0.8838501,-0.043518066,-0.640625,-3.671875,4.03125
82,82,1727440425447,-0.119384766,-0.9002075,-0.031311035,-1.6875,-1.8125,3.359375
83,83,1727440425487,-0.13720703,-0.9194946,-0.053527832,-2.609375,1.21875,0.71875
84,84,1727440425527,-0.14086914,-0.9939575,-0.04888916,-1.0625,4.265625,-0.59375
85,85,1727440425567,-0.14794922,-1.1170044,0.002380371,-11.78125,6.40625,-3.1875
86,86,1727440425607,-0.039794922,-1.3657837,0.12908936,-5.640625,7.671875,-9.328125
87,87,1727440425647,-0.12939453,-1.2200317,-0.0017700195,-9.1875,6.59375,-8.375
88,88,1727440425687,0.06567383,-1.0344849,-0.2029419,-6.421875,7.375,-10.984375
89,89,1727440425727,0.24829102,-1.0110474,-0.1585083,-8.234375,7.453125,-7.578125
90,90,1727440425767,0.20605469,-0.880188,-0.15118408,-4.953125,-2.03125,-1.5625
91,91,1727440425807,0.16796875,-0.9627075,-0.097717285,4.953125,-8.5625,3.046875
92,92,1727440425847,0.0690918,-0.9998169,-0.109680176,7.1875,-9.75,6.8125
93,93,1727440425887,-0.03100586,-0.9783325,-0.04864502,7.34375,-10.453125,7.421875
94,94,1727440425927,-0.027832031,-0.9194946,-0.033996582,6.375,-8.453125,6.046875
95,95,1727440425967,-0.030273438,-0.9072876,0.014831543,6.921875,-7.015625,6.375
96,96,1727440426007,-0.005859375,-0.93463135,0.01361084,5.109375,-6.796875,6.203125
97,97,1727440426047,-0.03564453,-0.897522,0.059509277,4.3125,-4.21875,4.765625
98,98,1727440426087,-0.05834961,-0.8755493,0.050720215,4.5625,-0.890625,3.53125
99,99,1727440426127,-0.07714844,-0.8755493,0.061706543,4.578125,1.421875,2.34375
100,100,1727440426167,0.0041503906,-0.90875244,-0.022766113,4.671875,6.59375,2.21875
101,101,1727440426207,0.06591797,-1.0618286,0.013122559,0.140625,6.25,1.09375
102,102,1727440426247,-0.010986328,-1.1436157,0.14837646,-9.6875,5.59375,-3.0625
103,103,1727440426287,-0.041503906,-1.2590942,-0.1453247,-0.015625,-7.015625,-11.390625
104,104,1727440426327,0.071777344,-1.242981,-0.11212158,0.59375,-15.84375,-7.84375
105,105,1727440426367,-0.12158203,-1.1011353,-0.10357666,-8.796875,-8.390625,-8.984375
106,106,1727440426407,0.030517578,-1.0576782,-0.19317627,-2.203125,-4.84375,-8.109375
107,107,1727440426447,0.041748047,-0.8699341,-0.2312622,-4.890625,5.859375,-0.46875
108,108,1727440426487,0.052246094,-0.8701782,-0.25616455,2.609375,8.9375,5.234375
109,109,1727440426527,0.12768555,-1.0457153,-0.1663208,4.25,11.921875,5.125
110,110,1727440426567,0.018066406,-1.0110474,-0.08282471,2.421875,7.484375,7.390625
111,111,1727440426607,-0.01586914,-0.9146118,-0.05621338,1.8125,5.046875,5.453125
112,112,1727440426647,0.00390625,-0.8579712,-0.097229004,5.515625,0.3125,3.828125
113,113,1727440426687,-0.06713867,-0.8633423,-0.06817627,5.09375,0.640625,3.765625
114,114,1727440426727,-0.10205078,-0.90216064,-0.04498291,3.71875,0.734375,3.421875
115,115,1727440426767,-0.057861328,-0.8875122,-0.07940674,2.03125,-1.515625,2.796875
116,116,1727440426807,-0.07128906,-0.90875244,-0.06719971,-0.53125,-0.90625,1.765625
117,117,1727440426847,-0.1171875,-0.9663696,-0.026916504,-2.28125,-3.21875,-1.03125
118,118,1727440426887,-0.14257812,-0.99713135,-0.05255127,-2.140625,0.96875,-3.578125
119,119,1727440426927,-0.1784668,-1.0725708,0.0099487305,-12.796875,3.8125,-7.21875
120,120,1727440426967,0.014160156,-1.3154907,0.08319092,-6.203125,4.109375,-14.546875
121,121,1727440427007,-0.02734375,-1.2293091,-0.11920166,-8.296875,9.328125,-4.109375
122,122,1727440427047,0.123046875,-0.9649048,-0.22320557,-4.65625,12.109375,-2.59375
123,123,1727440427087,0.2487793,-0.96661377,-0.1260376,-3.34375,4.703125,-1.453125
124,124,1727440427127,0.19213867,-0.92755127,-0.15460205,2.8125,-4.296875,0.796875
125,125,1727440427167,0.19433594,-1.0845337,-0.15557861,6.4375,-5.984375,4.734375
126,126,1727440427207,0.03930664,-1.0188599,-0.07745361,5.734375,-7.28125,7.203125
127,127,1727440427247,-0.0048828125,-0.9277954,-0.055236816,8.765625,-11.125,4.25
128,128,1727440427287,0.0034179688,-0.9092407,-0.038635254,8.46875,-9.796875,3.84375
129,129,1727440427327,-0.009277344,-0.911438,-0.019592285,6.71875,-4.796875,5.25
130,130,1727440427367,0.012451172,-0.9248657,0.0048217773,5.484375,-1.234375,5.75
131,131,1727440427407,-0.021240234,-0.8880005,0.046081543,5.140625,0.46875,5.484375
132,132,1727440427447,-0.025878906,-0.8796997,0.0524292,5.28125,2.78125,2.5
133,133,1727440427487,-0.0056152344,-0.8845825,0.00970459,6.25,3.890625,1.15625
134,134,1727440427527,0.061035156,-0.8909302,-0.055725098,4.578125,-0.21875,0.0625
135,135,1727440427567,0.107177734,-0.9727173,0.018493652,-4.078125,-0.078125,-0.984375
136,136,1727440427607,-0.095703125,-1.1362915,0.19207764,-12.109375,4.65625,-6.375
137,137,1727440427647,-0.22045898,-1.2590942,-0.14312744,1.453125,-4.265625,-17.59375
138,138,1727440427687,0.17211914,-1.3914185,-0.062561035,-8.109375,-0.484375,-11.90625
139,139,1727440427727,0.018554688,-1.1748657,-0.066223145,-11.9375,-6.078125,-13.40625
140,140,1727440427767,-0.1171875,-0.92852783,-0.26226807,-1.5,0.328125,-6.71875
141,141,1727440427807,0.10839844,-0.8245239,-0.24542236,0.765625,10.640625,0.53125
142,142,1727440427847,0.005859375,-0.95635986,-0.19708252,-1.375,10.65625,2.4375
143,143,1727440427887,0.11425781,-0.99591064,-0.16485596,-0.140625,8.46875,3.4375
144,144,1727440427927,-0.024414062,-0.96295166,-0.06378174,-2.390625,5.546875,3.59375
145,145,1727440427967,0.0048828125,-0.892395,-0.0881958,3.578125,-0.46875,3.15625
146,146,1727440428007,-0.00048828125,-0.87677,-0.089904785,1.0625,-0.984375,3.953125
147,147,1727440428047,-0.049804688,-0.8892212,-0.047668457,2.453125,-3.28125,4.796875
148,148,1727440428087,-0.09326172,-0.9116821,-0.03326416,4.125,-4.1875,4.21875
149,149,1727440428127,-0.06738281,-0.8867798,-0.0256958,3.890625,-4.21875,3.8125
150,150,1727440428167,-0.11035156,-0.8936157,-0.00982666,3.9375,-4.640625,3.171875
151,151,1727440428207,-0.1184082,-0.90509033,-0.065979004,4.3125,-3.234375,2.015625
152,152,1727440428247,-0.16821289,-1.0266724,-0.051086426,4.078125,3.0625,-0.671875
153,153,1727440428287,-0.20458984,-1.1758423,-0.028869629,-5.59375,6.859375,-3.46875
154,154,1727440428327,-0.14111328,-1.2671509,0.15814209,-15.65625,3.171875,-9.484375
155,155,1727440428367,-0.14013672,-1.2278442,-0.051330566,-11.1875,8.28125,-6.953125
156,156,1727440428407,0.08544922,-0.97003174,-0.2774048,2.25,6.3125,-7.453125
157,157,1727440428447,0.32543945,-0.9768677,-0.30645752,-3.46875,-3.40625,-3.625
158,158,1727440428487,0.10424805,-0.94317627,-0.15362549,-5.953125,-0.515625,2.5625
159,159,1727440428527,0.1274414,-1.0271606,-0.093811035,4.3125,-0.6875,3.328125
160,160,1727440428567,0.018798828,-1.0247192,-0.10430908,5.59375,-1.46875,3.734375
161,161,1727440428607,0.01953125,-0.9678345,-0.07745361,3.265625,0.6875,4.1875
162,162,1727440428647,0.025390625,-0.93927,-0.04498291,1.265625,-0.28125,3.90625
163,163,1727440428687,0.015380859,-0.8911743,-0.023010254,1.390625,-0.359375,5.09375
164,164,1727440428727,-0.026367188,-0.895813,0.02166748,1.265625,3.265625,6.21875
165,165,1727440428767,-0.050048828,-0.8843384,0.046569824,2.859375,4.46875,4.984375
166,166,1727440428807,-0.026855469,-0.8804321,0.062194824,2.984375,9.515625,5.09375
167,167,1727440428847,-0.06689453,-0.84942627,0.07684326,1.21875,12.578125,3.84375
168,168,1727440428887,0.017822266,-0.8233032,-0.027893066,5.421875,10.578125,1.609375
169,169,1727440428927,0.0625,-0.9644165,0.044128418,-0.234375,7.671875,1.234375
170,170,1727440428967,-0.07397461,-1.1426392,0.13739014,-8.15625,5.21875,-4.953125
171,171,1727440429007,-0.19042969,-1.2793579,0.0021362305,-5.796875,3.296875,-12.125
172,172,1727440429047,0.07495117,-1.3440552,-0.07354736,-1.90625,1.4375,-10.9375
173,173,1727440429087,0.05810547,-1.22052,-0.12774658,-6.28125,-6.265625,-9.109375
174,174,1727440429127,0.06738281,-1.0354614,-0.14752197,-6.09375,-2.15625,-4.859375
175,175,1727440429167,0.021972656,-0.79473877,-0.19708252,-3.6875,2.46875,-1.609375
176,176,1727440429207,0.03149414,-0.91290283,-0.22271729,3.421875,5.84375,3.0
177,177,1727440429247,0.08081055,-1.0408325,-0.15386963,1.703125,10.203125,4.40625
178,178,1727440429287,-0.0026855469,-0.9898071,-0.06378174,-0.828125,7.484375,5.125
179,179,1727440429327,0.0009765625,-0.9258423,-0.04498291,-1.171875,3.65625,3.6875
180,180,1727440429367,0.014404297,-0.85650635,-0.061828613,-1.453125,-1.15625,3.75
181,181,1727440429407,-0.049804688,-0.8418579,-0.023498535,-0.71875,-4.828125,3.796875
182,182,1727440429447,-0.10864258,-0.8814087,0.007507324,1.53125,-6.328125,3.859375
183,183,1727440429487,-0.078125,-0.8648071,0.0033569336,1.375,-7.703125,2.703125
184,184,1727440429527,-0.099365234,-0.88897705,0.055603027,0.859375,-7.765625,1.90625
185,185,1727440429567,-0.095703125,-0.89508057,0.013122559,2.765625,-9.0,0.046875
186,186,1727440429607,-0.17993164,-1.0527954,0.026306152,4.015625,-2.234375,-0.484375
187,187,1727440429647,-0.16967773,-1.2246704,0.06365967,-3.96875,0.578125,-2.984375
188,188,1727440429687,-0.17138672,-1.3860474,0.16741943,-4.15625,10.171875,-4.09375
189,189,1727440429727,0.024902344,-1.1321411,-0.13604736,-11.21875,7.046875,-7.765625
190,190,1727440429767,0.28442383,-1.0457153,-0.23565674,6.75,1.5,-4.96875
191,191,1727440429807,0.30688477,-0.8731079,-0.20391846,-0.25,-3.875,3.109375
192,192,1727440429847,0.18383789,-0.87335205,-0.0803833,8.109375,-12.453125,3.53125
193,193,1727440429887,0.15405273,-1.0679321,-0.17828369,11.734375,-17.0625,4.53125
194,194,1727440429927,0.044921875,-1.0332642,-0.09820557,7.75,-13.046875,6.28125
195,195,1727440429967,0.018798828,-0.9624634,-0.04522705,5.3125,-12.6875,5.125
196,196,1727440430007,-0.03491211,-0.86431885,-0.0049438477,5.953125,-11.5625,3.5625
197,197,1727440430047,-0.047607422,-0.8430786,-0.0076293945,5.828125,-7.171875,5.140625
198,198,1727440430087,0.0048828125,-0.8831177,0.01751709,2.453125,-2.546875,5.296875
199,199,1727440430127,-0.011962891,-0.8831177,0.09124756,1.515625,1.15625,3.21875
200,200,1727440430167,-0.011230469,-0.8335571,0.050476074,2.625,2.296875,0.15625
201,201,1727440430207,0.051757812,-0.8442993,-0.03668213,9.171875,-1.78125,-0.96875
202,202,1727440430247,0.125,-1.0437622,0.0004272461,1.578125,-0.265625,-1.203125
203,203,1727440430287,-0.079589844,-1.2525024,0.15863037,-11.53125,3.1875,-8.296875
204,204,1727440430327,-0.20141602,-1.2930298,-0.017150879,-6.328125,-3.578125,-17.75
205,205,1727440430367,0.13647461,-1.2888794,-0.09454346,3.296875,-8.421875,-12.703125
206,206,1727440430407,0.025146484,-1.0545044,-0.10430908,-3.0,-5.25,-11.265625
207,207,1727440430447,0.14624023,-0.97735596,-0.29718018,1.71875,-1.328125,-5.375
208,208,1727440430487,0.07763672,-0.89068604,-0.3242798,-0.15625,10.203125,-0.03125
209,209,1727440430527,0.02368164,-0.9546509,-0.27056885,3.265625,10.46875,2.90625
210,210,1727440430567,0.123046875,-1.045227,-0.15948486,-0.1875,12.375,0.40625
211,211,1727440430607,-0.0031738281,-0.93414307,-0.10430908,0.46875,5.109375,4.25
212,212,1727440430647,-0.0146484375,-0.8574829,-0.11016846,4.5,-0.171875,4.265625
213,213,1727440430687,-0.0234375,-0.8167114,-0.12701416,4.265625,-0.25,4.5625
214,214,1727440430727,-0.08276367,-0.84088135,-0.0803833,3.078125,-0.171875,5.59375
215,215,1727440430767,-0.08984375,-0.8591919,-0.06573486,3.90625,-1.765625,4.484375
216,216,1727440430807,-0.125,-0.8682251,-0.04034424,-0.53125,-0.421875,2.8125
217,217,1727440430847,-0.083740234,-0.9002075,-0.06085205,0.375,-1.140625,0.890625
218,218,1727440430887,-0.11743164,-0.9680786,-0.07598877,-0.765625,1.640625,1.109375
219,219,1727440430927,-0.1665039,-1.1245728,-0.010803223,-4.875,3.53125,-1.921875
220,220,1727440430967,-0.11206055,-1.3076782,0.044128418,-6.171875,3.875,-7.296875
221,221,1727440431007,-0.088378906,-1.3267212,-0.11114502,-1.03125,12.1875,-2.65625
222,222,1727440431047,0.12963867,-1.0339966,-0.2942505,2.234375,13.8125,0.546875
223,223,1727440431087,0.1706543,-0.9729614,-0.26593018,2.59375,4.125,-1.265625
224,224,1727440431127,0.28198242,-0.8184204,-0.23443604,-0.609375,-6.4375,0.484375
225,225,1727440431167,0.12817383,-0.8911743,-0.16729736,6.359375,-14.125,-0.625
226,226,1727440431207,0.08911133,-1.0576782,-0.22003174,3.40625,-11.890625,1.671875
227,227,1727440431247,0.029785156,-0.96051025,-0.14117432,1.890625,-9.0,5.4375
228,228,1727440431287,-0.0146484375,-0.94488525,-0.07720947,-0.390625,-6.609375,3.59375
229,229,1727440431327,-0.0126953125,-0.8936157,-0.027648926,2.515625,-5.796875,5.0
230,230,1727440431367,-0.0063476562,-0.88287354,-0.01739502,0.765625,-2.390625,5.953125
231,231,1727440431407,-0.025634766,-0.8513794,0.036071777,0.640625,1.359375,7.28125
232,232,1727440431447,-0.02709961,-0.8230591,0.047790527,1.796875,4.859375,5.234375
233,233,1727440431487,-0.03100586,-0.8308716,0.013122559,2.609375,7.484375,2.578125
234,234,1727440431527,0.072509766,-0.9089966,-0.101623535,4.421875,3.953125,1.21875
235,235,1727440431567,0.099609375,-1.0857544,0.0014038086,-6.296875,5.828125,-2.015625
236,236,1727440431607,-0.111572266,-1.2070923,0.20452881,-18.21875,9.984375,-10.0
237,237,1727440431647,0.008300781,-1.3630981,-0.22735596,1.46875,-9.390625,-20.6875
238,238,1727440431687,0.13964844,-1.317688,-0.15753174,-8.328125,-10.046875,-11.421875
239,239,1727440431727,-0.026855469,-1.0493774,-0.16192627,-8.15625,-6.9375,-12.515625
240,240,1727440431767,0.08642578,-0.9656372,-0.27349854,-1.890625,-2.828125,-8.484375
241,241,1727440431807,0.02734375,-0.91070557,-0.32183838,-5.296875,6.109375,-2.921875
242,242,1727440431847,0.103271484,-0.9866333,-0.2498169,-2.078125,8.625,2.546875
243,243,1727440431887,0.10449219,-1.0342407,-0.10284424,-8.171875,13.140625,3.640625
244,244,1727440431927,-0.040283203,-0.88360596,-0.012023926,-5.109375,5.03125,3.84375
245,245,1727440431967,-0.02319336,-0.81085205,-0.090148926,2.40625,0.53125,2.90625
246,246,1727440432007,-0.060546875,-0.8220825,-0.078186035,4.140625,0.953125,3.296875
247,247,1727440432047,-0.13574219,-0.8718872,-0.015930176,2.765625,1.96875,3.96875
248,248,1727440432087,-0.119384766,-0.8826294,-0.019104004,3.171875,2.625,3.40625
249,249,1727440432127,-0.08666992,-0.8604126,-0.0020141602,-0.125,0.96875,3.265625
250,250,1727440432167,-0.05883789,-0.86724854,0.023620605,-1.0,-0.3125,3.140625
251,251,1727440432207,-0.13378906,-0.9307251,0.031921387,-0.375,0.609375,2.359375
252,252,1727440432247,-0.20654297,-1.1362915,0.042419434,-0.90625,3.953125,-1.125
253,253,1727440432287,-0.1340332,-1.4570923,0.08856201,3.703125,9.46875,-6.078125
254,254,1727440432327,-0.06201172,-1.3164673,-0.11407471,-6.4375,12.109375,-2.25
255,255,1727440432367,0.17895508,-1.019104,-0.29742432,0.703125,4.921875,-4.265625
256,256,1727440432407,0.23266602,-0.9546509,-0.25494385,1.65625,4.046875,0.421875
257,257,1727440432447,0.32348633,-0.84820557,-0.20172119,-2.34375,-4.3125,2.71875
258,258,1727440432487,0.21362305,-0.99468994,-0.17584229,8.53125,-15.90625,4.8125
259,259,1727440432527,0.021728516,-1.0464478,-0.09674072,9.671875,-16.25,5.53125
260,260,1727440432567,0.02319336,-0.95684814,-0.10626221,8.765625,-14.703125,4.4375
261,261,1727440432607,-0.049072266,-0.8870239,-0.034484863,4.8125,-13.15625,1.21875
262,262,1727440432647,0.0068359375,-0.85943604,-0.03643799,8.4375,-10.6875,3.75
263,263,1727440432687,0.0048828125,-0.8845825,0.0211792,6.515625,-5.765625,4.71875
264,264,1727440432727,-0.017089844,-0.8845825,0.07659912,4.296875,-2.671875,4.0
265,265,1727440432767,-0.013427734,-0.8796997,0.09906006,3.46875,3.296875,1.953125
266,266,1727440432807,-0.035888672,-0.83673096,-0.0051879883,7.578125,1.609375,-1.0625
267,267,1727440432847,0.09399414,-0.9314575,-0.06768799,6.015625,0.90625,-2.5
268,268,1727440432887,0.009033203,-1.0679321,0.050231934,-4.578125,2.328125,-4.890625
269,269,1727440432927,-0.16210938,-1.2461548,-0.065979004,-2.765625,5.828125,-14.84375
270,270,1727440432967,0.37060547,-1.4348755,-0.17559814,1.96875,-9.1875,-9.859375
271,271,1727440433007,0.025878906,-1.1948853,-0.1831665,-9.203125,-9.625,-9.671875
272,272,1727440433047,-0.13085938,-0.9793091,-0.35968018,4.65625,-6.484375,-6.546875
273,273,1727440433087,0.079589844,-0.8430786,-0.32891846,5.234375,8.921875,2.96875
274,274,1727440433127,0.0063476562,-0.86431885,-0.2546997,-4.640625,13.40625,2.390625
275,275,1727440433167,0.11206055,-1.0159302,-0.1831665,-3.6875,13.34375,3.71875
276,276,1727440433207,-0.020751953,-0.9224243,-0.101867676,-6.375,10.890625,2.9375
277,277,1727440433247,-0.016357422,-0.91412354,-0.13580322,1.734375,5.796875,2.640625
278,278,1727440433287,-0.008056641,-0.8596802,-0.15704346,0.8125,5.953125,3.515625
279,279,1727440433327,-0.052246094,-0.89385986,-0.10723877,0.09375,5.453125,3.71875
280,280,1727440433367,-0.07104492,-0.8833618,-0.08428955,-0.6875,3.640625,3.96875
281,281,1727440433407,-0.059570312,-0.8526001,-0.07159424,-0.5,-0.203125,3.109375
282,282,1727440433447,-0.06689453,-0.86260986,-0.050354004,-1.578125,-1.578125,2.609375
283,283,1727440433487,-0.12524414,-0.9194946,-0.054992676,-1.28125,0.109375,1.078125
284,284,1727440433527,-0.17138672,-1.09552,-0.06109619,-3.046875,2.75,-3.3125
285,285,1727440433567,-0.14086914,-1.2244263,0.012145996,-14.875,5.203125,-5.140625
286,286,1727440433607,-0.055908203,-1.3894653,0.029968262,-14.515625,1.140625,-13.1875
287,287,1727440433647,-0.08178711,-1.1321411,-0.1873169,-5.359375,-3.796875,-3.96875
288,288,1727440433687,0.30371094,-0.9746704,-0.39215088,0.40625,2.390625,-1.484375
289,289,1727440433727,0.19970703,-0.9338989,-0.21221924,-9.75,4.5,4.15625
290,290,1727440433767,0.18652344,-0.93756104,-0.073791504,-2.578125,-4.359375,2.203125
291,291,1727440433807,0.1015625,-1.102356,-0.13043213,4.484375,-7.828125,2.796875
292,292,1727440433847,-0.040283203,-1.0195923,-0.06695557,3.609375,-2.59375,4.328125
293,293,1727440433887,-0.027832031,-0.9151001,-0.03765869,1.921875,0.59375,2.0625
294,294,1727440433927,-0.05102539,-0.8648071,0.009460449,2.28125,1.640625,3.46875
295,295,1727440433967,0.032226562,-0.8557739,0.0026245117,1.765625,6.21875,5.828125
296,296,1727440434007,-0.048339844,-0.8755493,0.07269287,-1.96875,5.125,7.109375
297,297,1727440434047,-0.024169922,-0.8652954,0.07171631,-0.78125,5.703125,3.359375
298,298,1727440434087,-0.072021484,-0.8591919,0.074157715,-0.90625,4.765625,0.140625
299,299,1727440434127,0.016845703,-0.8945923,0.001159668,1.140625,2.234375,-2.671875
300,300,1727440434167,0.04638672,-1.0134888,0.04852295,-2.453125,0.046875,-1.34375
301,301,1727440434207,-0.028564453,-1.0762329,0.1408081,-10.75,1.9375,-4.3125
302,302,1727440434247,-0.14086914,-1.192688,0.074645996,-9.015625,5.109375,-9.234375
303,303,1727440434287,0.12011719,-1.3743286,-0.09869385,0.546875,-8.328125,-10.25
304,304,1727440434327,0.10668945,-1.1865845,-0.10455322,-6.828125,-11.03125,-9.890625
305,305,1727440434367,0.029541016,-0.9898071,-0.06842041,-2.65625,-8.84375,-4.90625
306,306,1727440434407,-0.041748047,-0.77130127,-0.17706299,1.265625,-2.6875,-1.984375
307,307,1727440434447,0.02709961,-0.9065552,-0.20489502,9.109375,3.703125,4.453125
308,308,1727440434487,0.07885742,-1.0767212,-0.10772705,6.5625,5.296875,7.0625
309,309,1727440434527,-0.021484375,-1.0130005,-0.010559082,-0.671875,5.65625,2.9375
310,310,1727440434567,-0.034179688,-0.8953247,-0.020324707,0.578125,3.546875,1.671875
311,311,1727440434607,-0.016845703,-0.8609009,-0.06109619,1.96875,-0.765625,3.890625
312,312,1727440434647,-0.1027832,-0.87384033,-0.0010375977,3.640625,0.78125,3.859375
313,313,1727440434687,-0.14013672,-0.94000244,0.024353027,2.71875,2.5,3.96875
314,314,1727440434727,-0.119384766,-0.8982544,0.03778076,-2.75,2.328125,2.671875
315,315,1727440434767,-0.076171875,-0.8858032,0.0036010742,-2.65625,0.25,1.53125
316,316,1727440434807,-0.11621094,-0.8977661,0.023132324,-2.09375,1.703125,0.640625
317,317,1727440434847,-0.1850586,-1.0752563,0.003112793,0.875,6.5625,-3.078125
318,318,1727440434887,-0.16699219,-1.1677856,0.074401855,-12.484375,6.390625,-7.3125
319,319,1727440434927,-0.095947266,-1.3308716,0.12762451,-9.359375,10.671875,-10.609375
320,320,1727440434967,0.056152344,-1.0772095,-0.18121338,0.796875,5.296875,-6.5625
321,321,1727440435007,0.3088379,-1.0105591,-0.20928955,4.546875,1.640625,-0.671875
322,322,1727440435047,0.22680664,-0.9805298,-0.10723877,-0.953125,-1.90625,7.3125
323,323,1727440435087,0.17700195,-0.9360962,-0.04034424,1.859375,-5.234375,4.1875
324,324,1727440435127,0.106933594,-1.0420532,-0.061584473,7.859375,-8.734375,3.78125
325,325,1727440435167,0.03149414,-0.92755127,-0.043762207,7.890625,-8.578125,4.828125
326,326,1727440435207,0.012939453,-0.89678955,-0.023742676,7.484375,-8.171875,4.359375
327,327,1727440435247,0.036376953,-0.8665161,-0.016174316,8.71875,-8.90625,5.4375
328,328,1727440435287,0.02758789,-0.92852783,0.04168701,5.65625,-6.921875,5.6875
329,329,1727440435327,-0.016113281,-0.90631104,0.07147217,4.4375,-3.921875,4.515625
330,330,1727440435367,-0.05102539,-0.86798096,0.113220215,5.71875,-1.03125,2.625
331,331,1727440435407,-0.075683594,-0.8442993,0.08074951,7.0,3.90625,0.40625
332,332,1727440435447,0.038085938,-0.87701416,-0.038879395,9.84375,1.234375,-1.046875
333,333,1727440435487,0.12548828,-0.99542236,0.022888184,-1.140625,1.640625,-3.25
334,334,1727440435527,-0.021484375,-1.1646118,0.1408081,-10.453125,1.28125,-8.359375
335,335,1727440435567,-0.12890625,-1.3777466,-0.16656494,2.5625,-9.3125,-18.15625
336,336,1727440435607,0.19848633,-1.3262329,-0.07867432,-11.5625,-6.09375,-8.640625
337,337,1727440435647,-0.16381836,-1.0686646,-0.07476807,-10.578125,-7.90625,-15.109375
338,338,1727440435687,0.20410156,-0.9644165,-0.16729736,-4.375,-1.296875,-4.859375
339,339,1727440435727,0.063964844,-0.91900635,-0.23199463,-4.1875,3.40625,-2.015625
340,340,1727440435767,0.041259766,-0.94244385,-0.18511963,2.09375,5.3125,3.234375
341,341,1727440435807,0.06640625,-1.0591431,-0.07305908,-3.484375,10.703125,2.09375
342,342,1727440435847,-0.05102539,-0.9077759,-0.01373291,-0.640625,7.9375,3.109375
343,343,1727440435887,-0.018310547,-0.86187744,-0.07159424,5.21875,4.125,2.890625
344,344,1727440435927,-0.030517578,-0.8765259,-0.061584473,0.734375,2.890625,3.703125
345,345,1727440435967,-0.10205078,-0.90631104,-0.011291504,1.296875,-0.578125,3.375
346,346,1727440436007,-0.068359375,-0.8916626,0.0048217773,2.640625,-1.59375,3.203125
347,347,1727440436047,-0.08691406,-0.8699341,0.02508545,-0.015625,-1.734375,2.84375
348,348,1727440436087,-0.13598633,-0.8609009,0.018249512,3.28125,-2.125,1.703125
349,349,1727440436127,-0.16015625,-0.94610596,-0.014953613,3.171875,2.640625,-1.25
350,350,1727440436167,-0.18188477,-1.1272583,-0.003479004,-1.125,7.5625,-2.96875
351,351,1727440436207,-0.17163086,-1.2249146,0.13885498,-17.578125,6.890625,-6.375
352,352,1727440436247,-0.14794922,-1.3359985,0.04949951,-8.828125,9.359375,-7.640625
353,353,1727440436287,0.12060547,-1.0291138,-0.19610596,-4.765625,4.796875,-5.328125
354,354,1727440436327,0.29785156,-1.0379028,-0.19024658,-3.21875,10.21875,-2.40625
355,355,1727440436367,0.18945312,-0.913147,-0.10479736,-1.375,-2.796875,2.984375
356,356,1727440436407,0.11035156,-0.98223877,-0.07891846,6.5,-7.171875,2.59375
357,357,1727440436447,0.012939453,-0.9968872,-0.09234619,6.859375,-7.296875,3.515625
358,358,1727440436487,-0.01953125,-0.93218994,-0.047668457,6.875,-4.15625,4.46875
359,359,1727440436527,-0.025878906,-0.8982544,-0.019592285,3.953125,-1.34375,3.984375
360,360,1727440436567,0.013671875,-0.911438,0.003112793,4.21875,1.078125,5.296875
361,361,1727440436607,0.012939453,-0.9180298,0.027038574,2.390625,1.25,5.765625
362,362,1727440436647,-0.031982422,-0.8933716,0.09051514,1.125,0.078125,4.59375
363,363,1727440436687,-0.064453125,-0.82891846,0.105407715,1.5625,0.6875,1.703125
364,364,1727440436727,-0.048583984,-0.8574829,0.039489746,6.5,0.8125,0.0625
365,365,1727440436767,0.07373047,-0.9546509,-0.044006348,2.875,3.140625,-0.578125
366,366,1727440436807,0.036621094,-1.0650024,0.074401855,-4.640625,2.234375,-1.28125
367,367,1727440436847,-0.08642578,-1.1575317,0.24212646,-14.296875,5.53125,-7.078125
368,368,1727440436887,-0.10888672,-1.3150024,-0.09088135,-3.5,-7.25,-15.109375
369,369,1727440436927,0.05908203,-1.2717896,0.018493652,-7.5,-8.453125,-10.203125
370,370,1727440436967,-0.0546875,-1.1035767,-0.085510254,-7.796875,-6.125,-10.84375
371,371,1727440437007,0.111572266,-1.0176392,-0.20245361,-3.828125,-4.765625,-4.328125
372,372,1727440437047,-0.0126953125,-0.84088135,-0.19586182,-3.578125,4.265625,0.03125
373,373,1727440437087,0.024902344,-0.9326782,-0.20074463,4.0,3.078125,2.5
374,374,1727440437127,0.0793457,-1.0339966,-0.105041504,-0.65625,5.09375,2.828125
375,375,1727440437167,-0.022705078,-0.94732666,-0.008117676,-1.03125,1.515625,3.96875
376,376,1727440437207,-0.032958984,-0.8682251,-0.03326416,2.984375,-3.53125,3.53125
377,377,1727440437247,0.0026855469,-0.88287354,-0.04840088,5.4375,-3.765625,6.3125
378,378,1727440437287,-0.09765625,-0.90460205,-0.0032348633,5.890625,-4.296875,7.140625
379,379,1727440437327,-0.11694336,-0.9192505,0.024841309,4.28125,-3.671875,5.90625
380,380,1727440437367,-0.11987305,-0.8689575,0.05682373,2.265625,-5.125,4.046875
381,381,1727440437407,-0.07861328,-0.8596802,0.023376465,3.21875,-5.25,2.984375
382,382,1727440437447,-0.09057617,-0.927063,0.0038452148,3.03125,-4.375,3.296875
383,383,1727440437487,-0.18579102,-1.019104,0.026550293,3.96875,2.625,1.5625
384,384,1727440437527,-0.17578125,-1.1565552,0.047302246,-7.453125,6.484375,-3.234375
385,385,1727440437567,-0.064941406,-1.427063,0.1720581,-2.0,10.46875,-5.203125
386,386,1727440437607,-0.0061035156,-1.2244263,-0.070373535,-11.453125,6.625,-4.390625
387,387,1727440437647,0.15917969,-0.9602661,-0.17437744,1.5,3.0625,-2.578125
388,388,1727440437687,0.1628418,-0.90875244,-0.16802979,0.203125,0.921875,1.0
389,389,1727440437727,0.15917969,-0.84747314,-0.109436035,4.46875,-3.65625,0.9375
390,390,1727440437767,0.140625,-1.0513306,-0.1338501,8.046875,-4.9375,3.59375
391,391,1727440437807,0.08325195,-1.0327759,-0.09136963,3.0625,-4.5625,4.796875
392,392,1727440437847,0.064208984,-0.99102783,-0.02545166,2.421875,-7.890625,3.796875
393,393,1727440437887,0.01171875,-0.9002075,0.02142334,5.765625,-12.078125,2.84375
394,394,1727440437927,-0.017822266,-0.87042236,0.026062012,5.828125,-10.046875,3.0
395,395,1727440437967,-0.046142578,-0.88067627,0.070495605,4.53125,-4.4375,3.75
396,396,1727440438007,-0.06640625,-0.8711548,0.1239624,3.671875,-0.578125,3.078125
397,397,1727440438047,-0.047851562,-0.8633423,0.12591553,3.8125,2.390625,0.015625
398,398,1727440438087,-0.046875,-0.8833618,0.028015137,8.78125,0.328125,-3.390625
399,399,1727440438127,0.087646484,-0.99005127,-0.018127441,2.015625,2.484375,-6.09375
400,400,1727440438167,0.033203125,-1.1192017,0.10858154,-8.171875,5.515625,-5.234375
401,401,1727440438207,-0.15063477,-1.2105103,0.027282715,-11.859375,7.15625,-12.5625
402,402,1727440438247,0.234375,-1.328186,-0.026184082,-4.78125,-5.40625,-9.5
403,403,1727440438287,-0.014404297,-1.1799927,-0.0335083,-9.328125,-9.25,-11.3125
404,404,1727440438327,-0.09326172,-1.0374146,-0.30743408,5.671875,-10.53125,-9.484375
405,405,1727440438367,0.043701172,-0.8574829,-0.23345947,4.421875,7.03125,1.5625
406,406,1727440438407,-0.011474609,-0.8909302,-0.19464111,2.8125,12.328125,1.421875
407,407,1727440438447,0.1743164,-1.0418091,-0.1729126,1.984375,11.046875,3.9375
408,408,1727440438487,-0.04638672,-0.97320557,-0.073791504,-2.984375,10.015625,3.78125
409,409,1727440438527,-0.06958008,-0.9038696,-0.051818848,2.421875,6.375,2.34375
410,410,1727440438567,-0.03515625,-0.8789673,-0.09259033,3.953125,4.140625,3.59375
411,411,1727440438607,-0.09326172,-0.88848877,-0.06304932,3.46875,3.875,3.078125
412,412,1727440438647,-0.0859375,-0.90875244,-0.035461426,2.75,3.1875,3.203125
413,413,1727440438687,-0.080078125,-0.87872314,-0.022521973,0.765625,0.9375,2.640625
414,414,1727440438727,-0.099121094,-0.86187744,-0.0178833,1.421875,-3.140625,1.375
415,415,1727440438767,-0.10473633,-0.90826416,-0.05255127,0.03125,-2.53125,0.1875
416,416,1727440438807,-0.22387695,-1.0620728,-0.009338379,-1.390625,1.828125,-3.046875
417,417,1727440438847,-0.20996094,-1.1585083,0.055358887,-12.625,5.25,-6.140625
418,418,1727440438887,-0.040771484,-1.3694458,0.09686279,-7.921875,4.21875,-12.75
419,419,1727440438927,-0.0769043,-1.1038208,-0.11578369,-4.515625,6.828125,-3.453125
420,420,1727440438967,0.12866211,-0.91290283,-0.21002197,5.0625,2.265625,-3.390625
421,421,1727440439007,0.18969727,-0.96099854,-0.21124268,-0.90625,1.125,-0.96875
422,422,1727440439047,0.20361328,-0.9439087,-0.12921143,3.921875,-11.234375,-1.78125
423,423,1727440439087,0.115478516,-1.1047974,-0.16436768,8.75,-11.859375,1.46875
424,424,1727440439127,-0.011230469,-1.034729,-0.08453369,6.4375,-10.015625,5.390625
425,425,1727440439167,-0.0637207,-0.954895,-0.035949707,6.828125,-8.40625,3.9375
426,426,1727440439207,-0.060058594,-0.87091064,-0.022521973,7.03125,-4.671875,4.578125
427,427,1727440439247,-0.030761719,-0.87872314,-0.028869629,6.546875,-2.0,7.515625
428,428,1727440439287,-0.032470703,-0.9043579,0.022155762,2.3125,3.015625,8.578125
429,429,1727440439327,-0.08276367,-0.8748169,0.08123779,2.578125,6.40625,6.0
430,430,1727440439367,-0.07128906,-0.8574829,0.06781006,5.0,8.640625,1.859375
431,431,1727440439407,-0.004638672,-0.8858032,-0.010314941,8.265625,7.984375,1.046875
432,432,1727440439447,0.1381836,-0.9104614,-0.07330322,6.328125,4.296875,1.78125
433,433,1727440439487,0.083740234,-1.041565,0.03729248,-1.40625,1.859375,0.984375
434,434,1727440439527,-0.20019531,-1.2088013,0.14056396,-10.234375,4.046875,-9.375
435,435,1727440439567,0.071777344,-1.3294067,-0.2630005,8.5625,-11.53125,-18.875
436,436,1727440439607,0.047607422,-1.3276978,-0.12554932,-2.734375,-5.765625,-10.515625
437,437,1727440439647,-0.083496094,-0.9710083,-0.14385986,-6.15625,-3.484375,-9.3125
438,438,1727440439687,0.1418457,-0.8569946,-0.3201294,6.3125,-1.125,-1.234375
439,439,1727440439727,0.07128906,-0.89630127,-0.3731079,1.265625,3.71875,1.15625
440,440,1727440439767,0.05419922,-0.9990845,-0.30499268,3.1875,2.828125,1.125
441,441,1727440439807,0.053710938,-1.0747681,-0.14898682,-3.6875,9.09375,1.15625
442,442,1727440439847,-0.072265625,-0.9343872,-0.07525635,-3.734375,1.921875,1.40625
443,443,1727440439887,-0.0859375,-0.86920166,-0.13726807,0.703125,-2.03125,0.890625
444,444,1727440439927,-0.048095703,-0.8377075,-0.124816895,0.03125,-1.234375,1.265625
445,445,1727440439967,-0.06982422,-0.8826294,-0.081848145,1.34375,-3.609375,3.78125
446,446,1727440440007,-0.107421875,-0.8916626,-0.0635376,0.21875,-5.140625,4.546875
447,447,1727440440047,-0.11987305,-0.85357666,-0.045715332,0.0,-3.765625,3.46875
448,448,1727440440087,-0.15795898,-0.8999634,-0.010559082,-0.875,-1.03125,2.265625
449,449,1727440440127,-0.1616211,-0.9224243,-0.039123535,-2.890625,2.578125,0.9375
450,450,1727440440167,-0.14550781,-1.0130005,-0.023498535,-3.921875,6.625,0.78125
451,451,1727440440207,-0.12695312,-1.123352,-0.0076293945,-11.09375,6.9375,0.84375
452,452,1727440440247,-0.045166016,-1.3901978,0.038024902,-7.625,-0.40625,-5.171875
453,453,1727440440287,-0.08666992,-1.3113403,-0.17144775,-10.328125,3.9375,-4.0625
454,454,1727440440327,0.15795898,-0.9505005,-0.30255127,-3.21875,4.78125,-1.171875
455,455,1727440440367,0.19067383,-0.9187622,-0.18048096,-7.9375,14.984375,-2.0625
456,456,1727440440407,0.17822266,-0.925354,-0.18511963,3.296875,-2.71875,-0.515625
457,457,1727440440447,0.140625,-1.0703735,-0.20050049,7.859375,-6.90625,2.875
458,458,1727440440487,-0.041748047,-1.0117798,-0.11456299,6.5625,-6.0625,4.75
459,459,1727440440527,-0.025634766,-0.9224243,-0.089904785,3.9375,-5.71875,2.578125
460,460,1727440440567,-0.04272461,-0.85772705,-0.022277832,2.71875,-2.65625,0.75
461,461,1727440440607,-0.011962891,-0.8726196,-0.022033691,3.15625,-1.203125,3.9375
462,462,1727440440647,-0.014160156,-0.88531494,0.014343262,-0.609375,1.484375,3.828125
463,463,1727440440687,-0.055419922,-0.88287354,0.04949951,1.6875,2.546875,3.375
464,464,1727440440727,-0.05883789,-0.8648071,0.02947998,1.53125,3.84375,2.34375
465,465,1727440440767,-0.034423828,-0.8843384,-0.0037231445,2.375,1.15625,0.734375
466,466,1727440440807,0.022705078,-0.98101807,0.0021362305,-1.125,-1.53125,-0.3125
467,467,1727440440847,-0.028564453,-1.0698853,0.06732178,-5.921875,-2.53125,-3.140625
468,468,1727440440887,-0.1352539,-1.1365356,0.15887451,-10.375,0.15625,-8.734375
469,469,1727440440927,-0.02368164,-1.3821411,-0.15142822,5.125,-13.15625,-17.4375
470,470,1727440440967,0.068115234,-1.2478638,-0.11407471,-3.515625,-10.203125,-11.109375
471,471,1727440441007,-0.0871582,-1.0769653,-0.17340088,1.75,-6.5625,-9.34375
472,472,1727440441047,0.13989258,-0.90167236,-0.24615479,0.203125,3.328125,-1.421875
473,473,1727440441087,0.022460938,-0.8230591,-0.25054932,0.40625,6.125,4.34375
474,474,1727440441127,0.11669922,-0.9619751,-0.24957275,4.578125,5.296875,7.046875
475,475,1727440441167,0.029785156,-1.0061646,-0.11553955,0.03125,9.390625,6.515625
476,476,1727440441207,-0.04663086,-0.94317627,-0.05718994,1.609375,5.625,5.75
477,477,1727440441247,-0.02368164,-0.9024048,-0.09136963,4.828125,3.421875,6.09375
478,478,1727440441287,-0.04345703,-0.8855591,-0.09259033,4.03125,1.6875,5.890625
479,479,1727440441327,-0.09667969,-0.89556885,-0.03765869,2.5,1.28125,5.796875
480,480,1727440441367,-0.104003906,-0.90753174,-0.032287598,1.75,0.5625,5.265625
481,481,1727440441407,-0.1105957,-0.8911743,-0.011291504,-2.71875,0.671875,3.296875
482,482,1727440441447,-0.10522461,-0.9053345,-0.016906738,-1.84375,0.015625,1.046875
483,483,1727440441487,-0.095458984,-0.9360962,-0.03765869,-1.03125,-0.140625,-0.90625
484,484,1727440441527,-0.10058594,-1.0012817,-0.094055176,-1.609375,3.5,-0.640625
485,485,1727440441567,-0.14550781,-1.1235962,0.05267334,-15.09375,4.71875,-2.984375
486,486,1727440441607,-0.17260742,-1.3469849,0.15350342,-9.390625,12.46875,-6.28125
487,487,1727440441647,-0.039794922,-1.1555786,-0.12677002,-8.65625,9.34375,-6.046875
488,488,1727440441687,0.21923828,-0.9805298,-0.21710205,-1.09375,6.90625,-2.9375
489,489,1727440441727,0.2434082,-0.9824829,-0.20245361,-5.484375,4.078125,3.046875
490,490,1727440441767,0.18725586,-0.90826416,-0.101135254,-0.125,-6.96875,1.859375
491,491,1727440441807,0.13256836,-1.0662231,-0.11260986,4.046875,-11.671875,3.5
492,492,1727440441847,-0.028320312,-0.9397583,-0.05670166,3.546875,-9.5,4.046875
493,493,1727440441887,0.0017089844,-0.909729,-0.032043457,4.71875,-10.09375,2.53125
494,494,1727440441927,0.033203125,-0.9089966,0.0014038086,3.0625,-7.609375,3.25
495,495,1727440441967,0.0048828125,-0.9036255,0.05682373,1.09375,-3.5,4.625
496,496,1727440442007,-0.0034179688,-0.90582275,0.070251465,1.71875,-1.921875,4.5625
497,497,1727440442047,-0.05029297,-0.8596802,0.121276855,2.71875,2.1875,3.390625
498,498,1727440442087,-0.053222656,-0.8364868,0.06976318,6.3125,4.6875,0.578125
499,499,1727440442127,0.013183594,-0.86431885,-0.006652832,8.234375,5.890625,0.0625
500,500,1727440442167,0.05517578,-0.97320557,0.04827881,-0.296875,4.984375,-2.1875
501,501,1727440442207,-0.027832031,-1.1304321,0.12225342,-4.890625,6.90625,-7.53125
502,502,1727440442247,-0.1694336,-1.2546997,0.06756592,-4.359375,1.9375,-14.25
503,503,1727440442287,0.083740234,-1.3023071,0.01727295,-3.890625,-1.734375,-14.53125
504,504,1727440442327,0.025878906,-1.170227,-0.04937744,-3.171875,-6.484375,-14.03125
505,505,1727440442367,0.07763672,-1.1074829,-0.22320557,2.0,-4.390625,-8.203125
506,506,1727440442407,0.009765625,-0.8220825,-0.2197876,-0.25,9.671875,-1.3125
507,507,1727440442447,0.016845703,-0.90167236,-0.25909424,3.421875,10.375,-0.96875
508,508,1727440442487,0.15356445,-1.0247192,-0.18267822,-1.515625,9.109375,-0.5
509,509,1727440442527,0.026611328,-1.0176392,-0.062072754,-7.0,6.265625,0.5625
510,510,1727440442567,-0.051513672,-0.88946533,-0.0413208,-1.703125,-0.296875,1.796875
511,511,1727440442607,-0.056884766,-0.85162354,-0.085998535,2.734375,-3.3125,2.640625
512,512,1727440442647,-0.063964844,-0.8579712,-0.06549072,2.140625,-2.921875,4.390625
513,513,1727440442687,-0.109375,-0.90411377,-0.020080566,3.15625,-3.5,5.03125
514,514,1727440442727,-0.07739258,-0.92193604,-0.0032348633,1.46875,-4.25,4.484375
515,515,1727440442767,-0.11987305,-0.89508057,0.043640137,-0.34375,-6.015625,4.734375
516,516,1727440442807,-0.1303711,-0.90875244,0.001159668,-1.375,-5.9375,4.5
517,517,1727440442847,-0.20166016,-1.0115356,0.010681152,-2.03125,-3.0,1.25
518,518,1727440442887,-0.24902344,-1.1343384,0.055847168,-6.484375,2.9375,-1.59375
519,519,1727440442927,-0.08911133,-1.3508911,0.14056396,-4.390625,9.109375,-5.3125
520,520,1727440442967,-0.059814453,-1.2217407,-0.05255127,-10.21875,10.859375,-4.34375
521,521,1727440443007,0.13549805,-1.072815,-0.1819458,-0.3125,4.578125,-5.09375
522,522,1727440443047,0.16918945,-0.9976196,-0.21734619,1.5625,1.203125,0.0625
523,523,1727440443087,0.22070312,-0.83966064,-0.12188721,-1.25,-3.96875,-0.015625
524,524,1727440443127,0.17553711,-0.92852783,-0.09429932,7.9375,-11.1875,2.359375
525,525,1727440443167,0.09814453,-1.022522,-0.12921143,6.25,-12.703125,3.296875
526,526,1727440443207,0.0031738281,-0.986145,-0.01373291,4.25,-13.53125,4.0625
527,527,1727440443247,-0.014404297,-0.9163208,0.008239746,4.53125,-11.890625,2.625
528,528,1727440443287,-0.009033203,-0.89141846,0.026062012,4.921875,-8.75,4.53125
529,529,1727440443327,0.0026855469,-0.9180298,0.050964355,4.890625,-8.890625,4.171875
530,530,1727440443367,-0.035888672,-0.927063,0.09588623,3.375,-6.25,3.859375
531,531,1727440443407,-0.06762695,-0.87213135,0.07318115,3.78125,-5.21875,1.28125
532,532,1727440443447,-0.05883789,-0.88775635,0.08880615,3.1875,0.421875,0.015625
533,533,1727440443487,0.03173828,-0.9168091,0.022155762,3.109375,1.0,-1.09375
534,534,1727440443527,0.09033203,-1.0325317,0.04486084,-1.828125,1.21875,-0.03125
535,535,1727440443567,-0.04638672,-1.0940552,0.19451904,-10.84375,3.5,-4.34375
536,536,1727440443607,-0.08959961,-1.263977,-0.19439697,5.171875,-5.203125,-17.25
537,537,1727440443647,0.2019043,-1.3462524,-0.15484619,3.8125,-7.875,-5.890625
538,538,1727440443687,-0.0793457,-1.1211548,-0.022277832,-6.4375,-0.984375,-8.53125
539,539,1727440443727,-0.017333984,-0.92193604,-0.2649536,7.625,-3.3125,-7.859375
540,540,1727440443767,0.103515625,-0.9522095,-0.30010986,5.59375,2.96875,2.546875
541,541,1727440443807,-0.0007324219,-0.9404907,-0.24102783,3.828125,3.40625,4.484375
542,542,1727440443847,0.036376953,-1.0193481,-0.1182251,-1.59375,6.25,5.0
543,543,1727440443887,-0.030273438,-0.9182739,-0.047668457,1.25,3.4375,5.859375
544,544,1727440443927,-0.029052734,-0.8694458,-0.1194458,4.71875,0.71875,5.890625
545,545,1727440443967,0.00048828125,-0.8887329,-0.11968994,2.0625,0.78125,6.015625
546,546,1727440444007,-0.02319336,-0.91485596,-0.05645752,4.171875,-2.671875,5.3125
547,547,1727440444047,-0.033447266,-0.9302368,-0.042053223,3.265625,-6.46875,3.640625
548,548,1727440444087,-0.09375,-0.8870239,-0.0134887695,1.375,-7.234375,3.046875
549,549,1727440444127,-0.111328125,-0.90631104,-0.02911377,0.921875,-6.796875,1.078125
550,550,1727440444167,-0.13793945,-0.91656494,-0.038146973,0.578125,-2.9375,-0.6875
551,551,1727440444207,-0.1508789,-1.0090942,-0.04425049,0.078125,1.859375,-2.140625
552,552,1727440444247,-0.12084961,-1.1226196,-0.020568848,-7.34375,2.03125,-3.171875
553,553,1727440444287,-0.13012695,-1.2127075,0.038024902,-12.78125,-6.546875,-7.203125
554,554,1727440444327,-0.14575195,-1.2393188,-0.109191895,-7.015625,-0.046875,-5.453125
555,555,1727440444367,0.20678711,-0.9668579,-0.35333252,4.0625,2.234375,-0.640625
556,556,1727440444407,0.2277832,-1.013977,-0.1897583,-1.890625,13.421875,1.59375
557,557,1727440444447,0.21948242,-0.9536743,-0.14996338,-1.59375,-1.109375,2.21875
558,558,1727440444487,0.12670898,-1.0525513,-0.175354,3.46875,-5.0,0.9375
559,559,1727440444527,-0.03466797,-1.0603638,-0.09625244,1.109375,-0.65625,1.375
560,560,1727440444567,-0.018554688,-0.9458618,-0.0960083,1.640625,1.40625,2.71875
561,561,1727440444607,-0.03857422,-0.9170532,-0.046203613,1.515625,4.71875,3.859375
562,562,1727440444647,0.03515625,-0.8960571,-0.05279541,1.65625,8.140625,7.046875
563,563,1727440444687,0.030029297,-0.8838501,-0.0005493164,1.546875,10.28125,8.71875
564,564,1727440444727,-0.011230469,-0.8694458,0.031433105,3.65625,12.140625,7.9375
565,565,1727440444767,-0.05053711,-0.8374634,0.02532959,4.484375,13.28125,5.078125
566,566,1727440444807,-0.0146484375,-0.8635864,-0.00079345703,6.546875,12.890625,2.765625
567,567,1727440444847,0.06518555,-0.93536377,-0.058898926,7.203125,10.75,2.09375
568,568,1727440444887,0.092041016,-1.0169067,-0.01739502,0.84375,9.140625,0.53125
569,569,1727440444927,-0.017333984,-1.1065063,0.101989746,-8.421875,7.84375,-5.71875
570,570,1727440444967,-0.17016602,-1.279602,-0.18829346,3.84375,-3.71875,-15.140625
571,571,1727440445007,0.11230469,-1.2832642,-0.16290283,2.875,-3.109375,-9.140625
572,572,1727440445047,-0.06689453,-1.142395,-0.05206299,-4.875,-2.078125,-10.984375
573,573,1727440445087,0.107666016,-1.0320435,-0.32086182,3.53125,-6.03125,-6.9375
574,574,1727440445127,0.11401367,-0.86724854,-0.30548096,0.140625,6.296875,2.96875
575,575,1727440445167,0.029785156,-0.8274536,-0.28082275,3.75,3.484375,2.28125
576,576,1727440445207,0.18237305,-1.0083618,-0.25933838,3.390625,5.421875,5.203125
577,577,1727440445247,0.0087890625,-0.99786377,-0.101135254,-3.09375,7.40625,4.953125
578,578,1727440445287,-0.03564453,-0.9102173,-0.12359619,3.984375,2.640625,4.90625
579,579,1727440445327,-0.028320312,-0.8731079,-0.1494751,5.203125,2.53125,4.84375
580,580,1727440445367,-0.052978516,-0.92071533,-0.117492676,2.9375,3.828125,4.09375
581,581,1727440445407,-0.08105469,-0.93218994,-0.09454346,0.78125,3.984375,4.125
582,582,1727440445447,-0.07470703,-0.90582275,-0.07110596,-2.359375,3.03125,3.421875
583,583,1727440445487,-0.061279297,-0.89263916,-0.059143066,-3.46875,0.328125,2.5
584,584,1727440445527,-0.07714844,-0.90509033,-0.0569458,-3.703125,-0.546875,1.59375
585,585,1727440445567,-0.09375,-0.9373169,-0.050354004,-3.890625,1.453125,-0.203125
586,586,1727440445607,-0.12402344,-1.0029907,-0.06793213,-5.0,4.390625,-1.703125
587,587,1727440445647,-0.15112305,-1.1087036,0.047302246,-16.21875,7.359375,-5.359375
588,588,1727440445687,-0.044677734,-1.3604126,0.093444824,-10.671875,7.203125,-11.15625
589,589,1727440445727,-0.05883789,-1.2271118,-0.11236572,-11.171875,8.671875,-7.6875
590,590,1727440445767,0.1159668,-0.96295166,-0.23028564,0.375,10.625,-5.078125
591,591,1727440445807,0.16748047,-0.92510986,-0.21759033,-3.21875,14.109375,0.78125
592,592,1727440445847,0.23510742,-0.85235596,-0.16119385,-0.53125,6.296875,2.59375
593,593,1727440445887,0.1977539,-0.9963989,-0.11529541,3.859375,1.953125,4.640625
594,594,1727440445927,0.05859375,-1.0274048,-0.10723877,2.375,0.015625,5.171875
595,595,1727440445967,0.033447266,-0.99468994,-0.074523926,5.25,-0.671875,4.625
596,596,1727440446007,0.005126953,-0.94781494,-0.053527832,3.265625,1.328125,3.4375
597,597,1727440446047,-0.03100586,-0.9121704,0.016784668,2.625,3.859375,4.5
598,598,1727440446087,-0.0056152344,-0.91290283,-0.010070801,2.109375,8.046875,5.140625
599,599,1727440446127,-0.009033203,-0.91412354,0.066345215,-0.25,10.1875,4.984375
600,600,1727440446167,-0.025878906,-0.8882446,0.08416748,0.734375,11.21875,3.359375
601,601,1727440446207,-0.0041503906,-0.86968994,0.04827881,3.328125,12.34375,2.078125
602,602,1727440446247,0.040771484,-0.9109497,-0.002746582,3.421875,9.296875,0.765625
603,603,1727440446287,0.05834961,-0.99957275,0.022155762,-0.671875,6.953125,-0.984375
604,604,1727440446327,-0.037109375,-1.0532837,0.14959717,-10.03125,8.65625,-4.96875
605,605,1727440446367,-0.10644531,-1.2300415,-0.10064697,0.0625,6.59375,-11.453125
606,606,1727440446407,0.18164062,-1.3110962,-0.0960083,3.1875,-2.171875,-7.109375
607,607,1727440446447,-0.007080078,-1.190979,0.0048217773,-8.84375,-2.546875,-9.921875
608,608,1727440446487,0.0014648438,-1.079895,-0.16046143,-3.140625,-5.609375,-10.3125
609,609,1727440446527,0.04736328,-0.8657837,-0.21221924,-4.625,1.71875,-4.75
610,610,1727440446567,-0.029296875,-0.82476807,-0.30792236,1.46875,4.375,-1.265625
611,611,1727440446607,0.10571289,-0.958313,-0.2456665,2.96875,8.53125,3.015625
612,612,1727440446647,0.05908203,-1.0437622,-0.054992676,-0.578125,9.859375,3.625
613,613,1727440446687,0.0026855469,-0.96417236,-0.02520752,-2.34375,0.703125,2.78125
614,614,1727440446727,-0.026367188,-0.8381958,-0.10675049,4.578125,-1.875,2.703125
615,615,1727440446767,-0.03515625,-0.86309814,-0.08795166,5.421875,-2.84375,3.234375
616,616,1727440446807,-0.095458984,-0.92510986,-0.038391113,4.703125,-1.75,3.65625
617,617,1727440446847,-0.1015625,-0.9209595,-0.014953613,2.859375,-3.15625,3.453125
618,618,1727440446887,-0.09082031,-0.88897705,0.01727295,1.265625,-4.359375,2.140625
619,619,1727440446927,-0.08227539,-0.88604736,-0.013000488,2.34375,-6.15625,1.765625
620,620,1727440446967,-0.111328125,-0.9553833,-0.05328369,1.421875,-3.5625,0.71875
621,621,1727440447007,-0.16748047,-1.0549927,-0.0178833,-2.359375,1.15625,-0.234375
622,622,1727440447047,-0.18603516,-1.1362915,0.057556152,-10.890625,0.78125,-3.171875
623,623,1727440447087,-0.11303711,-1.3433228,0.09295654,-3.59375,5.40625,-8.046875
624,624,1727440447127,-0.02734375,-1.1480103,-0.128479,-7.234375,5.75,-4.546875
625,625,1727440447167,0.2253418,-0.99224854,-0.2695923,1.796875,4.453125,-2.65625
626,626,1727440447207,0.21459961,-0.94610596,-0.2185669,-0.640625,1.578125,3.953125
627,627,1727440447247,0.22827148,-0.8755493,-0.13214111,2.515625,-5.5625,3.6875
628,628,1727440447287,0.13989258,-1.0303345,-0.1296997,6.03125,-9.8125,5.140625
629,629,1727440447327,0.024414062,-1.0193481,-0.11431885,4.921875,-7.3125,4.140625
630,630,1727440447367,0.05883789,-0.956604,-0.09429932,3.28125,-6.25,4.234375
631,631,1727440447407,-0.030517578,-0.90582275,-0.009338379,3.15625,-6.203125,3.453125
632,632,1727440447447,0.001953125,-0.8921509,-0.030334473,6.34375,-3.421875,4.3125
633,633,1727440447487,0.033447266,-0.92755127,-0.012756348,5.21875,0.015625,4.609375
634,634,1727440447527,-0.014892578,-0.93048096,0.061950684,3.34375,4.0625,4.40625
635,635,1727440447567,-0.0043945312,-0.91290283,0.05633545,3.5625,5.671875,1.96875
636,636,1727440447607,-0.013671875,-0.87872314,0.042419434,4.125,6.765625,0.828125
637,637,1727440447647,0.041259766,-0.89556885,-0.023986816,5.359375,4.234375,-1.0625
638,638,1727440447687,0.037841797,-0.9834595,0.01361084,-2.359375,5.171875,-3.125
639,639,1727440447727,-0.024902344,-1.0752563,0.11859131,-10.015625,7.71875,-7.671875
640,640,1727440447767,-0.14868164,-1.2703247,-0.105773926,-0.75,2.015625,-14.078125
641,641,1727440447807,0.13916016,-1.3328247,-0.066223145,-8.109375,-0.765625,-10.046875
642,642,1727440447847,-0.001953125,-1.1409302,-0.037902832,-13.859375,-6.1875,-12.546875
643,643,1727440447887,-0.0009765625,-1.0762329,-0.1494751,-10.203125,-5.578125,-11.8125
644,644,1727440447927,0.072753906,-0.835022,-0.1921997,-3.796875,4.96875,-1.5625
645,645,1727440447967,-0.0087890625,-0.86065674,-0.26715088,3.734375,5.75,2.359375
646,646,1727440448007,0.087890625,-0.9776001,-0.21368408,4.90625,9.59375,4.4375
647,647,1727440448047,0.03955078,-1.0281372,-0.07281494,0.65625,12.03125,4.796875
648,648,1727440448087,-0.019042969,-0.9404907,-0.026428223,-0.28125,8.390625,5.875
649,649,1727440448127,0.00048828125,-0.88287354,-0.073791504,2.890625,4.953125,5.625
650,650,1727440448167,-0.029785156,-0.8965454,-0.09307861,3.515625,4.171875,5.015625
651,651,1727440448207,-0.0949707,-0.9273071,-0.019348145,2.21875,2.9375,4.984375
652,652,1727440448247,-0.10253906,-0.90948486,0.010681152,1.421875,1.875,4.21875
653,653,1727440448287,-0.07495117,-0.88482666,0.024597168,0.203125,-1.6875,2.34375
654,654,1727440448327,-0.08154297,-0.8867798,0.0079956055,-0.65625,-2.4375,1.671875
655,655,1727440448367,-0.1694336,-0.9631958,0.0021362305,-0.390625,0.625,-1.21875
656,656,1727440448407,-0.16137695,-1.0916138,-0.021057129,-1.90625,4.625,-2.375
657,657,1727440448447,-0.064453125,-1.1685181,0.10638428,-14.8125,1.578125,-3.03125
658,658,1727440448487,-0.047607422,-1.3738403,0.21136475,-11.578125,3.53125,-2.5
659,659,1727440448527,-0.030273438,-1.1367798,-0.059143066,-18.640625,-0.59375,-4.90625
660,660,1727440448567,0.16357422,-0.9192505,-0.2341919,1.09375,-3.015625,-3.484375
661,661,1727440448607,0.16357422,-0.94073486,-0.1951294,-3.40625,0.71875,3.453125
662,662,1727440448647,0.19726562,-0.90093994,-0.11236572,1.53125,-5.96875,3.671875
663,663,1727440448687,0.1665039,-1.0354614,-0.07183838,4.234375,-6.515625,6.0625
664,664,1727440448727,0.0234375,-0.99224854,-0.04498291,4.109375,-7.40625,4.1875
665,665,1727440448767,0.0036621094,-0.9663696,-0.029846191,4.375,-4.53125,3.171875
666,666,1727440448807,-0.03466797,-0.9072876,0.029968262,5.0625,-1.203125,3.078125
667,667,1727440448847,0.0017089844,-0.88482666,0.0289917,5.375,3.671875,5.21875
668,668,1727440448887,0.03540039,-0.90997314,0.050231934,4.234375,6.4375,6.65625
669,669,1727440448927,-0.026611328,-0.9146118,0.12884521,2.765625,9.875,5.8125
670,670,1727440448967,0.013183594,-0.88604736,0.1293335,3.234375,12.65625,2.84375
671,671,1727440449007,0.018310547,-0.85357666,0.058532715,6.3125,9.65625,-0.046875
672,672,1727440449047,0.04296875,-0.8994751,-0.0032348633,6.59375,5.21875,-2.265625
673,673,1727440449087,0.049560547,-1.0056763,0.061462402,-0.90625,4.703125,-5.765625
674,674,1727440449127,-0.088378906,-1.0466919,0.17352295,-8.328125,4.859375,-11.984375
675,675,1727440449167,-0.06567383,-1.3128052,-0.16949463,2.0625,-3.296875,-20.078125
676,676,1727440449207,0.17114258,-1.3435669,-0.08477783,-3.0,-14.828125,-12.5625
677,677,1727440449247,-0.037109375,-1.1738892,0.023864746,-9.25,-19.71875,-15.84375
678,678,1727440449287,-0.037109375,-1.013977,-0.190979,4.15625,-25.03125,-13.765625
679,679,1727440449327,0.14624023,-0.8635864,-0.1921997,-0.46875,-11.390625,-1.09375
680,680,1727440449367,-0.030761719,-0.8814087,-0.20928955,1.921875,-6.453125,1.6875
681,681,1727440449407,0.06958008,-0.9944458,-0.17340088,4.0,-1.609375,6.4375
682,682,1727440449447,0.009277344,-1.0393677,-0.027160645,-1.0,5.078125,6.46875
683,683,1727440449487,-0.046875,-0.93585205,-0.007385254,-0.640625,2.453125,6.75
684,684,1727440449527,-0.056640625,-0.87701416,-0.059143066,3.59375,0.96875,5.921875
685,685,1727440449567,-0.06298828,-0.8875122,-0.06719971,4.296875,4.265625,6.53125
686,686,1727440449607,-0.08618164,-0.9067993,-0.031555176,4.265625,4.609375,6.6875
687,687,1727440449647,-0.0925293,-0.9072876,0.0036010742,2.796875,4.359375,5.5
688,688,1727440449687,-0.08129883,-0.89971924,0.011169434,2.828125,0.578125,4.484375
689,689,1727440449727,-0.07299805,-0.90338135,-0.0071411133,1.109375,0.859375,4.0625
690,690,1727440449767,-0.10107422,-0.9326782,-0.01763916,3.90625,1.53125,1.515625
691,691,1727440449807,-0.1586914,-1.0654907,-0.0076293945,-2.71875,8.421875,-1.0
692,692,1727440449847,-0.1430664,-1.1463013,0.07244873,-13.6875,7.328125,-5.65625
693,693,1727440449887,-0.06665039,-1.3328247,0.15032959,-8.984375,8.0,-11.265625
694,694,1727440449927,-0.018798828,-1.1331177,-0.097961426,-7.125,3.84375,-8.5625
695,695,1727440449967,0.23022461,-1.0454712,-0.20855713,1.546875,1.265625,-6.390625
696,696,1727440450007,0.19897461,-0.95269775,-0.20245361,-4.140625,-1.296875,0.234375
697,697,1727440450047,0.20898438,-0.82232666,-0.12677002,0.734375,-7.09375,0.046875
698,698,1727440450087,0.12866211,-1.0308228,-0.13018799,6.890625,-11.1875,2.875
699,699,1727440450127,0.013916016,-1.0278931,-0.11090088,4.71875,-8.671875,3.65625
700,700,1727440450167,-0.0043945312,-0.9915161,-0.059631348,5.390625,-7.796875,4.265625
701,701,1727440450207,-0.06591797,-0.9192505,-0.0056762695,6.59375,-7.109375,3.421875
702,702,1727440450247,-0.036865234,-0.8711548,0.016296387,4.734375,-1.140625,3.421875
703,703,1727440450287,-0.0036621094,-0.90875244,0.02557373,6.0,2.46875,4.203125
704,704,1727440450327,-0.04345703,-0.9031372,0.08807373,5.328125,6.28125,4.625
705,705,1727440450367,-0.023925781,-0.8772583,0.09100342,3.890625,10.390625,2.578125
706,706,1727440450407,-0.017578125,-0.8657837,0.04510498,6.21875,8.265625,0.96875
707,707,1727440450447,0.072021484,-0.9143677,-0.046203613,6.140625,3.109375,-1.578125
708,708,1727440450487,0.038330078,-1.0491333,0.07635498,-5.265625,3.09375,-2.671875
709,709,1727440450527,-0.107910156,-1.0752563,0.14813232,-11.6875,5.953125,-7.46875
710,710,1727440450567,0.017578125,-1.3845825,-0.21295166,3.328125,-6.0,-14.625
711,711,1727440450607,0.059570312,-1.3399048,-0.08673096,-9.140625,-7.875,-8.203125
712,712,1727440450647,-0.11621094,-1.145813,-0.108947754,-6.78125,-3.859375,-10.796875
713,713,1727440450687,0.041503906,-1.0010376,-0.16192627,-2.640625,-1.859375,-7.375
714,714,1727440450727,0.0041503906,-0.76763916,-0.18218994,-3.890625,7.703125,-2.046875
715,715,1727440450767,0.042236328,-0.8479614,-0.29034424,2.046875,6.515625,2.53125
716,716,1727440450807,0.10107422,-0.99224854,-0.21588135,2.6875,9.25,3.828125
717,717,1727440450847,0.017578125,-1.0779419,-0.07989502,-1.859375,11.609375,5.71875
718,718,1727440450887,-0.0637207,-0.96221924,-0.035949707,-4.796875,8.078125,5.90625
719,719,1727440450927,-0.0625,-0.8604126,-0.07086182,0.078125,5.140625,4.375
720,720,1727440450967,-0.03881836,-0.8779907,-0.08013916,2.09375,4.28125,5.984375
721,721,1727440451007,-0.118652344,-0.9282837,-0.033996582,0.453125,1.21875,5.796875
722,722,1727440451047,-0.1105957,-0.9194946,0.0079956055,-0.703125,2.125,3.953125
723,723,1727440451087,-0.075927734,-0.8911743,0.0028686523,-3.390625,-1.421875,2.296875
724,724,1727440451127,-0.095947266,-0.8826294,-0.0005493164,-2.75,-3.0,1.78125
725,725,1727440451167,-0.103271484,-0.94854736,-0.00982666,-2.890625,-0.328125,0.8125
726,726,1727440451207,-0.13671875,-1.0586548,0.016784668,-4.21875,-0.171875,0.234375
727,727,1727440451247,-0.15991211,-1.2207642,0.121520996,-8.75,-4.875,-4.328125
728,728,1727440451287,-0.19873047,-1.326477,0.09295654,-8.265625,3.0,-5.203125
729,729,1727440451327,-0.017578125,-1.1089478,-0.061340332,-11.21875,6.90625,-6.953125
730,730,1727440451367,0.18041992,-0.9776001,-0.13409424,-0.78125,1.984375,-2.0
731,731,1727440451407,0.14770508,-0.847229,-0.12750244,1.734375,-2.3125,1.78125
732,732,1727440451447,0.21533203,-0.84991455,-0.090148926,6.828125,-4.109375,3.53125
733,733,1727440451487,0.16821289,-1.0464478,-0.06427002,6.65625,-4.765625,7.15625
734,734,1727440451527,0.039794922,-1.0352173,-0.043029785,4.234375,-5.453125,4.734375
735,735,1727440451567,0.017333984,-1.0005493,-0.020812988,6.234375,-6.96875,3.015625
736,736,1727440451607,-0.01953125,-0.93878174,0.012390137,6.609375,-7.078125,1.296875
737,737,1727440451647,-0.018310547,-0.9089966,0.043640137,6.9375,-4.859375,3.421875
738,738,1727440451687,-0.004638672,-0.9299927,0.036315918,5.28125,-1.234375,4.546875
739,739,1727440451727,-0.044433594,-0.8953247,0.098083496,4.390625,3.046875,3.703125
740,740,1727440451767,-0.052734375,-0.8772583,0.11175537,4.546875,6.625,1.171875
741,741,1727440451807,-0.022705078,-0.8599243,0.054626465,6.28125,8.34375,-0.375
742,742,1727440451847,0.024658203,-0.8850708,0.007019043,5.71875,6.234375,-1.40625
743,743,1727440451887,0.055419922,-0.99102783,0.07635498,-1.546875,5.765625,-3.109375
744,744,1727440451927,-0.05834961,-1.0508423,0.15863037,-7.28125,6.515625,-7.609375
745,745,1727440451967,-0.14501953,-1.2559204,-0.07574463,0.296875,2.09375,-16.015625
746,746,1727440452007,0.09790039,-1.3303833,-0.070373535,-1.703125,-4.390625,-9.65625
747,747,1727440452047,-0.13623047,-1.1897583,-0.09234619,-2.5625,-4.359375,-12.375
748,748,1727440452087,0.048583984,-1.0708618,-0.14971924,1.453125,0.0625,-5.015625
749,749,1727440452127,0.019042969,-0.7647095,-0.15679932,1.34375,8.359375,0.234375
750,750,1727440452167,0.050048828,-0.82598877,-0.23834229,11.640625,3.203125,3.734375
751,751,1727440452207,0.114990234,-0.9558716,-0.20172119,8.1875,4.59375,4.375
752,752,1727440452247,0.0390625,-1.0264282,-0.11773682,3.109375,4.875,3.28125
753,753,1727440452287,-0.047851562,-0.98101807,-0.082092285,4.71875,1.234375,3.796875
754,754,1727440452327,-0.025390625,-0.9234009,-0.12164307,6.0,-1.265625,4.5
755,755,1727440452367,-0.025146484,-0.89923096,-0.10064697,4.96875,-1.84375,5.921875
756,756,1727440452407,-0.045410156,-0.91729736,-0.074523926,5.109375,-4.15625,6.734375
757,757,1727440452447,-0.09814453,-0.93414307,-0.050842285,4.578125,-5.4375,5.375
758,758,1727440452487,-0.072509766,-0.9158325,-0.045959473,2.25,-5.953125,4.015625
759,759,1727440452527,-0.12963867,-0.9024048,-0.051330566,1.953125,-5.09375,3.078125
