,timestamp,accel_x,accel_y,accel_z,gyro_x,gyro_y,gyro_z
0,1727267302511,-0.06225586,-0.92926025,0.24383545,1.921875,-10.703125,4.328125
1,1727267302585,-0.084228516,-0.9019165,0.16986084,2.171875,-12.765625,-1.078125
2,1727267302600,-0.09448242,-0.91973877,0.26898193,10.609375,-4.5,-0.09375
3,1727267302649,-0.19848633,-0.9902954,0.26361084,13.75,-0.0625,2.359375
4,1727267302675,-0.32714844,-1.0491333,0.276062,14.90625,12.0,-8.796875
5,1727267302720,-0.16455078,-1.1956177,0.15594482,6.921875,17.03125,-18.53125
6,1727267302750,0.046142578,-1.3665161,-0.10015869,1.453125,-3.953125,-25.875
7,1727267302798,0.4206543,-1.6533813,-0.051086426,-2.46875,-10.234375,-7.1875
8,1727267302842,-0.14526367,-1.1506958,-0.0051879883,-0.4375,-2.5,-10.71875
9,1727267302871,-0.32080078,-0.63653564,-0.2510376,-7.875,7.6875,-17.453125
10,1727267302915,0.07714844,-0.81378174,-0.21466064,-2.140625,10.03125,-5.671875
11,1727267302960,0.13574219,-1.0147095,-0.09625244,2.875,-6.78125,-2.5
12,1727267302991,-0.27026367,-0.9944458,-0.0017700195,-2.640625,-0.8125,-0.09375
13,1727267303051,-0.25854492,-0.75787354,0.012145996,0.0625,10.609375,3.109375
14,1727267303081,-0.16113281,-0.7415161,-0.045715332,6.421875,10.21875,4.140625
15,1727267303111,-0.08203125,-0.9414673,-0.041809082,6.921875,5.5,9.390625
16,1727267303155,-0.055908203,-0.84454346,0.022888184,10.71875,-4.625,9.0625
17,1727267303189,-0.22167969,-0.84991455,0.047546387,1.96875,-5.828125,7.875
18,1727267303231,-0.2319336,-0.84869385,0.06903076,-3.484375,-7.953125,10.828125
19,1727267303280,-0.17944336,-0.81866455,0.11102295,-6.078125,-10.265625,8.265625
20,1727267303310,-0.2290039,-1.0586548,-0.06451416,-9.640625,-6.78125,9.75
21,1727267303350,-0.088378906,-1.5125122,0.10247803,-6.125,-7.078125,8.953125
22,1727267303395,-0.34936523,-1.4380493,0.09442139,-15.03125,-13.71875,8.890625
23,1727267303424,-0.19677734,-1.4290161,0.11566162,-13.015625,4.4375,4.796875
24,1727267303470,0.3334961,-1.2258911,-0.15948486,4.375,-9.4375,-5.953125
25,1727267303518,0.63305664,-0.8555298,-0.11383057,4.609375,-4.96875,-13.0625
26,1727267303546,0.24316406,-0.8418579,-0.113098145,-4.578125,-16.40625,13.875
27,1727267303591,-0.20678711,-0.99957275,-0.070129395,0.453125,-22.484375,3.984375
28,1727267303638,0.036132812,-0.89312744,-0.028137207,-5.09375,-10.0625,-15.640625
29,1727267303755,0.11279297,-0.8106079,0.041931152,-2.125,-5.84375,-9.671875
30,1727267303770,0.025634766,-0.76397705,0.04559326,1.046875,-11.328125,0.125
31,1727267303816,-0.1003418,-0.7451782,0.12200928,2.984375,-11.421875,0.65625
32,1727267303830,-0.107910156,-0.8574829,0.13812256,-1.296875,-4.796875,-4.75
33,1727267303851,-0.044189453,-0.84698486,0.08758545,-1.109375,3.359375,-3.265625
34,1727267303860,-0.114746094,-0.8399048,0.246521,5.46875,3.203125,-7.0625
35,1727267303912,-0.23730469,-0.9121704,0.124938965,0.078125,5.484375,-8.859375
36,1727267303981,0.021240234,-0.9529419,0.016540527,2.265625,7.21875,-14.234375
37,1727267303998,0.20678711,-1.2302856,0.28070068,5.59375,1.5,0.46875
38,1727267304025,-0.43530273,-1.2901001,0.3397827,-6.859375,-1.90625,-0.59375
39,1727267304072,-0.6879883,-1.3220825,0.042663574,-16.921875,11.890625,-29.078125
40,1727267304101,-0.0703125,-1.33844,-0.1716919,-11.0,18.828125,-19.265625
41,1727267304146,0.2529297,-1.1360474,-0.14434814,-3.71875,14.5,-8.90625
42,1727267304191,0.052734375,-0.98638916,-0.1572876,-2.421875,11.703125,5.859375
43,1727267304221,-0.2541504,-0.9265747,-0.11920166,3.578125,17.359375,2.59375
44,1727267304311,-0.13623047,-0.85406494,0.039245605,6.078125,14.203125,-5.5625
45,1727267304329,-0.013916016,-0.83428955,-0.01373291,-1.09375,9.8125,6.46875
46,1727267304355,-0.0847168,-0.7959595,-0.10040283,3.203125,3.421875,8.5
47,1727267304416,-0.16455078,-0.83184814,0.018981934,7.265625,3.921875,1.59375
48,1727267304431,-0.17382812,-0.9273071,0.06365967,4.03125,0.953125,4.796875
49,1727267304478,-0.09448242,-0.8706665,0.019958496,3.21875,-0.578125,9.984375
50,1727267304521,-0.1394043,-0.8833618,0.054626465,1.3125,-4.953125,7.828125
51,1727267304550,-0.25708008,-0.9234009,0.17645264,-1.234375,-7.890625,6.5625
52,1727267304581,-0.22094727,-0.7998657,0.05682373,-11.0,-12.859375,4.953125
53,1727267304626,-0.11230469,-0.9290161,0.043640137,2.390625,-10.375,12.21875
54,1727267304659,-0.28955078,-1.279602,0.1708374,0.703125,-3.484375,13.515625
55,1727267304701,-0.39916992,-1.4539185,0.2518921,-5.78125,-4.296875,9.046875
56,1727267304750,-0.27856445,-1.4944458,0.2411499,-7.796875,7.375,6.546875
57,1727267304836,0.068359375,-1.2991333,-0.09185791,-5.390625,-2.671875,-1.65625
58,1727267304851,0.47021484,-0.9314575,-0.255188,14.203125,3.234375,-9.484375
59,1727267304870,0.29077148,-0.8069458,0.050231934,4.71875,-9.984375,0.953125
60,1727267304911,0.037353516,-0.9456177,-0.03643799,-9.09375,-16.3125,1.25
61,1727267304942,-0.07080078,-1.0252075,0.07611084,-5.078125,-15.078125,-10.59375
62,1727267304985,0.020751953,-0.88116455,0.042419434,-4.546875,-13.796875,-11.453125
63,1727267305031,0.0,-0.7630005,0.07366943,3.53125,-8.9375,-8.125
64,1727267305075,-0.08618164,-0.7288208,0.086364746,3.90625,-7.875,-3.359375
65,1727267305105,-0.096191406,-0.864563,0.15789795,3.65625,-1.15625,-2.578125
66,1727267305136,-0.13208008,-0.7390747,0.16815186,-5.5625,19.46875,1.0
67,1727267305181,-0.092041016,-0.8584595,0.152771,-1.03125,10.265625,-1.515625
68,1727267305229,-0.18945312,-0.84991455,0.16204834,-5.5,21.78125,-1.609375
69,1727267305259,-0.1628418,-0.98809814,0.15911865,-1.671875,13.015625,-6.203125
70,1727267305300,0.037353516,-1.1416626,0.15203857,-6.453125,12.40625,3.328125
71,1727267305332,-0.14550781,-1.2305298,0.43743896,-3.796875,12.1875,4.078125
72,1727267305376,-0.4326172,-1.5567017,0.058776855,-21.640625,20.453125,-10.265625
73,1727267305421,-0.037841797,-1.6528931,-0.003479004,-19.9375,6.203125,-1.875
74,1727267305451,0.021484375,-1.0161743,-0.034484863,1.125,24.140625,-11.234375
75,1727267305495,-0.15454102,-0.7449341,-0.06719971,-2.046875,22.390625,-12.59375
76,1727267305570,-0.13647461,-0.97076416,-0.07574463,-1.78125,30.015625,-0.171875
77,1727267305588,-0.06298828,-1.0254517,0.07244873,5.515625,20.1875,2.15625
78,1727267305616,0.001953125,-0.8152466,0.02947998,7.203125,21.84375,9.859375
79,1727267305660,-0.076660156,-0.8518677,0.012145996,4.53125,13.9375,3.53125
80,1727267305691,-0.1303711,-0.8274536,0.04949951,2.03125,7.875,3.328125
81,1727267305736,-0.05810547,-0.85113525,0.093688965,3.953125,11.578125,3.890625
82,1727267305780,-0.12231445,-0.80792236,0.14593506,-0.53125,3.296875,8.265625
83,1727267305810,-0.15576172,-0.7354126,0.2020874,-3.640625,1.5625,7.4375
84,1727267305856,-0.12719727,-0.80792236,0.17474365,-6.890625,-5.59375,5.703125
85,1727267305901,-0.106933594,-0.8921509,0.230896,-4.703125,-2.203125,9.5
86,1727267305931,-0.06225586,-1.0930786,0.19525146,-4.15625,8.21875,4.328125
87,1727267305980,-0.17749023,-1.3692017,0.39666748,1.046875,-0.8125,4.25
88,1727267306023,-0.2290039,-1.576477,0.5631714,-6.265625,-11.984375,11.5625
89,1727267306061,0.15649414,-1.2908325,-0.012756348,-3.4375,1.15625,5.265625
90,1727267306096,0.36889648,-0.8916626,-0.18170166,33.953125,-12.3125,-16.90625
91,1727267306126,0.25756836,-0.9690552,-0.101867676,13.734375,-34.484375,-2.28125
92,1727267306170,0.03564453,-1.1004028,0.07513428,-8.15625,-33.390625,11.0
93,1727267306216,-0.030517578,-0.973938,0.0758667,-9.5,-33.875,1.875
94,1727267306245,0.02758789,-0.8862915,0.070251465,5.296875,-31.203125,-12.203125
95,1727267306295,-0.016845703,-0.78204346,0.117614746,12.921875,-33.703125,-9.984375
96,1727267306335,-0.11694336,-0.6616821,0.12615967,13.78125,-27.71875,-0.671875
97,1727267306367,-0.012939453,-0.7481079,0.12615967,4.671875,-17.609375,-4.59375
98,1727267306411,-0.017089844,-0.7871704,0.1329956,10.859375,-7.125,-1.03125
99,1727267306471,-0.0793457,-0.86676025,0.1942749,13.3125,-2.609375,-1.96875
100,1727267306485,-0.13134766,-0.90826416,0.0914917,7.71875,0.515625,-7.90625
101,1727267306531,0.022216797,-1.0027466,-0.039367676,9.671875,-3.09375,-11.484375
102,1727267306576,-0.047851562,-1.2644653,0.23968506,4.3125,-0.375,3.734375
103,1727267306635,-0.40625,-1.3394165,0.2592163,-0.421875,4.53125,-2.84375
104,1727267306651,-0.23388672,-1.2974243,0.55755615,0.09375,2.9375,-25.140625
105,1727267306696,-0.31079102,-1.585022,-0.065979004,-7.296875,-7.265625,-11.828125
106,1727267306741,0.11621094,-1.0750122,-0.15216064,-16.9375,7.78125,-8.78125
107,1727267306770,-0.19238281,-0.90509033,-0.30621338,1.09375,22.359375,10.453125
108,1727267306891,-0.083740234,-0.81427,-0.17266846,1.453125,21.765625,-3.3125
109,1727267306909,-0.00024414062,-0.87286377,-0.124816895,17.015625,16.75,-2.15625
110,1727267306921,-0.13354492,-0.95928955,-0.054016113,41.9375,8.96875,7.1875
111,1727267306937,-0.1784668,-0.79937744,-0.25323486,30.171875,-3.359375,2.609375
112,1727267306969,-0.22729492,-0.7805786,-0.11090088,10.046875,6.4375,1.46875
113,1727267307011,-0.088134766,-0.8755493,-0.03375244,-19.796875,4.171875,8.140625
114,1727267307040,-0.15991211,-0.8843384,-0.07623291,-5.53125,1.171875,12.6875
115,1727267307089,-0.088134766,-0.8115845,-0.02130127,-13.328125,-9.640625,15.21875
116,1727267307131,-0.14355469,-0.79937744,0.023864746,-13.828125,-16.0625,9.171875
117,1727267307161,-0.16333008,-0.89019775,0.05657959,-15.796875,-22.015625,6.46875
118,1727267307205,-0.23950195,-0.97198486,0.066833496,-13.65625,-14.90625,6.125
119,1727267307252,-0.15478516,-1.2581177,0.081970215,-12.0,-7.921875,6.984375
120,1727267307280,-0.21533203,-1.5359497,0.18572998,-14.46875,-24.703125,6.21875
121,1727267307327,-0.22705078,-1.4373169,0.13665771,-21.265625,-24.296875,4.375
122,1727267307370,0.075927734,-1.1013794,-0.08087158,1.453125,-15.1875,-1.25
123,1727267307402,0.3395996,-0.829895,-0.25079346,8.484375,-2.171875,-1.015625
124,1727267307445,0.40551758,-0.9710083,0.097595215,9.859375,-6.25,7.359375
125,1727267307491,-0.06347656,-1.0391235,-0.030578613,10.171875,-21.96875,-1.484375
126,1727267307521,-0.011962891,-0.90460205,-0.020812988,6.90625,-21.828125,-19.484375
127,1727267307569,-0.021484375,-0.78302,0.012634277,2.484375,-22.6875,-9.625
128,1727267307612,-0.11425781,-0.7744751,0.08074951,9.59375,-20.0625,-6.46875
129,1727267307641,-0.12573242,-0.71343994,0.08050537,4.53125,-4.984375,4.484375
130,1727267307685,-0.10449219,-0.8477173,0.10418701,5.453125,9.203125,2.75
131,1727267307715,0.006591797,-0.8550415,0.15179443,6.734375,19.015625,4.78125
132,1727267307761,-0.10961914,-0.85040283,0.21673584,2.28125,28.84375,3.671875
133,1727267307805,-0.14575195,-1.0010376,0.07244873,-3.296875,24.703125,-1.640625
134,1727267307851,0.15209961,-1.0462036,-0.07891846,-4.46875,3.578125,-2.75
135,1727267307898,-0.011230469,-1.2720337,0.2008667,-11.078125,-21.3125,-4.5625
136,1727267307930,-0.657959,-1.197815,0.34661865,-8.59375,-1.328125,-2.609375
137,1727267307960,-0.45288086,-1.3313599,0.105163574,-16.4375,11.28125,-38.84375
138,1727267308000,0.07763672,-1.5925903,-0.116760254,-12.03125,8.46875,-16.734375
139,1727267308060,0.11035156,-1.0918579,-0.2600708,21.953125,-2.21875,-1.453125
140,1727267308105,-0.030029297,-0.6992798,-0.37628174,23.203125,26.4375,8.84375
141,1727267308120,-0.2199707,-0.9470825,-0.11505127,-2.0,11.28125,-6.828125
142,1727267308165,-0.07788086,-1.0332642,-0.02545166,1.046875,14.6875,-12.28125
143,1727267308198,-0.013427734,-0.9841919,-0.13946533,-7.5625,13.890625,9.0625
144,1727267308249,-0.16625977,-0.8701782,0.021911621,-6.15625,13.75,17.203125
145,1727267308287,-0.1730957,-0.79888916,0.07513428,-2.8125,8.984375,10.390625
146,1727267308315,-0.15112305,-0.77716064,0.03778076,-10.203125,9.53125,7.453125
147,1727267308361,-0.10449219,-0.7817993,0.078308105,-0.5,3.765625,11.75
148,1727267308408,-0.13598633,-0.7913208,0.07196045,2.5625,-3.484375,7.234375
149,1727267308440,-0.10253906,-0.7913208,0.12420654,11.765625,-14.140625,6.28125
150,1727267308481,-0.2541504,-0.8567505,0.038757324,2.125,-13.796875,6.296875
151,1727267308511,-0.09863281,-0.92681885,0.11224365,8.765625,-19.375,1.625
152,1727267308558,-0.24243164,-1.3162231,0.08123779,4.40625,-5.84375,-9.140625
153,1727267308600,-0.4404297,-1.236145,0.34710693,-0.21875,-5.90625,-1.8125
154,1727267308631,-0.34692383,-1.3792114,0.21429443,-31.78125,1.9375,6.5625
155,1727267308679,0.24316406,-1.2590942,-0.19732666,-1.578125,11.9375,8.53125
156,1727267308720,0.642334,-1.0344849,-0.13604736,14.71875,15.296875,5.65625
157,1727267308750,0.3491211,-1.3569946,-0.0015258789,8.65625,-32.609375,9.65625
158,1727267308798,-0.28710938,-1.2229614,-0.043762207,-26.421875,-31.75,5.890625
159,1727267308841,-0.25341797,-0.7444458,-0.11431885,2.25,-14.234375,-15.015625
160,1727267308889,-0.0007324219,-0.77471924,0.062438965,14.875,-9.828125,-9.265625
161,1727267308920,-0.021728516,-0.78497314,0.06829834,6.75,-6.640625,2.828125
162,1727267308977,-0.04638672,-0.67022705,0.038024902,5.453125,-2.703125,2.6875
163,1727267308991,-0.040039062,-0.7463989,0.043884277,3.09375,1.5,-2.640625
164,1727267309051,-0.047851562,-0.8496704,0.16912842,-0.53125,4.484375,-1.484375
165,1727267309096,-0.107910156,-0.8284302,0.12200928,-3.375,7.671875,-4.640625
166,1727267309111,-0.15673828,-0.9089966,0.04119873,-2.53125,4.96875,-6.953125
167,1727267309185,0.053710938,-1.0535278,-0.012268066,1.1875,3.765625,-1.21875
168,1727267309202,-0.12548828,-1.3582153,0.322937,-2.09375,-0.046875,7.078125
169,1727267309261,-0.60791016,-1.2947388,0.12445068,-14.0625,-6.1875,-16.4375
170,1727267309281,-0.13256836,-1.5689087,-0.058898926,-1.328125,2.78125,-23.46875
171,1727267309310,0.15063477,-1.272522,-0.16558838,-0.203125,-1.453125,-13.75
172,1727267309351,0.0029296875,-0.79937744,-0.1741333,2.75,6.390625,0.328125
173,1727267309395,-0.17919922,-1.0193481,-0.1428833,-0.109375,22.671875,6.953125
174,1727267309456,-0.1237793,-1.1394653,-0.101379395,-0.046875,17.5,-1.203125
175,1727267309471,0.06982422,-0.90338135,-0.062316895,0.734375,9.46875,3.25
176,1727267309516,-0.067871094,-0.83917236,-0.04547119,0.421875,6.34375,9.5625
177,1727267309545,-0.1772461,-0.7732544,-0.039123535,2.640625,10.546875,6.578125
178,1727267309591,-0.08666992,-0.7617798,-0.0115356445,2.984375,5.96875,5.46875
179,1727267309636,-0.03173828,-0.7918091,0.04046631,1.734375,-1.109375,9.65625
180,1727267309668,-0.17382812,-0.7942505,0.061706543,-0.03125,-3.25,9.609375
181,1727267309711,-0.18261719,-0.7234497,0.06732178,-5.890625,-1.453125,4.96875
182,1727267309759,-0.111083984,-0.8242798,0.00018310547,-6.984375,-6.078125,4.546875
183,1727267309789,-0.25463867,-1.0095825,0.07513428,10.90625,4.71875,11.609375
184,1727267309830,-0.11010742,-1.3279419,0.15301514,2.109375,11.578125,14.390625
185,1727267309879,-0.22216797,-1.4880981,0.33392334,-9.421875,-4.21875,7.1875
186,1727267309921,-0.19628906,-1.5720825,0.1383667,-17.75,-7.828125,7.21875
187,1727267309952,0.2619629,-1.0603638,-0.20025635,3.578125,-19.78125,-13.09375
188,1727267310015,0.6179199,-0.8049927,-0.053527832,20.203125,0.65625,-7.375
189,1727267310030,0.24951172,-1.144104,-0.09893799,-9.0625,-18.625,11.390625
190,1727267310071,-0.12792969,-1.0147095,-0.09136963,-7.953125,-24.125,-8.328125
191,1727267310101,-0.025146484,-0.8328247,-0.049621582,3.171875,-6.234375,-15.78125
192,1727267310148,0.06567383,-0.8128052,0.078308105,5.828125,-6.015625,-5.578125
193,1727267310191,-0.004638672,-0.7920532,0.08148193,1.859375,-8.375,0.765625
194,1727267310238,-0.072265625,-0.7625122,0.06854248,2.453125,-6.859375,0.4375
195,1727267310281,-0.040283203,-0.81695557,0.10467529,4.53125,-3.5,-0.75
196,1727267310325,-0.018310547,-0.82891846,0.11273193,4.546875,-3.46875,-0.296875
197,1727267310340,-0.1508789,-0.8987427,0.18182373,0.765625,0.8125,-1.796875
198,1727267310385,-0.20336914,-0.87286377,0.13494873,3.1875,-2.234375,-7.890625
199,1727267310506,0.026611328,-0.9541626,-0.032287598,2.203125,1.140625,-8.265625
200,1727267310521,0.10668945,-1.2005005,0.2826538,9.4375,-4.796875,7.203125
201,1727267310581,-0.576416,-1.2883911,0.21820068,-10.046875,-0.21875,-4.453125
202,1727267310625,-0.3647461,-1.4041138,-0.105529785,-7.078125,7.28125,-31.015625
203,1727267310640,0.1508789,-1.3584595,-0.11187744,-7.09375,5.234375,-13.28125
204,1727267310656,0.12792969,-1.0042114,-0.19854736,-0.09375,-3.984375,0.109375
205,1727267310670,-0.10546875,-1.069397,-0.15753174,-2.453125,18.765625,13.265625
206,1727267310701,-0.203125,-1.1521606,-0.08868408,3.265625,20.828125,4.171875
207,1727267310749,0.0048828125,-0.89630127,-0.014221191,4.6875,16.9375,0.265625
208,1727267310821,0.040771484,-0.7756958,-0.022766113,2.875,6.90625,13.71875
209,1727267310835,-0.1171875,-0.79815674,-0.09991455,2.390625,9.5625,11.125
210,1727267310867,-0.05102539,-0.80963135,-0.08135986,5.640625,9.40625,10.40625
211,1727267310896,-0.030029297,-0.84088135,0.023620605,6.703125,0.734375,9.5
212,1727267310940,-0.1652832,-0.82818604,0.018737793,0.796875,-5.34375,7.078125
213,1727267310985,-0.15161133,-0.80841064,0.03656006,-3.640625,-3.03125,4.71875
214,1727267311016,-0.053222656,-0.85235596,0.02142334,-5.328125,-5.875,2.859375
215,1727267311060,-0.16137695,-0.98272705,0.043151855,0.84375,-9.515625,5.46875
216,1727267311108,-0.18164062,-1.1785278,0.1251831,-9.75,-1.203125,7.125
217,1727267311136,-0.11254883,-1.4456177,0.2098999,-8.171875,-10.671875,5.4375
218,1727267311180,-0.30786133,-1.4429321,0.1749878,-15.546875,-0.65625,5.75
219,1727267311225,0.026855469,-1.1853638,-0.07159424,4.546875,-1.640625,-6.703125
220,1727267311256,0.46679688,-0.89678955,-0.18487549,10.28125,-9.546875,-15.28125
221,1727267311303,0.5061035,-1.039856,-0.14117432,7.5,-8.921875,7.15625
222,1727267311348,0.09716797,-1.1172485,-0.020080566,-1.03125,-19.984375,7.859375
223,1727267311376,-0.091308594,-0.95684814,-0.10723877,-2.09375,-21.515625,-11.8125
224,1727267311422,0.083984375,-0.90802,-0.020324707,2.703125,-7.25,-11.34375
225,1727267311497,0.022705078,-0.8909302,0.061706543,5.140625,-11.125,-5.75
226,1727267311529,-0.15356445,-0.7871704,0.04071045,1.140625,-7.0,-5.125
227,1727267311540,-0.107177734,-0.73443604,0.06121826,-1.234375,2.765625,-3.265625
228,1727267311601,-0.0048828125,-0.7930298,0.08050537,1.546875,4.359375,-2.421875
229,1727267311631,-0.1159668,-0.87506104,0.1605835,0.3125,5.5625,-1.5625
230,1727267311691,-0.13476562,-0.82476807,0.10321045,-4.890625,4.296875,-8.53125
231,1727267311721,-0.12084961,-0.861145,0.06707764,3.9375,1.734375,-6.65625
232,1727267311751,-0.0017089844,-1.0166626,0.062927246,4.453125,-1.90625,-0.046875
233,1727267311795,-0.08178711,-1.3364868,0.38885498,2.3125,-2.078125,6.109375
234,1727267311810,-0.4868164,-1.2588501,0.16644287,-4.6875,-1.953125,-4.25
235,1727267311888,-0.25976562,-1.4341431,-0.10992432,3.546875,4.6875,-18.15625
236,1727267311961,0.1665039,-1.4238892,-0.061340332,-0.015625,-1.046875,-11.390625
237,1727267311979,0.01953125,-0.9343872,-0.27886963,-6.96875,3.859375,-5.546875
238,1727267311990,-0.06640625,-0.9360962,-0.18218994,-0.640625,15.5,4.46875
239,1727267312042,-0.07714844,-1.0496216,-0.013977051,-1.484375,7.84375,-0.15625
240,1727267312051,-0.011474609,-0.8513794,-0.039123535,-3.296875,7.6875,1.09375
241,1727267312111,-0.11230469,-0.82525635,-0.04864502,2.15625,13.5625,7.203125
242,1727267312171,-0.16992188,-0.8110962,-0.035949707,5.875,16.515625,7.484375
243,1727267312201,-0.07421875,-0.85040283,-0.06036377,7.703125,14.65625,9.75
244,1727267312230,-0.032226562,-0.85235596,-0.006164551,7.1875,11.46875,11.859375
245,1727267312261,-0.13452148,-0.8406372,0.05218506,5.0,6.21875,8.046875
246,1727267312291,-0.12426758,-0.8049927,0.09051514,1.625,0.34375,2.78125
247,1727267312336,0.024414062,-0.784729,-0.010803223,-5.671875,-7.828125,3.984375
248,1727267312365,-0.037597656,-0.9331665,0.0067749023,3.125,-15.921875,8.546875
249,1727267312413,-0.36694336,-1.2371216,0.06561279,2.546875,0.484375,14.3125
250,1727267312456,-0.29858398,-1.414856,0.18890381,-1.78125,-1.65625,4.515625
251,1727267312487,-0.32739258,-1.6079712,0.22723389,-12.09375,-4.828125,2.140625
252,1727267312530,0.056152344,-1.3933716,-0.13018799,4.453125,6.453125,-0.3125
253,1727267312576,0.5822754,-0.87872314,-0.23443604,28.0625,6.734375,-9.640625
254,1727267312635,0.5878906,-0.95684814,-0.26031494,5.140625,-6.875,15.609375
255,1727267312651,0.13647461,-1.0088501,-0.08428955,-4.546875,-26.78125,15.96875
256,1727267312696,-0.14282227,-0.878479,-0.12286377,-6.390625,-29.46875,-10.859375
257,1727267312729,0.025634766,-0.8826294,-0.05255127,0.21875,-12.109375,-20.25
258,1727267312801,0.06689453,-0.8508911,-0.031799316,-1.375,-8.84375,-10.359375
259,1727267312816,-0.052246094,-0.7385864,-0.021057129,-0.296875,-8.515625,-4.046875
260,1727267312846,-0.057861328,-0.72247314,0.050476074,3.703125,-5.953125,-2.40625
261,1727267312891,-0.013427734,-0.7918091,0.08001709,5.4375,-3.578125,-1.6875
262,1727267312935,-0.05053711,-0.89678955,0.09222412,2.71875,3.375,-0.75
263,1727267312981,-0.16992188,-0.9055786,0.14642334,6.265625,8.546875,1.84375
264,1727267313041,-0.14257812,-0.9187622,-0.034240723,8.0625,10.78125,-1.390625
265,1727267313149,0.060546875,-1.0493774,-0.058654785,11.609375,8.421875,1.671875
266,1727267313191,-0.09057617,-1.3674927,0.26507568,5.328125,2.734375,6.859375
267,1727267313239,-0.43579102,-1.4346313,-0.015197754,-14.25,-1.109375,-13.0
268,1727267313272,-0.0021972656,-1.5339966,-0.27764893,-8.8125,5.421875,-20.546875
269,1727267313281,0.27368164,-1.159729,-0.19927979,0.375,-1.4375,-13.796875
270,1727267313296,-0.01171875,-0.81427,-0.25274658,-0.8125,-1.21875,3.75
271,1727267313316,-0.11352539,-0.975647,-0.24249268,-1.046875,20.71875,17.59375
272,1727267313342,-0.091308594,-0.8809204,-0.13360596,3.078125,21.109375,-0.109375
273,1727267313371,0.06274414,-0.8491821,-0.13140869,3.546875,8.296875,3.6875
274,1727267313416,0.009765625,-0.880188,-0.09698486,2.765625,7.140625,10.75
275,1727267313449,-0.13769531,-0.7893677,-0.105041504,-0.921875,13.25,8.984375
276,1727267313491,-0.008544922,-0.83721924,-0.109191895,0.21875,12.40625,6.28125
277,1727267313520,-0.08276367,-0.8272095,-0.00592041,2.53125,3.609375,7.671875
278,1727267313569,-0.110839844,-0.7883911,-0.020812988,-1.59375,3.765625,6.484375
279,1727267313610,-0.053710938,-0.7683716,-0.028381348,-4.609375,0.5,2.671875
280,1727267313641,-0.041259766,-0.83013916,-0.009338379,-6.171875,-8.546875,0.9375
281,1727267313685,-0.18603516,-1.0076294,-0.014221191,-3.0625,-7.03125,3.046875
282,1727267313731,-0.18896484,-1.2905884,0.10076904,6.21875,3.953125,8.59375
283,1727267313761,-0.10546875,-1.4707642,-0.022277832,-5.59375,-2.75,6.375
284,1727267313808,-0.0925293,-1.5852661,0.1395874,-9.890625,-4.3125,3.40625
285,1727267313851,0.29345703,-1.1504517,-0.16314697,-6.453125,-16.640625,-5.96875
286,1727267313882,0.5788574,-0.7752075,-0.25787354,13.34375,-23.484375,-11.140625
287,1727267313928,0.36499023,-0.9783325,-0.19000244,-1.515625,-19.71875,8.171875
288,1727267313955,-0.08203125,-1.0484009,-0.070373535,-7.09375,-24.6875,1.09375
289,1727267314000,0.0007324219,-0.9031372,-0.1350708,-1.78125,-18.78125,-18.359375
290,1727267314045,0.067871094,-0.88848877,-0.018127441,8.96875,-12.078125,-11.703125
291,1727267314106,-0.057128906,-0.8213501,-0.01373291,-1.84375,-4.453125,-6.3125
292,1727267314136,-0.055664062,-0.7564087,0.00018310547,1.40625,-0.03125,-3.15625
293,1727267314241,0.05126953,-0.76275635,-0.004211426,2.0,0.34375,-3.59375
294,1727267314301,0.0014648438,-0.8008423,0.098083496,3.53125,-1.296875,0.875
295,1727267314319,-0.17236328,-0.79229736,0.09979248,-2.8125,1.796875,-2.03125
296,1727267314330,-0.1171875,-0.8401489,0.02508545,-2.84375,6.5,-7.359375
297,1727267314421,0.02368164,-1.0098267,-0.003479004,5.046875,3.40625,-3.78125
298,1727267314435,0.10180664,-1.2415161,0.13787842,4.1875,-4.40625,6.5
299,1727267314452,-0.42504883,-1.2949829,0.21282959,-8.4375,-0.875,-3.703125
300,1727267314468,-0.31469727,-1.5337524,-0.15093994,-14.40625,1.625,-23.28125
301,1727267314542,0.21704102,-1.2285767,-0.2156372,-2.015625,-3.875,-17.59375
302,1727267314591,-0.0925293,-0.9871216,-0.22564697,3.453125,5.921875,0.03125
303,1727267314631,0.0026855469,-1.1113892,-0.21099854,7.140625,24.046875,9.625
304,1727267314648,-0.16137695,-1.1619263,-0.042297363,-0.671875,29.359375,-1.515625
305,1727267314679,0.03881836,-0.89434814,-0.13555908,-0.328125,16.078125,0.171875
306,1727267314691,0.11376953,-0.76031494,-0.1482544,7.28125,9.734375,14.484375
307,1727267314721,-0.044189453,-0.8340454,-0.1182251,3.875,10.90625,11.265625
308,1727267314752,-0.12768555,-0.78131104,-0.054748535,3.90625,8.890625,7.65625
309,1727267314799,-0.07128906,-0.72320557,-0.04888916,4.234375,2.4375,8.328125
310,1727267314841,-0.05517578,-0.756897,-0.026184082,5.046875,1.171875,7.03125
311,1727267314871,0.014892578,-0.74224854,-0.054992676,0.625,-2.8125,5.875
312,1727267314921,-0.02368164,-0.8701782,-0.0335083,2.375,-10.765625,7.828125
313,1727267314961,-0.26342773,-1.1109009,0.00970459,-3.5625,-6.859375,6.78125
314,1727267314991,-0.30517578,-1.3450317,0.04827881,-4.90625,4.21875,2.484375
315,1727267315039,-0.22460938,-1.5142212,-0.062805176,-10.484375,-0.546875,1.265625
316,1727267315082,0.056884766,-1.5239868,-0.026672363,-3.875,7.1875,1.34375
317,1727267315141,0.65649414,-0.9939575,-0.17974854,9.5625,-12.875,-9.640625
318,1727267315159,0.51538086,-0.89630127,-0.24615479,13.203125,-16.203125,2.046875
319,1727267315201,-0.0703125,-1.0352173,-0.13482666,-3.109375,-23.921875,6.3125
320,1727267315231,-0.05859375,-0.91607666,-0.10455322,-0.828125,-18.453125,-20.234375
321,1727267315279,0.14233398,-0.942688,-0.11553955,-5.453125,-7.71875,-14.3125
322,1727267315321,0.033203125,-0.92755127,-0.0022583008,0.453125,-9.421875,-6.515625
323,1727267315352,-0.009765625,-0.8609009,-0.0056762695,0.546875,-10.421875,-1.3125
324,1727267315399,-0.06274414,-0.7632446,0.027526855,-1.09375,-9.1875,-4.53125
325,1727267315456,-0.04296875,-0.78326416,0.042419434,0.0625,-6.15625,-2.390625
326,1727267315491,-0.052734375,-0.79034424,0.086364746,-1.265625,-2.09375,-2.390625
327,1727267315515,-0.15527344,-0.6951294,0.023132324,-5.875,-7.109375,-9.421875
328,1727267315545,-0.18530273,-0.85479736,0.07269287,-0.703125,2.15625,-8.046875
329,1727267315609,0.0126953125,-1.1306763,0.043151855,0.59375,0.234375,-2.671875
330,1727267315641,-0.05908203,-1.3655396,0.20697021,-2.78125,-8.9375,3.1875
331,1727267315669,-0.41064453,-1.5098267,-0.03717041,-18.40625,-15.234375,-15.53125
332,1727267315715,0.12207031,-1.5022583,-0.13116455,-7.796875,-16.296875,-12.171875
333,1727267315764,-0.14501953,-1.0186157,-0.13018799,-2.15625,0.09375,-9.484375
334,1727267315831,-0.068603516,-0.6397095,-0.23590088,-0.875,15.015625,0.078125
335,1727267315851,-0.04663086,-1.2034302,-0.18707275,5.6875,23.109375,10.21875
336,1727267315875,0.021484375,-1.2442017,-0.047180176,0.828125,11.78125,2.09375
337,1727267315921,-0.0793457,-0.8713989,-0.058898926,2.609375,8.359375,7.515625
338,1727267315951,-0.13232422,-0.74786377,-0.13873291,1.859375,16.53125,8.8125
339,1727267315995,-0.13232422,-0.7932739,-0.018371582,10.328125,16.265625,6.40625
340,1727267316025,-0.023925781,-0.84503174,-0.03375244,3.9375,8.21875,9.765625
341,1727267316072,-0.053222656,-0.76348877,-0.039367676,0.59375,2.265625,6.078125
342,1727267316119,-0.056640625,-0.7481079,0.0048217773,1.5625,-0.09375,8.578125
343,1727267316149,-0.0637207,-0.77349854,-0.014221191,-0.734375,-8.265625,8.515625
344,1727267316192,-0.09814453,-0.9302368,-0.015686035,-2.625,-5.578125,7.890625
345,1727267316241,-0.24194336,-1.1453247,-0.012756348,-4.265625,1.6875,7.96875
346,1727267316268,-0.18017578,-1.3445435,0.0914917,-4.375,3.4375,5.5
347,1727267316311,-0.2939453,-1.6775513,0.21942139,-15.375,7.8125,6.078125
348,1727267316356,0.0793457,-1.3213501,-0.10064697,-5.125,5.015625,-5.140625
349,1727267316389,0.7758789,-0.9500122,-0.34747314,28.0,-2.46875,-16.828125
350,1727267316460,0.37182617,-0.8999634,-0.101135254,4.65625,-14.1875,13.875
351,1727267316476,-0.045654297,-0.9768677,-0.030822754,-7.5625,-28.546875,-0.921875
352,1727267316511,-0.04663086,-0.8899536,-0.15289307,-6.578125,-18.953125,-21.890625
353,1727267316552,0.06665039,-0.88653564,-0.054748535,0.09375,-5.21875,-17.84375
354,1727267316582,0.09472656,-0.87945557,-0.034484863,2.953125,-9.0625,-3.140625
355,1727267316629,-0.08154297,-0.8076782,0.047302246,3.75,-16.375,1.921875
356,1727267316731,-0.08984375,-0.772522,-0.0037231445,-1.5625,-7.921875,-4.328125
357,1727267316810,-0.050048828,-0.8599243,0.094177246,4.234375,-3.46875,1.109375
358,1727267316824,-0.07006836,-0.9312134,0.07171631,0.640625,-3.90625,0.546875
359,1727267316851,-0.1743164,-0.894104,0.11126709,-0.71875,-6.171875,-7.78125
360,1727267316867,-0.110839844,-0.8569946,0.05633545,-1.609375,4.96875,-7.8125
361,1727267316881,0.08203125,-0.99224854,0.0099487305,6.4375,0.546875,1.671875
362,1727267316911,-0.22167969,-1.3040161,0.33026123,-3.0,1.390625,8.140625
363,1727267316959,-0.56103516,-1.2664185,0.152771,-13.328125,6.53125,-18.65625
364,1727267317031,-0.2788086,-1.2285767,-0.050842285,-19.0625,20.78125,-32.046875
365,1727267317060,0.1809082,-1.3208618,-0.18170166,-10.0625,5.421875,-17.796875
366,1727267317079,0.17260742,-1.0176392,-0.2720337,3.5625,-3.453125,12.953125
367,1727267317150,-0.24291992,-0.94903564,-0.22711182,4.6875,9.46875,7.984375
368,1727267317165,-0.24682617,-1.1484985,-0.128479,1.6875,19.09375,2.796875
369,1727267317181,-0.008544922,-1.0073853,0.047546387,4.265625,19.421875,1.203125
370,1727267317259,-0.087402344,-0.85162354,-0.09088135,5.359375,10.078125,13.6875
371,1727267317271,-0.08935547,-0.7319946,-0.17608643,9.046875,15.609375,12.46875
372,1727267317301,0.0056152344,-0.76934814,-0.08648682,13.75,9.59375,12.484375
373,1727267317349,-0.030273438,-0.86383057,-0.04864502,6.359375,0.375,10.1875
374,1727267317376,-0.1496582,-0.9351196,0.024108887,3.296875,-5.328125,11.671875
375,1727267317421,-0.17773438,-0.82940674,0.02142334,-3.40625,-5.96875,6.78125
376,1727267317466,-0.12646484,-0.77716064,-0.043762207,-5.78125,-8.109375,3.28125
377,1727267317502,-0.13012695,-0.9043579,-0.007385254,1.40625,-9.265625,2.328125
378,1727267317541,-0.2109375,-1.1885376,0.008239746,0.40625,-1.078125,7.5625
379,1727267317586,-0.3227539,-1.4116821,0.15350342,-7.0625,-4.953125,3.828125
380,1727267317616,-0.29614258,-1.4158325,0.16107178,-19.265625,-2.5,-0.6875
381,1727267317661,0.0024414062,-1.3484497,-0.17608643,-12.625,-4.125,-3.734375
382,1727267317721,0.5595703,-0.9668579,-0.2695923,15.421875,3.296875,-8.90625
383,1727267317735,0.69628906,-1.0737915,0.02557373,3.8125,-5.21875,10.046875
384,1727267317781,-0.0390625,-1.1182251,-0.11993408,-10.984375,-30.921875,13.0625
385,1727267317825,-0.20239258,-0.84625244,-0.10797119,-1.15625,-18.3125,-16.359375
386,1727267317889,0.035888672,-0.739563,-0.04083252,1.21875,-0.953125,-19.28125
387,1727267317901,0.08325195,-0.83306885,0.062927246,1.640625,-7.140625,-3.171875
388,1727267317946,-0.12451172,-0.85650635,0.05633545,-1.921875,-4.234375,0.03125
389,1727267317993,-0.1418457,-0.76104736,0.03704834,-0.03125,1.65625,-5.609375
390,1727267318035,0.022216797,-0.7324829,0.0680542,-1.515625,10.078125,-8.109375
391,1727267318081,-0.15014648,-0.80596924,0.18231201,4.09375,2.921875,0.78125
392,1727267318125,-0.2512207,-0.79156494,0.043640137,1.0625,4.953125,-4.953125
393,1727267318155,-0.025878906,-0.8916626,0.030944824,6.28125,8.3125,-5.6875
394,1727267318195,0.0061035156,-1.1914673,0.18450928,2.96875,0.3125,9.328125
395,1727267318218,-0.28173828,-1.3181763,0.26116943,-5.09375,-9.765625,6.28125
396,1727267318290,-0.53149414,-1.2910767,-0.07354736,-6.75,-6.171875,-24.640625
397,1727267318339,-0.017089844,-1.5388794,-0.029846191,-5.203125,11.234375,-22.8125
398,1727267318351,0.21679688,-1.1460571,-0.19342041,-0.140625,4.03125,-1.828125
399,1727267318381,-0.07006836,-0.76934814,-0.22711182,3.75,12.875,9.265625
400,1727267318441,-0.18603516,-1.1704712,-0.18341064,3.296875,20.046875,6.390625
401,1727267318460,0.06933594,-1.3245239,-0.023986816,1.140625,21.296875,0.71875
402,1727267318506,0.13232422,-0.8887329,-0.036193848,4.6875,5.765625,7.453125
403,1727267318551,-0.09375,-0.7192993,-0.02154541,1.3125,1.4375,15.03125
404,1727267318591,-0.17504883,-0.69122314,-0.090148926,-1.859375,8.640625,5.59375
405,1727267318623,-0.03173828,-0.69366455,-0.034729004,3.875,2.53125,1.390625
406,1727267318651,-0.038330078,-0.7456665,0.058532715,1.203125,-3.734375,5.0
407,1727267318698,-0.12939453,-0.708313,0.046813965,-2.15625,-13.546875,4.8125
408,1727267318740,-0.08569336,-0.7559204,0.038269043,-9.90625,-11.40625,1.75
409,1727267318771,-0.14794922,-0.96954346,0.045837402,-9.46875,-14.515625,3.828125
410,1727267318815,-0.32836914,-1.1243286,0.08734131,0.0,-3.8125,4.8125
411,1727267318846,-0.31225586,-1.3660278,0.18109131,-7.203125,0.375,5.203125
412,1727267318894,-0.2854004,-1.7605591,0.2399292,-15.375,3.203125,3.34375
413,1727267318939,0.34814453,-1.2402954,-0.17803955,12.921875,3.71875,1.328125
414,1727267318965,0.81469727,-0.97784424,-0.21514893,36.28125,-7.171875,0.765625
415,1727267319011,0.27075195,-1.2246704,-0.05645752,-5.546875,-23.515625,21.28125
416,1727267319055,-0.099853516,-1.0889282,-0.006652832,-11.34375,-26.28125,-11.984375
417,1727267319089,0.029296875,-0.8970337,-0.10821533,-3.5625,-11.921875,-22.15625
418,1727267319131,0.041259766,-0.847229,-0.014709473,4.640625,-7.203125,-15.734375
419,1727267319176,-0.05883789,-0.7515259,0.043395996,0.234375,-3.125,-1.34375
420,1727267319210,-0.12670898,-0.6001587,-0.0005493164,0.765625,-10.984375,-1.515625
421,1727267319252,0.030517578,-0.6980591,0.039001465,3.84375,0.28125,-3.53125
422,1727267319328,0.009521484,-0.8936157,0.1852417,5.9375,-4.1875,1.8125
423,1727267319360,-0.123046875,-0.87701416,0.10491943,-1.578125,-3.046875,-4.171875
424,1727267319386,-0.16430664,-0.80255127,0.07196045,0.4375,-0.984375,-6.8125
425,1727267319401,-0.20336914,-1.0022583,0.09442139,5.640625,0.890625,-3.171875
426,1727267319508,-0.099121094,-1.272522,0.21331787,2.1875,4.25,0.484375
427,1727267319522,-0.35473633,-1.2703247,0.16497803,-2.546875,2.5625,-3.40625
428,1727267319551,-0.31176758,-1.4580688,-0.04107666,-10.9375,8.546875,-18.390625
429,1727267319565,0.29052734,-1.5689087,-0.16583252,-1.453125,4.421875,-8.375
430,1727267319626,0.03125,-1.0142212,-0.2354126,9.015625,2.390625,-0.484375
431,1727267319689,-0.12573242,-0.7383423,-0.20123291,6.296875,14.515625,7.671875
432,1727267319701,-0.11279297,-1.0569458,-0.19293213,0.4375,19.46875,4.5625
433,1727267319791,0.13793945,-1.0454712,-0.049865723,0.984375,12.671875,0.703125
434,1727267319806,0.045898438,-0.9065552,-0.04522705,4.53125,-0.453125,15.34375
435,1727267319826,-0.15698242,-0.7839966,-0.07867432,4.125,6.8125,10.859375
436,1727267319850,-0.09741211,-0.6616821,-0.10040283,-0.3125,15.390625,4.625
437,1727267319925,-0.0021972656,-0.80059814,0.003112793,3.828125,1.265625,4.3125
438,1727267319941,-0.114746094,-0.86602783,0.043884277,0.953125,-6.3125,6.9375
439,1727267319971,-0.21606445,-0.7349243,0.019714355,-4.59375,-3.109375,1.109375
440,1727267320002,-0.12597656,-0.7439575,0.050476074,-5.625,-0.640625,-2.078125
441,1727267320045,-0.103027344,-0.92437744,-0.0178833,-2.21875,-9.125,3.921875
442,1727267320091,-0.18945312,-1.2461548,0.09857178,0.78125,-6.546875,12.625
443,1727267320121,-0.30566406,-1.5408325,0.24847412,-2.59375,4.9375,15.890625
444,1727267320188,-0.3046875,-1.510315,0.08416748,-13.4375,13.984375,9.296875
445,1727267320196,0.45947266,-1.156311,-0.4006958,16.890625,7.203125,-7.71875
446,1727267320255,1.0187988,-0.9517212,-0.13922119,25.421875,-6.25,-2.65625
447,1727267320288,0.20507812,-1.2315063,-0.16851807,-10.671875,-25.328125,29.15625
448,1727267320319,-0.12133789,-0.9282837,-0.105041504,-11.390625,-30.328125,-12.296875
449,1727267320361,0.033691406,-0.8418579,-0.08477783,-3.109375,-15.4375,-26.34375
450,1727267320409,0.107666016,-0.85528564,-0.011779785,3.03125,-10.4375,-17.78125
451,1727267320441,0.017333984,-0.81695557,-0.0005493164,-0.953125,-10.59375,-2.671875
452,1727267320481,-0.08520508,-0.6812134,0.036071777,-0.5,-9.15625,-3.453125
453,1727267320540,-0.08178711,-0.6585083,0.06390381,3.171875,-5.203125,-7.3125
454,1727267320558,-0.03466797,-0.7932739,0.10760498,1.625,0.03125,-3.25
455,1727267320630,-0.16015625,-0.8545532,0.14031982,-1.078125,1.4375,-4.078125
456,1727267320645,-0.12866211,-0.8735962,-0.013000488,-0.234375,5.71875,-9.421875
457,1727267320680,0.064208984,-1.0784302,-0.03375244,9.59375,5.1875,-5.8125
458,1727267320738,-0.010986328,-1.4146118,0.3204956,-0.734375,-4.234375,10.125
459,1727267320768,-0.5617676,-1.4280396,0.10662842,-18.21875,-8.40625,-9.921875
460,1727267320795,-0.26123047,-1.3499146,-0.08428955,-11.359375,9.265625,-34.203125
461,1727267320858,0.13110352,-1.2564087,-0.19293213,-2.28125,10.546875,-13.546875
462,1727267320916,0.028564453,-0.9060669,-0.22174072,5.890625,6.78125,0.6875
463,1727267320961,-0.111083984,-0.97247314,-0.17559814,-3.203125,21.15625,4.953125
464,1727267320993,-0.25073242,-1.1826782,-0.1716919,3.4375,25.015625,5.5
465,1727267321006,0.049316406,-0.96710205,-0.07281494,3.53125,22.421875,3.0625
466,1727267321041,0.032470703,-0.8875122,-0.1026001,0.078125,7.140625,14.75
467,1727267321081,-0.064697266,-0.7744751,-0.085510254,6.21875,7.5,12.96875
468,1727267321113,-0.049804688,-0.70196533,-0.047668457,8.515625,6.46875,12.734375
469,1727267321170,-0.021240234,-0.7156372,-0.0022583008,7.71875,-1.15625,9.4375
470,1727267321200,-0.15649414,-0.7420044,0.028503418,1.203125,-8.296875,5.28125
471,1727267321231,-0.17553711,-0.7473755,0.02557373,-3.140625,-8.75,2.625
472,1727267321279,-0.10913086,-0.7893677,0.050476074,-2.515625,-5.421875,2.28125
473,1727267321322,-0.21044922,-1.0349731,0.02947998,0.046875,-3.390625,7.203125
474,1727267321369,-0.115234375,-1.5337524,0.15032959,-4.609375,-2.5625,10.59375
475,1727267321399,-0.15014648,-1.4568481,0.12567139,-9.0,-14.140625,11.015625
476,1727267321471,-0.22021484,-1.3877563,0.22479248,-13.96875,-9.609375,8.6875
477,1727267321494,0.18457031,-0.8677368,-0.43780518,5.046875,-16.78125,-12.390625
478,1727267321519,0.86328125,-1.00177,-0.21929932,26.4375,5.0625,-3.234375
479,1727267321562,0.20751953,-1.4736938,-0.0256958,-20.34375,-25.046875,28.078125
480,1727267321591,-0.29760742,-0.9277954,-0.16607666,-8.046875,-20.96875,-9.984375
481,1727267321636,0.0847168,-0.8452759,-0.1482544,6.171875,0.75,-20.9375
482,1727267321725,0.1796875,-0.87506104,0.06512451,10.75,-4.578125,-6.765625
483,1727267321740,0.022216797,-0.815979,0.032409668,-0.03125,-6.484375,-0.515625
484,1727267321772,-0.08666992,-0.6489868,-0.008605957,2.703125,-3.453125,1.78125
485,1727267321785,-0.099853516,-0.63604736,0.054626465,8.796875,0.9375,-2.34375
486,1727267321831,-0.08959961,-0.7715454,0.053649902,5.03125,2.515625,-2.921875
487,1727267321875,-0.09814453,-0.87579346,0.06903076,0.484375,6.25,-3.0
488,1727267321907,-0.115722656,-0.9570923,0.051696777,1.9375,7.421875,-2.859375
489,1727267321965,-0.028076172,-1.1152954,0.05291748,2.328125,8.25,-2.203125
490,1727267322010,-0.04638672,-1.352356,0.066833496,0.359375,-0.140625,-1.40625
491,1727267322131,0.060546875,-1.6282349,-0.09527588,-11.875,-15.671875,-2.9375
492,1727267322147,-0.092041016,-1.4761353,0.097351074,8.890625,-13.0625,-12.578125
493,1727267322221,-0.3876953,-0.78253174,-0.27398682,-0.984375,9.953125,-11.734375
494,1727267322239,0.08178711,-0.59747314,-0.43463135,-0.484375,29.203125,-14.34375
495,1727267322252,0.2956543,-1.3723755,-0.23956299,7.234375,14.640625,21.671875
496,1727267322296,0.06982422,-1.3997192,-0.012268066,-0.21875,-4.328125,-2.9375
497,1727267322311,-0.20410156,-0.8154907,-0.08526611,-0.28125,7.34375,3.34375
498,1727267322326,-0.09301758,-0.65167236,-0.15948486,0.421875,12.390625,4.921875
499,1727267322358,0.02709961,-0.75079346,-0.10626221,6.90625,6.234375,4.9375
500,1727267322385,0.07861328,-0.90045166,0.0004272461,4.125,-5.515625,12.875
501,1727267322431,-0.13549805,-0.81744385,0.0028686523,-3.75,-12.0625,7.890625
502,1727267322481,-0.24414062,-0.59991455,-0.014953613,-4.875,-3.40625,0.1875
503,1727267322506,-0.0925293,-0.5947876,-0.035461426,-1.171875,-0.53125,1.921875
504,1727267322551,-0.0546875,-0.93292236,-0.04888916,3.578125,-5.859375,9.359375
505,1727267322580,-0.16503906,-1.3872681,0.03387451,-3.359375,-2.140625,12.0
506,1727267322641,-0.3100586,-1.5535278,0.09442139,-14.5,-1.65625,5.140625
507,1727267322671,-0.1809082,-1.4343872,0.008483887,-12.59375,18.375,2.640625
508,1727267322716,0.37231445,-1.1506958,-0.2695923,11.875,0.65625,-10.34375
509,1727267322750,0.71362305,-0.94537354,-0.22711182,12.046875,-6.171875,0.296875
510,1727267322791,0.4309082,-1.1260376,-0.09063721,-4.28125,-26.34375,15.59375
511,1727267322838,-0.07006836,-1.109436,-0.07232666,-14.59375,-26.515625,-3.8125
512,1727267322881,-0.022705078,-0.975647,-0.13848877,-2.765625,-13.03125,-29.53125
513,1727267322941,0.18969727,-0.8999634,-0.058166504,3.96875,-6.78125,-16.046875
514,1727267322955,0.0703125,-0.7698364,0.027038574,3.859375,-14.984375,-1.75
515,1727267322986,-0.10864258,-0.6704712,-0.0076293945,1.953125,-13.890625,0.5625
516,1727267323060,-0.03515625,-0.7178345,0.020202637,1.828125,-2.140625,-4.234375
517,1727267323079,-0.022460938,-0.76763916,0.046569824,8.796875,-5.0,-1.5625
518,1727267323121,-0.11401367,-0.81207275,0.101745605,7.890625,0.578125,1.296875
519,1727267323167,-0.18554688,-0.85772705,0.06121826,5.34375,4.03125,3.015625
520,1727267323189,-0.15722656,-0.9702759,0.012390137,3.359375,11.828125,-6.140625
521,1727267323257,-0.053710938,-1.2280884,0.11883545,-2.34375,10.609375,-7.25
522,1727267323271,-0.119140625,-1.3035278,0.1720581,-6.453125,4.484375,-5.4375
523,1727267323406,-0.34545898,-1.3775024,-0.13458252,-14.109375,-1.375,-12.09375
524,1727267323451,0.036132812,-1.4817505,-0.15875244,-8.75,13.21875,-13.890625
525,1727267323470,0.06713867,-1.09552,-0.2756958,-1.890625,9.3125,-1.890625
526,1727267323483,0.088134766,-0.8167114,-0.27471924,-4.34375,17.890625,1.96875
527,1727267323507,-0.05908203,-1.2119751,-0.12701416,0.171875,15.09375,12.421875
528,1727267323517,-0.0949707,-1.0393677,-0.07745361,0.328125,12.5,-5.28125
529,1727267323555,0.064453125,-0.7642212,-0.13800049,-1.640625,10.78125,4.765625
530,1727267323618,-0.033203125,-0.7625122,-0.10333252,-0.171875,7.375,9.609375
531,1727267323631,-0.11328125,-0.79351807,-0.078430176,-0.046875,6.5,5.25
532,1727267323660,-0.08666992,-0.83673096,-0.042053223,0.0,2.359375,5.859375
533,1727267323720,-0.115478516,-0.7942505,-0.0025024414,0.671875,0.578125,5.78125
534,1727267323738,-0.11425781,-0.78326416,0.018005371,-1.0625,-0.390625,5.578125
535,1727267323781,-0.12426758,-0.81622314,0.058288574,-2.859375,-3.90625,4.828125
536,1727267323826,-0.16235352,-0.89727783,0.04510498,-4.265625,-7.71875,2.546875
537,1727267323871,-0.1496582,-1.0234985,0.023376465,-0.265625,-1.375,5.328125
538,1727267323902,-0.15893555,-1.3289185,0.20062256,-3.5,-0.28125,7.796875
539,1727267323949,-0.3005371,-1.3565063,0.1618042,-17.671875,-10.0625,1.484375
540,1727267323981,-0.10986328,-1.305481,-0.08062744,-13.484375,1.375,-1.046875
541,1727267324021,0.48999023,-1.0081177,-0.23638916,22.953125,8.5,-4.453125
542,1727267324066,0.65893555,-1.0613403,-0.07159424,9.984375,-10.609375,13.6875
543,1727267324114,-0.08300781,-1.3399048,-0.08502197,-11.9375,-18.421875,11.09375
544,1727267324141,-0.114746094,-0.9834595,-0.12164307,-3.1875,-8.9375,-15.359375
545,1727267324171,0.08642578,-0.8987427,-0.038879395,2.234375,-3.765625,-11.03125
546,1727267324248,0.015136719,-0.83013916,0.007751465,2.046875,-8.078125,-6.40625
547,1727267324261,-0.08642578,-0.75079346,0.04437256,1.953125,0.375,-3.5
548,1727267324353,-0.047851562,-0.68878174,0.040222168,4.90625,1.265625,-2.015625
549,1727267324365,-0.015136719,-0.8023071,0.035827637,5.96875,-0.171875,-1.171875
550,1727267324401,-0.076171875,-0.8296509,0.08099365,5.671875,-2.40625,-1.984375
551,1727267324412,-0.10595703,-0.8352661,0.09222412,0.734375,1.484375,-3.25
552,1727267324460,-0.07128906,-0.9390259,0.066589355,1.40625,1.578125,-5.65625
553,1727267324502,-0.10083008,-1.1714478,0.13812256,-1.8125,1.953125,-1.265625
554,1727267324561,-0.2614746,-1.1958618,0.14715576,1.71875,-6.0,-9.59375
555,1727267324575,-0.31933594,-1.3687134,-0.09161377,-15.90625,-1.890625,-15.65625
556,1727267324636,0.20117188,-1.6209106,-0.093566895,-5.234375,0.265625,-7.40625
557,1727267324682,-0.040527344,-1.1360474,-0.2769165,6.71875,2.5625,-5.28125
558,1727267324695,-0.057617188,-0.6404419,-0.16119385,5.34375,18.53125,2.3125
559,1727267324786,-0.123535156,-1.1636353,-0.1350708,-1.75,20.59375,7.296875
560,1727267324801,0.0107421875,-1.2590942,-0.039855957,-2.515625,16.125,-1.46875
561,1727267324850,0.10986328,-0.7710571,-0.093566895,2.015625,7.515625,5.421875
562,1727267324875,-0.12011719,-0.6795044,-0.09991455,5.765625,7.28125,14.53125
563,1727267324906,-0.15063477,-0.7263794,-0.038391113,3.875,12.609375,3.21875
564,1727267324981,-0.060791016,-0.79571533,0.002380371,3.484375,9.21875,3.03125
565,1727267324996,-0.020263672,-0.78985596,-0.014465332,1.046875,3.78125,9.1875
566,1727267325011,-0.04272461,-0.7769165,0.010192871,0.3125,-0.515625,8.046875
567,1727267325060,-0.15844727,-0.9668579,0.05657959,1.3125,-5.796875,10.75
568,1727267325085,-0.17700195,-1.1135864,0.058776855,-1.125,-5.8125,3.390625
569,1727267325146,-0.20141602,-1.0928345,0.03338623,-4.34375,-1.78125,0.140625
570,1727267325175,-0.23608398,-1.272522,0.1552124,-7.09375,-2.703125,4.0
571,1727267325211,-0.28027344,-1.5767212,0.07904053,-26.375,-13.1875,-1.328125
572,1727267325252,0.07470703,-1.2715454,-0.12384033,-4.53125,2.875,-8.734375
573,1727267325300,0.44873047,-0.7984009,-0.22369385,10.5,8.453125,-19.515625
574,1727267325363,0.52856445,-0.9585571,-0.10870361,0.5625,-13.34375,4.96875
575,1727267325371,-0.06591797,-1.4070435,-0.0115356445,-12.546875,-21.875,6.328125
576,1727267325417,-0.072509766,-0.9751587,-0.07574463,-2.734375,-12.5,-18.671875
577,1727267325506,0.017089844,-0.7949829,0.022155762,3.796875,-3.515625,-14.734375
578,1727267325569,-0.055908203,-0.833313,0.04510498,4.375,-6.671875,-4.3125
579,1727267325598,-0.07373047,-0.73687744,0.030212402,4.640625,-3.59375,-2.109375
580,1727267325611,-0.06689453,-0.6350708,0.012145996,7.421875,-3.546875,-0.84375
581,1727267325626,-0.05834961,-0.73028564,0.06463623,7.578125,-0.359375,0.234375
582,1727267325659,-0.103271484,-0.89385986,0.11785889,4.71875,-0.046875,-1.203125
583,1727267325701,-0.21484375,-0.94073486,0.15130615,4.21875,-4.453125,-1.40625
584,1727267325749,-0.18261719,-0.8916626,0.015563965,0.984375,2.375,-5.828125
585,1727267325761,-0.0390625,-1.1050415,0.09173584,3.9375,1.734375,-1.515625
586,1727267325809,-0.123046875,-1.4719849,0.32000732,-4.09375,-2.890625,6.9375
587,1727267325851,-0.57958984,-1.4285278,-0.08795166,-15.59375,-10.59375,-14.015625
588,1727267325881,-0.020019531,-1.4067993,-0.17364502,-9.96875,9.265625,-27.59375
589,1727267325929,0.13696289,-1.1594849,-0.1951294,4.9375,7.96875,-0.078125
590,1727267326003,-0.07006836,-0.8123169,-0.18560791,4.3125,9.140625,9.90625
591,1727267326035,-0.23486328,-1.0874634,-0.16363525,2.328125,18.609375,13.046875
592,1727267326052,-0.15698242,-1.0332642,-0.10064697,2.84375,20.015625,-2.875
593,1727267326106,0.08886719,-0.81915283,-0.101135254,1.3125,16.34375,6.53125
594,1727267326120,-0.049804688,-0.79400635,-0.06378174,-1.046875,8.9375,14.359375
595,1727267326211,-0.19995117,-0.7151489,-0.0881958,-2.171875,9.328125,3.921875
596,1727267326226,-0.034179688,-0.72125244,-0.050598145,1.21875,3.953125,0.6875
597,1727267326240,-0.07519531,-0.78692627,0.011657715,0.90625,-1.234375,5.734375
598,1727267326288,-0.17504883,-0.803772,0.036071777,-4.03125,0.21875,4.40625
599,1727267326361,-0.2097168,-0.82281494,0.08001709,-1.953125,-4.765625,3.1875
600,1727267326391,-0.21313477,-0.9607544,0.04437256,-0.34375,-0.78125,4.53125
601,1727267326408,-0.14624023,-1.2908325,0.028015137,0.9375,2.421875,8.15625
602,1727267326439,-0.13476562,-1.4553833,0.1473999,-4.8125,-2.3125,6.015625
603,1727267326481,-0.36621094,-1.4932251,0.093444824,-11.875,1.28125,4.25
604,1727267326540,0.28100586,-1.267395,-0.06451416,3.359375,1.609375,-2.90625
605,1727267326559,0.4506836,-0.86016846,-0.18096924,8.046875,-23.53125,-9.109375
606,1727267326601,0.14648438,-0.87750244,-0.20855713,4.6875,-24.515625,2.109375
607,1727267326645,0.033935547,-1.1213989,-0.074279785,-5.21875,-18.703125,-3.0
608,1727267326691,0.0041503906,-1.0588989,-0.04888916,-3.84375,-17.96875,-14.3125
609,1727267326721,0.0026855469,-0.84747314,-0.050109863,-0.75,-15.53125,-11.390625
610,1727267326765,-0.01586914,-0.7595825,0.039245605,5.453125,-16.53125,-4.203125
611,1727267326795,-0.13989258,-0.7307739,0.03289795,2.21875,-12.9375,-0.421875
612,1727267326858,-0.12890625,-0.7695923,0.028259277,1.203125,-7.328125,-1.75
613,1727267326931,-0.08642578,-0.80670166,0.101501465,3.453125,-1.671875,0.6875
614,1727267326946,-0.1730957,-0.85284424,0.15692139,2.828125,0.015625,1.125
615,1727267326961,-0.22387695,-0.89312744,0.093688965,-1.671875,1.421875,-4.171875
616,1727267327021,-0.1652832,-0.9385376,0.06854248,6.875,-13.578125,-8.78125
617,1727267327039,0.03491211,-1.1338501,0.109558105,5.390625,-3.84375,5.90625
618,1727267327081,-0.38867188,-1.3547974,0.16107178,-8.59375,-6.390625,3.234375
619,1727267327125,-0.26660156,-1.4229126,-0.12994385,-7.921875,9.390625,-21.921875
620,1727267327163,0.11230469,-1.5574341,-0.11920166,5.65625,-1.390625,-5.140625
621,1727267327216,-0.07299805,-0.99005127,-0.10357666,6.984375,3.875,-5.640625
622,1727267327250,-0.09326172,-0.6802368,-0.2300415,-5.96875,14.109375,7.296875
623,1727267327282,-0.13110352,-1.1213989,-0.26470947,0.84375,24.609375,4.328125
624,1727267327320,0.01171875,-1.0977173,-0.10064697,3.1875,16.34375,-5.21875
625,1727267327382,-0.008056641,-0.8677368,-0.07574463,-3.671875,6.578125,9.6875
626,1727267327395,-0.111572266,-0.7451782,-0.03277588,1.765625,2.328125,9.484375
627,1727267327501,-0.16967773,-0.704895,-0.07305908,-1.5625,11.96875,3.890625
628,1727267327515,-0.037109375,-0.815979,0.0040893555,3.734375,5.828125,6.484375
629,1727267327532,-0.05883789,-0.84869385,-0.03253174,-2.375,-3.125,7.71875
630,1727267327575,-0.15600586,-0.83843994,0.04486084,-4.84375,-8.03125,5.390625
631,1727267327591,-0.21875,-0.82232666,0.04559326,-5.03125,-8.78125,4.734375
632,1727267327640,-0.26782227,-0.8909302,0.005065918,0.015625,-1.828125,1.015625
633,1727267327729,-0.21679688,-1.1362915,0.01751709,-2.671875,9.96875,7.84375
634,1727267327741,-0.07397461,-1.421936,0.17889404,-7.109375,-1.75,13.5
635,1727267327759,-0.2758789,-1.4971313,0.19696045,-17.9375,-4.9375,7.640625
636,1727267327818,0.0036621094,-1.2312622,-0.15509033,-3.484375,-12.484375,-9.9375
637,1727267327831,0.3720703,-0.95758057,-0.09820557,23.265625,7.96875,-10.453125
638,1727267327951,0.53100586,-0.95635986,-0.06744385,10.140625,-9.75,7.3125
639,1727267327966,0.052978516,-1.1182251,-0.07647705,-3.65625,-29.5625,10.921875
640,1727267327981,-0.10083008,-1.019104,-0.09283447,4.578125,-20.3125,-9.03125
641,1727267328000,0.07421875,-0.8904419,-0.04083252,6.6875,-4.28125,-16.0
642,1727267328029,0.032226562,-0.7842407,0.09564209,7.3125,-11.890625,-5.125
643,1727267328071,-0.19995117,-0.7468872,-0.017150879,2.3125,-11.78125,-3.828125
644,1727267328131,-0.12182617,-0.7449341,0.02532959,4.96875,4.046875,-5.28125
645,1727267328161,0.060058594,-0.80670166,0.097839355,7.65625,1.484375,-0.421875
646,1727267328191,-0.067871094,-0.85235596,0.11053467,4.4375,-2.296875,0.4375
647,1727267328252,-0.22973633,-0.878479,0.055847168,2.046875,4.921875,-4.984375
648,1727267328314,-0.10913086,-0.9168091,0.010192871,7.03125,9.671875,-6.515625
649,1727267328329,-0.036132812,-1.1924438,0.022399902,3.625,6.5,7.96875
650,1727267328371,-0.23120117,-1.4797974,-0.021057129,-7.125,-1.484375,4.71875
651,1727267328386,-0.1550293,-1.585022,-0.15338135,-9.3125,3.859375,-13.328125
652,1727267328432,0.037353516,-1.5169067,-0.093322754,2.828125,5.359375,-16.25
653,1727267328476,-0.057128906,-0.81695557,-0.02520752,3.375,17.625,-7.46875
654,1727267328521,-0.20117188,-0.5713501,-0.28814697,-11.546875,20.5,-1.015625
655,1727267328581,0.10839844,-0.89556885,-0.3237915,-0.515625,22.65625,5.296875
656,1727267328595,0.07861328,-1.1135864,-0.054504395,12.15625,4.390625,8.765625
657,1727267328627,0.40161133,-1.5105591,-1.3030396,50.953125,51.078125,12.296875
658,1727267328689,-0.40820312,-0.6897583,-0.19439697,-0.15625,8.65625,3.359375
659,1727267328717,-0.041259766,-0.7554321,-0.13897705,4.875,17.15625,3.703125
660,1727267328746,-0.048828125,-0.8897095,-0.0256958,5.75,4.28125,6.953125
661,1727267328791,-0.23217773,-0.90167236,-0.040100098,-3.484375,-4.1875,6.75
662,1727267328855,-0.15576172,-0.8233032,-0.0064086914,-3.015625,-7.59375,-1.703125
663,1727267328870,-0.14453125,-0.83551025,0.039978027,-0.65625,-9.234375,4.96875
664,1727267328912,-0.2097168,-0.96661377,-0.034973145,-3.875,-8.96875,5.78125
665,1727267328941,-0.2446289,-1.1983032,-0.015686035,-9.34375,3.484375,5.3125
666,1727267328989,-0.21166992,-1.3621216,0.034362793,-9.890625,5.46875,5.671875
667,1727267329045,-0.34350586,-1.4192505,0.1749878,-17.3125,-1.59375,1.78125
668,1727267329062,-0.080566406,-1.2578735,-0.12261963,-7.734375,1.6875,-6.75
669,1727267329121,0.4013672,-1.0393677,-0.4024048,8.84375,13.1875,-3.859375
670,1727267329181,0.7619629,-0.9661255,-0.031311035,13.25,-13.953125,10.203125
671,1727267329228,-0.041992188,-1.050354,-0.078186035,-4.546875,-27.140625,13.03125
672,1727267329241,-0.24316406,-1.0337524,-0.1375122,-13.421875,-32.71875,-10.796875
673,1727267329272,-0.020263672,-0.9187622,-0.024230957,9.953125,-29.1875,-16.84375
674,1727267329316,0.07714844,-0.7835083,0.038513184,11.34375,-13.234375,-7.328125
675,1727267329345,-0.049560547,-0.77716064,0.035339355,-1.21875,-11.125,2.5
676,1727267329421,-0.1977539,-0.767395,0.06561279,2.1875,-4.484375,-0.609375
677,1727267329452,-0.052001953,-0.6748657,0.07147217,-4.484375,7.84375,-3.828125
678,1727267329481,-0.1665039,-0.8069458,0.15032959,-3.75,14.375,-4.15625
679,1727267329511,-0.33398438,-0.87506104,0.066101074,-1.546875,8.875,-5.796875
680,1727267329601,-0.10229492,-1.0169067,0.016784668,-5.375,18.890625,-12.25
681,1727267329622,-0.004638672,-1.1956177,0.18109131,-7.5,15.78125,-0.109375
682,1727267329631,-0.2783203,-1.2937622,0.33563232,-23.390625,15.796875,-13.640625
683,1727267329676,-0.72216797,-1.3198853,0.25946045,-16.921875,5.078125,-29.453125
684,1727267329721,-0.33789062,-1.3272095,0.010192871,-13.5,27.828125,-24.34375
685,1727267329741,0.12817383,-1.0388794,-0.2756958,-2.6875,29.984375,-5.703125
686,1727267329826,0.25878906,-1.0515747,-0.33721924,4.03125,32.328125,4.15625
687,1727267329840,0.025146484,-1.133606,-0.031066895,6.375,22.71875,8.1875
688,1727267329872,-0.045898438,-1.2180786,0.1642456,10.046875,23.46875,-3.0625
689,1727267329991,-0.25683594,-0.88116455,0.10736084,-2.796875,16.34375,9.3125
690,1727267330005,-0.18823242,-0.6939087,0.014831543,-0.28125,8.640625,9.984375
691,1727267330022,-0.033691406,-0.6602173,-0.03668213,1.9375,3.09375,7.59375
692,1727267330052,-0.068603516,-0.77423096,0.014587402,5.3125,-6.0625,11.015625
693,1727267330068,-0.12084961,-0.80255127,0.089538574,6.984375,-14.953125,12.09375
694,1727267330099,-0.1586914,-0.798645,0.10223389,2.046875,-20.515625,8.5
695,1727267330141,-0.19433594,-0.8555298,0.30462646,-14.0625,-17.046875,8.25
696,1727267330186,-0.096191406,-0.93634033,0.17596436,0.140625,-32.328125,4.734375
697,1727267330231,-0.19970703,-1.1043091,0.10467529,-4.4375,-23.265625,10.140625
698,1727267330261,-0.24560547,-1.2581177,0.2423706,-6.21875,-16.90625,9.859375
699,1727267330306,-0.37451172,-1.5576782,0.2296753,-17.09375,-17.34375,8.0
700,1727267330341,-0.1340332,-1.4026489,0.035583496,10.40625,-27.53125,10.953125
701,1727267330381,0.5678711,-0.8735962,-0.21295166,30.671875,-16.5625,-10.203125
702,1727267330411,0.63720703,-0.8682251,-0.004211426,17.453125,-27.484375,14.09375
703,1727267330472,-0.25,-1.4077759,-0.012268066,-12.6875,-31.734375,18.125
704,1727267330501,-0.01586914,-0.9883423,0.007751465,1.59375,-7.3125,-20.765625
705,1727267330561,0.049316406,-0.8171997,0.06585693,6.9375,-7.28125,-14.140625
706,1727267330591,-0.11987305,-0.7593384,0.062438965,9.328125,-7.703125,-7.546875
707,1727267330639,-0.19628906,-0.65875244,0.21038818,-16.328125,32.84375,-9.78125
708,1727267330651,-0.1694336,-0.7334595,0.07928467,-5.71875,13.40625,-4.921875
709,1727267330700,0.030517578,-0.76812744,0.14031982,-0.3125,24.71875,-1.59375
710,1727267330741,0.016113281,-0.8171997,0.21844482,-9.59375,41.953125,1.546875
711,1727267330771,-0.14379883,-0.8711548,0.23626709,6.25,33.484375,-5.484375
712,1727267330845,-0.08203125,-0.9636841,0.14544678,-2.390625,35.71875,-8.109375
713,1727267330893,-0.0034179688,-1.156311,0.23260498,-8.421875,20.453125,-2.796875
714,1727267330909,-0.11791992,-1.2605591,0.4413452,-6.4375,3.546875,-3.9375
715,1727267330936,-0.1977539,-1.3530884,0.26507568,-22.0,-6.296875,-10.609375
716,1727267331041,-0.036865234,-1.5200806,0.022399902,-17.984375,-16.265625,-3.8125
717,1727267331061,0.060058594,-1.0481567,-0.09259033,5.46875,15.875,-4.59375
718,1727267331073,-0.17822266,-0.79156494,-0.14727783,-5.71875,26.875,-9.765625
719,1727267331101,-0.18798828,-0.8892212,-0.0791626,-17.578125,52.234375,-2.953125
720,1727267331131,-0.14428711,-1.2234497,0.14813232,1.671875,31.40625,3.03125
721,1727267331175,-0.095947266,-0.986145,0.06488037,6.53125,47.46875,13.484375
722,1727267331238,0.06689453,-0.7439575,0.116882324,16.625,27.15625,9.6875
723,1727267331253,0.021972656,-0.800354,0.09124756,16.484375,-1.640625,-0.46875
724,1727267331303,0.0026855469,-0.8220825,0.09637451,7.3125,-4.234375,5.265625
725,1727267331325,0.044189453,-0.84503174,0.24603271,16.609375,-32.140625,5.28125
726,1727267331371,-0.12890625,-0.8501587,0.20428467,12.90625,-56.015625,1.03125
727,1727267331445,-0.2536621,-0.7227173,0.11907959,7.609375,-56.90625,1.8125
728,1727267331461,-0.09033203,-0.8604126,0.08660889,14.6875,-62.234375,-0.578125
729,1727267331492,-0.17944336,-1.1240845,0.10003662,23.375,-50.59375,10.15625
730,1727267331535,-0.26538086,-1.3601685,0.08660889,7.359375,-29.828125,14.828125
731,1727267331582,-0.31591797,-1.6218872,0.11981201,-2.78125,-18.578125,4.171875
732,1727267331611,0.06567383,-1.3279419,-0.19146729,-2.546875,-6.421875,5.6875
733,1727267331655,0.60668945,-0.9529419,-0.17877197,13.375,-2.125,-2.734375
734,1727267331686,0.52856445,-0.90631104,-0.10235596,11.0625,-25.625,10.265625
735,1727267331748,-0.21020508,-1.2532349,-0.082336426,-23.65625,-23.5,2.5625
736,1727267331777,-0.1015625,-0.8291626,-0.033996582,-32.953125,-13.59375,-5.671875
737,1727267331821,0.12231445,-0.8335571,0.0060424805,-27.234375,26.09375,-7.34375
738,1727267331851,-0.099609375,-0.835022,0.168396,-12.4375,20.4375,0.78125
739,1727267331881,-0.095947266,-0.6121216,0.15911865,-20.1875,33.625,15.09375
740,1727267331959,0.096191406,-0.7827759,0.17962646,-7.328125,24.4375,1.0
741,1727267331971,0.061035156,-0.85479736,0.19476318,-1.765625,20.328125,2.46875
742,1727267332045,0.052734375,-0.786438,0.31195068,3.375,5.046875,0.3125
743,1727267332060,0.009521484,-0.92852783,0.2374878,0.109375,-0.9375,-10.0
744,1727267332135,0.022949219,-0.9920044,0.31610107,8.609375,-3.3125,-14.265625
745,1727267332151,0.0036621094,-1.1646118,0.2387085,4.140625,-1.53125,-12.421875
746,1727267332188,-0.0048828125,-1.3587036,0.03265381,-7.140625,-10.984375,-10.828125
747,1727267332211,0.17333984,-1.4834595,0.2230835,-4.25,-18.71875,1.046875
748,1727267332241,-0.091552734,-1.4819946,0.2789917,3.890625,3.65625,-3.921875
749,1727267332289,-0.23242188,-0.88531494,0.012145996,4.421875,18.671875,-22.359375
750,1727267332331,-0.0690918,-0.6760864,-0.35235596,-8.03125,21.203125,-20.671875
751,1727267332361,0.20581055,-0.88116455,-0.20465088,13.015625,12.75,2.765625
752,1727267332411,-0.14892578,-1.147522,0.12689209,19.625,10.578125,22.28125
753,1727267332451,-0.35375977,-1.1416626,0.19476318,-9.890625,40.203125,10.125
754,1727267332500,-0.20581055,-0.7127075,0.011413574,-14.828125,35.5625,6.3125
755,1727267332526,0.035888672,-0.690979,-0.035461426,-5.921875,18.5625,7.09375
756,1727267332586,0.052734375,-0.9158325,0.112976074,-1.875,5.828125,11.75
757,1727267332601,-0.2121582,-0.9065552,0.23309326,-7.296875,9.4375,16.46875
758,1727267332649,-0.079589844,-0.80181885,0.24920654,-20.484375,7.265625,7.609375
759,1727267332691,-0.12573242,-0.74786377,0.30828857,-11.890625,-3.59375,4.25
760,1727267332765,-0.030273438,-0.9077759,0.16888428,-2.46875,-11.34375,-6.140625
761,1727267332781,0.08496094,-1.1731567,0.24017334,10.40625,-28.9375,-13.78125
762,1727267332796,-0.4255371,-1.8171997,0.26483154,2.953125,-47.921875,10.421875
763,1727267332841,0.2939453,-1.5261841,0.13128662,15.6875,-7.359375,6.890625
764,1727267332885,0.5307617,-0.97857666,0.0006713867,48.515625,-11.328125,-10.03125
765,1727267332919,0.20727539,-0.6831665,-0.01739502,36.640625,-19.6875,0.828125
766,1727267332962,-0.14624023,-0.87457275,-0.04083252,2.6875,-24.421875,2.578125
767,1727267333006,0.017578125,-1.107727,-0.034484863,-0.4375,-1.859375,-2.671875
768,1727267333071,0.22680664,-0.8088989,0.03363037,4.0,5.234375,-7.203125
769,1727267333082,0.07397461,-0.7756958,0.07684326,13.015625,-4.546875,-0.703125
770,1727267333129,-0.025390625,-0.8286743,0.059265137,1.21875,-6.203125,4.0
771,1727267333157,-0.021484375,-0.83551025,0.04095459,5.828125,3.9375,1.453125
772,1727267333202,-0.016113281,-0.8596802,0.07879639,6.6875,7.453125,2.921875
773,1727267333248,-0.11694336,-0.9241333,0.085876465,3.859375,10.71875,-5.03125
