,Unnamed: 0,timestamp,accel_x,accel_y,accel_z,gyro_x,gyro_y,gyro_z
0,0,1727461647564,-0.24926758,-0.78448486,-0.034484863,-3.6875,-18.375,-0.171875
1,1,1727461647604,-0.33764648,-0.86016846,0.08416748,3.21875,-8.9375,4.59375
2,2,1727461647644,-0.21875,-0.9849243,0.17132568,8.109375,-20.59375,6.15625
3,3,1727461647684,-0.37280273,-1.0244751,0.20159912,-4.390625,-19.90625,4.875
4,4,1727461647724,-0.5957031,-1.0901489,0.15496826,-1.671875,-10.96875,0.984375
5,5,1727461647764,-0.22338867,-1.242981,0.16668701,-18.015625,-18.328125,0.84375
6,6,1727461647804,-0.17773438,-1.4541626,0.26727295,-22.609375,-7.828125,0.78125
7,7,1727461647844,-0.13085938,-1.2659302,-0.4036255,-29.546875,-39.828125,2.34375
8,8,1727461647884,0.44677734,-1.0630493,-0.14068604,3.125,-4.046875,-2.875
9,9,1727461647924,-0.3239746,-1.2732544,-0.15533447,-1.03125,0.34375,-5.421875
10,10,1727461647964,-0.1550293,-1.0115356,-0.003967285,10.96875,-3.828125,2.59375
11,11,1727461648004,-0.32421875,-0.8130493,-0.038146973,-18.265625,7.40625,-3.078125
12,12,1727461648044,-0.3190918,-0.64801025,-0.020080566,7.75,15.109375,6.296875
13,13,1727461648084,-0.072021484,-0.612854,0.12835693,4.5625,14.640625,5.296875
14,14,1727461648124,-0.16430664,-0.6836548,0.0770874,4.09375,13.78125,1.921875
15,15,1727461648164,-0.06567383,-0.75494385,0.17254639,-3.765625,10.71875,0.65625
16,16,1727461648204,-0.16723633,-0.7625122,0.2514038,-3.21875,6.6875,0.5625
17,17,1727461648244,-0.22314453,-0.87384033,0.12908936,0.140625,1.6875,0.0625
18,18,1727461648284,-0.27441406,-0.8648071,0.25506592,0.25,-3.03125,-3.53125
19,19,1727461648324,-0.045166016,-1.069397,0.121276855,1.734375,-21.015625,-3.234375
20,20,1727461648364,-0.4074707,-1.3272095,0.4105835,-7.59375,-24.46875,-7.109375
21,21,1727461648404,-0.6484375,-1.3528442,-0.0010375977,1.703125,-19.609375,-10.96875
22,22,1727461648444,-0.13696289,-1.3418579,-0.15435791,10.34375,-0.5625,13.328125
23,23,1727461648484,0.28173828,-1.3731079,-0.32037354,-0.109375,-4.5625,8.46875
24,24,1727461648524,-0.15844727,-1.163147,-0.108947754,-10.765625,7.0,2.921875
25,25,1727461648564,-0.20458984,-0.97662354,-0.03302002,-14.9375,-4.46875,-7.09375
26,26,1727461648604,0.13720703,-0.8726196,-0.008117676,2.390625,-1.796875,-6.4375
27,27,1727461648644,-0.1081543,-0.6404419,0.06121826,3.8125,-4.0625,-4.3125
28,28,1727461648684,-0.14404297,-0.58428955,-0.07501221,9.765625,-11.09375,0.90625
29,29,1727461648724,-0.12915039,-0.6878052,-0.04473877,10.046875,-16.890625,-1.703125
30,30,1727461648764,-0.39746094,-0.9024048,-0.03253174,-2.1875,-15.9375,2.015625
31,31,1727461648804,-0.32543945,-0.9248657,0.024597168,3.765625,-3.09375,5.984375
32,32,1727461648844,-0.4399414,-0.8435669,0.14520264,0.375,8.6875,3.625
33,33,1727461648884,-0.3449707,-0.7871704,0.18890381,6.625,20.53125,7.203125
34,34,1727461648924,-0.23071289,-0.99468994,0.10296631,-14.0625,1.3125,0.21875
35,35,1727461648964,-0.42871094,-1.0796509,0.031433105,-3.859375,16.984375,1.5625
36,36,1727461649004,-0.0703125,-1.260315,0.061706543,-10.46875,-14.0,-2.171875
37,37,1727461649044,-0.05883789,-1.4678345,0.1539917,-37.6875,-1.5,6.296875
38,38,1727461649084,-0.24438477,-1.2490845,-0.4961548,-21.859375,-47.5625,10.828125
39,39,1727461649124,0.40112305,-1.2276001,-0.03717041,18.71875,-23.484375,-2.28125
40,40,1727461649164,-0.328125,-1.1690063,-0.06939697,-1.796875,-15.890625,-5.625
41,41,1727461649204,-0.1640625,-0.96295166,-0.024719238,1.984375,-16.265625,-9.03125
42,42,1727461649244,-0.34106445,-0.9307251,-0.034240723,0.234375,-1.515625,0.875
43,43,1727461649284,-0.27368164,-0.67681885,0.002380371,7.84375,4.984375,5.859375
44,44,1727461649324,-0.059814453,-0.6123657,0.101989746,4.21875,3.015625,6.671875
45,45,1727461649364,-0.19702148,-0.71221924,0.070495605,0.203125,5.3125,1.3125
46,46,1727461649404,-0.14160156,-0.82769775,0.074645996,6.109375,8.40625,2.96875
47,47,1727461649444,-0.020751953,-0.8345337,0.14642334,2.78125,-1.09375,0.46875
48,48,1727461649484,-0.18359375,-0.85821533,0.20770264,-0.453125,-4.1875,-1.328125
49,49,1727461649524,-0.33666992,-0.89727783,0.18182373,6.28125,3.21875,0.703125
50,50,1727461649564,-0.33276367,-0.960022,0.14178467,3.4375,13.515625,-4.375
51,51,1727461649604,-0.0234375,-1.1421509,0.22821045,3.578125,-6.109375,-1.484375
52,52,1727461649644,-0.54174805,-1.4182739,0.13421631,-11.5,11.859375,-9.125
53,53,1727461649684,-0.33935547,-1.255188,0.026062012,12.140625,-6.96875,9.78125
54,54,1727461649724,0.18457031,-1.253479,-0.21783447,7.0,-7.03125,9.96875
55,55,1727461649764,-0.032714844,-1.2835083,-0.3352661,-1.640625,4.734375,4.171875
56,56,1727461649804,-0.122802734,-1.0425415,-0.13800049,-4.421875,-4.40625,4.28125
57,57,1727461649844,0.01586914,-0.9380493,-0.097961426,-4.5,-3.09375,-4.3125
58,58,1727461649884,-0.14648438,-0.8538208,0.01361084,-3.0625,-3.40625,-10.6875
59,59,1727461649924,-0.17529297,-0.8076782,0.0067749023,-3.609375,-7.484375,-5.0
60,60,1727461649964,-0.11816406,-0.6411743,-0.078186035,0.375,-12.15625,-0.5625
61,61,1727461650004,-0.059326172,-0.72857666,-0.09942627,8.234375,-25.375,-5.390625
62,62,1727461650044,-0.33862305,-0.8933716,-0.078430176,-4.5625,-23.046875,-5.640625
63,63,1727461650084,-0.28198242,-0.8694458,0.015563965,4.84375,-18.453125,3.40625
64,64,1727461650124,-0.3125,-0.84088135,0.0758667,0.5,-16.265625,0.1875
65,65,1727461650164,-0.4506836,-0.85406494,0.11077881,6.359375,-8.9375,-1.671875
66,66,1727461650204,-0.41479492,-0.9204712,0.059509277,-8.65625,-1.453125,-0.375
67,67,1727461650244,-0.2788086,-1.0838013,-0.057922363,2.8125,1.515625,1.671875
68,68,1727461650284,-0.15478516,-1.1611938,0.1852417,-3.5625,-12.890625,-3.171875
69,69,1727461650324,-0.34887695,-1.3943481,0.2345581,-42.390625,-32.828125,-10.234375
70,70,1727461650364,-0.4423828,-1.2380981,-0.29229736,-62.453125,-33.625,-2.09375
71,71,1727461650404,0.033447266,-1.2095337,-0.21417236,-22.140625,-16.1875,-0.796875
72,72,1727461650444,0.12695312,-1.0996704,0.07537842,11.765625,-0.03125,-3.234375
73,73,1727461650484,-0.5161133,-1.1397095,-0.047912598,-1.875,-1.140625,1.109375
74,74,1727461650524,-0.03564453,-0.94000244,0.074157715,-6.53125,7.390625,2.640625
75,75,1727461650564,-0.49731445,-0.87628174,-0.018615723,-10.765625,12.859375,-1.125
76,76,1727461650604,-0.118896484,-0.6939087,0.026062012,1.796875,25.53125,7.71875
77,77,1727461650644,-0.04638672,-0.7178345,0.13739014,1.078125,18.4375,4.328125
78,78,1727461650684,-0.19946289,-0.74224854,0.15350342,-4.84375,8.4375,1.421875
79,79,1727461650724,-0.13964844,-0.7761841,0.16986084,-2.28125,11.0625,3.4375
80,80,1727461650764,-0.1430664,-0.8123169,0.25286865,1.984375,3.4375,1.09375
81,81,1727461650804,-0.22998047,-0.8557739,0.24432373,3.734375,2.28125,-0.34375
82,82,1727461650844,-0.29882812,-0.8623657,0.2609253,5.703125,-1.890625,-4.0625
83,83,1727461650884,-0.22387695,-0.94976807,0.2230835,10.1875,-0.78125,-2.140625
84,84,1727461650924,-0.10913086,-1.0828247,0.27288818,-2.4375,-10.34375,-5.84375
85,85,1727461650964,-0.83740234,-1.3215942,0.35736084,6.5625,0.640625,-13.9375
86,86,1727461651004,-0.3017578,-1.3477173,-0.022277832,-7.953125,-20.171875,-8.859375
87,87,1727461651044,0.08203125,-1.3569946,-0.14361572,-6.484375,6.046875,-3.78125
88,88,1727461651084,-0.022705078,-1.2842407,-0.23614502,-6.8125,8.296875,7.703125
89,89,1727461651124,-0.19238281,-0.8777466,0.066345215,-0.53125,21.34375,-0.984375
90,90,1727461651164,-0.22924805,-0.8340454,0.06390381,-3.40625,7.515625,-1.5
91,91,1727461651204,0.011474609,-0.84552,0.029968262,3.03125,4.015625,-2.0
92,92,1727461651244,-0.13793945,-0.7293091,0.04852295,2.140625,-1.21875,0.546875
93,93,1727461651284,-0.23291016,-0.74053955,0.04144287,4.15625,-10.734375,4.296875
94,94,1727461651324,-0.12817383,-0.8196411,-0.041809082,5.0,-16.71875,5.875
95,95,1727461651364,-0.3137207,-0.8743286,0.03656006,9.703125,-12.3125,3.53125
96,96,1727461651404,-0.39990234,-0.8640747,0.094177246,16.546875,-5.234375,6.9375
97,97,1727461651444,-0.29541016,-0.7979126,0.13470459,8.953125,1.0625,5.171875
98,98,1727461651484,-0.25952148,-0.8399048,0.120788574,0.375,-9.359375,3.84375
99,99,1727461651524,-0.37329102,-0.9734497,0.12420654,-2.765625,-14.109375,4.25
100,100,1727461651564,-0.40234375,-1.1531372,0.11834717,-0.578125,-3.90625,5.390625
101,101,1727461651604,-0.30932617,-1.3638306,0.32562256,-4.4375,1.171875,1.953125
102,102,1727461651644,-0.3984375,-1.4714966,0.23968506,-23.6875,-20.046875,0.078125
103,103,1727461651684,-0.30786133,-1.229065,-0.19586182,-28.0625,-29.578125,4.453125
104,104,1727461651724,0.052001953,-1.0730591,-0.17877197,-14.09375,-22.875,1.40625
105,105,1727461651764,0.20776367,-1.0371704,0.049743652,-0.46875,-7.78125,-0.96875
106,106,1727461651804,-0.42651367,-0.9619751,0.0289917,-2.8125,-3.609375,-1.875
107,107,1727461651844,-0.068603516,-0.9668579,0.07489014,-4.65625,0.09375,-2.3125
108,108,1727461651884,-0.3605957,-0.8687134,-0.08526611,2.453125,13.3125,-3.53125
109,109,1727461651924,-0.11645508,-0.75079346,0.028015137,7.65625,8.078125,10.71875
110,110,1727461651964,-0.092041016,-0.79400635,0.17010498,8.578125,8.578125,3.5
111,111,1727461652004,-0.18261719,-0.7637329,0.08270264,13.140625,7.78125,7.6875
112,112,1727461652044,-0.080322266,-0.76397705,0.10101318,6.59375,5.5,5.328125
113,113,1727461652084,-0.22216797,-0.76226807,0.16351318,12.640625,11.609375,3.375
114,114,1727461652124,-0.28393555,-0.85650635,0.13372803,19.0625,17.859375,7.109375
115,115,1727461652164,-0.21948242,-0.9194946,0.11395264,18.34375,16.421875,2.84375
116,116,1727461652204,-0.13549805,-1.166565,0.14007568,7.453125,13.234375,-0.03125
117,117,1727461652244,-0.26611328,-1.2791138,0.2526245,1.34375,6.421875,-1.375
118,118,1727461652284,-0.45825195,-1.2761841,0.28338623,7.703125,14.375,-2.53125
119,119,1727461652324,-0.3269043,-1.3001099,-0.0256958,5.40625,-4.078125,-3.828125
120,120,1727461652364,0.22973633,-1.0899048,-0.20147705,8.015625,-0.734375,6.484375
121,121,1727461652404,-0.12670898,-1.1074829,-0.3760376,5.03125,3.328125,-12.859375
122,122,1727461652444,-0.043701172,-1.1868286,-0.26080322,0.59375,11.21875,-8.015625
123,123,1727461652484,-0.18383789,-1.0110474,-0.14215088,-8.328125,2.890625,-7.765625
124,124,1727461652524,-0.07861328,-0.81817627,-0.051574707,8.734375,15.03125,-6.6875
125,125,1727461652564,-0.06689453,-0.69976807,-0.032287598,4.875,11.421875,-7.46875
126,126,1727461652604,-0.1394043,-0.63482666,-0.066467285,5.875,6.09375,0.5
127,127,1727461652644,-0.18017578,-0.6421509,-0.12310791,7.90625,-4.203125,-0.8125
128,128,1727461652684,-0.26342773,-0.7979126,-0.070129395,2.125,-4.390625,-0.375
129,129,1727461652724,-0.28686523,-0.79278564,-0.14849854,2.859375,-2.9375,5.109375
130,130,1727461652764,-0.26538086,-0.862854,-0.070373535,-9.640625,-11.984375,3.4375
131,131,1727461652804,-0.41503906,-0.93170166,0.09320068,-9.171875,-3.984375,2.515625
132,132,1727461652844,-0.42895508,-1.0029907,0.14569092,-1.09375,-3.890625,6.3125
133,133,1727461652884,-0.3251953,-1.1746216,0.008239746,-1.421875,11.796875,6.09375
134,134,1727461652924,-0.2578125,-1.4026489,0.2164917,-0.875,-8.40625,-2.15625
135,135,1727461652964,-0.51586914,-1.4702759,0.31878662,-28.46875,-7.921875,-3.109375
136,136,1727461653004,-0.4116211,-1.171936,-0.39385986,-27.28125,-12.484375,9.90625
137,137,1727461653044,0.20458984,-1.019104,-0.23468018,4.328125,-25.265625,5.859375
138,138,1727461653084,0.46435547,-1.1863403,-0.17510986,7.34375,0.921875,3.59375
139,139,1727461653124,-0.66308594,-0.96881104,-0.16070557,-7.03125,0.9375,-5.484375
140,140,1727461653164,0.122558594,-0.9898071,-0.05206299,2.5625,-5.21875,0.5625
141,141,1727461653204,-0.25341797,-0.8897095,-0.12261963,-29.078125,7.953125,-6.0625
142,142,1727461653244,-0.20385742,-0.65875244,-0.06744385,-7.78125,4.6875,4.359375
143,143,1727461653284,-0.040527344,-0.7095337,0.06756592,-9.6875,0.765625,2.25
144,144,1727461653324,-0.19897461,-0.74102783,0.11077881,-7.53125,3.75,5.390625
145,145,1727461653364,-0.114746094,-0.75982666,0.13641357,-7.625,-3.28125,2.359375
146,146,1727461653404,-0.15283203,-0.7998657,0.17401123,-0.546875,4.984375,6.125
147,147,1727461653444,-0.16918945,-0.8233032,0.25457764,4.5,0.65625,-0.4375
148,148,1727461653484,-0.25610352,-0.94781494,0.2423706,3.5625,1.0625,-3.375
149,149,1727461653524,-0.13500977,-1.11969,0.15618896,-1.671875,-8.3125,3.359375
150,150,1727461653564,-0.24780273,-1.2141724,0.35931396,-1.703125,-14.046875,-1.71875
151,151,1727461653604,-0.7553711,-1.43927,0.17230225,0.234375,-6.328125,-8.109375
152,152,1727461653644,0.025634766,-1.3284302,0.016296387,5.625,-12.109375,3.109375
153,153,1727461653684,-0.006591797,-1.1641235,-0.20831299,6.03125,-13.9375,0.25
154,154,1727461653724,0.07910156,-1.2024536,-0.31988525,-7.140625,-1.375,-3.453125
155,155,1727461653764,-0.08325195,-1.0327759,-0.11798096,-8.359375,12.3125,-2.96875
156,156,1727461653804,-0.15112305,-0.8633423,0.05291748,-9.859375,2.25,-4.3125
157,157,1727461653844,-0.13354492,-0.84210205,0.06878662,-2.875,12.953125,-9.5625
158,158,1727461653884,-0.14086914,-0.642395,0.026062012,-1.234375,14.09375,-3.625
159,159,1727461653924,-0.123291016,-0.6194458,0.035095215,4.5,10.25,-2.03125
160,160,1727461653964,-0.20336914,-0.78009033,0.01776123,5.171875,1.890625,-3.3125
161,161,1727461654004,-0.24414062,-0.8428345,0.0060424805,2.1875,-10.8125,-0.09375
162,162,1727461654044,-0.22827148,-0.8442993,0.04559326,14.140625,-6.4375,4.28125
163,163,1727461654084,-0.32592773,-0.8496704,0.13446045,17.65625,2.796875,7.09375
164,164,1727461654124,-0.3076172,-0.9143677,0.17230225,18.453125,-3.453125,4.390625
165,165,1727461654164,-0.3557129,-1.0542603,0.074645996,0.78125,-6.125,5.46875
166,166,1727461654204,-0.41870117,-1.2810669,0.023620605,4.765625,-0.765625,4.28125
167,167,1727461654244,-0.33618164,-1.3804321,0.25408936,2.09375,-7.21875,0.34375
168,168,1727461654284,-0.38500977,-1.4168091,0.24432373,-33.171875,-19.875,-8.515625
169,169,1727461654324,-0.34887695,-0.94781494,-0.42388916,-34.59375,-37.390625,15.28125
170,170,1727461654364,0.53881836,-1.1118774,-0.17706299,-3.59375,-5.3125,-4.453125
171,171,1727461654404,-0.005126953,-1.2485962,0.023132324,-3.78125,10.953125,-12.46875
172,172,1727461654444,-0.44018555,-0.93756104,-0.10357666,6.796875,-3.265625,-8.40625
173,173,1727461654484,0.020019531,-0.9729614,0.05731201,-12.71875,3.578125,-3.1875
174,174,1727461654524,-0.359375,-0.7305298,-0.10479736,1.78125,10.671875,-2.484375
175,175,1727461654564,-0.068847656,-0.62701416,0.013122559,9.109375,11.25,11.265625
176,176,1727461654604,-0.13427734,-0.68878174,0.09979248,7.640625,12.65625,3.03125
177,177,1727461654644,-0.12573242,-0.6831665,0.050964355,7.421875,13.0625,5.625
178,178,1727461654684,-0.16748047,-0.78741455,0.13812256,7.921875,12.484375,-0.625
179,179,1727461654724,-0.1418457,-0.89678955,0.20257568,2.125,2.859375,-1.890625
180,180,1727461654764,-0.29467773,-0.940979,0.18548584,1.84375,-1.203125,-6.4375
181,181,1727461654804,-0.38745117,-1.0144653,0.16156006,1.3125,4.921875,-3.328125
182,182,1727461654844,0.068603516,-1.2720337,0.18133545,2.78125,-17.015625,0.484375
183,183,1727461654884,-0.77734375,-1.291565,0.28729248,-7.875,4.859375,-8.890625
184,184,1727461654924,-0.6333008,-1.2820435,-0.08477783,-6.28125,6.484375,8.328125
185,185,1727461654964,0.27783203,-1.154602,-0.2769165,1.421875,8.96875,8.875
186,186,1727461655004,0.14526367,-1.3132935,-0.4192505,-1.828125,12.09375,-1.609375
187,187,1727461655044,-0.11279297,-1.1375122,-0.105773926,1.0625,9.796875,6.296875
188,188,1727461655084,-0.13549805,-0.8826294,0.008239746,1.03125,2.96875,-6.703125
189,189,1727461655124,-0.15673828,-0.83062744,0.018249512,10.0,15.390625,-4.859375
190,190,1727461655164,-0.05126953,-0.6831665,0.05657959,12.75,10.8125,-2.359375
191,191,1727461655204,-0.18798828,-0.66241455,-0.01373291,6.984375,1.625,-2.46875
192,192,1727461655244,-0.24951172,-0.71588135,0.0006713867,9.34375,-3.640625,0.453125
193,193,1727461655284,-0.29077148,-0.8587036,-0.040100098,-1.890625,-10.5,0.59375
194,194,1727461655324,-0.18017578,-0.8128052,-0.12677002,10.765625,4.453125,4.640625
195,195,1727461655364,-0.3232422,-0.8179321,0.07318115,6.515625,-5.734375,6.75
196,196,1727461655404,-0.390625,-0.9500122,0.1251831,9.921875,-2.640625,4.0625
197,197,1727461655444,-0.36645508,-1.038147,0.028259277,-4.25,1.953125,6.5625
198,198,1727461655484,-0.3647461,-1.217102,-0.004699707,5.046875,12.890625,3.265625
199,199,1727461655524,-0.24316406,-1.3606567,0.0993042,-2.875,-5.0625,-0.84375
200,200,1727461655564,-0.5192871,-1.2505493,0.019714355,-27.65625,-3.21875,-1.046875
201,201,1727461655604,-0.03857422,-1.2424927,-0.5630493,-4.140625,-15.6875,7.421875
202,202,1727461655644,0.61035156,-1.2490845,-0.17144775,7.125,-11.78125,-2.5625
203,203,1727461655684,-0.33642578,-0.98809814,-0.15142822,-8.671875,-7.359375,4.578125
204,204,1727461655724,-0.18432617,-0.96588135,-0.07989502,-0.875,-14.265625,-4.96875
205,205,1727461655764,-0.1706543,-0.9480591,-0.097717285,-10.453125,-0.65625,-2.703125
206,206,1727461655804,-0.24487305,-0.75445557,-0.101135254,5.59375,5.28125,-1.921875
207,207,1727461655844,-0.07348633,-0.72052,0.04827881,0.109375,-0.484375,5.84375
208,208,1727461655884,-0.17675781,-0.7280884,0.010925293,-8.0625,2.9375,0.03125
209,209,1727461655924,-0.12573242,-0.70391846,0.06439209,-12.109375,-0.78125,3.671875
210,210,1727461655964,-0.07543945,-0.8118286,0.07952881,-8.296875,0.765625,-2.921875
211,211,1727461656004,-0.16992188,-0.82769775,0.17718506,-4.96875,-4.0625,0.984375
212,212,1727461656044,-0.27416992,-0.90338135,0.13787842,5.015625,-1.3125,-2.15625
213,213,1727461656084,-0.32739258,-0.9505005,0.17816162,4.390625,2.0,-1.0
214,214,1727461656124,0.045654297,-1.1172485,0.098083496,8.1875,-13.25,-0.484375
215,215,1727461656164,-0.37182617,-1.3657837,0.36834717,0.34375,5.078125,-4.046875
216,216,1727461656204,-0.8256836,-1.2693481,-0.05328369,10.3125,-27.265625,-3.78125
217,217,1727461656244,0.3491211,-1.3706665,-0.33184814,5.234375,-7.75,14.484375
218,218,1727461656284,0.14990234,-1.2537231,-0.30303955,-10.921875,2.75,-5.0
219,219,1727461656324,-0.4423828,-1.1050415,-0.23883057,-8.90625,20.8125,-2.640625
220,220,1727461656364,-0.115478516,-0.95440674,-0.09088135,-1.578125,14.609375,1.5
221,221,1727461656404,0.001953125,-0.7288208,0.066345215,-6.140625,17.109375,-6.765625
222,222,1727461656444,-0.20874023,-0.68170166,0.029968262,-9.96875,14.609375,-9.796875
223,223,1727461656484,-0.13354492,-0.62823486,-0.08306885,-5.015625,2.90625,-1.625
224,224,1727461656524,-0.109375,-0.6748657,-0.011047363,2.78125,-9.171875,-3.75
225,225,1727461656564,-0.3400879,-0.8171997,-0.0725708,5.390625,-5.21875,-0.265625
226,226,1727461656604,-0.2705078,-0.8538208,0.04852295,14.3125,-0.96875,7.46875
227,227,1727461656644,-0.29785156,-0.8826294,0.06072998,9.109375,-2.265625,5.53125
228,228,1727461656684,-0.32495117,-0.9487915,0.16229248,8.859375,-8.484375,5.0625
229,229,1727461656724,-0.3005371,-1.0901489,0.07904053,-3.171875,-13.140625,1.3125
230,230,1727461656764,-0.4716797,-1.1880493,0.031433105,1.734375,2.265625,4.8125
231,231,1727461656804,-0.42016602,-1.3823853,0.030456543,6.1875,-8.21875,-5.8125
232,232,1727461656844,-0.4580078,-1.3045044,0.06463623,-13.296875,12.265625,0.28125
233,233,1727461656884,-0.038085938,-1.0647583,-0.45587158,-20.03125,-4.703125,4.0
234,234,1727461656924,0.5695801,-1.0952759,-0.32061768,7.171875,4.921875,2.1875
235,235,1727461656964,-0.32861328,-1.1773071,-0.0115356445,-12.671875,12.3125,-5.3125
236,236,1727461657004,-0.0925293,-0.9976196,-0.10211182,-1.484375,-10.21875,-2.625
237,237,1727461657044,-0.3022461,-0.99102783,-0.07940674,-18.078125,14.25,0.5625
238,238,1727461657084,-0.27416992,-0.7944946,-0.089904785,-0.125,21.125,-0.75
239,239,1727461657124,-0.07104492,-0.6592407,0.0680542,-0.296875,7.1875,1.203125
240,240,1727461657164,-0.119140625,-0.6651001,0.070251465,-3.75,5.03125,6.265625
241,241,1727461657204,-0.16992188,-0.67559814,0.050231934,2.515625,10.875,3.734375
242,242,1727461657244,-0.103759766,-0.7373657,0.066589355,1.984375,2.46875,4.671875
243,243,1727461657284,-0.17553711,-0.83428955,0.14520264,2.71875,-0.515625,2.359375
244,244,1727461657324,-0.31176758,-0.94976807,0.20794678,3.1875,3.421875,-1.5
245,245,1727461657364,-0.12573242,-1.065979,0.06536865,5.0625,-1.6875,-1.5
246,246,1727461657404,-0.060302734,-1.326477,0.3937378,-8.578125,-16.6875,-2.375
247,247,1727461657444,-0.7207031,-1.4456177,0.14178467,5.109375,-8.125,-14.65625
248,248,1727461657484,-0.23266602,-1.2554321,-0.00079345703,-2.296875,0.03125,-2.59375
249,249,1727461657524,-0.2121582,-1.0991821,-0.23272705,9.46875,6.203125,8.0625
250,250,1727461657564,0.17651367,-1.2080688,-0.4451294,6.71875,14.609375,2.921875
251,251,1727461657604,-0.10913086,-1.0466919,-0.09576416,4.484375,12.546875,1.5625
252,252,1727461657644,-0.17700195,-0.89630127,-0.014221191,-3.359375,4.171875,-4.3125
253,253,1727461657684,-0.05517578,-0.76519775,-0.030090332,6.4375,15.1875,-3.828125
254,254,1727461657724,-0.07836914,-0.6321411,-0.0076293945,7.609375,5.390625,-2.6875
255,255,1727461657764,-0.14916992,-0.65875244,-0.073791504,5.90625,-8.859375,-2.296875
256,256,1727461657804,-0.18139648,-0.77301025,-0.06402588,4.671875,-17.3125,-1.5
257,257,1727461657844,-0.30737305,-0.8760376,-0.090148926,3.484375,-11.3125,0.671875
258,258,1727461657884,-0.3059082,-0.8591919,-0.030090332,7.484375,-6.609375,3.21875
259,259,1727461657924,-0.3269043,-0.87213135,0.113464355,9.953125,-5.1875,3.25
260,260,1727461657964,-0.33032227,-1.0042114,0.07611084,-0.53125,-3.625,7.71875
261,261,1727461658004,-0.3371582,-1.1472778,0.008972168,-0.875,-5.5,3.375
262,262,1727461658044,-0.4736328,-1.232727,0.07220459,-7.28125,15.15625,1.265625
263,263,1727461658084,-0.3178711,-1.2774048,-0.090148926,-19.984375,-3.5,-0.984375
264,264,1727461658124,-0.24902344,-1.3064575,-0.021057129,-41.453125,-4.984375,8.453125
265,265,1727461658164,0.09863281,-1.0061646,-0.37921143,0.828125,-9.78125,4.671875
266,266,1727461658204,0.3479004,-1.2520142,-0.20611572,9.21875,-4.359375,-3.828125
267,267,1727461658244,-0.3076172,-0.986145,-0.14727783,2.640625,-5.625,-0.40625
268,268,1727461658284,0.115722656,-0.972229,-0.019592285,-6.203125,-13.953125,-5.71875
269,269,1727461658324,-0.40576172,-0.89263916,-0.105773926,-11.734375,-3.234375,-5.703125
270,270,1727461658364,-0.2590332,-0.6741333,-0.020568848,5.890625,2.40625,9.0
271,271,1727461658404,-0.01977539,-0.7366333,0.051452637,-4.234375,3.515625,1.484375
272,272,1727461658444,-0.24902344,-0.7527466,0.06121826,-1.640625,9.8125,0.140625
273,273,1727461658484,-0.07739258,-0.7334595,0.09442139,5.6875,10.75,-0.890625
274,274,1727461658524,-0.12646484,-0.78912354,0.13446045,1.703125,3.375,-6.265625
275,275,1727461658564,-0.2290039,-0.831604,0.1317749,2.71875,5.0,-4.75
276,276,1727461658604,-0.31860352,-0.9187622,0.18377686,9.15625,8.375,-3.59375
277,277,1727461658644,-0.12719727,-1.0339966,0.10003662,2.875,6.953125,-6.734375
278,278,1727461658684,-0.07763672,-1.140686,0.34588623,-3.03125,-11.625,-4.1875
279,279,1727461658724,-0.7800293,-1.4341431,0.06756592,-12.859375,6.203125,-14.359375
280,280,1727461658764,-0.2253418,-1.3225708,-0.06500244,14.734375,0.1875,7.359375
281,281,1727461658804,0.13989258,-1.4251099,-0.41778564,14.671875,5.234375,2.078125
282,282,1727461658844,0.103759766,-1.140686,-0.2546997,-2.015625,3.9375,6.890625
283,283,1727461658884,-0.34716797,-0.86602783,-0.09698486,-4.390625,-1.84375,2.78125
284,284,1727461658924,-0.09448242,-0.8452759,-0.10284424,0.453125,-5.625,-5.46875
285,285,1727461658964,-0.0546875,-0.87872314,-0.013244629,-13.8125,-11.40625,-5.9375
286,286,1727461659004,-0.15332031,-0.7539673,-0.022766113,-18.0,-16.75,-1.828125
287,287,1727461659044,-0.21044922,-0.7078247,0.022888184,-11.46875,-15.359375,-2.21875
288,288,1727461659084,-0.20336914,-0.7756958,-0.0037231445,-15.25,-20.75,-4.609375
289,289,1727461659124,-0.2368164,-0.84869385,0.027770996,-17.078125,-20.859375,-6.40625
290,290,1727461659164,-0.26708984,-0.8357544,0.077819824,3.859375,-9.515625,5.59375
291,291,1727461659204,-0.48632812,-0.7781372,0.16351318,-1.53125,-7.703125,6.15625
292,292,1727461659244,-0.4580078,-0.8731079,0.24749756,9.25,-3.03125,1.96875
293,293,1727461659284,-0.34399414,-1.0442505,0.10028076,-6.25,-7.046875,1.234375
294,294,1727461659324,-0.3359375,-1.1414185,0.1798706,-2.359375,-3.140625,5.546875
295,295,1727461659364,-0.25463867,-1.3447876,0.04095459,-15.453125,-50.03125,-1.546875
296,296,1727461659404,-0.3894043,-1.4556274,0.023620605,-36.65625,-24.140625,1.03125
297,297,1727461659444,0.115722656,-1.1755981,-0.29522705,-19.71875,-24.59375,3.046875
298,298,1727461659484,0.23266602,-1.1575317,-0.0025024414,15.453125,-0.28125,-2.109375
299,299,1727461659524,-0.55322266,-1.1348267,-0.019836426,-7.28125,1.578125,-3.875
300,300,1727461659564,-0.1796875,-1.0151978,0.054382324,-9.78125,11.84375,-5.8125
301,301,1727461659604,-0.34228516,-0.80255127,-0.02178955,-5.734375,20.0,-2.984375
302,302,1727461659644,-0.25634766,-0.68634033,0.07684326,2.859375,25.328125,1.5625
303,303,1727461659684,-0.14086914,-0.6873169,0.10736084,2.421875,18.65625,2.53125
304,304,1727461659724,-0.16967773,-0.70391846,0.11981201,1.609375,21.796875,-0.515625
305,305,1727461659764,-0.10424805,-0.74346924,0.21868896,4.421875,16.734375,0.546875
306,306,1727461659804,-0.19946289,-0.7112427,0.2062378,6.9375,16.03125,-0.390625
307,307,1727461659844,-0.32958984,-0.8328247,0.21795654,9.734375,10.21875,-1.875
308,308,1727461659884,-0.21118164,-0.99005127,0.2662964,5.484375,15.171875,-6.71875
309,309,1727461659924,0.08105469,-1.0545044,0.18133545,-1.84375,-7.359375,-1.53125
310,310,1727461659964,-0.62768555,-1.260315,0.57366943,-16.78125,1.734375,-8.40625
311,311,1727461660004,-0.51342773,-1.2984009,0.03729248,-8.0,-15.703125,-4.5625
312,312,1727461660044,-0.10913086,-1.2964478,-0.0037231445,-5.15625,17.46875,2.34375
313,313,1727461660084,0.039794922,-1.3511353,-0.27520752,-8.328125,-0.9375,6.046875
314,314,1727461660124,-0.15234375,-1.0535278,-0.07476807,-7.1875,8.453125,4.734375
315,315,1727461660164,-0.16601562,-0.9216919,0.113464355,7.203125,-11.171875,0.234375
316,316,1727461660204,-0.014892578,-0.8904419,0.066589355,7.046875,-11.859375,-1.9375
317,317,1727461660244,-0.20336914,-0.7522583,0.10491943,8.96875,-6.046875,0.40625
318,318,1727461660284,-0.24829102,-0.6758423,0.01776123,3.75,-13.015625,4.859375
319,319,1727461660324,-0.26293945,-0.77789307,0.021911621,-1.59375,-16.46875,1.765625
320,320,1727461660364,-0.35546875,-0.802063,0.10223389,-0.25,-13.4375,1.1875
321,321,1727461660404,-0.24267578,-0.79571533,-0.0037231445,-8.109375,-10.265625,5.359375
322,322,1727461660444,-0.3581543,-0.9026489,0.23529053,1.109375,-1.171875,5.453125
323,323,1727461660484,-0.32006836,-0.8530884,0.24700928,2.921875,-3.0,11.265625
324,324,1727461660524,-0.3215332,-0.9314575,0.2074585,-8.765625,-13.390625,3.578125
325,325,1727461660564,-0.5358887,-1.0442505,0.20184326,-1.90625,0.984375,4.359375
326,326,1727461660604,-0.3022461,-1.2561646,0.34222412,-7.25,-4.109375,-0.921875
327,327,1727461660644,-0.30566406,-1.4011841,0.3678589,-17.484375,1.15625,-5.328125
328,328,1727461660684,-0.09350586,-1.1387329,-0.23516846,-21.34375,-31.375,4.453125
329,329,1727461660724,0.26000977,-1.1731567,0.038024902,2.40625,-2.265625,-4.234375
330,330,1727461660764,-0.3173828,-1.1851196,0.035827637,6.6875,4.65625,-6.953125
331,331,1727461660804,-0.1665039,-1.0396118,0.061950684,10.671875,-2.59375,0.484375
332,332,1727461660844,-0.2626953,-0.9866333,0.059753418,-7.3125,7.21875,-6.3125
333,333,1727461660884,-0.33813477,-0.710022,-0.03692627,8.59375,20.859375,0.90625
334,334,1727461660924,-0.12524414,-0.6812134,0.07659912,5.109375,24.65625,7.40625
335,335,1727461660964,-0.11791992,-0.7149048,0.12005615,8.03125,11.125,0.671875
336,336,1727461661004,-0.099609375,-0.72540283,0.11248779,4.734375,13.859375,2.5625
337,337,1727461661044,-0.13452148,-0.76641846,0.20257568,10.21875,2.0,-0.625
338,338,1727461661084,-0.26513672,-0.81256104,0.24725342,8.796875,3.375,-2.171875
339,339,1727461661124,-0.40063477,-0.92266846,0.26190186,5.546875,6.734375,-5.265625
340,340,1727461661164,-0.1899414,-0.94976807,0.12420654,8.546875,4.15625,-4.9375
341,341,1727461661204,0.20043945,-1.2254028,0.38153076,-7.5625,-16.90625,-3.84375
342,342,1727461661244,-0.9223633,-1.3496704,0.27386475,1.421875,9.921875,-9.0
343,343,1727461661284,-0.48388672,-1.2837524,0.0006713867,-5.359375,-8.3125,11.53125
344,344,1727461661324,0.29956055,-1.2988892,-0.21783447,0.0,-2.9375,2.0625
345,345,1727461661364,-0.29736328,-1.3257446,-0.15875244,-8.484375,15.875,-0.34375
346,346,1727461661404,-0.28808594,-0.98516846,-0.10479736,3.109375,9.5,3.5625
347,347,1727461661444,0.1015625,-0.850647,0.042907715,5.90625,-5.3125,-2.984375
348,348,1727461661484,-0.1850586,-0.7984009,0.05633545,4.4375,9.09375,-7.625
349,349,1727461661524,-0.22729492,-0.6897583,0.016296387,11.453125,5.09375,1.8125
350,350,1727461661564,-0.12451172,-0.64434814,0.027282715,13.390625,-9.0625,0.40625
351,351,1727461661604,-0.2097168,-0.8023071,-0.054748535,-2.234375,-8.984375,-1.96875
352,352,1727461661644,-0.28588867,-0.8633423,-0.0032348633,5.484375,-8.171875,0.8125
353,353,1727461661684,-0.33642578,-0.8965454,0.04901123,-2.28125,-2.84375,1.6875
354,354,1727461661724,-0.38232422,-0.84698486,0.1671753,4.609375,1.640625,3.671875
355,355,1727461661764,-0.4182129,-0.9002075,0.19256592,-1.828125,2.609375,2.5625
356,356,1727461661804,-0.33496094,-0.9834595,0.14398193,-5.140625,-3.1875,2.84375
357,357,1727461661844,-0.38745117,-1.0962524,0.12347412,-5.59375,10.828125,5.21875
358,358,1727461661884,-0.12548828,-1.3633423,0.07269287,-8.03125,-17.78125,2.0625
359,359,1727461661924,-0.27124023,-1.4077759,0.03778076,-28.171875,-5.953125,3.8125
360,360,1727461661964,-0.021972656,-1.166565,-0.20367432,-23.28125,-36.8125,17.234375
361,361,1727461662004,0.24145508,-1.1465454,-0.0025024414,4.109375,-19.3125,-8.34375
362,362,1727461662044,-0.6057129,-1.149231,-0.024230957,2.265625,-8.90625,0.234375
363,363,1727461662084,0.015625,-0.9512329,0.019714355,-2.71875,-8.078125,-5.390625
364,364,1727461662124,-0.32299805,-0.87677,-0.02178955,-5.84375,4.171875,-1.15625
365,365,1727461662164,-0.25708008,-0.68170166,0.074157715,1.125,10.1875,1.40625
366,366,1727461662204,-0.13549805,-0.68585205,0.06878662,6.328125,13.75,6.5
367,367,1727461662244,-0.20678711,-0.737854,0.093933105,6.953125,17.8125,3.1875
368,368,1727461662284,-0.1809082,-0.8413696,0.093933105,4.359375,23.890625,0.390625
369,369,1727461662324,-0.07446289,-0.78912354,0.22039795,2.46875,13.46875,-2.53125
370,370,1727461662364,-0.24291992,-0.815979,0.30926514,2.15625,12.078125,-5.1875
371,371,1727461662404,-0.33764648,-0.88775635,0.22283936,7.953125,9.203125,-6.796875
372,372,1727461662444,-0.044677734,-0.9920044,0.109802246,7.140625,4.859375,-2.25
373,373,1727461662484,-0.04663086,-1.08844,0.34417725,-4.3125,-13.015625,0.46875
374,374,1727461662524,-0.74658203,-1.31427,0.22357178,-0.96875,2.625,-10.578125
375,375,1727461662564,-0.21655273,-1.3399048,0.024353027,2.671875,-2.484375,3.234375
376,376,1727461662604,-0.037353516,-1.3901978,-0.23931885,3.375,4.234375,6.71875
377,377,1727461662644,-0.06762695,-1.2271118,-0.105041504,-6.265625,8.78125,5.734375
378,378,1727461662684,-0.2397461,-0.9378052,-0.10797119,-0.171875,-2.75,1.0
379,379,1727461662724,-0.052490234,-0.92266846,0.0065307617,2.78125,-2.921875,-3.21875
380,380,1727461662764,-0.11987305,-0.8130493,0.08734131,1.28125,-0.390625,-4.734375
381,381,1727461662804,-0.1418457,-0.72198486,0.04119873,-1.484375,-8.0625,-5.28125
382,382,1727461662844,-0.14990234,-0.71881104,-0.027404785,-6.578125,-20.359375,0.859375
383,383,1727461662884,-0.20483398,-0.7930298,-0.003479004,-0.703125,-18.671875,-2.5
384,384,1727461662924,-0.38305664,-0.89801025,0.06121826,-2.578125,-13.796875,2.078125
385,385,1727461662964,-0.36889648,-0.81427,0.101257324,-1.890625,-9.796875,0.203125
386,386,1727461663004,-0.32958984,-0.74664307,0.19134521,-4.609375,0.671875,0.78125
387,387,1727461663044,-0.3347168,-0.8911743,0.20306396,-1.203125,-2.25,2.46875
388,388,1727461663084,-0.22924805,-1.067688,0.14666748,-10.171875,-17.078125,0.9375
389,389,1727461663124,-0.6711426,-1.0735474,0.17645264,0.03125,15.609375,4.4375
390,390,1727461663164,-0.21069336,-1.4683228,0.38519287,-12.328125,-9.890625,3.6875
391,391,1727461663204,-0.37719727,-1.3718872,0.09539795,-45.390625,-25.265625,2.734375
392,392,1727461663244,0.09106445,-1.1480103,-0.3303833,-26.921875,-36.953125,5.109375
393,393,1727461663284,0.43359375,-1.1296997,0.15960693,7.375,-18.328125,9.09375
394,394,1727461663324,-0.66967773,-1.0549927,0.009460449,3.703125,-8.953125,1.125
395,395,1727461663364,-0.16308594,-0.88653564,0.09979248,10.328125,-10.90625,-2.125
396,396,1727461663404,-0.34155273,-0.9656372,0.0045776367,-6.921875,5.296875,-5.1875
397,397,1727461663444,-0.27563477,-0.7437134,0.08416748,3.75,15.203125,4.03125
398,398,1727461663484,-0.12084961,-0.69366455,0.10760498,-4.546875,13.609375,4.265625
399,399,1727461663524,-0.09350586,-0.72198486,0.16693115,-2.984375,12.28125,2.71875
400,400,1727461663564,-0.0925293,-0.7913208,0.16815186,-0.1875,13.84375,1.25
401,401,1727461663604,-0.21679688,-0.74957275,0.3012085,-0.453125,12.328125,0.53125
402,402,1727461663644,-0.22265625,-0.7576294,0.2880249,9.328125,14.1875,-3.484375
403,403,1727461663684,-0.3815918,-0.84991455,0.2982788,5.734375,5.03125,-6.25
404,404,1727461663724,0.13867188,-1.0994263,-0.023498535,10.875,-14.9375,3.1875
405,405,1727461663764,-0.34545898,-1.486145,0.39398193,-3.15625,-25.5,-11.421875
406,406,1727461663804,-0.8190918,-1.3943481,0.08343506,3.421875,6.1875,7.0
407,407,1727461663844,-0.08154297,-1.3552856,-0.12042236,6.859375,-19.5,4.34375
408,408,1727461663884,0.32885742,-1.1116333,-0.06719971,6.828125,20.234375,10.21875
409,409,1727461663924,-0.45751953,-0.8010864,-0.06304932,0.453125,15.1875,-2.421875
410,410,1727461663964,-0.03173828,-1.0193481,-0.00592041,1.90625,5.03125,-1.0
411,411,1727461664004,-0.0068359375,-0.89434814,-0.0056762695,4.15625,7.84375,-4.8125
412,412,1727461664044,-0.23901367,-0.7654419,0.030212402,-0.875,5.40625,-1.375
413,413,1727461664084,-0.23950195,-0.70513916,-0.017150879,2.953125,-1.0,4.34375
414,414,1727461664124,-0.17138672,-0.7671509,0.01776123,-1.890625,-4.109375,-1.015625
415,415,1727461664164,-0.24731445,-0.848938,0.027770996,7.953125,-3.71875,0.203125
416,416,1727461664204,-0.19726562,-0.8074341,-0.0064086914,8.921875,1.5625,8.296875
417,417,1727461664244,-0.27270508,-0.8323364,0.12567139,9.15625,-6.203125,6.40625
418,418,1727461664284,-0.20629883,-0.8765259,0.13616943,8.453125,-11.671875,6.171875
419,419,1727461664324,-0.33984375,-0.9631958,0.15423584,5.65625,-12.796875,0.296875
420,420,1727461664364,-0.5805664,-1.1782837,0.17596436,-15.1875,5.609375,1.015625
421,421,1727461664404,-0.23535156,-1.5015259,0.2230835,-9.53125,-8.140625,-3.484375
422,422,1727461664444,-0.2932129,-1.2810669,0.05218506,-47.609375,-3.34375,6.03125
423,423,1727461664484,-0.16503906,-1.3296509,-0.30523682,-24.21875,-8.1875,7.328125
424,424,1727461664524,0.5905762,-1.149231,-0.04864502,6.78125,-7.03125,3.0625
425,425,1727461664564,-0.4182129,-1.0935669,0.077819824,-4.078125,1.421875,-5.75
426,426,1727461664604,-0.19970703,-0.91607666,0.0368042,-0.046875,-3.53125,-6.21875
427,427,1727461664644,-0.17480469,-0.90338135,-0.07330322,-1.9375,3.078125,-4.90625
428,428,1727461664684,-0.09326172,-0.7383423,0.03314209,9.046875,7.40625,5.625
429,429,1727461664724,-0.08691406,-0.64263916,0.11834717,7.390625,-1.109375,2.203125
430,430,1727461664764,-0.19458008,-0.72540283,0.10882568,11.8125,9.234375,1.1875
431,431,1727461664804,-0.17749023,-0.79034424,0.14471436,11.484375,6.109375,3.34375
432,432,1727461664844,-0.17211914,-0.84503174,0.14276123,8.65625,5.15625,2.828125
433,433,1727461664884,-0.19067383,-0.9055786,0.17425537,9.1875,6.578125,-0.65625
434,434,1727461664924,-0.3479004,-0.9143677,0.2140503,2.046875,11.78125,-2.65625
435,435,1727461664964,-0.059814453,-0.9536743,0.08026123,9.6875,14.578125,-3.109375
436,436,1727461665004,-0.06567383,-1.3284302,0.33172607,-11.109375,-3.546875,-8.9375
437,437,1727461665044,-0.8366699,-1.4141235,-0.08380127,8.734375,9.25,-5.453125
438,438,1727461665084,-0.18676758,-1.3555298,-0.29278564,19.21875,12.734375,15.359375
439,439,1727461665124,0.27124023,-1.4246216,-0.34039307,1.921875,20.25,-4.390625
440,440,1727461665164,-0.3071289,-0.99957275,-0.101135254,2.703125,21.953125,2.4375
441,441,1727461665204,-0.17163086,-0.8010864,-0.062072754,6.296875,20.8125,-1.484375
442,442,1727461665244,-0.016357422,-0.786438,-0.057922363,7.03125,26.015625,-5.21875
443,443,1727461665284,-0.24609375,-0.7542114,-0.003479004,14.234375,20.6875,-1.421875
444,444,1727461665324,-0.18969727,-0.659729,-0.11798096,6.59375,14.625,2.203125
445,445,1727461665364,-0.17285156,-0.79766846,-0.030578613,7.921875,7.6875,-1.09375
446,446,1727461665404,-0.28076172,-0.8579712,-0.012756348,2.625,8.546875,1.171875
447,447,1727461665444,-0.33374023,-0.82598877,-0.016662598,4.265625,5.8125,6.015625
448,448,1727461665484,-0.24145508,-0.861145,0.06707764,-2.25,2.734375,1.765625
449,449,1727461665524,-0.3815918,-0.9163208,0.16375732,-8.96875,0.453125,4.640625
450,450,1727461665564,-0.32861328,-0.9404907,0.09661865,-2.609375,1.234375,5.5
451,451,1727461665604,-0.41064453,-0.96539307,-0.046936035,-8.515625,20.03125,7.765625
452,452,1727461665644,-0.11352539,-1.2468872,0.30511475,-4.328125,-8.859375,-3.625
453,453,1727461665684,-0.43164062,-1.503479,0.29193115,-36.1875,4.234375,-6.90625
454,454,1727461665724,-0.26538086,-1.1611938,-0.46661377,-6.453125,-16.1875,12.453125
455,455,1727461665764,0.46801758,-1.1885376,-0.1416626,-3.765625,-24.859375,-8.84375
456,456,1727461665804,-0.4645996,-1.2959595,-0.07232666,-8.25,1.71875,-14.3125
457,457,1727461665844,-0.32617188,-1.0386353,0.014587402,2.1875,-8.390625,-7.40625
458,458,1727461665884,-0.16552734,-0.9817505,0.035827637,-26.46875,13.4375,-4.953125
459,459,1727461665924,-0.44433594,-0.7630005,-0.061340332,-18.546875,13.875,-3.703125
460,460,1727461665964,-0.0034179688,-0.6279907,0.06976318,-5.546875,14.390625,6.671875
461,461,1727461666004,-0.104003906,-0.6860962,0.11785889,0.5625,22.25,-4.125
462,462,1727461666044,-0.25854492,-0.76519775,0.14178467,-0.453125,21.875,1.078125
463,463,1727461666084,-0.099609375,-0.74346924,0.215271,2.59375,18.796875,0.8125
464,464,1727461666124,-0.29541016,-0.8323364,0.17327881,10.203125,10.5625,-1.40625
465,465,1727461666164,-0.26245117,-0.8735962,0.21868896,2.4375,5.609375,-4.34375
466,466,1727461666204,-0.23071289,-0.9060669,0.3012085,-2.75,0.96875,-5.34375
467,467,1727461666244,-0.047607422,-0.9846802,0.2723999,-4.90625,-9.96875,-2.03125
468,468,1727461666284,-0.6140137,-1.3174438,0.276062,-6.046875,-0.25,-7.359375
469,469,1727461666324,-0.40283203,-1.4341431,0.0060424805,-5.359375,-0.625,3.8125
470,470,1727461666364,0.11303711,-1.4937134,-0.2432251,-1.40625,-11.109375,14.203125
471,471,1727461666404,-0.028320312,-1.1619263,0.05340576,-2.328125,23.25,6.890625
472,472,1727461666444,-0.4560547,-1.0293579,-0.0020141602,-6.875,7.8125,-6.359375
473,473,1727461666484,0.14038086,-1.0432739,0.061950684,10.453125,-5.515625,5.90625
474,474,1727461666524,0.0546875,-0.8657837,0.12908936,-3.546875,-1.796875,-6.984375
475,475,1727461666564,-0.3552246,-0.7776489,0.027770996,0.328125,-2.46875,-2.859375
476,476,1727461666604,-0.24365234,-0.59747314,0.00970459,-2.78125,-13.203125,6.109375
477,477,1727461666644,-0.06713867,-0.7337036,0.027038574,-12.78125,-22.6875,-2.734375
478,478,1727461666684,-0.34204102,-0.7908325,0.11053467,-17.390625,-17.84375,-4.015625
479,479,1727461666724,-0.33081055,-0.72491455,0.116882324,-0.265625,-8.78125,2.84375
480,480,1727461666764,-0.32739258,-0.8377075,0.35369873,2.90625,-1.484375,3.515625
481,481,1727461666804,-0.3864746,-1.0332642,0.27459717,-3.453125,-10.078125,3.40625
482,482,1727461666844,-0.4182129,-0.9849243,0.3607788,-3.09375,-7.8125,2.421875
483,483,1727461666884,-0.4350586,-1.0838013,0.39544678,1.953125,14.640625,-0.96875
484,484,1727461666924,-0.2841797,-1.4348755,0.28948975,-12.28125,-12.203125,-6.921875
485,485,1727461666964,-0.30419922,-1.2778931,0.070251465,-19.65625,-21.078125,7.609375
486,486,1727461667004,0.20947266,-1.1699829,-0.16802979,-17.921875,-27.359375,0.453125
487,487,1727461667044,0.14038086,-1.1672974,0.077819824,17.171875,-11.734375,4.953125
488,488,1727461667084,-0.3659668,-1.2341919,-0.09454346,-0.078125,-18.390625,-5.09375
489,489,1727461667124,-0.13720703,-0.95684814,0.06072998,-6.796875,-5.4375,-3.515625
490,490,1727461667164,-0.30493164,-0.8430786,0.04901123,-3.21875,0.96875,-7.21875
491,491,1727461667204,-0.2927246,-0.70391846,0.12225342,-3.953125,6.296875,4.453125
492,492,1727461667244,-0.17797852,-0.62457275,0.2033081,10.703125,11.484375,7.015625
493,493,1727461667284,-0.1784668,-0.6963501,0.20013428,3.8125,15.375,2.75
494,494,1727461667324,-0.13110352,-0.7905884,0.25360107,2.109375,7.78125,2.046875
495,495,1727461667364,-0.18188477,-0.7710571,0.29656982,4.03125,1.765625,-0.875
496,496,1727461667404,-0.24414062,-0.77056885,0.26727295,6.1875,1.234375,-3.609375
497,497,1727461667444,-0.34423828,-0.8665161,0.28826904,3.109375,-3.328125,-9.984375
498,498,1727461667484,0.16040039,-1.0530396,0.15081787,1.5625,-5.34375,-0.546875
499,499,1727461667524,-0.57421875,-1.2058716,0.5890503,-7.484375,8.671875,-11.03125
500,500,1727461667564,-0.8232422,-1.2713013,0.031921387,-4.59375,-6.21875,-5.21875
501,501,1727461667604,0.018066406,-1.3355103,0.06072998,-11.953125,6.65625,5.328125
502,502,1727461667644,-0.029541016,-1.319397,-0.16534424,9.921875,-1.875,9.578125
503,503,1727461667684,-0.19848633,-1.0095825,0.0040893555,-3.046875,16.09375,1.78125
504,504,1727461667724,-0.15991211,-1.0401001,0.11468506,5.703125,-6.5625,-1.640625
505,505,1727461667764,0.028076172,-0.9295044,0.07928467,13.71875,0.25,-2.484375
506,506,1727461667804,-0.21044922,-0.67193604,0.09051514,8.9375,0.578125,-2.671875
507,507,1727461667844,-0.19140625,-0.6148071,0.062683105,11.015625,-6.953125,2.0
508,508,1727461667884,-0.17480469,-0.7529907,0.043640137,1.703125,-13.421875,-0.59375
509,509,1727461667924,-0.3503418,-0.8008423,0.007019043,4.03125,-15.15625,-0.015625
510,510,1727461667964,-0.27294922,-0.83306885,0.06976318,6.0625,-7.171875,7.21875
511,511,1727461668004,-0.38598633,-0.88775635,0.24359131,-1.71875,-9.140625,1.59375
512,512,1727461668044,-0.4116211,-0.80596924,0.25775146,-2.765625,-2.578125,6.859375
513,513,1727461668084,-0.18334961,-0.95147705,0.070739746,-5.546875,-12.671875,8.921875
514,514,1727461668124,-0.5810547,-1.031311,0.14520264,-18.75,12.5,3.75
515,515,1727461668164,-0.17529297,-1.2815552,0.16033936,-2.5625,-17.953125,-1.15625
516,516,1727461668204,-0.18334961,-1.4038696,0.117126465,-24.9375,0.453125,9.484375
517,517,1727461668244,-0.16992188,-1.3435669,-0.20220947,-17.328125,-27.859375,4.140625
518,518,1727461668284,0.14648438,-1.135315,0.05340576,3.890625,-6.078125,10.390625
519,519,1727461668324,-0.3503418,-1.0935669,-0.013977051,3.140625,-12.515625,-0.578125
520,520,1727461668364,-0.06713867,-1.053772,0.105651855,-3.546875,-7.515625,-5.0625
521,521,1727461668404,-0.3317871,-0.93170166,0.008239746,-2.65625,0.3125,-7.59375
522,522,1727461668444,-0.2565918,-0.72735596,0.09442139,6.15625,12.5,2.046875
523,523,1727461668484,-0.12646484,-0.6746216,0.13470459,6.90625,18.765625,2.546875
524,524,1727461668524,-0.18676758,-0.70758057,0.11785889,9.953125,23.515625,4.75
525,525,1727461668564,-0.061523438,-0.7407837,0.11859131,11.859375,20.265625,3.546875
526,526,1727461668604,-0.14697266,-0.76885986,0.22845459,8.203125,15.265625,0.828125
527,527,1727461668644,-0.23583984,-0.75982666,0.22772217,9.21875,15.53125,1.15625
528,528,1727461668684,-0.33911133,-0.9360962,0.20135498,9.859375,18.0,-4.09375
529,529,1727461668724,0.0925293,-1.0491333,0.10882568,6.203125,2.921875,-0.046875
530,530,1727461668764,-0.27246094,-1.1069946,0.5507202,-17.859375,-1.515625,-8.046875
531,531,1727461668804,-0.81347656,-1.428772,-0.0947876,-6.875,-8.40625,-12.421875
532,532,1727461668844,0.11621094,-1.4299927,-0.06695557,3.5625,1.09375,7.78125
533,533,1727461668884,0.030273438,-1.468811,-0.21246338,-3.171875,-2.96875,10.8125
534,534,1727461668924,-0.118896484,-1.0205688,-0.11212158,-10.734375,10.609375,6.75
535,535,1727461668964,-0.16308594,-1.017395,0.008728027,-0.140625,-3.015625,-3.203125
536,536,1727461669004,0.10961914,-0.8989868,0.03704834,-2.8125,-13.78125,-4.140625
537,537,1727461669044,-0.114746094,-0.75738525,0.105651855,1.125,-14.28125,-7.328125
538,538,1727461669084,-0.17260742,-0.690979,0.018981934,-1.703125,-18.171875,-1.078125
539,539,1727461669124,-0.13623047,-0.6880493,0.04071045,-8.328125,-22.484375,2.765625
540,540,1727461669164,-0.32226562,-0.8357544,0.059020996,-16.21875,-20.890625,0.421875
541,541,1727461669204,-0.37548828,-0.78302,0.12860107,-6.5625,-7.640625,3.671875
542,542,1727461669244,-0.2770996,-0.86138916,0.1984253,-5.796875,-10.375,5.21875
543,543,1727461669284,-0.4038086,-0.88409424,0.27703857,1.40625,-11.5625,4.546875
544,544,1727461669324,-0.3034668,-0.97442627,0.2838745,-3.625,-10.40625,0.078125
545,545,1727461669364,-0.45654297,-0.9714966,0.24017334,3.25,4.0,-3.28125
546,546,1727461669404,-0.2619629,-1.1150513,0.29486084,0.9375,-8.46875,0.140625
547,547,1727461669444,0.046142578,-1.3762817,0.14398193,-24.796875,-14.890625,0.625
548,548,1727461669484,-0.060791016,-1.2922974,-0.18048096,-29.171875,-49.484375,-5.25
549,549,1727461669524,0.39160156,-1.2280884,0.0914917,0.25,-26.40625,4.953125
550,550,1727461669564,-0.4267578,-1.3162231,0.02142334,3.890625,0.8125,-1.28125
551,551,1727461669604,-0.22167969,-1.0110474,0.11199951,3.796875,-4.296875,-2.9375
552,552,1727461669644,-0.3154297,-0.94073486,0.055603027,-8.40625,10.71875,-5.609375
553,553,1727461669684,-0.3173828,-0.6602173,0.055114746,1.15625,17.328125,1.1875
554,554,1727461669724,-0.22729492,-0.5840454,0.17694092,6.234375,16.359375,6.75
555,555,1727461669764,-0.092285156,-0.67974854,0.14593506,14.828125,15.75,4.71875
556,556,1727461669804,-0.052246094,-0.784729,0.20697021,10.375,11.40625,0.109375
557,557,1727461669844,-0.038085938,-0.81134033,0.28363037,7.359375,-0.5,-0.765625
558,558,1727461669884,-0.21875,-0.7710571,0.35369873,9.71875,3.078125,-2.40625
559,559,1727461669924,-0.41870117,-0.894104,0.22015381,2.734375,2.734375,-7.125
560,560,1727461669964,0.19506836,-1.1243286,0.08074951,4.171875,-19.96875,1.296875
561,561,1727461670004,-0.35009766,-1.3274536,0.59832764,-20.28125,-0.5625,-9.265625
562,562,1727461670044,-0.83032227,-1.3123169,-0.05987549,-18.28125,-8.96875,-7.40625
563,563,1727461670084,-0.13671875,-1.274231,0.027526855,-16.0625,13.671875,3.890625
564,564,1727461670124,0.1274414,-1.2825317,-0.1765747,2.484375,2.09375,6.71875
565,565,1727461670164,-0.32128906,-0.9807739,-0.0413208,-15.28125,17.296875,-1.609375
566,566,1727461670204,-0.11669922,-1.0122681,0.09075928,6.890625,-10.375,-1.765625
567,567,1727461670244,0.1105957,-0.95440674,0.10662842,3.984375,-9.09375,-3.453125
568,568,1727461670284,-0.16235352,-0.7581177,0.11810303,6.953125,-2.515625,-2.703125
569,569,1727461670324,-0.26538086,-0.6460571,0.03338623,3.96875,-9.890625,3.671875
570,570,1727461670364,-0.10107422,-0.72125244,0.028015137,12.359375,-18.03125,2.546875
571,571,1727461670404,-0.36157227,-0.8411255,0.066833496,-3.703125,-16.96875,-0.78125
572,572,1727461670444,-0.3701172,-0.802063,-0.014221191,-5.515625,-10.046875,5.71875
573,573,1727461670484,-0.2878418,-0.8140259,0.14984131,0.53125,-1.296875,7.234375
574,574,1727461670524,-0.42260742,-0.83135986,0.2526245,0.734375,-0.828125,8.109375
575,575,1727461670564,-0.25708008,-1.02594,0.20965576,-7.984375,-11.328125,2.90625
576,576,1727461670604,-0.4963379,-1.0652466,0.29852295,0.734375,12.6875,1.234375
577,577,1727461670644,-0.29223633,-1.211731,0.20257568,-10.75,-7.625,-1.703125
578,578,1727461670684,-0.10595703,-1.3850708,0.29681396,-32.9375,-11.265625,-1.015625
579,579,1727461670724,0.0078125,-1.1963501,-0.26837158,-12.28125,-33.09375,8.609375
580,580,1727461670764,0.23168945,-1.1592407,0.0099487305,-2.4375,-18.140625,-0.921875
581,581,1727461670804,-0.6052246,-1.2139282,0.026062012,1.34375,-4.78125,-6.296875
582,582,1727461670844,-0.13647461,-1.0928345,0.15325928,2.9375,-4.3125,-3.8125
583,583,1727461670884,-0.40112305,-0.9602661,-0.0029907227,-11.546875,16.703125,-4.609375
584,584,1727461670924,-0.38134766,-0.6807251,0.074645996,4.390625,25.03125,5.84375
585,585,1727461670964,-0.12939453,-0.6856079,0.18231201,8.125,31.84375,3.671875
586,586,1727461671004,-0.14990234,-0.6602173,0.10443115,11.34375,33.421875,1.671875
587,587,1727461671044,-0.025634766,-0.74005127,0.17816162,9.234375,23.375,0.515625
588,588,1727461671084,-0.18115234,-0.7112427,0.26922607,8.90625,20.109375,-3.703125
589,589,1727461671124,-0.203125,-0.7461548,0.23724365,14.75,17.203125,-4.09375
590,590,1727461671164,-0.15649414,-1.0108032,0.15545654,10.34375,8.53125,-8.203125
591,591,1727461671204,0.068847656,-1.0686646,0.11102295,2.28125,-10.71875,-0.3125
592,592,1727461671244,-0.517334,-1.1277466,0.586853,-21.328125,-10.5,-9.609375
593,593,1727461671284,-0.8391113,-1.21344,0.1954956,0.8125,9.953125,-3.5
594,594,1727461671324,-0.07299805,-1.2420044,0.17840576,-5.65625,1.78125,-3.28125
595,595,1727461671364,0.0703125,-1.4944458,-0.30377197,6.5625,3.21875,10.421875
596,596,1727461671404,-0.041015625,-1.1292114,-0.09649658,-2.109375,4.140625,8.96875
597,597,1727461671444,-0.26513672,-0.9817505,0.048034668,-2.78125,-3.703125,-4.125
598,598,1727461671484,-0.10913086,-1.00177,-0.07745361,7.125,-5.203125,-2.828125
599,599,1727461671524,-0.04272461,-0.8135376,0.07489014,5.203125,-9.84375,-2.71875
600,600,1727461671564,-0.1796875,-0.68634033,0.0211792,-2.03125,-11.984375,-0.140625
601,601,1727461671604,-0.17138672,-0.6511841,-0.008361816,3.640625,-17.546875,4.71875
602,602,1727461671644,-0.19799805,-0.81988525,0.04534912,-0.640625,-21.203125,0.203125
603,603,1727461671684,-0.35888672,-0.8777466,0.08758545,-5.390625,-17.0625,2.03125
604,604,1727461671724,-0.31274414,-0.8225708,0.15594482,1.46875,-8.875,8.96875
605,605,1727461671764,-0.3647461,-0.8381958,0.20306396,-6.84375,-9.875,2.875
606,606,1727461671804,-0.29492188,-0.94903564,0.17401123,-1.734375,-11.59375,7.015625
607,607,1727461671844,-0.36499023,-0.99957275,0.2074585,-6.09375,-4.1875,1.078125
608,608,1727461671884,-0.36206055,-1.0723267,0.22161865,-10.0625,3.53125,-0.734375
609,609,1727461671924,-0.18188477,-1.1902466,0.2567749,-13.109375,-15.625,-3.234375
610,610,1727461671964,-0.39135742,-1.3633423,0.016296387,-30.78125,-4.46875,3.578125
611,611,1727461672004,0.020507812,-1.1282349,-0.20880127,4.734375,-23.640625,-0.59375
612,612,1727461672044,0.17138672,-1.4187622,0.022644043,-3.984375,-13.03125,-0.3125
613,613,1727461672084,-0.50097656,-1.0974731,-0.03741455,1.609375,-11.5,-7.109375
614,614,1727461672124,-0.08959961,-1.0401001,0.078063965,-4.015625,-1.796875,0.421875
615,615,1727461672164,-0.3947754,-0.90997314,0.024108887,-13.46875,6.21875,-3.46875
616,616,1727461672204,-0.2722168,-0.6226196,0.07293701,-0.078125,15.5,6.25
617,617,1727461672244,0.0012207031,-0.7017212,0.14129639,-0.53125,13.5,5.625
618,618,1727461672284,-0.16113281,-0.71881104,0.15618896,-0.796875,9.46875,1.984375
619,619,1727461672324,-0.15966797,-0.80352783,0.19818115,-0.15625,4.9375,1.640625
620,620,1727461672364,-0.15258789,-0.753479,0.26605225,-1.1875,0.359375,-2.1875
621,621,1727461672404,-0.27416992,-0.7908325,0.29681396,3.484375,6.96875,-5.953125
622,622,1727461672444,-0.34692383,-0.89923096,0.31903076,5.46875,7.46875,-9.390625
623,623,1727461672484,-0.20947266,-1.0064087,0.26971436,-2.0625,2.03125,-7.9375
624,624,1727461672524,-0.1862793,-1.0906372,0.479187,1.421875,-2.109375,-6.953125
625,625,1727461672564,-0.8342285,-1.296936,0.29803467,-1.25,17.296875,-12.828125
626,626,1727461672604,-0.2253418,-1.2151489,0.0770874,12.796875,-6.328125,6.625
627,627,1727461672644,0.036376953,-1.4412231,-0.18023682,6.140625,7.359375,1.6875
628,628,1727461672684,-0.09326172,-1.3919067,-0.22320557,-4.515625,13.140625,3.296875
629,629,1727461672724,-0.25732422,-0.90875244,0.12738037,-10.453125,2.9375,-0.421875
630,630,1727461672764,-0.12060547,-0.8508911,0.14642334,-2.875,2.203125,-9.515625
631,631,1727461672804,-0.09375,-0.79693604,0.113708496,0.375,3.40625,-0.96875
632,632,1727461672844,-0.11279297,-0.58966064,0.0602417,-4.65625,-5.328125,4.4375
633,633,1727461672884,-0.19384766,-0.7192993,0.049987793,2.84375,-19.421875,3.515625
634,634,1727461672924,-0.22973633,-0.8526001,0.08319092,-0.84375,-21.28125,4.6875
635,635,1727461672964,-0.42993164,-0.86798096,0.13665771,9.171875,-7.171875,4.890625
636,636,1727461673004,-0.38183594,-0.7786255,0.21087646,9.3125,-5.125,6.453125
637,637,1727461673044,-0.38354492,-0.83551025,0.2567749,5.203125,2.21875,4.9375
638,638,1727461673084,-0.38208008,-0.9229126,0.24700928,-4.5,-7.859375,4.1875
639,639,1727461673124,-0.34814453,-1.0449829,0.21795654,2.203125,-9.09375,7.890625
640,640,1727461673164,-0.30517578,-1.2349243,0.33392334,3.203125,3.625,5.140625
641,641,1727461673204,-0.34350586,-1.1558228,0.36932373,-3.296875,-20.15625,8.625
642,642,1727461673244,-0.34155273,-1.3359985,0.2929077,-38.1875,-9.5625,0.46875
643,643,1727461673284,-0.14868164,-1.02594,-0.4866333,2.90625,-26.15625,5.328125
644,644,1727461673324,0.54956055,-1.5613403,0.078552246,16.03125,-10.03125,0.75
645,645,1727461673364,-0.5463867,-1.1484985,0.054138184,-15.5,8.96875,-5.109375
646,646,1727461673404,-0.19799805,-0.96661377,0.047546387,-1.25,-0.03125,2.453125
647,647,1727461673444,-0.25610352,-0.9439087,0.039245605,-7.859375,20.703125,-1.9375
648,648,1727461673484,-0.3269043,-0.6939087,-0.004699707,8.203125,26.234375,6.203125
649,649,1727461673524,-0.10839844,-0.66534424,0.0927124,14.9375,21.296875,12.625
650,650,1727461673564,-0.05883789,-0.66973877,0.06585693,4.59375,16.859375,9.9375
651,651,1727461673604,-0.064697266,-0.67144775,0.09075928,-1.578125,16.4375,7.671875
652,652,1727461673644,-0.14770508,-0.6946411,0.184021,13.734375,9.796875,-4.671875
653,653,1727461673684,-0.15698242,-0.77130127,0.35198975,11.765625,17.828125,-3.46875
654,654,1727461673724,-0.23413086,-1.0293579,0.13006592,9.8125,0.71875,-8.375
655,655,1727461673764,-0.1081543,-1.2144165,0.33953857,-8.328125,-2.8125,-1.90625
656,656,1727461673804,-0.48413086,-1.187561,0.40594482,-3.578125,-4.140625,-7.28125
657,657,1727461673844,-0.545166,-1.2456665,0.097839355,9.46875,4.296875,0.953125
658,658,1727461673884,-0.07299805,-1.3513794,-0.093566895,4.796875,-6.53125,-1.28125
659,659,1727461673924,0.3623047,-1.5498657,-0.60528564,14.359375,-18.40625,11.046875
660,660,1727461673964,0.12646484,-1.3237915,-0.05987549,-27.6875,25.890625,-0.359375
661,661,1727461674004,-0.4111328,-0.85943604,0.13104248,-8.953125,-5.84375,-15.3125
662,662,1727461674044,-0.15014648,-0.97662354,-0.06573486,8.15625,12.890625,-4.703125
663,663,1727461674084,0.026367188,-0.6860962,0.04949951,10.90625,14.171875,-6.09375
664,664,1727461674124,-0.08666992,-0.5274048,0.008239746,7.90625,2.875,-2.890625
665,665,1727461674164,-0.17626953,-0.70025635,-0.018127441,6.40625,-4.078125,-4.6875
666,666,1727461674204,-0.18920898,-0.7268677,-0.06890869,-0.34375,-10.5625,1.5
667,667,1727461674244,-0.2758789,-0.8250122,0.049743652,1.046875,-10.765625,3.234375
668,668,1727461674284,-0.29711914,-0.82354736,0.054382324,-0.5,-6.15625,7.046875
669,669,1727461674324,-0.31103516,-0.88165283,0.15838623,2.75,-9.0625,7.203125
670,670,1727461674364,-0.35888672,-1.0213013,0.17791748,-4.109375,-6.3125,2.796875
671,671,1727461674404,-0.513916,-1.2070923,0.11029053,10.875,21.265625,2.96875
672,672,1727461674444,-0.26538086,-1.3772583,0.11541748,-6.390625,-5.703125,2.296875
673,673,1727461674484,-0.17041016,-1.4441528,0.20306396,-23.15625,4.5,5.171875
674,674,1727461674524,-0.22753906,-1.097229,-0.4036255,-31.296875,-20.5,12.296875
675,675,1727461674564,0.4724121,-1.0796509,-0.037902832,19.28125,-9.3125,0.203125
676,676,1727461674604,-0.25512695,-1.2774048,-0.018859863,7.90625,16.265625,-6.375
677,677,1727461674644,-0.19824219,-1.1231079,-0.028381348,7.875,-3.96875,-7.265625
678,678,1727461674684,-0.18115234,-0.98565674,-0.14141846,-11.265625,11.46875,-4.96875
679,679,1727461674724,-0.28979492,-0.7112427,-0.09869385,3.265625,14.328125,-4.09375
680,680,1727461674764,-0.1274414,-0.6572876,0.028015137,-3.5,11.203125,1.203125
681,681,1727461674804,-0.17480469,-0.7476196,0.10394287,-1.40625,19.140625,6.140625
682,682,1727461674844,-0.14990234,-0.6502075,0.050720215,0.46875,25.78125,10.078125
683,683,1727461674884,-0.039794922,-0.7163696,0.097351074,2.046875,14.90625,4.203125
684,684,1727461674924,-0.09692383,-0.7300415,0.2218628,1.09375,15.640625,-5.0
685,685,1727461674964,-0.31079102,-0.8804321,0.20379639,6.8125,20.890625,-4.84375
686,686,1727461675004,-0.07080078,-1.1231079,0.20501709,10.546875,6.59375,-2.09375
687,687,1727461675044,-0.07348633,-1.1414185,0.23529053,1.890625,0.21875,1.671875
688,688,1727461675084,-0.5761719,-1.2312622,0.338562,-2.90625,6.203125,-9.90625
689,689,1727461675124,-0.55126953,-1.3574829,-0.09503174,7.203125,-17.484375,0.34375
690,690,1727461675164,0.38867188,-1.194397,-0.21685791,18.640625,-7.265625,20.328125
691,691,1727461675204,0.06982422,-1.380188,-0.5186157,3.0,1.46875,-5.171875
692,692,1727461675244,-0.008300781,-1.1780396,-0.17877197,-8.3125,1.765625,-1.296875
693,693,1727461675284,-0.23876953,-0.92559814,-0.044006348,-1.671875,5.796875,-7.203125
694,694,1727461675324,-0.12182617,-0.8413696,0.00091552734,7.53125,18.59375,-3.109375
695,695,1727461675364,-0.044677734,-0.6543579,0.0065307617,8.15625,17.25,-6.578125
696,696,1727461675404,-0.099609375,-0.6133423,-0.062561035,11.46875,7.0,-3.375
697,697,1727461675444,-0.06689453,-0.6277466,-0.11773682,14.0,2.03125,-2.609375
698,698,1727461675484,-0.24658203,-0.8538208,-0.12213135,1.765625,-13.296875,-3.453125
699,699,1727461675524,-0.24511719,-0.9216919,-0.06549072,9.765625,-11.15625,4.546875
700,700,1727461675564,-0.3918457,-0.85406494,-0.0012817383,0.296875,-9.59375,5.828125
701,701,1727461675604,-0.3203125,-0.8899536,0.16790771,4.875,0.09375,5.3125
702,702,1727461675644,-0.3244629,-1.085022,0.0067749023,-5.0,-2.453125,5.25
703,703,1727461675684,-0.52441406,-1.2468872,0.06414795,-5.921875,12.96875,-0.421875
704,704,1727461675724,-0.44091797,-1.2407837,0.00579834,-9.765625,1.21875,-0.4375
705,705,1727461675764,-0.2578125,-1.3394165,0.015075684,-38.828125,1.890625,4.84375
706,706,1727461675804,-0.061767578,-1.1453247,-0.5227661,-10.5625,-11.390625,5.15625
707,707,1727461675844,0.35375977,-1.3132935,-0.30108643,2.671875,1.359375,-4.59375
708,708,1727461675884,-0.019042969,-1.1497192,-0.15826416,-16.421875,-0.4375,-2.390625
709,709,1727461675924,-0.15820312,-0.99884033,-0.06329346,-9.390625,-7.53125,-6.078125
710,710,1727461675964,-0.2421875,-0.85772705,-0.07281494,-14.515625,7.359375,-2.109375
711,711,1727461676004,-0.20458984,-0.72491455,-0.0569458,-1.03125,8.46875,0.953125
712,712,1727461676044,-0.050048828,-0.6487427,0.046325684,-2.921875,11.3125,2.640625
713,713,1727461676084,-0.18676758,-0.7481079,0.050476074,-11.953125,11.125,3.015625
714,714,1727461676124,-0.02758789,-0.71417236,0.07928467,-4.703125,12.96875,3.421875
715,715,1727461676164,-0.12646484,-0.76519775,0.1852417,0.1875,11.28125,1.421875
716,716,1727461676204,-0.19018555,-0.755188,0.22894287,5.71875,1.5,-0.484375
717,717,1727461676244,-0.26708984,-0.8875122,0.12176514,-0.8125,5.171875,-4.0
718,718,1727461676284,-0.06591797,-1.0886841,0.20452881,1.84375,2.609375,-3.984375
719,719,1727461676324,-0.11035156,-1.1079712,0.29486084,-0.296875,-8.515625,0.9375
720,720,1727461676364,-0.68359375,-1.3005981,0.44158936,-3.09375,-2.5,-12.125
721,721,1727461676404,-0.5578613,-1.3242798,-0.0032348633,0.203125,-20.15625,-10.234375
722,722,1727461676444,0.37304688,-1.2566528,-0.054748535,-3.703125,-1.65625,8.671875
723,723,1727461676484,-0.11645508,-1.2576294,-0.3291626,3.140625,-1.71875,-2.34375
724,724,1727461676524,0.060791016,-1.069397,-0.17462158,-14.921875,12.609375,0.25
725,725,1727461676564,-0.10058594,-0.99420166,0.101989746,-15.4375,-2.59375,-8.65625
726,726,1727461676604,-0.12695312,-0.9277954,0.062438965,-12.96875,-0.28125,-7.5
727,727,1727461676644,-0.042236328,-0.7493286,0.058044434,-5.4375,4.578125,-5.90625
728,728,1727461676684,-0.10083008,-0.66607666,0.06341553,-1.875,-1.953125,-1.828125
729,729,1727461676724,-0.18774414,-0.72198486,0.039245605,-6.3125,-12.0,-0.390625
730,730,1727461676764,-0.25854492,-0.78570557,0.10858154,-8.90625,-17.90625,0.359375
731,731,1727461676804,-0.30981445,-0.84698486,0.10882568,2.796875,-15.90625,3.984375
732,732,1727461676844,-0.33422852,-0.7913208,0.117126465,6.078125,-7.015625,7.140625
733,733,1727461676884,-0.33251953,-0.81427,0.25115967,14.15625,-5.828125,7.359375
734,734,1727461676924,-0.31201172,-0.9846802,0.22796631,11.03125,-2.375,4.875
735,735,1727461676964,-0.39770508,-1.114563,0.2111206,2.84375,0.203125,0.796875
736,736,1727461677004,-0.2998047,-1.2966919,0.21575928,-1.90625,-2.25,3.921875
737,737,1727461677044,-0.15209961,-1.385315,0.14227295,-10.9375,-35.734375,8.265625
738,738,1727461677084,-0.33422852,-1.222229,0.04534912,-39.984375,-34.828125,9.828125
739,739,1727461677124,0.20239258,-0.9680786,-0.35357666,14.875,-29.078125,16.296875
740,740,1727461677164,0.30297852,-1.3701782,0.09661865,-0.671875,-0.671875,-1.078125
741,741,1727461677204,-0.49951172,-0.9558716,-0.11090088,-2.078125,-4.078125,-3.296875
742,742,1727461677244,0.2524414,-1.0527954,0.12445068,-3.953125,-9.8125,-2.953125
743,743,1727461677284,-0.37036133,-0.85650635,-0.113342285,-9.375,-1.4375,-5.25
744,744,1727461677324,-0.14990234,-0.645813,0.02166748,9.625,7.015625,7.34375
745,745,1727461677364,-0.08984375,-0.73101807,0.14666748,9.375,6.875,7.03125
746,746,1727461677404,-0.118896484,-0.70977783,0.109313965,5.3125,4.265625,5.234375
747,747,1727461677444,-0.09008789,-0.72735596,0.17718506,5.171875,2.34375,3.6875
748,748,1727461677484,-0.13208008,-0.7930298,0.26287842,2.609375,-1.09375,0.09375
749,749,1727461677524,-0.19482422,-0.829895,0.15106201,8.96875,-1.390625,0.375
