,Unnamed: 0,timestamp,accel_x,accel_y,accel_z,gyro_x,gyro_y,gyro_z
0,0,1727974636570,0.038085938,-1.0044556,0.034118652,-1.4375,-0.484375,0.421875
1,1,1727974636610,0.05029297,-0.9920044,0.028747559,-2.59375,-1.359375,0.015625
2,2,1727974636650,0.012939453,-0.9951782,0.04510498,-2.640625,0.078125,0.171875
3,3,1727974636690,0.032470703,-1.0039673,0.04119873,-2.0625,0.109375,0.625
4,4,1727974636730,0.048095703,-0.97540283,0.042907715,-1.890625,0.84375,0.265625
5,5,1727974636770,0.010009766,-1.0100708,0.050231934,-2.4375,0.84375,0.578125
6,6,1727974636810,0.038085938,-0.99542236,0.050964355,-1.828125,0.75,0.40625
7,7,1727974636850,0.042236328,-0.97613525,0.049987793,-0.546875,2.3125,1.0625
8,8,1727974636890,0.014404297,-1.0093384,0.05267334,-1.78125,1.265625,1.265625
9,9,1727974636930,0.032470703,-0.9771118,0.050964355,-1.015625,1.421875,0.65625
10,10,1727974636970,0.009277344,-0.97198486,0.050964355,-0.921875,2.71875,1.078125
11,11,1727974637010,0.021972656,-1.0037231,0.047790527,-0.546875,1.1875,1.34375
12,12,1727974637050,0.040771484,-0.99542236,0.050476074,-0.359375,0.5625,1.40625
13,13,1727974637090,-0.008300781,-0.9846802,0.058776855,-1.734375,0.78125,1.46875
14,14,1727974637130,0.015136719,-1.0357056,0.07147217,-0.71875,0.90625,0.609375
15,15,1727974637170,0.0107421875,-0.9483032,0.058288574,-1.5,0.921875,0.375
16,16,1727974637210,0.028808594,-0.9229126,0.02557373,-0.203125,0.640625,1.109375
17,17,1727974637250,0.10449219,-1.0198364,0.070251465,-0.484375,-2.109375,2.25
18,18,1727974637290,0.044921875,-1.0444946,0.04901123,-0.265625,-2.34375,1.28125
19,19,1727974637330,0.07373047,-0.94854736,0.04876709,5.421875,-1.125,4.34375
20,20,1727974637370,0.13964844,-0.9417114,0.055114746,-2.703125,-7.046875,3.0625
21,21,1727974637410,0.07885742,-1.0186157,0.1552124,-0.296875,-3.53125,2.21875
22,22,1727974637450,-0.0041503906,-1.0344849,0.1251831,-0.484375,-2.96875,0.265625
23,23,1727974637490,0.011474609,-1.038147,0.11907959,0.796875,-1.515625,-1.921875
24,24,1727974637530,0.06689453,-0.9973755,0.11126709,1.140625,1.203125,-1.5625
25,25,1727974637570,0.05493164,-0.95391846,0.14544678,0.46875,-1.6875,-1.125
26,26,1727974637610,0.029785156,-0.9890747,0.14276123,0.578125,-2.9375,-0.9375
27,27,1727974637650,0.0061035156,-0.9524536,0.1486206,2.234375,0.5625,-2.578125
28,28,1727974637690,0.0073242188,-0.95684814,0.15740967,3.90625,3.640625,-2.1875
29,29,1727974637730,0.032470703,-0.9692993,0.16693115,5.125,1.109375,-3.796875
30,30,1727974637770,-0.022949219,-0.92022705,0.152771,5.65625,3.21875,-4.421875
31,31,1727974637810,-0.011474609,-0.94976807,0.15203857,5.40625,3.703125,-3.515625
32,32,1727974637850,0.01977539,-0.9819946,0.1539917,6.484375,2.6875,-4.375
33,33,1727974637890,-0.028320312,-1.0623169,0.15374756,6.3125,3.015625,-4.71875
34,34,1727974637930,-0.0949707,-1.0361938,0.14300537,8.203125,8.53125,-6.46875
35,35,1727974637970,-0.111328125,-0.9607544,0.2074585,0.671875,13.359375,-6.265625
36,36,1727974638010,0.0061035156,-1.1069946,0.09832764,1.6875,3.84375,-1.53125
37,37,1727974638050,0.19018555,-1.2185669,-0.08477783,0.3125,-2.203125,5.046875
38,38,1727974638090,0.076171875,-1.142395,-0.10870361,2.0625,-2.265625,5.328125
39,39,1727974638130,-0.045410156,-0.9956665,0.08709717,1.328125,-2.15625,-8.109375
40,40,1727974638170,0.114990234,-1.0654907,0.055603027,-3.03125,-1.671875,-1.75
41,41,1727974638210,0.111572266,-0.9866333,-0.12432861,-2.203125,-8.15625,0.5625
42,42,1727974638250,-0.09399414,-0.8777466,-0.15509033,-4.5625,-0.390625,-0.53125
43,43,1727974638290,-0.08496094,-0.87164307,-0.11114502,-6.21875,12.75,-1.8125
44,44,1727974638330,0.1381836,-0.9729614,-0.101379395,-0.6875,3.875,1.765625
45,45,1727974638370,0.14160156,-1.0549927,-0.08258057,0.453125,-13.046875,2.734375
46,46,1727974638410,-0.11450195,-1.0447388,-0.04937744,1.03125,-5.921875,-4.078125
47,47,1727974638450,-0.09350586,-0.94903564,-0.009338379,2.75,3.0,-2.53125
48,48,1727974638490,-0.021484375,-0.85357666,0.013366699,2.453125,2.59375,-0.546875
49,49,1727974638530,-0.13696289,-0.95025635,-0.0025024414,-0.265625,-0.1875,0.390625
50,50,1727974638570,-0.052246094,-1.0003052,-0.018127441,3.1875,-1.203125,1.28125
51,51,1727974638610,-0.0146484375,-0.9209595,0.024353027,1.921875,0.453125,0.71875
52,52,1727974638650,-0.0769043,-0.99542236,0.059020996,1.0,-1.96875,3.296875
53,53,1727974638690,-0.048583984,-0.99224854,0.042175293,-0.921875,-5.59375,4.234375
54,54,1727974638730,-0.10131836,-0.93585205,0.03289795,-0.515625,-3.546875,3.203125
55,55,1727974638770,-0.123535156,-0.9805298,0.074645996,-7.078125,-4.34375,1.71875
56,56,1727974638810,-0.06933594,-0.96588135,0.086364746,-5.625,-2.609375,3.78125
57,57,1727974638850,-0.079833984,-1.0037231,0.066589355,-4.53125,-1.171875,1.359375
58,58,1727974638890,-0.043701172,-1.1565552,0.07366943,-1.484375,-14.828125,-2.140625
59,59,1727974638930,-0.08862305,-1.2034302,0.04534912,1.765625,-7.390625,-4.09375
60,60,1727974638970,-0.032226562,-1.1939087,0.005065918,-2.9375,8.796875,-6.9375
61,61,1727974639010,0.17675781,-1.1209106,-0.05279541,-7.0625,-4.796875,-2.078125
62,62,1727974639050,0.1899414,-0.9221802,-0.10772705,-5.59375,-16.203125,-2.046875
63,63,1727974639090,0.1665039,-0.7971802,-0.08770752,0.25,-12.96875,0.0625
64,64,1727974639130,0.13793945,-0.9216919,0.014343262,-3.484375,-11.765625,-2.5625
65,65,1727974639170,0.080322266,-1.0588989,0.022644043,-3.390625,-6.921875,0.234375
66,66,1727974639210,-0.0012207031,-0.9204712,-0.012512207,-2.828125,-0.796875,-0.390625
67,67,1727974639250,0.09399414,-0.87823486,0.047546387,-0.4375,-5.15625,0.171875
68,68,1727974639290,-0.0017089844,-0.9417114,0.090270996,0.84375,-2.84375,0.4375
69,69,1727974639330,0.01953125,-0.92681885,0.06097412,1.375,-0.828125,0.234375
70,70,1727974639370,0.029052734,-0.9595337,0.08148193,0.703125,1.890625,1.0625
71,71,1727974639410,-0.056884766,-0.9500122,0.13934326,4.875,7.828125,-1.140625
72,72,1727974639450,-0.014404297,-0.93414307,0.14129639,2.6875,6.9375,0.78125
73,73,1727974639490,-0.048828125,-0.9234009,0.14935303,2.21875,8.34375,-1.875
74,74,1727974639530,-0.057128906,-0.9585571,0.16131592,3.328125,12.0625,-4.84375
75,75,1727974639570,0.032714844,-0.98272705,0.08538818,1.671875,8.859375,-3.46875
76,76,1727974639610,0.14575195,-1.0105591,0.15325928,-0.390625,5.3125,-0.15625
77,77,1727974639650,-0.22924805,-1.1729126,0.25335693,-6.109375,4.640625,-8.53125
78,78,1727974639690,-0.32836914,-1.0996704,0.15618896,-9.796875,16.25,-11.90625
79,79,1727974639730,0.23779297,-1.3338013,0.07122803,-16.34375,0.75,-2.28125
80,80,1727974639770,0.12475586,-1.2124634,-0.13653564,-9.828125,-4.21875,1.046875
81,81,1727974639810,-0.053955078,-0.94366455,-0.003479004,-4.140625,6.40625,-1.953125
82,82,1727974639850,-0.08129883,-0.7163696,0.061706543,1.234375,25.859375,3.171875
83,83,1727974639890,0.12573242,-0.83258057,-0.10772705,8.484375,6.578125,10.640625
84,84,1727974639930,0.23828125,-1.1680298,-0.20684814,10.171875,-10.4375,8.984375
85,85,1727974639970,0.020751953,-1.0840454,-0.028625488,2.78125,-2.5625,1.359375
86,86,1727974640010,-0.09326172,-0.91534424,0.05267334,1.53125,-2.078125,0.375
87,87,1727974640050,-0.046142578,-0.95684814,0.018005371,-1.671875,-0.234375,2.5625
88,88,1727974640090,-0.048339844,-0.9019165,-0.002746582,3.46875,0.796875,-1.75
89,89,1727974640130,-0.08105469,-0.9258423,0.04925537,2.703125,-2.625,2.703125
90,90,1727974640170,-0.0078125,-0.9380493,0.07196045,3.21875,-1.890625,4.359375
91,91,1727974640210,-0.024658203,-0.9241333,0.066589355,2.703125,-2.96875,4.03125
92,92,1727974640250,-0.05883789,-0.9570923,0.10662842,2.8125,-4.703125,4.96875
93,93,1727974640290,-0.068359375,-0.94488525,0.117126465,-0.671875,-5.265625,5.328125
94,94,1727974640330,-0.049560547,-1.0261841,0.09295654,1.78125,-3.53125,3.578125
95,95,1727974640370,-0.10205078,-1.0144653,0.16668701,-3.765625,-3.0625,2.359375
96,96,1727974640410,-0.05859375,-1.0007935,0.20526123,-6.3125,-7.1875,-0.578125
97,97,1727974640450,0.025878906,-1.1970825,0.13397217,-1.046875,-26.25,-2.6875
98,98,1727974640490,-0.009521484,-1.4585571,0.0065307617,-5.53125,-3.578125,-7.75
99,99,1727974640530,0.06274414,-1.1089478,-0.10748291,-3.75,6.609375,-3.46875
100,100,1727974640570,0.2434082,-0.8418579,-0.11383057,10.890625,5.453125,-0.890625
101,101,1727974640610,0.13598633,-0.6538696,-0.13287354,14.765625,-16.921875,2.8125
102,102,1727974640650,0.103027344,-1.0603638,-0.07550049,7.671875,-12.328125,-3.28125
103,103,1727974640690,0.14526367,-1.1638794,-0.08306885,-0.1875,9.140625,-0.6875
104,104,1727974640730,0.0,-0.8833618,-0.059631348,6.75,11.375,-4.375
105,105,1727974640770,0.08081055,-0.8772583,-0.008850098,2.671875,5.5625,-0.6875
106,106,1727974640810,0.013671875,-0.88067627,0.07147217,2.78125,4.609375,-1.21875
107,107,1727974640850,0.10180664,-0.9710083,0.035583496,10.75,3.328125,7.71875
108,108,1727974640890,0.061767578,-0.9456177,0.039733887,6.78125,6.90625,4.5
109,109,1727974640930,-0.064453125,-0.9644165,0.06341553,3.265625,6.25,0.9375
110,110,1727974640970,-0.008056641,-0.89190674,0.044128418,-0.53125,5.25,-1.140625
111,111,1727974641010,-0.029785156,-0.92510986,0.0914917,1.625,11.03125,-5.796875
112,112,1727974641050,-0.030273438,-0.9678345,0.07244873,-0.28125,13.859375,-5.359375
113,113,1727974641090,0.16381836,-0.9529419,0.08807373,2.8125,10.078125,-4.171875
114,114,1727974641130,0.02709961,-1.1399536,0.18621826,-4.65625,1.828125,-5.8125
115,115,1727974641170,-0.34594727,-1.2039185,0.14813232,-0.96875,4.453125,-12.984375
116,116,1727974641210,0.118896484,-1.2866821,-0.09429932,-5.640625,-2.453125,-7.171875
117,117,1727974641250,0.38061523,-1.3289185,-0.20587158,-3.171875,-6.875,9.796875
118,118,1727974641290,-0.012451172,-1.0559692,-0.09185791,-6.15625,-18.09375,-2.65625
119,119,1727974641330,-0.20019531,-0.7612915,0.012145996,-19.890625,10.625,-10.703125
120,120,1727974641370,-0.08105469,-0.80133057,-0.17022705,-6.109375,17.5625,4.25
121,121,1727974641410,0.22485352,-1.0186157,-0.3320923,6.171875,-1.71875,5.671875
122,122,1727974641450,0.0078125,-1.0015259,-0.16412354,3.453125,-3.765625,2.046875
123,123,1727974641490,-0.107910156,-1.0217896,-0.006652832,-3.234375,-0.515625,-2.859375
124,124,1727974641530,0.0,-0.9463501,-0.0044555664,-4.75,4.296875,2.359375
125,125,1727974641570,0.004638672,-0.8074341,-0.069885254,-3.140625,-1.21875,0.65625
126,126,1727974641610,-0.076171875,-0.87213135,-0.05670166,-3.078125,-6.34375,-0.125
127,127,1727974641650,-0.13305664,-0.9783325,0.03729248,-0.40625,-6.203125,3.921875
128,128,1727974641690,-0.039794922,-0.9258423,0.04827881,-1.59375,-4.765625,2.734375
129,129,1727974641730,-0.06762695,-0.9258423,0.0770874,-1.140625,-8.046875,3.5
130,130,1727974641770,-0.11743164,-0.97906494,0.11126709,-0.609375,-12.40625,5.40625
131,131,1727974641810,-0.063964844,-1.0386353,0.07733154,1.46875,-7.96875,6.40625
132,132,1727974641850,-0.1850586,-0.9976196,0.09442139,-3.859375,0.265625,3.046875
133,133,1727974641890,-0.115722656,-1.1057739,0.17718506,-5.84375,-3.140625,-0.46875
134,134,1727974641930,-0.015380859,-1.1814575,0.15838623,-5.28125,-13.234375,-3.046875
135,135,1727974641970,-0.114990234,-1.2454224,0.10858154,3.671875,-14.984375,-3.890625
136,136,1727974642010,0.043701172,-1.1235962,-0.04107666,-10.21875,8.671875,3.890625
137,137,1727974642050,0.1015625,-1.0095825,-0.20220947,-17.34375,5.875,-3.015625
138,138,1727974642090,0.064697266,-0.73028564,-0.035949707,2.0625,0.71875,0.46875
139,139,1727974642130,0.14770508,-0.8508911,-0.0154418945,1.234375,-5.71875,1.765625
140,140,1727974642170,0.21362305,-1.1675415,0.008728027,-2.34375,1.546875,0.71875
141,141,1727974642210,-0.040771484,-0.9985962,-0.016174316,4.3125,7.8125,-1.65625
142,142,1727974642250,0.09838867,-0.8743286,-0.0037231445,4.234375,10.15625,-2.078125
143,143,1727974642290,0.13989258,-0.9182739,0.121520996,1.953125,2.875,1.359375
144,144,1727974642330,-0.033691406,-0.9026489,0.09564209,3.765625,0.296875,0.890625
145,145,1727974642370,0.06201172,-0.93096924,0.06732178,1.4375,-0.03125,3.15625
146,146,1727974642410,0.016601562,-0.95147705,0.11444092,2.0625,1.953125,-0.75
147,147,1727974642450,-0.09399414,-0.89801025,0.1605835,4.234375,6.15625,-3.21875
148,148,1727974642490,-0.059814453,-0.9470825,0.14324951,1.0,6.234375,-2.53125
149,149,1727974642530,0.0063476562,-1.0049438,0.18939209,-2.265625,10.515625,-7.171875
150,150,1727974642570,-0.05053711,-0.9793091,0.18157959,1.46875,13.21875,-7.359375
151,151,1727974642610,0.0061035156,-0.99884033,0.22601318,-3.875,11.046875,-3.234375
152,152,1727974642650,-0.1508789,-1.1223755,0.3258667,-8.9375,9.171875,-10.828125
153,153,1727974642690,-0.24658203,-1.239563,-0.023254395,-5.28125,-3.34375,-9.90625
154,154,1727974642730,0.3564453,-1.4155884,-0.061584473,-13.28125,6.984375,3.21875
155,155,1727974642770,0.052246094,-1.2276001,-0.1404419,-1.21875,-1.0,0.78125
156,156,1727974642810,-0.07104492,-0.65826416,0.054138184,-1.625,14.0625,-8.140625
157,157,1727974642850,-0.012207031,-0.7036743,-0.05255127,1.328125,12.34375,7.40625
158,158,1727974642890,0.27246094,-1.1448364,-0.20562744,6.234375,-12.3125,7.609375
159,159,1727974642930,0.016113281,-1.0720825,-0.034973145,7.453125,-13.1875,1.8125
160,160,1727974642970,-0.15844727,-0.8640747,0.043395996,2.4375,-2.65625,-1.671875
161,161,1727974643010,-0.08276367,-0.9417114,0.026306152,2.125,3.1875,3.59375
162,162,1727974643050,-0.04321289,-0.94537354,0.0040893555,1.671875,-0.359375,1.0
163,163,1727974643090,-0.022460938,-0.91973877,0.055358887,-0.625,-3.96875,-0.25
164,164,1727974643130,-0.07885742,-0.9570923,0.0848999,-0.90625,-4.6875,2.578125
165,165,1727974643170,-0.053466797,-0.9065552,0.07318115,0.0625,-4.28125,4.078125
166,166,1727974643210,-0.07788086,-0.93048096,0.093688965,-4.078125,-6.96875,3.828125
167,167,1727974643250,-0.095947266,-0.99346924,0.13421631,-2.203125,-3.609375,3.921875
168,168,1727974643290,-0.2043457,-0.9793091,0.1161499,-2.609375,0.96875,2.8125
169,169,1727974643330,-0.12792969,-0.97857666,0.17010498,-2.40625,-0.25,1.640625
170,170,1727974643370,-0.0087890625,-1.0523071,0.20111084,-1.953125,-3.546875,3.515625
171,171,1727974643410,-0.05419922,-1.0281372,0.1749878,9.515625,-12.09375,0.6875
172,172,1727974643450,-0.107910156,-1.265686,0.08538818,-3.203125,-23.71875,-2.015625
173,173,1727974643490,-0.06298828,-1.2427368,-0.043029785,-11.75,2.78125,-4.203125
174,174,1727974643530,0.26489258,-1.1216431,-0.07550049,-8.078125,10.984375,-3.0
175,175,1727974643570,0.26660156,-0.82940674,-0.06744385,6.4375,3.671875,2.625
176,176,1727974643610,-0.05078125,-0.8518677,0.07293701,11.015625,-3.859375,3.078125
177,177,1727974643650,-0.03466797,-1.123352,-0.10455322,13.84375,4.4375,-2.46875
178,178,1727974643690,0.30615234,-1.0012817,-0.023742676,5.84375,14.0625,2.59375
179,179,1727974643730,0.020751953,-0.8562622,0.050476074,6.140625,5.234375,-0.890625
180,180,1727974643770,-0.021728516,-0.8909302,0.07977295,9.59375,2.453125,0.921875
181,181,1727974643810,0.10571289,-1.0061646,0.047790527,3.578125,-2.59375,0.34375
182,182,1727974643850,0.0021972656,-0.90045166,0.04046631,2.59375,2.46875,-1.328125
183,183,1727974643890,-0.043945312,-0.8648071,0.07122803,0.3125,6.25,-2.65625
184,184,1727974643930,0.028320312,-0.9024048,0.12615967,5.328125,6.0,0.0
185,185,1727974643970,-0.0146484375,-0.9619751,0.16546631,2.640625,6.625,-2.859375
186,186,1727974644010,-0.061523438,-0.96173096,0.12860107,-0.375,7.6875,-5.96875
187,187,1727974644050,0.063964844,-0.9661255,0.059509277,7.5625,5.3125,-4.734375
188,188,1727974644090,-0.010498047,-1.1143188,0.14349365,0.0625,2.8125,-4.359375
189,189,1727974644130,-0.33520508,-1.0684204,0.13079834,-6.953125,10.375,-12.875
190,190,1727974644170,0.08569336,-1.3403931,-0.14385986,-7.796875,4.796875,-1.53125
191,191,1727974644210,0.26000977,-1.4458618,-0.24102783,-12.1875,5.3125,6.078125
192,192,1727974644250,-0.12695312,-0.77545166,-0.019348145,-13.78125,8.3125,-0.734375
193,193,1727974644290,-0.12695312,-0.6604614,-0.06744385,-9.125,19.5625,10.109375
194,194,1727974644330,0.27978516,-1.1192017,-0.24053955,6.9375,-3.890625,8.03125
195,195,1727974644370,0.10888672,-1.0681763,-0.13092041,9.984375,-12.984375,5.75
196,196,1727974644410,-0.23657227,-0.9590454,0.008483887,4.34375,-2.140625,-3.5
197,197,1727974644450,-0.08496094,-0.9151001,0.04486084,1.328125,5.859375,1.46875
198,198,1727974644490,0.020263672,-0.8977661,-0.046203613,3.546875,-3.5,2.484375
199,199,1727974644530,-0.10205078,-0.9055786,-0.022277832,5.09375,-5.875,2.171875
200,200,1727974644570,-0.05859375,-0.9273071,0.03289795,8.09375,-5.265625,4.859375
201,201,1727974644610,-0.019042969,-0.9336548,0.015563965,5.5625,-11.21875,6.734375
202,202,1727974644650,-0.11328125,-0.940979,0.03753662,-0.078125,-7.03125,4.34375
203,203,1727974644690,-0.14550781,-0.97369385,0.08001709,-2.625,-5.109375,4.453125
204,204,1727974644730,-0.15795898,-1.0012817,0.03265381,-3.375,-2.296875,4.015625
205,205,1727974644770,-0.22924805,-0.9961548,0.035827637,-6.84375,5.03125,-0.5
206,206,1727974644810,-0.056640625,-1.1165161,0.14715576,3.9375,-5.21875,-1.984375
207,207,1727974644850,0.041992188,-1.3276978,-0.030090332,-8.234375,-14.390625,-2.90625
208,208,1727974644890,-0.18457031,-1.1677856,-0.042541504,-5.65625,16.25,-2.734375
209,209,1727974644930,0.1418457,-1.1008911,-0.070373535,-7.359375,13.96875,-6.5625
210,210,1727974644970,0.2680664,-0.8945923,-0.097229004,-3.890625,-2.828125,-4.234375
211,211,1727974645010,0.14135742,-0.7918091,-0.011291504,2.1875,-10.765625,-3.75
212,212,1727974645050,0.087890625,-1.0635376,-0.09552002,-3.09375,-6.203125,-7.71875
213,213,1727974645090,0.05102539,-1.1245728,-0.08306885,-0.953125,6.0,-3.25
214,214,1727974645130,0.14941406,-0.9307251,-0.003967285,-4.40625,3.703125,-7.171875
215,215,1727974645170,0.125,-0.8640747,0.05657959,-1.34375,-2.890625,-5.546875
216,216,1727974645210,-0.037353516,-0.9312134,0.1227417,-1.875,-5.765625,2.578125
217,217,1727974645250,0.03491211,-0.8838501,0.024841309,1.140625,-5.234375,3.359375
218,218,1727974645290,0.0034179688,-0.9014282,0.077819824,1.953125,-1.765625,2.1875
219,219,1727974645330,-0.09008789,-0.89141846,0.11248779,2.515625,3.3125,-1.9375
220,220,1727974645370,-0.044433594,-0.9102173,0.15887451,0.28125,4.828125,-2.796875
221,221,1727974645410,-0.07421875,-0.9356079,0.16400146,-1.921875,5.28125,-4.1875
222,222,1727974645450,-0.025390625,-0.98809814,0.16375732,-1.953125,5.125,-4.640625
223,223,1727974645490,0.15429688,-1.1187134,0.17669678,-3.765625,-0.40625,-1.65625
224,224,1727974645530,-0.23242188,-1.1548462,0.2843628,-5.25,4.6875,-8.859375
225,225,1727974645570,-0.5012207,-1.0645142,0.29681396,-6.046875,15.078125,-7.640625
226,226,1727974645610,-0.001953125,-1.4517212,-0.14141846,-21.1875,6.75,-6.453125
227,227,1727974645650,0.31469727,-1.4138794,-0.1506958,-6.40625,26.84375,7.71875
228,228,1727974645690,0.1730957,-0.7227173,0.027770996,9.578125,8.8125,-0.3125
229,229,1727974645730,-0.026611328,-0.50372314,0.04046631,-1.609375,7.890625,5.078125
230,230,1727974645770,0.06518555,-1.1575317,-0.13092041,5.90625,-2.234375,7.71875
231,231,1727974645810,0.06591797,-1.1240845,-0.101135254,12.9375,-2.609375,6.78125
232,232,1727974645850,-0.045654297,-0.8567505,-0.013977051,4.96875,-4.046875,-1.75
233,233,1727974645890,0.032958984,-0.96343994,0.024841309,5.1875,-6.109375,0.609375
234,234,1727974645930,-0.03466797,-0.9429321,0.031677246,9.0,-6.90625,6.09375
235,235,1727974645970,-0.12158203,-0.87701416,0.023376465,8.671875,-11.640625,0.34375
236,236,1727974646010,-0.07519531,-0.9883423,0.025817871,6.21875,-7.734375,2.1875
237,237,1727974646050,-0.115234375,-0.9800415,0.04168701,4.875,-2.53125,5.171875
238,238,1727974646090,-0.06225586,-0.9290161,0.06903076,4.734375,-7.40625,5.984375
239,239,1727974646130,-0.057861328,-0.88067627,0.08905029,0.328125,-5.203125,3.9375
240,240,1727974646170,-0.16259766,-1.0005493,0.11175537,-2.140625,-3.546875,6.28125
241,241,1727974646210,-0.0871582,-0.9834595,0.06585693,-0.0625,0.40625,4.515625
242,242,1727974646250,-0.031982422,-1.0322876,0.121276855,-5.109375,-10.40625,3.65625
243,243,1727974646290,0.06542969,-1.1443481,0.13006592,6.484375,-19.890625,-0.859375
244,244,1727974646330,-0.16894531,-1.4412231,-0.02545166,1.265625,-14.421875,-2.1875
245,245,1727974646370,-0.018798828,-1.2288208,-0.21954346,-4.859375,7.984375,-0.90625
246,246,1727974646410,0.37841797,-1.0618286,-0.18536377,-0.359375,10.125,-1.296875
247,247,1727974646450,0.036865234,-0.722229,-0.112854004,6.90625,-2.4375,5.4375
248,248,1727974646490,0.046142578,-0.7485962,-0.06109619,7.0625,-11.0,-1.390625
249,249,1727974646530,0.19335938,-1.0894165,-0.2107544,3.90625,2.171875,-3.21875
250,250,1727974646570,0.09838867,-1.0105591,-0.11871338,2.046875,7.109375,-1.765625
251,251,1727974646610,0.043701172,-0.90216064,-0.05279541,-4.140625,7.484375,-7.59375
252,252,1727974646650,0.14868164,-0.92315674,-0.0256958,-8.65625,1.875,-2.421875
253,253,1727974646690,0.007080078,-0.95440674,0.008239746,-1.921875,-0.171875,-1.09375
254,254,1727974646730,0.0009765625,-0.89263916,-0.019592285,0.0625,4.0625,-0.390625
255,255,1727974646770,0.03540039,-0.91119385,-0.008117676,-1.015625,2.421875,0.5
256,256,1727974646810,-0.025146484,-0.9612427,0.043884277,1.9375,5.328125,-2.296875
257,257,1727974646850,-0.018554688,-0.96051025,0.059753418,3.4375,5.53125,-1.21875
258,258,1727974646890,-0.0014648438,-0.92022705,0.08441162,0.46875,7.34375,-0.75
259,259,1727974646930,-0.021484375,-0.98272705,0.09637451,-4.71875,5.71875,-1.6875
260,260,1727974646970,-0.015136719,-0.987854,0.070007324,-0.75,5.484375,-3.59375
261,261,1727974647010,-0.005859375,-1.0513306,0.09637451,-2.453125,3.03125,-1.46875
262,262,1727974647050,-0.3371582,-1.1438599,0.16522217,-1.28125,11.265625,-12.859375
263,263,1727974647090,-0.27856445,-0.9949341,0.11126709,-7.03125,22.703125,-15.140625
264,264,1727974647130,0.19360352,-1.3162231,0.007507324,-8.125,6.0625,-6.8125
265,265,1727974647170,0.08959961,-1.2124634,-0.16119385,-3.921875,2.3125,4.84375
266,266,1727974647210,0.17553711,-0.9517212,-0.12823486,-4.921875,8.390625,7.734375
267,267,1727974647250,-0.14672852,-0.62506104,-0.022766113,-2.046875,18.765625,-0.453125
268,268,1727974647290,0.09765625,-1.0401001,-0.15435791,0.203125,7.5625,11.75
269,269,1727974647330,0.28076172,-1.2192993,-0.24395752,10.203125,-8.078125,11.21875
270,270,1727974647370,-0.09716797,-0.8945923,-0.012023926,1.65625,-7.65625,-1.015625
271,271,1727974647410,-0.014404297,-0.9607544,0.034118652,-2.796875,-2.625,0.25
272,272,1727974647450,0.0056152344,-0.93048096,-0.016662598,-2.21875,-4.078125,7.1875
273,273,1727974647490,-0.08691406,-0.86260986,-0.022521973,2.265625,-4.21875,3.1875
274,274,1727974647530,-0.05444336,-0.9795532,0.049987793,0.578125,-6.953125,3.078125
275,275,1727974647570,-0.016845703,-0.95977783,0.08270264,-2.90625,-5.21875,4.4375
276,276,1727974647610,-0.09716797,-0.9507446,0.08856201,-3.140625,-8.015625,3.4375
277,277,1727974647650,-0.092041016,-0.954895,0.10882568,-5.421875,-6.890625,5.109375
278,278,1727974647690,-0.084228516,-0.9524536,0.10662842,-6.265625,-7.828125,3.6875
279,279,1727974647730,-0.111816406,-1.0022583,0.050720215,-7.359375,-3.890625,3.4375
280,280,1727974647770,-0.08569336,-0.99298096,0.13885498,-7.015625,-7.546875,-2.90625
281,281,1727974647810,0.025146484,-1.1074829,0.109558105,-7.53125,-19.953125,-6.46875
282,282,1727974647850,0.011230469,-1.2800903,0.059020996,-20.828125,-5.4375,-4.625
283,283,1727974647890,0.06640625,-1.2473755,-0.03253174,-16.125,5.75,-6.046875
284,284,1727974647930,0.26416016,-1.1548462,-0.06060791,-3.3125,0.6875,-2.484375
285,285,1727974647970,0.084228516,-0.7678833,-0.018371582,7.109375,1.0625,-1.546875
286,286,1727974648010,0.15600586,-0.7288208,0.06976318,0.75,-6.296875,3.40625
287,287,1727974648050,0.15600586,-1.173645,0.085876465,-7.390625,-8.0625,1.15625
288,288,1727974648090,0.040771484,-1.1057739,0.042175293,4.6875,6.828125,0.234375
289,289,1727974648130,0.125,-0.87457275,0.085876465,4.59375,8.15625,-0.859375
290,290,1727974648170,0.0925293,-0.9089966,0.10638428,0.984375,-0.90625,2.015625
291,291,1727974648210,0.012939453,-0.940979,0.14569092,8.515625,3.3125,2.671875
292,292,1727974648250,0.047607422,-0.88116455,0.07562256,8.4375,4.6875,4.484375
293,293,1727974648290,0.024414062,-0.9385376,0.10638428,6.671875,5.1875,2.59375
294,294,1727974648330,0.024414062,-0.98321533,0.15130615,7.34375,9.1875,-0.78125
295,295,1727974648370,0.03564453,-0.9302368,0.10784912,0.734375,12.3125,-1.96875
296,296,1727974648410,0.033691406,-0.9951782,0.13275146,4.984375,8.296875,-4.765625
297,297,1727974648450,0.06713867,-0.99468994,0.109802246,4.296875,9.453125,-4.8125
298,298,1727974648490,0.13378906,-0.9631958,0.13909912,4.28125,7.703125,-4.015625
299,299,1727974648530,-0.010009766,-1.0552368,0.17181396,-0.421875,0.375,-7.234375
300,300,1727974648570,-0.019042969,-0.99468994,0.0099487305,6.421875,-27.390625,5.59375
301,301,1727974648610,-0.107421875,-0.98883057,0.050476074,8.640625,-25.46875,6.5
302,302,1727974648650,-0.12890625,-1.0095825,0.070739746,5.359375,-19.828125,5.25
303,303,1727974648690,-0.0949707,-0.9505005,0.07489014,2.703125,-15.921875,5.265625
304,304,1727974648730,-0.15209961,-0.92388916,0.10223389,0.484375,-14.28125,4.28125
305,305,1727974648770,-0.103271484,-0.9690552,0.1395874,-4.984375,-12.71875,3.234375
306,306,1727974648810,-0.03564453,-0.9590454,0.14544678,-3.640625,-11.5,3.484375
307,307,1727974648850,-0.044433594,-0.9763794,0.12591553,-4.75,-13.640625,3.28125
308,308,1727974648890,-0.04321289,-1.0044556,0.17425537,-2.09375,-8.078125,5.453125
309,309,1727974648930,-0.11767578,-0.9570923,0.24847412,-3.8125,-13.546875,1.859375
310,310,1727974648970,-0.028564453,-1.2202759,0.124694824,3.953125,-25.640625,3.296875
311,311,1727974649010,0.05883789,-1.348938,0.1005249,-3.578125,-24.265625,3.28125
312,312,1727974649050,0.007080078,-1.1497192,-0.06085205,-9.96875,4.765625,-1.765625
313,313,1727974649090,0.068115234,-0.9920044,-0.14312744,8.203125,-1.484375,2.125
314,314,1727974649130,0.1706543,-0.67437744,-0.11456299,15.53125,-10.703125,1.015625
315,315,1727974649170,0.19604492,-0.93756104,-0.06719971,4.15625,-9.484375,2.25
316,316,1727974649210,0.26708984,-1.1460571,-0.07525635,0.984375,-6.640625,-0.1875
317,317,1727974649250,-0.047607422,-1.0352173,-0.009094238,4.25,0.484375,-7.28125
318,318,1727974649290,0.0087890625,-0.8833618,-0.028625488,4.328125,2.1875,-5.640625
319,319,1727974649330,0.27026367,-0.9348755,0.018249512,-3.234375,-1.796875,0.796875
320,320,1727974649370,0.13574219,-0.9817505,0.06317139,1.671875,-4.75,-0.53125
321,321,1727974649410,0.036132812,-0.91241455,0.07220459,2.09375,0.0625,2.109375
322,322,1727974649450,-0.010253906,-0.8640747,0.051940918,1.0625,-0.453125,-0.171875
323,323,1727974649490,0.021728516,-0.9036255,0.050476074,1.125,-4.578125,-2.703125
324,324,1727974649530,0.013183594,-0.8870239,0.08099365,0.875,5.234375,-3.96875
325,325,1727974649570,-0.08129883,-0.8892212,0.10882568,-0.1875,9.25,-6.078125
326,326,1727974649610,0.048828125,-1.022522,0.039001465,0.21875,8.359375,-8.234375
327,327,1727974649650,0.12060547,-1.0974731,0.16595459,-1.703125,5.28125,-6.90625
328,328,1727974649690,-0.24047852,-1.1489868,0.19769287,-5.796875,5.734375,-13.921875
329,329,1727974649730,-0.07861328,-1.2402954,-0.00030517578,-10.9375,-1.953125,-13.328125
330,330,1727974649770,0.23095703,-1.2822876,-0.128479,-12.875,1.234375,0.796875
331,331,1727974649810,0.09643555,-1.0864868,-0.12384033,-7.203125,1.90625,2.1875
332,332,1727974649850,-0.13354492,-0.6897583,-0.010803223,-9.921875,21.859375,-1.453125
333,333,1727974649890,0.05493164,-0.83795166,-0.06402588,-0.21875,19.109375,7.5625
334,334,1727974649930,0.3359375,-1.1848755,-0.21685791,11.625,-7.453125,6.453125
335,335,1727974649970,-0.061523438,-1.0784302,-0.074035645,2.828125,-1.828125,1.96875
336,336,1727974650010,-0.1015625,-0.8936157,0.07269287,-0.765625,3.765625,-2.90625
337,337,1727974650050,-0.004638672,-0.81451416,0.055847168,-2.6875,-1.625,1.28125
338,338,1727974650090,0.044921875,-0.9043579,-0.035705566,0.8125,-4.3125,0.578125
339,339,1727974650130,0.01928711,-0.98638916,0.004333496,2.1875,-6.859375,1.375
340,340,1727974650170,-0.059326172,-0.98516846,0.028015137,3.203125,-5.875,3.296875
341,341,1727974650210,-0.088134766,-0.9578247,0.09832764,1.5625,-2.0,2.5
342,342,1727974650250,-0.03491211,-0.9536743,0.11810303,0.40625,-4.96875,4.03125
343,343,1727974650290,-0.053466797,-0.9421997,0.09588623,-1.65625,-7.234375,2.96875
344,344,1727974650330,-0.08300781,-1.0054321,0.06439209,-0.140625,-6.5625,3.703125
345,345,1727974650370,-0.075927734,-1.0159302,0.11907959,-4.6875,-4.703125,4.40625
346,346,1727974650410,-0.07519531,-1.0149536,0.18231201,-3.375,-2.359375,1.59375
347,347,1727974650450,-0.010253906,-1.0449829,0.22576904,-7.125,-7.21875,-0.15625
348,348,1727974650490,-0.061767578,-1.0964966,0.16571045,-0.328125,-26.890625,-1.328125
349,349,1727974650530,-0.037109375,-1.2417603,0.0040893555,-6.84375,-13.421875,-3.65625
350,350,1727974650570,0.053222656,-1.1641235,0.03778076,-20.265625,10.109375,-5.25
351,351,1727974650610,0.17578125,-1.1277466,-0.113586426,-12.28125,-1.640625,-3.171875
352,352,1727974650650,0.18481445,-0.7329712,-0.074035645,5.046875,-3.1875,5.5625
353,353,1727974650690,0.08496094,-0.76348877,0.04046631,1.578125,-10.6875,2.078125
354,354,1727974650730,0.1772461,-1.1902466,0.0770874,-2.703125,-4.328125,0.96875
355,355,1727974650770,-0.012939453,-1.0662231,0.04827881,5.46875,0.609375,0.390625
356,356,1727974650810,0.022216797,-0.8533325,0.031677246,4.0,4.1875,-2.078125
357,357,1727974650850,0.15209961,-0.9187622,0.13250732,-0.15625,3.046875,-0.96875
358,358,1727974650890,0.041992188,-0.8965454,0.11053467,0.984375,-2.46875,0.6875
359,359,1727974650930,0.068359375,-0.9170532,0.12298584,0.109375,-0.859375,2.25
360,360,1727974650970,-0.001953125,-0.9356079,0.14422607,0.71875,2.546875,0.3125
361,361,1727974651010,-0.021484375,-0.88946533,0.19281006,1.84375,5.125,-2.15625
362,362,1727974651050,-0.06274414,-0.9221802,0.21282959,-0.875,4.359375,-5.625
363,363,1727974651090,-0.03564453,-0.92803955,0.23309326,-2.78125,10.65625,-9.390625
364,364,1727974651130,0.049804688,-0.9768677,0.16400146,-2.703125,4.515625,-8.046875
365,365,1727974651170,0.1538086,-1.0718384,0.27142334,-1.109375,-3.40625,-0.03125
366,366,1727974651210,-0.34326172,-1.1404419,0.31219482,-1.265625,7.75,-12.453125
367,367,1727974651250,-0.20214844,-1.2359009,0.08905029,1.28125,6.1875,-12.546875
368,368,1727974651290,0.51782227,-1.4026489,0.035583496,-8.078125,-4.4375,-1.109375
369,369,1727974651330,-0.07714844,-1.0691528,0.030212402,11.71875,-4.609375,4.25
370,370,1727974651370,-0.09399414,-0.81207275,0.06365967,-5.4375,11.578125,-1.9375
371,371,1727974651410,-0.044677734,-0.7930298,-0.08282471,5.75,17.6875,6.5625
372,372,1727974651450,0.23925781,-0.99664307,-0.112854004,7.859375,-2.703125,8.734375
373,373,1727974651490,0.13720703,-1.1404419,-0.12750244,2.703125,-9.15625,4.8125
374,374,1727974651530,-0.14477539,-0.9734497,0.0004272461,6.59375,2.65625,-2.046875
375,375,1727974651570,0.03955078,-0.8423462,0.09442139,4.5625,1.5,2.46875
376,376,1727974651610,0.044677734,-0.8916626,0.04876709,2.03125,-9.59375,3.359375
377,377,1727974651650,-0.10888672,-0.92755127,0.036315918,5.015625,-6.75,1.5625
378,378,1727974651690,-0.09814453,-0.9668579,0.031921387,8.4375,-5.359375,4.828125
379,379,1727974651730,-0.05493164,-0.93951416,0.08734131,6.171875,-3.6875,3.3125
380,380,1727974651770,-0.048339844,-0.942688,0.11004639,4.140625,-3.84375,2.921875
381,381,1727974651810,-0.036132812,-0.95391846,0.09075928,1.265625,-6.921875,3.65625
382,382,1727974651850,-0.056640625,-0.98687744,0.07147217,0.0625,-7.109375,4.453125
383,383,1727974651890,-0.111816406,-1.046936,0.08465576,1.046875,-3.09375,1.40625
384,384,1727974651930,-0.12646484,-1.0718384,0.16009521,-5.140625,-2.03125,-0.8125
385,385,1727974651970,-0.06542969,-1.0662231,0.2020874,-0.75,-8.59375,-1.8125
386,386,1727974652010,-0.13305664,-1.298645,0.035339355,-4.1875,-20.25,-1.515625
387,387,1727974652050,-0.11645508,-1.1865845,-0.112854004,-12.953125,10.625,-5.796875
388,388,1727974652090,0.18383789,-1.0786743,-0.11920166,-2.421875,13.9375,-6.046875
389,389,1727974652130,0.35302734,-0.7559204,-0.11578369,5.90625,6.34375,3.109375
390,390,1727974652170,0.15429688,-0.76226807,-0.047424316,8.90625,-16.0625,2.9375
391,391,1727974652210,-0.016601562,-1.1438599,-0.0256958,7.875,-9.09375,-3.234375
392,392,1727974652250,0.15039062,-1.062561,-0.065979004,3.890625,5.640625,1.328125
393,393,1727974652290,0.07104492,-0.8328247,-0.019104004,1.4375,5.53125,-2.703125
394,394,1727974652330,0.016357422,-0.9404907,0.05657959,1.96875,-0.8125,-0.046875
395,395,1727974652370,0.026123047,-0.89971924,0.07220459,4.015625,-0.546875,0.3125
396,396,1727974652410,0.10986328,-0.92022705,0.0368042,-0.109375,0.234375,3.859375
397,397,1727974652450,-0.026123047,-0.93463135,0.0927124,0.328125,1.953125,2.5625
398,398,1727974652490,-0.048095703,-0.9229126,0.07098389,2.890625,1.234375,0.078125
399,399,1727974652530,0.0017089844,-0.9385376,0.08026123,1.015625,4.75,-1.375
400,400,1727974652570,-0.024658203,-1.0227661,0.13494873,-2.546875,5.890625,-4.265625
401,401,1727974652610,-0.020507812,-1.045227,0.13861084,-1.890625,7.40625,-5.25
402,402,1727974652650,-0.022949219,-1.0317993,0.17279053,-3.453125,9.46875,-4.65625
403,403,1727974652690,-0.13134766,-1.0657349,0.23431396,-11.546875,14.34375,-9.046875
404,404,1727974652730,-0.18334961,-1.2210083,0.07977295,-8.6875,5.5,-13.375
405,405,1727974652770,0.27294922,-1.4036255,-0.10650635,-10.25,5.5625,-5.015625
406,406,1727974652810,0.09350586,-1.1096802,-0.124816895,-8.59375,-0.359375,3.21875
407,407,1727974652850,-0.08984375,-0.6729126,-0.028381348,-12.234375,23.15625,-2.90625
408,408,1727974652890,-0.07763672,-0.75494385,-0.051818848,-2.046875,23.734375,6.84375
409,409,1727974652930,0.3395996,-1.1848755,-0.15142822,7.171875,-6.234375,7.78125
410,410,1727974652970,0.064941406,-1.0864868,-0.09136963,3.09375,-9.59375,6.453125
411,411,1727974653010,-0.20654297,-0.83062744,0.0770874,-1.953125,3.171875,-5.859375
412,412,1727974653050,0.00048828125,-0.87286377,0.07635498,2.875,4.25,3.859375
413,413,1727974653090,0.028808594,-0.9212036,0.008239746,2.703125,-5.65625,4.578125
414,414,1727974653130,-0.056152344,-0.9380493,0.032165527,3.296875,-4.640625,1.984375
415,415,1727974653170,-0.031982422,-1.0064087,0.101989746,0.109375,-4.875,2.734375
416,416,1727974653210,-0.05493164,-0.9636841,0.098083496,3.015625,-5.578125,2.734375
417,417,1727974653250,-0.044433594,-0.9224243,0.12030029,0.453125,-8.15625,5.078125
418,418,1727974653290,-0.08178711,-0.9573364,0.1437378,-1.296875,-9.84375,7.109375
419,419,1727974653330,-0.07421875,-1.0193481,0.10882568,0.203125,-7.546875,6.453125
420,420,1727974653370,-0.17407227,-1.0098267,0.12713623,-5.40625,-3.359375,2.15625
421,421,1727974653410,-0.045654297,-1.0942993,0.22259521,-1.875,-8.453125,-0.28125
422,422,1727974653450,-0.011474609,-1.2063599,0.14422607,-2.546875,-16.296875,-5.765625
423,423,1727974653490,-0.17285156,-1.2141724,0.08441162,-15.75,5.9375,-5.515625
424,424,1727974653530,-0.088378906,-1.0984497,-0.029846191,-6.609375,16.359375,-9.359375
425,425,1727974653570,0.19995117,-0.97198486,-0.05645752,-2.90625,12.1875,-2.515625
426,426,1727974653610,0.2319336,-0.7070923,-0.057434082,6.421875,5.59375,-2.390625
427,427,1727974653650,0.13549805,-0.97198486,-0.030578613,3.453125,-4.328125,-0.5
428,428,1727974653690,0.12890625,-1.2195435,0.015563965,1.0,7.3125,0.71875
429,429,1727974653730,0.08300781,-1.0496216,0.027770996,3.15625,10.3125,-3.59375
430,430,1727974653770,0.009765625,-0.83795166,0.08001709,4.734375,6.5625,-5.96875
431,431,1727974653810,0.15673828,-0.9043579,0.14349365,3.28125,-0.4375,1.390625
432,432,1727974653850,0.032714844,-0.93951416,0.11175537,5.234375,-8.15625,2.109375
433,433,1727974653890,0.07055664,-0.9146118,0.101989746,3.84375,-4.921875,6.296875
434,434,1727974653930,0.018554688,-0.9170532,0.121520996,4.953125,-5.359375,0.40625
435,435,1727974653970,-0.06958008,-0.9277954,0.13494873,7.109375,-2.953125,1.25
436,436,1727974654010,-0.009521484,-0.93951416,0.12347412,4.71875,-0.53125,0.40625
437,437,1727974654050,-0.06347656,-0.98028564,0.17303467,0.359375,6.78125,-5.328125
438,438,1727974654090,-0.079589844,-0.9817505,0.14202881,4.765625,11.3125,-7.34375
439,439,1727974654130,0.09106445,-1.055481,0.20916748,-0.484375,10.296875,-3.9375
440,440,1727974654170,-0.19628906,-1.1760864,0.22625732,-2.515625,6.859375,-13.5
441,441,1727974654210,-0.10986328,-1.3538208,-0.0022583008,-15.375,-0.53125,-8.671875
442,442,1727974654250,0.3671875,-1.310852,-0.015197754,-6.53125,0.765625,12.09375
443,443,1727974654290,0.036132812,-1.0159302,-0.09625244,-3.8125,-11.40625,-5.484375
444,444,1727974654330,-0.14697266,-0.7329712,0.030456543,-7.15625,13.640625,0.140625
445,445,1727974654370,0.05419922,-0.8130493,-0.17755127,2.328125,8.0,10.703125
446,446,1727974654410,0.22192383,-1.1067505,-0.19854736,15.03125,-7.984375,4.484375
447,447,1727974654450,0.051513672,-1.0811157,-0.07476807,11.203125,-15.453125,3.171875
448,448,1727974654490,-0.07373047,-0.9360962,0.0067749023,6.171875,-8.5625,-0.28125
449,449,1727974654530,-0.14208984,-0.8694458,0.026306152,2.640625,-3.875,2.984375
450,450,1727974654570,-0.020996094,-0.90167236,-0.049621582,3.765625,-3.25,0.1875
451,451,1727974654610,-0.0390625,-0.927063,0.00091552734,2.03125,-6.09375,1.21875
452,452,1727974654650,-0.1015625,-0.956604,0.05340576,3.4375,-6.265625,1.953125
453,453,1727974654690,-0.023925781,-0.9512329,0.077819824,1.34375,-6.203125,2.953125
454,454,1727974654730,-0.0078125,-0.960022,0.07196045,-3.1875,-8.15625,3.03125
455,455,1727974654770,-0.10913086,-0.9680786,0.066589355,-4.203125,-2.828125,4.921875
456,456,1727974654810,-0.10229492,-1.0003052,0.086364746,-1.765625,-1.0,2.75
457,457,1727974654850,-0.15795898,-1.0117798,0.105895996,-6.4375,0.140625,0.625
458,458,1727974654890,-0.068847656,-1.0811157,0.21185303,-6.171875,-3.21875,-0.453125
459,459,1727974654930,-0.03173828,-1.0195923,0.21429443,-3.25,-6.484375,-1.984375
460,460,1727974654970,-0.1616211,-1.2764282,0.078308105,4.015625,-15.421875,-3.953125
461,461,1727974655010,-0.052246094,-1.2337036,-0.0947876,-3.8125,2.078125,0.734375
462,462,1727974655050,0.3059082,-1.0606079,-0.19708252,-8.140625,8.859375,-2.453125
463,463,1727974655090,0.12133789,-0.7227173,-0.13775635,4.328125,3.921875,-3.453125
464,464,1727974655130,-0.0009765625,-0.736145,-0.10284424,5.796875,-8.546875,0.625
465,465,1727974655170,0.31958008,-1.2119751,0.011169434,0.21875,-10.46875,-6.53125
466,466,1727974655210,0.12524414,-1.1321411,0.0038452148,-2.890625,-0.109375,-0.25
467,467,1727974655250,-0.16796875,-0.82598877,-0.023986816,4.09375,7.015625,-4.765625
468,468,1727974655290,0.060302734,-0.83917236,0.0045776367,0.5,1.296875,2.046875
469,469,1727974655330,0.06689453,-0.95880127,0.062194824,1.15625,2.609375,-0.671875
470,470,1727974655370,0.013671875,-0.944397,0.06097412,1.421875,6.828125,2.9375
471,471,1727974655410,-0.004638672,-0.9534302,0.06976318,1.328125,1.671875,0.609375
472,472,1727974655450,-0.083496094,-0.9570923,0.093444824,2.375,6.796875,-1.890625
473,473,1727974655490,-0.025634766,-0.8657837,0.1408081,-0.796875,12.46875,-1.53125
474,474,1727974655530,0.01928711,-0.97540283,0.1605835,-4.390625,6.171875,-4.296875
475,475,1727974655570,-0.013183594,-1.0310669,0.113464355,-4.609375,5.75,-3.703125
476,476,1727974655610,0.038330078,-1.0003052,0.15716553,0.0,7.546875,-0.328125
477,477,1727974655650,-0.15942383,-1.1260376,0.24578857,-7.953125,5.8125,-4.90625
478,478,1727974655690,-0.3569336,-1.052063,0.18792725,-10.765625,15.375,-10.09375
479,479,1727974655730,0.09423828,-1.2852173,0.049987793,-22.640625,13.546875,-3.75
480,480,1727974655770,0.18286133,-1.3442993,-0.023742676,-16.640625,9.15625,5.96875
481,481,1727974655810,0.013183594,-1.0056763,0.06072998,-4.3125,7.921875,3.6875
482,482,1727974655850,-0.17578125,-0.49005127,0.049987793,-2.296875,24.25,0.03125
483,483,1727974655890,0.08081055,-0.9751587,-0.14019775,-3.03125,8.265625,8.8125
484,484,1727974655930,0.33496094,-1.2827759,-0.0869751,12.40625,-9.078125,7.953125
485,485,1727974655970,-0.15429688,-0.9627075,0.04168701,10.015625,-4.078125,-1.25
486,486,1727974656010,-0.05419922,-0.8255005,0.081726074,5.640625,4.8125,-0.515625
487,487,1727974656050,0.099121094,-0.89556885,0.058532715,2.65625,-0.15625,5.6875
488,488,1727974656090,-0.11694336,-0.9295044,0.0368042,5.59375,-4.6875,4.078125
489,489,1727974656130,-0.03955078,-0.96051025,0.07098389,5.140625,-3.5625,4.03125
490,490,1727974656170,0.0029296875,-0.98101807,0.08001709,3.1875,-2.96875,5.328125
491,491,1727974656210,-0.060791016,-0.95318604,0.1251831,2.328125,-6.640625,4.1875
492,492,1727974656250,-0.048339844,-0.9553833,0.14788818,-1.546875,-7.078125,4.546875
493,493,1727974656290,-0.08496094,-0.9673462,0.14666748,-3.234375,-8.265625,4.4375
494,494,1727974656330,-0.068359375,-0.94122314,0.10809326,-1.703125,-3.671875,3.09375
495,495,1727974656370,-0.07104492,-1.0007935,0.18377686,-4.609375,-2.234375,2.3125
496,496,1727974656410,-0.057128906,-1.076477,0.27020264,-3.65625,-7.984375,-1.671875
497,497,1727974656450,-0.001953125,-1.2095337,0.18353271,6.59375,-29.453125,-2.171875
498,498,1727974656490,-0.076171875,-1.3591919,0.032409668,-1.671875,-7.53125,-7.421875
499,499,1727974656530,0.103271484,-1.1797485,-0.03375244,-7.640625,5.015625,-5.796875
500,500,1727974656570,0.2565918,-1.0352173,-0.19586182,5.984375,-6.71875,-3.5
501,501,1727974656610,0.1730957,-0.66241455,-0.0635376,11.90625,-6.765625,2.0
502,502,1727974656650,-0.021240234,-0.9170532,-0.0037231445,2.046875,-9.375,-0.625
503,503,1727974656690,0.1977539,-1.2070923,-0.047180176,3.6875,0.265625,-0.109375
504,504,1727974656730,0.08569336,-0.95440674,-0.014953613,0.40625,6.84375,-3.234375
505,505,1727974656770,-0.015625,-0.84747314,0.010437012,4.890625,2.0,-3.921875
506,506,1727974656810,0.063964844,-0.93878174,0.06781006,2.953125,0.984375,-0.015625
507,507,1727974656850,0.034423828,-0.9258423,0.06048584,6.34375,2.234375,1.859375
508,508,1727974656890,0.012451172,-0.93218994,0.062927246,4.328125,5.75,2.078125
509,509,1727974656930,0.028320312,-0.93951416,0.086364746,4.984375,2.671875,-0.875
510,510,1727974656970,0.004638672,-0.9248657,0.1395874,5.390625,1.1875,-0.9375
511,511,1727974657010,-0.037841797,-0.92926025,0.121032715,2.796875,3.171875,-2.484375
512,512,1727974657050,-0.01928711,-0.9793091,0.14935303,0.59375,5.359375,-2.96875
513,513,1727974657090,-0.04296875,-0.92266846,0.040222168,9.84375,8.921875,2.65625
514,514,1727974657130,0.15917969,-1.0505981,0.10223389,-0.53125,2.75,3.328125
515,515,1727974657170,-0.32641602,-1.2056274,0.25897217,-3.109375,9.09375,-10.90625
516,516,1727974657210,-0.2861328,-1.0791626,0.10882568,1.046875,10.015625,-12.375
517,517,1727974657250,0.44213867,-1.3203735,-0.018615723,-11.921875,-3.3125,-0.171875
518,518,1727974657290,0.061035156,-1.2510376,-0.17437744,-6.640625,-3.140625,1.484375
519,519,1727974657330,-0.110839844,-0.7827759,-0.08843994,-3.15625,7.1875,-0.59375
520,520,1727974657370,-0.0126953125,-0.71588135,-0.02178955,-4.71875,20.1875,4.625
521,521,1727974657410,0.29418945,-1.0049438,-0.19171143,5.4375,3.609375,10.53125
522,522,1727974657450,0.15258789,-1.1052856,-0.22296143,7.84375,-8.109375,8.65625
523,523,1727974657490,-0.088378906,-1.0095825,-0.034973145,1.609375,-1.234375,1.34375
524,524,1727974657530,-0.040771484,-0.92974854,0.038513184,-3.078125,3.953125,1.90625
525,525,1727974657570,-0.012451172,-0.8843384,-0.05255127,1.84375,0.671875,0.625
526,526,1727974657610,0.012451172,-0.8826294,-0.011291504,2.5625,-1.359375,0.796875
527,527,1727974657650,0.07543945,-0.94000244,0.011169434,1.078125,-5.28125,3.96875
528,528,1727974657690,0.029052734,-0.9456177,0.010681152,1.140625,-9.328125,4.765625
529,529,1727974657730,-0.03540039,-0.9483032,0.02532959,-1.4375,-5.546875,2.578125
530,530,1727974657770,-0.072021484,-0.97735596,0.07220459,-3.59375,-5.96875,1.453125
531,531,1727974657810,-0.07788086,-0.9685669,0.09637451,-5.71875,-2.75,-0.015625
532,532,1727974657850,-0.09814453,-1.0154419,0.09832764,-5.9375,-1.96875,-0.046875
533,533,1727974657890,-0.08276367,-0.99298096,0.12615967,-7.625,1.25,-0.125
534,534,1727974657930,-0.0126953125,-0.99224854,0.2008667,-7.515625,-0.859375,-0.375
535,535,1727974657970,-0.015380859,-1.190979,0.11981201,-3.703125,-23.046875,-4.3125
536,536,1727974658010,0.0068359375,-1.3508911,0.039978027,-11.234375,-7.15625,-6.734375
537,537,1727974658050,0.07543945,-1.18219,-0.128479,-10.890625,13.140625,-5.8125
538,538,1727974658090,0.33129883,-0.90875244,-0.09991455,0.203125,5.890625,-1.484375
539,539,1727974658130,0.15698242,-0.67022705,-0.074523926,1.53125,-13.890625,3.015625
540,540,1727974658170,-0.072021484,-0.96051025,0.028015137,-0.609375,-5.75,-3.625
541,541,1727974658210,0.13134766,-1.2285767,-0.035461426,-2.265625,13.8125,-1.25
542,542,1727974658250,0.095214844,-0.9368286,-0.0022583008,5.03125,14.484375,-6.359375
543,543,1727974658290,0.046875,-0.862854,0.03387451,-4.375,9.921875,-3.3125
544,544,1727974658330,0.11303711,-1.0379028,0.08807373,-1.625,8.84375,-0.046875
545,545,1727974658370,-0.022460938,-0.9417114,0.082214355,-3.09375,13.328125,1.515625
546,546,1727974658410,0.027832031,-0.8777466,0.07147217,-1.421875,16.4375,0.0
547,547,1727974658450,0.10107422,-0.95562744,0.12298584,-2.84375,13.75,-0.9375
548,548,1727974658490,-0.028564453,-0.95928955,0.1449585,-2.140625,12.796875,-2.921875
549,549,1727974658530,0.14501953,-0.97784424,0.08660889,2.65625,11.046875,-1.03125
550,550,1727974658570,-0.03540039,-1.0149536,0.053894043,-0.28125,10.296875,3.203125
551,551,1727974658610,-0.01586914,-0.95977783,0.06756592,0.4375,13.75,-4.75
552,552,1727974658650,-0.052490234,-0.9019165,0.07513428,0.96875,17.34375,-2.40625
553,553,1727974658690,-0.0087890625,-0.9048462,0.07684326,-2.40625,13.4375,0.078125
554,554,1727974658730,-0.06298828,-0.9102173,0.093688965,-1.21875,17.703125,-2.828125
555,555,1727974658770,0.03564453,-0.9920044,0.117614746,-2.03125,17.84375,-4.03125
556,556,1727974658810,0.07861328,-0.98687744,0.14593506,-0.765625,8.40625,-6.3125
557,557,1727974658850,0.018554688,-1.02594,0.11932373,0.1875,1.859375,-1.140625
558,558,1727974658890,-0.026611328,-1.0779419,0.1876831,-2.0625,2.984375,-3.75
559,559,1727974658930,-0.25805664,-1.0361938,0.18597412,-8.8125,10.359375,-8.5
560,560,1727974658970,-0.14160156,-1.1311646,0.022644043,-6.109375,10.125,-8.453125
561,561,1727974659010,0.32617188,-1.2976685,-0.04547119,-8.765625,1.8125,-2.59375
562,562,1727974659050,0.020996094,-1.0845337,-0.034973145,6.703125,2.390625,2.25
563,563,1727974659090,-0.24731445,-0.9060669,0.117126465,-9.296875,19.34375,-7.3125
564,564,1727974659130,-0.18945312,-0.7744751,-0.097229004,-22.078125,36.109375,-0.96875
565,565,1727974659170,0.23413086,-1.0432739,-0.14263916,-0.390625,9.828125,6.140625
566,566,1727974659210,0.18701172,-1.1843872,-0.08526611,-4.953125,-2.578125,0.765625
567,567,1727974659250,-0.14282227,-1.0322876,-0.0071411133,2.734375,-0.203125,1.125
568,568,1727974659290,-0.1730957,-0.97662354,-0.030090332,3.59375,11.921875,-0.578125
569,569,1727974659330,-0.008300781,-0.8389282,-0.022033691,7.71875,8.734375,1.71875
570,570,1727974659370,0.022949219,-0.8838501,-0.020080566,1.828125,4.21875,0.03125
571,571,1727974659410,-0.09814453,-0.99835205,-0.005432129,1.578125,9.65625,2.46875
572,572,1727974659450,-0.021728516,-0.91290283,0.005554199,4.109375,5.328125,4.1875
573,573,1727974659490,0.048095703,-0.9365845,0.02532959,-0.953125,-0.90625,0.96875
574,574,1727974659530,-0.08325195,-0.96417236,0.04925537,1.578125,-5.34375,2.765625
575,575,1727974659570,-0.13476562,-0.95318604,0.09320068,1.203125,-2.890625,1.203125
576,576,1727974659610,-0.1472168,-0.9690552,0.13275146,-1.515625,-3.1875,1.28125
577,577,1727974659650,-0.123535156,-0.98931885,0.09881592,-5.765625,0.421875,1.6875
578,578,1727974659690,-0.08227539,-0.95758057,0.09661865,-7.109375,4.34375,2.640625
579,579,1727974659730,-0.06201172,-1.0220337,0.17572021,-8.671875,-0.046875,2.359375
580,580,1727974659770,-0.016601562,-1.0701294,0.2765503,-9.015625,-15.3125,-1.125
581,581,1727974659810,-0.09082031,-1.2210083,0.08514404,-0.921875,-32.703125,-1.1875
582,582,1727974659850,-0.07104492,-1.3828735,-0.049621582,2.84375,-14.390625,-6.53125
583,583,1727974659890,0.25097656,-0.94537354,-0.18341064,8.328125,13.078125,4.375
584,584,1727974659930,0.21240234,-0.60601807,-0.11578369,13.265625,-13.6875,-1.421875
585,585,1727974659970,0.00048828125,-0.9343872,-0.019348145,8.8125,-23.96875,2.46875
586,586,1727974660010,-0.0053710938,-1.2678833,-0.09942627,-6.28125,-6.3125,0.546875
587,587,1727974660050,0.17236328,-1.0654907,-0.02960205,0.875,17.984375,-3.328125
588,588,1727974660090,-0.05419922,-0.8279419,-0.0022583008,5.828125,16.40625,-6.328125
589,589,1727974660130,0.028808594,-0.8916626,0.066345215,6.40625,-3.125,4.109375
590,590,1727974660170,0.045898438,-0.9229126,0.01751709,7.71875,-2.15625,0.390625
591,591,1727974660210,-0.041259766,-0.9133911,0.018493652,3.703125,9.8125,2.5625
592,592,1727974660250,0.020751953,-0.91241455,0.019470215,4.640625,3.84375,0.671875
593,593,1727974660290,0.022216797,-1.0012817,0.06561279,2.328125,3.28125,-0.9375
594,594,1727974660330,-0.064208984,-0.91778564,0.10321045,1.71875,8.0,-3.921875
595,595,1727974660370,-0.064941406,-0.91778564,0.10467529,-0.71875,8.78125,-5.296875
596,596,1727974660410,-0.041259766,-0.9907837,0.078552246,1.125,8.359375,-7.140625
597,597,1727974660450,0.06542969,-1.0349731,0.049987793,0.765625,10.953125,-2.296875
598,598,1727974660490,-0.16430664,-1.0759888,0.1852417,-9.15625,12.4375,-9.609375
599,599,1727974660530,-0.31054688,-1.111145,0.09515381,-4.84375,10.203125,-13.4375
600,600,1727974660570,0.2890625,-1.4133911,-0.06793213,-18.328125,-4.015625,-0.265625
601,601,1727974660610,0.21972656,-1.2869263,-0.21148682,-9.609375,-6.515625,7.75
602,602,1727974660650,-0.23925781,-0.8303833,-0.085754395,-11.984375,-0.59375,-5.875
603,603,1727974660690,-0.12695312,-0.6819458,0.03387451,-9.484375,21.015625,4.921875
604,604,1727974660730,0.17749023,-0.9834595,-0.2341919,5.109375,3.84375,9.625
605,605,1727974660770,0.19555664,-1.097229,-0.18365479,9.90625,-6.875,5.15625
606,606,1727974660810,-0.13574219,-1.017395,-0.024230957,0.765625,-5.515625,-0.53125
607,607,1727974660850,-0.10888672,-0.9241333,0.0524292,-3.765625,3.203125,1.28125
608,608,1727974660890,-0.028320312,-0.89508057,-0.031555176,0.53125,0.0625,3.703125
609,609,1727974660930,-0.09326172,-0.88165283,-0.013244629,1.46875,-1.203125,1.171875
610,610,1727974660970,-0.106933594,-0.9746704,0.0368042,1.6875,-1.390625,3.546875
611,611,1727974661010,-0.051757812,-0.9483032,0.050476074,0.171875,-2.03125,3.640625
612,612,1727974661050,0.0009765625,-0.9517212,0.05633545,-2.65625,-4.546875,4.421875
613,613,1727974661090,-0.026611328,-0.9607544,0.070251465,-2.921875,-5.90625,2.984375
614,614,1727974661130,-0.1237793,-0.96710205,0.1461792,-3.640625,-4.859375,4.9375
615,615,1727974661170,-0.11669922,-1.0425415,0.08685303,0.1875,-4.765625,3.6875
616,616,1727974661210,-0.15283203,-0.9807739,0.17913818,-9.40625,0.546875,0.984375
617,617,1727974661250,-0.075683594,-1.0789185,0.27386475,-7.546875,-8.453125,-1.3125
618,618,1727974661290,0.008300781,-1.1152954,0.17303467,-7.15625,-22.53125,-1.625
619,619,1727974661330,-0.12939453,-1.2417603,0.051208496,-0.515625,-12.4375,-4.828125
620,620,1727974661370,-0.02368164,-1.116272,-0.006652832,-13.078125,7.328125,-5.0625
621,621,1727974661410,0.13745117,-1.0515747,-0.14141846,-6.609375,0.875,-3.421875
622,622,1727974661450,0.23242188,-0.70880127,-0.11871338,4.1875,-3.5625,1.109375
623,623,1727974661490,-0.08300781,-0.9089966,-0.0025024414,3.109375,-8.1875,-1.328125
624,624,1727974661530,0.14477539,-1.2693481,0.008728027,0.015625,3.984375,0.8125
625,625,1727974661570,0.060791016,-1.0723267,-0.011047363,2.5625,6.3125,-2.703125
626,626,1727974661610,-0.09057617,-0.8753052,0.038024902,3.40625,7.984375,-4.09375
627,627,1727974661650,0.11743164,-0.87945557,0.13885498,0.046875,8.3125,0.40625
628,628,1727974661690,-0.013183594,-0.91412354,0.10614014,1.84375,3.53125,2.0625
629,629,1727974661730,-0.017333984,-0.88848877,0.101745605,1.625,5.3125,3.9375
630,630,1727974661770,0.013427734,-0.91070557,0.14031982,-0.890625,5.796875,1.4375
631,631,1727974661810,-0.038330078,-0.91192627,0.13397217,2.375,6.109375,-0.0625
632,632,1727974661850,-0.061767578,-0.8970337,0.19598389,1.1875,10.59375,-0.3125
633,633,1727974661890,-0.07421875,-0.9976196,0.19866943,-2.203125,7.90625,-5.328125
634,634,1727974661930,-0.045654297,-1.0293579,0.1876831,-2.75,7.546875,-5.96875
635,635,1727974661970,0.0017089844,-1.0405884,0.22479248,-0.640625,7.5,-4.765625
636,636,1727974662010,-0.17675781,-1.0906372,0.30316162,-5.5625,10.90625,-8.0625
637,637,1727974662050,-0.2006836,-1.2359009,0.09075928,-6.59375,9.015625,-4.265625
638,638,1727974662090,0.32885742,-1.3096313,0.11883545,-8.0625,17.859375,9.40625
639,639,1727974662130,0.012207031,-1.1958618,0.03656006,1.890625,3.828125,8.875
640,640,1727974662170,-0.20092773,-0.84454346,0.18304443,0.59375,-2.0,-7.6875
641,641,1727974662210,-0.021728516,-0.87091064,0.04095459,-10.65625,15.5,4.03125
642,642,1727974662250,0.1586914,-0.7839966,-0.18023682,8.75,12.265625,10.171875
643,643,1727974662290,0.083496094,-0.9175415,-0.16241455,11.671875,-1.0625,1.234375
644,644,1727974662330,0.017333984,-1.0986938,-0.042541504,10.859375,1.109375,-1.140625
645,645,1727974662370,0.08251953,-1.0996704,-0.019592285,9.796875,-0.625,2.4375
646,646,1727974662410,-0.09741211,-0.90460205,0.051940918,11.15625,-0.03125,1.03125
647,647,1727974662450,-0.13842773,-0.8164673,0.032165527,7.71875,-1.671875,2.203125
648,648,1727974662490,0.0031738281,-0.95318604,-0.00982666,3.296875,-7.9375,1.59375
649,649,1727974662530,-0.05834961,-0.94537354,0.034606934,7.171875,-4.28125,2.546875
650,650,1727974662570,-0.12890625,-0.90338135,0.066345215,5.59375,-4.796875,4.390625
651,651,1727974662610,-0.03491211,-0.9421997,0.06951904,-1.78125,-7.625,3.609375
652,652,1727974662650,-0.038085938,-0.96588135,0.08514404,-3.390625,-4.15625,3.765625
653,653,1727974662690,-0.1887207,-0.96051025,0.0680542,-3.703125,-2.421875,5.5
654,654,1727974662730,-0.26586914,-1.0432739,0.15057373,-7.78125,-0.671875,-0.109375
655,655,1727974662770,-0.0017089844,-1.1621704,0.13348389,-1.28125,-7.203125,-4.109375
656,656,1727974662810,0.09448242,-1.3250122,-0.013000488,-18.515625,-22.453125,-1.328125
657,657,1727974662850,-0.03540039,-1.2888794,-0.03765869,-6.5,1.1875,-3.609375
658,658,1727974662890,0.16601562,-1.0957642,-0.112854004,-5.09375,11.671875,-6.140625
659,659,1727974662930,0.2006836,-0.6958618,-0.07672119,11.75,-1.78125,-0.796875
660,660,1727974662970,0.19360352,-0.9302368,-0.0022583008,0.046875,-16.34375,-0.609375
661,661,1727974663010,0.07446289,-1.1189575,-0.03741455,1.4375,-1.859375,-4.46875
662,662,1727974663050,0.096191406,-0.9578247,-0.024719238,-1.078125,4.578125,-1.859375
663,663,1727974663090,0.0871582,-0.89923096,0.012878418,1.53125,2.671875,-4.9375
664,664,1727974663130,0.049560547,-0.87701416,0.06365967,-0.03125,-0.296875,-0.171875
665,665,1727974663170,0.055419922,-0.9180298,0.08392334,-0.40625,1.21875,-1.609375
666,666,1727974663210,-0.028564453,-0.8875122,0.078308105,1.21875,2.78125,1.578125
667,667,1727974663250,0.013916016,-0.9356079,0.078063965,2.171875,2.453125,0.046875
668,668,1727974663290,0.012451172,-0.9212036,0.14105225,2.90625,5.390625,-1.375
669,669,1727974663330,-0.08178711,-0.91363525,0.1696167,0.65625,6.640625,-2.71875
670,670,1727974663370,-0.022460938,-0.97784424,0.17352295,-0.515625,5.5,-4.953125
671,671,1727974663410,0.028320312,-1.0203247,0.16033936,1.203125,-0.484375,-3.9375
672,672,1727974663450,0.0126953125,-1.0547485,0.15838623,1.71875,-0.359375,-2.0625
673,673,1727974663490,-0.30371094,-1.0842896,0.2477417,-3.25,6.71875,-8.875
674,674,1727974663530,-0.2685547,-1.0855103,0.15008545,-8.953125,12.625,-13.703125
675,675,1727974663570,0.16992188,-1.3467407,0.05657959,-19.109375,2.21875,-5.875
676,676,1727974663610,0.13305664,-1.2832642,-0.09527588,-4.140625,4.65625,5.65625
677,677,1727974663650,0.15600586,-0.87384033,-0.053771973,-1.0625,1.078125,3.46875
678,678,1727974663690,-0.05444336,-0.5862427,0.07171631,-2.0,12.71875,1.75
679,679,1727974663730,0.1105957,-1.02594,-0.13555908,2.5,-0.25,8.8125
680,680,1727974663770,0.22290039,-1.1924438,-0.11016846,10.453125,-13.984375,6.828125
681,681,1727974663810,-0.12646484,-0.95318604,0.02142334,2.09375,-10.671875,-0.5625
682,682,1727974663850,-0.013183594,-0.9678345,0.050476074,2.015625,-0.921875,2.1875
683,683,1727974663890,0.030517578,-0.8665161,0.03778076,2.953125,-8.640625,5.3125
684,684,1727974663930,-0.11279297,-0.9373169,0.06585693,0.765625,-5.71875,2.078125
685,685,1727974663970,-0.12084961,-0.98321533,0.086120605,2.078125,-4.734375,3.53125
686,686,1727974664010,-0.1340332,-0.91973877,0.09588623,1.328125,-1.09375,3.046875
687,687,1727974664050,-0.010009766,-0.92681885,0.12957764,-1.875,-1.21875,4.546875
688,688,1727974664090,-0.013916016,-0.93292236,0.13079834,-2.40625,-3.609375,3.0
689,689,1727974664130,-0.12060547,-0.9651489,0.13909912,-0.78125,-4.0,5.09375
690,690,1727974664170,-0.057373047,-1.0237427,0.16326904,-1.59375,-0.71875,3.546875
691,691,1727974664210,-0.14135742,-0.99053955,0.2387085,-4.21875,-1.90625,-1.109375
692,692,1727974664250,-0.12133789,-1.034729,0.2802124,-6.875,-3.296875,-3.3125
693,693,1727974664290,-0.0637207,-1.15094,0.16766357,-11.546875,-22.234375,-4.46875
694,694,1727974664330,-0.038330078,-1.3745728,0.024108887,-19.125,1.40625,-14.359375
695,695,1727974664370,0.083984375,-1.2761841,0.051940918,-9.125,14.8125,-11.1875
696,696,1727974664410,0.25317383,-0.91900635,-0.15386963,3.9375,3.203125,0.109375
697,697,1727974664450,0.1430664,-0.63360596,-0.05670166,12.78125,-7.3125,2.125
698,698,1727974664490,-0.029052734,-1.0100708,0.059753418,-3.03125,-7.9375,-2.734375
699,699,1727974664530,0.1015625,-1.2195435,0.028503418,4.984375,2.34375,1.625
700,700,1727974664570,-0.011474609,-0.92022705,0.02532959,8.34375,4.953125,-0.203125
701,701,1727974664610,0.008544922,-0.9138794,0.057800293,6.625,3.859375,-0.734375
702,702,1727974664650,0.07348633,-0.9714966,0.1251831,8.203125,0.734375,2.453125
703,703,1727974664690,-0.028320312,-0.91412354,0.109313965,7.796875,1.03125,4.203125
704,704,1727974664730,0.0009765625,-0.92071533,0.10418701,3.59375,4.25,1.765625
705,705,1727974664770,-0.06958008,-0.9104614,0.13616943,4.875,5.90625,-0.609375
706,706,1727974664810,-0.057373047,-0.911438,0.12567139,5.78125,4.640625,0.015625
707,707,1727974664850,-0.020019531,-0.9060669,0.13397217,2.890625,6.09375,-3.09375
708,708,1727974664890,-0.035888672,-0.94781494,0.17645264,-1.84375,7.5625,-4.03125
709,709,1727974664930,0.08691406,-1.0112915,0.11834717,-2.703125,0.015625,-1.28125
710,710,1727974664970,0.0029296875,-1.0811157,0.22259521,-0.9375,-8.34375,-0.53125
711,711,1727974665010,-0.31396484,-1.1519165,0.24822998,-3.40625,-6.59375,-5.90625
712,712,1727974665050,-0.14404297,-1.350647,0.059265137,-0.890625,-11.46875,-7.828125
713,713,1727974665090,0.18408203,-1.2271118,-0.029846191,-9.390625,-2.328125,2.984375
714,714,1727974665130,0.022705078,-1.0183716,0.05682373,1.203125,-14.8125,-2.40625
715,715,1727974665170,-0.02319336,-0.85357666,0.10662842,-5.578125,-10.65625,-7.421875
716,716,1727974665210,0.047607422,-0.75006104,-0.035217285,-0.046875,6.484375,4.578125
717,717,1727974665250,0.118652344,-0.942688,-0.26104736,11.765625,2.375,11.125
718,718,1727974665290,0.07006836,-1.116272,-0.17144775,13.890625,0.1875,7.28125
719,719,1727974665330,0.06542969,-1.0977173,-0.025939941,10.640625,-3.65625,4.515625
720,720,1727974665370,-0.025878906,-1.0593872,-0.010559082,4.734375,-5.078125,1.9375
721,721,1727974665410,-0.20019531,-0.86065674,-0.007873535,5.09375,0.015625,2.15625
722,722,1727974665450,-0.036132812,-0.881897,-0.025939941,1.140625,2.328125,1.09375
723,723,1727974665490,0.019042969,-0.96759033,0.002380371,2.0,0.203125,5.40625
724,724,1727974665530,-0.080078125,-0.88287354,0.019226074,1.6875,-1.015625,4.15625
725,725,1727974665570,-0.046142578,-0.9234009,0.049743652,-3.203125,-1.765625,2.84375
726,726,1727974665610,-0.09790039,-0.89801025,0.039733887,-1.0625,-2.390625,2.46875
727,727,1727974665650,-0.10668945,-0.8882446,0.07098389,-1.390625,1.640625,4.15625
728,728,1727974665690,-0.07446289,-1.0054321,0.13763428,-8.265625,6.484375,-0.828125
729,729,1727974665730,-0.06542969,-1.09552,0.08319092,-5.0,4.15625,3.90625
730,730,1727974665770,0.01953125,-1.083313,0.2111206,-1.28125,-9.40625,-0.9375
731,731,1727974665810,-0.040527344,-1.392395,0.04071045,-9.828125,-26.125,-9.46875
732,732,1727974665850,-0.0769043,-1.2544556,-0.062316895,-9.734375,11.875,-4.53125
733,733,1727974665890,0.21655273,-1.0420532,-0.16143799,-0.671875,12.515625,-2.28125
734,734,1727974665930,0.32177734,-0.69659424,-0.090148926,7.375,-5.859375,1.578125
735,735,1727974665970,-0.01586914,-0.83380127,-0.06744385,0.140625,-17.53125,1.328125
736,736,1727974666010,0.020751953,-1.2129517,-0.00982666,0.171875,4.765625,-3.890625
737,737,1727974666050,0.21386719,-1.0044556,-0.062805176,2.375,12.5,4.15625
738,738,1727974666090,0.018066406,-0.8533325,-0.022033691,2.203125,2.03125,-2.46875
739,739,1727974666130,0.043945312,-0.9507446,0.058532715,1.359375,1.703125,-0.515625
740,740,1727974666170,0.08935547,-0.92388916,0.09100342,1.59375,0.9375,-0.609375
741,741,1727974666210,0.0087890625,-0.9048462,0.053894043,1.421875,-2.09375,2.09375
742,742,1727974666250,-0.009765625,-0.9170532,0.0758667,0.921875,-0.5,-1.703125
743,743,1727974666290,0.020751953,-0.9365845,0.08441162,2.125,0.65625,-1.453125
744,744,1727974666330,-0.071777344,-0.9295044,0.08905029,1.8125,3.5,-2.1875
745,745,1727974666370,-0.0715332,-0.97979736,0.124694824,-1.84375,6.84375,-3.59375
746,746,1727974666410,-0.056640625,-1.0010376,0.13861084,-0.15625,9.515625,-6.421875
747,747,1727974666450,0.0036621094,-1.0066528,0.16619873,-3.703125,7.28125,-4.578125
748,748,1727974666490,-0.068359375,-1.0950317,0.21624756,-7.21875,3.71875,-5.921875
749,749,1727974666530,-0.2841797,-1.227356,0.109313965,-11.859375,5.25,-8.34375
750,750,1727974666570,0.14038086,-1.3208618,0.0053100586,-14.15625,7.828125,-0.640625
751,751,1727974666610,0.14575195,-1.1218872,0.00970459,-2.375,-2.625,3.234375
752,752,1727974666650,-0.044189453,-0.86798096,0.061462402,-5.8125,3.625,-3.34375
753,753,1727974666690,-0.10473633,-0.7180786,-0.050598145,-3.265625,18.921875,5.125
754,754,1727974666730,0.06518555,-1.0169067,-0.22320557,2.84375,16.28125,9.0
755,755,1727974666770,0.23876953,-1.1436157,-0.07281494,4.359375,-2.875,5.59375
756,756,1727974666810,0.025146484,-0.97198486,-0.02935791,4.109375,-1.53125,2.96875
757,757,1727974666850,-0.0925293,-0.98150635,-0.0154418945,2.359375,3.90625,2.015625
758,758,1727974666890,0.0068359375,-0.8723755,0.047302246,4.671875,2.46875,1.609375
759,759,1727974666930,-0.061767578,-0.86431885,0.038024902,0.53125,-0.03125,1.21875
