,Unnamed: 0,timestamp,accel_x,accel_y,accel_z,gyro_x,gyro_y,gyro_z
0,0,1729518440031,-0.17993164,-0.9192505,0.36761475,3.859375,6.65625,-0.984375
1,1,1729518440071,-0.23461914,-0.9024048,0.3756714,4.546875,5.203125,2.015625
2,2,1729518440111,-0.18017578,-0.8880005,0.37982178,6.34375,0.03125,1.8125
3,3,1729518440151,-0.09741211,-0.8970337,0.3908081,5.09375,-2.140625,2.6875
4,4,1729518440191,-0.13061523,-0.90753174,0.38104248,5.3125,-5.390625,5.734375
5,5,1729518440231,-0.1274414,-0.93536377,0.43841553,6.9375,-8.546875,8.625
6,6,1729518440271,-0.13696289,-0.90582275,0.42791748,6.796875,-12.515625,10.40625
7,7,1729518440311,-0.2097168,-0.8858032,0.40740967,8.09375,-12.875,9.140625
8,8,1729518440351,-0.2446289,-0.9053345,0.4179077,4.1875,-10.796875,9.96875
9,9,1729518440391,-0.2861328,-0.90509033,0.40301514,2.921875,-6.8125,8.390625
10,10,1729518440431,-0.22924805,-0.9343872,0.3998413,4.625,-8.703125,3.90625
11,11,1729518440471,-0.20141602,-0.95758057,0.39764404,7.703125,-5.453125,3.0
12,12,1729518440511,-0.25585938,-1.0339966,0.324646,5.671875,-9.125,1.65625
13,13,1729518440551,-0.23730469,-1.1965942,0.2616577,1.8125,-10.3125,-0.734375
14,14,1729518440591,-0.3635254,-1.239563,0.2987671,-3.859375,6.015625,-4.59375
15,15,1729518440631,-0.23242188,-1.1079712,0.19671631,8.46875,16.109375,-13.140625
16,16,1729518440671,0.031982422,-0.8760376,0.074401855,6.078125,-8.390625,-11.921875
17,17,1729518440711,0.3642578,-0.71588135,0.081726074,14.265625,-24.8125,-4.46875
18,18,1729518440751,0.29858398,-0.8064575,0.18035889,-13.703125,-17.5,16.203125
19,19,1729518440791,-0.38500977,-1.2451782,0.4171753,-21.890625,-10.546875,11.015625
20,20,1729518440831,-0.26953125,-0.9819946,0.4081421,1.4375,16.46875,-3.671875
21,21,1729518440871,0.011230469,-1.0276489,0.13812256,2.21875,1.265625,7.625
22,22,1729518440911,0.18701172,-0.7463989,0.22235107,-14.234375,4.125,6.09375
23,23,1729518440951,-0.12670898,-0.75787354,0.31048584,-1.09375,-3.3125,10.984375
24,24,1729518440991,-0.16381836,-0.8699341,0.42645264,-2.25,-5.984375,2.03125
25,25,1729518441031,-0.118896484,-0.8328247,0.401062,-9.234375,9.0625,3.140625
26,26,1729518441071,-0.11328125,-0.723938,0.46502686,-4.375,18.96875,-2.609375
27,27,1729518441111,0.017578125,-0.89801025,0.49383545,-7.84375,13.578125,-10.609375
28,28,1729518441151,0.095458984,-1.1001587,0.48065186,-12.46875,9.984375,-11.078125
29,29,1729518441191,-0.050048828,-1.085022,0.53411865,-15.90625,12.3125,-3.90625
30,30,1729518441231,-0.26342773,-1.3147583,0.5783081,-29.28125,12.953125,-9.9375
31,31,1729518441271,-0.12817383,-1.2935181,0.031188965,6.203125,29.0625,-4.0
32,32,1729518441311,-0.15991211,-1.0025024,-0.04815674,13.6875,35.75,-0.828125
33,33,1729518441351,-0.2529297,-0.74835205,0.05999756,-5.140625,41.359375,-2.1875
34,34,1729518441391,-0.23779297,-0.9043579,0.2831421,4.03125,22.453125,-22.875
35,35,1729518441431,-0.1237793,-0.9595337,0.33416748,10.828125,32.359375,-20.28125
36,36,1729518441471,-0.20019531,-0.84503174,0.18011475,16.421875,48.46875,-8.484375
37,37,1729518441511,-0.11621094,-0.74053955,0.26434326,7.484375,33.890625,-5.25
38,38,1729518441551,0.03857422,-0.7593384,0.2387085,18.3125,14.859375,-2.625
39,39,1729518441591,-0.13110352,-1.0745239,0.27581787,0.703125,8.546875,-0.015625
40,40,1729518441631,-0.21508789,-0.93463135,0.3414917,5.4375,6.015625,8.875
41,41,1729518441671,-0.22265625,-0.7583618,0.34857178,14.46875,8.375,3.5
42,42,1729518441711,-0.23217773,-0.9312134,0.23406982,1.5,0.21875,-1.96875
43,43,1729518441751,-0.30004883,-1.0908813,0.26922607,-13.6875,-6.9375,6.84375
44,44,1729518441791,-0.390625,-0.9663696,0.44281006,-10.546875,-4.703125,3.53125
45,45,1729518441831,-0.4814453,-1.0371704,0.5194702,-3.140625,7.625,-12.421875
46,46,1729518441871,-0.083740234,-1.3289185,0.13250732,4.59375,5.421875,-20.984375
47,47,1729518441911,0.09082031,-1.1060181,-0.054748535,11.171875,-6.984375,-18.21875
48,48,1729518441951,0.14331055,-0.96588135,0.09588623,8.71875,-17.359375,-5.265625
49,49,1729518441991,-0.095214844,-1.2654419,0.37322998,2.875,38.3125,-5.96875
50,50,1729518442031,-0.24780273,-0.92852783,0.17962646,0.453125,40.890625,8.078125
51,51,1729518442071,-0.05517578,-0.71759033,0.12982178,5.375,23.28125,0.140625
52,52,1729518442111,0.07446289,-0.72076416,0.13470459,13.109375,18.125,-1.140625
53,53,1729518442151,-0.083984375,-0.9360962,0.28363037,-0.40625,34.890625,-9.96875
54,54,1729518442191,-0.1381836,-1.1358032,0.4389038,-19.875,35.890625,-13.09375
55,55,1729518442231,-0.07348633,-0.9546509,0.3624878,8.15625,38.09375,8.09375
56,56,1729518442271,-0.16967773,-0.52960205,0.34735107,4.109375,27.390625,-7.484375
57,57,1729518442311,-0.13500977,-0.70880127,0.34173584,-5.90625,9.203125,-24.90625
58,58,1729518442351,0.044433594,-1.1629028,0.6227417,-23.78125,0.53125,-22.359375
59,59,1729518442391,-0.05419922,-1.109436,0.40179443,1.546875,33.296875,-2.375
60,60,1729518442431,-0.2241211,-0.8765259,0.47235107,-18.734375,14.796875,0.796875
61,61,1729518442471,-0.359375,-1.076477,0.5145874,-30.90625,20.09375,-15.71875
62,62,1729518442511,-0.13891602,-1.4465942,-0.11553955,-7.3125,20.046875,-9.65625
63,63,1729518442551,-0.08203125,-1.0894165,-0.027160645,21.8125,18.265625,14.21875
64,64,1729518442591,-0.17504883,-0.9446411,0.152771,13.6875,30.796875,9.03125
65,65,1729518442631,-0.017089844,-0.99053955,0.3468628,0.4375,-6.53125,-6.15625
66,66,1729518442671,0.1081543,-0.92193604,0.44036865,8.265625,8.984375,1.96875
67,67,1729518442711,-0.033935547,-0.631897,0.17303467,24.671875,-6.734375,11.0625
68,68,1729518442751,-0.10986328,-0.71954346,0.20135498,29.453125,-6.109375,10.140625
69,69,1729518442791,-0.20898438,-0.91729736,0.074401855,-11.25,-24.265625,19.0
70,70,1729518442831,-0.23828125,-0.89971924,0.30560303,-8.015625,-16.0625,9.921875
71,71,1729518442871,-0.26489258,-0.7300415,0.4869995,7.71875,-1.234375,5.78125
72,72,1729518442911,-0.28100586,-0.83184814,0.50946045,-4.625,3.53125,1.484375
73,73,1729518442951,-0.07104492,-1.2302856,0.21966553,-2.25,-15.359375,-0.125
74,74,1729518442991,-0.2006836,-1.1460571,0.33685303,-3.96875,-7.015625,2.765625
75,75,1729518443031,-0.40673828,-1.1211548,0.5355835,-7.25,-4.5625,-7.171875
76,76,1729518443071,-0.049560547,-1.331604,0.48431396,0.703125,-20.703125,-16.265625
77,77,1729518443111,0.061279297,-0.9805298,0.08441162,18.0625,-24.71875,-8.171875
78,78,1729518443151,0.072753906,-0.78204346,-0.14703369,22.21875,-33.5625,-15.546875
79,79,1729518443191,0.35229492,-1.0408325,0.12738037,-11.890625,-40.125,-7.453125
80,80,1729518443231,0.057128906,-1.1248169,0.38323975,2.5,-1.296875,6.375
81,81,1729518443271,-0.32250977,-0.90997314,0.33319092,-7.515625,12.28125,18.078125
82,82,1729518443311,-0.29101562,-0.6921997,0.21917725,3.453125,4.34375,3.953125
83,83,1729518443351,-0.017822266,-0.6782837,0.1762085,13.609375,2.390625,-10.578125
84,84,1729518443391,0.099365234,-0.93878174,0.23797607,1.21875,1.78125,-5.828125
85,85,1729518443431,-0.05419922,-1.0899048,0.46673584,-11.84375,10.9375,7.015625
86,86,1729518443471,-0.13989258,-0.87335205,0.41571045,-3.953125,14.53125,8.453125
87,87,1729518443511,-0.1015625,-0.598938,0.39593506,-2.921875,10.890625,-3.84375
88,88,1729518443551,-0.020019531,-0.70098877,0.42230225,4.25,12.5,-8.34375
89,89,1729518443591,-0.072753906,-1.1758423,0.55462646,-17.59375,9.59375,-15.296875
90,90,1729518443631,-0.11645508,-1.236145,0.5536499,-14.953125,28.75,-3.46875
91,91,1729518443671,-0.20800781,-1.1558228,0.44281006,-19.515625,21.046875,-7.0625
92,92,1729518443711,-0.026611328,-1.3206177,-0.101623535,-0.765625,9.484375,-1.40625
93,93,1729518443751,-0.17407227,-1.1951294,-0.06085205,23.28125,13.625,11.828125
94,94,1729518443791,-0.16381836,-1.0054321,0.109069824,-0.109375,28.109375,5.203125
95,95,1729518443831,0.07006836,-0.8335571,0.29241943,-1.828125,-8.796875,-9.265625
96,96,1729518443871,-0.044189453,-0.67510986,0.34539795,17.125,7.796875,-5.265625
97,97,1729518443911,-0.11425781,-0.7163696,0.22723389,13.6875,2.53125,-0.84375
98,98,1729518443951,0.016601562,-0.79034424,0.07196045,19.296875,-3.703125,3.96875
99,99,1729518443991,-0.10571289,-0.9517212,0.06048584,-1.65625,-31.625,10.328125
100,100,1729518444031,-0.29858398,-0.98883057,0.32659912,-7.703125,-23.25,9.90625
101,101,1729518444071,-0.26513672,-0.74102783,0.44378662,7.03125,-17.359375,8.484375
102,102,1729518444111,-0.21411133,-0.8345337,0.41693115,3.265625,-13.953125,7.953125
103,103,1729518444151,-0.1875,-1.1001587,0.1786499,-4.859375,-17.171875,8.171875
104,104,1729518444191,-0.39086914,-1.1199341,0.3661499,-5.40625,-4.296875,2.34375
105,105,1729518444231,-0.3503418,-1.1218872,0.5429077,-14.484375,-9.796875,-6.125
106,106,1729518444271,0.103027344,-1.4133911,0.27630615,12.8125,-29.3125,-11.328125
107,107,1729518444311,0.15673828,-1.0786743,-0.11529541,3.015625,-37.8125,-3.53125
108,108,1729518444351,0.041259766,-0.9829712,-0.031066895,-6.0625,-21.0625,-3.65625
109,109,1729518444391,0.048828125,-1.1062622,0.30096436,7.28125,-14.671875,-6.125
110,110,1729518444431,-0.17993164,-0.9961548,0.29510498,-3.546875,10.140625,15.796875
111,111,1729518444471,-0.26782227,-0.829895,0.18475342,7.0,12.671875,9.625
112,112,1729518444511,-0.06567383,-0.73809814,0.17303467,11.109375,-10.28125,-2.6875
113,113,1729518444551,0.024414062,-0.71759033,0.26849365,3.21875,7.4375,-8.546875
114,114,1729518444591,-0.11645508,-0.7485962,0.27581787,-4.9375,16.296875,4.4375
115,115,1729518444631,-0.19042969,-0.98223877,0.3847046,-9.71875,15.203125,-2.484375
116,116,1729518444671,-0.08227539,-0.8069458,0.33294678,8.0625,33.59375,-0.78125
117,117,1729518444711,-0.036621094,-0.73443604,0.35076904,-1.734375,21.125,-5.015625
118,118,1729518444751,-0.044677734,-0.95562744,0.4718628,-17.484375,8.15625,-13.625
119,119,1729518444791,-0.03100586,-1.3547974,0.6286011,-19.375,15.03125,-14.71875
120,120,1729518444831,-0.15722656,-1.1716919,0.62005615,-19.640625,26.921875,5.375
121,121,1729518444871,-0.25219727,-1.2876587,0.23846436,2.796875,10.453125,-6.765625
122,122,1729518444911,0.048095703,-1.3042603,-0.15679932,21.609375,3.859375,-2.65625
123,123,1729518444951,0.060791016,-0.87628174,-0.028625488,10.609375,17.578125,15.234375
124,124,1729518444991,-0.22558594,-1.022522,0.07122803,-7.859375,28.0,4.1875
125,125,1729518445031,-0.118652344,-0.8399048,0.44207764,5.34375,-6.328125,-12.9375
126,126,1729518445071,-0.08496094,-0.7463989,0.277771,13.421875,13.734375,-2.953125
127,127,1729518445111,-0.13745117,-0.7149048,0.054382324,18.390625,4.546875,0.0
128,128,1729518445151,-0.06591797,-0.7803345,0.11981201,1.609375,-10.015625,3.265625
129,129,1729518445191,-0.10058594,-0.97125244,0.22357178,-11.453125,-15.265625,5.078125
130,130,1729518445231,-0.2565918,-0.90167236,0.3204956,0.71875,-14.390625,8.984375
131,131,1729518445271,-0.2590332,-0.7214966,0.38494873,6.65625,-10.140625,10.09375
132,132,1729518445311,-0.1940918,-0.88409424,0.3258667,-1.171875,-12.171875,2.234375
133,133,1729518445351,-0.122802734,-1.1201782,0.13275146,-5.5,-21.125,0.53125
134,134,1729518445391,-0.33007812,-1.0479126,0.33270264,-12.21875,-17.796875,5.578125
135,135,1729518445431,-0.3010254,-1.3284302,0.4574585,-11.40625,-35.78125,-6.71875
136,136,1729518445471,0.1352539,-1.3682251,0.14886475,27.828125,-9.390625,-5.984375
137,137,1729518445511,0.04345703,-1.0215454,-0.093566895,15.703125,-7.8125,-12.28125
138,138,1729518445551,-0.022460938,-0.8640747,0.074157715,11.0,-11.0,3.40625
139,139,1729518445591,-0.072753906,-1.08844,0.2296753,-17.046875,-6.640625,3.3125
140,140,1729518445631,-0.11206055,-1.0405884,0.19793701,-25.640625,-6.578125,20.5
141,141,1729518445671,-0.0847168,-0.9221802,0.28485107,4.765625,4.71875,0.40625
142,142,1729518445711,0.100097656,-0.84088135,0.28582764,0.40625,-1.890625,-1.546875
143,143,1729518445751,0.041992188,-0.69732666,0.24627686,-3.4375,16.359375,2.359375
144,144,1729518445791,-0.017333984,-0.7197876,0.27093506,-0.46875,1.59375,5.9375
145,145,1729518445831,-0.041015625,-0.88848877,0.33172607,-9.1875,4.796875,-3.734375
146,146,1729518445871,-0.059570312,-0.817688,0.3612671,-3.15625,14.84375,-4.59375
147,147,1729518445911,-0.08886719,-0.8377075,0.48968506,-1.328125,15.765625,-7.40625
148,148,1729518445951,-0.057128906,-1.0508423,0.46600342,-17.265625,15.625,-14.109375
149,149,1729518445991,-0.080566406,-1.1467896,0.5050659,-9.734375,17.828125,-13.28125
150,150,1729518446031,-0.13378906,-0.88531494,0.6088257,-5.53125,19.921875,-5.046875
151,151,1729518446071,-0.15454102,-1.0427856,0.3986206,-13.640625,21.890625,-18.125
152,152,1729518446111,-0.104003906,-1.1917114,-0.04058838,-13.375,15.03125,-5.546875
153,153,1729518446151,-0.020507812,-1.5579224,-0.04498291,-8.21875,17.609375,7.1875
154,154,1729518446191,-0.1459961,-1.2288208,0.061462402,7.46875,5.234375,14.8125
155,155,1729518446231,-0.06298828,-0.8945923,0.3192749,-0.34375,-26.140625,0.828125
156,156,1729518446271,-0.1081543,-0.68634033,0.31854248,8.34375,-0.609375,-5.46875
157,157,1729518446311,-0.080566406,-0.5742798,0.1408081,12.8125,-0.484375,-0.75
158,158,1729518446351,0.12866211,-0.7617798,0.03729248,26.75,-35.109375,7.65625
159,159,1729518446391,0.18334961,-0.84698486,-0.058410645,1.5625,-59.03125,10.953125
160,160,1729518446431,-0.19799805,-1.0337524,0.1984253,-4.015625,-55.984375,24.84375
161,161,1729518446471,-0.3076172,-1.1074829,0.18475342,15.375,-50.546875,21.9375
162,162,1729518446511,-0.05444336,-1.0310669,0.09075928,8.5,-66.578125,16.15625
163,163,1729518446551,-0.22802734,-0.81817627,-0.011291504,-5.96875,-71.109375,17.90625
164,164,1729518446591,-0.546875,-0.9612427,0.08758545,-0.03125,-65.828125,13.28125
165,165,1729518446631,-0.2644043,-0.866272,0.10003662,3.75,-83.21875,2.578125
166,166,1729518446671,0.19238281,-0.98223877,-0.15093994,6.78125,-100.5,13.078125
167,167,1729518446711,0.22460938,-1.100647,-0.22564697,30.65625,-95.046875,23.875
168,168,1729518446751,0.39379883,-1.3067017,-0.20855713,50.28125,-119.015625,8.765625
169,169,1729518446791,0.1430664,-1.5457153,0.3012085,-10.703125,-93.375,27.6875
170,170,1729518446831,-0.26831055,-0.9885864,0.117126465,4.734375,-57.828125,21.625
171,171,1729518446871,0.010986328,-1.0464478,0.0021362305,16.375,-99.9375,15.828125
172,172,1729518446911,0.4309082,-1.1350708,0.42279053,-1.75,-93.671875,0.28125
173,173,1729518446951,0.07885742,-0.82940674,0.25701904,-15.765625,-40.75,7.953125
174,174,1729518446991,-0.19213867,-0.7966919,-0.026428223,12.46875,-76.234375,-1.609375
175,175,1729518447031,0.01953125,-0.7595825,0.18475342,1.765625,-65.484375,-8.21875
176,176,1729518447071,0.28076172,-0.8831177,0.27947998,-8.09375,-56.109375,-14.1875
177,177,1729518447111,0.2368164,-0.95513916,0.24163818,-6.75,-43.734375,-14.375
178,178,1729518447151,0.1940918,-1.0046997,0.27508545,-7.546875,-63.5,-2.328125
179,179,1729518447191,0.19238281,-0.9561157,0.3258667,-0.59375,-56.75,3.421875
180,180,1729518447231,0.09399414,-1.0042114,0.369812,-2.015625,-52.15625,1.1875
181,181,1729518447271,0.14501953,-1.0081177,0.47210693,-4.90625,-51.921875,-6.453125
182,182,1729518447311,0.24316406,-1.0046997,0.41766357,-5.171875,-44.421875,-10.78125
183,183,1729518447351,0.02758789,-0.9819946,-0.04840088,5.109375,-26.046875,-7.1875
184,184,1729518447391,-0.23706055,-1.3179321,-0.49639893,-21.09375,-29.390625,-1.1875
185,185,1729518447431,-0.57788086,-1.1248169,-0.10406494,-8.953125,-43.5,12.703125
186,186,1729518447471,-0.3112793,-0.92071533,0.1473999,-22.03125,-44.59375,7.703125
187,187,1729518447511,-0.21582031,-1.0200806,0.18914795,0.4375,-46.328125,-2.09375
188,188,1729518447551,-0.24780273,-0.87506104,0.0524292,8.0625,-37.421875,3.578125
189,189,1729518447591,-0.2607422,-0.73638916,0.12176514,3.8125,-35.0625,3.125
190,190,1729518447631,-0.26513672,-0.7949829,0.19158936,-2.59375,-43.890625,2.46875
191,191,1729518447671,-0.23413086,-0.97125244,0.24798584,-1.28125,-47.140625,4.609375
192,192,1729518447711,-0.16748047,-1.0010376,0.20794678,-10.703125,-35.046875,10.0
193,193,1729518447751,-0.1953125,-0.8081665,0.19622803,-14.390625,-30.9375,13.703125
194,194,1729518447791,-0.17944336,-0.87506104,0.2514038,-3.265625,-34.875,10.53125
195,195,1729518447831,-0.21679688,-0.975647,0.2772827,-9.265625,-36.609375,6.953125
196,196,1729518447871,-0.2211914,-0.95684814,0.26531982,-9.96875,-28.875,6.125
197,197,1729518447911,-0.31103516,-0.9573364,0.3583374,-4.875,-21.53125,4.75
198,198,1729518447951,-0.3256836,-1.0706177,0.35125732,-4.015625,-27.25,2.828125
199,199,1729518447991,-0.40795898,-1.3074341,0.38934326,-13.84375,-25.09375,-2.328125
200,200,1729518448031,-0.07397461,-1.2310181,0.13323975,16.875,-22.734375,-2.5625
201,201,1729518448071,0.16699219,-1.1133423,-0.07940674,7.703125,-19.125,-8.375
202,202,1729518448111,0.22094727,-0.90753174,-0.06695557,2.359375,-19.96875,-1.046875
203,203,1729518448151,0.22192383,-1.2666626,0.14666748,-9.859375,-9.828125,8.6875
204,204,1729518448191,-0.119140625,-1.0713501,0.35687256,-15.0625,-0.515625,18.40625
205,205,1729518448231,-0.28027344,-0.83721924,0.15350342,5.953125,-3.0625,2.953125
206,206,1729518448271,-0.008300781,-0.6682739,0.13226318,6.28125,-8.265625,-6.578125
207,207,1729518448311,0.18481445,-0.7070923,0.11468506,-0.21875,-9.890625,0.3125
208,208,1729518448351,0.024902344,-0.78375244,0.25628662,-4.65625,-14.625,7.203125
209,209,1729518448391,-0.19116211,-0.8526001,0.31463623,-4.5,-2.703125,-1.75
210,210,1729518448431,-0.14282227,-0.8171997,0.31170654,0.015625,8.796875,-3.875
211,211,1729518448471,-0.0078125,-0.83477783,0.41912842,-9.84375,12.015625,-3.296875
212,212,1729518448511,-0.00390625,-0.84039307,0.4557495,-11.90625,19.015625,-8.609375
213,213,1729518448551,-0.13793945,-1.1170044,0.38641357,-17.625,13.984375,-8.734375
214,214,1729518448591,-0.13232422,-1.3633423,0.5861206,-7.515625,0.90625,-5.140625
215,215,1729518448631,-0.072753906,-1.234436,0.52874756,-13.234375,18.15625,-13.5
216,216,1729518448671,0.059814453,-1.2217407,-0.0569458,8.5625,0.078125,-8.21875
217,217,1729518448711,-0.0026855469,-0.91412354,-0.15533447,20.671875,18.421875,8.046875
218,218,1729518448751,-0.27856445,-1.0879517,-0.16802979,-9.6875,26.984375,8.671875
219,219,1729518448791,0.07861328,-1.0940552,0.2975464,-14.890625,-32.265625,7.015625
220,220,1729518448831,0.080566406,-0.8870239,0.3131714,17.4375,-8.46875,3.125
221,221,1729518448871,-0.2446289,-0.73223877,0.17596436,7.359375,-4.171875,-0.03125
222,222,1729518448911,-0.234375,-0.6133423,0.25604248,16.828125,-4.6875,-0.296875
223,223,1729518448951,-0.0034179688,-0.8040161,0.12054443,5.953125,-16.03125,3.296875
224,224,1729518448991,-0.119140625,-0.96099854,0.22503662,-10.375,-22.578125,5.34375
225,225,1729518449031,-0.32348633,-0.81915283,0.25164795,-0.296875,-9.21875,7.546875
226,226,1729518449071,-0.33447266,-0.847229,0.39642334,-10.921875,-21.546875,2.765625
227,227,1729518449111,-0.22558594,-0.9963989,0.2453003,-0.5,-17.0625,-2.96875
228,228,1729518449151,-0.29785156,-1.0974731,0.29071045,-0.984375,-3.828125,-3.28125
229,229,1729518449191,-0.26416016,-1.1521606,0.46722412,-16.75,-2.65625,-3.8125
230,230,1729518449231,0.10522461,-1.4793091,0.12762451,11.859375,-39.15625,-11.609375
231,231,1729518449271,0.026855469,-1.1170044,-0.022766113,13.15625,-38.8125,-0.796875
232,232,1729518449311,-0.1003418,-0.7661743,-0.09429932,12.078125,-16.90625,-6.234375
233,233,1729518449351,0.024414062,-1.2107544,0.215271,-19.984375,-14.34375,-3.28125
234,234,1729518449391,-0.25,-1.1638794,0.23968506,-7.703125,13.3125,11.59375
235,235,1729518449431,-0.27905273,-0.7600708,0.11663818,4.3125,7.484375,12.84375
236,236,1729518449471,-0.06518555,-0.78082275,0.17523193,-5.484375,6.84375,0.828125
237,237,1729518449511,0.114990234,-0.68292236,0.19036865,-6.21875,14.71875,3.34375
238,238,1729518449551,-0.033203125,-0.7774048,0.32244873,-8.0,14.25,6.5
239,239,1729518449591,-0.09741211,-0.8748169,0.34368896,-13.4375,10.015625,1.921875
240,240,1729518449631,-0.0690918,-0.72442627,0.38372803,-5.359375,13.8125,-2.28125
241,241,1729518449671,-0.16479492,-0.7463989,0.47039795,2.375,14.75,-6.90625
242,242,1729518449711,-0.09887695,-1.0979614,0.45306396,-5.953125,4.53125,-15.453125
243,243,1729518449751,-0.08862305,-1.3059692,0.54901123,-10.390625,26.390625,-17.15625
244,244,1729518449791,-0.20581055,-1.1235962,0.54241943,-18.171875,20.3125,-6.515625
245,245,1729518449831,-0.07373047,-1.3599243,0.1281128,-2.6875,5.34375,-6.25
246,246,1729518449871,-0.0031738281,-1.0691528,-0.14996338,23.640625,7.8125,9.875
247,247,1729518449911,-0.31323242,-1.0598755,-0.033996582,-4.0,35.625,11.171875
248,248,1729518449951,-0.08105469,-1.1382446,0.20819092,-10.46875,-8.4375,2.1875
249,249,1729518449991,0.0390625,-0.8521118,0.35150146,17.640625,-4.21875,-0.03125
250,250,1729518450031,-0.115722656,-0.63360596,0.2645874,26.8125,6.234375,3.484375
251,251,1729518450071,-0.16088867,-0.6199341,0.25091553,10.078125,2.640625,1.234375
252,252,1729518450111,-0.106933594,-0.8057251,0.1071167,12.125,-18.5,4.59375
253,253,1729518450151,-0.12866211,-0.9619751,0.1395874,2.8125,-26.40625,4.25
254,254,1729518450191,-0.25756836,-0.8447876,0.28216553,7.984375,-19.484375,10.765625
255,255,1729518450231,-0.28881836,-0.84747314,0.30145264,1.125,-13.796875,6.953125
256,256,1729518450271,-0.27539062,-1.0667114,0.19329834,-4.8125,-14.578125,0.65625
257,257,1729518450311,-0.37963867,-1.0830688,0.3295288,-1.484375,-9.5,-2.078125
258,258,1729518450351,-0.29541016,-1.1143188,0.44378662,-13.515625,-9.4375,-3.96875
259,259,1729518450391,0.114746094,-1.4512329,0.06439209,7.953125,-28.46875,-17.5
260,260,1729518450431,0.079589844,-1.1594849,0.026062012,-4.1875,-34.203125,-0.84375
261,261,1729518450471,-0.09277344,-0.98321533,-0.1404419,2.671875,-7.890625,-10.03125
262,262,1729518450511,-0.19702148,-1.2036743,0.25750732,2.703125,-2.234375,-10.5
263,263,1729518450551,-0.19946289,-0.9824829,0.124938965,6.5,14.875,4.671875
264,264,1729518450591,-0.060791016,-0.6848755,0.039978027,7.546875,18.09375,0.8125
265,265,1729518450631,-0.04638672,-0.7217407,0.16741943,2.609375,1.578125,-10.703125
266,266,1729518450671,-0.103271484,-0.7246704,0.27264404,6.40625,7.4375,-3.953125
267,267,1729518450711,-0.203125,-0.85113525,0.25726318,3.71875,24.0,-1.328125
268,268,1729518450751,-0.040039062,-0.99224854,0.2921753,-6.59375,13.71875,-7.96875
269,269,1729518450791,0.0029296875,-0.86505127,0.37591553,6.640625,18.421875,2.078125
270,270,1729518450831,-0.079833984,-0.7503052,0.45281982,-4.984375,14.53125,-2.84375
271,271,1729518450871,-0.2055664,-1.031311,0.40203857,-13.984375,4.6875,-13.703125
272,272,1729518450911,-0.34765625,-1.31427,0.47479248,-3.3125,8.875,-9.9375
273,273,1729518450951,-0.36132812,-1.0315552,0.51361084,-18.0625,22.390625,-2.40625
274,274,1729518450991,-0.20336914,-1.2153931,0.3241577,-7.203125,18.421875,-27.78125
275,275,1729518451031,0.064208984,-1.2026978,-0.18096924,0.15625,24.0,-4.46875
276,276,1729518451071,-0.20654297,-1.227356,-0.22955322,19.25,27.640625,12.40625
277,277,1729518451111,-0.28564453,-1.0667114,0.12908936,1.828125,-2.71875,18.0
278,278,1729518451151,0.0068359375,-0.8777466,0.33294678,-7.875,-17.0,2.984375
279,279,1729518451191,-0.0087890625,-0.6939087,0.31219482,6.515625,-0.53125,6.578125
280,280,1729518451231,-0.10620117,-0.677063,0.097839355,26.046875,-5.03125,3.65625
281,281,1729518451271,-0.0949707,-0.72540283,0.043151855,12.5625,-22.1875,10.890625
282,282,1729518451311,-0.17993164,-0.92022705,-0.039611816,-3.6875,-43.734375,14.890625
283,283,1729518451351,-0.3737793,-0.9019165,0.23431396,-5.296875,-32.578125,9.390625
284,284,1729518451391,-0.390625,-0.82647705,0.39764404,-6.265625,-20.921875,7.25
285,285,1729518451431,-0.18798828,-0.98223877,0.35125732,-4.515625,-20.984375,4.609375
286,286,1729518451471,-0.28125,-0.96661377,0.19036865,2.4375,-11.5625,2.46875
287,287,1729518451511,-0.37182617,-1.0217896,0.2723999,-4.75,-5.203125,-2.5
288,288,1729518451551,-0.2211914,-1.2490845,0.45013428,-17.8125,-17.390625,-9.78125
289,289,1729518451591,0.14794922,-1.3828735,0.002380371,10.59375,-39.0,-5.125
290,290,1729518451631,0.05493164,-1.1873169,-0.10406494,11.828125,-19.375,-4.203125
291,291,1729518451671,-0.019042969,-0.9541626,0.07489014,6.578125,-1.84375,-3.6875
292,292,1729518451711,-0.13867188,-1.0440063,0.1630249,-12.3125,7.0,-2.484375
293,293,1729518451751,-0.1953125,-0.9446411,0.16009521,-8.390625,2.390625,11.59375
294,294,1729518451791,-0.05517578,-0.8689575,0.18450928,-6.15625,-7.375,-2.109375
295,295,1729518451831,0.03149414,-0.847229,0.30755615,-0.40625,-7.140625,-4.328125
296,296,1729518451871,-0.1394043,-0.6921997,0.29388428,9.484375,8.9375,6.25
297,297,1729518451911,-0.21533203,-0.8196411,0.2609253,-3.421875,2.953125,1.8125
298,298,1729518451951,-0.0793457,-0.93048096,0.31243896,-7.8125,10.421875,-1.640625
299,299,1729518451991,0.0053710938,-0.85162354,0.37249756,-13.78125,12.515625,1.59375
300,300,1729518452031,0.04736328,-0.8779907,0.4208374,-3.546875,-0.625,-8.578125
301,301,1729518452071,-0.23266602,-0.9890747,0.4718628,-29.015625,4.09375,-6.0625
302,302,1729518452111,-0.28271484,-1.013977,0.29437256,-7.0,-19.703125,-5.578125
303,303,1729518452151,0.1508789,-1.2942505,0.23358154,-8.796875,-39.96875,-14.59375
304,304,1729518452191,0.33496094,-1.2766724,0.061950684,-6.6875,-25.140625,9.28125
305,305,1729518452231,-0.21166992,-1.1963501,-0.19732666,-14.109375,8.703125,23.171875
306,306,1729518452271,-0.087402344,-1.1414185,0.022644043,-2.234375,-68.453125,10.421875
307,307,1729518452311,0.103759766,-0.99786377,0.28533936,-0.0625,-78.078125,15.515625
308,308,1729518452351,-0.125,-0.70635986,0.18377686,3.0,-57.171875,20.015625
309,309,1729518452391,-0.23461914,-0.7461548,-0.050598145,12.6875,-67.1875,9.015625
310,310,1729518452431,-0.09082031,-0.81622314,-0.14141846,6.734375,-91.5,10.671875
311,311,1729518452471,-0.10522461,-1.0422974,0.030700684,-14.15625,-99.0625,19.78125
312,312,1729518452511,-0.22314453,-1.1841431,0.13616943,-7.578125,-84.96875,23.4375
313,313,1729518452551,-0.14916992,-0.9299927,-0.05645752,-0.375,-87.3125,32.015625
314,314,1729518452591,-0.2355957,-0.88238525,-0.19073486,8.234375,-96.71875,27.375
315,315,1729518452631,-0.26049805,-0.98565674,-0.19049072,7.234375,-102.171875,16.265625
316,316,1729518452671,-0.071777344,-0.9746704,-0.02960205,8.546875,-92.390625,22.265625
317,317,1729518452711,-0.060302734,-0.77545166,-0.13189697,17.953125,-73.703125,27.09375
318,318,1729518452751,-0.06201172,-1.093811,-0.30474854,8.859375,-93.171875,28.453125
319,319,1729518452791,0.11791992,-1.6143188,0.27972412,11.3125,-108.609375,28.0625
320,320,1729518452831,-0.16186523,-1.0852661,0.41131592,-26.96875,-38.125,32.453125
321,321,1729518452871,-0.17944336,-0.82598877,0.10736084,20.109375,-67.671875,13.046875
322,322,1729518452911,0.06542969,-1.0025024,0.24163818,-8.28125,-89.71875,1.6875
323,323,1729518452951,-0.005859375,-0.97857666,0.31365967,-7.640625,-54.34375,3.375
324,324,1729518452991,-0.14086914,-0.8508911,0.15814209,5.59375,-57.0,0.6875
325,325,1729518453031,-0.07861328,-0.895813,0.29730225,2.59375,-61.109375,-10.75
326,326,1729518453071,0.026367188,-0.87677,0.26922607,-7.0,-43.84375,-8.84375
327,327,1729518453111,0.08325195,-0.9187622,0.2880249,-3.421875,-45.6875,-5.015625
328,328,1729518453151,0.12402344,-1.0647583,0.37982178,-4.34375,-49.515625,-3.21875
329,329,1729518453191,0.061767578,-1.0562134,0.31365967,6.65625,-34.421875,6.640625
330,330,1729518453231,-0.048828125,-0.9216919,0.33465576,3.078125,-26.53125,11.3125
331,331,1729518453271,-0.11791992,-0.8701782,0.40081787,0.015625,-20.921875,4.4375
332,332,1729518453311,0.014404297,-0.96832275,0.4562378,-6.015625,-18.65625,0.46875
333,333,1729518453351,0.14428711,-1.1690063,0.50823975,-18.375,-19.359375,-6.890625
334,334,1729518453391,0.0871582,-1.303772,0.30804443,-9.484375,-15.015625,-9.390625
335,335,1729518453431,0.047851562,-0.94976807,0.04437256,2.328125,-22.765625,-7.1875
336,336,1729518453471,-0.11645508,-0.8308716,-0.038879395,-1.71875,-15.390625,-4.5625
337,337,1729518453511,-0.4506836,-1.006897,-0.2571411,-8.703125,-1.109375,-16.625
338,338,1729518453551,-0.24707031,-1.128479,0.06048584,2.484375,-12.015625,-10.359375
339,339,1729518453591,0.21142578,-0.8599243,0.20770264,4.046875,-14.90625,-1.015625
340,340,1729518453631,-0.028076172,-0.83673096,0.14251709,-3.21875,-12.984375,5.265625
341,341,1729518453671,-0.39916992,-0.9805298,0.20428467,-7.359375,-20.578125,0.5625
342,342,1729518453711,-0.21533203,-0.9072876,0.24017334,7.078125,-7.046875,3.046875
343,343,1729518453751,-0.03540039,-0.83135986,0.30023193,3.515625,-14.296875,2.1875
344,344,1729518453791,-0.06298828,-0.86187744,0.35980225,1.46875,-18.9375,3.875
345,345,1729518453831,-0.19116211,-0.8994751,0.27679443,1.6875,-11.09375,8.515625
346,346,1729518453871,-0.24829102,-0.9973755,0.17840576,-7.328125,-17.171875,3.140625
347,347,1729518453911,-0.26879883,-1.0027466,0.29144287,-16.4375,-18.921875,-1.65625
348,348,1729518453951,-0.31469727,-0.9343872,0.37005615,-6.90625,-11.265625,-4.40625
349,349,1729518453991,-0.2368164,-1.114563,0.37371826,-5.28125,-15.53125,-6.578125
350,350,1729518454031,0.15771484,-1.5574341,0.06707764,-2.359375,-33.421875,-4.21875
351,351,1729518454071,0.08325195,-1.2627563,-0.014953613,1.328125,-19.15625,-0.34375
352,352,1729518454111,-0.00390625,-0.74786377,-0.074279785,11.3125,-28.390625,-8.171875
353,353,1729518454151,0.13769531,-0.8411255,0.17327881,-5.25,-18.046875,5.5
354,354,1729518454191,-0.04272461,-0.9458618,0.14324951,3.0625,-12.03125,12.15625
355,355,1729518454231,-0.27612305,-0.89678955,0.105163574,-2.109375,-10.625,11.078125
356,356,1729518454271,-0.12866211,-0.86065674,0.23724365,-1.84375,-5.125,-6.5625
357,357,1729518454311,0.12670898,-1.0061646,0.40667725,-2.71875,6.265625,-10.90625
358,358,1729518454351,0.05493164,-0.98638916,0.3078003,5.8125,3.453125,1.859375
359,359,1729518454391,-0.14697266,-0.90948486,0.23529053,5.453125,-2.640625,5.390625
360,360,1729518454431,-0.19604492,-0.7271118,0.24554443,1.796875,-0.109375,0.15625
361,361,1729518454471,-0.13598633,-0.58966064,0.38983154,-1.90625,4.03125,-5.109375
362,362,1729518454511,-0.032470703,-0.84161377,0.49627686,-11.0,8.109375,-12.03125
363,363,1729518454551,-0.06347656,-1.1668091,0.40863037,-19.5,8.703125,-16.8125
364,364,1729518454591,-0.19018555,-1.25177,0.33294678,-13.78125,13.765625,-4.359375
365,365,1729518454631,-0.045410156,-1.170227,0.5536499,-28.359375,3.796875,-0.453125
366,366,1729518454671,-0.029296875,-1.1856079,0.124694824,16.046875,7.671875,-7.46875
367,367,1729518454711,-0.05029297,-1.0996704,-0.07574463,12.953125,8.25,4.1875
368,368,1729518454751,-0.23876953,-0.8567505,-0.19024658,5.6875,39.03125,12.28125
369,369,1729518454791,-0.18432617,-1.0945435,0.16448975,0.421875,-7.109375,-0.125
370,370,1729518454831,-0.010253906,-1.0420532,0.38568115,1.53125,-9.9375,-12.03125
371,371,1729518454871,-0.13134766,-0.786438,0.27435303,12.875,13.125,9.859375
372,372,1729518454911,-0.25634766,-0.6343384,0.18597412,10.625,8.203125,3.84375
373,373,1729518454951,-0.15283203,-0.66534424,0.12982178,18.8125,-10.140625,1.875
374,374,1729518454991,-0.16455078,-0.9348755,0.23016357,-4.703125,-17.484375,3.71875
375,375,1729518455031,-0.2631836,-0.94317627,0.29681396,2.734375,-4.359375,8.53125
376,376,1729518455071,-0.21191406,-0.80841064,0.27313232,-1.046875,-12.140625,11.1875
377,377,1729518455111,-0.109375,-0.9841919,0.18011475,-17.109375,-22.453125,7.25
378,378,1729518455151,-0.2355957,-1.1148071,0.35906982,-10.203125,-19.46875,5.625
379,379,1729518455191,-0.59106445,-1.0501099,0.47479248,-8.234375,-10.5,0.578125
380,380,1729518455231,-0.044189453,-1.5161743,0.11126709,18.703125,-21.6875,-20.125
381,381,1729518455271,0.30395508,-1.4526978,-0.15533447,24.3125,-4.28125,-10.390625
382,382,1729518455311,0.08251953,-0.81744385,-0.12213135,26.03125,-13.03125,-2.09375
383,383,1729518455351,-0.059570312,-0.7954712,0.117126465,-14.484375,-22.171875,5.265625
384,384,1729518455391,-0.14770508,-1.0213013,0.09954834,-27.15625,-20.859375,12.578125
385,385,1729518455431,-0.31274414,-0.98931885,0.2538452,-8.5625,-2.71875,6.84375
386,386,1729518455471,-0.034423828,-0.9182739,0.23773193,-9.015625,0.859375,0.015625
387,387,1729518455511,0.1459961,-0.8308716,0.27996826,-8.015625,16.453125,-1.0625
388,388,1729518455551,0.06933594,-0.7654419,0.2345581,-7.0625,16.734375,5.125
389,389,1729518455591,-0.029296875,-0.8032837,0.29388428,-5.34375,2.6875,3.609375
390,390,1729518455631,-0.11621094,-0.8479614,0.3912964,-6.984375,1.0,-3.28125
391,391,1729518455671,-0.15405273,-0.67852783,0.51605225,-7.9375,8.03125,-6.953125
392,392,1729518455711,-0.19433594,-0.7437134,0.44696045,11.375,16.546875,-11.8125
393,393,1729518455751,-0.064697266,-1.1653442,0.3961792,-6.78125,17.75,-11.6875
394,394,1729518455791,-0.049560547,-1.2505493,0.50946045,-18.90625,12.140625,-4.59375
395,395,1729518455831,-0.2175293,-1.3740845,0.50335693,-17.859375,10.671875,-6.6875
396,396,1729518455871,0.15966797,-1.3579712,-0.15899658,10.859375,9.40625,5.859375
397,397,1729518455911,-0.061279297,-0.8921509,-0.08892822,21.796875,12.984375,14.140625
398,398,1729518455951,-0.38476562,-0.9685669,0.003112793,-12.625,26.390625,4.203125
399,399,1729518455991,-0.08911133,-0.94317627,0.28778076,8.015625,-7.90625,-8.5
400,400,1729518456031,0.09277344,-0.8345337,0.33148193,17.828125,-1.328125,-0.78125
401,401,1729518456071,-0.015380859,-0.78790283,0.14715576,19.59375,6.78125,0.375
402,402,1729518456111,-0.095458984,-0.76226807,0.1383667,19.578125,-11.5,7.09375
403,403,1729518456151,-0.19921875,-0.8928833,0.1329956,9.140625,-17.21875,6.703125
404,404,1729518456191,-0.3100586,-0.9483032,0.22943115,-2.890625,-21.71875,2.625
405,405,1729518456231,-0.22363281,-0.78082275,0.3920288,4.609375,-8.765625,5.0625
406,406,1729518456271,-0.14233398,-0.8731079,0.30316162,3.484375,-7.453125,6.03125
407,407,1729518456311,-0.19677734,-1.1109009,0.1083374,0.5625,-16.8125,2.15625
408,408,1729518456351,-0.3647461,-1.092102,0.2921753,-17.515625,-10.375,-3.25
409,409,1729518456391,-0.26416016,-1.3132935,0.4249878,-9.109375,-15.078125,-11.4375
410,410,1729518456431,0.17895508,-1.4700317,0.11395264,14.578125,-14.953125,-11.203125
411,411,1729518456471,0.024658203,-1.1309204,-0.2078247,11.859375,-15.03125,-9.78125
412,412,1729518456511,0.08984375,-0.72735596,-0.023986816,4.90625,-12.984375,-4.4375
413,413,1729518456551,0.08691406,-0.86602783,0.215271,-10.90625,-21.9375,9.5
414,414,1729518456591,-0.1105957,-1.0379028,0.21966553,-7.34375,-18.40625,17.234375
415,415,1729518456631,-0.27685547,-0.9692993,0.262146,-5.96875,0.625,-1.375
416,416,1729518456671,-0.087890625,-0.8670044,0.24505615,5.484375,-3.609375,-5.390625
417,417,1729518456711,0.05517578,-0.70880127,0.20965576,7.890625,7.734375,-0.390625
418,418,1729518456751,-0.06933594,-0.79229736,0.17889404,-2.46875,-2.03125,5.375
419,419,1729518456791,-0.10839844,-0.9751587,0.37445068,-13.125,-0.265625,-1.21875
420,420,1729518456831,-0.06274414,-0.8882446,0.43060303,0.53125,16.828125,0.765625
421,421,1729518456871,-0.06298828,-0.6433716,0.3991089,-5.5,12.265625,-2.921875
422,422,1729518456911,-0.027832031,-0.9614868,0.4472046,-13.5,-2.734375,-15.53125
423,423,1729518456951,-0.10864258,-1.3032837,0.46429443,-18.703125,8.8125,-13.28125
424,424,1729518456991,-0.28100586,-1.4695435,0.3217163,-21.640625,15.28125,3.875
425,425,1729518457031,-0.16601562,-1.3638306,-0.08795166,5.921875,7.890625,-1.09375
426,426,1729518457071,-0.19506836,-0.98272705,0.008483887,28.28125,3.875,12.28125
427,427,1729518457111,-0.09082031,-0.50616455,0.04486084,12.421875,34.75,12.6875
428,428,1729518457151,-0.08276367,-0.84869385,0.16131592,-0.984375,21.875,-12.984375
429,429,1729518457191,-0.10107422,-1.1314087,0.34368896,-8.203125,13.625,-12.203125
430,430,1729518457231,-0.24658203,-0.9475708,0.09637451,11.484375,19.40625,5.375
431,431,1729518457271,-0.1977539,-0.7815552,0.19378662,12.90625,1.734375,2.765625
432,432,1729518457311,-0.16748047,-0.7444458,0.21087646,6.875,-2.578125,-3.5
433,433,1729518457351,-0.1640625,-0.9187622,0.2501831,1.28125,-8.109375,-4.75
434,434,1729518457391,-0.19580078,-0.8821411,0.2033081,10.015625,1.515625,9.640625
435,435,1729518457431,-0.22851562,-0.7468872,0.230896,-1.546875,-5.359375,9.453125
436,436,1729518457471,-0.29614258,-0.940979,0.20233154,-11.71875,-16.5625,4.984375
437,437,1729518457511,-0.26489258,-1.1775513,0.15960693,-12.28125,-14.140625,1.953125
438,438,1729518457551,-0.28222656,-0.9512329,0.4611206,-23.234375,-3.71875,0.421875
439,439,1729518457591,0.076171875,-1.2510376,0.29266357,5.453125,-34.59375,-8.296875
440,440,1729518457631,0.1496582,-1.3787231,-0.04058838,12.171875,-20.265625,2.3125
441,441,1729518457671,-0.06518555,-1.1621704,-0.17608643,19.65625,-18.53125,-1.6875
442,442,1729518457711,-0.1940918,-1.0442505,0.29608154,-5.0625,2.75,-13.484375
443,443,1729518457751,-0.19799805,-1.1289673,0.12664795,-11.6875,18.125,6.296875
444,444,1729518457791,0.005126953,-0.7764282,0.02166748,-7.859375,0.53125,18.59375
445,445,1729518457831,0.049316406,-0.7192993,0.23284912,-10.921875,-3.234375,3.171875
446,446,1729518457871,0.015625,-0.8242798,0.34124756,-3.640625,5.390625,-4.90625
447,447,1729518457911,-0.11010742,-0.8291626,0.35198975,1.296875,16.09375,0.640625
448,448,1729518457951,-0.030029297,-0.91119385,0.293396,-0.09375,16.5,-0.984375
449,449,1729518457991,0.004638672,-0.7793579,0.24432373,-8.46875,17.46875,-3.875
450,450,1729518458031,-0.06616211,-0.73883057,0.37469482,5.21875,16.078125,-7.5
451,451,1729518458071,-0.047607422,-0.9170532,0.44818115,-2.15625,8.171875,-7.125
452,452,1729518458111,-0.078125,-1.1358032,0.4381714,-13.078125,6.625,-10.484375
453,453,1729518458151,-0.12084961,-1.055481,0.37445068,-14.65625,8.046875,-8.0
454,454,1729518458191,-0.25,-0.90948486,0.6454468,-18.0,11.9375,-6.671875
455,455,1729518458231,-0.118652344,-1.3469849,0.30438232,-4.421875,3.359375,-12.109375
456,456,1729518458271,0.1616211,-1.4512329,0.11126709,-4.921875,3.578125,-1.140625
457,457,1729518458311,0.03857422,-0.866272,-0.15338135,15.546875,20.265625,16.3125
458,458,1729518458351,-0.18701172,-0.95635986,-0.045959473,-0.578125,-9.09375,5.625
459,459,1729518458391,0.051757812,-1.0244751,0.2579956,4.921875,-45.15625,-2.3125
460,460,1729518458431,0.05859375,-0.9470825,0.26483154,2.625,-24.6875,8.53125
461,461,1729518458471,-0.19360352,-0.7859497,0.058532715,21.0,-24.21875,10.46875
462,462,1729518458511,-0.14868164,-0.78692627,0.034362793,13.375,-48.078125,9.90625
463,463,1729518458551,-0.0769043,-0.96661377,0.08343506,1.234375,-61.5625,7.46875
464,464,1729518458591,-0.0847168,-1.0015259,0.16278076,9.375,-61.78125,13.53125
465,465,1729518458631,-0.09375,-0.9397583,0.11541748,5.4375,-69.125,19.296875
466,466,1729518458671,-0.06616211,-1.0088501,0.047302246,-4.921875,-79.921875,17.65625
467,467,1729518458711,-0.2421875,-0.9817505,-0.06109619,0.0,-84.65625,19.203125
468,468,1729518458751,-0.4260254,-0.892395,-0.09991455,3.734375,-82.25,9.671875
469,469,1729518458791,-0.2043457,-0.9246216,-0.10284424,-8.640625,-97.671875,7.78125
470,470,1729518458831,0.2783203,-1.1057739,-0.058166504,8.71875,-100.109375,13.5625
471,471,1729518458871,0.08178711,-1.1358032,-0.038879395,15.03125,-82.609375,20.8125
472,472,1729518458911,-0.064453125,-1.2947388,0.10443115,9.984375,-94.90625,19.203125
473,473,1729518458951,0.041259766,-1.2842407,0.18572998,-0.078125,-80.0625,17.734375
474,474,1729518458991,0.11669922,-1.0203247,0.15301514,8.765625,-80.59375,20.09375
475,475,1729518459031,0.24658203,-0.93218994,0.14031982,3.75,-83.015625,17.8125
476,476,1729518459071,0.28295898,-0.928772,0.08685303,-2.59375,-80.078125,18.609375
477,477,1729518459111,0.006591797,-0.9663696,0.09515381,6.71875,-77.6875,12.21875
478,478,1729518459151,-0.14257812,-0.82696533,0.1227417,7.640625,-74.890625,4.9375
479,479,1729518459191,-0.07006836,-0.7678833,0.2909546,6.4375,-66.5,-3.71875
480,480,1729518459231,0.037841797,-0.8965454,0.17767334,-4.09375,-52.40625,-13.453125
481,481,1729518459271,0.07104492,-1.0120239,0.20013428,2.71875,-51.78125,-10.921875
482,482,1729518459311,0.0715332,-0.9536743,0.26507568,4.421875,-51.984375,-5.125
483,483,1729518459351,0.2175293,-1.0110474,0.3607788,-3.078125,-52.828125,-5.953125
484,484,1729518459391,0.3269043,-0.9819946,0.4755249,-8.921875,-50.234375,2.421875
485,485,1729518459431,0.06616211,-0.9546509,0.34979248,-4.84375,-39.46875,5.265625
486,486,1729518459471,-0.3076172,-0.9902954,0.35662842,-4.046875,-36.953125,-2.296875
487,487,1729518459511,-0.12646484,-1.1570435,0.34222412,-19.296875,-40.078125,-11.671875
488,488,1729518459551,0.11425781,-1.4385376,0.16278076,-19.5,-16.765625,-9.328125
489,489,1729518459591,-0.0063476562,-0.9295044,-0.2625122,22.359375,-22.28125,11.859375
490,490,1729518459631,-0.26245117,-0.8899536,-0.2432251,-13.03125,-30.5,2.296875
491,491,1729518459671,-0.24902344,-1.1807251,0.050720215,-22.828125,-38.5625,-2.03125
492,492,1729518459711,-0.07788086,-0.9690552,0.050964355,5.9375,-32.171875,1.4375
493,493,1729518459751,-0.2253418,-0.7349243,0.09857178,1.265625,-27.296875,3.890625
494,494,1729518459791,-0.31347656,-0.8093872,0.12371826,0.390625,-34.65625,-2.9375
495,495,1729518459831,-0.19042969,-0.9837036,0.15594482,-6.171875,-38.546875,-2.84375
496,496,1729518459871,-0.092285156,-1.0344849,0.17767334,0.484375,-22.390625,5.125
497,497,1729518459911,-0.11816406,-0.8652954,0.16326904,-1.828125,-22.671875,7.59375
498,498,1729518459951,-0.19433594,-0.88848877,0.27557373,-4.796875,-28.921875,5.21875
499,499,1729518459991,-0.2277832,-0.944397,0.2687378,-3.375,-28.03125,5.78125
500,500,1729518460031,-0.18603516,-0.9517212,0.30218506,-6.25,-28.890625,4.25
501,501,1729518460071,-0.22802734,-0.9529419,0.22698975,-13.546875,-21.8125,3.8125
502,502,1729518460111,-0.31640625,-1.000061,0.31829834,-6.65625,-23.8125,0.875
503,503,1729518460151,-0.2890625,-1.0881958,0.41619873,-10.390625,-30.421875,-3.46875
504,504,1729518460191,0.021484375,-1.3408813,0.14837646,6.796875,-42.84375,-6.515625
505,505,1729518460231,0.10229492,-1.1057739,-0.03717041,1.171875,-35.640625,-2.03125
506,506,1729518460271,-0.012207031,-0.84625244,-0.15655518,11.546875,-15.390625,-3.59375
507,507,1729518460311,0.19213867,-1.0994263,0.1876831,-13.421875,-20.609375,-0.53125
508,508,1729518460351,-0.10473633,-1.1538696,0.24481201,-6.671875,3.015625,16.953125
509,509,1729518460391,-0.19433594,-0.86309814,0.10101318,4.609375,-1.109375,15.515625
510,510,1729518460431,-0.01171875,-0.7901001,0.18377686,-0.40625,-7.75,-2.4375
511,511,1729518460471,0.10571289,-0.7444458,0.2748413,0.390625,-4.375,-2.9375
512,512,1729518460511,-0.048583984,-0.7949829,0.24920654,1.421875,-6.78125,5.484375
513,513,1729518460551,-0.14672852,-0.9602661,0.30462646,2.296875,-4.953125,-2.875
514,514,1729518460591,-0.17260742,-0.95562744,0.31976318,-4.90625,7.390625,-6.46875
515,515,1729518460631,-0.07055664,-0.85357666,0.3685913,-4.203125,10.921875,-6.796875
516,516,1729518460671,-0.03540039,-0.89263916,0.3378296,1.9375,5.84375,-12.9375
517,517,1729518460711,-0.0871582,-1.0396118,0.3949585,-17.59375,6.75,-9.765625
518,518,1729518460751,-0.20141602,-1.1060181,0.4821167,-7.765625,11.546875,-4.515625
519,519,1729518460791,-0.22583008,-1.1189575,0.51312256,-12.796875,4.796875,-3.46875
520,520,1729518460831,-0.03466797,-1.3474731,0.18695068,2.5,-9.296875,-14.015625
521,521,1729518460871,0.087890625,-1.2180786,0.057556152,9.015625,21.90625,1.484375
522,522,1729518460911,-0.118896484,-0.7202759,-0.21612549,22.796875,16.34375,10.3125
523,523,1729518460951,-0.3310547,-0.8010864,-0.09698486,2.9375,13.328125,7.515625
524,524,1729518460991,-0.01928711,-0.99542236,0.21136475,-5.375,-15.140625,-3.421875
525,525,1729518461031,0.099121094,-1.1011353,0.41326904,-3.265625,-4.65625,1.125
526,526,1729518461071,-0.14648438,-0.8677368,0.10491943,14.71875,6.0,7.984375
527,527,1729518461111,-0.21289062,-0.73638916,0.06903076,18.5,-17.25,5.109375
528,528,1729518461151,-0.09741211,-0.89434814,0.17352295,-8.40625,-30.328125,7.0625
529,529,1729518461191,-0.171875,-0.9673462,0.29315186,-0.46875,-18.25,10.8125
530,530,1729518461231,-0.22290039,-0.82476807,0.24969482,2.984375,-11.546875,9.453125
531,531,1729518461271,-0.22753906,-0.8616333,0.22259521,0.90625,-20.375,3.0625
532,532,1729518461311,-0.32592773,-0.9277954,0.113464355,-6.296875,-26.46875,4.046875
533,533,1729518461351,-0.37890625,-1.1431274,0.33465576,-16.171875,-15.375,1.96875
534,534,1729518461391,-0.3232422,-1.0576782,0.44451904,-17.609375,14.15625,-4.125
535,535,1729518461431,-0.3100586,-1.2424927,0.02532959,10.96875,-16.0,-19.15625
536,536,1729518461471,-0.14648438,-1.065979,-0.031555176,-11.734375,-0.203125,-19.75
537,537,1729518461511,0.12426758,-1.1177368,-0.10430908,1.96875,1.25,-15.078125
538,538,1729518461551,-0.09082031,-1.4050903,0.41571045,0.921875,46.609375,-12.40625
539,539,1729518461591,-0.27856445,-0.9356079,0.07611084,10.359375,47.171875,0.90625
540,540,1729518461631,-0.13867188,-0.75787354,0.16766357,3.65625,7.890625,-4.796875
541,541,1729518461671,-0.022705078,-0.76812744,0.18060303,12.359375,22.265625,-4.359375
542,542,1729518461711,-0.18725586,-0.7456665,0.12982178,14.390625,32.296875,1.859375
543,543,1729518461751,-0.3239746,-0.8718872,0.23431396,-6.03125,36.34375,1.609375
544,544,1729518461791,-0.06567383,-0.8987427,0.1786499,-0.1875,39.0625,-1.90625
545,545,1729518461831,-0.012207031,-0.86846924,0.21697998,4.390625,46.0,1.546875
546,546,1729518461871,-0.23046875,-0.8640747,0.2946167,-6.765625,45.875,-2.765625
547,547,1729518461911,-0.09716797,-1.0029907,0.31878662,-11.796875,37.78125,-5.328125
548,548,1729518461951,0.11791992,-1.0335083,0.28778076,-10.671875,27.140625,2.421875
549,549,1729518461991,-0.07836914,-0.8237915,0.42034912,0.15625,34.4375,3.953125
550,550,1729518462031,-0.47485352,-0.97198486,0.3234253,-6.171875,54.671875,-3.8125
551,551,1729518462071,-0.31323242,-1.3723755,-0.15216064,0.328125,54.765625,5.28125
552,552,1729518462111,-0.47998047,-1.5581665,-0.1428833,14.46875,59.90625,11.3125
553,553,1729518462151,-0.40185547,-1.0618286,-0.08428955,9.703125,79.21875,-14.640625
554,554,1729518462191,-0.24414062,-0.8389282,0.31170654,17.75,75.21875,-32.578125
555,555,1729518462231,-0.04638672,-0.815979,0.2140503,23.109375,98.125,-21.625
556,556,1729518462271,-0.030273438,-0.96954346,-0.06573486,21.25,73.4375,-12.375
557,557,1729518462311,-0.012207031,-0.69000244,-0.034484863,20.25,35.5625,4.375
558,558,1729518462351,-0.13867188,-0.7630005,0.057556152,13.265625,20.375,-2.8125
559,559,1729518462391,-0.22558594,-1.013977,0.25164795,-2.515625,25.390625,-1.53125
560,560,1729518462431,-0.22485352,-1.0032349,0.2506714,8.015625,31.59375,-0.15625
561,561,1729518462471,-0.19946289,-0.9475708,0.28704834,3.671875,14.4375,-3.53125
562,562,1729518462511,-0.19799805,-1.053772,0.27044678,0.8125,-4.546875,-2.921875
563,563,1729518462551,-0.30200195,-1.0991821,0.22943115,-10.34375,-8.09375,1.484375
564,564,1729518462591,-0.45703125,-1.2859497,0.26678467,-6.140625,-0.34375,-6.4375
565,565,1729518462631,-0.11669922,-1.3008423,-0.059143066,4.90625,-5.109375,-23.28125
566,566,1729518462671,0.07324219,-1.142395,-0.22247314,15.046875,-10.53125,-18.3125
567,567,1729518462711,0.25024414,-0.8399048,-0.13824463,10.921875,-15.359375,-0.171875
568,568,1729518462751,-0.06323242,-0.89630127,0.030456543,-17.609375,5.84375,0.890625
569,569,1729518462791,-0.4165039,-0.95391846,0.16741943,-13.203125,13.9375,3.59375
570,570,1729518462831,-0.1003418,-0.84332275,0.16156006,-6.421875,3.578125,-2.671875
571,571,1729518462871,0.18334961,-0.8233032,0.18450928,6.734375,6.84375,5.640625
572,572,1729518462911,-0.010253906,-0.76031494,0.15081787,3.0625,22.296875,-0.84375
573,573,1729518462951,-0.25634766,-1.0278931,0.16448975,-23.046875,5.640625,-2.109375
574,574,1729518462991,-0.2199707,-1.0630493,0.39691162,-5.671875,11.203125,-0.640625
575,575,1729518463031,-0.1496582,-0.737854,0.34466553,-1.046875,22.0625,-5.078125
576,576,1729518463071,-0.10546875,-0.71221924,0.27435303,-3.328125,7.6875,-12.65625
577,577,1729518463111,-0.0107421875,-0.97540283,0.29510498,-13.71875,-5.6875,-11.171875
578,578,1729518463151,-0.1381836,-1.114563,0.42108154,-13.421875,10.609375,-9.265625
579,579,1729518463191,-0.3203125,-1.0908813,0.5765991,-22.0625,9.625,-1.234375
580,580,1729518463231,-0.17089844,-1.2644653,0.28289795,-21.609375,1.59375,-10.515625
581,581,1729518463271,0.05053711,-1.3118286,-0.14605713,1.1875,-9.921875,0.609375
582,582,1729518463311,-0.18579102,-1.0335083,-0.23834229,17.8125,44.96875,17.59375
583,583,1729518463351,-0.3696289,-1.2210083,0.046325684,-7.46875,17.140625,6.640625
584,584,1729518463391,0.14624023,-0.9841919,0.4298706,5.1875,-27.046875,-4.75
585,585,1729518463431,0.0126953125,-0.75494385,0.30145264,18.84375,15.859375,7.546875
586,586,1729518463471,-0.3178711,-0.60113525,0.101501465,17.609375,9.296875,1.0
587,587,1729518463511,-0.15112305,-0.64678955,0.17327881,8.640625,-18.421875,1.703125
588,588,1729518463551,-0.0063476562,-0.94000244,0.08441162,-11.109375,-30.640625,3.21875
589,589,1729518463591,-0.24316406,-1.0039673,0.39715576,-0.1875,-18.75,11.921875
590,590,1729518463631,-0.3034668,-0.8374634,0.3517456,1.21875,-12.046875,15.9375
591,591,1729518463671,-0.16064453,-1.0247192,0.3143921,-6.15625,-26.859375,-1.359375
592,592,1729518463711,-0.35620117,-0.9126587,0.1293335,-3.609375,-20.765625,0.453125
593,593,1729518463751,-0.4572754,-0.9373169,0.2177124,-2.09375,-6.953125,-6.515625
594,594,1729518463791,-0.06225586,-1.2144165,0.3390503,-22.65625,-19.515625,-14.890625
595,595,1729518463831,0.21679688,-1.3064575,0.21185303,2.25,-31.5625,-4.359375
596,596,1729518463871,0.026367188,-1.1467896,-0.10626221,29.265625,-26.890625,-5.96875
597,597,1729518463911,-0.028808594,-1.072815,0.038513184,2.890625,-43.75,-5.09375
598,598,1729518463951,-0.017578125,-1.1726685,0.30560303,-20.625,-19.796875,10.84375
599,599,1729518463991,-0.21679688,-0.8965454,0.28900146,3.015625,12.359375,30.859375
600,600,1729518464031,-0.24902344,-0.7620239,0.16473389,-10.953125,-16.0625,8.859375
601,601,1729518464071,0.01586914,-0.81866455,0.2814331,-2.34375,-16.453125,-4.078125
602,602,1729518464111,0.1340332,-0.7612915,0.28363037,-0.390625,8.015625,4.09375
603,603,1729518464151,0.06689453,-0.81817627,0.32000732,0.4375,-0.96875,8.15625
604,604,1729518464191,-0.03881836,-0.96832275,0.30804443,-4.75,-3.046875,1.84375
605,605,1729518464231,-0.08251953,-0.89630127,0.3793335,-1.171875,0.46875,-1.03125
606,606,1729518464271,-0.056640625,-0.80914307,0.42547607,4.171875,-1.0,-6.015625
607,607,1729518464311,-0.1328125,-0.95318604,0.36590576,-8.828125,-1.234375,-10.1875
608,608,1729518464351,-0.23339844,-1.0747681,0.3619995,-7.15625,8.09375,-15.65625
609,609,1729518464391,-0.14331055,-1.1004028,0.32513428,-15.21875,0.484375,-5.328125
610,610,1729518464431,0.15307617,-1.3528442,0.27581787,-3.5625,-12.875,-5.96875
611,611,1729518464471,0.12109375,-1.3547974,-0.07672119,1.109375,-5.75,3.78125
612,612,1729518464511,-0.15844727,-0.9558716,-0.18414307,7.390625,5.375,21.109375
613,613,1729518464551,-0.0061035156,-1.0256958,0.034851074,-4.25,-39.40625,5.90625
614,614,1729518464591,0.09716797,-0.94122314,0.24578857,-0.796875,-56.875,-1.375
615,615,1729518464631,-0.033203125,-0.8352661,0.109558105,7.765625,-47.578125,8.625
616,616,1729518464671,-0.1003418,-0.82403564,-0.081604004,16.25,-56.75,4.953125
617,617,1729518464711,-0.072265625,-0.8430786,-0.09307861,2.515625,-75.875,11.90625
618,618,1729518464751,-0.1328125,-1.0039673,0.008483887,-8.734375,-83.90625,15.515625
619,619,1729518464791,-0.14013672,-1.0379028,0.066833496,1.578125,-76.875,16.078125
620,620,1729518464831,-0.018554688,-1.017395,-0.07623291,2.0625,-88.109375,17.8125
621,621,1729518464871,-0.05029297,-1.0220337,-0.24127197,-9.34375,-106.09375,20.671875
622,622,1729518464911,-0.23730469,-0.9849243,-0.33502197,-4.140625,-120.84375,27.765625
623,623,1729518464951,-0.18115234,-0.9795532,-0.021057129,4.625,-115.75,26.875
624,624,1729518464991,0.056640625,-1.0403442,-0.08355713,8.390625,-123.171875,23.65625
625,625,1729518465031,0.011474609,-1.1099243,-0.14727783,25.46875,-108.296875,29.859375
626,626,1729518465071,-0.1352539,-1.0654907,-0.046691895,4.140625,-97.5625,26.25
627,627,1729518465111,0.06689453,-1.0491333,0.33026123,6.109375,-85.96875,18.015625
628,628,1729518465151,0.24145508,-0.8255005,0.22357178,4.21875,-58.796875,13.953125
629,629,1729518465191,0.27783203,-1.0300903,0.09246826,1.34375,-88.671875,12.640625
630,630,1729518465231,0.15625,-1.022522,0.23382568,0.8125,-73.84375,7.421875
631,631,1729518465271,-0.059814453,-0.8587036,0.21575928,5.484375,-63.140625,-1.53125
632,632,1729518465311,-0.17358398,-0.84259033,0.25335693,0.96875,-67.9375,-9.859375
633,633,1729518465351,-0.09033203,-0.8977661,0.36761475,2.421875,-44.703125,-17.34375
634,634,1729518465391,0.08129883,-0.8701782,0.2838745,-2.421875,-28.296875,-22.109375
635,635,1729518465431,0.26831055,-0.9492798,0.45892334,-4.734375,-30.90625,-16.75
636,636,1729518465471,0.37402344,-1.076477,0.5180054,-9.28125,-32.515625,-5.3125
637,637,1729518465511,0.2770996,-0.9673462,0.45965576,-4.234375,-46.984375,1.96875
638,638,1729518465551,-0.040283203,-1.0557251,0.35980225,-14.125,-38.890625,-4.578125
639,639,1729518465591,-0.14550781,-1.1362915,-0.042785645,-15.328125,-29.15625,4.71875
640,640,1729518465631,-0.23242188,-1.3582153,-0.08795166,4.734375,-16.671875,7.75
641,641,1729518465671,-0.39794922,-0.9475708,-0.07550049,-9.4375,-21.484375,9.984375
642,642,1729518465711,-0.21508789,-1.0142212,0.15887451,-30.0625,-36.34375,-2.90625
643,643,1729518465751,-0.11352539,-0.987854,0.16864014,5.453125,-10.765625,-2.40625
644,644,1729518465791,-0.34472656,-0.736145,0.061950684,19.859375,-9.671875,-6.484375
645,645,1729518465831,-0.40673828,-0.72076416,0.1317749,8.390625,-21.109375,-8.90625
646,646,1729518465871,-0.24731445,-0.85601807,0.25604248,-2.375,-13.140625,-0.859375
647,647,1729518465911,-0.125,-1.0645142,0.30340576,1.515625,-1.28125,-1.265625
648,648,1729518465951,-0.15014648,-0.96221924,0.17156982,15.5625,-0.09375,3.421875
649,649,1729518465991,-0.26733398,-0.8411255,0.2994995,2.796875,-6.234375,5.328125
650,650,1729518466031,-0.27246094,-0.87164307,0.33441162,-0.546875,-11.515625,-1.078125
651,651,1729518466071,-0.26123047,-0.96343994,0.31121826,-10.515625,-5.953125,-1.828125
652,652,1729518466111,-0.14819336,-1.0762329,0.18963623,-11.234375,-4.609375,0.5
653,653,1729518466151,-0.18066406,-1.0640259,0.29241943,-10.6875,-11.3125,6.5
654,654,1729518466191,-0.33862305,-1.0650024,0.4364624,-18.140625,-17.421875,4.84375
655,655,1729518466231,-0.19213867,-1.3860474,0.32562256,-5.515625,-47.6875,-12.609375
656,656,1729518466271,0.034179688,-1.3013306,-0.035217285,14.125,-21.546875,-13.703125
657,657,1729518466311,-0.068359375,-1.0332642,-0.24346924,13.3125,-11.328125,-19.34375
658,658,1729518466351,0.1171875,-1.0496216,0.13250732,-8.140625,1.296875,-8.46875
659,659,1729518466391,-0.051757812,-0.9439087,0.113708496,-7.984375,7.859375,14.9375
660,660,1729518466431,-0.17578125,-0.7144165,0.15179443,2.875,-2.96875,14.921875
661,661,1729518466471,-0.15942383,-0.78253174,0.15081787,-0.421875,-18.546875,-1.9375
662,662,1729518466511,-0.00024414062,-0.83062744,0.20135498,1.125,-0.703125,1.90625
663,663,1729518466551,-0.056884766,-0.7683716,0.27191162,-2.53125,8.90625,3.390625
664,664,1729518466591,-0.12426758,-0.8838501,0.28729248,-13.28125,2.625,2.921875
665,665,1729518466631,-0.1081543,-0.85943604,0.25726318,2.546875,6.640625,2.15625
666,666,1729518466671,-0.17895508,-0.84454346,0.4413452,-5.140625,7.203125,-2.375
667,667,1729518466711,-0.033447266,-0.9692993,0.41033936,-12.65625,7.21875,-9.90625
668,668,1729518466751,0.025146484,-1.1504517,0.38006592,-10.6875,9.875,-8.171875
669,669,1729518466791,-0.02319336,-1.1033325,0.43377686,-13.390625,3.9375,-1.859375
670,670,1729518466831,-0.2199707,-1.0579224,0.5704956,-14.734375,20.421875,-2.859375
671,671,1729518466871,-0.14575195,-1.3748169,0.05291748,4.90625,30.203125,-9.40625
672,672,1729518466911,-0.02319336,-1.1936646,-0.24127197,22.59375,25.765625,3.46875
673,673,1729518466951,-0.18652344,-0.7966919,-0.1675415,9.96875,20.921875,14.484375
674,674,1729518466991,-0.12866211,-0.9204712,0.1359253,-5.8125,-14.734375,5.5
675,675,1729518467031,0.037597656,-0.99298096,0.31976318,-6.0,-16.703125,-3.640625
676,676,1729518467071,-0.17651367,-0.94000244,0.29656982,-0.53125,10.03125,9.40625
677,677,1729518467111,-0.2849121,-0.8118286,0.14251709,21.25,8.46875,5.703125
678,678,1729518467151,-0.103515625,-0.6878052,-0.024475098,21.25,-10.578125,1.234375
679,679,1729518467191,-0.12451172,-0.9182739,0.16912842,-9.4375,-23.640625,3.921875
680,680,1729518467231,-0.16674805,-0.9463501,0.2723999,-3.03125,-8.59375,6.984375
681,681,1729518467271,-0.19995117,-0.8804321,0.26849365,-3.09375,-12.015625,10.84375
682,682,1729518467311,-0.26708984,-0.97076416,0.26898193,-14.296875,-16.59375,7.0625
683,683,1729518467351,-0.43579102,-0.95635986,0.3168335,-11.21875,-10.015625,0.546875
684,684,1729518467391,-0.2446289,-1.0315552,0.38201904,-12.765625,-8.109375,-3.390625
685,685,1729518467431,-0.1965332,-1.0574341,0.36444092,-17.796875,-5.140625,-7.171875
686,686,1729518467471,-0.2668457,-1.232727,-0.10284424,13.6875,-13.40625,-20.25
687,687,1729518467511,-0.010253906,-1.1091919,-0.2678833,9.546875,-26.546875,-17.734375
688,688,1729518467551,0.20654297,-1.0957642,0.36932373,-22.734375,-7.53125,-6.203125
689,689,1729518467591,-0.47583008,-0.95977783,0.11175537,12.71875,70.71875,-3.0
690,690,1729518467631,-0.6809082,-0.87628174,-0.128479,14.03125,60.40625,-5.5625
691,691,1729518467671,-0.08886719,-0.97784424,0.24627686,-16.4375,25.0,-25.46875
692,692,1729518467711,0.12182617,-1.0928345,0.43914795,29.71875,58.9375,-17.0625
693,693,1729518467751,-0.17822266,-0.8687134,0.14715576,5.875,75.953125,4.75
694,694,1729518467791,-0.22485352,-0.7371216,0.07562256,8.65625,56.578125,-3.765625
695,695,1729518467831,-0.10498047,-0.80010986,0.18231201,1.46875,59.640625,-8.265625
696,696,1729518467871,-0.09082031,-0.8233032,0.27630615,-0.140625,55.765625,-10.40625
697,697,1729518467911,-0.099853516,-0.97003174,0.21917725,0.0,46.859375,-13.34375
698,698,1729518467951,0.21191406,-1.1611938,0.21331787,15.6875,19.34375,-2.375
699,699,1729518467991,-0.025878906,-1.092102,0.30926514,-30.609375,30.25,20.0
700,700,1729518468031,-0.4189453,-0.80596924,0.5829468,-42.0,13.6875,9.609375
701,701,1729518468071,-0.63256836,-0.5371704,0.6845093,12.359375,56.640625,-34.1875
702,702,1729518468111,-0.5053711,-1.4832153,0.1305542,-22.671875,68.5,-42.375
703,703,1729518468151,-0.29614258,-1.6157837,-0.36065674,52.03125,71.875,-8.0
704,704,1729518468191,-0.48339844,-0.6367798,-0.07598877,21.140625,91.796875,-0.6875
705,705,1729518468231,-0.020507812,-0.9282837,0.055358887,19.984375,45.921875,-34.734375
706,706,1729518468271,0.28930664,-0.9661255,0.21234131,26.625,44.96875,-8.59375
707,707,1729518468311,-0.033203125,-0.9175415,-0.08746338,19.65625,79.109375,15.671875
708,708,1729518468351,-0.23168945,-0.97003174,0.035339355,-1.96875,40.4375,10.5
709,709,1729518468391,-0.35742188,-0.9234009,0.29144287,-2.0625,8.1875,-4.390625
710,710,1729518468431,-0.3684082,-0.96466064,0.41644287,7.53125,23.125,-2.015625
711,711,1729518468471,-0.25512695,-0.90167236,0.3690796,9.421875,41.46875,-0.640625
712,712,1729518468511,-0.18847656,-0.94415283,0.18548584,12.328125,38.296875,-1.890625
713,713,1729518468551,-0.1809082,-1.0437622,0.09832764,4.703125,0.359375,-4.1875
714,714,1729518468591,-0.33642578,-0.86431885,0.24090576,-9.25,-12.484375,-3.671875
715,715,1729518468631,-0.5004883,-0.93414307,0.3912964,-12.0,-3.75,-6.671875
716,716,1729518468671,-0.12084961,-1.2925415,-0.0803833,20.40625,-18.625,-23.046875
717,717,1729518468711,0.34594727,-1.4275513,-0.24542236,6.078125,-10.515625,-19.171875
718,718,1729518468751,0.40454102,-1.142395,0.11663818,-0.609375,9.703125,1.359375
719,719,1729518468791,-0.15795898,-0.8965454,0.23846436,-14.671875,21.734375,5.296875
720,720,1729518468831,-0.44067383,-0.8064575,0.06951904,9.65625,4.734375,13.125
721,721,1729518468871,-0.19873047,-0.7905884,-0.07989502,8.21875,4.71875,2.28125
722,722,1729518468911,0.1003418,-0.991272,0.2423706,-4.234375,12.671875,-14.453125
723,723,1729518468951,0.09082031,-1.055481,0.4208374,-6.96875,48.609375,-4.203125
724,724,1729518468991,-0.06225586,-0.79888916,0.17327881,3.15625,37.484375,11.6875
725,725,1729518469031,-0.17211914,-0.8369751,0.1408081,4.28125,18.484375,0.90625
726,726,1729518469071,-0.11669922,-0.8093872,0.3348999,-1.328125,16.3125,-6.171875
727,727,1729518469111,-0.07836914,-0.8062134,0.4467163,-1.859375,24.9375,-6.265625
728,728,1729518469151,-0.04736328,-0.94976807,0.35736084,-3.40625,25.515625,-9.359375
729,729,1729518469191,-0.018798828,-1.0437622,0.3847046,-14.046875,17.25,-8.5
730,730,1729518469231,-0.16601562,-1.1768188,0.47821045,-18.46875,22.25,-14.75
731,731,1729518469271,-0.2878418,-1.2156372,0.50823975,-19.09375,13.875,-15.640625
732,732,1729518469311,0.060058594,-1.2896118,0.109069824,1.0625,3.046875,-22.203125
733,733,1729518469351,0.0041503906,-1.097229,-0.17779541,20.46875,25.21875,2.3125
734,734,1729518469391,-0.36621094,-1.0564575,-0.21002197,-6.34375,36.359375,3.34375
735,735,1729518469431,0.013183594,-0.9492798,0.19818115,5.40625,-11.375,0.34375
736,736,1729518469471,0.2397461,-0.82525635,0.44451904,5.34375,-6.1875,-4.515625
737,737,1729518469511,-0.16210938,-0.7632446,0.24310303,4.828125,9.640625,7.609375
738,738,1729518469551,-0.27246094,-0.6987915,0.168396,16.90625,-10.265625,3.25
739,739,1729518469591,-0.084472656,-0.8225708,0.039978027,8.28125,-33.90625,8.15625
740,740,1729518469631,-0.12524414,-1.034729,0.15350342,-9.625,-41.0,6.46875
741,741,1729518469671,-0.26904297,-0.9014282,0.32318115,7.40625,-20.671875,5.234375
742,742,1729518469711,-0.26000977,-0.7908325,0.3842163,0.828125,-21.375,5.765625
743,743,1729518469751,-0.14404297,-1.0110474,0.21234131,-1.21875,-27.6875,1.828125
744,744,1729518469791,-0.28466797,-1.0027466,0.07952881,3.140625,-23.078125,0.875
745,745,1729518469831,-0.42333984,-0.94317627,0.30706787,-6.609375,-8.71875,-6.28125
746,746,1729518469871,0.1159668,-1.3047485,0.19915771,-11.015625,-33.921875,-10.953125
747,747,1729518469911,0.4362793,-1.3479614,-0.09161377,7.296875,-64.65625,4.203125
748,748,1729518469951,0.040283203,-1.1038208,0.09613037,5.421875,-46.296875,5.609375
749,749,1729518469991,-0.0949707,-1.0579224,0.19281006,-9.578125,-37.8125,1.9375
750,750,1729518470031,-0.064941406,-1.1460571,0.07293701,-7.296875,-40.0625,19.859375
751,751,1729518470071,-0.17749023,-0.7324829,0.014343262,0.640625,-36.0625,13.140625
752,752,1729518470111,-0.087646484,-0.7649536,0.1161499,-0.59375,-38.28125,1.6875
753,753,1729518470151,-0.008544922,-0.85943604,0.30706787,5.53125,-27.3125,5.625
754,754,1729518470191,0.08178711,-0.8513794,0.2579956,5.65625,-30.46875,14.21875
755,755,1729518470231,-0.010009766,-1.0220337,0.31170654,-5.9375,-23.21875,9.5625
756,756,1729518470271,-0.06225586,-0.9258423,0.32366943,-2.203125,-20.921875,5.84375
757,757,1729518470311,-0.07446289,-0.7732544,0.38079834,-2.765625,-32.984375,5.59375
758,758,1729518470351,-0.07397461,-0.90167236,0.48675537,-0.421875,-29.78125,-1.921875
759,759,1729518470391,-0.08227539,-1.06427,0.40179443,-23.421875,-17.578125,-10.578125
