,Unnamed: 0,timestamp,accel_x,accel_y,accel_z,gyro_x,gyro_y,gyro_z
0,0,1728019080247,0.3347168,-0.70928955,0.06488037,-5.40625,11.3125,4.15625
1,1,1728019080287,0.32202148,-0.79522705,0.036071777,-3.3125,6.828125,4.59375
2,2,1728019080327,0.38256836,-0.9680786,0.11175537,-2.140625,15.203125,1.828125
3,3,1728019080367,0.33764648,-1.0003052,0.101989746,-3.328125,2.828125,-0.875
4,4,1728019080407,0.27294922,-0.9458618,0.081970215,-6.390625,6.40625,-4.1875
5,5,1728019080447,0.3125,-0.87872314,0.090026855,-3.953125,10.46875,-2.75
6,6,1728019080487,0.29101562,-0.8740845,0.085632324,-0.5,9.109375,-0.9375
7,7,1728019080527,0.27441406,-0.9158325,0.11883545,-3.015625,11.953125,-2.46875
8,8,1728019080567,0.28515625,-0.94854736,0.13616943,-4.484375,14.671875,-2.0625
9,9,1728019080607,0.265625,-0.88165283,0.12689209,-5.359375,15.4375,-3.296875
10,10,1728019080647,0.21435547,-0.8977661,0.15203857,-3.890625,13.984375,-5.15625
11,11,1728019080687,0.22998047,-0.93170166,0.16204834,-7.6875,17.53125,-7.0625
12,12,1728019080727,0.24023438,-0.91656494,0.17352295,-6.328125,19.96875,-6.578125
13,13,1728019080767,0.25512695,-0.90802,0.21307373,-7.40625,21.609375,-6.015625
14,14,1728019080807,0.21044922,-0.94415283,0.18792725,-8.6875,17.203125,-4.8125
15,15,1728019080847,0.2685547,-1.0435181,-0.035705566,4.96875,9.703125,1.046875
16,16,1728019080887,0.8466797,-1.2866821,-0.13995361,-1.59375,9.953125,9.84375
17,17,1728019080927,0.58813477,-1.1433716,0.010925293,-1.78125,-14.609375,1.1875
18,18,1728019080967,0.0061035156,-0.87042236,-0.12677002,4.171875,-3.625,-4.015625
19,19,1728019081007,0.011474609,-0.6807251,-0.10479736,-5.890625,12.09375,6.078125
20,20,1728019081047,0.3955078,-0.58843994,-0.2041626,-15.859375,25.34375,1.390625
21,21,1728019081087,0.49560547,-0.83795166,-0.20123291,13.265625,19.140625,3.75
22,22,1728019081127,0.35961914,-1.2232056,-0.054992676,23.453125,7.171875,-3.34375
23,23,1728019081167,0.22314453,-1.3528442,0.0026245117,-0.734375,-0.921875,-7.703125
24,24,1728019081207,0.1640625,-0.77056885,-0.08868408,-10.890625,5.234375,-9.828125
25,25,1728019081247,0.15478516,-0.6399536,-0.033996582,3.5,2.875,-8.71875
26,26,1728019081287,0.14135742,-0.86505127,-0.02911377,5.65625,4.234375,-1.625
27,27,1728019081327,0.19750977,-1.1309204,-0.0022583008,5.0,8.4375,-3.5
28,28,1728019081367,0.13793945,-1.0662231,-0.057434082,-13.65625,8.828125,-0.71875
29,29,1728019081407,0.14819336,-0.85162354,-0.054748535,-5.484375,15.546875,1.3125
30,30,1728019081447,0.17456055,-1.0088501,-0.03643799,-5.90625,17.390625,-0.25
31,31,1728019081487,0.16308594,-1.0198364,0.023864746,-10.40625,18.0,-1.15625
32,32,1728019081527,0.07373047,-0.9163208,-0.0010375977,-15.359375,14.671875,0.671875
33,33,1728019081567,0.12719727,-0.9151001,-0.0064086914,-12.984375,15.703125,0.515625
34,34,1728019081607,0.15966797,-0.9746704,0.04095459,-14.171875,15.890625,2.0
35,35,1728019081647,0.13378906,-0.94073486,0.070007324,-14.046875,15.734375,2.359375
36,36,1728019081687,0.14550781,-0.95318604,0.05999756,-10.90625,15.484375,6.265625
37,37,1728019081727,0.1459961,-0.9680786,0.11566162,-2.890625,13.0625,6.25
38,38,1728019081767,0.13012695,-1.0401001,0.09539795,4.625,9.984375,4.421875
39,39,1728019081807,0.095703125,-1.206604,-0.08306885,26.4375,1.59375,6.21875
40,40,1728019081847,0.33325195,-1.3328247,-0.29644775,-2.296875,4.09375,6.6875
41,41,1728019081887,0.58203125,-1.0518188,0.10467529,-25.9375,35.921875,0.015625
42,42,1728019081927,0.25,-0.6721802,-0.17852783,-9.96875,18.15625,-8.71875
43,43,1728019081967,0.28979492,-0.44903564,-0.128479,-5.46875,12.859375,4.0625
44,44,1728019082007,0.14404297,-0.81256104,-0.021057129,-5.046875,21.09375,19.109375
45,45,1728019082047,0.4741211,-1.5430298,-0.06915283,-6.3125,44.53125,2.203125
46,46,1728019082087,0.49291992,-1.0947876,-0.022521973,-33.984375,31.0625,-5.84375
47,47,1728019082127,0.18115234,-0.6043091,-0.06939697,-9.96875,26.71875,4.546875
48,48,1728019082167,0.17871094,-0.7095337,-0.077941895,-10.390625,33.828125,-1.6875
49,49,1728019082207,0.25170898,-0.8982544,0.050476074,-8.3125,53.609375,1.671875
50,50,1728019082247,0.4321289,-0.8723755,0.12664795,-5.265625,41.25,9.640625
51,51,1728019082287,0.4753418,-0.87823486,-0.077941895,-7.5625,32.671875,5.515625
52,52,1728019082327,0.26586914,-0.88067627,0.032165527,-3.15625,29.734375,3.90625
53,53,1728019082367,0.26660156,-0.90704346,0.059753418,-5.796875,31.359375,-1.46875
54,54,1728019082407,0.34106445,-0.8257446,0.06121826,-4.171875,24.078125,1.8125
55,55,1728019082447,0.28564453,-0.87750244,0.078063965,1.125,19.4375,4.046875
56,56,1728019082487,0.28271484,-0.894104,0.09295654,-2.25,18.0625,-0.015625
57,57,1728019082527,0.24438477,-0.8909302,0.101257324,-0.4375,11.453125,-2.453125
58,58,1728019082567,0.21264648,-0.9258423,0.05218506,1.0625,7.953125,-5.84375
59,59,1728019082607,0.26733398,-0.9234009,0.06463623,-3.359375,13.96875,-8.609375
60,60,1728019082647,0.42382812,-0.9944458,-0.018615723,10.390625,7.828125,-5.5625
61,61,1728019082687,0.8310547,-1.3460083,-0.27886963,18.984375,-18.171875,1.0
62,62,1728019082727,0.44018555,-1.2949829,-0.025939941,-1.859375,-34.125,-3.5
63,63,1728019082767,-0.030029297,-0.87091064,-0.2793579,-3.28125,-30.125,-3.984375
64,64,1728019082807,0.22363281,-0.44171143,-0.31011963,-27.625,-8.390625,2.25
65,65,1728019082847,0.5358887,-0.6096802,-0.2576294,27.28125,21.90625,-3.921875
66,66,1728019082887,0.5266113,-1.4336548,0.06317139,11.46875,-7.09375,-0.671875
67,67,1728019082927,0.3786621,-1.0620728,-0.042297363,-5.578125,-35.96875,-9.46875
68,68,1728019082967,0.1472168,-0.69366455,-0.12921143,-13.125,-21.890625,-14.8125
69,69,1728019083007,0.16235352,-0.5960083,-0.09991455,-4.53125,-27.09375,-8.390625
70,70,1728019083047,0.2709961,-0.82281494,-0.07476807,14.53125,-39.109375,0.515625
71,71,1728019083087,0.27539062,-1.2642212,-0.05230713,5.03125,-40.4375,-8.546875
72,72,1728019083127,0.2434082,-1.0960083,-0.032287598,-24.328125,-30.265625,-11.0625
73,73,1728019083167,0.09814453,-0.7859497,-0.00079345703,-8.890625,-28.96875,-1.65625
74,74,1728019083207,0.123535156,-0.83795166,0.05609131,-2.75,-29.0,2.71875
75,75,1728019083247,0.13305664,-0.9697876,0.1408081,-3.09375,-24.703125,1.578125
76,76,1728019083287,0.09667969,-0.94122314,0.15863037,-4.234375,-27.015625,0.5625
77,77,1728019083327,0.13574219,-0.8682251,0.16253662,-3.703125,-26.171875,2.5625
78,78,1728019083367,0.18530273,-0.96343994,0.19451904,6.203125,-25.671875,6.75
79,79,1728019083407,0.15649414,-1.0830688,0.19891357,9.890625,-29.8125,7.796875
80,80,1728019083447,0.09814453,-1.0261841,0.16522217,8.734375,-29.34375,3.734375
81,81,1728019083487,0.07861328,-1.135315,0.230896,27.234375,-21.703125,0.171875
82,82,1728019083527,0.23291016,-1.3823853,-0.018371582,0.359375,-15.53125,20.46875
83,83,1728019083567,0.48510742,-0.92144775,-0.062805176,14.875,15.1875,10.453125
84,84,1728019083607,0.6062012,-0.70269775,-0.10211182,4.859375,2.046875,1.71875
85,85,1728019083647,0.5058594,-0.48980713,0.12664795,-6.3125,2.859375,-7.0
86,86,1728019083687,0.084472656,-0.8357544,0.066589355,25.25,-13.125,7.8125
87,87,1728019083727,0.33447266,-1.550354,0.010925293,5.71875,-3.21875,4.453125
88,88,1728019083767,0.5205078,-0.94122314,0.02142334,-29.53125,22.015625,-2.921875
89,89,1728019083807,0.37060547,-0.58673096,0.08685303,-1.8125,10.78125,1.6875
90,90,1728019083847,0.21362305,-0.6814575,0.10345459,5.8125,6.796875,8.4375
91,91,1728019083887,0.2915039,-0.86260986,0.098083496,2.875,2.296875,3.6875
92,92,1728019083927,0.37548828,-0.9727173,0.14569092,3.125,7.671875,2.96875
93,93,1728019083967,0.38085938,-0.9434204,0.0993042,4.859375,4.484375,0.453125
94,94,1728019084007,0.28442383,-0.8711548,0.13421631,0.765625,5.9375,-1.359375
95,95,1728019084047,0.22436523,-0.8855591,0.18475342,8.671875,5.46875,-4.015625
96,96,1728019084087,0.2578125,-0.8880005,0.093444824,-2.390625,0.859375,-6.25
97,97,1728019084127,0.3581543,-0.8323364,0.19134521,1.4375,7.171875,-5.53125
98,98,1728019084167,0.32202148,-0.8430786,0.22283936,1.90625,3.421875,-6.171875
99,99,1728019084207,0.32421875,-0.9951782,0.05706787,7.21875,-10.53125,-3.453125
100,100,1728019084247,1.0871582,-1.3660278,-0.4414673,6.78125,-41.734375,9.734375
101,101,1728019084287,0.58569336,-1.6707153,-0.03692627,10.03125,-23.515625,4.375
102,102,1728019084327,-0.07763672,-0.8147583,-0.022766113,-14.25,2.78125,-13.734375
103,103,1728019084367,0.0925293,-0.36627197,-0.12359619,-9.375,-1.421875,-4.4375
104,104,1728019084407,0.42138672,-0.28204346,-0.25299072,-4.0,-11.5,3.046875
105,105,1728019084447,0.5266113,-0.7918091,-0.15924072,39.25,-12.921875,11.203125
106,106,1728019084487,0.4116211,-1.6223755,0.021911621,30.921875,-31.828125,-7.640625
107,107,1728019084527,0.15966797,-1.0576782,-0.1338501,-16.4375,-27.890625,-5.46875
108,108,1728019084567,0.14282227,-0.677063,-0.14093018,-7.609375,-23.625,-6.890625
109,109,1728019084607,0.36157227,-0.6782837,-0.07159424,11.0,-29.453125,-3.9375
110,110,1728019084647,0.2890625,-0.9356079,-0.007873535,15.34375,-30.578125,-1.234375
111,111,1728019084687,0.2709961,-1.0244751,-0.010070801,2.453125,-40.703125,-8.015625
112,112,1728019084727,0.31079102,-0.97320557,-0.015686035,8.046875,-36.328125,-0.796875
113,113,1728019084767,0.21948242,-0.84942627,0.008972168,-17.0,-53.53125,0.65625
114,114,1728019084807,0.20336914,-0.8843384,-0.02520752,-7.328125,-63.171875,-11.328125
115,115,1728019084847,-0.0053710938,-0.98883057,0.074401855,9.375,-59.875,-5.09375
116,116,1728019084887,-0.015625,-1.1294556,0.17132568,15.84375,-41.6875,4.3125
117,117,1728019084927,-0.020507812,-1.0591431,0.15057373,20.078125,-25.75,-2.0
118,118,1728019084967,0.13745117,-0.96099854,0.14178467,0.75,-9.796875,17.765625
119,119,1728019085007,0.29541016,-1.013977,0.124938965,13.9375,-25.765625,0.09375
120,120,1728019085047,0.54248047,-1.2781372,-0.043518066,13.796875,-18.96875,13.046875
121,121,1728019085087,0.51123047,-0.9729614,0.13861084,14.796875,-16.6875,3.25
122,122,1728019085127,0.592041,-0.59088135,-0.11798096,2.8125,-17.515625,-16.0
123,123,1728019085167,0.43017578,-0.6099243,0.10272217,27.15625,-25.71875,-4.359375
124,124,1728019085207,0.16674805,-1.2588501,0.10760498,20.859375,-43.96875,24.859375
125,125,1728019085247,0.30517578,-1.4829712,0.1305542,1.15625,-24.3125,2.421875
126,126,1728019085287,0.3413086,-0.55181885,0.073913574,-17.796875,-10.09375,-7.609375
127,127,1728019085327,0.22265625,-0.48858643,0.15863037,11.203125,-8.78125,5.21875
128,128,1728019085367,0.28710938,-0.7905884,0.07269287,17.84375,-22.96875,14.8125
129,129,1728019085407,0.37060547,-0.9612427,0.13104248,10.328125,-9.4375,8.40625
130,130,1728019085447,0.40625,-1.0359497,0.21380615,0.65625,-1.875,3.75
131,131,1728019085487,0.32348633,-0.90411377,0.20892334,1.46875,-1.84375,-0.109375
132,132,1728019085527,0.21069336,-0.7815552,0.17303467,6.59375,-6.703125,2.671875
133,133,1728019085567,0.17919922,-0.815979,0.16375732,2.703125,-4.5,-0.21875
134,134,1728019085607,0.37402344,-0.86846924,0.20819092,1.734375,5.796875,-2.21875
135,135,1728019085647,0.58032227,-0.8362427,0.24041748,-1.25,2.234375,0.90625
136,136,1728019085687,0.43139648,-0.9837036,0.074157715,18.234375,-8.5,7.96875
137,137,1728019085727,0.85791016,-1.5418091,-0.19976807,1.65625,-48.03125,9.453125
138,138,1728019085767,0.4326172,-1.3098755,0.17840576,-5.4375,-20.75,0.359375
139,139,1728019085807,-0.060302734,-0.83673096,0.094177246,-4.703125,-7.78125,-0.25
140,140,1728019085847,0.19042969,-0.62872314,-0.18023682,-16.84375,-17.59375,-8.34375
141,141,1728019085887,0.46728516,-0.41583252,-0.237854,-10.078125,5.609375,-3.453125
142,142,1728019085927,0.564209,-0.6958618,-0.1494751,22.0625,4.09375,3.328125
143,143,1728019085967,0.5546875,-1.1611938,0.009216309,25.59375,-13.53125,4.75
144,144,1728019086007,0.2919922,-1.3464966,-0.043029785,9.5625,-31.53125,-9.078125
145,145,1728019086047,0.041259766,-0.7954712,-0.11968994,-6.796875,-20.78125,-17.34375
146,146,1728019086087,0.2890625,-0.5327759,-0.0095825195,5.78125,-16.09375,-9.8125
147,147,1728019086127,0.36987305,-0.8255005,0.007507324,16.390625,-17.953125,3.671875
148,148,1728019086167,0.2578125,-1.098938,-0.023254395,20.734375,-23.796875,-0.015625
149,149,1728019086207,0.2409668,-1.0911255,0.0099487305,2.1875,-18.203125,-5.640625
150,150,1728019086247,0.26708984,-0.8464966,0.06976318,7.234375,-21.640625,-0.03125
151,151,1728019086287,0.17016602,-0.8987427,0.04901123,8.375,-19.859375,1.921875
152,152,1728019086327,0.16967773,-0.93756104,0.050964355,5.21875,-23.546875,0.0
153,153,1728019086367,0.14477539,-0.85284424,0.074401855,1.1875,-24.984375,1.21875
154,154,1728019086407,0.16308594,-0.9768677,0.0368042,10.53125,-25.640625,-1.015625
155,155,1728019086447,0.16137695,-1.0813599,0.11395264,0.21875,-15.75,0.90625
156,156,1728019086487,0.24291992,-0.97979736,0.13250732,-9.84375,-10.703125,-0.359375
157,157,1728019086527,0.43066406,-1.0210571,0.0770874,21.96875,-16.78125,-6.65625
158,158,1728019086567,0.48339844,-1.3069458,-0.10845947,15.9375,-20.984375,21.765625
159,159,1728019086607,0.49975586,-1.0730591,-0.10406494,-17.828125,-5.625,2.796875
160,160,1728019086647,0.7441406,-0.6865845,-0.21270752,11.953125,-10.890625,-12.078125
161,161,1728019086687,0.52905273,-0.30230713,-0.0725708,11.953125,-20.09375,-10.140625
162,162,1728019086727,0.041992188,-0.6135864,-0.058654785,48.796875,-35.4375,12.59375
163,163,1728019086767,0.111572266,-1.4746704,-0.004699707,28.53125,-35.109375,-0.125
164,164,1728019086807,0.7319336,-1.2937622,0.042419434,-36.625,0.6875,-5.203125
165,165,1728019086847,0.4650879,-0.616272,-0.0095825195,-3.65625,-9.515625,-2.0
166,166,1728019086887,0.110839844,-0.63409424,0.020202637,10.703125,-15.25,2.234375
167,167,1728019086927,0.19580078,-0.78863525,0.061462402,5.34375,-19.5,-0.8125
168,168,1728019086967,0.42749023,-0.9151001,0.11981201,7.046875,-11.96875,1.03125
169,169,1728019087007,0.40844727,-1.008606,0.11810303,4.59375,-13.46875,-2.578125
170,170,1728019087047,0.2902832,-0.90167236,0.09222412,-4.109375,-10.8125,-5.28125
171,171,1728019087087,0.2548828,-0.81866455,0.11907959,-0.203125,-9.671875,-4.453125
172,172,1728019087127,0.27246094,-0.87213135,0.15203857,2.1875,-9.328125,-6.625
173,173,1728019087167,0.38378906,-0.91070557,0.15130615,0.5,-12.734375,-7.765625
174,174,1728019087207,0.38012695,-0.80426025,0.24261475,1.75,-4.015625,-7.171875
175,175,1728019087247,0.09448242,-1.1192017,0.066589355,13.734375,-20.953125,-12.015625
176,176,1728019087287,0.7233887,-1.444397,-0.16290283,-4.8125,-47.96875,2.140625
177,177,1728019087327,0.5932617,-1.2527466,0.050231934,-9.828125,-24.953125,6.796875
178,178,1728019087367,0.07299805,-0.89923096,0.11517334,-2.96875,-7.671875,-0.9375
179,179,1728019087407,0.05859375,-0.46246338,-0.09869385,-21.875,-13.5625,-1.8125
180,180,1728019087447,0.4350586,-0.32330322,-0.19317627,-6.875,-7.65625,1.265625
181,181,1728019087487,0.5708008,-0.93096924,-0.13555908,34.671875,-13.0625,0.078125
182,182,1728019087527,0.46801758,-1.7800903,0.13861084,29.359375,-28.828125,-8.328125
183,183,1728019087567,0.099609375,-1.0720825,0.029968262,-22.6875,-19.984375,-6.703125
184,184,1728019087607,0.009277344,-0.56915283,-0.040100098,-12.125,-11.3125,-11.015625
185,185,1728019087647,0.23730469,-0.60723877,-0.020812988,6.515625,-14.375,-0.96875
186,186,1728019087687,0.27856445,-0.9212036,0.031188965,15.4375,-22.03125,0.75
187,187,1728019087727,0.23388672,-1.2351685,0.06048584,8.0,-20.578125,-5.03125
188,188,1728019087767,0.19628906,-1.0220337,0.07147217,-5.78125,-12.609375,-0.5
189,189,1728019087807,0.13720703,-0.8233032,0.1005249,1.078125,-12.546875,3.296875
190,190,1728019087847,0.12109375,-0.9089966,0.12640381,5.5,-14.953125,3.796875
191,191,1728019087887,0.15234375,-0.95513916,0.15228271,-4.5625,-18.75,2.15625
192,192,1728019087927,0.122802734,-0.88116455,0.105651855,-2.15625,-18.328125,2.78125
193,193,1728019087967,0.042236328,-0.9668579,0.15887451,4.734375,-13.734375,5.6875
194,194,1728019088007,0.078125,-1.0071411,0.14959717,-2.046875,-9.71875,5.5
195,195,1728019088047,0.2980957,-1.0488892,0.1408081,0.8125,-13.375,-2.359375
196,196,1728019088087,0.2770996,-1.3589478,0.20233154,16.890625,-19.234375,-1.625
197,197,1728019088127,0.40722656,-1.2178345,-0.027648926,3.75,-10.265625,19.546875
198,198,1728019088167,0.60131836,-0.80352783,-0.081848145,3.5625,2.25,1.9375
199,199,1728019088207,0.5563965,-0.6074829,-0.019348145,8.828125,-7.734375,-10.515625
200,200,1728019088247,0.2548828,-0.46295166,0.051452637,18.53125,-10.046875,6.53125
201,201,1728019088287,-0.088378906,-1.0193481,0.09661865,23.0625,-21.34375,4.109375
202,202,1728019088327,0.49951172,-1.4719849,0.05999756,-4.421875,-7.3125,3.6875
203,203,1728019088367,0.5539551,-0.9295044,0.1359253,-23.34375,10.734375,1.21875
204,204,1728019088407,0.28442383,-0.6773071,0.06536865,3.1875,-5.015625,1.828125
205,205,1728019088447,0.18725586,-0.66851807,0.081726074,6.765625,-4.265625,3.578125
206,206,1728019088487,0.3239746,-0.8069458,0.105895996,9.0625,-4.65625,6.296875
207,207,1728019088527,0.41845703,-0.9678345,0.17547607,11.28125,-1.046875,2.9375
208,208,1728019088567,0.34838867,-1.0217896,0.09637451,0.578125,-5.03125,-0.21875
209,209,1728019088607,0.24511719,-0.92144775,0.15447998,1.8125,-1.359375,-0.703125
210,210,1728019088647,0.2319336,-0.7930298,0.17059326,4.078125,3.203125,-1.0
211,211,1728019088687,0.26831055,-0.8545532,0.1618042,3.671875,1.390625,-0.71875
212,212,1728019088727,0.35766602,-0.85772705,0.137146,-0.796875,0.515625,-1.78125
213,213,1728019088767,0.3330078,-0.8875122,0.18841553,2.25,-1.75,-1.5625
214,214,1728019088807,0.12817383,-1.0820923,0.2267456,-1.453125,-2.921875,-9.9375
215,215,1728019088847,0.38061523,-1.3504028,-0.0791626,-3.875,-13.71875,-4.921875
216,216,1728019088887,0.9147949,-1.272522,-0.022277832,-12.09375,-2.125,11.453125
217,217,1728019088927,0.32543945,-0.9331665,0.10394287,0.734375,-12.375,-1.546875
218,218,1728019088967,-0.008300781,-0.7058716,-0.105773926,3.359375,2.390625,-4.71875
219,219,1728019089007,0.1875,-0.47833252,-0.19708252,-4.65625,13.5625,7.390625
220,220,1728019089047,0.50683594,-0.5491333,-0.222229,10.875,11.8125,6.078125
221,221,1728019089087,0.5422363,-1.3359985,-0.07208252,32.15625,3.8125,-0.265625
222,222,1728019089127,0.36010742,-1.5200806,0.09979248,8.28125,-19.9375,-8.140625
223,223,1728019089167,0.088134766,-0.800354,-0.058654785,-18.46875,-8.125,-9.671875
224,224,1728019089207,0.14697266,-0.49298096,-0.051086426,-1.59375,0.8125,-10.015625
225,225,1728019089247,0.20214844,-0.7554321,-0.011779785,17.984375,-12.296875,6.171875
226,226,1728019089287,0.18164062,-1.0838013,0.055603027,12.078125,-14.671875,0.6875
227,227,1728019089327,0.2578125,-1.2227173,0.03314209,-6.53125,-7.453125,-5.125
228,228,1728019089367,0.20532227,-0.862854,0.02947998,-7.828125,-8.03125,3.703125
229,229,1728019089407,0.111328125,-0.77789307,0.003112793,-0.40625,-6.265625,1.4375
230,230,1728019089447,0.1899414,-0.9024048,0.073913574,2.453125,-4.8125,2.375
231,231,1728019089487,0.22436523,-0.98443604,0.09100342,1.953125,-8.984375,3.171875
232,232,1728019089527,0.15625,-0.987854,0.057800293,-1.0625,-11.0,2.78125
233,233,1728019089567,0.0847168,-0.95684814,0.06951904,-2.859375,-7.046875,-0.328125
234,234,1728019089607,0.1538086,-1.0176392,0.13470459,-6.0625,-0.59375,-0.890625
235,235,1728019089647,0.32836914,-1.0723267,0.11395264,8.890625,-3.328125,-3.921875
236,236,1728019089687,0.3466797,-1.2471313,-0.116760254,3.25,-9.765625,4.140625
237,237,1728019089727,0.40454102,-1.2073364,-0.17803955,7.3125,4.390625,0.8125
238,238,1728019089767,0.7126465,-0.84942627,-0.02178955,-4.734375,9.1875,-7.78125
239,239,1728019089807,0.46435547,-0.6514282,-0.14459229,-2.390625,-10.84375,-8.296875
240,240,1728019089847,0.091552734,-0.3357544,0.06365967,16.015625,-10.390625,6.4375
241,241,1728019089887,-0.076171875,-1.0752563,-0.09967041,21.65625,-25.09375,5.25
242,242,1728019089927,0.76464844,-1.6218872,0.046081543,-22.953125,21.90625,2.015625
243,243,1728019089967,0.5136719,-0.8328247,0.097351074,-18.34375,2.578125,-8.390625
244,244,1728019090007,0.16235352,-0.5899048,-0.081604004,-2.015625,-11.546875,-1.296875
245,245,1728019090047,0.19580078,-0.72076416,0.018737793,5.140625,2.78125,-2.671875
246,246,1728019090087,0.35351562,-0.9265747,0.1383667,2.28125,-0.046875,3.421875
247,247,1728019090127,0.32226562,-1.0100708,0.053894043,6.140625,-3.390625,-4.21875
248,248,1728019090167,0.18725586,-0.9680786,0.0040893555,1.640625,0.53125,-2.84375
249,249,1728019090207,0.20288086,-0.9006958,0.06878662,-4.65625,6.421875,-4.296875
250,250,1728019090247,0.27612305,-0.96343994,0.1071167,-0.703125,5.234375,-1.9375
251,251,1728019090287,0.23706055,-0.9299927,0.14300537,-2.4375,4.6875,-3.4375
252,252,1728019090327,0.19458008,-0.8518677,0.14154053,-2.171875,4.828125,-0.875
253,253,1728019090367,0.17773438,-0.82598877,0.12835693,0.265625,3.328125,-1.640625
254,254,1728019090407,0.2692871,-0.87506104,0.11517334,-0.609375,7.953125,-2.546875
255,255,1728019090447,0.38891602,-0.9793091,0.16937256,-7.328125,7.84375,0.359375
256,256,1728019090487,0.39648438,-1.2493286,-0.11627197,11.6875,-18.640625,4.203125
257,257,1728019090527,0.7258301,-1.2493286,-0.08917236,-11.921875,-17.671875,13.28125
258,258,1728019090567,0.02709961,-1.006897,-0.003479004,-8.421875,-11.375,-8.234375
259,259,1728019090607,-0.103515625,-1.0991821,0.04925537,-22.078125,2.828125,-1.140625
260,260,1728019090647,0.2763672,-0.51519775,-0.09649658,-35.390625,29.109375,2.078125
261,261,1728019090687,0.4597168,-0.50738525,-0.2234497,10.171875,20.8125,8.4375
262,262,1728019090727,0.60668945,-1.09552,-0.077941895,32.34375,20.859375,4.71875
263,263,1728019090767,0.4008789,-1.6035767,0.18548584,14.625,-4.59375,-9.46875
264,264,1728019090807,0.11621094,-0.8323364,-0.022521973,-12.453125,-15.296875,-5.640625
265,265,1728019090847,-0.016845703,-0.48638916,-0.054748535,4.09375,-7.046875,-8.8125
266,266,1728019090887,0.14990234,-0.817688,-0.014709473,10.3125,-5.875,1.6875
267,267,1728019090927,0.22460938,-1.1277466,0.024108887,9.953125,-8.4375,0.8125
268,268,1728019090967,0.35742188,-1.0845337,-0.006652832,-5.1875,-6.125,1.328125
269,269,1728019091007,0.26049805,-0.8308716,0.0065307617,5.921875,-7.9375,3.296875
270,270,1728019091047,0.16235352,-0.8694458,-0.0076293945,10.578125,-17.546875,4.28125
271,271,1728019091087,0.19165039,-0.9302368,0.0289917,10.234375,-21.578125,3.34375
272,272,1728019091127,0.28173828,-0.9834595,-0.00079345703,3.96875,-27.609375,4.546875
273,273,1728019091167,0.2939453,-1.0288696,0.014343262,7.125,-33.25,0.640625
274,274,1728019091207,0.19335938,-0.9758911,0.0026245117,11.796875,-38.265625,-0.34375
275,275,1728019091247,0.3347168,-0.91900635,0.012878418,9.546875,-36.796875,-4.4375
276,276,1728019091287,0.36572266,-0.9746704,-0.055236816,32.78125,-56.75,-6.359375
277,277,1728019091327,0.33642578,-1.1499634,0.043640137,-1.53125,-47.46875,6.765625
278,278,1728019091367,0.3371582,-0.99102783,-0.11065674,-4.953125,-39.546875,2.078125
279,279,1728019091407,0.43554688,-0.8682251,-0.19732666,2.796875,-25.140625,-5.078125
280,280,1728019091447,0.5004883,-0.677063,-0.10040283,14.765625,-39.53125,2.015625
281,281,1728019091487,0.3395996,-0.6109009,-0.014709473,27.015625,-40.421875,14.125
282,282,1728019091527,0.2541504,-0.9246216,0.074157715,16.96875,-43.46875,7.328125
283,283,1728019091567,0.37280273,-1.1829224,0.058288574,20.546875,-44.359375,1.1875
284,284,1728019091607,0.34887695,-1.0952759,0.066589355,-8.1875,-34.703125,4.15625
285,285,1728019091647,0.32104492,-0.8652954,0.053649902,0.890625,-22.515625,-1.28125
286,286,1728019091687,0.33666992,-0.73101807,0.09906006,4.421875,-21.984375,2.078125
287,287,1728019091727,0.38012695,-0.7774048,0.09490967,9.703125,-28.75,11.3125
288,288,1728019091767,0.3972168,-0.89923096,0.15838623,11.859375,-27.5,7.984375
289,289,1728019091807,0.40161133,-0.94610596,0.11395264,15.71875,-29.84375,3.671875
290,290,1728019091847,0.39892578,-0.9246216,0.105651855,11.046875,-30.03125,1.46875
291,291,1728019091887,0.36816406,-0.8870239,0.12542725,15.046875,-22.125,0.078125
292,292,1728019091927,0.35620117,-0.9290161,0.14764404,10.96875,-25.75,-2.125
293,293,1728019091967,0.38330078,-0.8670044,0.1486206,9.3125,-28.453125,-5.96875
294,294,1728019092007,0.40063477,-0.82769775,0.16912842,11.3125,-28.5625,-6.75
295,295,1728019092047,0.33203125,-0.8826294,0.17645264,13.625,-31.8125,-8.59375
296,296,1728019092087,0.2590332,-0.8982544,0.18475342,16.875,-31.0,-12.421875
297,297,1728019092127,0.30395508,-0.94610596,0.16864014,11.296875,-29.296875,-13.046875
298,298,1728019092167,0.39086914,-1.0491333,0.10223389,10.625,-37.21875,-9.828125
299,299,1728019092207,0.34057617,-1.0391235,0.09906006,5.96875,-35.875,-4.484375
300,300,1728019092247,0.34301758,-0.9902954,-0.0017700195,-2.71875,-33.953125,-3.234375
301,301,1728019092287,0.3239746,-0.8843384,0.06585693,-4.65625,-24.015625,-0.0625
302,302,1728019092327,0.29541016,-0.8567505,0.04949951,2.734375,-24.1875,3.609375
303,303,1728019092367,0.35595703,-0.92559814,-0.004211426,3.46875,-26.546875,6.359375
304,304,1728019092407,0.39624023,-0.82159424,-0.077697754,7.28125,-27.921875,1.6875
305,305,1728019092447,0.33007812,-0.8530884,-0.13238525,18.046875,-32.9375,0.5625
306,306,1728019092487,0.18115234,-1.1045532,-0.03375244,25.234375,-36.328125,-1.46875
307,307,1728019092527,0.19384766,-1.0620728,0.023620605,14.546875,-34.46875,-0.34375
308,308,1728019092567,0.15014648,-0.79473877,-0.042541504,16.359375,-29.3125,-2.390625
309,309,1728019092607,0.22827148,-0.8311157,-0.11138916,16.984375,-29.421875,0.3125
310,310,1728019092647,0.25805664,-0.99713135,0.0006713867,19.703125,-27.65625,0.171875
311,311,1728019092687,0.23510742,-1.0706177,0.017028809,14.375,-28.375,-1.34375
312,312,1728019092727,0.20800781,-0.9673462,-0.009094238,6.390625,-28.765625,-2.09375
313,313,1728019092767,0.20043945,-0.8850708,0.0079956055,10.578125,-28.21875,-0.515625
314,314,1728019092807,0.21386719,-0.9121704,0.050964355,12.15625,-29.296875,0.671875
315,315,1728019092847,0.18774414,-0.96832275,0.04827881,10.3125,-28.765625,1.75
316,316,1728019092887,0.21948242,-0.9614868,0.039489746,10.1875,-30.15625,1.921875
317,317,1728019092927,0.25878906,-0.96954346,0.046813965,8.703125,-31.09375,1.296875
318,318,1728019092967,0.21923828,-1.0274048,0.06097412,4.890625,-29.171875,-0.109375
319,319,1728019093007,0.1459961,-0.9800415,0.08099365,-1.421875,-31.0,-4.0625
320,320,1728019093047,0.2319336,-0.8843384,0.09710693,-5.21875,-27.921875,-0.515625
321,321,1728019093087,0.29711914,-1.0964966,0.0018920898,11.515625,-37.375,6.078125
322,322,1728019093127,0.6225586,-1.2610474,-0.004699707,3.890625,-28.390625,25.875
323,323,1728019093167,0.50146484,-0.819397,0.022644043,3.984375,-18.703125,3.9375
324,324,1728019093207,0.36035156,-0.43902588,-0.2354126,5.296875,-35.203125,-8.984375
325,325,1728019093247,0.20141602,-0.4829712,-0.004211426,34.34375,-29.765625,16.109375
326,326,1728019093287,0.16015625,-1.0352173,0.0040893555,20.78125,-19.03125,19.0625
327,327,1728019093327,0.60595703,-1.7698364,0.15692139,-3.765625,-2.578125,5.125
328,328,1728019093367,0.47875977,-0.8357544,-0.0178833,-15.375,-8.8125,-3.65625
329,329,1728019093407,0.3569336,-0.583313,0.016784668,3.328125,-5.796875,5.40625
330,330,1728019093447,0.25585938,-0.63775635,0.0770874,5.578125,-12.40625,7.359375
331,331,1728019093487,0.36108398,-0.8701782,0.14569092,6.71875,-10.703125,9.6875
332,332,1728019093527,0.39208984,-1.0523071,0.1593628,10.109375,-8.984375,6.75
333,333,1728019093567,0.3557129,-0.97442627,0.06585693,2.671875,-9.703125,2.390625
334,334,1728019093607,0.36035156,-0.83428955,0.11224365,-4.296875,3.03125,3.75
335,335,1728019093647,0.43237305,-0.82159424,0.15252686,-0.9375,1.28125,4.59375
336,336,1728019093687,0.42651367,-0.8411255,0.15838623,0.34375,-1.140625,0.921875
337,337,1728019093727,0.43066406,-0.7876587,0.17840576,-3.5625,-0.203125,-1.25
338,338,1728019093767,0.40673828,-0.7739868,0.19525146,2.921875,-9.21875,-6.65625
339,339,1728019093807,0.34204102,-0.8648071,0.23553467,2.796875,-7.828125,-7.25
340,340,1728019093847,0.37451172,-0.9182739,0.21966553,-3.78125,-12.578125,-12.796875
341,341,1728019093887,0.42382812,-0.940979,0.15814209,4.859375,-11.453125,-9.5625
342,342,1728019093927,1.0285645,-1.2158813,-0.27496338,-1.234375,-53.796875,4.171875
343,343,1728019093967,0.609375,-1.1438599,0.16033936,12.390625,-17.15625,8.484375
344,344,1728019094007,-0.24902344,-1.0215454,-0.08795166,9.84375,-13.28125,-19.90625
345,345,1728019094047,0.08325195,-0.52349854,-0.2029419,-28.71875,-15.703125,-13.1875
346,346,1728019094087,0.65063477,-0.4817505,-0.078430176,4.953125,9.859375,-7.9375
347,347,1728019094127,0.75268555,-1.1453247,0.09124756,32.90625,-1.765625,4.546875
348,348,1728019094167,0.453125,-1.3074341,0.050231934,16.75,-41.65625,-11.265625
349,349,1728019094207,-0.0031738281,-0.7803345,-0.1026001,3.234375,-37.15625,-21.53125
350,350,1728019094247,0.13964844,-0.57281494,-0.02545166,7.390625,-28.421875,-12.796875
351,351,1728019094287,0.41577148,-0.7998657,0.04876709,23.53125,-24.390625,-2.65625
352,352,1728019094327,0.38842773,-1.2026978,0.022399902,22.125,-38.15625,-9.03125
353,353,1728019094367,0.2109375,-1.0994263,0.023864746,-0.109375,-40.15625,-12.640625
354,354,1728019094407,0.076660156,-0.7061157,0.013366699,7.328125,-39.453125,-6.1875
355,355,1728019094447,0.15698242,-0.80181885,0.06756592,21.34375,-34.21875,-5.4375
356,356,1728019094487,0.1977539,-0.9951782,0.10101318,15.921875,-39.578125,-7.734375
357,357,1728019094527,0.15356445,-0.9429321,0.08270264,18.78125,-46.53125,-4.328125
358,358,1728019094567,0.11254883,-0.866272,-0.016418457,17.65625,-41.34375,0.046875
359,359,1728019094607,0.13671875,-0.9558716,-0.04522705,17.171875,-35.59375,1.546875
360,360,1728019094647,-0.061523438,-1.0657349,0.1449585,17.484375,-27.203125,-4.859375
361,361,1728019094687,-0.18188477,-1.1008911,0.1005249,0.609375,-16.109375,1.171875
362,362,1728019094727,0.23022461,-1.1587524,0.0048217773,-3.203125,-4.765625,3.515625
363,363,1728019094767,0.5476074,-1.3115845,-0.19317627,23.953125,11.734375,15.53125
364,364,1728019094807,0.72094727,-1.0733032,-0.10821533,-1.6875,-0.375,-6.703125
365,365,1728019094847,0.3215332,-0.6477661,-0.07208252,2.484375,-9.5,-12.765625
366,366,1728019094887,0.111572266,-0.52593994,0.09490967,3.890625,-10.140625,6.53125
367,367,1728019094927,0.022460938,-1.0393677,-0.12896729,22.0,-41.0,9.5
368,368,1728019094967,0.5551758,-1.5491333,0.058776855,-25.296875,-6.421875,3.875
369,369,1728019095007,0.5637207,-0.8052368,-0.004699707,-16.390625,-3.90625,-7.828125
370,370,1728019095047,0.2607422,-0.53131104,0.016052246,0.96875,-20.59375,-1.75
371,371,1728019095087,0.08178711,-0.6904907,-0.010314941,13.015625,-21.734375,3.5625
372,372,1728019095127,0.25854492,-0.86187744,0.07684326,7.1875,-17.71875,4.984375
373,373,1728019095167,0.23657227,-1.1172485,0.07562256,21.328125,-13.640625,-2.125
374,374,1728019095207,0.3046875,-1.1294556,0.08538818,-10.515625,-8.0625,-2.0
375,375,1728019095247,0.27612305,-0.831604,0.105407715,-10.40625,2.046875,0.234375
376,376,1728019095287,0.17285156,-0.80303955,0.16229248,5.21875,2.28125,0.75
377,377,1728019095327,0.20776367,-0.9602661,0.18426514,-3.390625,0.046875,3.453125
378,378,1728019095367,0.39379883,-0.8550415,0.11224365,-6.9375,1.609375,6.078125
379,379,1728019095407,0.31469727,-0.9194946,0.24871826,-4.484375,8.234375,3.765625
380,380,1728019095447,0.052001953,-1.0396118,0.23236084,4.46875,-3.09375,-3.5625
381,381,1728019095487,0.58081055,-1.3709106,-0.29742432,-2.703125,-51.59375,8.140625
382,382,1728019095527,0.42773438,-1.3167114,-0.06378174,-18.78125,2.6875,9.96875
383,383,1728019095567,-0.009033203,-1.029602,-0.15509033,-16.5,12.078125,4.0
384,384,1728019095607,-0.057128906,-0.43634033,-0.2654419,-39.265625,21.9375,-7.296875
385,385,1728019095647,0.49780273,-0.77716064,-0.11212158,10.203125,38.046875,-3.796875
386,386,1728019095687,0.63623047,-1.2705688,0.19866943,3.4375,10.609375,4.34375
387,387,1728019095727,0.34277344,-0.9561157,0.005554199,0.0625,-8.890625,-5.671875
388,388,1728019095767,-0.06982422,-0.7022095,-0.11138916,-4.28125,-0.390625,-15.78125
389,389,1728019095807,0.045410156,-0.6983032,0.0099487305,2.359375,2.75,-3.015625
390,390,1728019095847,0.14550781,-0.99053955,0.03753662,7.546875,-4.390625,1.8125
391,391,1728019095887,0.21386719,-1.2417603,-0.011291504,-14.578125,-2.015625,-3.1875
392,392,1728019095927,0.20263672,-0.98809814,-0.008117676,-15.09375,7.078125,-2.828125
393,393,1728019095967,0.15039062,-0.86065674,0.08343506,-3.75,9.046875,-1.3125
394,394,1728019096007,0.09887695,-0.8960571,0.12738037,-7.875,3.375,0.5625
395,395,1728019096047,0.092285156,-0.9121704,0.12371826,-10.640625,2.140625,1.859375
396,396,1728019096087,0.15332031,-0.92633057,0.09832764,-6.890625,0.953125,2.609375
397,397,1728019096127,0.17285156,-0.96832275,0.16082764,-5.984375,2.875,2.609375
398,398,1728019096167,0.18847656,-1.0300903,0.20892334,-0.46875,0.8125,1.640625
399,399,1728019096207,0.1586914,-1.0108032,0.16693115,6.1875,-9.1875,2.421875
400,400,1728019096247,0.15820312,-1.2293091,-0.042785645,12.203125,-22.0625,9.71875
401,401,1728019096287,0.3623047,-1.1489868,-0.105529785,4.15625,4.046875,10.203125
402,402,1728019096327,0.5366211,-0.8640747,-0.13922119,0.390625,5.609375,-10.75
403,403,1728019096367,0.4194336,-0.6565552,0.0048217773,3.234375,3.359375,-8.4375
404,404,1728019096407,0.13452148,-0.5549927,0.12908936,28.1875,14.09375,4.328125
405,405,1728019096447,-0.08325195,-1.1502075,0.03363037,25.015625,1.4375,5.421875
406,406,1728019096487,0.39013672,-1.6104126,-0.042297363,-24.21875,23.109375,1.90625
407,407,1728019096527,0.28125,-0.9463501,0.0289917,-30.3125,36.78125,-7.5625
408,408,1728019096567,0.10913086,-0.6902466,0.0368042,-15.8125,31.5625,-2.578125
409,409,1728019096607,0.14990234,-0.7632446,-0.009094238,-9.546875,37.265625,6.40625
410,410,1728019096647,0.21044922,-0.986145,-0.003479004,-1.9375,50.859375,7.8125
411,411,1728019096687,0.2788086,-1.0227661,-0.0154418945,-14.203125,50.375,5.03125
412,412,1728019096727,0.25805664,-0.9085083,-0.05230713,-15.15625,50.484375,5.703125
413,413,1728019096767,0.18457031,-0.8833618,-0.025939941,-10.453125,50.484375,2.546875
414,414,1728019096807,0.24804688,-0.942688,-0.002746582,-8.515625,49.890625,1.265625
415,415,1728019096847,0.25927734,-0.9343872,0.028015137,-11.5625,48.484375,4.75
416,416,1728019096887,0.20239258,-0.81695557,0.027770996,-11.203125,46.0625,4.609375
417,417,1728019096927,0.20532227,-0.8233032,0.026794434,-4.609375,41.34375,0.640625
418,418,1728019096967,0.3491211,-0.8687134,0.0006713867,-10.359375,36.578125,0.984375
419,419,1728019097007,0.35742188,-0.9961548,0.15325928,-2.203125,37.25,-0.46875
420,420,1728019097047,0.14941406,-1.0737915,0.04827881,-7.390625,19.75,-6.046875
421,421,1728019097087,0.34643555,-1.333313,-0.39434814,6.84375,-6.328125,3.09375
422,422,1728019097127,0.43188477,-1.3648071,-0.026428223,-25.0,14.359375,9.53125
423,423,1728019097167,0.024414062,-0.6777954,-0.10479736,-18.6875,25.828125,-12.625
424,424,1728019097207,0.07348633,-0.5142212,-0.17095947,-29.8125,40.171875,8.015625
425,425,1728019097247,0.45288086,-0.5149536,-0.18292236,-12.28125,39.5,7.203125
426,426,1728019097287,0.51416016,-1.3118286,0.010192871,28.75,26.421875,5.890625
427,427,1728019097327,0.22998047,-1.4307251,0.031677246,-9.0625,5.703125,-3.125
428,428,1728019097367,0.064697266,-0.82354736,-0.13873291,-18.265625,23.125,-6.265625
429,429,1728019097407,0.14257812,-0.6123657,-0.12213135,-8.765625,28.734375,-12.4375
430,430,1728019097447,0.17944336,-0.69537354,-0.050598145,11.8125,16.90625,4.015625
431,431,1728019097487,0.072265625,-1.0735474,-0.0647583,13.015625,7.890625,3.875
432,432,1728019097527,0.24389648,-1.2029419,-0.062561035,-11.515625,17.140625,0.921875
433,433,1728019097567,0.13354492,-0.95928955,-0.0491333,-4.28125,13.515625,2.953125
434,434,1728019097607,0.040771484,-0.86968994,-0.049621582,-7.96875,12.546875,2.859375
435,435,1728019097647,0.16699219,-0.9336548,0.023864746,-10.671875,16.390625,3.25
436,436,1728019097687,0.068847656,-0.91778564,0.004333496,-6.453125,13.484375,8.859375
437,437,1728019097727,0.09643555,-0.9570923,-0.06744385,-3.84375,4.84375,8.734375
438,438,1728019097767,0.25512695,-1.0405884,0.0138549805,-10.84375,7.21875,3.296875
439,439,1728019097807,0.25024414,-1.0127563,0.08392334,3.046875,8.359375,-0.40625
440,440,1728019097847,0.123291016,-1.2422485,-0.14752197,21.359375,-2.984375,2.25
441,441,1728019097887,0.44921875,-1.3062134,-0.21807861,-5.0625,6.375,16.375
442,442,1728019097927,0.5703125,-0.9036255,-0.12677002,-15.3125,19.875,-1.796875
443,443,1728019097967,0.42114258,-0.6704712,-0.11187744,-12.953125,15.28125,-11.71875
444,444,1728019098007,0.30371094,-0.45025635,-0.14190674,-0.8125,-1.703125,2.796875
445,445,1728019098047,0.23730469,-0.6658325,0.10662842,18.59375,12.40625,10.15625
446,446,1728019098087,0.34985352,-1.4949341,-0.016662598,15.40625,-6.015625,-3.671875
447,447,1728019098127,0.5332031,-1.3076782,-0.07354736,-42.375,15.0,-1.78125
448,448,1728019098167,0.24560547,-0.69244385,-0.055236816,-31.453125,19.09375,-2.828125
449,449,1728019098207,0.19384766,-0.644104,-0.032043457,-7.875,18.671875,0.59375
450,450,1728019098247,0.35498047,-0.7070923,0.015563965,-4.140625,16.328125,9.546875
451,451,1728019098287,0.36010742,-0.85650635,0.14251709,-1.421875,15.03125,11.484375
452,452,1728019098327,0.33764648,-0.9932251,0.059265137,-0.984375,12.15625,4.09375
453,453,1728019098367,0.29077148,-0.93951416,0.012390137,-10.1875,11.53125,-1.96875
454,454,1728019098407,0.22583008,-0.8418579,0.073913574,0.109375,18.234375,-1.953125
455,455,1728019098447,0.23364258,-0.8245239,0.077819824,4.53125,16.75,-1.40625
456,456,1728019098487,0.23486328,-0.90802,0.10101318,1.890625,16.1875,-1.296875
457,457,1728019098527,0.2668457,-0.9768677,0.101745605,-0.8125,14.09375,-3.046875
458,458,1728019098567,0.29003906,-0.9812622,0.093444824,-1.109375,14.125,-4.546875
459,459,1728019098607,0.24487305,-0.9483032,0.109802246,-1.96875,14.984375,-5.96875
460,460,1728019098647,0.1899414,-1.0149536,0.12689209,-3.078125,12.375,-8.890625
461,461,1728019098687,0.30126953,-1.1782837,-0.10772705,4.03125,-3.859375,-4.0
462,462,1728019098727,0.53881836,-1.1817017,-0.073791504,-6.25,0.671875,0.890625
463,463,1728019098767,0.40405273,-1.0300903,-0.09112549,-17.015625,8.796875,-2.46875
464,464,1728019098807,0.10571289,-0.9446411,-0.07598877,-1.859375,22.859375,3.296875
465,465,1728019098847,0.14794922,-0.62091064,-0.12799072,-18.34375,20.21875,0.046875
466,466,1728019098887,0.53344727,-0.6694946,-0.1807251,-7.53125,23.40625,-3.984375
467,467,1728019098927,0.62719727,-0.9932251,0.012390137,18.046875,6.3125,11.546875
468,468,1728019098967,0.24975586,-1.170227,-0.050842285,15.6875,-17.015625,-0.15625
469,469,1728019099007,0.10864258,-0.81500244,-0.14117432,-11.21875,-7.921875,-11.640625
470,470,1728019099047,0.28857422,-0.68634033,-0.12042236,5.3125,-12.3125,-3.28125
471,471,1728019099087,0.3178711,-0.8713989,-0.04083252,20.875,-19.46875,3.1875
472,472,1728019099127,0.23925781,-1.0845337,-0.05303955,6.484375,-25.96875,-1.859375
473,473,1728019099167,0.19238281,-0.96539307,-0.059387207,-1.140625,-21.546875,-2.84375
474,474,1728019099207,0.16992188,-0.8948364,-0.04498291,5.984375,-25.984375,0.59375
475,475,1728019099247,0.17016602,-0.9434204,0.00970459,1.375,-24.015625,1.015625
476,476,1728019099287,0.14428711,-0.94488525,0.043640137,-0.28125,-22.90625,0.015625
477,477,1728019099327,0.140625,-0.9102173,0.034606934,-0.5,-26.140625,1.15625
478,478,1728019099367,0.26171875,-0.91412354,-0.008850098,2.046875,-30.140625,3.5625
479,479,1728019099407,0.2770996,-0.9690552,0.04901123,5.1875,-26.875,3.359375
480,480,1728019099447,0.18261719,-1.0308228,0.058532715,7.765625,-31.25,0.515625
481,481,1728019099487,0.15551758,-1.0435181,0.08856201,13.625,-33.75,-3.46875
482,482,1728019099527,0.30541992,-1.1636353,-0.032287598,13.796875,-28.21875,6.75
483,483,1728019099567,0.40234375,-1.2766724,-0.0947876,16.734375,-17.125,19.546875
484,484,1728019099607,0.55810547,-0.80133057,-0.09698486,-7.828125,-8.4375,-5.25
485,485,1728019099647,0.51538086,-0.50372314,-0.16656494,0.8125,-9.015625,-13.953125
486,486,1728019099687,0.35595703,-0.3850708,0.00018310547,29.4375,-11.203125,8.59375
487,487,1728019099727,0.1706543,-0.88897705,0.06365967,28.0625,-23.953125,12.546875
488,488,1728019099767,0.4321289,-1.5896606,0.04095459,13.328125,-24.90625,2.3125
489,489,1728019099807,0.58691406,-1.1609497,0.026794434,-20.015625,-6.140625,0.390625
490,490,1728019099847,0.32836914,-0.7241821,-0.034240723,-7.015625,-7.515625,-1.671875
491,491,1728019099887,0.2409668,-0.6499634,0.03289795,-3.8125,-6.390625,-0.53125
492,492,1728019099927,0.3815918,-0.7136841,0.070739746,3.40625,-11.4375,9.90625
493,493,1728019099967,0.4248047,-0.8262329,0.0848999,7.1875,-14.09375,10.375
494,494,1728019100007,0.4169922,-1.0066528,0.066345215,7.859375,-16.015625,3.25
495,495,1728019100047,0.359375,-1.0286255,0.06585693,6.1875,-13.109375,0.671875
496,496,1728019100087,0.33007812,-0.85162354,0.089782715,5.96875,-10.890625,-2.546875
497,497,1728019100127,0.30981445,-0.87091064,0.11590576,6.171875,-7.3125,-0.125
498,498,1728019100167,0.31884766,-0.85235596,0.10443115,3.140625,-11.59375,-2.578125
499,499,1728019100207,0.34887695,-0.8233032,0.15545654,6.140625,-6.296875,-2.953125
500,500,1728019100247,0.35302734,-0.8591919,0.15985107,2.875,-9.90625,-4.0
501,501,1728019100287,0.26757812,-0.95269775,0.13665771,7.953125,-16.953125,-7.4375
502,502,1728019100327,0.20703125,-0.9829712,0.16204834,4.4375,-10.6875,-12.59375
503,503,1728019100367,0.26879883,-1.0125122,0.09979248,5.03125,-8.328125,-9.890625
504,504,1728019100407,0.68969727,-1.2058716,-0.105529785,-2.1875,-14.21875,0.9375
505,505,1728019100447,0.6430664,-1.09552,0.066833496,-3.46875,-4.984375,8.59375
506,506,1728019100487,0.22485352,-0.8862915,-0.0095825195,10.984375,-13.875,-6.390625
507,507,1728019100527,0.1274414,-0.7827759,-0.0791626,-4.09375,-6.765625,-3.109375
508,508,1728019100567,0.24560547,-0.58721924,-0.1272583,-6.40625,-7.3125,-0.03125
509,509,1728019100607,0.4765625,-0.7107544,-0.2510376,8.234375,-0.625,4.296875
510,510,1728019100647,0.5788574,-1.1524048,-0.07110596,19.125,1.515625,1.625
511,511,1728019100687,0.39892578,-1.3838501,0.054138184,12.921875,-21.578125,-6.875
512,512,1728019100727,0.17675781,-0.7905884,-0.113342285,-1.0,-25.859375,-13.015625
513,513,1728019100767,0.19042969,-0.5366821,-0.051818848,10.09375,-17.578125,-7.390625
514,514,1728019100807,0.21386719,-0.7756958,-0.0029907227,14.1875,-24.671875,5.078125
515,515,1728019100847,0.2861328,-1.1062622,-0.058166504,14.46875,-23.34375,4.46875
516,516,1728019100887,0.32495117,-1.2197876,0.016296387,7.265625,-16.53125,-6.96875
517,517,1728019100927,0.2421875,-0.8530884,-0.02545166,1.828125,-21.703125,-3.78125
518,518,1728019100967,0.18237305,-0.7781372,0.0065307617,5.4375,-22.953125,0.15625
519,519,1728019101007,0.1875,-0.9495239,0.043395996,6.5,-22.9375,0.5
520,520,1728019101047,0.2109375,-0.99176025,0.018493652,2.09375,-25.75,-1.53125
521,521,1728019101087,0.20629883,-0.9260864,0.031921387,3.609375,-25.5625,-3.625
522,522,1728019101127,0.18603516,-0.9492798,0.047546387,-0.59375,-22.34375,-2.609375
523,523,1728019101167,0.12866211,-0.9729614,0.09197998,0.09375,-23.46875,-1.40625
524,524,1728019101207,0.20458984,-0.9963989,0.017028809,0.625,-20.21875,-0.578125
525,525,1728019101247,0.41430664,-1.140686,0.08319092,20.171875,-9.640625,1.6875
526,526,1728019101287,0.4494629,-1.260315,-0.06549072,12.8125,-12.65625,17.53125
527,527,1728019101327,0.44726562,-1.0095825,-0.10357666,-12.625,0.03125,2.15625
528,528,1728019101367,0.45141602,-0.7456665,-0.15289307,-0.546875,-9.734375,-8.296875
529,529,1728019101407,0.46875,-0.44293213,-0.101867676,14.90625,-27.359375,9.375
530,530,1728019101447,0.27563477,-0.5022583,-0.08526611,29.3125,-25.25,6.46875
531,531,1728019101487,0.2163086,-0.9439087,-6.1035156e-05,26.875,-10.5625,-1.1875
532,532,1728019101527,0.50683594,-1.4085083,-0.026428223,4.828125,-21.4375,-1.640625
533,533,1728019101567,0.6286621,-1.1712036,-0.035461426,-17.8125,-8.875,0.671875
534,534,1728019101607,0.33618164,-0.64019775,-0.066467285,-2.71875,-9.484375,-2.953125
535,535,1728019101647,0.24316406,-0.6445923,-0.022033691,4.921875,-12.21875,-0.328125
536,536,1728019101687,0.32641602,-0.87042236,0.0914917,10.375,-19.296875,5.78125
537,537,1728019101727,0.4194336,-1.0288696,0.074401855,10.390625,-19.46875,1.234375
538,538,1728019101767,0.33251953,-0.95025635,0.036071777,-4.4375,-8.515625,-4.09375
539,539,1728019101807,0.28930664,-0.848938,0.05316162,-4.734375,-6.234375,-5.0625
540,540,1728019101847,0.2734375,-0.85040283,0.11590576,-3.15625,-2.046875,-3.171875
541,541,1728019101887,0.30419922,-0.8892212,0.13153076,-5.203125,-3.03125,-7.296875
542,542,1728019101927,0.36083984,-0.9224243,0.12249756,-1.6875,-3.59375,-7.109375
543,543,1728019101967,0.36254883,-0.85772705,0.16888428,1.296875,-4.265625,-7.109375
544,544,1728019102007,0.29052734,-0.8753052,0.18060303,6.28125,-5.84375,-8.953125
545,545,1728019102047,0.30664062,-0.9302368,0.19012451,3.71875,-8.171875,-8.6875
546,546,1728019102087,0.4580078,-1.0401001,0.03314209,7.5,-23.796875,-4.8125
547,547,1728019102127,0.68603516,-1.180481,-0.06939697,9.640625,-37.796875,6.859375
548,548,1728019102167,0.36889648,-1.0899048,-0.09210205,-8.546875,-36.75,-4.609375
549,549,1728019102207,0.041259766,-1.0125122,0.13641357,-4.84375,-12.265625,-7.53125
550,550,1728019102247,0.14868164,-0.9295044,-0.042053223,-3.375,-3.296875,5.140625
551,551,1728019102287,0.2331543,-0.80963135,-0.10601807,-10.953125,6.015625,9.84375
552,552,1728019102327,0.34423828,-0.6223755,-0.19854736,-10.984375,6.8125,-4.078125
553,553,1728019102367,0.4572754,-0.7564087,-0.14605713,10.703125,-7.125,-4.578125
554,554,1728019102407,0.30859375,-1.3284302,0.04925537,31.3125,-6.921875,-4.640625
555,555,1728019102447,0.12866211,-1.2146606,0.06414795,-10.59375,-8.328125,-6.46875
556,556,1728019102487,0.1665039,-0.6902466,-0.06842041,-7.1875,-0.1875,-9.0625
557,557,1728019102527,0.1496582,-0.6856079,-0.04937744,11.625,-3.0625,-4.515625
558,558,1728019102567,0.15673828,-0.92266846,0.006286621,14.734375,-10.609375,-1.21875
559,559,1728019102607,0.24804688,-1.0969849,-0.004211426,4.140625,-9.953125,-3.71875
560,560,1728019102647,0.2277832,-1.0349731,0.0079956055,-4.0,-5.4375,-2.109375
561,561,1728019102687,0.171875,-0.909729,-0.011291504,1.328125,-7.0,0.5
562,562,1728019102727,0.13745117,-0.9175415,0.027770996,5.09375,-6.5625,1.015625
563,563,1728019102767,0.119140625,-0.97247314,0.062927246,-1.453125,-4.984375,1.5625
564,564,1728019102807,0.11987305,-0.94659424,0.055358887,-1.9375,-6.078125,2.53125
565,565,1728019102847,0.10473633,-0.96759033,0.08880615,-1.359375,-7.859375,3.28125
566,566,1728019102887,0.14624023,-0.9727173,0.07928467,-4.796875,-7.265625,4.0
567,567,1728019102927,0.16674805,-0.9812622,0.117126465,-6.171875,-3.75,4.984375
568,568,1728019102967,0.17675781,-0.97784424,0.11444092,-2.25,-5.390625,5.90625
569,569,1728019103007,0.18823242,-1.0161743,0.097839355,23.125,-4.59375,5.328125
570,570,1728019103047,0.10620117,-1.3076782,-0.097717285,5.40625,-11.53125,16.546875
571,571,1728019103087,0.3857422,-1.1272583,-0.09674072,-1.71875,5.296875,11.71875
572,572,1728019103127,0.5871582,-0.9060669,-0.101623535,-9.890625,19.765625,-2.6875
573,573,1728019103167,0.4946289,-0.6824341,-0.1296997,-10.125,0.5625,-2.0625
574,574,1728019103207,0.23999023,-0.3887329,-0.025939941,11.28125,-0.609375,4.75
575,575,1728019103247,0.08618164,-0.7600708,0.0038452148,21.84375,1.28125,3.40625
576,576,1728019103287,0.3803711,-1.4451294,-0.035705566,3.421875,6.28125,-0.859375
577,577,1728019103327,0.5710449,-1.272522,0.02142334,-29.75,19.1875,0.125
578,578,1728019103367,0.31811523,-0.6506958,-0.030334473,-23.375,12.5625,-3.859375
579,579,1728019103407,0.14208984,-0.67144775,0.014587402,4.09375,18.28125,-1.671875
580,580,1728019103447,0.22705078,-0.8652954,0.0053100586,-4.109375,15.625,8.375
581,581,1728019103487,0.33544922,-0.96759033,0.094177246,-1.328125,19.71875,8.265625
582,582,1728019103527,0.31689453,-1.0151978,0.05731201,-4.390625,21.078125,4.25
583,583,1728019103567,0.28125,-0.9614868,-0.022766113,-5.265625,15.125,2.671875
584,584,1728019103607,0.28979492,-0.8428345,0.054870605,-3.9375,23.4375,0.046875
585,585,1728019103647,0.27148438,-0.86431885,0.090026855,-1.890625,20.640625,-1.578125
586,586,1728019103687,0.31176758,-0.87091064,0.07537842,-8.015625,19.046875,2.578125
587,587,1728019103727,0.24414062,-0.87091064,0.105407715,-0.296875,12.828125,-0.859375
588,588,1728019103767,0.25,-0.9553833,0.09539795,-5.0,9.625,-8.953125
589,589,1728019103807,0.3251953,-0.9512329,0.101501465,-6.9375,13.703125,-7.078125
590,590,1728019103847,0.2878418,-1.1133423,0.0060424805,0.125,7.453125,-2.015625
591,591,1728019103887,0.62158203,-1.3435669,-0.16241455,-5.5,-14.53125,3.078125
592,592,1728019103927,0.38549805,-1.0386353,-0.04888916,-14.03125,-2.6875,-4.9375
593,593,1728019103967,0.07324219,-0.7661743,-0.038146973,0.859375,5.90625,-3.75
594,594,1728019104007,0.15209961,-0.5869751,-0.08331299,-18.0,17.421875,5.0
595,595,1728019104047,0.3984375,-0.56817627,-0.11920166,-2.09375,17.75,10.53125
596,596,1728019104087,0.47924805,-1.081604,-0.20513916,21.03125,20.40625,4.671875
597,597,1728019104127,0.39892578,-1.6460571,0.10247803,11.578125,-5.0,-9.296875
598,598,1728019104167,0.21069336,-0.8713989,-0.03717041,-17.25,0.578125,-6.890625
599,599,1728019104207,0.083740234,-0.46246338,-0.06817627,-2.46875,7.25,-9.765625
600,600,1728019104247,0.122802734,-0.7007446,-0.08795166,14.84375,-5.0,1.65625
601,601,1728019104287,0.21606445,-1.0540161,-0.024719238,10.0625,4.3125,1.90625
602,602,1728019104327,0.3466797,-1.2798462,0.0045776367,0.90625,-1.875,-6.828125
603,603,1728019104367,0.17114258,-0.90338135,-0.042053223,-4.703125,-1.171875,2.078125
604,604,1728019104407,0.071777344,-0.7732544,-0.0413208,-1.78125,-6.265625,2.09375
605,605,1728019104447,0.16333008,-0.9331665,0.02166748,0.390625,0.28125,0.65625
606,606,1728019104487,0.17529297,-1.013977,0.043395996,-2.1875,-4.5,2.015625
607,607,1728019104527,0.05859375,-0.9561157,-0.00982666,-1.375,-8.109375,1.953125
608,608,1728019104567,0.09643555,-0.9819946,-0.018371582,-3.34375,-1.390625,1.640625
609,609,1728019104607,0.22485352,-0.99542236,0.038513184,-7.328125,5.9375,4.796875
610,610,1728019104647,0.18725586,-0.9885864,0.047058105,2.171875,5.921875,-0.265625
611,611,1728019104687,0.16796875,-1.1087036,-0.045959473,13.140625,-2.5,-2.390625
612,612,1728019104727,0.27954102,-1.1802368,-0.20172119,3.5,1.6875,10.40625
613,613,1728019104767,0.52783203,-0.9793091,-0.1362915,-8.53125,18.40625,-5.8125
614,614,1728019104807,0.7331543,-0.8128052,-0.085754395,-4.4375,11.640625,-10.265625
615,615,1728019104847,0.43139648,-0.57232666,0.020690918,1.890625,-5.671875,1.203125
616,616,1728019104887,-0.023925781,-0.7407837,-0.08062744,23.59375,-23.28125,2.484375
617,617,1728019104927,0.11035156,-1.5076294,-0.045959473,9.3125,-15.6875,-1.953125
618,618,1728019104967,0.6611328,-1.1724243,0.03387451,-35.125,22.0,-9.484375
619,619,1728019105007,0.33374023,-0.630188,-0.026428223,-15.46875,10.84375,-5.375
620,620,1728019105047,0.12402344,-0.61187744,-0.049621582,0.625,2.125,5.15625
621,621,1728019105087,0.24389648,-0.74346924,0.011413574,1.3125,-0.9375,1.359375
622,622,1728019105127,0.36816406,-0.9859009,0.078552246,2.625,11.671875,3.03125
623,623,1728019105167,0.3359375,-1.1348267,0.038024902,-3.484375,6.21875,0.25
624,624,1728019105207,0.23608398,-0.8855591,0.024353027,-11.03125,7.046875,-2.734375
625,625,1728019105247,0.17529297,-0.7683716,0.06488037,-3.078125,11.046875,-2.671875
626,626,1728019105287,0.2487793,-0.9417114,0.11029053,2.25,9.921875,-1.40625
627,627,1728019105327,0.27490234,-0.98028564,0.10809326,-4.71875,5.140625,-3.0625
628,628,1728019105367,0.34887695,-0.84820557,0.093688965,-7.125,10.78125,-4.625
629,629,1728019105407,0.27978516,-0.9817505,0.21478271,-2.125,10.875,-1.984375
630,630,1728019105447,0.19384766,-1.102356,0.12615967,1.515625,-0.859375,-5.859375
631,631,1728019105487,0.45117188,-1.1709595,-0.06427002,-6.265625,-17.3125,-0.75
632,632,1728019105527,0.39624023,-1.0420532,-0.04449463,-0.171875,-6.6875,4.953125
633,633,1728019105567,0.19067383,-1.0210571,-0.061584473,3.84375,-12.078125,2.4375
634,634,1728019105607,-0.009765625,-0.80963135,-0.08892822,-24.5625,1.5,0.90625
635,635,1728019105647,0.15209961,-0.55548096,-0.13775635,-8.234375,23.421875,0.15625
636,636,1728019105687,0.42871094,-0.9326782,-0.18756104,7.234375,14.453125,-2.875
637,637,1728019105727,0.5292969,-1.456604,0.024597168,10.0625,1.3125,-4.421875
638,638,1728019105767,0.24902344,-1.072815,0.036071777,-14.78125,-6.796875,-6.265625
639,639,1728019105807,0.056396484,-0.5820923,-0.04156494,-7.421875,3.296875,-11.65625
640,640,1728019105847,0.13305664,-0.61602783,-0.031311035,12.65625,-4.078125,-3.546875
641,641,1728019105887,0.13964844,-0.9505005,-0.030334473,22.359375,-13.609375,-1.546875
642,642,1728019105927,0.14086914,-1.2556763,0.020935059,8.140625,-11.390625,-5.84375
643,643,1728019105967,0.1105957,-1.039856,-0.011779785,-19.125,-2.640625,0.0625
644,644,1728019106007,0.12792969,-0.8513794,-0.01373291,-3.34375,-3.515625,4.40625
645,645,1728019106047,0.14672852,-0.923645,0.035583496,1.109375,-5.1875,2.359375
646,646,1728019106087,0.12670898,-0.97784424,0.07220459,-2.859375,-5.609375,2.046875
647,647,1728019106127,0.076416016,-0.91363525,0.059753418,-3.609375,-9.078125,3.484375
648,648,1728019106167,0.07885742,-0.93927,0.05340576,-1.078125,-7.65625,3.984375
649,649,1728019106207,0.16088867,-1.0127563,0.07733154,-4.3125,-8.921875,2.765625
650,650,1728019106247,0.18847656,-1.010315,0.15228271,-7.25,-7.78125,4.5625
651,651,1728019106287,0.15209961,-0.9829712,0.16253662,0.796875,-12.0,4.09375
652,652,1728019106327,0.107421875,-1.2385864,-0.013977051,19.609375,-18.609375,8.546875
653,653,1728019106367,0.30517578,-1.36969,-0.13116455,9.96875,-4.515625,18.578125
654,654,1728019106407,0.47827148,-0.9077759,-0.027648926,-3.078125,14.453125,0.765625
655,655,1728019106447,0.4345703,-0.7893677,-0.046203613,-2.84375,4.21875,-3.015625
656,656,1728019106487,0.28735352,-0.4680786,-0.054504395,13.234375,-9.0,7.140625
657,657,1728019106527,0.0087890625,-0.66851807,0.06951904,18.1875,-0.03125,6.171875
658,658,1728019106567,0.23022461,-1.3118286,-0.06036377,12.21875,6.109375,-2.25
659,659,1728019106607,0.57910156,-1.3565063,0.007751465,-28.953125,28.03125,3.609375
660,660,1728019106647,0.3630371,-0.8311157,-0.009338379,-24.671875,17.109375,-4.703125
661,661,1728019106687,0.2055664,-0.67022705,0.0033569336,-10.015625,16.03125,-3.0625
662,662,1728019106727,0.22705078,-0.76397705,0.027526855,-6.46875,17.09375,3.328125
663,663,1728019106767,0.3334961,-0.86260986,0.051208496,-2.59375,19.046875,6.21875
664,664,1728019106807,0.3408203,-0.98883057,0.07635498,-3.03125,24.46875,3.109375
665,665,1728019106847,0.29101562,-0.989563,0.046325684,-7.984375,22.375,1.0625
666,666,1728019106887,0.22924805,-0.8970337,0.023620605,-4.453125,25.453125,0.859375
667,667,1728019106927,0.21948242,-0.92852783,0.06072998,-1.640625,30.734375,0.984375
668,668,1728019106967,0.31054688,-0.98931885,0.082214355,-5.375,31.703125,2.296875
669,669,1728019107007,0.2553711,-0.93536377,0.06048584,-9.453125,28.8125,1.90625
670,670,1728019107047,0.26586914,-0.8779907,0.053894043,-10.828125,33.5625,2.078125
671,671,1728019107087,0.33374023,-0.91485596,0.07928467,-14.59375,37.59375,0.4375
672,672,1728019107127,0.30297852,-0.91778564,0.11541748,-13.953125,42.140625,0.21875
673,673,1728019107167,0.15405273,-0.9692993,-0.0012817383,-10.8125,27.703125,-2.5
674,674,1728019107207,0.19482422,-1.0918579,-0.26593018,-2.015625,23.625,4.953125
675,675,1728019107247,0.28808594,-1.1411743,-0.3418579,-7.5,48.953125,3.65625
676,676,1728019107287,0.20288086,-0.9089966,-0.16925049,-29.6875,68.53125,-4.109375
677,677,1728019107327,0.18920898,-0.71343994,-0.25543213,-6.03125,56.171875,4.15625
678,678,1728019107367,0.2097168,-0.788147,-0.26080322,-6.125,67.109375,6.78125
679,679,1728019107407,0.1977539,-1.0056763,-0.21588135,-3.8125,65.765625,0.265625
680,680,1728019107447,0.15820312,-1.1834106,-0.18585205,-12.921875,62.5,-2.734375
681,681,1728019107487,0.09301758,-0.9529419,-0.27716064,-18.578125,60.5,-0.140625
682,682,1728019107527,0.16552734,-0.84088135,-0.2703247,-7.59375,64.75,1.296875
683,683,1728019107567,0.17895508,-0.97442627,-0.19854736,-12.484375,63.46875,0.46875
684,684,1728019107607,0.11816406,-1.0498657,-0.21270752,-17.796875,57.21875,2.03125
685,685,1728019107647,0.11230469,-0.9421997,-0.21221924,-17.625,56.4375,2.1875
686,686,1728019107687,0.099121094,-0.9788208,-0.22393799,-16.203125,48.671875,3.578125
687,687,1728019107727,0.087646484,-0.95269775,-0.21124268,-18.296875,47.125,6.21875
688,688,1728019107767,0.087646484,-0.90826416,-0.17877197,-17.546875,41.875,7.265625
689,689,1728019107807,0.042236328,-0.9356079,-0.20098877,-17.953125,36.4375,10.515625
690,690,1728019107847,0.037597656,-0.9607544,-0.1765747,-19.171875,35.25,7.5
691,691,1728019107887,0.048095703,-0.97125244,-0.1675415,-20.203125,30.9375,7.8125
692,692,1728019107927,0.043945312,-0.9360962,-0.16143799,-17.609375,25.4375,9.265625
693,693,1728019107967,0.05810547,-0.8604126,-0.25958252,-2.59375,16.65625,8.171875
694,694,1728019108007,0.20703125,-1.0088501,-0.21759033,14.109375,21.203125,4.625
695,695,1728019108047,0.5065918,-1.1524048,-0.018859863,-14.265625,43.359375,-2.328125
696,696,1728019108087,0.42138672,-1.25177,0.09539795,-2.84375,33.8125,-1.921875
697,697,1728019108127,0.21679688,-1.0542603,-0.0869751,-6.203125,7.84375,1.03125
698,698,1728019108167,0.099853516,-0.7359009,-0.031799316,-17.171875,35.5625,3.265625
699,699,1728019108207,0.28637695,-0.90338135,-0.11138916,-16.203125,45.015625,4.640625
700,700,1728019108247,0.45507812,-0.8965454,0.015075684,-29.984375,51.34375,8.734375
701,701,1728019108287,0.40673828,-0.79229736,0.08074951,-20.484375,49.953125,11.734375
702,702,1728019108327,0.22290039,-0.8225708,0.06536865,-9.828125,45.78125,11.515625
703,703,1728019108367,0.16894531,-0.8882446,0.00579834,-9.234375,34.421875,2.078125
704,704,1728019108407,0.25024414,-0.9607544,0.018249512,-22.578125,41.0625,2.484375
705,705,1728019108447,0.30297852,-0.92559814,-0.0647583,-15.9375,43.1875,1.203125
706,706,1728019108487,0.34399414,-0.96417236,-0.0029907227,-17.1875,45.5625,2.4375
707,707,1728019108527,0.32617188,-0.92926025,0.04949951,-13.46875,41.09375,2.515625
708,708,1728019108567,0.21899414,-0.8867798,0.026794434,-13.390625,37.828125,1.3125
709,709,1728019108607,0.22802734,-0.93341064,0.06097412,-9.875,37.453125,-0.796875
710,710,1728019108647,0.25976562,-0.91412354,0.062683105,-8.921875,31.640625,-0.1875
711,711,1728019108687,0.2849121,-0.85821533,0.09173584,-6.765625,30.90625,0.875
712,712,1728019108727,0.2849121,-0.87506104,0.094177246,-1.34375,27.171875,1.484375
713,713,1728019108767,0.19482422,-0.92755127,0.11541748,0.984375,20.578125,0.796875
714,714,1728019108807,0.17504883,-0.97369385,0.077819824,-1.859375,15.359375,-1.890625
715,715,1728019108847,0.16772461,-0.94000244,0.1071167,-1.46875,17.953125,-3.4375
716,716,1728019108887,0.057128906,-0.98101807,0.16009521,0.234375,20.3125,-8.34375
717,717,1728019108927,-0.07421875,-1.0896606,-0.016906738,-2.921875,20.015625,-11.703125
718,718,1728019108967,0.81469727,-1.3460083,-0.3262329,-18.21875,-4.484375,-3.75
719,719,1728019109007,0.58032227,-1.3469849,-0.05718994,-20.71875,8.28125,2.90625
720,720,1728019109047,0.080322266,-0.68634033,-0.030090332,-20.765625,26.671875,-5.78125
721,721,1728019109087,0.14013672,-0.25567627,-0.20025635,-0.265625,18.53125,10.296875
722,722,1728019109127,0.5202637,-0.75201416,-0.04473877,30.5,24.1875,-1.390625
723,723,1728019109167,0.4194336,-1.47052,0.03314209,13.4375,9.90625,4.96875
724,724,1728019109207,0.11010742,-1.1453247,-0.16485596,-6.421875,-5.984375,2.28125
725,725,1728019109247,0.1430664,-0.8262329,-0.09234619,-18.390625,13.015625,-13.390625
726,726,1728019109287,0.31518555,-0.7258911,-0.022521973,4.140625,17.953125,-0.796875
727,727,1728019109327,0.23730469,-0.8406372,-0.018127441,11.8125,-0.1875,1.609375
728,728,1728019109367,0.14404297,-1.0176392,-0.010803223,-5.921875,-2.015625,-2.015625
729,729,1728019109407,0.1105957,-1.0247192,-0.0020141602,0.40625,1.203125,1.046875
730,730,1728019109447,0.09667969,-0.98028564,0.00579834,-1.578125,-3.5625,3.46875
731,731,1728019109487,0.21557617,-0.92193604,-0.02130127,-2.828125,-0.890625,2.265625
732,732,1728019109527,0.23388672,-0.90582275,0.011657715,0.640625,-0.609375,3.671875
733,733,1728019109567,0.14501953,-0.91241455,0.0053100586,2.953125,-7.4375,3.546875
734,734,1728019109607,0.13256836,-0.94903564,0.016052246,2.828125,-8.375,0.15625
735,735,1728019109647,0.18603516,-0.9529419,0.054138184,-2.6875,-6.453125,1.03125
