,Unnamed: 0,timestamp,accel_x,accel_y,accel_z,gyro_x,gyro_y,gyro_z
0,0,1727404992299,-0.8745117,0.35809326,0.4545288,-0.140625,-0.03125,0.21875
1,1,1727404992339,-0.8754883,0.34783936,0.46697998,0.15625,0.53125,-0.421875
2,2,1727404992379,-0.8762207,0.34417725,0.45526123,0.171875,0.390625,-0.3125
3,3,1727404992419,-0.8720703,0.3517456,0.44403076,-0.140625,0.625,-0.296875
4,4,1727404992459,-0.8808594,0.35076904,0.46209717,0.65625,-0.578125,0.125
5,5,1727404992499,-0.8664551,0.3600464,0.4647827,-0.296875,0.375,-0.78125
6,6,1727404992539,-0.8676758,0.338562,0.46136475,-0.1875,0.6875,-0.578125
7,7,1727404992579,-0.8679199,0.33929443,0.4743042,-0.109375,0.328125,-0.5
8,8,1727404992619,-0.86499023,0.35321045,0.46502686,-0.234375,0.203125,-0.0625
9,9,1727404992659,-0.87402344,0.35198975,0.48114014,-0.0625,0.234375,0.015625
10,10,1727404992699,-0.8730469,0.35272217,0.4677124,0.078125,0.296875,-0.34375
11,11,1727404992739,-0.8574219,0.3480835,0.47381592,0.0625,-0.015625,-0.078125
12,12,1727404992779,-0.86743164,0.35198975,0.47821045,-0.34375,0.0,-0.453125
13,13,1727404992819,-0.8640137,0.34197998,0.46868896,0.203125,0.25,-0.171875
14,14,1727404992859,-0.85375977,0.35028076,0.46868896,-0.28125,-0.21875,-0.53125
15,15,1727404992899,-0.8659668,0.35516357,0.48236084,-0.59375,-0.15625,-0.5625
16,16,1727404992939,-0.8664551,0.3463745,0.47235107,-0.125,-0.328125,-0.171875
17,17,1727404992979,-0.85302734,0.34539795,0.47283936,-0.296875,-0.4375,-0.3125
18,18,1727404993019,-0.8613281,0.35028076,0.48187256,-0.25,-1.390625,-0.078125
19,19,1727404993059,-0.86987305,0.3612671,0.48602295,0.203125,-0.09375,-0.375
20,20,1727404993099,-0.86279297,0.34295654,0.47454834,0.1875,0.328125,-0.375
21,21,1727404993139,-0.8552246,0.3439331,0.48406982,-0.328125,-0.171875,-0.25
22,22,1727404993179,-0.85668945,0.35076904,0.48358154,-0.359375,-0.59375,-0.125
23,23,1727404993219,-0.86206055,0.3534546,0.48431396,-0.390625,-0.640625,-0.53125
24,24,1727404993259,-0.85717773,0.3427124,0.4784546,-0.53125,-0.828125,-0.09375
25,25,1727404993299,-0.8564453,0.34954834,0.48016357,-0.90625,-0.65625,0.015625
26,26,1727404993339,-0.86279297,0.3505249,0.48309326,-1.0,-0.890625,-0.15625
27,27,1727404993379,-0.8574219,0.3451538,0.48016357,-0.59375,-0.03125,0.0
28,28,1727404993419,-0.8552246,0.3456421,0.48724365,-1.296875,-0.71875,0.046875
29,29,1727404993459,-0.86083984,0.35198975,0.4882202,-1.40625,-0.984375,0.078125
30,30,1727404993499,-0.85546875,0.3378296,0.4689331,-0.671875,-0.578125,0.234375
31,31,1727404993539,-0.85131836,0.354187,0.4833374,-0.34375,-1.078125,0.1875
32,32,1727404993579,-0.8510742,0.34075928,0.48187256,-1.03125,-2.453125,0.4375
33,33,1727404993619,-0.8762207,0.36419678,0.4887085,-0.84375,-1.640625,-0.0625
34,34,1727404993659,-0.86621094,0.35125732,0.47235107,-0.453125,-0.625,-0.1875
35,35,1727404993699,-0.8581543,0.338562,0.4845581,-0.78125,-0.671875,0.03125
36,36,1727404993739,-0.86279297,0.35662842,0.4796753,-1.0,-0.84375,0.078125
37,37,1727404993779,-0.8605957,0.36102295,0.48065186,-1.109375,-1.09375,0.296875
38,38,1727404993819,-0.8640137,0.3427124,0.46868896,-1.078125,-0.953125,0.15625
39,39,1727404993859,-0.8581543,0.33758545,0.4743042,-1.84375,-1.375,0.265625
40,40,1727404993899,-0.86499023,0.35784912,0.48187256,-1.1875,-1.390625,0.28125
41,41,1727404993939,-0.85961914,0.3529663,0.47528076,-0.59375,-0.34375,-0.109375
42,42,1727404993979,-0.86083984,0.3451538,0.480896,-0.90625,-0.90625,-0.1875
43,43,1727404994019,-0.8642578,0.35101318,0.47381592,-1.625,-1.484375,-0.046875
44,44,1727404994059,-0.8671875,0.36541748,0.48260498,-0.5625,-0.71875,-0.0625
45,45,1727404994099,-0.85546875,0.34881592,0.48358154,-0.765625,-1.59375,0.140625
46,46,1727404994139,-0.85961914,0.3439331,0.47454834,-0.671875,-1.484375,0.359375
47,47,1727404994179,-0.86450195,0.35003662,0.47601318,-1.5625,-1.78125,-0.015625
48,48,1727404994219,-0.87158203,0.371521,0.4713745,-0.59375,-0.71875,-0.234375
49,49,1727404994259,-0.8625488,0.33953857,0.46453857,-1.0,-0.578125,0.03125
50,50,1727404994299,-0.86572266,0.34881592,0.46990967,-1.109375,-0.71875,0.21875
51,51,1727404994339,-0.8601074,0.355896,0.46673584,-0.640625,-1.015625,0.171875
52,52,1727404994379,-0.8703613,0.35443115,0.4664917,-0.953125,-0.953125,-0.203125
53,53,1727404994419,-0.8618164,0.34588623,0.46673584,-0.953125,-1.234375,0.078125
54,54,1727404994459,-0.86035156,0.35321045,0.46917725,-0.828125,-1.46875,0.65625
55,55,1727404994499,-0.8654785,0.35638428,0.46673584,-1.125,-0.96875,-0.0625
56,56,1727404994539,-0.86816406,0.34979248,0.4718628,-0.921875,-0.421875,-0.171875
57,57,1727404994579,-0.8601074,0.35247803,0.463562,-0.640625,-0.96875,0.21875
58,58,1727404994619,-0.8701172,0.35882568,0.4706421,-1.359375,-1.15625,-0.21875
59,59,1727404994659,-0.86499023,0.36639404,0.48675537,0.046875,-0.453125,0.046875
60,60,1727404994699,-0.8618164,0.34857178,0.4743042,-0.59375,-0.875,0.171875
61,61,1727404994739,-0.86499023,0.34490967,0.4640503,-0.515625,-1.09375,0.359375
62,62,1727404994779,-0.8581543,0.3595581,0.47357178,-1.0,-1.671875,-0.140625
63,63,1727404994819,-0.873291,0.37420654,0.47039795,-0.578125,-0.421875,-0.59375
64,64,1727404994859,-0.8647461,0.34979248,0.46600342,-0.265625,0.03125,-0.25
65,65,1727404994899,-0.86206055,0.3475952,0.4779663,-0.328125,-0.359375,-0.09375
66,66,1727404994939,-0.8664551,0.35516357,0.4647827,-0.15625,-0.1875,-0.234375
67,67,1727404994979,-0.8725586,0.35369873,0.47283936,-0.625,-0.40625,-0.453125
68,68,1727404995019,-0.85375977,0.35321045,0.4755249,-0.34375,-0.625,-0.3125
69,69,1727404995059,-0.87231445,0.35247803,0.46844482,-0.65625,-0.578125,-0.359375
70,70,1727404995099,-0.8666992,0.3600464,0.4767456,-0.140625,-0.1875,-0.21875
71,71,1727404995139,-0.8613281,0.35980225,0.46722412,-0.03125,0.546875,-0.578125
72,72,1727404995179,-0.8601074,0.3546753,0.48016357,-0.28125,0.421875,-0.421875
73,73,1727404995219,-0.85302734,0.33831787,0.4730835,-0.265625,-1.09375,0.125
74,74,1727404995259,-0.8532715,0.36053467,0.47772217,-0.421875,-0.34375,-0.59375
75,75,1727404995299,-0.861084,0.35443115,0.47772217,-0.234375,0.125,-0.4375
76,76,1727404995339,-0.8640137,0.3529663,0.48773193,-0.328125,-0.765625,-0.078125
77,77,1727404995379,-0.8598633,0.3427124,0.4647827,-0.375,-1.15625,-0.3125
78,78,1727404995419,-0.8654785,0.36932373,0.4882202,-0.671875,-0.890625,-0.390625
79,79,1727404995459,-0.8544922,0.35736084,0.48187256,0.28125,-0.203125,-0.359375
80,80,1727404995499,-0.8574219,0.34344482,0.48309326,-0.484375,-0.34375,-0.34375
81,81,1727404995539,-0.86865234,0.3529663,0.48382568,0.140625,-0.484375,-0.0625
82,82,1727404995579,-0.8598633,0.35614014,0.48114014,0.03125,-0.296875,0.09375
83,83,1727404995619,-0.8557129,0.35028076,0.48406982,-0.21875,-0.203125,-0.234375
84,84,1727404995659,-0.84814453,0.34710693,0.48382568,-0.5,-0.671875,-0.390625
85,85,1727404995699,-0.8510742,0.35516357,0.4874878,-0.953125,-1.046875,-0.328125
86,86,1727404995739,-0.8569336,0.35980225,0.4857788,-1.296875,-0.546875,-0.328125
87,87,1727404995779,-0.8586426,0.35443115,0.47869873,-0.90625,-0.484375,-0.21875
88,88,1727404995819,-0.8598633,0.35736084,0.4899292,-0.625,-0.640625,-0.203125
89,89,1727404995859,-0.8630371,0.35614014,0.4772339,-1.15625,-1.65625,0.1875
90,90,1727404995899,-0.859375,0.3595581,0.48114014,-1.125,-1.0625,-0.25
91,91,1727404995939,-0.85668945,0.36883545,0.47503662,-0.6875,-0.5,-0.078125
92,92,1727404995979,-0.85302734,0.35736084,0.48675537,-0.703125,-1.25,0.078125
93,93,1727404996019,-0.85009766,0.3505249,0.47576904,-0.8125,-1.65625,0.1875
94,94,1727404996059,-0.86376953,0.36541748,0.49139404,-1.203125,-1.75,0.046875
95,95,1727404996099,-0.8664551,0.3678589,0.4784546,-0.578125,-0.9375,-0.390625
96,96,1727404996139,-0.859375,0.3480835,0.47991943,-1.078125,-0.875,-0.0625
97,97,1727404996179,-0.85791016,0.35247803,0.4796753,-0.71875,-1.015625,0.296875
98,98,1727404996219,-0.85253906,0.35516357,0.47332764,-0.796875,-0.890625,0.171875
99,99,1727404996259,-0.8664551,0.35394287,0.4755249,-0.59375,-0.8125,-0.125
100,100,1727404996299,-0.84814453,0.35662842,0.4755249,-0.65625,-1.015625,0.046875
101,101,1727404996339,-0.857666,0.35491943,0.47772217,-0.953125,-1.46875,0.28125
102,102,1727404996379,-0.86035156,0.3661499,0.48187256,-0.875,-0.796875,0.15625
103,103,1727404996419,-0.8520508,0.35272217,0.47406006,-0.875,-0.84375,-0.109375
104,104,1727404996459,-0.85961914,0.3529663,0.4821167,-0.703125,-0.765625,0.03125
105,105,1727404996499,-0.85180664,0.35443115,0.46917725,-1.203125,-1.578125,0.453125
106,106,1727404996539,-0.8630371,0.3624878,0.47381592,-0.890625,-1.09375,-0.03125
107,107,1727404996579,-0.8581543,0.36419678,0.480896,-0.109375,-0.703125,0.0625
108,108,1727404996619,-0.8564453,0.35443115,0.4874878,-0.578125,-1.40625,0.234375
109,109,1727404996659,-0.8520508,0.3444214,0.46917725,-0.640625,-1.3125,0.609375
110,110,1727404996699,-0.859375,0.3571167,0.4772339,-1.3125,-1.890625,-0.03125
111,111,1727404996739,-0.8691406,0.371521,0.4718628,-0.609375,-0.875,-0.140625
112,112,1727404996779,-0.85913086,0.35321045,0.46844482,-1.0,-0.578125,0.03125
113,113,1727404996819,-0.85961914,0.35028076,0.4755249,-0.984375,-0.90625,0.046875
114,114,1727404996859,-0.86157227,0.3534546,0.4725952,-0.6875,-0.90625,0.234375
115,115,1727404996899,-0.8666992,0.35906982,0.46917725,-0.765625,-0.796875,-0.09375
116,116,1727404996939,-0.8532715,0.34832764,0.47772217,-1.046875,-1.484375,0.03125
117,117,1727404996979,-0.8625488,0.35809326,0.4706421,-1.078125,-1.453125,0.296875
118,118,1727404997019,-0.8652344,0.3637085,0.4743042,-0.765625,-1.078125,0.109375
119,119,1727404997059,-0.87402344,0.35662842,0.46820068,-0.890625,-0.609375,-0.21875
120,120,1727404997099,-0.8647461,0.35931396,0.47772217,-0.921875,-1.09375,0.15625
121,121,1727404997139,-0.8623047,0.355896,0.46209717,-0.65625,-0.75,0.1875
122,122,1727404997179,-0.8625488,0.355896,0.48162842,-0.96875,-1.515625,0.1875
123,123,1727404997219,-0.8659668,0.36395264,0.46917725,-0.96875,-1.234375,0.515625
124,124,1727404997259,-0.857666,0.35028076,0.46502686,-1.015625,-0.859375,0.25
125,125,1727404997299,-0.8652344,0.36224365,0.463562,-0.625,-1.1875,-0.15625
126,126,1727404997339,-0.86816406,0.35272217,0.46429443,-0.09375,-1.640625,0.875
127,127,1727404997379,-0.8718262,0.3661499,0.4772339,-0.546875,-0.65625,-0.546875
128,128,1727404997419,-0.86938477,0.355896,0.46673584,-0.421875,0.375,-0.578125
129,129,1727404997459,-0.8544922,0.3505249,0.46551514,-0.390625,-0.171875,-0.1875
130,130,1727404997499,-0.8659668,0.35565186,0.47869873,-0.359375,-0.296875,0.140625
131,131,1727404997539,-0.861084,0.35076904,0.4725952,-0.4375,-0.53125,-0.09375
132,132,1727404997579,-0.8588867,0.35272217,0.46990967,-0.734375,-0.390625,-0.234375
133,133,1727404997619,-0.85839844,0.3554077,0.4647827,-0.828125,-0.9375,-0.296875
134,134,1727404997659,-0.8630371,0.35980225,0.47161865,-0.1875,-0.640625,-0.25
135,135,1727404997699,-0.86938477,0.36468506,0.4730835,-0.375,-0.03125,-0.390625
136,136,1727404997739,-0.859375,0.35516357,0.4725952,-0.34375,-0.015625,-0.4375
137,137,1727404997779,-0.8598633,0.3612671,0.47943115,-0.453125,-0.171875,-0.328125
138,138,1727404997819,-0.85546875,0.35247803,0.47576904,-0.0625,-0.5,-0.203125
139,139,1727404997859,-0.86206055,0.3612671,0.47943115,-0.296875,-0.75,-0.3125
140,140,1727404997899,-0.8625488,0.3612671,0.48382568,-0.546875,-0.296875,-0.375
141,141,1727404997939,-0.86083984,0.35321045,0.47698975,-0.328125,-0.125,-0.09375
142,142,1727404997979,-0.85302734,0.34954834,0.46502686,-0.484375,-0.0625,-0.28125
143,143,1727404998019,-0.86157227,0.35882568,0.4845581,-0.390625,-1.125,-0.140625
144,144,1727404998059,-0.8652344,0.3781128,0.4857788,0.015625,-0.203125,-0.53125
145,145,1727404998099,-0.85546875,0.36346436,0.48138428,-0.109375,0.28125,-0.71875
146,146,1727404998139,-0.85375977,0.35736084,0.48480225,-0.265625,-0.078125,-0.328125
147,147,1727404998179,-0.8522949,0.3607788,0.4772339,0.125,-0.203125,-0.09375
148,148,1727404998219,-0.8562012,0.35931396,0.4882202,-0.25,-0.390625,-0.34375
149,149,1727404998259,-0.8527832,0.355896,0.47747803,-0.203125,-0.203125,-0.3125
150,150,1727404998299,-0.84814453,0.35638428,0.47161865,-0.890625,-0.34375,-0.28125
151,151,1727404998339,-0.8540039,0.36346436,0.4911499,-0.359375,-0.703125,-0.15625
152,152,1727404998379,-0.8623047,0.36053467,0.4833374,-0.21875,-0.109375,-0.203125
153,153,1727404998419,-0.8503418,0.3534546,0.48968506,-0.796875,-0.4375,-0.421875
154,154,1727404998459,-0.85302734,0.35906982,0.47576904,-0.328125,-0.484375,-0.203125
155,155,1727404998499,-0.85180664,0.35760498,0.48651123,-0.859375,-1.25,-0.109375
156,156,1727404998539,-0.85302734,0.36175537,0.47894287,-1.0625,-0.953125,-0.140625
157,157,1727404998579,-0.85131836,0.3583374,0.47772217,-0.65625,-0.40625,0.015625
158,158,1727404998619,-0.85913086,0.35784912,0.4882202,-0.8125,-1.40625,0.046875
159,159,1727404998659,-0.8510742,0.3546753,0.47772217,-0.640625,-1.546875,0.203125
160,160,1727404998699,-0.86572266,0.37493896,0.4882202,-1.03125,-1.25,-0.078125
161,161,1727404998739,-0.85791016,0.3661499,0.48309326,-0.296875,-0.375,-0.203125
162,162,1727404998779,-0.85595703,0.35028076,0.48162842,-0.8125,-0.75,0.0
163,163,1727404998819,-0.8483887,0.35760498,0.4833374,-0.921875,-1.203125,0.3125
164,164,1727404998859,-0.8532715,0.36590576,0.4804077,-0.796875,-1.09375,0.15625
165,165,1727404998899,-0.85791016,0.35784912,0.47381592,-0.796875,-0.96875,-0.1875
166,166,1727404998939,-0.8486328,0.35443115,0.47650146,-0.796875,-1.453125,0.203125
167,167,1727404998979,-0.857666,0.3600464,0.48260498,-0.84375,-1.546875,0.390625
168,168,1727404999019,-0.857666,0.36639404,0.48187256,-0.75,-1.03125,0.03125
169,169,1727404999059,-0.8574219,0.3583374,0.47698975,-0.546875,-0.59375,-0.0625
170,170,1727404999099,-0.85595703,0.36029053,0.48406982,-0.546875,-0.96875,0.0
171,171,1727404999139,-0.8569336,0.3522339,0.46746826,-1.171875,-1.640625,0.171875
172,172,1727404999179,-0.8586426,0.3619995,0.47039795,-0.8125,-1.15625,-0.0625
173,173,1727404999219,-0.8557129,0.36444092,0.47161865,-0.3125,-0.78125,0.046875
174,174,1727404999259,-0.8564453,0.35321045,0.48065186,-0.59375,-1.59375,0.21875
175,175,1727404999299,-0.86279297,0.35272217,0.4713745,-0.65625,-1.359375,0.375
176,176,1727404999339,-0.85961914,0.3710327,0.47772217,-1.203125,-1.8125,-0.078125
177,177,1727404999379,-0.8684082,0.3673706,0.4772339,-0.40625,-0.515625,-0.28125
178,178,1727404999419,-0.85546875,0.3529663,0.47283936,-0.84375,-0.671875,0.078125
179,179,1727404999459,-0.8588867,0.35736084,0.4796753,-0.640625,-0.8125,0.078125
180,180,1727404999499,-0.85131836,0.36566162,0.47503662,-0.734375,-1.0,0.0625
181,181,1727404999539,-0.8642578,0.3632202,0.48138428,-0.953125,-1.21875,0.078125
182,182,1727404999579,-0.8498535,0.3571167,0.47625732,-0.6875,-1.453125,0.125
183,183,1727404999619,-0.8618164,0.3661499,0.47601318,-0.921875,-1.359375,0.15625
184,184,1727404999659,-0.8586426,0.36053467,0.47503662,-0.546875,-0.921875,0.109375
185,185,1727404999699,-0.85546875,0.36053467,0.4743042,-0.546875,-0.59375,-0.1875
186,186,1727404999739,-0.86376953,0.35369873,0.47406006,-0.421875,-0.546875,0.078125
187,187,1727404999779,-0.84936523,0.34881592,0.46868896,-0.734375,-1.453125,0.328125
188,188,1727404999819,-0.85595703,0.36419678,0.47088623,-1.140625,-1.421875,0.09375
189,189,1727404999859,-0.85961914,0.36224365,0.480896,-0.515625,-1.28125,0.25
190,190,1727404999899,-0.86621094,0.36029053,0.4730835,-0.6875,-1.90625,0.3125
191,191,1727404999939,-0.8623047,0.3456421,0.4616089,-0.875,-1.53125,0.515625
192,192,1727404999979,-0.86279297,0.36566162,0.4755249,-1.03125,-1.859375,0.03125
193,193,1727405000019,-0.87524414,0.36883545,0.47894287,-0.453125,-0.546875,-0.3125
194,194,1727405000059,-0.8671875,0.3554077,0.4586792,-0.765625,-0.15625,-0.234375
195,195,1727405000099,-0.8659668,0.355896,0.47210693,-0.71875,-0.609375,0.09375
196,196,1727405000139,-0.85961914,0.35394287,0.47772217,-0.6875,-1.0,0.328125
197,197,1727405000179,-0.85546875,0.3595581,0.4677124,-1.078125,-0.9375,-0.03125
198,198,1727405000219,-0.8535156,0.35247803,0.46795654,-0.8125,-1.515625,0.171875
199,199,1727405000259,-0.8664551,0.36346436,0.465271,-1.234375,-1.625,0.34375
200,200,1727405000299,-0.86865234,0.3624878,0.46917725,-0.8125,-1.171875,0.203125
201,201,1727405000339,-0.8703613,0.35980225,0.465271,-0.90625,-0.78125,-0.03125
202,202,1727405000379,-0.8654785,0.35614014,0.46795654,-0.828125,-1.0,0.09375
203,203,1727405000419,-0.86499023,0.35858154,0.463562,-0.8125,-0.984375,0.234375
204,204,1727405000459,-0.86865234,0.35858154,0.4784546,-0.640625,-1.3125,0.15625
205,205,1727405000499,-0.87231445,0.35906982,0.47161865,-0.78125,-0.34375,0.015625
206,206,1727405000539,-0.86572266,0.35809326,0.46624756,-0.28125,-0.21875,0.34375
207,207,1727405000579,-0.8613281,0.3637085,0.45770264,-0.515625,-0.0625,0.125
208,208,1727405000619,-0.86572266,0.35003662,0.4640503,0.1875,-1.09375,0.375
209,209,1727405000659,-0.8691406,0.369812,0.4772339,-0.484375,-0.578125,-0.390625
210,210,1727405000699,-0.87402344,0.35662842,0.46966553,-0.15625,0.234375,-0.546875
211,211,1727405000739,-0.8618164,0.3554077,0.47210693,-0.453125,0.21875,-0.40625
212,212,1727405000779,-0.8623047,0.35150146,0.46917725,0.125,-0.078125,0.265625
213,213,1727405000819,-0.86450195,0.3612671,0.47625732,-0.234375,-0.09375,-0.15625
214,214,1727405000859,-0.8659668,0.36151123,0.4694214,-0.28125,0.046875,-0.421875
215,215,1727405000899,-0.857666,0.35369873,0.46624756,-0.578125,-0.34375,-0.34375
216,216,1727405000939,-0.8605957,0.35516357,0.47576904,-0.25,-0.5,-0.234375
217,217,1727405000979,-0.86572266,0.35980225,0.47894287,-0.34375,0.140625,-0.5
218,218,1727405001019,-0.86035156,0.35784912,0.47821045,-0.453125,0.09375,-0.5
219,219,1727405001059,-0.8574219,0.35003662,0.47991943,-0.0625,-0.046875,-0.28125
220,220,1727405001099,-0.86035156,0.35784912,0.4779663,-0.421875,-0.734375,-0.375
221,221,1727405001139,-0.8635254,0.3632202,0.47991943,-0.71875,-0.1875,-0.515625
222,222,1727405001179,-0.8535156,0.35809326,0.47772217,-0.015625,0.359375,-0.21875
223,223,1727405001219,-0.85424805,0.36151123,0.47601318,-0.046875,-0.46875,-0.140625
224,224,1727405001259,-0.8569336,0.3571167,0.479187,-0.171875,-1.0625,-0.03125
225,225,1727405001299,-0.86206055,0.36761475,0.48895264,0.0,-0.453125,-0.53125
226,226,1727405001339,-0.85498047,0.35614014,0.47528076,0.09375,0.28125,-0.53125
227,227,1727405001379,-0.8491211,0.3505249,0.48724365,-0.5,-0.25,-0.453125
228,228,1727405001419,-0.8535156,0.35614014,0.48162842,-0.515625,-0.515625,0.09375
229,229,1727405001459,-0.861084,0.35980225,0.4882202,-0.53125,-0.984375,0.0
230,230,1727405001499,-0.84814453,0.35858154,0.47503662,-0.296875,-0.515625,-0.28125
231,231,1727405001539,-0.84643555,0.3612671,0.48065186,-0.6875,-0.609375,0.109375
232,232,1727405001579,-0.85791016,0.3607788,0.48773193,-0.578125,-1.078125,-0.015625
233,233,1727405001619,-0.8569336,0.36224365,0.48968506,-0.453125,-0.375,-0.203125
234,234,1727405001659,-0.85009766,0.3451538,0.48382568,-0.671875,-0.265625,-0.3125
235,235,1727405001699,-0.85424805,0.3534546,0.4850464,-0.765625,-0.640625,-0.296875
236,236,1727405001739,-0.8532715,0.35906982,0.4899292,-1.171875,-1.5,-0.109375
237,237,1727405001779,-0.85375977,0.36297607,0.49676514,-1.109375,-1.03125,-0.109375
238,238,1727405001819,-0.85180664,0.35662842,0.4821167,-0.828125,-0.9375,0.28125
239,239,1727405001859,-0.85375977,0.35614014,0.46990967,-0.84375,-0.96875,0.15625
240,240,1727405001899,-0.85302734,0.36102295,0.4796753,-0.828125,-1.859375,0.28125
241,241,1727405001939,-0.8623047,0.3673706,0.49212646,-0.578125,-0.875,-0.4375
242,242,1727405001979,-0.859375,0.3571167,0.47991943,-0.65625,-0.484375,-0.4375
243,243,1727405002019,-0.85058594,0.36102295,0.49188232,-1.0,-0.875,-0.046875
244,244,1727405002059,-0.85424805,0.35614014,0.48114014,-0.734375,-1.25,0.359375
245,245,1727405002099,-0.85498047,0.37005615,0.48553467,-1.03125,-1.234375,-0.046875
246,246,1727405002139,-0.85546875,0.3534546,0.47210693,-1.0,-1.34375,0.1875
247,247,1727405002179,-0.85424805,0.35736084,0.4725952,-1.4375,-1.515625,0.546875
248,248,1727405002219,-0.85546875,0.35980225,0.48187256,-1.171875,-1.640625,0.46875
249,249,1727405002259,-0.8730469,0.3480835,0.46746826,-0.375,-0.34375,-0.328125
250,250,1727405002299,-0.85961914,0.34466553,0.4491577,-0.390625,0.3125,0.03125
251,251,1727405002339,-0.8691406,0.35638428,0.4574585,-0.0625,0.078125,-0.265625
252,252,1727405002379,-0.8691406,0.35491943,0.47161865,0.203125,-0.53125,-0.234375
253,253,1727405002419,-0.87109375,0.3607788,0.4767456,0.140625,0.5,-0.453125
254,254,1727405002459,-0.8652344,0.34613037,0.4701538,0.03125,0.59375,-0.46875
255,255,1727405002499,-0.8562012,0.33880615,0.4833374,-0.625,-0.125,-0.28125
256,256,1727405002539,-0.8598633,0.34222412,0.4718628,-0.828125,-0.84375,-0.171875
257,257,1727405002579,-0.86157227,0.35736084,0.4779663,-0.984375,-1.5625,-0.21875
258,258,1727405002619,-0.8635254,0.3427124,0.46014404,-1.484375,-1.28125,-0.21875
259,259,1727405002659,-0.86157227,0.354187,0.4640503,-1.640625,-1.0625,-0.328125
260,260,1727405002699,-0.86621094,0.354187,0.4701538,-1.0,-1.109375,0.015625
261,261,1727405002739,-0.8640137,0.3529663,0.4694214,-0.796875,-0.484375,-0.03125
262,262,1727405002779,-0.8652344,0.35198975,0.4694214,-1.0,-0.703125,-0.0625
263,263,1727405002819,-0.8640137,0.34954834,0.4611206,-0.828125,-1.421875,0.203125
264,264,1727405002859,-0.86499023,0.34954834,0.4694214,-1.453125,-1.765625,0.125
265,265,1727405002899,-0.8671875,0.35882568,0.45794678,-0.796875,-0.671875,0.078125
266,266,1727405002939,-0.8659668,0.34466553,0.47406006,-1.0,-2.25,-0.109375
267,267,1727405002979,-0.8666992,0.35491943,0.45965576,-1.25,-1.65625,0.1875
268,268,1727405003019,-0.8630371,0.36273193,0.463562,-1.640625,-1.875,-0.0625
269,269,1727405003059,-0.87597656,0.36175537,0.46746826,-1.296875,-0.671875,-0.578125
270,270,1727405003099,-0.8671875,0.35028076,0.46307373,-1.328125,-0.953125,-0.1875
271,271,1727405003139,-0.87280273,0.3546753,0.46551514,-0.6875,-0.96875,0.390625
272,272,1727405003179,-0.8647461,0.3534546,0.4611206,-0.875,-1.234375,0.484375
273,273,1727405003219,-0.8671875,0.36029053,0.46429443,-1.28125,-1.390625,0.125
274,274,1727405003259,-0.861084,0.35272217,0.45794678,-1.09375,-1.453125,0.046875
275,275,1727405003299,-0.8642578,0.35736084,0.46380615,-1.28125,-1.625,0.171875
276,276,1727405003339,-0.87353516,0.3612671,0.46209717,-1.25,-1.296875,0.203125
277,277,1727405003379,-0.8745117,0.35565186,0.4616089,-0.796875,-0.78125,-0.125
278,278,1727405003419,-0.87402344,0.355896,0.45843506,-0.546875,-0.96875,0.03125
279,279,1727405003459,-0.8647461,0.34954834,0.4611206,-0.84375,-1.4375,0.421875
280,280,1727405003499,-0.8796387,0.35760498,0.4677124,-1.296875,-0.828125,0.078125
281,281,1727405003539,-0.8679199,0.34857178,0.45355225,-0.6875,-1.21875,0.25
282,282,1727405003579,-0.8671875,0.35321045,0.44647217,-1.4375,-1.5,0.515625
283,283,1727405003619,-0.86621094,0.3463745,0.4557495,-1.3125,-2.671875,0.5625
284,284,1727405003659,-0.8769531,0.3690796,0.45941162,-1.296875,-1.59375,0.046875
285,285,1727405003699,-0.8815918,0.35565186,0.44256592,-0.78125,-0.515625,-0.015625
286,286,1727405003739,-0.86987305,0.35028076,0.45721436,-0.828125,-0.828125,0.09375
287,287,1727405003779,-0.8730469,0.35369873,0.45184326,-0.4375,-0.6875,0.46875
288,288,1727405003819,-0.87060547,0.35662842,0.45916748,-0.53125,-0.9375,0.234375
289,289,1727405003859,-0.8671875,0.3546753,0.45281982,-1.09375,-0.953125,0.125
290,290,1727405003899,-0.8701172,0.3505249,0.45306396,-1.390625,-1.484375,0.203125
291,291,1727405003939,-0.87719727,0.35662842,0.4520874,-0.71875,-1.3125,0.203125
292,292,1727405003979,-0.8718262,0.35028076,0.45062256,-1.1875,-0.828125,0.109375
293,293,1727405004019,-0.87353516,0.3468628,0.45037842,-1.03125,-0.875,0.078125
294,294,1727405004059,-0.873291,0.34979248,0.43988037,-0.65625,-1.203125,0.203125
295,295,1727405004099,-0.876709,0.35321045,0.4508667,-0.6875,-1.90625,0.390625
296,296,1727405004139,-0.8791504,0.35809326,0.45941162,-0.8125,-0.75,0.296875
297,297,1727405004179,-0.8798828,0.3468628,0.44354248,-0.421875,-1.515625,0.453125
298,298,1727405004219,-0.87646484,0.3444214,0.43328857,-0.953125,-0.96875,0.40625
299,299,1727405004259,-0.8730469,0.3444214,0.4376831,-0.921875,-1.953125,0.78125
300,300,1727405004299,-0.8823242,0.35906982,0.44281006,-1.28125,-0.921875,0.0
301,301,1727405004339,-0.8845215,0.35516357,0.4418335,-0.90625,-0.078125,-0.015625
302,302,1727405004379,-0.8798828,0.35272217,0.45037842,0.03125,0.140625,-0.046875
303,303,1727405004419,-0.8828125,0.34857178,0.44451904,0.265625,0.265625,0.015625
304,304,1727405004459,-0.873291,0.35247803,0.45599365,-0.296875,0.1875,-0.09375
305,305,1727405004499,-0.87768555,0.35125732,0.4586792,-0.625,-0.640625,-0.328125
306,306,1727405004539,-0.86865234,0.34954834,0.44573975,-0.421875,-0.53125,-0.046875
307,307,1727405004579,-0.87402344,0.36297607,0.45135498,-0.125,-0.203125,-0.046875
308,308,1727405004619,-0.8774414,0.35394287,0.4520874,-0.171875,-0.09375,-0.125
309,309,1727405004659,-0.8762207,0.3505249,0.4545288,-0.03125,-0.015625,0.0
310,310,1727405004699,-0.87353516,0.34173584,0.449646,0.25,-0.328125,0.21875
311,311,1727405004739,-0.87158203,0.34832764,0.45672607,-0.25,-0.71875,-0.28125
312,312,1727405004779,-0.87402344,0.34613037,0.45135498,-0.15625,-0.0625,-0.296875
313,313,1727405004819,-0.87060547,0.34613037,0.45770264,-0.0625,-0.734375,-0.125
314,314,1727405004859,-0.8718262,0.34661865,0.4413452,-0.234375,-0.5625,0.140625
315,315,1727405004899,-0.87060547,0.35150146,0.45184326,-0.40625,-1.234375,-0.203125
316,316,1727405004939,-0.87475586,0.35321045,0.46185303,0.125,0.609375,-0.5
317,317,1727405004979,-0.8754883,0.34246826,0.4616089,0.0,0.28125,-0.359375
318,318,1727405005019,-0.86694336,0.35003662,0.46600342,-0.140625,-0.375,0.15625
319,319,1727405005059,-0.8671875,0.35028076,0.46038818,-0.328125,-0.125,0.0625
320,320,1727405005099,-0.87109375,0.36273193,0.45550537,-0.28125,-0.03125,-0.53125
321,321,1727405005139,-0.86865234,0.3493042,0.463562,-0.453125,-0.625,-0.15625
322,322,1727405005179,-0.8713379,0.35394287,0.46258545,-0.453125,-0.671875,-0.03125
323,323,1727405005219,-0.8774414,0.35150146,0.4623413,-0.4375,-0.3125,-0.140625
324,324,1727405005259,-0.873291,0.3493042,0.46136475,-0.1875,0.140625,-0.34375
325,325,1727405005299,-0.8642578,0.3493042,0.4677124,-0.015625,0.046875,-0.203125
326,326,1727405005339,-0.8708496,0.34173584,0.46014404,-0.03125,-0.53125,0.03125
327,327,1727405005379,-0.8679199,0.35369873,0.47088623,-0.578125,-0.375,-0.375
328,328,1727405005419,-0.8625488,0.34661865,0.45965576,0.015625,0.09375,-0.1875
329,329,1727405005459,-0.8730469,0.34735107,0.4640503,-0.265625,-0.859375,-0.125
330,330,1727405005499,-0.861084,0.34490967,0.46746826,-0.421875,-1.359375,0.15625
331,331,1727405005539,-0.8762207,0.35662842,0.46990967,-0.421875,-0.5,-0.203125
332,332,1727405005579,-0.8718262,0.3505249,0.46063232,-0.265625,0.1875,-0.4375
333,333,1727405005619,-0.8588867,0.34710693,0.4730835,-0.546875,-0.4375,-0.140625
334,334,1727405005659,-0.8613281,0.35101318,0.4664917,-0.484375,-0.53125,0.0625
335,335,1727405005699,-0.8630371,0.35101318,0.4784546,-0.796875,-1.0,-0.1875
336,336,1727405005739,-0.8625488,0.34490967,0.45404053,-0.640625,-1.125,-0.1875
337,337,1727405005779,-0.8659668,0.34197998,0.46429443,-1.359375,-1.234375,0.0625
338,338,1727405005819,-0.8659668,0.35687256,0.4689331,-1.1875,-1.328125,0.078125
339,339,1727405005859,-0.8671875,0.35101318,0.46990967,-1.078125,-0.75,-0.078125
340,340,1727405005899,-0.86987305,0.34417725,0.46380615,-0.96875,-0.609375,-0.140625
341,341,1727405005939,-0.86938477,0.3505249,0.463562,-0.90625,-1.21875,0.015625
342,342,1727405005979,-0.8679199,0.35125732,0.46722412,-1.28125,-1.828125,0.0
343,343,1727405006019,-0.86328125,0.35931396,0.46087646,-1.28125,-0.984375,-0.265625
344,344,1727405006059,-0.8635254,0.34002686,0.4706421,-1.171875,-1.953125,0.234375
345,345,1727405006099,-0.8642578,0.34613037,0.4508667,-1.375,-1.46875,0.46875
346,346,1727405006139,-0.86743164,0.3554077,0.46795654,-1.359375,-2.234375,0.1875
347,347,1727405006179,-0.8754883,0.35882568,0.46722412,-0.9375,-0.828125,-0.421875
348,348,1727405006219,-0.8676758,0.3505249,0.45550537,-0.921875,-0.90625,-0.171875
349,349,1727405006259,-0.87060547,0.34906006,0.46307373,-0.65625,-1.46875,0.34375
350,350,1727405006299,-0.8757324,0.35247803,0.45965576,-0.546875,-1.15625,0.390625
351,351,1727405006339,-0.8737793,0.35858154,0.46185303,-0.90625,-0.953125,0.0
352,352,1727405006379,-0.86499023,0.34954834,0.45892334,-1.03125,-1.625,0.078125
353,353,1727405006419,-0.8762207,0.3529663,0.45721436,-0.90625,-1.53125,0.25
354,354,1727405006459,-0.87402344,0.35784912,0.45062256,-0.921875,-0.90625,0.046875
355,355,1727405006499,-0.8691406,0.34710693,0.46014404,-0.96875,-0.59375,-0.265625
356,356,1727405006539,-0.87597656,0.3546753,0.46380615,-0.984375,-0.796875,0.03125
357,357,1727405006579,-0.8730469,0.3529663,0.45013428,-0.84375,-1.28125,0.203125
358,358,1727405006619,-0.876709,0.354187,0.46185303,-1.046875,-1.03125,0.078125
359,359,1727405006659,-0.8679199,0.3529663,0.45037842,-0.53125,-0.65625,0.03125
360,360,1727405006699,-0.876709,0.34954834,0.44500732,-0.734375,-1.078125,0.015625
361,361,1727405006739,-0.87353516,0.3463745,0.45184326,-0.46875,-1.65625,0.6875
362,362,1727405006779,-0.876709,0.35516357,0.465271,-0.84375,-0.84375,-0.078125
363,363,1727405006819,-0.8823242,0.3517456,0.45037842,-0.0625,0.34375,-0.375
364,364,1727405006859,-0.8701172,0.34613037,0.4569702,0.21875,0.015625,0.015625
365,365,1727405006899,-0.87231445,0.3505249,0.45916748,0.3125,-0.140625,0.296875
366,366,1727405006939,-0.8708496,0.3493042,0.46038818,0.0625,-0.3125,0.078125
367,367,1727405006979,-0.8754883,0.35638428,0.4557495,-0.390625,-0.546875,0.09375
368,368,1727405007019,-0.8666992,0.3463745,0.45135498,-0.640625,-0.578125,-0.09375
369,369,1727405007059,-0.8720703,0.3522339,0.4623413,-0.34375,-0.578125,-0.09375
370,370,1727405007099,-0.873291,0.354187,0.45404053,-0.125,0.0,-0.171875
371,371,1727405007139,-0.8737793,0.35003662,0.46185303,-0.25,0.1875,-0.28125
372,372,1727405007179,-0.8713379,0.35003662,0.463562,-0.046875,-0.3125,-0.265625
373,373,1727405007219,-0.87158203,0.34710693,0.4694214,-0.5,-0.890625,-0.5
374,374,1727405007259,-0.8730469,0.3522339,0.4628296,-0.59375,-0.21875,-0.40625
375,375,1727405007299,-0.8725586,0.3480835,0.4628296,-0.25,-0.71875,0.078125
376,376,1727405007339,-0.8647461,0.3451538,0.44989014,-0.25,-0.296875,0.09375
377,377,1727405007379,-0.8703613,0.3595581,0.46673584,-0.390625,-0.90625,0.0
378,378,1727405007419,-0.875,0.34881592,0.47161865,0.046875,0.125,-0.421875
379,379,1727405007459,-0.86938477,0.34002686,0.46624756,-0.21875,0.078125,-0.453125
380,380,1727405007499,-0.8652344,0.34344482,0.47454834,-0.296875,-0.46875,-0.109375
381,381,1727405007539,-0.86694336,0.34661865,0.46038818,-0.421875,-0.40625,-0.046875
382,382,1727405007579,-0.873291,0.3546753,0.47528076,-0.421875,-0.359375,-0.265625
383,383,1727405007619,-0.8647461,0.34906006,0.47039795,-0.4375,-0.96875,-0.15625
384,384,1727405007659,-0.86743164,0.34954834,0.47528076,-0.65625,-0.984375,0.078125
385,385,1727405007699,-0.8671875,0.3468628,0.46868896,-0.828125,-0.53125,-0.03125
386,386,1727405007739,-0.86083984,0.34368896,0.46844482,-0.84375,-0.421875,-0.28125
387,387,1727405007779,-0.8630371,0.3444214,0.47235107,-0.890625,-1.078125,-0.171875
388,388,1727405007819,-0.8659668,0.35198975,0.47039795,-1.1875,-1.296875,-0.078125
389,389,1727405007859,-0.8654785,0.3522339,0.4706421,-1.15625,-1.359375,-0.265625
390,390,1727405007899,-0.8713379,0.3571167,0.4574585,-0.84375,-0.421875,-0.140625
391,391,1727405007939,-0.8623047,0.35247803,0.46844482,-0.78125,-1.828125,0.21875
392,392,1727405007979,-0.86035156,0.3529663,0.4616089,-0.875,-1.765625,0.203125
393,393,1727405008019,-0.87231445,0.35906982,0.46990967,-1.46875,-1.4375,-0.09375
394,394,1727405008059,-0.87597656,0.35198975,0.4598999,-0.640625,-0.5,-0.28125
395,395,1727405008099,-0.8666992,0.35394287,0.4640503,-0.765625,-0.75,0.03125
396,396,1727405008139,-0.87353516,0.35003662,0.465271,-0.796875,-1.09375,0.296875
397,397,1727405008179,-0.86328125,0.35125732,0.46551514,-0.78125,-0.921875,0.03125
398,398,1727405008219,-0.8688965,0.34954834,0.4569702,-0.65625,-0.734375,-0.171875
399,399,1727405008259,-0.86499023,0.35198975,0.45111084,-1.28125,-1.28125,-0.015625
400,400,1727405008299,-0.8696289,0.355896,0.4725952,-0.953125,-1.296875,0.109375
401,401,1727405008339,-0.8742676,0.355896,0.45770264,-0.796875,-0.5625,-0.171875
402,402,1727405008379,-0.8642578,0.3493042,0.46038818,-0.796875,-0.875,0.046875
403,403,1727405008419,-0.8684082,0.3546753,0.46820068,-0.65625,-0.953125,-0.03125
404,404,1727405008459,-0.86376953,0.34979248,0.46307373,-1.0,-1.46875,0.109375
405,405,1727405008499,-0.8713379,0.35614014,0.4689331,-1.109375,-1.015625,0.0625
406,406,1727405008539,-0.86743164,0.34857178,0.4491577,-0.59375,-0.75,0.015625
407,407,1727405008579,-0.873291,0.35150146,0.45941162,-0.78125,-1.046875,0.125
408,408,1727405008619,-0.8659668,0.34417725,0.45257568,-0.4375,-2.015625,0.484375
409,409,1727405008659,-0.8742676,0.36151123,0.46453857,-0.890625,-1.265625,0.0
410,410,1727405008699,-0.8703613,0.35150146,0.45843506,-0.703125,-0.421875,-0.25
411,411,1727405008739,-0.8701172,0.3475952,0.463562,-0.984375,-0.953125,-0.1875
412,412,1727405008779,-0.87719727,0.3612671,0.46185303,-0.578125,-0.890625,0.296875
413,413,1727405008819,-0.87158203,0.35198975,0.46722412,-0.65625,-0.921875,0.140625
414,414,1727405008859,-0.8725586,0.35198975,0.45233154,-0.765625,-0.859375,0.03125
415,415,1727405008899,-0.86865234,0.35101318,0.45648193,-1.015625,-1.171875,0.109375
416,416,1727405008939,-0.87768555,0.35931396,0.4557495,-0.671875,-1.1875,0.03125
417,417,1727405008979,-0.8745117,0.35614014,0.45892334,-0.671875,-0.671875,-0.046875
418,418,1727405009019,-0.87597656,0.35491943,0.46014404,-0.828125,-0.703125,-0.078125
419,419,1727405009059,-0.86816406,0.35150146,0.4586792,-0.75,-1.046875,0.109375
420,420,1727405009099,-0.87475586,0.34979248,0.45306396,-0.796875,-1.640625,0.0
421,421,1727405009139,-0.873291,0.35614014,0.45941162,-1.09375,-1.203125,-0.046875
422,422,1727405009179,-0.8737793,0.3468628,0.4454956,-0.375,-0.53125,0.203125
423,423,1727405009219,-0.87719727,0.355896,0.45428467,-0.65625,-1.21875,0.234375
424,424,1727405009259,-0.8730469,0.33709717,0.44940186,-0.578125,-1.59375,0.5625
425,425,1727405009299,-0.8713379,0.3571167,0.46014404,-1.25,-1.46875,-0.09375
426,426,1727405009339,-0.8840332,0.3534546,0.45233154,-0.5,0.09375,-0.5
427,427,1727405009379,-0.8701172,0.34197998,0.4557495,-0.703125,-0.453125,-0.203125
428,428,1727405009419,-0.88134766,0.3554077,0.45843506,-0.421875,-0.609375,0.203125
429,429,1727405009459,-0.8745117,0.3517456,0.45941162,-0.53125,-0.53125,0.046875
430,430,1727405009499,-0.87158203,0.35125732,0.4520874,-0.25,-0.28125,-0.390625
431,431,1727405009539,-0.8613281,0.35101318,0.45355225,-0.59375,-0.546875,-0.234375
432,432,1727405009579,-0.86865234,0.35150146,0.45941162,-0.28125,-0.375,-0.203125
433,433,1727405009619,-0.87231445,0.3522339,0.4574585,-0.078125,0.09375,-0.234375
434,434,1727405009659,-0.86376953,0.35150146,0.45941162,-0.484375,-0.125,-0.34375
435,435,1727405009699,-0.87719727,0.34832764,0.45916748,-0.328125,-0.203125,-0.28125
436,436,1727405009739,-0.86816406,0.3517456,0.45550537,-0.359375,-0.828125,-0.234375
437,437,1727405009779,-0.87475586,0.35687256,0.4562378,-0.578125,-0.75,-0.296875
438,438,1727405009819,-0.8701172,0.3554077,0.45721436,-0.046875,0.140625,-0.3125
439,439,1727405009859,-0.8696289,0.34881592,0.47210693,-0.03125,-0.828125,0.03125
440,440,1727405009899,-0.86743164,0.34466553,0.449646,-0.046875,-0.796875,0.25
441,441,1727405009939,-0.8742676,0.35565186,0.46575928,-0.640625,-0.859375,-0.203125
442,442,1727405009979,-0.876709,0.3529663,0.4569702,-0.09375,0.296875,-0.5625
443,443,1727405010019,-0.8720703,0.35076904,0.46502686,-0.1875,0.03125,-0.421875
444,444,1727405010059,-0.8618164,0.3480835,0.46502686,0.046875,0.0,-0.046875
445,445,1727405010099,-0.8666992,0.35443115,0.46331787,-0.125,-0.015625,-0.125
446,446,1727405010139,-0.8664551,0.3517456,0.4537964,-0.3125,0.03125,-0.59375
447,447,1727405010179,-0.86376953,0.34588623,0.4611206,-0.390625,-0.75,-0.15625
448,448,1727405010219,-0.8664551,0.35443115,0.4706421,-0.4375,-0.859375,-0.015625
449,449,1727405010259,-0.8703613,0.3534546,0.46844482,-0.375,-0.265625,-0.09375
450,450,1727405010299,-0.8630371,0.3493042,0.46258545,-0.46875,-0.046875,-0.3125
451,451,1727405010339,-0.8625488,0.35247803,0.4706421,-0.390625,-0.359375,-0.265625
452,452,1727405010379,-0.85913086,0.34710693,0.46087646,-0.546875,-0.59375,-0.15625
453,453,1727405010419,-0.86572266,0.35687256,0.47479248,-0.9375,-0.875,-0.078125
454,454,1727405010459,-0.86279297,0.34979248,0.46697998,-0.375,-0.171875,-0.015625
455,455,1727405010499,-0.8586426,0.34417725,0.47943115,-0.671875,-1.3125,0.046875
456,456,1727405010539,-0.8581543,0.338562,0.46209717,-0.671875,-1.3125,0.265625
457,457,1727405010579,-0.8703613,0.3600464,0.4755249,-1.0,-1.5,-0.171875
458,458,1727405010619,-0.86621094,0.3546753,0.46722412,-0.65625,-0.375,-0.515625
459,459,1727405010659,-0.86328125,0.3397827,0.46697998,-0.984375,-0.890625,-0.171875
460,460,1727405010699,-0.8703613,0.35369873,0.47576904,-0.921875,-0.984375,0.171875
461,461,1727405010739,-0.86694336,0.3505249,0.46673584,-1.015625,-1.140625,0.140625
462,462,1727405010779,-0.86743164,0.35687256,0.46795654,-0.875,-0.953125,-0.0625
463,463,1727405010819,-0.8647461,0.34979248,0.46307373,-0.6875,-1.609375,0.015625
464,464,1727405010859,-0.8652344,0.35076904,0.47210693,-1.09375,-1.34375,0.125
465,465,1727405010899,-0.8725586,0.3554077,0.46453857,-0.953125,-0.671875,0.046875
466,466,1727405010939,-0.8652344,0.35198975,0.46746826,-0.765625,-0.8125,-0.234375
467,467,1727405010979,-0.857666,0.35003662,0.46966553,-0.921875,-1.046875,0.078125
468,468,1727405011019,-0.8679199,0.34661865,0.46331787,-0.9375,-1.28125,0.234375
469,469,1727405011059,-0.86621094,0.35516357,0.46575928,-1.09375,-1.484375,-0.09375
470,470,1727405011099,-0.8647461,0.3493042,0.45233154,-0.53125,-0.578125,0.09375
471,471,1727405011139,-0.86279297,0.35125732,0.4664917,-0.734375,-1.6875,0.234375
472,472,1727405011179,-0.86621094,0.33685303,0.45135498,-0.78125,-1.609375,0.484375
473,473,1727405011219,-0.875,0.3607788,0.46820068,-1.515625,-1.71875,0.046875
474,474,1727405011259,-0.88061523,0.355896,0.44989014,-0.796875,-0.671875,-0.265625
475,475,1727405011299,-0.8666992,0.35443115,0.47039795,-1.0,-1.015625,0.078125
476,476,1727405011339,-0.8713379,0.35784912,0.46307373,-0.65625,-0.8125,0.15625
477,477,1727405011379,-0.87060547,0.36102295,0.46453857,-0.734375,-0.828125,0.140625
478,478,1727405011419,-0.86572266,0.3505249,0.45306396,-0.671875,-0.96875,-0.125
479,479,1727405011459,-0.86035156,0.3522339,0.4611206,-0.875,-1.234375,0.1875
480,480,1727405011499,-0.86938477,0.3534546,0.4640503,-0.921875,-1.28125,0.203125
481,481,1727405011539,-0.87231445,0.35491943,0.463562,-0.828125,-0.84375,0.0
482,482,1727405011579,-0.86694336,0.35125732,0.45819092,-0.671875,-0.6875,-0.03125
483,483,1727405011619,-0.8718262,0.354187,0.46063232,-0.71875,-0.859375,0.09375
484,484,1727405011659,-0.8691406,0.3475952,0.4598999,-0.859375,-1.21875,0.171875
485,485,1727405011699,-0.86694336,0.36029053,0.4611206,-0.96875,-1.140625,-0.015625
486,486,1727405011739,-0.87109375,0.35662842,0.45257568,-0.515625,-0.453125,0.015625
487,487,1727405011779,-0.8664551,0.3534546,0.46331787,-0.8125,-1.46875,0.203125
488,488,1727405011819,-0.8720703,0.3475952,0.44622803,-0.703125,-1.453125,0.59375
489,489,1727405011859,-0.87280273,0.35638428,0.46087646,-1.453125,-2.078125,0.203125
490,490,1727405011899,-0.8803711,0.35614014,0.45672607,-1.015625,-0.359375,-0.484375
491,491,1727405011939,-0.8737793,0.34735107,0.4520874,-0.921875,-1.0,-0.015625
492,492,1727405011979,-0.87353516,0.34979248,0.4550171,-0.53125,-0.734375,0.328125
493,493,1727405012019,-0.873291,0.35760498,0.45648193,-0.53125,-0.90625,0.109375
494,494,1727405012059,-0.87475586,0.35321045,0.45428467,-0.5625,-0.796875,-0.015625
495,495,1727405012099,-0.8659668,0.35125732,0.447937,-0.796875,-1.265625,0.046875
496,496,1727405012139,-0.8679199,0.3468628,0.4545288,-0.828125,-1.265625,0.21875
497,497,1727405012179,-0.8791504,0.35491943,0.45648193,-0.5625,-0.890625,0.0625
498,498,1727405012219,-0.86938477,0.35198975,0.45794678,-0.65625,-0.59375,-0.046875
499,499,1727405012259,-0.876709,0.34735107,0.45819092,-0.515625,-0.921875,0.109375
500,500,1727405012299,-0.8779297,0.3451538,0.45013428,-0.78125,-1.265625,0.234375
501,501,1727405012339,-0.8720703,0.3480835,0.46063232,-0.9375,-1.34375,0.15625
502,502,1727405012379,-0.88061523,0.3534546,0.4508667,-0.65625,-0.875,0.046875
503,503,1727405012419,-0.87524414,0.3522339,0.4586792,-0.578125,-1.421875,0.171875
504,504,1727405012459,-0.8754883,0.3456421,0.44158936,-0.96875,-0.75,0.078125
505,505,1727405012499,-0.8679199,0.35076904,0.4520874,-0.9375,-1.71875,0.25
506,506,1727405012539,-0.8852539,0.35565186,0.45721436,-0.78125,-0.21875,-0.40625
507,507,1727405012579,-0.87475586,0.35198975,0.449646,-0.484375,0.078125,-0.3125
508,508,1727405012619,-0.8730469,0.35003662,0.4586792,-0.53125,-0.265625,-0.015625
509,509,1727405012659,-0.87768555,0.34906006,0.44891357,0.0,-0.09375,0.203125
510,510,1727405012699,-0.8798828,0.35321045,0.46014404,-0.140625,-0.265625,-0.28125
511,511,1727405012739,-0.87768555,0.35247803,0.46014404,-0.46875,-0.21875,-0.390625
512,512,1727405012779,-0.86035156,0.35198975,0.4533081,-0.484375,-0.15625,-0.21875
513,513,1727405012819,-0.8718262,0.35076904,0.45965576,-0.3125,0.015625,-0.234375
514,514,1727405012859,-0.87353516,0.35150146,0.45599365,-0.40625,0.0625,-0.15625
515,515,1727405012899,-0.8684082,0.35076904,0.45843506,-0.15625,-0.078125,-0.34375
516,516,1727405012939,-0.8701172,0.34417725,0.4616089,-0.171875,-0.21875,-0.3125
517,517,1727405012979,-0.87280273,0.35760498,0.46600342,-0.375,-1.0,-0.21875
518,518,1727405013019,-0.8725586,0.355896,0.463562,-0.40625,0.09375,-0.328125
519,519,1727405013059,-0.86279297,0.3451538,0.4508667,-0.078125,-0.4375,-0.171875
520,520,1727405013099,-0.8630371,0.35150146,0.4545288,-0.5,-0.515625,0.0625
521,521,1727405013139,-0.87280273,0.35076904,0.46429443,-0.21875,-1.171875,0.03125
522,522,1727405013179,-0.86865234,0.36273193,0.4730835,-0.09375,0.1875,-0.453125
523,523,1727405013219,-0.8708496,0.35272217,0.4623413,-0.3125,-0.046875,-0.53125
524,524,1727405013259,-0.8652344,0.34735107,0.46575928,-0.5,-0.59375,-0.046875
525,525,1727405013299,-0.86865234,0.34906006,0.46575928,-0.25,-0.25,0.046875
526,526,1727405013339,-0.8635254,0.3571167,0.4796753,-0.0625,-0.5625,-0.234375
527,527,1727405013379,-0.86157227,0.3522339,0.45892334,-0.234375,-0.5,-0.28125
528,528,1727405013419,-0.8601074,0.35247803,0.4647827,-0.5625,-0.59375,-0.078125
529,529,1727405013459,-0.86743164,0.355896,0.46917725,-0.296875,-0.515625,0.03125
530,530,1727405013499,-0.8654785,0.34783936,0.46697998,-0.390625,-0.1875,-0.390625
531,531,1727405013539,-0.86499023,0.35003662,0.4725952,-0.5,-0.5,-0.375
532,532,1727405013579,-0.8696289,0.35272217,0.46917725,-0.40625,-0.25,-0.328125
533,533,1727405013619,-0.8618164,0.35394287,0.47381592,-0.453125,-0.9375,-0.203125
534,534,1727405013659,-0.86816406,0.3534546,0.47454834,-0.53125,-0.09375,-0.171875
535,535,1727405013699,-0.8654785,0.34710693,0.4628296,-0.21875,-0.125,-0.046875
536,536,1727405013739,-0.86376953,0.35076904,0.46600342,-0.40625,-0.34375,-0.125
537,537,1727405013779,-0.86376953,0.34661865,0.46990967,-0.375,-1.359375,0.0625
538,538,1727405013819,-0.8742676,0.35394287,0.4767456,-0.421875,-0.390625,-0.34375
539,539,1727405013859,-0.8671875,0.34906006,0.46209717,-0.625,-0.15625,-0.65625
540,540,1727405013899,-0.85913086,0.34344482,0.479187,-1.140625,-0.796875,-0.375
541,541,1727405013939,-0.85791016,0.34417725,0.46722412,-0.8125,-0.703125,0.125
542,542,1727405013979,-0.8635254,0.35516357,0.47991943,-1.078125,-1.21875,-0.25
543,543,1727405014019,-0.8640137,0.3493042,0.45794678,-0.921875,-0.734375,-0.296875
544,544,1727405014059,-0.8642578,0.35443115,0.4701538,-1.546875,-1.046875,-0.140625
545,545,1727405014099,-0.8625488,0.36419678,0.4694214,-1.265625,-1.03125,0.03125
546,546,1727405014139,-0.8630371,0.354187,0.47698975,-0.96875,-0.828125,0.046875
547,547,1727405014179,-0.8654785,0.3534546,0.47528076,-0.96875,-0.84375,-0.25
548,548,1727405014219,-0.8659668,0.35565186,0.47210693,-0.796875,-1.015625,0.125
549,549,1727405014259,-0.8664551,0.36102295,0.47601318,-1.09375,-1.765625,0.15625
550,550,1727405014299,-0.87109375,0.3632202,0.4743042,-0.8125,-1.125,0.0625
551,551,1727405014339,-0.8581543,0.35516357,0.4689331,-0.46875,-1.671875,0.296875
552,552,1727405014379,-0.8581543,0.35272217,0.4586792,-0.796875,-1.3125,0.71875
553,553,1727405014419,-0.8625488,0.36053467,0.45941162,-1.046875,-2.296875,0.6875
554,554,1727405014459,-0.8701172,0.36297607,0.47210693,-0.53125,-1.0625,-0.375
555,555,1727405014499,-0.8691406,0.34881592,0.46380615,-0.859375,-0.640625,-0.3125
556,556,1727405014539,-0.86621094,0.35247803,0.46917725,-0.734375,-1.03125,0.171875
557,557,1727405014579,-0.8652344,0.36175537,0.46331787,-0.796875,-0.890625,0.34375
558,558,1727405014619,-0.8640137,0.36590576,0.4706421,-1.0,-0.9375,0.046875
559,559,1727405014659,-0.8679199,0.35321045,0.46136475,-0.921875,-1.28125,-0.015625
560,560,1727405014699,-0.85791016,0.35321045,0.46331787,-1.1875,-1.203125,0.203125
561,561,1727405014739,-0.8659668,0.35565186,0.45965576,-0.921875,-1.078125,0.171875
562,562,1727405014779,-0.8737793,0.3554077,0.46087646,-0.875,-0.734375,-0.140625
563,563,1727405014819,-0.8708496,0.35394287,0.46600342,-0.953125,-1.046875,-0.0625
564,564,1727405014859,-0.8613281,0.35491943,0.45355225,-0.71875,-1.125,0.03125
565,565,1727405014899,-0.87524414,0.3522339,0.46429443,-1.171875,-1.8125,-0.046875
566,566,1727405014939,-0.8737793,0.35882568,0.46502686,-0.84375,-0.734375,-0.03125
567,567,1727405014979,-0.8696289,0.34417725,0.46038818,-0.390625,-1.578125,0.171875
568,568,1727405015019,-0.86376953,0.35028076,0.44500732,-1.0,-0.953125,0.28125
569,569,1727405015059,-0.8676758,0.35906982,0.4562378,-0.875,-2.140625,0.375
570,570,1727405015099,-0.87060547,0.3546753,0.4647827,-1.09375,-0.75,-0.375
571,571,1727405015139,-0.87231445,0.3475952,0.4562378,-0.828125,-0.5,-0.28125
572,572,1727405015179,-0.8701172,0.35638428,0.46209717,-0.75,-0.8125,0.078125
573,573,1727405015219,-0.8703613,0.36468506,0.45159912,-0.375,-0.828125,0.34375
574,574,1727405015259,-0.8664551,0.35516357,0.45819092,-0.703125,-1.03125,0.09375
575,575,1727405015299,-0.86743164,0.3607788,0.45037842,-0.984375,-1.109375,0.03125
576,576,1727405015339,-0.86450195,0.3493042,0.45599365,-1.171875,-1.359375,0.25
577,577,1727405015379,-0.8757324,0.35662842,0.46136475,-0.5625,-1.0625,0.171875
578,578,1727405015419,-0.8679199,0.3595581,0.45477295,-0.796875,-0.578125,-0.125
579,579,1727405015459,-0.8684082,0.34735107,0.4586792,-0.859375,-0.796875,-0.046875
580,580,1727405015499,-0.8745117,0.35906982,0.45843506,-0.484375,-0.765625,0.109375
581,581,1727405015539,-0.873291,0.35784912,0.45550537,-0.703125,-1.5625,0.1875
582,582,1727405015579,-0.8676758,0.35906982,0.4586792,-0.765625,-0.703125,0.015625
583,583,1727405015619,-0.87158203,0.35516357,0.44525146,-0.40625,-0.90625,0.1875
584,584,1727405015659,-0.86572266,0.35784912,0.44622803,-0.65625,-0.859375,0.09375
585,585,1727405015699,-0.8671875,0.3439331,0.4508667,-0.53125,-1.9375,0.546875
586,586,1727405015739,-0.8754883,0.36029053,0.4574585,-1.21875,-1.59375,0.03125
587,587,1727405015779,-0.87939453,0.34613037,0.4491577,-0.703125,-0.625,-0.171875
588,588,1727405015819,-0.87646484,0.35028076,0.45281982,-0.90625,-0.96875,-0.046875
589,589,1727405015859,-0.8811035,0.3522339,0.44769287,-0.53125,-0.734375,0.109375
590,590,1727405015899,-0.8730469,0.36053467,0.45550537,-0.65625,-1.046875,0.21875
591,591,1727405015939,-0.8701172,0.35662842,0.44525146,-1.09375,-0.828125,0.046875
592,592,1727405015979,-0.86572266,0.35858154,0.44769287,-1.15625,-1.0625,-0.0625
593,593,1727405016019,-0.87475586,0.35809326,0.45892334,-0.671875,-0.75,-0.03125
594,594,1727405016059,-0.87939453,0.3571167,0.4484253,-0.640625,-0.109375,-0.1875
595,595,1727405016099,-0.87280273,0.36102295,0.4537964,-0.296875,0.28125,-0.234375
596,596,1727405016139,-0.8737793,0.35516357,0.45135498,-0.09375,0.140625,-0.015625
597,597,1727405016179,-0.8725586,0.35760498,0.45770264,-0.328125,-0.46875,-0.109375
598,598,1727405016219,-0.8654785,0.355896,0.4628296,-0.453125,-0.3125,-0.4375
599,599,1727405016259,-0.86328125,0.354187,0.46136475,-0.25,-0.09375,-0.375
600,600,1727405016299,-0.87109375,0.35321045,0.4623413,-0.15625,-0.609375,-0.078125
601,601,1727405016339,-0.8701172,0.35076904,0.44818115,-0.40625,-0.3125,0.15625
602,602,1727405016379,-0.8791504,0.35784912,0.45916748,-0.625,-1.25,-0.03125
603,603,1727405016419,-0.8737793,0.36297607,0.46038818,-0.015625,-0.15625,-0.453125
604,604,1727405016459,-0.8701172,0.34857178,0.44891357,-0.28125,0.046875,-0.4375
605,605,1727405016499,-0.86816406,0.35150146,0.46795654,-0.203125,-0.3125,-0.03125
606,606,1727405016539,-0.8676758,0.35906982,0.45599365,-0.0625,-0.15625,0.15625
607,607,1727405016579,-0.8725586,0.36590576,0.4664917,-0.4375,-0.1875,-0.328125
608,608,1727405016619,-0.8666992,0.3505249,0.46697998,-0.53125,-0.734375,-0.34375
609,609,1727405016659,-0.8713379,0.35003662,0.46063232,-0.4375,-0.640625,-0.015625
610,610,1727405016699,-0.8676758,0.35565186,0.46746826,-0.421875,-0.5,-0.234375
611,611,1727405016739,-0.8696289,0.35394287,0.4694214,-0.484375,-0.03125,-0.3125
612,612,1727405016779,-0.86572266,0.35198975,0.46185303,-0.46875,-0.03125,-0.25
613,613,1727405016819,-0.8664551,0.35760498,0.45599365,-0.1875,-0.109375,-0.125
614,614,1727405016859,-0.86572266,0.35687256,0.47161865,-0.421875,-0.59375,-0.171875
615,615,1727405016899,-0.8671875,0.3632202,0.47161865,-0.328125,-0.0625,-0.1875
616,616,1727405016939,-0.8676758,0.35101318,0.46575928,-0.046875,-0.5625,0.03125
617,617,1727405016979,-0.86743164,0.34906006,0.4562378,-0.359375,-0.390625,-0.015625
618,618,1727405017019,-0.86816406,0.35906982,0.46844482,-0.46875,-1.265625,-0.078125
619,619,1727405017059,-0.8708496,0.36175537,0.4706421,-0.078125,-0.078125,-0.375
620,620,1727405017099,-0.8671875,0.35614014,0.4664917,-0.421875,-0.265625,-0.4375
621,621,1727405017139,-0.8635254,0.354187,0.4755249,-0.46875,-0.453125,0.0
622,622,1727405017179,-0.8659668,0.35101318,0.4677124,-0.40625,-0.5625,0.15625
623,623,1727405017219,-0.85791016,0.35809326,0.4833374,-0.5625,-0.75,-0.25
624,624,1727405017259,-0.8618164,0.3571167,0.46697998,-0.6875,-0.765625,-0.171875
625,625,1727405017299,-0.8605957,0.35076904,0.4677124,-1.25,-1.203125,0.078125
626,626,1727405017339,-0.8618164,0.36297607,0.47454834,-0.875,-0.96875,0.03125
627,627,1727405017379,-0.86816406,0.35394287,0.4718628,-0.84375,-0.546875,-0.34375
628,628,1727405017419,-0.86938477,0.34954834,0.47479248,-0.96875,-0.671875,-0.234375
629,629,1727405017459,-0.86621094,0.3529663,0.4689331,-1.015625,-1.078125,0.015625
630,630,1727405017499,-0.8574219,0.36541748,0.47601318,-1.234375,-1.640625,-0.203125
631,631,1727405017539,-0.85717773,0.36346436,0.4701538,-0.828125,-0.640625,-0.15625
632,632,1727405017579,-0.8586426,0.35760498,0.47283936,-0.390625,-1.3125,0.25
633,633,1727405017619,-0.8598633,0.3480835,0.4574585,-1.0,-0.9375,0.296875
634,634,1727405017659,-0.8647461,0.36151123,0.4640503,-1.1875,-1.734375,0.390625
635,635,1727405017699,-0.8725586,0.36517334,0.47625732,-0.890625,-0.84375,-0.140625
636,636,1727405017739,-0.8654785,0.35028076,0.46722412,-0.953125,-0.859375,-0.34375
637,637,1727405017779,-0.8630371,0.3546753,0.47650146,-0.890625,-1.1875,0.03125
638,638,1727405017819,-0.86499023,0.35760498,0.46331787,-0.90625,-1.171875,0.34375
639,639,1727405017859,-0.86499023,0.36151123,0.47479248,-1.21875,-1.28125,0.0625
640,640,1727405017899,-0.86206055,0.35858154,0.46258545,-0.859375,-1.28125,0.109375
641,641,1727405017939,-0.8671875,0.3546753,0.45941162,-1.078125,-1.296875,0.234375
642,642,1727405017979,-0.87060547,0.36273193,0.46453857,-0.8125,-0.9375,0.109375
643,643,1727405018019,-0.86743164,0.35614014,0.46014404,-0.859375,-0.765625,-0.078125
644,644,1727405018059,-0.87280273,0.3595581,0.45965576,-0.8125,-0.875,0.0625
645,645,1727405018099,-0.87231445,0.355896,0.45843506,-0.828125,-1.3125,-0.03125
646,646,1727405018139,-0.8688965,0.3600464,0.46502686,-1.625,-1.265625,-0.078125
647,647,1727405018179,-0.8552246,0.3571167,0.4598999,-1.546875,-0.984375,0.046875
648,648,1727405018219,-0.8552246,0.36175537,0.4677124,-2.375,-2.5625,0.734375
649,649,1727405018259,-0.857666,0.34857178,0.45135498,-2.265625,-3.0625,0.953125
650,650,1727405018299,-0.8635254,0.36956787,0.46136475,-2.453125,-4.234375,0.921875
651,651,1727405018339,-0.88134766,0.37908936,0.45599365,-2.0625,-2.265625,0.609375
652,652,1727405018379,-0.8798828,0.3756714,0.44891357,-1.40625,-1.828125,0.59375
653,653,1727405018419,-0.8774414,0.3583374,0.44207764,-1.015625,-1.546875,1.046875
654,654,1727405018459,-0.88427734,0.35247803,0.4352417,-0.5,-1.265625,0.828125
655,655,1727405018499,-0.8869629,0.36419678,0.43914795,-0.5,-0.515625,0.359375
656,656,1727405018539,-0.8820801,0.34954834,0.4454956,-0.90625,-0.953125,0.15625
657,657,1727405018579,-0.8745117,0.34832764,0.44158936,-0.90625,-0.984375,-0.09375
658,658,1727405018619,-0.8779297,0.3546753,0.4389038,-1.140625,-0.953125,-0.328125
659,659,1727405018659,-0.8737793,0.35809326,0.44403076,-1.203125,-0.734375,-0.171875
660,660,1727405018699,-0.8857422,0.3600464,0.4393921,-1.078125,-0.65625,-0.265625
661,661,1727405018739,-0.8796387,0.35760498,0.43621826,-1.15625,-0.875,0.03125
662,662,1727405018779,-0.8845215,0.36444092,0.4401245,-1.46875,-0.59375,-0.28125
663,663,1727405018819,-0.87719727,0.36468506,0.44232178,-0.1875,0.359375,-0.125
664,664,1727405018859,-0.8671875,0.35882568,0.4484253,-0.5625,-0.546875,-0.09375
665,665,1727405018899,-0.8605957,0.35369873,0.4467163,-0.453125,-0.640625,0.46875
666,666,1727405018939,-0.8664551,0.36590576,0.4491577,-1.296875,-1.28125,0.125
667,667,1727405018979,-0.87890625,0.36810303,0.45159912,-0.71875,-0.25,-0.484375
668,668,1727405019019,-0.8666992,0.35638428,0.44281006,-0.578125,-0.90625,-0.359375
669,669,1727405019059,-0.8708496,0.35882568,0.4520874,-0.875,-0.84375,0.046875
670,670,1727405019099,-0.87890625,0.36566162,0.44525146,-0.65625,-1.0,0.140625
671,671,1727405019139,-0.8762207,0.36663818,0.4459839,-0.640625,-0.453125,-0.125
672,672,1727405019179,-0.8754883,0.36151123,0.44354248,-0.59375,-0.75,-0.03125
673,673,1727405019219,-0.8781738,0.35906982,0.447937,-0.5,-0.609375,-0.1875
674,674,1727405019259,-0.87841797,0.36053467,0.44207764,-0.078125,0.21875,-0.375
675,675,1727405019299,-0.87353516,0.36663818,0.44696045,-0.1875,0.140625,-0.4375
676,676,1727405019339,-0.87109375,0.35882568,0.44476318,0.234375,0.578125,-0.46875
677,677,1727405019379,-0.8786621,0.35369873,0.4491577,-0.15625,-0.375,-0.25
678,678,1727405019419,-0.87231445,0.36273193,0.45037842,-0.453125,0.015625,-0.59375
679,679,1727405019459,-0.8696289,0.36273193,0.44207764,0.296875,0.390625,-0.40625
680,680,1727405019499,-0.86865234,0.36175537,0.45721436,-0.328125,-0.578125,-0.265625
681,681,1727405019539,-0.86328125,0.3517456,0.45159912,-0.046875,-0.796875,0.0
682,682,1727405019579,-0.86816406,0.36712646,0.46014404,-0.4375,-0.4375,-0.40625
683,683,1727405019619,-0.8796387,0.36566162,0.44891357,0.21875,0.234375,-0.90625
684,684,1727405019659,-0.8708496,0.35443115,0.45550537,-0.234375,-0.28125,-0.703125
685,685,1727405019699,-0.86987305,0.36810303,0.46014404,0.0625,0.015625,-0.15625
686,686,1727405019739,-0.8691406,0.35858154,0.46087646,-0.0625,-0.140625,-0.09375
687,687,1727405019779,-0.86621094,0.36102295,0.4484253,0.015625,0.1875,-0.40625
688,688,1727405019819,-0.8623047,0.35736084,0.4537964,-0.375,-0.40625,-0.34375
689,689,1727405019859,-0.86450195,0.3637085,0.465271,-0.109375,-0.703125,-0.171875
690,690,1727405019899,-0.8703613,0.3600464,0.4623413,-0.109375,-0.015625,-0.4375
691,691,1727405019939,-0.8664551,0.36297607,0.4640503,-0.171875,0.21875,-0.484375
692,692,1727405019979,-0.8625488,0.36346436,0.4611206,0.375,-0.28125,-0.296875
693,693,1727405020019,-0.86816406,0.35662842,0.45892334,-0.171875,-0.5625,-0.1875
694,694,1727405020059,-0.8664551,0.36639404,0.47161865,-0.25,0.28125,-0.546875
695,695,1727405020099,-0.8618164,0.35906982,0.46185303,0.28125,-0.15625,-0.15625
696,696,1727405020139,-0.8574219,0.36297607,0.46258545,-0.25,-0.359375,-0.0625
697,697,1727405020179,-0.87060547,0.35760498,0.46917725,-0.171875,-0.96875,0.21875
698,698,1727405020219,-0.8691406,0.36956787,0.47479248,0.0,-0.015625,-0.578125
699,699,1727405020259,-0.8586426,0.35980225,0.4701538,-0.078125,-0.109375,-0.703125
700,700,1727405020299,-0.8642578,0.35906982,0.4730835,-0.09375,-0.140625,-0.171875
701,701,1727405020339,-0.86328125,0.3534546,0.4647827,-0.046875,-0.34375,0.078125
702,702,1727405020379,-0.8605957,0.3685913,0.48358154,-0.390625,-0.6875,-0.078125
703,703,1727405020419,-0.859375,0.35662842,0.46820068,-0.828125,-0.859375,-0.25
704,704,1727405020459,-0.8598633,0.35931396,0.46844482,-1.171875,-1.328125,-0.046875
705,705,1727405020499,-0.861084,0.35858154,0.4694214,-1.0,-1.25,-0.09375
706,706,1727405020539,-0.86035156,0.3600464,0.46990967,-1.28125,-0.671875,-0.484375
707,707,1727405020579,-0.859375,0.3632202,0.46966553,-1.0625,-0.796875,-0.25
708,708,1727405020619,-0.8671875,0.3685913,0.463562,-0.96875,-1.140625,-0.109375
709,709,1727405020659,-0.86083984,0.37322998,0.47894287,-0.828125,-1.171875,-0.234375
710,710,1727405020699,-0.8552246,0.35906982,0.45721436,-0.65625,-0.078125,0.078125
711,711,1727405020739,-0.85546875,0.35882568,0.46844482,-0.875,-1.359375,0.296875
712,712,1727405020779,-0.8520508,0.3600464,0.46258545,-0.75,-1.703125,0.46875
713,713,1727405020819,-0.8679199,0.3756714,0.4713745,-1.015625,-1.421875,-0.140625
714,714,1727405020859,-0.8635254,0.36663818,0.46331787,-0.640625,-0.59375,-0.34375
715,715,1727405020899,-0.85498047,0.35882568,0.4689331,-0.890625,-1.03125,-0.03125
716,716,1727405020939,-0.8676758,0.3685913,0.4664917,-0.640625,-1.03125,0.34375
717,717,1727405020979,-0.8605957,0.36224365,0.47235107,-0.703125,-1.28125,0.15625
718,718,1727405021019,-0.859375,0.36175537,0.45648193,-0.890625,-0.75,0.015625
719,719,1727405021059,-0.85424805,0.3600464,0.46038818,-1.203125,-1.34375,0.125
720,720,1727405021099,-0.8586426,0.3673706,0.46844482,-0.78125,-1.359375,0.203125
721,721,1727405021139,-0.8701172,0.36639404,0.46038818,-0.828125,-0.515625,-0.140625
722,722,1727405021179,-0.8586426,0.36541748,0.46673584,-0.5625,-0.421875,-0.125
723,723,1727405021219,-0.8671875,0.35882568,0.4562378,-0.75,-0.90625,0.078125
724,724,1727405021259,-0.8640137,0.36590576,0.46966553,-1.015625,-1.328125,0.03125
725,725,1727405021299,-0.86035156,0.37738037,0.46624756,-0.734375,-0.375,-0.125
726,726,1727405021339,-0.85961914,0.3600464,0.4664917,-0.375,-1.421875,0.203125
727,727,1727405021379,-0.86083984,0.35662842,0.45819092,-0.734375,-1.078125,0.28125
728,728,1727405021419,-0.86328125,0.37078857,0.4586792,-1.015625,-1.9375,0.25
729,729,1727405021459,-0.8652344,0.3678589,0.45916748,-0.9375,-0.859375,-0.4375
730,730,1727405021499,-0.8708496,0.3607788,0.46209717,-0.625,-0.609375,-0.4375
731,731,1727405021539,-0.861084,0.3624878,0.46795654,-0.78125,-0.890625,0.21875
732,732,1727405021579,-0.86328125,0.36419678,0.45819092,-0.4375,-0.84375,0.3125
733,733,1727405021619,-0.86694336,0.36566162,0.46209717,-0.703125,-0.65625,0.0625
734,734,1727405021659,-0.859375,0.35882568,0.46429443,-1.078125,-1.34375,0.140625
735,735,1727405021699,-0.86694336,0.36029053,0.46331787,-1.171875,-1.40625,0.234375
