,Unnamed: 0,timestamp,accel_x,accel_y,accel_z,gyro_x,gyro_y,gyro_z
0,0,1727110394753,0.8708496,-0.08843994,0.48187256,-0.15625,0.25,-0.203125
1,1,1727110394793,0.873291,-0.07232666,0.49627686,0.578125,-0.328125,-0.171875
2,2,1727110394833,0.876709,-0.054748535,0.49456787,0.21875,0.9375,0.046875
3,3,1727110394873,0.8786621,-0.06842041,0.47381592,0.03125,0.265625,0.28125
4,4,1727110394913,0.875,-0.06304932,0.4869995,-0.125,0.65625,0.03125
5,5,1727110394953,0.8815918,-0.06573486,0.48944092,0.484375,0.28125,-0.375
6,6,1727110394993,0.8815918,-0.06866455,0.48309326,-0.15625,0.53125,0.015625
7,7,1727110395033,0.8757324,-0.062072754,0.47381592,-0.21875,0.71875,-0.21875
8,8,1727110395073,0.88061523,-0.058410645,0.48284912,-0.609375,0.875,-0.140625
9,9,1727110395113,0.8703613,-0.062316895,0.49090576,-0.53125,0.078125,-0.046875
10,10,1727110395153,0.873291,-0.06915283,0.4784546,-1.25,-0.015625,-0.28125
11,11,1727110395193,0.8786621,-0.06549072,0.48260498,-0.984375,0.375,-0.21875
12,12,1727110395233,0.87719727,-0.06011963,0.48358154,-1.5,-0.125,0.046875
13,13,1727110395273,0.87524414,-0.057922363,0.49139404,-2.375,0.171875,0.203125
14,14,1727110395313,0.8798828,-0.04888916,0.480896,-2.703125,-0.234375,-0.1875
15,15,1727110395353,0.8779297,-0.054016113,0.47747803,-2.9375,0.125,-0.078125
16,16,1727110395393,0.88134766,-0.050842285,0.48260498,-3.4375,0.203125,-0.03125
17,17,1727110395433,0.8779297,-0.042297363,0.47698975,-3.515625,-0.03125,-0.0625
18,18,1727110395473,0.8769531,-0.047180176,0.47991943,-3.78125,0.0625,-0.15625
19,19,1727110395513,0.8781738,-0.046936035,0.48236084,-3.109375,-0.09375,-0.203125
20,20,1727110395553,0.87841797,-0.047668457,0.47235107,-3.5625,0.65625,-0.21875
21,21,1727110395593,0.88134766,-0.02911377,0.49676514,-2.078125,-0.8125,-0.28125
22,22,1727110395633,0.8781738,-0.038146973,0.48895264,-2.453125,1.375,-0.4375
23,23,1727110395673,0.87768555,-0.038391113,0.4899292,-3.453125,0.703125,-0.203125
24,24,1727110395713,0.8828125,-0.035217285,0.48187256,-2.71875,1.328125,-0.359375
25,25,1727110395753,0.88183594,-0.026428223,0.48431396,-1.953125,0.640625,-0.34375
26,26,1727110395793,0.876709,-0.027648926,0.48406982,-1.859375,0.4375,-0.46875
27,27,1727110395833,0.87231445,-0.039611816,0.48187256,-1.796875,0.34375,-0.546875
28,28,1727110395873,0.8840332,-0.030578613,0.48553467,-1.90625,-0.453125,-0.40625
29,29,1727110395913,0.87646484,-0.0178833,0.48895264,-0.828125,-0.0625,-0.546875
30,30,1727110395953,0.8725586,-0.031311035,0.4882202,-0.109375,0.125,-0.171875
31,31,1727110395993,0.8781738,-0.028625488,0.48406982,-0.453125,0.078125,-0.328125
32,32,1727110396033,0.8779297,-0.026184082,0.4862671,-0.421875,0.09375,-0.4375
33,33,1727110396073,0.8786621,-0.0256958,0.48553467,0.140625,-0.21875,-0.46875
34,34,1727110396113,0.8762207,-0.02545166,0.48187256,-0.09375,-0.328125,-0.4375
35,35,1727110396153,0.87890625,-0.024475098,0.48358154,0.140625,-0.25,-0.28125
36,36,1727110396193,0.875,-0.0335083,0.48162842,0.703125,-0.578125,-0.171875
37,37,1727110396233,0.87158203,-0.026916504,0.49432373,1.96875,-1.375,-0.296875
38,38,1727110396273,0.87231445,-0.020324707,0.48138428,1.71875,1.078125,-0.484375
39,39,1727110396313,0.8769531,-0.044006348,0.47479248,1.453125,-0.5,0.125
40,40,1727110396353,0.87719727,-0.030334473,0.49310303,0.5625,0.421875,-0.3125
41,41,1727110396393,0.88012695,-0.025939941,0.48309326,0.75,-0.109375,-0.09375
42,42,1727110396433,0.87719727,-0.023498535,0.48114014,1.4375,0.390625,-0.15625
43,43,1727110396473,0.88183594,-0.031555176,0.49041748,1.9375,0.203125,-0.359375
44,44,1727110396513,0.87280273,-0.029846191,0.48529053,2.125,0.171875,-0.1875
45,45,1727110396553,0.8720703,-0.030822754,0.48260498,2.3125,0.5625,0.015625
46,46,1727110396593,0.8676758,-0.037902832,0.4664917,2.1875,0.03125,0.1875
47,47,1727110396633,0.87841797,-0.039367676,0.47772217,2.046875,0.078125,0.09375
48,48,1727110396673,0.8769531,-0.04034424,0.49090576,3.390625,-0.421875,-0.15625
49,49,1727110396713,0.8791504,-0.03277588,0.48480225,2.921875,0.515625,-0.21875
50,50,1727110396753,0.8779297,-0.039367676,0.48406982,2.640625,0.375,0.140625
51,51,1727110396793,0.87939453,-0.043762207,0.48651123,2.765625,0.03125,0.0625
52,52,1727110396833,0.8762207,-0.04864502,0.48260498,2.5,0.46875,-0.171875
53,53,1727110396873,0.8708496,-0.04473877,0.48382568,2.015625,0.515625,0.21875
54,54,1727110396913,0.8779297,-0.04840088,0.480896,2.25,0.25,0.375
55,55,1727110396953,0.8713379,-0.051574707,0.46917725,1.890625,0.109375,-0.109375
56,56,1727110396993,0.8808594,-0.046203613,0.49969482,3.03125,0.125,-0.140625
57,57,1727110397033,0.8781738,-0.04156494,0.47650146,1.46875,1.109375,0.296875
58,58,1727110397073,0.8769531,-0.051086426,0.48406982,1.4375,0.71875,0.0625
59,59,1727110397113,0.8815918,-0.055725098,0.48187256,1.859375,0.421875,-0.046875
60,60,1727110397153,0.87841797,-0.04840088,0.48138428,1.25,0.4375,-0.25
61,61,1727110397193,0.8803711,-0.045715332,0.48651123,0.828125,0.625,-0.15625
62,62,1727110397233,0.87597656,-0.04473877,0.47991943,1.3125,0.53125,-0.09375
63,63,1727110397273,0.88500977,-0.046691895,0.47772217,0.984375,0.328125,-0.0625
64,64,1727110397313,0.88134766,-0.050598145,0.4694214,0.390625,0.59375,-0.125
65,65,1727110397353,0.87939453,-0.054504395,0.47650146,0.609375,0.640625,-0.0625
66,66,1727110397393,0.8798828,-0.054992676,0.480896,0.984375,0.390625,0.0625
67,67,1727110397433,0.88378906,-0.05645752,0.47698975,0.734375,0.4375,-0.28125
68,68,1727110397473,0.8769531,-0.05718994,0.47625732,0.796875,-0.09375,-0.203125
69,69,1727110397513,0.87768555,-0.053771973,0.4767456,0.71875,0.546875,-0.234375
70,70,1727110397553,0.88061523,-0.055725098,0.46795654,0.5625,0.296875,-0.0625
71,71,1727110397593,0.87719727,-0.047424316,0.47772217,0.453125,0.1875,-0.03125
72,72,1727110397633,0.8754883,-0.05645752,0.4784546,0.125,0.09375,-0.046875
73,73,1727110397673,0.8852539,-0.05596924,0.46966553,0.328125,0.453125,-0.125
74,74,1727110397713,0.88012695,-0.059387207,0.46185303,-0.46875,0.234375,-0.109375
75,75,1727110397753,0.8786621,-0.059143066,0.48724365,0.734375,-0.34375,-0.21875
76,76,1727110397793,0.8835449,-0.047912598,0.46917725,-0.203125,0.828125,-0.125
77,77,1727110397833,0.8820801,-0.04888916,0.479187,0.546875,0.40625,-0.21875
78,78,1727110397873,0.88183594,-0.049865723,0.46697998,0.484375,0.53125,-0.109375
79,79,1727110397913,0.87524414,-0.051086426,0.47528076,-0.015625,0.546875,-0.328125
80,80,1727110397953,0.87890625,-0.051574707,0.4718628,0.109375,0.296875,-0.296875
81,81,1727110397993,0.8808594,-0.05279541,0.47332764,0.125,0.25,-0.15625
82,82,1727110398033,0.87402344,-0.04815674,0.47869873,0.34375,0.015625,-0.125
83,83,1727110398073,0.87719727,-0.04449463,0.46258545,-0.28125,0.234375,-0.234375
84,84,1727110398113,0.8828125,-0.05279541,0.47210693,-0.046875,0.15625,-0.125
85,85,1727110398153,0.8840332,-0.05645752,0.4804077,0.703125,-0.171875,-0.109375
86,86,1727110398193,0.8815918,-0.04864502,0.4706421,0.25,0.109375,-0.1875
87,87,1727110398233,0.88305664,-0.046936035,0.47406006,0.609375,-0.03125,-0.21875
88,88,1727110398273,0.88842773,-0.051330566,0.4767456,0.40625,0.203125,-0.171875
89,89,1727110398313,0.8815918,-0.05621338,0.47650146,0.1875,0.0625,-0.203125
90,90,1727110398353,0.87939453,-0.05255127,0.47381592,0.0,0.125,-0.140625
91,91,1727110398393,0.88500977,-0.04815674,0.47747803,-0.3125,-0.09375,-0.1875
92,92,1727110398433,0.8833008,-0.051330566,0.47821045,-1.234375,0.421875,-0.171875
93,93,1727110398473,0.88378906,-0.046447754,0.4784546,-1.78125,-0.140625,-0.296875
94,94,1727110398513,0.88671875,-0.041809082,0.4664917,-2.84375,0.6875,-0.265625
95,95,1727110398553,0.8781738,-0.045959473,0.4784546,-2.96875,-0.578125,-0.109375
96,96,1727110398593,0.8881836,-0.04547119,0.48162842,-2.6875,0.828125,-0.125
97,97,1727110398633,0.88134766,-0.046203613,0.479187,-3.125,0.25,-0.28125
98,98,1727110398673,0.88012695,-0.03741455,0.47161865,-3.15625,0.5,-0.0625
99,99,1727110398713,0.88012695,-0.039611816,0.4755249,-3.515625,0.078125,-0.1875
100,100,1727110398753,0.8779297,-0.04107666,0.48236084,-3.390625,0.125,-0.421875
101,101,1727110398793,0.8815918,-0.034484863,0.47943115,-4.640625,-0.078125,-0.171875
102,102,1727110398833,0.87475586,-0.027893066,0.4796753,-4.296875,-0.40625,-0.296875
103,103,1727110398873,0.87597656,-0.020812988,0.47039795,-2.984375,-0.09375,-0.34375
104,104,1727110398913,0.8786621,-0.023010254,0.47650146,-2.140625,0.015625,-0.1875
105,105,1727110398953,0.8820801,-0.029846191,0.48651123,-1.65625,-0.234375,-0.28125
106,106,1727110398993,0.8808594,-0.022521973,0.47332764,-1.703125,0.140625,-0.453125
107,107,1727110399033,0.88012695,-0.0256958,0.47503662,-1.1875,0.1875,-0.234375
108,108,1727110399073,0.8796387,-0.018127441,0.47576904,-1.359375,0.109375,-0.46875
109,109,1727110399113,0.88061523,-0.019836426,0.48114014,-1.359375,0.296875,-0.390625
110,110,1727110399153,0.88061523,-0.022277832,0.4784546,-1.5,-0.234375,-0.25
111,111,1727110399193,0.8811035,-0.020568848,0.48138428,-1.21875,-0.15625,-0.375
112,112,1727110399233,0.8811035,-0.010803223,0.48724365,-0.15625,-0.875,-0.390625
113,113,1727110399273,0.88061523,-0.018859863,0.46722412,-1.828125,1.328125,-0.625
114,114,1727110399313,0.88134766,-0.027160645,0.47113037,-0.96875,-0.6875,-0.375
115,115,1727110399353,0.8796387,-0.01373291,0.48724365,-0.703125,0.578125,-0.421875
116,116,1727110399393,0.8820801,-0.020812988,0.48065186,-0.46875,0.125,-0.484375
117,117,1727110399433,0.8769531,-0.013977051,0.4730835,0.578125,0.015625,-0.453125
118,118,1727110399473,0.87841797,-0.010070801,0.47576904,0.921875,0.359375,-0.515625
119,119,1727110399513,0.88183594,-0.016662598,0.47454834,0.828125,0.21875,-0.265625
120,120,1727110399553,0.87768555,-0.016662598,0.48065186,1.09375,0.203125,-0.234375
121,121,1727110399593,0.873291,-0.019348145,0.4677124,0.953125,-0.4375,-0.234375
122,122,1727110399633,0.88183594,-0.019348145,0.47650146,1.609375,-0.359375,-0.109375
123,123,1727110399673,0.8791504,-0.03277588,0.48138428,3.1875,-0.546875,-0.078125
124,124,1727110399713,0.88256836,-0.023498535,0.47601318,2.5625,0.53125,-0.3125
125,125,1727110399753,0.8811035,-0.023254395,0.4796753,3.046875,-0.21875,-0.125
126,126,1727110399793,0.88012695,-0.027648926,0.4862671,2.71875,-0.140625,-0.21875
127,127,1727110399833,0.8757324,-0.032287598,0.4755249,2.359375,0.359375,-0.046875
128,128,1727110399873,0.8781738,-0.032287598,0.4784546,2.65625,0.0625,-0.09375
129,129,1727110399913,0.873291,-0.03375244,0.48406982,2.109375,0.09375,-0.0625
130,130,1727110399953,0.87719727,-0.039611816,0.46673584,1.296875,-0.234375,0.03125
131,131,1727110399993,0.8874512,-0.018615723,0.49554443,3.125,0.625,-0.15625
132,132,1727110400033,0.8808594,-0.0335083,0.46575928,1.4375,0.859375,0.0625
133,133,1727110400073,0.8791504,-0.03375244,0.479187,1.3125,0.65625,-0.046875
134,134,1727110400113,0.8815918,-0.03765869,0.4784546,2.390625,0.28125,-0.0625
135,135,1727110400153,0.8845215,-0.029846191,0.47747803,1.921875,0.484375,0.0
136,136,1727110400193,0.88378906,-0.038146973,0.47235107,2.21875,0.46875,-0.109375
137,137,1727110400233,0.88134766,-0.039855957,0.48138428,2.890625,0.296875,-0.1875
138,138,1727110400273,0.8815918,-0.038635254,0.47406006,2.625,0.59375,-0.0625
139,139,1727110400313,0.8803711,-0.04937744,0.46966553,1.765625,0.15625,-0.21875
140,140,1727110400353,0.87768555,-0.042785645,0.47283936,1.765625,0.625,-0.125
141,141,1727110400393,0.8811035,-0.043273926,0.47991943,2.046875,-0.171875,0.015625
142,142,1727110400433,0.8835449,-0.045715332,0.4743042,1.90625,0.828125,-0.171875
143,143,1727110400473,0.88427734,-0.051574707,0.47601318,1.46875,-0.078125,0.0
144,144,1727110400513,0.89086914,-0.043518066,0.47039795,0.734375,0.140625,0.0625
145,145,1727110400553,0.8820801,-0.045959473,0.47357178,0.78125,0.15625,0.109375
146,146,1727110400593,0.8796387,-0.050842285,0.4725952,1.125,0.453125,0.140625
147,147,1727110400633,0.88305664,-0.043762207,0.4730835,0.65625,0.171875,0.03125
148,148,1727110400673,0.8874512,-0.043273926,0.4821167,0.6875,0.59375,-0.171875
149,149,1727110400713,0.8845215,-0.045715332,0.46673584,0.21875,0.8125,-0.25
150,150,1727110400753,0.8796387,-0.045959473,0.47650146,0.53125,-0.328125,-0.09375
151,151,1727110400793,0.8815918,-0.04888916,0.46795654,0.8125,1.09375,-0.25
152,152,1727110400833,0.8833008,-0.05621338,0.47528076,0.8125,0.25,-0.28125
153,153,1727110400873,0.8847656,-0.05279541,0.4743042,0.71875,0.265625,-0.046875
154,154,1727110400913,0.8874512,-0.046936035,0.4725952,0.46875,0.5,-0.109375
155,155,1727110400953,0.88500977,-0.046203613,0.47479248,0.15625,0.390625,-0.28125
156,156,1727110400993,0.8852539,-0.04840088,0.47503662,0.578125,0.53125,-0.234375
157,157,1727110401033,0.8811035,-0.045959473,0.47625732,0.671875,0.265625,-0.171875
158,158,1727110401073,0.88793945,-0.047912598,0.46038818,0.125,0.5625,-0.109375
159,159,1727110401113,0.89086914,-0.04888916,0.46820068,0.109375,0.515625,-0.203125
160,160,1727110401153,0.8840332,-0.054504395,0.47210693,0.921875,-0.03125,-0.234375
161,161,1727110401193,0.8886719,-0.042053223,0.47161865,0.203125,0.09375,-0.4375
162,162,1727110401233,0.8803711,-0.043518066,0.4725952,0.59375,-0.09375,-0.34375
163,163,1727110401273,0.88720703,-0.05279541,0.4706421,0.53125,0.328125,-0.109375
164,164,1727110401313,0.8769531,-0.051086426,0.46990967,0.296875,0.234375,-0.15625
165,165,1727110401353,0.88842773,-0.04815674,0.47210693,0.15625,0.109375,-0.234375
166,166,1727110401393,0.8840332,-0.05303955,0.46429443,0.0625,0.1875,-0.203125
167,167,1727110401433,0.88378906,-0.04547119,0.47235107,0.140625,0.09375,-0.203125
168,168,1727110401473,0.88500977,-0.047912598,0.45941162,-0.609375,0.796875,-0.390625
169,169,1727110401513,0.88305664,-0.043029785,0.4772339,0.109375,-0.453125,-0.328125
170,170,1727110401553,0.8840332,-0.04425049,0.47283936,-0.125,0.828125,-0.140625
171,171,1727110401593,0.8857422,-0.043762207,0.47283936,-0.09375,0.0,-0.15625
172,172,1727110401633,0.8874512,-0.046936035,0.46820068,-0.890625,0.28125,-0.15625
173,173,1727110401673,0.8811035,-0.04473877,0.4730835,-1.546875,0.171875,-0.265625
174,174,1727110401713,0.8833008,-0.04547119,0.47528076,-1.828125,0.0625,-0.140625
175,175,1727110401753,0.8869629,-0.047668457,0.47601318,-1.828125,0.015625,-0.171875
176,176,1727110401793,0.88134766,-0.03277588,0.48162842,-1.78125,-0.078125,-0.046875
177,177,1727110401833,0.876709,-0.039367676,0.4557495,-2.375,0.453125,-0.203125
178,178,1727110401873,0.89160156,-0.038635254,0.4725952,-2.109375,0.21875,-0.25
179,179,1727110401913,0.8835449,-0.04107666,0.47625732,-1.8125,-0.125,-0.203125
180,180,1727110401953,0.8894043,-0.035949707,0.47039795,-2.75,0.015625,-0.265625
181,181,1727110401993,0.8869629,-0.022766113,0.47357178,-2.21875,-0.171875,-0.3125
182,182,1727110402033,0.8881836,-0.029846191,0.47528076,-2.421875,0.03125,-0.3125
183,183,1727110402073,0.8808594,-0.03643799,0.47601318,-2.21875,0.09375,-0.171875
184,184,1727110402113,0.88623047,-0.03253174,0.479187,-2.1875,-0.09375,-0.234375
185,185,1727110402153,0.8823242,-0.032287598,0.46844482,-2.234375,0.265625,-0.34375
186,186,1727110402193,0.8835449,-0.023010254,0.479187,-1.75,-0.375,-0.328125
187,187,1727110402233,0.888916,-0.02545166,0.47210693,-2.8125,1.015625,-0.46875
188,188,1727110402273,0.88842773,-0.020812988,0.47894287,-1.546875,-0.875,-0.390625
189,189,1727110402313,0.8786621,-0.027648926,0.4784546,-1.515625,0.65625,-0.4375
190,190,1727110402353,0.88183594,-0.030334473,0.4713745,-2.640625,0.234375,-0.25
191,191,1727110402393,0.88500977,-0.020324707,0.47210693,-1.90625,0.5,-0.359375
192,192,1727110402433,0.8876953,-0.020812988,0.46917725,-1.484375,0.34375,-0.46875
193,193,1727110402473,0.8840332,-0.014709473,0.47503662,-1.453125,0.28125,-0.421875
194,194,1727110402513,0.8803711,-0.018127441,0.4730835,-1.234375,0.125,-0.53125
195,195,1727110402553,0.88012695,-0.020812988,0.47943115,-1.203125,-0.65625,-0.359375
196,196,1727110402593,0.88061523,-0.0178833,0.4694214,-0.78125,-0.09375,-0.5
197,197,1727110402633,0.8786621,-0.020568848,0.479187,0.3125,-0.34375,-0.234375
198,198,1727110402673,0.88305664,-0.019104004,0.46673584,0.59375,-0.046875,-0.65625
199,199,1727110402713,0.8845215,-0.015197754,0.4779663,0.71875,-0.53125,-0.46875
200,200,1727110402753,0.8786621,-0.020080566,0.47332764,1.78125,-0.375,-0.34375
201,201,1727110402793,0.88183594,-0.023742676,0.4767456,1.765625,0.0625,-0.4375
202,202,1727110402833,0.88183594,-0.02178955,0.47576904,1.90625,-0.03125,-0.265625
203,203,1727110402873,0.8840332,-0.022277832,0.47381592,1.6875,0.140625,-0.03125
204,204,1727110402913,0.8869629,-0.02178955,0.4923706,2.5,-0.734375,-0.390625
205,205,1727110402953,0.8820801,-0.026184082,0.46746826,1.1875,1.40625,-0.625
206,206,1727110402993,0.8796387,-0.02545166,0.46990967,2.3125,-0.34375,-0.203125
207,207,1727110403033,0.88305664,-0.02520752,0.48480225,1.625,0.6875,-0.125
208,208,1727110403073,0.88793945,-0.033996582,0.4784546,1.71875,0.40625,-0.03125
209,209,1727110403113,0.8835449,-0.024230957,0.4706421,2.09375,0.5625,-0.140625
210,210,1727110403153,0.87890625,-0.027648926,0.47821045,2.265625,0.359375,-0.125
211,211,1727110403193,0.88549805,-0.024963379,0.47625732,2.265625,0.359375,-0.265625
212,212,1727110403233,0.88305664,-0.03253174,0.47747803,1.96875,0.4375,-0.09375
213,213,1727110403273,0.88183594,-0.03668213,0.4694214,2.25,0.0625,0.0
214,214,1727110403313,0.8828125,-0.039611816,0.47698975,2.0,0.5,-0.046875
215,215,1727110403353,0.8833008,-0.035461426,0.47943115,2.71875,0.078125,0.265625
216,216,1727110403393,0.8786621,-0.03302002,0.465271,2.71875,0.5625,-0.03125
217,217,1727110403433,0.8786621,-0.03692627,0.47381592,2.46875,-0.1875,-0.265625
218,218,1727110403473,0.8757324,-0.043273926,0.47821045,2.53125,0.265625,-0.046875
219,219,1727110403513,0.8835449,-0.04449463,0.47039795,1.796875,0.34375,0.109375
220,220,1727110403553,0.88671875,-0.04547119,0.47113037,1.1875,0.453125,-0.078125
221,221,1727110403593,0.8864746,-0.044006348,0.47235107,0.75,0.375,0.0
222,222,1727110403633,0.88134766,-0.03643799,0.47821045,1.359375,0.375,-0.125
223,223,1727110403673,0.88793945,-0.040100098,0.45794678,1.078125,0.890625,-0.25
224,224,1727110403713,0.8874512,-0.042297363,0.47406006,1.46875,-0.21875,-0.09375
225,225,1727110403753,0.8840332,-0.040100098,0.46746826,1.265625,1.046875,0.03125
226,226,1727110403793,0.8796387,-0.042297363,0.4767456,1.328125,0.578125,-0.078125
227,227,1727110403833,0.8881836,-0.035705566,0.46917725,1.453125,0.421875,0.046875
228,228,1727110403873,0.89086914,-0.04815674,0.4689331,0.59375,0.21875,-0.0625
229,229,1727110403913,0.88134766,-0.04473877,0.46966553,0.9375,0.296875,-0.171875
230,230,1727110403953,0.88793945,-0.04449463,0.46917725,0.953125,0.359375,-0.171875
231,231,1727110403993,0.8852539,-0.038635254,0.47747803,1.3125,0.078125,-0.140625
232,232,1727110404033,0.888916,-0.04522705,0.46673584,0.4375,0.453125,-0.09375
233,233,1727110404073,0.88061523,-0.039367676,0.46697998,0.359375,0.578125,-0.015625
234,234,1727110404113,0.8828125,-0.04449463,0.46917725,1.0625,0.0625,-0.09375
235,235,1727110404153,0.88964844,-0.039367676,0.4743042,0.640625,0.046875,-0.140625
236,236,1727110404193,0.8857422,-0.04107666,0.4647827,0.625,-0.046875,-0.328125
237,237,1727110404233,0.8876953,-0.04034424,0.4677124,0.3125,0.21875,-0.046875
238,238,1727110404273,0.8864746,-0.043273926,0.47210693,0.28125,0.21875,-0.21875
239,239,1727110404313,0.8869629,-0.039367676,0.46868896,0.328125,0.125,-0.28125
240,240,1727110404353,0.8774414,-0.050109863,0.46844482,0.5625,0.28125,-0.1875
241,241,1727110404393,0.8869629,-0.04107666,0.48065186,0.828125,-0.4375,-0.3125
242,242,1727110404433,0.8857422,-0.042785645,0.4689331,-0.140625,0.96875,-0.3125
243,243,1727110404473,0.87768555,-0.04547119,0.4562378,0.171875,0.03125,-0.21875
244,244,1727110404513,0.8808594,-0.045959473,0.46673584,0.21875,0.375,-0.234375
245,245,1727110404553,0.8886719,-0.046691895,0.46746826,0.671875,0.28125,-0.125
246,246,1727110404593,0.88964844,-0.047912598,0.47332764,-0.140625,0.4375,-0.21875
247,247,1727110404633,0.88623047,-0.04449463,0.46429443,-0.171875,0.21875,-0.28125
248,248,1727110404673,0.8828125,-0.042053223,0.46746826,0.0,0.28125,-0.421875
249,249,1727110404713,0.88549805,-0.042297363,0.4628296,0.046875,0.328125,-0.203125
250,250,1727110404753,0.8835449,-0.045715332,0.47406006,0.328125,-0.046875,-0.0625
251,251,1727110404793,0.8852539,-0.04864502,0.47357178,0.234375,-0.015625,-0.203125
252,252,1727110404833,0.8823242,-0.043518066,0.47113037,0.09375,0.15625,-0.046875
253,253,1727110404873,0.89160156,-0.050109863,0.46673584,-0.140625,-0.140625,-0.125
254,254,1727110404913,0.8881836,-0.04107666,0.4706421,-0.015625,-0.046875,-0.328125
255,255,1727110404953,0.8886719,-0.042297363,0.46331787,0.03125,0.53125,-0.296875
256,256,1727110404993,0.8857422,-0.046691895,0.46844482,-0.734375,-0.171875,-0.3125
257,257,1727110405033,0.8874512,-0.047424316,0.465271,-1.109375,0.125,-0.09375
258,258,1727110405073,0.8918457,-0.037902832,0.46624756,-2.203125,-0.328125,-0.125
259,259,1727110405113,0.88842773,-0.047424316,0.47039795,-2.34375,-0.1875,-0.28125
260,260,1727110405153,0.8828125,-0.04840088,0.45306396,-4.0625,-0.28125,-0.125
261,261,1727110405193,0.88623047,-0.027648926,0.479187,-2.4375,-0.125,-0.34375
262,262,1727110405233,0.8857422,-0.030090332,0.45257568,-3.171875,0.765625,-0.171875
263,263,1727110405273,0.88500977,-0.03668213,0.47381592,-3.703125,0.21875,-0.1875
264,264,1727110405313,0.8886719,-0.034729004,0.4647827,-3.0,0.015625,-0.1875
265,265,1727110405353,0.88134766,-0.028869629,0.4616089,-2.84375,0.171875,-0.25
266,266,1727110405393,0.88842773,-0.026916504,0.4701538,-2.375,0.234375,-0.25
267,267,1727110405433,0.8864746,-0.024719238,0.46673584,-2.3125,0.140625,-0.25
268,268,1727110405473,0.88500977,-0.024230957,0.4725952,-1.859375,-0.140625,-0.28125
269,269,1727110405513,0.8828125,-0.027648926,0.46063232,-2.234375,-0.140625,-0.28125
270,270,1727110405553,0.88061523,-0.026672363,0.46722412,-1.296875,0.140625,-0.328125
271,271,1727110405593,0.8811035,-0.02520752,0.4713745,-0.578125,0.03125,-0.5
272,272,1727110405633,0.8886719,-0.019104004,0.46722412,-0.796875,0.359375,-0.6875
273,273,1727110405673,0.8859863,-0.022277832,0.46868896,-0.5625,-0.203125,-0.609375
274,274,1727110405713,0.88549805,-0.020568848,0.46722412,-0.53125,0.0,-0.578125
275,275,1727110405753,0.88183594,-0.022033691,0.4713745,-0.703125,0.171875,-0.359375
276,276,1727110405793,0.87890625,-0.02935791,0.47772217,-1.25,0.171875,-0.1875
277,277,1727110405833,0.8847656,-0.02178955,0.47088623,-2.015625,-0.203125,-0.171875
278,278,1727110405873,0.87646484,-0.02520752,0.45281982,-2.6875,-0.0625,-0.5625
279,279,1727110405913,0.87841797,-0.013977051,0.49261475,0.28125,-0.875,-0.328125
280,280,1727110405953,0.8791504,-0.012756348,0.47088623,-0.546875,0.796875,-0.40625
281,281,1727110405993,0.8840332,-0.018371582,0.4796753,-0.765625,-0.125,-0.25
282,282,1727110406033,0.88256836,-0.022766113,0.46502686,0.75,-0.15625,-0.25
283,283,1727110406073,0.88061523,-0.016174316,0.47235107,1.046875,0.125,-0.296875
284,284,1727110406113,0.8857422,-0.0134887695,0.46673584,0.609375,0.0,-0.296875
285,285,1727110406153,0.87646484,-0.020080566,0.4713745,1.0625,0.171875,-0.359375
286,286,1727110406193,0.8823242,-0.01763916,0.48944092,2.765625,-0.21875,-0.390625
287,287,1727110406233,0.88012695,-0.0115356445,0.47528076,2.109375,-0.1875,-0.15625
288,288,1727110406273,0.87939453,-0.023010254,0.48065186,2.078125,0.03125,0.15625
289,289,1727110406313,0.8815918,-0.031799316,0.47601318,2.609375,0.140625,-0.171875
290,290,1727110406353,0.8828125,-0.02130127,0.4804077,2.296875,0.09375,-0.421875
291,291,1727110406393,0.8840332,-0.028625488,0.47454834,2.734375,0.4375,-0.34375
292,292,1727110406433,0.8823242,-0.03326416,0.47235107,2.03125,0.4375,-0.234375
293,293,1727110406473,0.8835449,-0.030090332,0.4706421,2.265625,0.265625,-0.078125
294,294,1727110406513,0.8835449,-0.03302002,0.4713745,2.03125,0.296875,-0.09375
295,295,1727110406553,0.88134766,-0.034973145,0.47821045,2.171875,-0.5625,-0.09375
296,296,1727110406593,0.8935547,-0.02520752,0.4779663,1.828125,0.984375,-0.296875
297,297,1727110406633,0.8754883,-0.04107666,0.45550537,1.765625,0.296875,-0.046875
298,298,1727110406673,0.88256836,-0.032287598,0.4833374,1.234375,0.765625,-0.078125
299,299,1727110406713,0.88793945,-0.04034424,0.4701538,1.78125,0.359375,-0.21875
300,300,1727110406753,0.88500977,-0.028381348,0.4694214,1.515625,0.34375,0.1875
301,301,1727110406793,0.88378906,-0.034484863,0.47113037,1.953125,0.421875,-0.265625
302,302,1727110406833,0.8874512,-0.035461426,0.4664917,2.09375,0.171875,-0.1875
303,303,1727110406873,0.8840332,-0.034729004,0.4694214,1.890625,0.421875,-0.125
304,304,1727110406913,0.88500977,-0.039367676,0.47113037,1.59375,-0.171875,-0.140625
305,305,1727110406953,0.8811035,-0.038635254,0.47235107,1.921875,0.390625,-0.296875
306,306,1727110406993,0.8859863,-0.042785645,0.47235107,1.609375,0.109375,0.109375
307,307,1727110407033,0.88623047,-0.040100098,0.46624756,1.765625,0.515625,-0.125
308,308,1727110407073,0.8869629,-0.043029785,0.4689331,1.640625,-0.09375,-0.203125
309,309,1727110407113,0.8876953,-0.044006348,0.4623413,1.609375,0.34375,-0.25
310,310,1727110407153,0.8864746,-0.04864502,0.4689331,1.4375,0.171875,-0.015625
311,311,1727110407193,0.8874512,-0.035705566,0.46722412,0.984375,0.3125,0.09375
312,312,1727110407233,0.88134766,-0.035705566,0.46868896,0.984375,0.5625,-0.1875
313,313,1727110407273,0.88842773,-0.032043457,0.46820068,1.265625,-0.125,-0.140625
314,314,1727110407313,0.89208984,-0.042785645,0.465271,0.15625,1.046875,-0.4375
315,315,1727110407353,0.8835449,-0.042785645,0.465271,0.703125,-0.203125,-0.09375
316,316,1727110407393,0.88305664,-0.049865723,0.46697998,0.484375,0.8125,-0.328125
317,317,1727110407433,0.8828125,-0.0491333,0.4730835,0.78125,0.34375,-0.265625
318,318,1727110407473,0.8840332,-0.043762207,0.46600342,0.640625,0.46875,-0.140625
319,319,1727110407513,0.8833008,-0.04522705,0.465271,0.21875,0.234375,-0.1875
320,320,1727110407553,0.88964844,-0.042053223,0.46795654,0.40625,0.28125,-0.3125
321,321,1727110407593,0.8847656,-0.047912598,0.4611206,0.296875,0.015625,-0.234375
322,322,1727110407633,0.8881836,-0.046203613,0.4628296,0.453125,-0.09375,-0.234375
323,323,1727110407673,0.875,-0.046447754,0.46722412,0.46875,0.1875,-0.1875
324,324,1727110407713,0.88549805,-0.04058838,0.47528076,0.359375,0.234375,-0.03125
325,325,1727110407753,0.88720703,-0.049621582,0.4677124,0.515625,0.03125,-0.28125
326,326,1727110407793,0.88964844,-0.04058838,0.45892334,0.421875,-0.015625,-0.3125
327,327,1727110407833,0.890625,-0.038879395,0.46917725,0.546875,-0.078125,-0.3125
328,328,1727110407873,0.8859863,-0.043273926,0.46209717,0.4375,0.171875,-0.078125
329,329,1727110407913,0.8835449,-0.043762207,0.46453857,0.265625,0.15625,-0.21875
330,330,1727110407953,0.8876953,-0.039611816,0.46331787,0.4375,0.171875,-0.265625
331,331,1727110407993,0.892334,-0.039855957,0.4743042,0.59375,-0.046875,-0.25
332,332,1727110408033,0.88793945,-0.040100098,0.46575928,-0.359375,0.578125,-0.34375
333,333,1727110408073,0.88061523,-0.043762207,0.46209717,0.234375,-0.484375,-0.171875
334,334,1727110408113,0.8847656,-0.042053223,0.4677124,0.171875,0.5625,-0.28125
335,335,1727110408153,0.8874512,-0.04864502,0.47113037,0.4375,0.171875,-0.25
336,336,1727110408193,0.8852539,-0.04522705,0.46600342,0.078125,0.34375,-0.21875
337,337,1727110408233,0.88720703,-0.043762207,0.45965576,0.0,0.234375,-0.21875
338,338,1727110408273,0.8852539,-0.043762207,0.46820068,0.15625,0.359375,-0.15625
339,339,1727110408313,0.8840332,-0.046691895,0.46795654,0.078125,-0.03125,-0.234375
340,340,1727110408353,0.88671875,-0.047668457,0.4640503,0.28125,-0.109375,-0.265625
341,341,1727110408393,0.87890625,-0.043762207,0.46258545,-0.25,0.171875,-0.140625
342,342,1727110408433,0.8918457,-0.045715332,0.47381592,-0.765625,-0.078125,0.015625
343,343,1727110408473,0.8876953,-0.055725098,0.4623413,-1.125,-0.15625,-0.296875
344,344,1727110408513,0.88793945,-0.039123535,0.46331787,-1.390625,-0.3125,-0.296875
345,345,1727110408553,0.8894043,-0.039611816,0.46453857,-1.75,-0.078125,-0.0625
346,346,1727110408593,0.8864746,-0.043029785,0.46820068,-2.078125,-0.09375,-0.03125
347,347,1727110408633,0.8935547,-0.039123535,0.46673584,-2.09375,0.078125,-0.1875
348,348,1727110408673,0.8828125,-0.039367676,0.46697998,-2.046875,-0.078125,-0.140625
349,349,1727110408713,0.8786621,-0.043273926,0.46551514,-2.890625,-0.78125,-0.25
350,350,1727110408753,0.89160156,-0.028137207,0.4767456,-1.515625,0.0,-0.390625
351,351,1727110408793,0.8845215,-0.03692627,0.44989014,-2.421875,0.546875,-0.171875
352,352,1727110408833,0.8869629,-0.026428223,0.47210693,-3.15625,0.421875,-0.078125
353,353,1727110408873,0.8911133,-0.028625488,0.46600342,-2.859375,0.21875,-0.21875
354,354,1727110408913,0.8859863,-0.026428223,0.4694214,-1.984375,0.09375,-0.359375
355,355,1727110408953,0.892334,-0.020812988,0.4640503,-1.84375,0.21875,-0.375
356,356,1727110408993,0.88671875,-0.022277832,0.46917725,-1.46875,0.203125,-0.359375
357,357,1727110409033,0.88549805,-0.018371582,0.4796753,-1.859375,-0.171875,-0.421875
358,358,1727110409073,0.8864746,-0.018859863,0.45526123,-2.65625,0.171875,-0.203125
359,359,1727110409113,0.8881836,-0.023986816,0.46868896,-1.390625,0.0,-0.09375
360,360,1727110409153,0.88427734,-0.02960205,0.47161865,-0.890625,-0.03125,-0.328125
361,361,1727110409193,0.8852539,-0.01763916,0.46600342,-1.046875,-0.09375,-0.4375
362,362,1727110409233,0.8828125,-0.014221191,0.4755249,-0.390625,-0.203125,-0.453125
363,363,1727110409273,0.8911133,-0.0178833,0.47088623,-0.078125,-0.203125,-0.5625
364,364,1727110409313,0.88916016,-0.023498535,0.465271,-0.578125,0.078125,-0.375
365,365,1727110409353,0.88720703,-0.016174316,0.4713745,-0.03125,-0.375,-0.28125
366,366,1727110409393,0.88134766,-0.007385254,0.4611206,-0.125,0.203125,-0.421875
367,367,1727110409433,0.8791504,-0.020324707,0.47894287,1.203125,-1.484375,-0.21875
368,368,1727110409473,0.8791504,-0.019592285,0.47113037,0.859375,1.078125,-0.390625
369,369,1727110409513,0.8859863,-0.020324707,0.47650146,-0.390625,0.09375,-0.25
370,370,1727110409553,0.8857422,-0.017150879,0.46722412,0.59375,0.21875,-0.25
371,371,1727110409593,0.88012695,-0.011779785,0.46746826,1.1875,0.328125,-0.5625
372,372,1727110409633,0.8828125,-0.0154418945,0.4804077,1.6875,0.296875,-0.296875
373,373,1727110409673,0.8798828,-0.020324707,0.4718628,1.90625,0.375,-0.203125
374,374,1727110409713,0.8815918,-0.027893066,0.47283936,2.03125,-0.484375,-0.09375
375,375,1727110409753,0.88305664,-0.028137207,0.47357178,1.921875,0.265625,-0.421875
376,376,1727110409793,0.87841797,-0.028137207,0.47479248,2.03125,0.21875,0.109375
377,377,1727110409833,0.88427734,-0.027160645,0.46307373,2.0,0.484375,-0.203125
378,378,1727110409873,0.8847656,-0.019348145,0.47406006,2.25,0.15625,-0.4375
379,379,1727110409913,0.88183594,-0.023742676,0.47235107,2.5,0.265625,-0.3125
380,380,1727110409953,0.8845215,-0.03253174,0.46917725,1.71875,0.25,-0.0625
381,381,1727110409993,0.88134766,-0.034729004,0.46697998,1.75,0.609375,0.0
382,382,1727110410033,0.8857422,-0.02520752,0.48529053,2.375,-0.109375,-0.046875
383,383,1727110410073,0.8835449,-0.038391113,0.4706421,1.59375,0.9375,-0.34375
384,384,1727110410113,0.8869629,-0.03643799,0.45892334,1.828125,-0.09375,-0.265625
385,385,1727110410153,0.8811035,-0.035461426,0.47283936,1.640625,0.921875,-0.078125
386,386,1727110410193,0.8845215,-0.03643799,0.46331787,2.09375,0.34375,-0.1875
387,387,1727110410233,0.88842773,-0.0335083,0.46795654,1.984375,0.125,-0.15625
388,388,1727110410273,0.89331055,-0.038879395,0.46746826,1.59375,0.171875,-0.25
389,389,1727110410313,0.8876953,-0.042785645,0.47161865,2.046875,0.21875,-0.296875
390,390,1727110410353,0.8864746,-0.043762207,0.46966553,1.46875,0.5,-0.1875
391,391,1727110410393,0.88256836,-0.042785645,0.46917725,1.5,0.1875,-0.140625
392,392,1727110410433,0.8774414,-0.03765869,0.47235107,1.515625,0.125,-0.015625
393,393,1727110410473,0.8898926,-0.04034424,0.47039795,1.296875,0.34375,0.0
394,394,1727110410513,0.8845215,-0.042541504,0.463562,1.359375,0.453125,-0.125
395,395,1727110410553,0.88916016,-0.044006348,0.46551514,1.015625,-0.0625,-0.265625
396,396,1727110410593,0.8803711,-0.04473877,0.46673584,1.328125,0.421875,-0.421875
397,397,1727110410633,0.88964844,-0.03717041,0.46624756,0.953125,0.203125,-0.203125
398,398,1727110410673,0.8847656,-0.038391113,0.46697998,0.609375,0.125,-0.078125
399,399,1727110410713,0.88916016,-0.042785645,0.46502686,0.453125,0.09375,-0.125
400,400,1727110410753,0.88378906,-0.043273926,0.4586792,-0.21875,0.734375,-0.09375
401,401,1727110410793,0.88183594,-0.04425049,0.47698975,0.46875,-0.421875,-0.265625
402,402,1727110410833,0.8852539,-0.03668213,0.46038818,0.109375,1.265625,-0.078125
403,403,1727110410873,0.8898926,-0.04058838,0.47381592,0.546875,0.40625,-0.109375
404,404,1727110410913,0.88500977,-0.04498291,0.46429443,0.671875,0.515625,-0.25
405,405,1727110410953,0.8845215,-0.03643799,0.4616089,-0.296875,0.40625,-0.203125
406,406,1727110410993,0.8845215,-0.04425049,0.46209717,0.234375,0.375,-0.296875
407,407,1727110411033,0.88793945,-0.035949707,0.463562,0.265625,0.265625,-0.265625
408,408,1727110411073,0.88427734,-0.04425049,0.46697998,0.71875,0.015625,-0.296875
409,409,1727110411113,0.88916016,-0.036193848,0.45941162,0.28125,0.328125,-0.03125
410,410,1727110411153,0.88427734,-0.047912598,0.46063232,0.0,0.4375,-0.203125
411,411,1727110411193,0.8823242,-0.04107666,0.463562,0.6875,-0.078125,-0.09375
412,412,1727110411233,0.8864746,-0.04107666,0.46380615,0.15625,0.0,-0.34375
413,413,1727110411273,0.8876953,-0.043273926,0.46038818,0.75,0.046875,-0.40625
414,414,1727110411313,0.88427734,-0.04425049,0.46600342,0.453125,0.09375,-0.15625
415,415,1727110411353,0.88549805,-0.045959473,0.46429443,0.234375,0.203125,-0.109375
416,416,1727110411393,0.88256836,-0.04083252,0.46502686,0.0,0.140625,-0.171875
417,417,1727110411433,0.88793945,-0.039855957,0.4718628,0.34375,0.015625,-0.296875
418,418,1727110411473,0.88720703,-0.035705566,0.4664917,-0.46875,0.59375,-0.171875
419,419,1727110411513,0.89501953,-0.039611816,0.465271,-0.484375,-0.46875,-0.28125
420,420,1727110411553,0.88549805,-0.047424316,0.4730835,-0.640625,0.640625,-0.328125
421,421,1727110411593,0.89038086,-0.038879395,0.47113037,-0.9375,0.0,-0.09375
422,422,1727110411633,0.8918457,-0.04473877,0.46917725,-2.171875,0.1875,-0.171875
423,423,1727110411673,0.88720703,-0.041809082,0.4623413,-2.78125,0.0625,-0.21875
424,424,1727110411713,0.8942871,-0.038146973,0.4611206,-2.65625,0.265625,-0.15625
425,425,1727110411753,0.8852539,-0.031311035,0.4730835,-2.625,-0.25,-0.296875
426,426,1727110411793,0.8840332,-0.040100098,0.46820068,-2.34375,-0.453125,-0.140625
427,427,1727110411833,0.8815918,-0.029846191,0.4701538,-1.859375,0.140625,-0.28125
428,428,1727110411873,0.88623047,-0.027648926,0.47576904,-1.984375,-0.03125,0.0
429,429,1727110411913,0.88500977,-0.028869629,0.45819092,-2.0,-0.296875,-0.203125
430,430,1727110411953,0.8852539,-0.02130127,0.463562,-1.5,-0.40625,-0.375
431,431,1727110411993,0.8835449,-0.026184082,0.46331787,-1.296875,-0.1875,-0.234375
432,432,1727110412033,0.8820801,-0.020812988,0.46844482,-1.46875,-0.0625,-0.328125
433,433,1727110412073,0.8864746,-0.023742676,0.46502686,-1.890625,0.0,-0.1875
434,434,1727110412113,0.88549805,-0.024475098,0.465271,-2.15625,-0.28125,-0.21875
435,435,1727110412153,0.892334,-0.019592285,0.46063232,-2.59375,0.4375,-0.390625
436,436,1727110412193,0.8859863,-0.017150879,0.479187,-0.96875,-1.203125,-0.328125
437,437,1727110412233,0.88916016,-0.01763916,0.463562,-0.875,1.21875,-0.5
438,438,1727110412273,0.8881836,-0.021057129,0.47503662,-2.28125,0.125,-0.140625
439,439,1727110412313,0.8835449,-0.014709473,0.46746826,-1.59375,0.1875,-0.453125
440,440,1727110412353,0.89086914,-0.017150879,0.46917725,-0.796875,0.09375,-0.46875
441,441,1727110412393,0.8852539,-0.010070801,0.4713745,-0.625,-0.015625,-0.328125
442,442,1727110412433,0.8869629,-0.011779785,0.46722412,-0.734375,0.03125,-0.265625
443,443,1727110412473,0.8898926,-0.014709473,0.4706421,-1.0,-0.734375,-0.390625
444,444,1727110412513,0.88671875,-0.014953613,0.47235107,-0.21875,-0.109375,-0.5
445,445,1727110412553,0.88061523,-0.013244629,0.4725952,0.75,-0.140625,-0.28125
446,446,1727110412593,0.890625,-0.024963379,0.465271,1.609375,0.125,-0.359375
447,447,1727110412633,0.88305664,-0.019592285,0.47161865,2.203125,-0.203125,-0.40625
448,448,1727110412673,0.8869629,-0.023010254,0.46551514,2.8125,0.046875,-0.4375
449,449,1727110412713,0.8815918,-0.0178833,0.47161865,1.65625,0.1875,-0.296875
450,450,1727110412753,0.8815918,-0.02178955,0.4694214,1.828125,0.109375,-0.09375
451,451,1727110412793,0.8876953,-0.015930176,0.48846436,1.984375,-0.390625,-0.265625
452,452,1727110412833,0.8859863,-0.027404785,0.47113037,1.234375,1.0,-0.421875
453,453,1727110412873,0.8811035,-0.019836426,0.46429443,2.328125,-0.265625,-0.171875
454,454,1727110412913,0.8840332,-0.028869629,0.47528076,1.84375,0.828125,-0.265625
455,455,1727110412953,0.8845215,-0.029846191,0.47283936,1.46875,0.203125,-0.15625
456,456,1727110412993,0.8876953,-0.027893066,0.4647827,1.609375,0.296875,-0.140625
457,457,1727110413033,0.88793945,-0.026672363,0.4706421,1.9375,0.375,-0.265625
458,458,1727110413073,0.88256836,-0.03302002,0.46966553,2.15625,0.375,-0.25
459,459,1727110413113,0.8781738,-0.027404785,0.46551514,2.171875,0.515625,-0.125
460,460,1727110413153,0.88720703,-0.035949707,0.45892334,2.046875,-0.28125,0.0
461,461,1727110413193,0.88427734,-0.03643799,0.47039795,2.078125,0.34375,0.0
462,462,1727110413233,0.88427734,-0.0413208,0.4706421,2.453125,0.03125,-0.03125
463,463,1727110413273,0.8874512,-0.028137207,0.46697998,2.53125,0.65625,-0.234375
464,464,1727110413313,0.88671875,-0.031799316,0.46795654,2.5625,0.015625,-0.28125
465,465,1727110413353,0.8886719,-0.034973145,0.46331787,2.28125,0.453125,-0.3125
466,466,1727110413393,0.88671875,-0.038635254,0.4701538,2.0625,0.46875,0.0625
467,467,1727110413433,0.88671875,-0.046936035,0.47161865,1.53125,0.15625,0.015625
468,468,1727110413473,0.88720703,-0.045715332,0.4616089,1.234375,0.25,-0.015625
469,469,1727110413513,0.8828125,-0.050598145,0.4545288,0.578125,0.03125,-0.15625
470,470,1727110413553,0.88623047,-0.04107666,0.4784546,1.875,-0.125,-0.125
471,471,1727110413593,0.8874512,-0.035705566,0.4545288,0.359375,0.921875,-0.09375
472,472,1727110413633,0.8823242,-0.037902832,0.46820068,0.484375,0.703125,0.015625
473,473,1727110413673,0.8840332,-0.039611816,0.46429443,1.09375,0.453125,0.015625
474,474,1727110413713,0.8925781,-0.042541504,0.46624756,0.359375,0.125,-0.1875
475,475,1727110413753,0.89501953,-0.034973145,0.46380615,0.25,0.375,-0.234375
476,476,1727110413793,0.88012695,-0.038391113,0.46551514,0.625,0.234375,-0.296875
477,477,1727110413833,0.8808594,-0.04034424,0.47113037,0.6875,0.234375,-0.1875
478,478,1727110413873,0.8901367,-0.038879395,0.4533081,-0.0625,0.5,-0.046875
479,479,1727110413913,0.8925781,-0.038391113,0.4586792,0.21875,0.40625,-0.109375
480,480,1727110413953,0.88964844,-0.043762207,0.4713745,0.640625,0.015625,-0.078125
481,481,1727110413993,0.89086914,-0.039855957,0.46429443,0.265625,0.1875,-0.359375
482,482,1727110414033,0.8937988,-0.039123535,0.46502686,0.59375,-0.21875,-0.296875
483,483,1727110414073,0.8952637,-0.039855957,0.4623413,0.484375,0.21875,-0.078125
484,484,1727110414113,0.88842773,-0.039123535,0.45819092,0.4375,0.109375,-0.109375
485,485,1727110414153,0.8881836,-0.03765869,0.46087646,0.390625,-0.03125,-0.171875
486,486,1727110414193,0.88964844,-0.042053223,0.47039795,0.484375,0.28125,-0.1875
487,487,1727110414233,0.8898926,-0.032287598,0.48065186,0.828125,-0.453125,-0.328125
488,488,1727110414273,0.8901367,-0.039367676,0.46453857,-0.125,0.984375,-0.265625
489,489,1727110414313,0.88549805,-0.04547119,0.4537964,0.125,-0.140625,0.046875
490,490,1727110414353,0.87890625,-0.04156494,0.46453857,0.0625,0.546875,-0.171875
491,491,1727110414393,0.8859863,-0.04815674,0.45770264,0.375,0.21875,-0.140625
492,492,1727110414433,0.88842773,-0.050842285,0.46624756,0.15625,0.484375,-0.234375
493,493,1727110414473,0.892334,-0.039855957,0.46453857,-0.125,0.296875,-0.3125
494,494,1727110414513,0.8876953,-0.047180176,0.4689331,0.15625,0.359375,-0.21875
495,495,1727110414553,0.87890625,-0.040100098,0.4598999,0.078125,0.109375,-0.15625
496,496,1727110414593,0.89404297,-0.04840088,0.4616089,0.140625,-0.25,-0.171875
497,497,1727110414633,0.8901367,-0.042053223,0.465271,0.21875,0.203125,-0.28125
498,498,1727110414673,0.88720703,-0.041809082,0.4718628,0.3125,-0.125,-0.125
499,499,1727110414713,0.88500977,-0.038146973,0.46209717,0.21875,-0.078125,-0.21875
500,500,1727110414753,0.8847656,-0.038879395,0.47039795,0.421875,-0.125,-0.359375
501,501,1727110414793,0.88623047,-0.04034424,0.46038818,0.703125,0.140625,-0.1875
502,502,1727110414833,0.8857422,-0.038146973,0.46331787,0.15625,0.078125,-0.125
503,503,1727110414873,0.892334,-0.039123535,0.46697998,0.40625,0.046875,-0.21875
504,504,1727110414913,0.8847656,-0.03741455,0.4598999,0.046875,0.140625,-0.234375
505,505,1727110414953,0.88671875,-0.04498291,0.465271,0.375,0.0625,-0.375
506,506,1727110414993,0.888916,-0.050109863,0.4442749,-0.96875,0.1875,-0.125
507,507,1727110415033,0.8815918,-0.049865723,0.47821045,0.640625,-0.453125,-0.1875
508,508,1727110415073,0.8881836,-0.03253174,0.45672607,-0.375,0.859375,-0.34375
509,509,1727110415113,0.88671875,-0.042297363,0.4628296,0.390625,0.125,-0.1875
510,510,1727110415153,0.88305664,-0.039611816,0.465271,0.375,0.328125,-0.171875
511,511,1727110415193,0.88623047,-0.038146973,0.463562,-0.3125,0.4375,-0.34375
512,512,1727110415233,0.8852539,-0.03643799,0.46038818,-0.015625,0.234375,-0.203125
513,513,1727110415273,0.8869629,-0.047912598,0.46551514,0.265625,0.234375,-0.25
514,514,1727110415313,0.8857422,-0.03253174,0.4725952,0.625,0.03125,-0.3125
515,515,1727110415353,0.89208984,-0.043029785,0.45599365,-0.28125,0.5,-0.109375
516,516,1727110415393,0.8857422,-0.03717041,0.46136475,-0.0625,0.234375,-0.265625
517,517,1727110415433,0.8874512,-0.046936035,0.46673584,0.1875,-0.109375,-0.1875
518,518,1727110415473,0.88793945,-0.03717041,0.46209717,-0.015625,0.0,-0.265625
519,519,1727110415513,0.8894043,-0.040100098,0.45843506,0.078125,-0.03125,-0.140625
520,520,1727110415553,0.8886719,-0.050354004,0.4628296,-0.671875,0.109375,0.03125
521,521,1727110415593,0.8864746,-0.040100098,0.45819092,-1.453125,0.0,-0.046875
522,522,1727110415633,0.8840332,-0.04473877,0.46331787,-1.5625,-0.15625,-0.125
523,523,1727110415673,0.88500977,-0.039855957,0.46429443,-1.5,0.0,-0.21875
524,524,1727110415713,0.8913574,-0.042541504,0.4784546,-1.6875,-0.921875,-0.25
525,525,1727110415753,0.8869629,-0.032287598,0.465271,-2.609375,0.765625,-0.390625
526,526,1727110415793,0.8828125,-0.04156494,0.45477295,-2.046875,-0.34375,0.0
527,527,1727110415833,0.8833008,-0.03668213,0.46917725,-2.46875,0.3125,-0.125
528,528,1727110415873,0.89038086,-0.034484863,0.46697998,-2.703125,0.15625,-0.21875
529,529,1727110415913,0.8859863,-0.023010254,0.4623413,-2.453125,0.3125,-0.21875
530,530,1727110415953,0.8823242,-0.027404785,0.46697998,-2.15625,0.421875,-0.40625
531,531,1727110415993,0.88061523,-0.027893066,0.46331787,-1.875,0.390625,-0.375
532,532,1727110416033,0.88793945,-0.022766113,0.46697998,-1.828125,0.15625,-0.28125
533,533,1727110416073,0.8869629,-0.027648926,0.4569702,-1.5,-0.546875,-0.140625
534,534,1727110416113,0.8798828,-0.0256958,0.4689331,-0.9375,0.125,-0.328125
535,535,1727110416153,0.8833008,-0.023498535,0.465271,-0.578125,-0.15625,-0.328125
536,536,1727110416193,0.892334,-0.025939941,0.463562,-0.671875,-0.046875,-0.515625
537,537,1727110416233,0.8918457,-0.01739502,0.46575928,-0.71875,-0.328125,-0.4375
538,538,1727110416273,0.8857422,-0.024475098,0.465271,-0.1875,0.015625,-0.46875
539,539,1727110416313,0.8823242,-0.0256958,0.46380615,-0.75,-0.140625,-0.21875
540,540,1727110416353,0.8857422,-0.023010254,0.4611206,-0.984375,-0.03125,-0.25
541,541,1727110416393,0.8876953,-0.02154541,0.47332764,-1.03125,-0.484375,-0.421875
542,542,1727110416433,0.8811035,-0.0335083,0.45819092,-2.171875,-0.890625,-0.421875
543,543,1727110416473,0.8894043,0.0018920898,0.48284912,0.03125,0.3125,-0.4375
544,544,1727110416513,0.8833008,-0.016418457,0.45159912,-1.484375,0.640625,-0.359375
545,545,1727110416553,0.88842773,-0.01763916,0.47821045,-1.5,0.046875,-0.234375
546,546,1727110416593,0.88012695,-0.014709473,0.46331787,-0.546875,-0.1875,-0.359375
547,547,1727110416633,0.8852539,-0.014709473,0.46697998,0.3125,-0.09375,-0.3125
548,548,1727110416673,0.88549805,-0.010803223,0.46673584,0.96875,-0.09375,-0.375
549,549,1727110416713,0.88378906,-0.022766113,0.463562,1.171875,-0.078125,-0.15625
550,550,1727110416753,0.8886719,-0.01739502,0.4862671,1.75,-0.34375,-0.234375
551,551,1727110416793,0.8828125,-0.016418457,0.46673584,1.1875,-0.375,0.03125
552,552,1727110416833,0.8820801,-0.014709473,0.47161865,1.25,-0.234375,0.0
553,553,1727110416873,0.8811035,-0.024963379,0.4755249,1.765625,-0.34375,-0.078125
554,554,1727110416913,0.8833008,-0.017150879,0.47747803,1.9375,0.390625,-0.296875
555,555,1727110416953,0.88427734,-0.016418457,0.47747803,2.109375,0.140625,-0.0625
556,556,1727110416993,0.8833008,-0.02178955,0.46966553,1.859375,0.1875,-0.140625
557,557,1727110417033,0.88964844,-0.024230957,0.47528076,1.625,0.25,-0.21875
558,558,1727110417073,0.8886719,-0.024475098,0.46868896,1.890625,0.125,-0.046875
559,559,1727110417113,0.89038086,-0.022766113,0.48187256,2.234375,-0.421875,-0.234375
560,560,1727110417153,0.892334,-0.02178955,0.4701538,1.265625,0.984375,-0.3125
561,561,1727110417193,0.8835449,-0.03302002,0.4640503,1.796875,-0.015625,0.0
562,562,1727110417233,0.8833008,-0.030334473,0.47454834,1.25,0.78125,-0.28125
563,563,1727110417273,0.89086914,-0.03302002,0.46624756,1.390625,0.375,-0.140625
564,564,1727110417313,0.8845215,-0.032043457,0.46673584,1.53125,0.609375,-0.046875
565,565,1727110417353,0.88842773,-0.02911377,0.46331787,2.15625,0.484375,-0.296875
566,566,1727110417393,0.88623047,-0.030822754,0.47210693,2.0625,0.390625,-0.078125
567,567,1727110417433,0.88671875,-0.02911377,0.46600342,1.515625,0.53125,-0.015625
568,568,1727110417473,0.89208984,-0.034973145,0.46453857,1.734375,-0.1875,-0.0625
569,569,1727110417513,0.88061523,-0.035217285,0.46722412,1.703125,0.421875,-0.09375
570,570,1727110417553,0.8823242,-0.03741455,0.47357178,1.9375,0.21875,-0.25
571,571,1727110417593,0.8864746,-0.030334473,0.46673584,1.9375,0.546875,-0.25
572,572,1727110417633,0.8859863,-0.032287598,0.46575928,1.859375,-0.15625,-0.15625
573,573,1727110417673,0.8874512,-0.035461426,0.4664917,1.71875,0.34375,-0.140625
574,574,1727110417713,0.89038086,-0.038146973,0.4647827,1.421875,0.265625,0.03125
575,575,1727110417753,0.89086914,-0.034973145,0.4616089,1.109375,0.390625,-0.09375
576,576,1727110417793,0.8840332,-0.038879395,0.46551514,1.25,0.265625,-0.078125
577,577,1727110417833,0.88671875,-0.036193848,0.4701538,1.390625,-0.546875,-0.078125
578,578,1727110417873,0.88916016,-0.034973145,0.46331787,0.28125,1.1875,-0.015625
579,579,1727110417913,0.88305664,-0.042541504,0.45916748,0.296875,0.03125,0.046875
580,580,1727110417953,0.88427734,-0.04058838,0.46551514,0.6875,0.5625,-0.0625
581,581,1727110417993,0.8847656,-0.04449463,0.46624756,1.046875,0.53125,-0.234375
582,582,1727110418033,0.8898926,-0.03765869,0.465271,0.625,0.40625,-0.140625
583,583,1727110418073,0.88549805,-0.039367676,0.46795654,0.25,0.421875,-0.25
584,584,1727110418113,0.88964844,-0.04107666,0.4623413,0.359375,0.484375,-0.15625
585,585,1727110418153,0.8881836,-0.043518066,0.45892334,0.25,0.15625,-0.296875
586,586,1727110418193,0.8937988,-0.04083252,0.46624756,0.3125,-0.0625,-0.296875
587,587,1727110418233,0.88378906,-0.039611816,0.46136475,0.40625,0.265625,-0.359375
588,588,1727110418273,0.8864746,-0.034729004,0.47039795,0.5,0.078125,-0.140625
589,589,1727110418313,0.8869629,-0.0413208,0.46136475,0.515625,0.015625,-0.28125
590,590,1727110418353,0.8874512,-0.04034424,0.4640503,0.5,-0.125,-0.34375
591,591,1727110418393,0.8857422,-0.04058838,0.45892334,0.59375,0.0625,-0.25
592,592,1727110418433,0.88671875,-0.04449463,0.45892334,0.421875,-0.03125,-0.078125
593,593,1727110418473,0.8913574,-0.043762207,0.46038818,0.125,0.15625,-0.28125
594,594,1727110418513,0.8886719,-0.044006348,0.46063232,0.34375,0.0625,-0.3125
595,595,1727110418553,0.88916016,-0.030090332,0.46990967,0.609375,-0.109375,-0.390625
596,596,1727110418593,0.8952637,-0.04107666,0.45794678,-0.171875,0.515625,-0.265625
597,597,1727110418633,0.8864746,-0.034973145,0.4628296,0.40625,-0.390625,-0.28125
598,598,1727110418673,0.8901367,-0.042785645,0.4640503,0.296875,0.75,-0.40625
599,599,1727110418713,0.8898926,-0.04547119,0.46624756,0.34375,0.125,-0.296875
600,600,1727110418753,0.8972168,-0.034484863,0.45941162,-0.25,0.375,-0.21875
601,601,1727110418793,0.88549805,-0.039123535,0.46331787,-0.828125,0.078125,-0.171875
602,602,1727110418833,0.89404297,-0.033996582,0.46502686,-0.625,-0.078125,-0.125
603,603,1727110418873,0.88623047,-0.04107666,0.46722412,-1.125,-0.25,-0.21875
604,604,1727110418913,0.89038086,-0.042541504,0.46258545,-1.34375,-0.5625,-0.03125
605,605,1727110418953,0.8874512,-0.03643799,0.4713745,-1.296875,0.015625,-0.125
606,606,1727110418993,0.88623047,-0.038391113,0.4677124,-2.078125,-0.1875,-0.171875
607,607,1727110419033,0.89208984,-0.03375244,0.46722412,-2.140625,-0.53125,-0.171875
608,608,1727110419073,0.8835449,-0.026184082,0.46600342,-2.265625,-0.484375,-0.28125
609,609,1727110419113,0.88378906,-0.031799316,0.46966553,-1.734375,-0.09375,-0.203125
610,610,1727110419153,0.88964844,-0.035461426,0.46673584,-2.15625,-0.03125,-0.09375
611,611,1727110419193,0.8828125,-0.02960205,0.46185303,-2.15625,-0.171875,-0.125
612,612,1727110419233,0.8840332,-0.028381348,0.46429443,-2.296875,-0.25,-0.1875
613,613,1727110419273,0.8881836,-0.03643799,0.46624756,-1.859375,-0.203125,-0.46875
614,614,1727110419313,0.8840332,-0.029846191,0.45672607,-2.6875,0.0,-0.453125
615,615,1727110419353,0.88061523,-0.016662598,0.47747803,-0.6875,0.171875,-0.390625
616,616,1727110419393,0.89331055,-0.014709473,0.46258545,-1.5625,1.453125,-0.296875
617,617,1727110419433,0.8901367,-0.02154541,0.47381592,-2.453125,0.375,-0.328125
618,618,1727110419473,0.8881836,-0.023254395,0.46624756,-1.515625,0.421875,-0.4375
619,619,1727110419513,0.8864746,-0.013244629,0.46258545,-1.28125,0.1875,-0.53125
620,620,1727110419553,0.88842773,-0.017150879,0.46722412,-1.609375,0.453125,-0.546875
621,621,1727110419593,0.88916016,-0.02178955,0.46624756,-1.015625,0.421875,-0.46875
622,622,1727110419633,0.89086914,-0.010314941,0.47894287,-0.5625,-0.234375,-0.4375
623,623,1727110419673,0.88916016,-0.019348145,0.45404053,-0.828125,-0.125,-0.453125
624,624,1727110419713,0.8898926,-0.022766113,0.46136475,-0.453125,-0.125,-0.328125
625,625,1727110419753,0.8874512,-0.020568848,0.46185303,0.1875,-0.328125,-0.359375
626,626,1727110419793,0.88964844,-0.017150879,0.463562,0.0,-0.265625,-0.703125
627,627,1727110419833,0.88134766,-0.013977051,0.4628296,0.3125,-0.234375,-0.4375
628,628,1727110419873,0.8859863,-0.013977051,0.47088623,0.203125,-0.34375,-0.5
629,629,1727110419913,0.88183594,-0.020080566,0.4677124,0.046875,-0.3125,-0.25
630,630,1727110419953,0.8898926,-0.014221191,0.4701538,0.015625,-0.171875,-0.25
631,631,1727110419993,0.8857422,-0.008117676,0.47332764,0.578125,-0.375,-0.375
632,632,1727110420033,0.8857422,-0.018371582,0.46746826,-0.109375,0.796875,-0.421875
633,633,1727110420073,0.88964844,-0.0115356445,0.48651123,0.71875,-1.140625,-0.1875
634,634,1727110420113,0.87939453,-0.020080566,0.46868896,0.734375,1.09375,-0.375
635,635,1727110420153,0.88134766,-0.022033691,0.4701538,0.21875,0.046875,-0.21875
636,636,1727110420193,0.88378906,-0.015197754,0.46917725,0.203125,0.125,-0.03125
637,637,1727110420233,0.88720703,-0.015930176,0.4725952,0.859375,0.453125,-0.328125
638,638,1727110420273,0.8815918,-0.022277832,0.47650146,0.875,0.125,-0.21875
639,639,1727110420313,0.88305664,-0.0134887695,0.47357178,0.96875,0.453125,-0.28125
640,640,1727110420353,0.88793945,-0.02911377,0.47357178,0.859375,-0.59375,-0.109375
641,641,1727110420393,0.8833008,-0.0256958,0.47039795,1.203125,0.078125,-0.125
642,642,1727110420433,0.88623047,-0.02130127,0.47210693,1.359375,0.140625,0.0
643,643,1727110420473,0.8820801,-0.026916504,0.4640503,1.75,0.609375,-0.1875
644,644,1727110420513,0.88964844,-0.020080566,0.465271,1.78125,-0.140625,-0.390625
645,645,1727110420553,0.8845215,-0.02130127,0.4725952,2.25,0.4375,-0.1875
646,646,1727110420593,0.8857422,-0.02545166,0.47283936,1.859375,0.265625,0.03125
647,647,1727110420633,0.8833008,-0.0256958,0.46844482,2.09375,0.375,-0.21875
648,648,1727110420673,0.8874512,-0.026672363,0.4713745,2.21875,0.3125,-0.15625
649,649,1727110420713,0.88916016,-0.022277832,0.48016357,2.953125,-0.125,-0.265625
650,650,1727110420753,0.8864746,-0.030090332,0.4713745,2.0,1.296875,-0.46875
651,651,1727110420793,0.8881836,-0.035461426,0.46673584,2.546875,-0.09375,-0.0625
652,652,1727110420833,0.88256836,-0.027893066,0.46746826,1.90625,0.890625,-0.078125
653,653,1727110420873,0.8852539,-0.030334473,0.4640503,1.9375,0.3125,-0.046875
654,654,1727110420913,0.8859863,-0.03253174,0.46624756,1.640625,0.390625,-0.046875
655,655,1727110420953,0.88671875,-0.032043457,0.46966553,1.203125,0.34375,-0.296875
656,656,1727110420993,0.8859863,-0.028381348,0.46575928,1.359375,0.53125,-0.125
657,657,1727110421033,0.88793945,-0.0335083,0.46307373,1.53125,0.5625,-0.21875
658,658,1727110421073,0.88793945,-0.035705566,0.46820068,1.390625,0.203125,0.140625
659,659,1727110421113,0.8859863,-0.03302002,0.47113037,1.25,0.40625,0.015625
660,660,1727110421153,0.88623047,-0.031799316,0.46502686,1.03125,0.3125,0.03125
661,661,1727110421193,0.8913574,-0.03668213,0.45770264,1.015625,0.21875,-0.140625
662,662,1727110421233,0.8898926,-0.032043457,0.46697998,1.03125,-0.125,-0.28125
663,663,1727110421273,0.88549805,-0.038391113,0.46185303,1.046875,0.390625,-0.15625
664,664,1727110421313,0.892334,-0.03717041,0.46453857,0.796875,0.265625,0.03125
665,665,1727110421353,0.8898926,-0.039611816,0.4574585,0.78125,0.453125,-0.125
666,666,1727110421393,0.88842773,-0.043029785,0.46673584,0.5,0.140625,-0.171875
667,667,1727110421433,0.88842773,-0.046203613,0.465271,0.8125,0.390625,-0.109375
668,668,1727110421473,0.88427734,-0.045959473,0.45428467,-0.140625,-0.1875,0.0
669,669,1727110421513,0.8894043,-0.032043457,0.47454834,1.046875,0.0625,-0.078125
670,670,1727110421553,0.89160156,-0.034240723,0.45526123,-0.25,0.640625,-0.078125
671,671,1727110421593,0.88671875,-0.034973145,0.46624756,0.15625,0.1875,-0.15625
672,672,1727110421633,0.8864746,-0.039367676,0.4647827,0.625,0.28125,-0.09375
673,673,1727110421673,0.8874512,-0.040100098,0.46331787,0.0625,0.34375,-0.0625
674,674,1727110421713,0.89208984,-0.04034424,0.45965576,-0.03125,0.453125,-0.328125
675,675,1727110421753,0.88793945,-0.029846191,0.45550537,0.296875,0.28125,-0.1875
676,676,1727110421793,0.88916016,-0.031799316,0.4574585,0.171875,0.109375,-0.125
677,677,1727110421833,0.89501953,-0.042053223,0.45672607,-0.03125,-0.21875,-0.078125
678,678,1727110421873,0.888916,-0.042541504,0.4616089,0.3125,0.296875,-0.265625
679,679,1727110421913,0.88623047,-0.044006348,0.45916748,0.375,0.078125,-0.03125
680,680,1727110421953,0.8840332,-0.030822754,0.4640503,0.34375,0.171875,-0.34375
681,681,1727110421993,0.88793945,-0.035949707,0.4598999,0.578125,-0.0625,-0.21875
682,682,1727110422033,0.8886719,-0.03692627,0.4562378,0.453125,0.28125,-0.28125
683,683,1727110422073,0.8874512,-0.043273926,0.45599365,0.203125,0.09375,-0.046875
684,684,1727110422113,0.8925781,-0.03765869,0.46038818,0.3125,0.1875,-0.3125
685,685,1727110422153,0.88720703,-0.041809082,0.4598999,0.203125,0.21875,-0.296875
686,686,1727110422193,0.8886719,-0.03253174,0.4694214,0.421875,0.109375,-0.21875
687,687,1727110422233,0.890625,-0.038391113,0.45843506,-0.0625,0.5,-0.140625
688,688,1727110422273,0.8942871,-0.034973145,0.46014404,0.0,-0.53125,-0.3125
689,689,1727110422313,0.8935547,-0.038635254,0.45819092,0.515625,0.859375,-0.296875
690,690,1727110422353,0.8911133,-0.03717041,0.46307373,0.234375,0.265625,-0.3125
691,691,1727110422393,0.89746094,-0.03375244,0.4562378,-0.0625,0.28125,-0.265625
692,692,1727110422433,0.88916016,-0.03741455,0.4628296,-0.984375,0.078125,-0.171875
693,693,1727110422473,0.89501953,-0.038635254,0.4611206,-1.28125,-0.03125,-0.15625
694,694,1727110422513,0.8881836,-0.03253174,0.46185303,-1.53125,0.0,-0.1875
695,695,1727110422553,0.8864746,-0.041809082,0.47161865,-1.25,-0.46875,-0.171875
696,696,1727110422593,0.8876953,-0.02935791,0.4611206,-1.890625,0.0625,-0.046875
697,697,1727110422633,0.8935547,-0.03253174,0.46575928,-2.25,0.109375,-0.046875
698,698,1727110422673,0.88720703,-0.033996582,0.46990967,-2.0,-0.40625,-0.1875
699,699,1727110422713,0.8876953,-0.028381348,0.4677124,-1.9375,-0.515625,-0.203125
700,700,1727110422753,0.8859863,-0.026184082,0.46453857,-1.5625,-0.40625,-0.203125
701,701,1727110422793,0.8876953,-0.026184082,0.45843506,-1.640625,0.015625,-0.203125
702,702,1727110422833,0.8901367,-0.022521973,0.45965576,-1.625,-0.34375,-0.265625
703,703,1727110422873,0.8864746,-0.023742676,0.465271,-1.8125,-0.484375,-0.25
704,704,1727110422913,0.88916016,-0.027160645,0.46746826,-1.625,-0.203125,-0.28125
705,705,1727110422953,0.88671875,-0.020080566,0.47528076,-1.140625,-0.921875,-0.21875
706,706,1727110422993,0.88671875,-0.022277832,0.45648193,-2.234375,0.9375,-0.546875
707,707,1727110423033,0.88793945,-0.015197754,0.45916748,-1.296875,-0.625,-0.15625
708,708,1727110423073,0.88549805,-0.027160645,0.47943115,-1.5625,0.484375,-0.375
709,709,1727110423113,0.88842773,-0.022766113,0.46624756,-2.15625,0.21875,-0.109375
710,710,1727110423153,0.8847656,-0.01373291,0.4569702,-1.625,0.203125,-0.5
711,711,1727110423193,0.8857422,-0.016906738,0.4677124,-1.328125,0.609375,-0.59375
712,712,1727110423233,0.88964844,-0.009094238,0.46453857,-1.125,0.34375,-0.25
713,713,1727110423273,0.88183594,-0.0115356445,0.46551514,-1.1875,0.15625,-0.28125
714,714,1727110423313,0.8859863,-0.0115356445,0.46136475,-0.890625,-0.78125,-0.328125
715,715,1727110423353,0.8864746,-0.012023926,0.4623413,-0.46875,-0.15625,-0.4375
716,716,1727110423393,0.8803711,-0.019836426,0.46820068,0.234375,-0.46875,-0.359375
717,717,1727110423433,0.88500977,-0.020080566,0.465271,0.375,0.0,-0.5
718,718,1727110423473,0.8881836,-0.011291504,0.46868896,0.828125,-0.234375,-0.53125
719,719,1727110423513,0.8811035,-0.011291504,0.4640503,1.4375,-0.1875,-0.328125
720,720,1727110423553,0.89038086,-0.015197754,0.4664917,1.0625,0.046875,-0.21875
721,721,1727110423593,0.88061523,-0.016418457,0.47601318,0.96875,0.015625,-0.046875
722,722,1727110423633,0.8852539,-0.021057129,0.47283936,0.96875,0.046875,-0.296875
723,723,1727110423673,0.8811035,-0.028381348,0.47210693,1.0,-0.90625,-0.3125
724,724,1727110423713,0.89086914,-0.004699707,0.4725952,0.890625,1.5,-0.34375
725,725,1727110423753,0.8815918,-0.019104004,0.45648193,0.875,0.109375,-0.25
726,726,1727110423793,0.8898926,-0.023010254,0.48187256,0.578125,0.703125,-0.171875
727,727,1727110423833,0.88061523,-0.020324707,0.46722412,0.671875,-0.03125,-0.046875
728,728,1727110423873,0.88842773,-0.018859863,0.4694214,0.953125,0.359375,-0.171875
729,729,1727110423913,0.88964844,-0.016906738,0.46575928,1.234375,0.53125,-0.265625
730,730,1727110423953,0.88720703,-0.019836426,0.47210693,1.53125,0.484375,-0.15625
731,731,1727110423993,0.8791504,-0.017150879,0.46380615,1.390625,0.734375,-0.125
732,732,1727110424033,0.8840332,-0.02911377,0.4537964,1.21875,-0.203125,0.015625
733,733,1727110424073,0.8901367,-0.026916504,0.46673584,1.734375,0.515625,-0.140625
734,734,1727110424113,0.88183594,-0.027648926,0.46795654,1.90625,0.15625,-0.125
735,735,1727110424153,0.88842773,-0.020812988,0.46038818,2.140625,0.78125,-0.453125
736,736,1727110424193,0.88500977,-0.02154541,0.46380615,2.359375,0.140625,-0.171875
737,737,1727110424233,0.8828125,-0.023742676,0.46722412,2.203125,0.578125,-0.125
738,738,1727110424273,0.8930664,-0.023254395,0.46795654,2.125,0.203125,0.078125
739,739,1727110424313,0.88623047,-0.026916504,0.4677124,2.234375,0.34375,-0.078125
740,740,1727110424353,0.8874512,-0.030822754,0.4640503,2.125,0.375,-0.171875
741,741,1727110424393,0.88720703,-0.028869629,0.47503662,2.5,-0.125,-0.21875
742,742,1727110424433,0.8901367,-0.0335083,0.46014404,1.265625,1.1875,-0.28125
743,743,1727110424473,0.88134766,-0.032287598,0.46063232,1.625,-0.015625,-0.125
744,744,1727110424513,0.8876953,-0.039367676,0.46746826,1.265625,0.90625,-0.015625
745,745,1727110424553,0.89208984,-0.039611816,0.46380615,1.28125,0.5625,0.03125
746,746,1727110424593,0.8869629,-0.034484863,0.46331787,1.140625,0.78125,0.0
747,747,1727110424633,0.88916016,-0.04058838,0.46917725,0.46875,0.453125,-0.03125
748,748,1727110424673,0.88793945,-0.03326416,0.46014404,0.859375,0.4375,-0.078125
749,749,1727110424713,0.88378906,-0.03302002,0.4569702,0.71875,0.4375,-0.0625
750,750,1727110424753,0.88916016,-0.034484863,0.46307373,0.9375,0.046875,-0.015625
751,751,1727110424793,0.88256836,-0.027160645,0.46209717,0.890625,0.578125,0.015625
752,752,1727110424833,0.8935547,-0.036193848,0.465271,0.546875,0.34375,-0.0625
753,753,1727110424873,0.88842773,-0.03692627,0.46063232,0.828125,0.046875,-0.265625
754,754,1727110424913,0.8874512,-0.0335083,0.4598999,0.84375,-0.140625,-0.171875
755,755,1727110424953,0.89038086,-0.031311035,0.46136475,0.640625,0.34375,-0.25
756,756,1727110424993,0.8925781,-0.03326416,0.46136475,0.6875,0.171875,-0.109375
757,757,1727110425033,0.88427734,-0.038635254,0.463562,0.328125,0.203125,-0.109375
758,758,1727110425073,0.89038086,-0.038146973,0.4611206,0.328125,0.203125,-0.28125
759,759,1727110425113,0.88500977,-0.04034424,0.4611206,0.4375,0.046875,-0.171875
