,Unnamed: 0,timestamp,accel_x,accel_y,accel_z,gyro_x,gyro_y,gyro_z
0,0,1727173762132,0.88134766,-0.19683838,0.40838623,-1.53125,-2.1875,0.515625
1,1,1727173762172,0.8964844,-0.18511963,0.401062,-0.234375,-1.828125,0.453125
2,2,1727173762212,0.8757324,-0.19366455,0.40985107,0.28125,-1.0625,0.5625
3,3,1727173762252,0.8840332,-0.19293213,0.41986084,0.65625,1.6875,0.875
4,4,1727173762292,0.8898926,-0.19024658,0.40325928,-0.625,-0.53125,0.71875
5,5,1727173762332,0.8864746,-0.19854736,0.41619873,-0.578125,-0.140625,0.359375
6,6,1727173762372,0.89501953,-0.18170166,0.40081787,-0.90625,-0.546875,0.46875
7,7,1727173762412,0.8852539,-0.1843872,0.39715576,-1.171875,-0.34375,-0.203125
8,8,1727173762452,0.88623047,-0.18707275,0.41229248,-0.234375,0.90625,0.296875
9,9,1727173762492,0.8847656,-0.18365479,0.42547607,-0.828125,1.078125,-0.03125
10,10,1727173762532,0.8876953,-0.18756104,0.40863037,-1.578125,-1.046875,0.046875
11,11,1727173762572,0.8811035,-0.1897583,0.41741943,-1.171875,0.578125,0.25
12,12,1727173762612,0.8991699,-0.18096924,0.4118042,-0.21875,0.015625,0.3125
13,13,1727173762652,0.87841797,-0.18780518,0.41571045,-0.25,1.234375,0.234375
14,14,1727173762692,0.87719727,-0.18780518,0.41107178,-0.671875,1.609375,0.265625
15,15,1727173762732,0.8984375,-0.18707275,0.4142456,0.1875,0.546875,0.203125
16,16,1727173762772,0.88061523,-0.17877197,0.40594482,-0.484375,1.109375,0.1875
17,17,1727173762812,0.8886719,-0.18927002,0.40863037,-0.328125,1.1875,0.484375
18,18,1727173762852,0.89038086,-0.18145752,0.40740967,-0.078125,1.578125,-0.015625
19,19,1727173762892,0.8874512,-0.18218994,0.39666748,0.234375,2.4375,0.046875
20,20,1727173762932,0.8898926,-0.18341064,0.40667725,0.484375,3.234375,0.109375
21,21,1727173762972,0.89038086,-0.1951294,0.42156982,2.03125,4.015625,0.546875
22,22,1727173763012,0.8769531,-0.18536377,0.38983154,0.3125,4.84375,-0.234375
23,23,1727173763052,0.9055176,-0.19073486,0.40252686,2.40625,4.125,-0.046875
24,24,1727173763092,0.89331055,-0.1873169,0.38763428,2.421875,4.265625,0.3125
25,25,1727173763132,0.8935547,-0.1831665,0.37249756,2.3125,4.046875,0.46875
26,26,1727173763172,0.88720703,-0.19927979,0.37957764,1.421875,4.90625,0.375
27,27,1727173763212,0.9111328,-0.19244385,0.38397217,0.625,4.90625,0.484375
28,28,1727173763252,0.89990234,-0.19537354,0.36590576,0.328125,2.625,1.0
29,29,1727173763292,0.89624023,-0.19342041,0.36834717,0.84375,2.9375,0.171875
30,30,1727173763332,0.9189453,-0.19293213,0.35028076,1.28125,4.921875,0.171875
31,31,1727173763372,0.9016113,-0.19903564,0.34710693,1.234375,5.3125,0.21875
32,32,1727173763412,0.9067383,-0.19854736,0.35247803,1.40625,5.03125,0.359375
33,33,1727173763452,0.91748047,-0.19439697,0.33953857,0.765625,3.734375,0.328125
34,34,1727173763492,0.91918945,-0.19049072,0.340271,0.609375,3.078125,0.09375
35,35,1727173763532,0.9001465,-0.19464111,0.33099365,0.796875,3.1875,0.359375
36,36,1727173763572,0.9091797,-0.19073486,0.33026123,0.046875,3.5,0.375
37,37,1727173763612,0.9091797,-0.19659424,0.3209839,1.3125,5.03125,0.171875
38,38,1727173763652,0.9301758,-0.18267822,0.32489014,0.90625,3.390625,-0.3125
39,39,1727173763692,0.9025879,-0.21539307,0.33148193,1.921875,4.078125,0.984375
40,40,1727173763732,0.9042969,-0.1963501,0.29241943,-0.921875,2.296875,0.484375
41,41,1727173763772,0.9230957,-0.2053833,0.32073975,1.234375,5.328125,0.640625
42,42,1727173763812,0.920166,-0.19732666,0.30633545,1.296875,3.6875,0.578125
43,43,1727173763852,0.91381836,-0.19366455,0.30267334,0.5,2.609375,0.3125
44,44,1727173763892,0.91625977,-0.19610596,0.30218506,0.21875,2.15625,0.34375
45,45,1727173763932,0.9277344,-0.20098877,0.2975464,-0.375,1.5,0.453125
46,46,1727173763972,0.91381836,-0.20269775,0.29852295,0.0625,1.0625,0.484375
47,47,1727173764012,0.9182129,-0.19732666,0.29656982,0.15625,1.921875,0.515625
48,48,1727173764052,0.91381836,-0.2000122,0.30291748,0.734375,3.3125,0.25
49,49,1727173764092,0.920166,-0.1987915,0.2892456,0.546875,2.75,0.28125
50,50,1727173764132,0.9211426,-0.19854736,0.2880249,-0.109375,2.609375,0.265625
51,51,1727173764172,0.9182129,-0.2000122,0.28289795,0.03125,2.453125,0.296875
52,52,1727173764212,0.9211426,-0.19415283,0.29486084,0.0625,2.515625,0.359375
53,53,1727173764252,0.9230957,-0.20513916,0.28094482,0.234375,2.34375,0.390625
54,54,1727173764292,0.92578125,-0.19927979,0.27703857,-0.109375,1.296875,0.25
55,55,1727173764332,0.9223633,-0.19244385,0.27679443,-0.296875,2.765625,0.328125
56,56,1727173764372,0.92529297,-0.19903564,0.26141357,-1.546875,1.828125,0.453125
57,57,1727173764412,0.9226074,-0.20611572,0.30047607,0.15625,1.625,-0.265625
58,58,1727173764452,0.907959,-0.19293213,0.2579956,-1.96875,-0.296875,1.21875
59,59,1727173764492,0.9260254,-0.19586182,0.27044678,0.125,3.53125,0.453125
60,60,1727173764532,0.9226074,-0.20611572,0.2814331,1.125,3.59375,-0.03125
61,61,1727173764572,0.92871094,-0.1885376,0.26898193,-0.078125,1.90625,0.515625
62,62,1727173764612,0.92333984,-0.19610596,0.26263428,0.609375,1.046875,0.171875
63,63,1727173764652,0.9289551,-0.21002197,0.26654053,-0.984375,0.9375,0.46875
64,64,1727173764692,0.9279785,-0.19927979,0.27288818,-0.125,-1.203125,0.296875
65,65,1727173764732,0.91186523,-0.19903564,0.26898193,-0.765625,0.4375,0.421875
66,66,1727173764772,0.92163086,-0.19708252,0.27020264,-0.125,0.828125,0.515625
67,67,1727173764812,0.921875,-0.19976807,0.2765503,-0.515625,0.765625,-0.25
68,68,1727173764852,0.92749023,-0.20880127,0.2597046,-2.328125,2.15625,0.140625
69,69,1727173764892,0.9289551,-0.19439697,0.26800537,-0.765625,5.0,-0.328125
70,70,1727173764932,0.920166,-0.19293213,0.2819214,-0.578125,0.046875,0.5
71,71,1727173764972,0.9255371,-0.19464111,0.2765503,-1.8125,-2.046875,0.546875
72,72,1727173765012,0.9304199,-0.19024658,0.28704834,-0.28125,-4.1875,0.34375
73,73,1727173765052,0.90478516,-0.19976807,0.28289795,-1.21875,-4.90625,0.40625
74,74,1727173765092,0.92211914,-0.19122314,0.276062,-1.515625,-2.546875,0.59375
75,75,1727173765132,0.9206543,-0.19415283,0.29412842,0.203125,0.015625,-0.140625
76,76,1727173765172,0.9243164,-0.19488525,0.3065796,0.078125,-1.546875,-0.25
77,77,1727173765212,0.90649414,-0.20098877,0.29266357,-1.328125,-3.34375,0.421875
78,78,1727173765252,0.91625977,-0.19659424,0.30706787,-0.28125,-0.6875,0.328125
79,79,1727173765292,0.92407227,-0.19659424,0.30877686,-0.046875,-2.953125,0.171875
80,80,1727173765332,0.9147949,-0.18585205,0.3078003,-0.0625,-1.921875,0.078125
81,81,1727173765372,0.9074707,-0.190979,0.3139038,-0.15625,-1.6875,-0.25
82,82,1727173765412,0.9238281,-0.2041626,0.31610107,-0.046875,-1.96875,-0.109375
83,83,1727173765452,0.9082031,-0.206604,0.31903076,0.5,0.640625,-0.125
84,84,1727173765492,0.91796875,-0.19708252,0.30999756,0.75,-0.234375,0.15625
85,85,1727173765532,0.9145508,-0.1963501,0.32147217,1.984375,2.84375,-0.203125
86,86,1727173765572,0.9094238,-0.2000122,0.33172607,2.234375,-0.34375,0.125
87,87,1727173765612,0.9055176,-0.19927979,0.32147217,0.625,-1.28125,0.28125
88,88,1727173765652,0.9145508,-0.19830322,0.32904053,-0.09375,-1.171875,0.140625
89,89,1727173765692,0.9133301,-0.19854736,0.33319092,-0.078125,-2.828125,0.421875
90,90,1727173765732,0.9091797,-0.20440674,0.3295288,-1.15625,-3.453125,0.421875
91,91,1727173765772,0.9069824,-0.19439697,0.32977295,-1.015625,-3.15625,0.40625
92,92,1727173765812,0.89868164,-0.20050049,0.3361206,-1.0625,-1.984375,0.453125
93,93,1727173765852,0.9074707,-0.19708252,0.34173584,-0.1875,-0.734375,0.234375
94,94,1727173765892,0.89160156,-0.190979,0.32977295,0.109375,1.1875,0.71875
95,95,1727173765932,0.9147949,-0.19927979,0.36883545,1.109375,0.984375,0.9375
96,96,1727173765972,0.88964844,-0.19049072,0.3378296,-1.109375,0.109375,1.328125
97,97,1727173766012,0.90649414,-0.20513916,0.35858154,0.078125,-0.09375,1.609375
98,98,1727173766052,0.904541,-0.19390869,0.33636475,0.421875,0.5625,0.4375
99,99,1727173766092,0.907959,-0.18804932,0.34295654,0.484375,1.609375,0.609375
100,100,1727173766132,0.9086914,-0.19488525,0.34002686,0.5625,1.21875,0.125
101,101,1727173766172,0.9172363,-0.20245361,0.34539795,0.046875,0.515625,0.0625
102,102,1727173766212,0.90600586,-0.19586182,0.34954834,0.140625,-0.46875,0.4375
103,103,1727173766252,0.9038086,-0.19244385,0.3517456,-0.609375,-1.765625,0.09375
104,104,1727173766292,0.8977051,-0.20318604,0.3463745,-0.875,0.171875,0.3125
105,105,1727173766332,0.9086914,-0.18804932,0.3517456,-0.03125,-0.046875,0.171875
106,106,1727173766372,0.8996582,-0.19537354,0.3475952,-0.640625,0.765625,0.296875
107,107,1727173766412,0.90893555,-0.19952393,0.3505249,-0.203125,0.015625,0.34375
108,108,1727173766452,0.890625,-0.19586182,0.3607788,-0.1875,0.015625,0.359375
109,109,1727173766492,0.8977051,-0.19366455,0.3475952,-0.6875,-0.546875,0.46875
110,110,1727173766532,0.9057617,-0.1951294,0.35980225,-0.078125,0.78125,0.40625
111,111,1727173766572,0.9001465,-0.20123291,0.35614014,-0.0625,1.890625,0.171875
112,112,1727173766612,0.8991699,-0.18658447,0.34588623,0.015625,2.09375,0.234375
113,113,1727173766652,0.9194336,-0.19000244,0.35150146,0.796875,1.703125,-0.34375
114,114,1727173766692,0.88378906,-0.19317627,0.33026123,-0.140625,2.359375,0.40625
115,115,1727173766732,0.9147949,-0.2041626,0.35076904,0.875,3.015625,-0.1875
116,116,1727173766772,0.9140625,-0.19561768,0.34588623,0.671875,1.96875,0.359375
117,117,1727173766812,0.90844727,-0.18804932,0.34613037,0.703125,2.734375,0.46875
118,118,1727173766852,0.90771484,-0.18780518,0.34979248,0.125,0.34375,0.828125
119,119,1727173766892,0.9008789,-0.19683838,0.34857178,-0.71875,-0.703125,1.125
120,120,1727173766932,0.9091797,-0.19927979,0.34881592,-2.75,-1.8125,1.15625
121,121,1727173766972,0.9121094,-0.20025635,0.32073975,-3.578125,-0.921875,0.390625
122,122,1727173767012,0.9016113,-0.19488525,0.3456421,-0.421875,3.859375,0.609375
123,123,1727173767052,0.9091797,-0.19390869,0.3361206,0.828125,3.5625,0.265625
124,124,1727173767092,0.9025879,-0.19317627,0.33685303,0.96875,5.4375,0.4375
125,125,1727173767132,0.9086914,-0.18780518,0.3414917,1.515625,4.6875,0.671875
126,126,1727173767172,0.9108887,-0.18951416,0.33587646,1.140625,3.375,0.625
127,127,1727173767212,0.91625977,-0.19366455,0.3204956,0.59375,3.34375,0.5625
128,128,1727173767252,0.9108887,-0.190979,0.3234253,0.984375,3.875,0.6875
129,129,1727173767292,0.9169922,-0.19537354,0.31195068,0.671875,3.859375,0.40625
130,130,1727173767332,0.90844727,-0.19415283,0.29632568,1.25,4.78125,0.53125
131,131,1727173767372,0.9387207,-0.18365479,0.3085327,0.953125,3.84375,-0.296875
132,132,1727173767412,0.90771484,-0.20709229,0.3143921,1.703125,3.6875,0.5625
133,133,1727173767452,0.9177246,-0.19268799,0.29315186,-1.59375,1.875,0.90625
134,134,1727173767492,0.9277344,-0.19415283,0.3065796,0.875,4.046875,0.28125
135,135,1727173767532,0.91552734,-0.19024658,0.29266357,-0.03125,2.71875,0.546875
136,136,1727173767572,0.9211426,-0.1921997,0.29486084,-0.375,2.171875,0.921875
137,137,1727173767612,0.91796875,-0.19903564,0.29486084,-0.359375,2.40625,1.140625
138,138,1727173767652,0.9260254,-0.18902588,0.28900146,-1.28125,2.25,0.796875
139,139,1727173767692,0.91918945,-0.19415283,0.28411865,-0.8125,0.984375,1.0
140,140,1727173767732,0.9177246,-0.19390869,0.2843628,-0.484375,1.953125,0.625
141,141,1727173767772,0.9230957,-0.18878174,0.28753662,0.875,3.609375,0.4375
142,142,1727173767812,0.9199219,-0.19171143,0.27581787,0.578125,3.5625,-0.078125
143,143,1727173767852,0.923584,-0.18878174,0.27581787,0.390625,3.453125,0.15625
144,144,1727173767892,0.9279785,-0.19464111,0.26556396,0.46875,2.265625,0.21875
145,145,1727173767932,0.93115234,-0.18951416,0.26605225,-0.0625,2.171875,0.421875
146,146,1727173767972,0.9267578,-0.19537354,0.2687378,0.453125,2.953125,0.21875
147,147,1727173768012,0.92578125,-0.19464111,0.26776123,0.34375,3.078125,0.328125
148,148,1727173768052,0.92700195,-0.190979,0.26141357,0.109375,1.96875,0.234375
149,149,1727173768092,0.9199219,-0.19195557,0.25628662,0.171875,4.078125,0.328125
150,150,1727173768132,0.9291992,-0.18878174,0.2374878,-0.265625,4.328125,0.3125
151,151,1727173768172,0.9343262,-0.20440674,0.27850342,1.40625,4.796875,-0.375
152,152,1727173768212,0.92163086,-0.19805908,0.23358154,-1.328125,-0.015625,0.75
153,153,1727173768252,0.9291992,-0.19683838,0.24725342,-0.703125,4.4375,0.09375
154,154,1727173768292,0.93725586,-0.20098877,0.24310303,0.46875,4.171875,0.015625
155,155,1727173768332,0.93066406,-0.18780518,0.23602295,-0.046875,2.515625,0.328125
156,156,1727173768372,0.9333496,-0.19000244,0.23797607,-0.265625,2.1875,0.484375
157,157,1727173768412,0.94091797,-0.19927979,0.22357178,-0.515625,0.921875,0.34375
158,158,1727173768452,0.92407227,-0.19488525,0.23846436,-0.078125,0.734375,0.453125
159,159,1727173768492,0.92944336,-0.19195557,0.22747803,-0.8125,0.421875,0.578125
160,160,1727173768532,0.9350586,-0.19415283,0.23895264,0.046875,1.265625,0.25
161,161,1727173768572,0.93530273,-0.19610596,0.22943115,-0.234375,1.96875,0.1875
162,162,1727173768612,0.9289551,-0.20465088,0.23406982,-0.84375,1.078125,0.21875
163,163,1727173768652,0.9387207,-0.18902588,0.23504639,-0.9375,-0.890625,0.171875
164,164,1727173768692,0.9284668,-0.19195557,0.23651123,-1.65625,-1.390625,0.078125
165,165,1727173768732,0.93188477,-0.1873169,0.23846436,-1.5,-2.625,0.25
166,166,1727173768772,0.9267578,-0.19488525,0.24481201,-2.140625,-2.796875,0.125
167,167,1727173768812,0.92626953,-0.19293213,0.25286865,-1.390625,-2.015625,0.3125
168,168,1727173768852,0.9226074,-0.18487549,0.2609253,-1.09375,-2.921875,-0.015625
169,169,1727173768892,0.92944336,-0.18829346,0.2526245,-1.53125,-2.40625,0.421875
170,170,1727173768932,0.9301758,-0.18292236,0.26727295,-1.0,-1.21875,-0.171875
171,171,1727173768972,0.9267578,-0.1831665,0.2506714,-0.984375,0.0625,-0.015625
172,172,1727173769012,0.9421387,-0.20123291,0.28948975,0.53125,0.140625,-0.109375
173,173,1727173769052,0.9042969,-0.18878174,0.2579956,-2.921875,-2.875,0.921875
174,174,1727173769092,0.9301758,-0.1921997,0.28485107,-1.5,-0.390625,0.203125
175,175,1727173769132,0.92407227,-0.19073486,0.28948975,-0.453125,-1.5625,-0.671875
176,176,1727173769172,0.9194336,-0.1819458,0.27947998,-0.828125,-1.484375,0.1875
177,177,1727173769212,0.92749023,-0.18780518,0.2850952,-0.890625,-1.828125,0.03125
178,178,1727173769252,0.92163086,-0.19122314,0.28607178,-0.734375,-2.375,-0.15625
179,179,1727173769292,0.9140625,-0.19146729,0.29559326,-0.40625,-1.84375,0.171875
180,180,1727173769332,0.9123535,-0.18878174,0.2975464,-0.328125,-2.3125,0.09375
181,181,1727173769372,0.9199219,-0.1873169,0.29315186,-0.5625,-2.140625,0.1875
182,182,1727173769412,0.9187012,-0.190979,0.29974365,-0.34375,-1.578125,-0.078125
183,183,1727173769452,0.9165039,-0.19000244,0.30267334,-0.015625,-0.5,0.28125
184,184,1727173769492,0.921875,-0.19659424,0.31097412,-0.53125,-1.0,0.234375
185,185,1727173769532,0.9230957,-0.19830322,0.31048584,-0.40625,-1.140625,0.203125
186,186,1727173769572,0.91137695,-0.19073486,0.30633545,-0.75,-1.28125,-0.015625
187,187,1727173769612,0.91137695,-0.19415283,0.31756592,-0.59375,-1.359375,0.296875
188,188,1727173769652,0.9187012,-0.18878174,0.322937,-0.5,-2.140625,-0.046875
189,189,1727173769692,0.91064453,-0.1963501,0.3222046,-0.90625,-1.78125,0.328125
190,190,1727173769732,0.9123535,-0.19342041,0.32928467,-0.640625,-1.421875,0.125
191,191,1727173769772,0.9033203,-0.19439697,0.31829834,-0.671875,-0.5625,0.265625
192,192,1727173769812,0.92578125,-0.19073486,0.34906006,0.140625,0.03125,-0.09375
193,193,1727173769852,0.8911133,-0.19171143,0.31072998,-2.59375,-1.828125,0.546875
194,194,1727173769892,0.91381836,-0.20098877,0.34783936,-0.75,-1.390625,0.1875
195,195,1727173769932,0.9121094,-0.19073486,0.34613037,-0.96875,-2.15625,0.078125
196,196,1727173769972,0.9020996,-0.19049072,0.33319092,-1.21875,-1.234375,0.40625
197,197,1727173770012,0.91381836,-0.18927002,0.3493042,-0.421875,-0.734375,0.3125
198,198,1727173770052,0.9042969,-0.19317627,0.35687256,-0.671875,-1.03125,0.296875
199,199,1727173770092,0.89697266,-0.18780518,0.3456421,-0.59375,-0.75,0.546875
200,200,1727173770132,0.9016113,-0.18756104,0.354187,-1.203125,-1.4375,0.46875
201,201,1727173770172,0.9050293,-0.190979,0.34344482,-0.890625,-0.125,0.5625
202,202,1727173770212,0.9104004,-0.18365479,0.36444092,-0.09375,0.109375,0.1875
203,203,1727173770252,0.9086914,-0.18878174,0.3522339,-0.6875,0.484375,0.21875
204,204,1727173770292,0.9016113,-0.18804932,0.3583374,-0.3125,1.203125,0.203125
205,205,1727173770332,0.89941406,-0.19195557,0.36297607,-0.421875,1.125,-0.015625
206,206,1727173770372,0.9157715,-0.19024658,0.354187,-0.640625,-0.21875,0.390625
207,207,1727173770412,0.9008789,-0.18927002,0.35614014,-0.25,0.5,0.171875
208,208,1727173770452,0.9001465,-0.19000244,0.35906982,0.1875,0.125,0.28125
209,209,1727173770492,0.9016113,-0.18951416,0.3554077,-0.15625,0.6875,0.046875
210,210,1727173770532,0.9033203,-0.18536377,0.35272217,-0.46875,2.4375,0.203125
211,211,1727173770572,0.9194336,-0.17999268,0.35980225,0.234375,1.640625,-0.34375
212,212,1727173770612,0.8859863,-0.19610596,0.34320068,0.125,3.34375,0.5
213,213,1727173770652,0.9128418,-0.19073486,0.35687256,0.703125,4.046875,0.15625
214,214,1727173770692,0.9069824,-0.19464111,0.35736084,1.421875,3.03125,0.109375
215,215,1727173770732,0.9038086,-0.18951416,0.34466553,0.5,2.03125,0.40625
216,216,1727173770772,0.91015625,-0.18902588,0.3373413,0.53125,2.53125,0.28125
217,217,1727173770812,0.9030762,-0.1975708,0.34246826,0.609375,3.15625,0.28125
218,218,1727173770852,0.91259766,-0.18829346,0.34954834,0.015625,1.953125,0.375
219,219,1727173770892,0.9074707,-0.20098877,0.33172607,-0.078125,0.609375,0.609375
220,220,1727173770932,0.9104004,-0.19073486,0.33538818,0.359375,0.96875,0.90625
221,221,1727173770972,0.9108887,-0.1987915,0.32757568,0.921875,3.15625,0.453125
222,222,1727173771012,0.9094238,-0.19317627,0.33099365,0.90625,4.65625,0.4375
223,223,1727173771052,0.91308594,-0.19659424,0.32904053,0.984375,4.0,0.46875
224,224,1727173771092,0.9128418,-0.19854736,0.3156128,0.8125,3.953125,0.5625
225,225,1727173771132,0.9199219,-0.1873169,0.3102417,0.421875,2.84375,0.546875
226,226,1727173771172,0.91796875,-0.1897583,0.30828857,0.515625,2.90625,0.328125
227,227,1727173771212,0.9145508,-0.18951416,0.3102417,0.640625,3.578125,0.46875
228,228,1727173771252,0.91967773,-0.19024658,0.2982788,-0.015625,3.5,0.375
229,229,1727173771292,0.91064453,-0.1975708,0.30194092,1.578125,5.421875,0.203125
230,230,1727173771332,0.9291992,-0.19244385,0.28607178,-0.203125,5.4375,0.359375
231,231,1727173771372,0.9230957,-0.20587158,0.3163452,2.28125,5.375,-0.046875
232,232,1727173771412,0.9111328,-0.18902588,0.2682495,-1.203125,1.8125,0.796875
233,233,1727173771452,0.93530273,-0.19683838,0.2826538,0.515625,5.78125,0.15625
234,234,1727173771492,0.93115234,-0.19610596,0.27923584,0.765625,4.4375,0.125
235,235,1727173771532,0.91796875,-0.18902588,0.2736206,0.0,3.109375,0.265625
236,236,1727173771572,0.9238281,-0.19000244,0.26800537,0.125,2.671875,0.15625
237,237,1727173771612,0.91967773,-0.20709229,0.26507568,-0.46875,2.28125,0.40625
238,238,1727173771652,0.9169922,-0.19830322,0.2753296,0.34375,1.703125,0.515625
239,239,1727173771692,0.9187012,-0.19659424,0.2616577,-0.296875,1.03125,0.421875
240,240,1727173771732,0.92578125,-0.19903564,0.2609253,0.203125,2.921875,0.234375
241,241,1727173771772,0.9260254,-0.19659424,0.25482178,0.375,3.34375,0.171875
242,242,1727173771812,0.9265137,-0.19146729,0.24627686,-0.1875,2.890625,0.40625
243,243,1727173771852,0.92749023,-0.2000122,0.2514038,-0.328125,2.3125,0.171875
244,244,1727173771892,0.9226074,-0.19146729,0.27386475,-0.03125,1.984375,-0.09375
245,245,1727173771932,0.9267578,-0.19952393,0.25213623,-0.234375,1.546875,0.046875
246,246,1727173771972,0.9316406,-0.20172119,0.24749756,-0.515625,2.140625,0.15625
247,247,1727173772012,0.9328613,-0.19415283,0.24700928,0.0,1.578125,0.1875
248,248,1727173772052,0.92700195,-0.19952393,0.23577881,-0.4375,1.75,0.046875
249,249,1727173772092,0.9333496,-0.18634033,0.24188232,0.15625,2.25,0.0
250,250,1727173772132,0.9440918,-0.18780518,0.24798584,-0.328125,2.5625,-0.546875
251,251,1727173772172,0.9238281,-0.20025635,0.25750732,-0.34375,1.328125,0.484375
252,252,1727173772212,0.92163086,-0.18609619,0.2230835,-1.359375,0.359375,0.453125
253,253,1727173772252,0.9445801,-0.20684814,0.2453003,-0.234375,4.09375,-0.0625
254,254,1727173772292,0.9301758,-0.1987915,0.24163818,-0.59375,1.6875,0.15625
255,255,1727173772332,0.92700195,-0.19537354,0.23187256,-0.671875,0.578125,0.0625
256,256,1727173772372,0.923584,-0.19708252,0.24041748,-0.265625,1.3125,0.421875
257,257,1727173772412,0.9362793,-0.20220947,0.24163818,-1.4375,-0.546875,0.3125
258,258,1727173772452,0.92993164,-0.19854736,0.24676514,-1.765625,-2.21875,0.171875
259,259,1727173772492,0.93408203,-0.18878174,0.24871826,-1.984375,-2.03125,0.421875
260,260,1727173772532,0.92871094,-0.19610596,0.2453003,-1.65625,-4.03125,0.15625
261,261,1727173772572,0.92871094,-0.19488525,0.25408936,-2.484375,-3.015625,0.40625
262,262,1727173772612,0.9309082,-0.19146729,0.25750732,-2.4375,-2.90625,0.078125
263,263,1727173772652,0.9255371,-0.19488525,0.26434326,-1.5,-2.109375,0.171875
264,264,1727173772692,0.9284668,-0.19683838,0.27313232,-1.671875,-2.875,0.0625
265,265,1727173772732,0.9277344,-0.19781494,0.27459717,-1.65625,-1.53125,-0.140625
266,266,1727173772772,0.92211914,-0.19122314,0.2880249,-0.890625,-2.25,-0.1875
267,267,1727173772812,0.92163086,-0.19244385,0.2880249,-0.71875,-2.078125,0.078125
268,268,1727173772852,0.91918945,-0.19854736,0.29241943,-1.375,-2.875,0.171875
269,269,1727173772892,0.9147949,-0.20391846,0.28778076,-1.328125,-2.9375,0.125
270,270,1727173772932,0.92089844,-0.19830322,0.30145264,-0.984375,-2.578125,-0.09375
271,271,1727173772972,0.9140625,-0.1885376,0.28363037,-1.59375,-1.71875,-0.140625
272,272,1727173773012,0.92993164,-0.20220947,0.32855225,2.28125,0.90625,-0.515625
273,273,1727173773052,0.89746094,-0.19659424,0.2921753,-1.5,-1.53125,0.484375
274,274,1727173773092,0.92285156,-0.20489502,0.32537842,-0.3125,-3.125,0.140625
275,275,1727173773132,0.9152832,-0.19415283,0.3126831,-0.875,-2.328125,0.328125
276,276,1727173773172,0.9074707,-0.19488525,0.3143921,-0.421875,-2.109375,0.453125
277,277,1727173773212,0.91430664,-0.1897583,0.32537842,-0.703125,-2.03125,0.328125
278,278,1727173773252,0.9189453,-0.20806885,0.32977295,-0.875,-2.796875,0.078125
279,279,1727173773292,0.90771484,-0.19903564,0.33319092,-1.0,-3.140625,0.609375
280,280,1727173773332,0.89990234,-0.19366455,0.3390503,-1.03125,-2.5,0.59375
281,281,1727173773372,0.9133301,-0.19586182,0.33563232,-0.78125,-2.078125,0.359375
282,282,1727173773412,0.90356445,-0.19366455,0.34344482,-0.28125,-1.53125,-0.015625
283,283,1727173773452,0.9069824,-0.1963501,0.33319092,-1.015625,-0.9375,0.4375
284,284,1727173773492,0.90722656,-0.1951294,0.34613037,-0.40625,-1.046875,0.015625
285,285,1727173773532,0.89624023,-0.19732666,0.34881592,-1.171875,-1.265625,0.484375
286,286,1727173773572,0.9111328,-0.19830322,0.35443115,-1.015625,-1.9375,0.171875
287,287,1727173773612,0.90405273,-0.1831665,0.35809326,-0.890625,-1.25,0.078125
288,288,1727173773652,0.9020996,-0.19659424,0.36541748,-0.484375,-0.96875,0.265625
289,289,1727173773692,0.90063477,-0.19464111,0.3554077,-0.65625,-0.453125,0.03125
290,290,1727173773732,0.89501953,-0.19464111,0.36175537,-0.125,0.53125,0.125
291,291,1727173773772,0.9069824,-0.19805908,0.37054443,0.40625,0.203125,0.3125
292,292,1727173773812,0.9001465,-0.19805908,0.3788452,0.421875,0.578125,0.453125
293,293,1727173773852,0.89453125,-0.19342041,0.35809326,-1.234375,-0.1875,0.40625
294,294,1727173773892,0.90649414,-0.20025635,0.37542725,-0.625,-1.203125,0.375
295,295,1727173773932,0.8989258,-0.18902588,0.36151123,-0.5625,-0.640625,0.234375
296,296,1727173773972,0.8989258,-0.18243408,0.37176514,-0.25,-0.640625,0.28125
297,297,1727173774012,0.8942871,-0.190979,0.37664795,-0.84375,-0.140625,0.296875
298,298,1727173774052,0.9069824,-0.190979,0.3895874,-0.671875,0.015625,0.109375
299,299,1727173774092,0.8967285,-0.19659424,0.38006592,-0.375,-0.28125,0.234375
300,300,1727173774132,0.8977051,-0.1951294,0.38372803,0.203125,-0.625,0.34375
301,301,1727173774172,0.8894043,-0.190979,0.3703003,1.046875,1.203125,0.359375
302,302,1727173774212,0.8913574,-0.19000244,0.36029053,0.5,2.78125,0.53125
303,303,1727173774252,0.8989258,-0.19390869,0.371521,1.3125,2.25,0.296875
304,304,1727173774292,0.89941406,-0.20245361,0.3764038,0.875,3.015625,0.265625
305,305,1727173774332,0.9013672,-0.19342041,0.37054443,1.03125,2.078125,0.140625
306,306,1727173774372,0.9020996,-0.20147705,0.36444092,0.953125,1.9375,0.265625
307,307,1727173774412,0.89990234,-0.19268799,0.36590576,0.265625,1.453125,0.5
308,308,1727173774452,0.9025879,-0.19537354,0.3600464,0.359375,2.390625,0.359375
309,309,1727173774492,0.8918457,-0.1975708,0.35980225,0.890625,3.5625,0.171875
310,310,1727173774532,0.9123535,-0.1975708,0.34613037,0.953125,2.75,0.4375
311,311,1727173774572,0.90063477,-0.21368408,0.36688232,2.1875,5.609375,0.40625
312,312,1727173774612,0.89819336,-0.2000122,0.3390503,-0.078125,4.921875,0.484375
313,313,1727173774652,0.91918945,-0.2107544,0.3505249,1.09375,3.078125,0.328125
314,314,1727173774692,0.90405273,-0.19390869,0.338562,0.625,2.375,0.484375
315,315,1727173774732,0.9104004,-0.18756104,0.33221436,0.421875,2.28125,0.90625
316,316,1727173774772,0.9091797,-0.19781494,0.3307495,0.21875,3.0625,0.359375
317,317,1727173774812,0.9206543,-0.20928955,0.3295288,0.921875,3.390625,0.375
318,318,1727173774852,0.904541,-0.20513916,0.33319092,1.015625,2.5,0.46875
319,319,1727173774892,0.90844727,-0.19683838,0.31292725,-0.484375,1.765625,0.640625
320,320,1727173774932,0.91845703,-0.206604,0.3217163,0.3125,2.78125,0.390625
321,321,1727173774972,0.9082031,-0.19415283,0.31878662,0.6875,4.265625,0.3125
322,322,1727173775012,0.92456055,-0.19976807,0.3151245,0.34375,3.71875,0.59375
323,323,1727173775052,0.9082031,-0.20220947,0.31903076,0.28125,2.8125,0.6875
324,324,1727173775092,0.9133301,-0.20367432,0.31072998,0.015625,1.84375,0.890625
325,325,1727173775132,0.9128418,-0.19781494,0.3078003,-0.15625,2.375,0.84375
326,326,1727173775172,0.91430664,-0.19952393,0.31463623,0.265625,2.703125,0.421875
327,327,1727173775212,0.9189453,-0.20367432,0.30047607,0.171875,2.265625,0.578125
328,328,1727173775252,0.90844727,-0.19610596,0.2987671,0.828125,4.59375,0.203125
329,329,1727173775292,0.9248047,-0.19854736,0.27386475,0.3125,5.359375,0.625
330,330,1727173775332,0.92993164,-0.21588135,0.3102417,1.84375,5.953125,-0.40625
331,331,1727173775372,0.9099121,-0.18658447,0.27386475,-0.90625,2.125,0.875
332,332,1727173775412,0.9284668,-0.20318604,0.27752686,0.03125,5.03125,0.3125
333,333,1727173775452,0.9343262,-0.20611572,0.277771,0.796875,4.25,0.0625
334,334,1727173775492,0.9182129,-0.190979,0.26434326,-0.125,3.390625,0.328125
335,335,1727173775532,0.9289551,-0.19268799,0.2682495,-0.0625,2.796875,0.609375
336,336,1727173775572,0.9272461,-0.1987915,0.27093506,-0.421875,2.390625,0.765625
337,337,1727173775612,0.92285156,-0.1987915,0.2670288,-0.140625,1.984375,0.65625
338,338,1727173775652,0.91796875,-0.19439697,0.26361084,-0.28125,0.9375,0.609375
339,339,1727173775692,0.9267578,-0.20025635,0.26141357,0.203125,2.25,0.265625
340,340,1727173775732,0.9309082,-0.20098877,0.25457764,0.3125,3.171875,0.0625
341,341,1727173775772,0.9206543,-0.18951416,0.25360107,-0.046875,2.671875,0.0625
342,342,1727173775812,0.9289551,-0.19952393,0.25091553,0.125,2.390625,0.34375
343,343,1727173775852,0.93188477,-0.19781494,0.24554443,-0.078125,2.3125,0.0
344,344,1727173775892,0.93066406,-0.20220947,0.24505615,0.078125,2.578125,0.0
345,345,1727173775932,0.93066406,-0.19415283,0.24334717,-0.203125,2.53125,0.3125
346,346,1727173775972,0.9338379,-0.19561768,0.2387085,-0.359375,2.703125,0.671875
347,347,1727173776012,0.92749023,-0.20123291,0.246521,0.25,2.46875,0.359375
348,348,1727173776052,0.92578125,-0.19390869,0.23529053,-0.4375,2.265625,0.5625
349,349,1727173776092,0.92871094,-0.19732666,0.23968506,-0.3125,2.625,0.25
350,350,1727173776132,0.9421387,-0.18804932,0.2411499,-0.171875,2.65625,-0.84375
351,351,1727173776172,0.9238281,-0.19854736,0.24090576,-0.40625,-0.125,0.453125
352,352,1727173776212,0.9248047,-0.19659424,0.22479248,-0.953125,1.078125,0.40625
353,353,1727173776252,0.9440918,-0.2078247,0.24212646,0.171875,3.703125,0.0625
354,354,1727173776292,0.92407227,-0.19610596,0.23236084,-0.578125,1.296875,0.21875
355,355,1727173776332,0.9328613,-0.19293213,0.22991943,-1.0,0.5625,0.53125
356,356,1727173776372,0.9355469,-0.20391846,0.23309326,-1.03125,-0.265625,0.25
357,357,1727173776412,0.9448242,-0.20391846,0.2333374,-3.125,-3.671875,0.453125
358,358,1727173776452,0.921875,-0.1951294,0.23773193,-3.234375,-5.125,0.09375
359,359,1727173776492,0.93310547,-0.19390869,0.24432373,-3.03125,-2.875,0.15625
360,360,1727173776532,0.92871094,-0.19708252,0.2592163,-1.328125,-0.390625,0.15625
361,361,1727173776572,0.92333984,-0.18927002,0.26483154,-1.40625,-3.234375,0.25
362,362,1727173776612,0.92211914,-0.18609619,0.25701904,-2.234375,-3.078125,-0.046875
363,363,1727173776652,0.9338379,-0.20513916,0.27630615,-1.78125,-3.09375,-0.46875
364,364,1727173776692,0.9279785,-0.1921997,0.27581787,-2.296875,-4.546875,0.1875
365,365,1727173776732,0.91552734,-0.19366455,0.2789917,-2.375,-4.625,0.0
366,366,1727173776772,0.9177246,-0.19024658,0.28656006,-1.84375,-3.265625,0.28125
367,367,1727173776812,0.92041016,-0.19927979,0.29974365,-1.171875,-2.84375,0.03125
368,368,1727173776852,0.9250488,-0.19610596,0.30511475,-1.21875,-4.125,0.125
369,369,1727173776892,0.91796875,-0.19171143,0.30023193,-1.90625,-4.125,0.265625
370,370,1727173776932,0.91918945,-0.19683838,0.3156128,-1.734375,-2.109375,0.15625
371,371,1727173776972,0.91430664,-0.19342041,0.30340576,-1.390625,-1.796875,0.03125
372,372,1727173777012,0.9267578,-0.19366455,0.33392334,-0.296875,-0.171875,-0.25
373,373,1727173777052,0.89697266,-0.18609619,0.30047607,-2.828125,-1.890625,0.734375
374,374,1727173777092,0.92211914,-0.19781494,0.34295654,-1.453125,-3.640625,0.171875
375,375,1727173777132,0.9160156,-0.1951294,0.32904053,-2.03125,-4.359375,0.140625
376,376,1727173777172,0.9020996,-0.18023682,0.33319092,-1.0,-2.09375,0.09375
377,377,1727173777212,0.90356445,-0.18511963,0.3522339,-1.125,-1.15625,0.375
378,378,1727173777252,0.91796875,-0.1963501,0.35003662,-0.890625,-3.453125,0.109375
379,379,1727173777292,0.89697266,-0.19122314,0.34295654,-1.21875,-1.515625,0.125
380,380,1727173777332,0.90722656,-0.19732666,0.36566162,-1.84375,-3.875,0.359375
381,381,1727173777372,0.90527344,-0.18682861,0.3637085,-1.484375,-4.546875,0.0625
382,382,1727173777412,0.8996582,-0.18878174,0.37982178,-2.953125,-5.0625,0.390625
383,383,1727173777452,0.8989258,-0.1807251,0.37078857,-2.5,-3.828125,0.03125
384,384,1727173777492,0.8935547,-0.18878174,0.38909912,-2.390625,-3.046875,0.203125
385,385,1727173777532,0.90649414,-0.19049072,0.39471436,-2.328125,-4.703125,0.359375
386,386,1727173777572,0.890625,-0.18145752,0.38372803,-2.140625,-2.65625,-0.03125
387,387,1727173777612,0.8874512,-0.18463135,0.3937378,-0.984375,-1.015625,0.1875
388,388,1727173777652,0.8979492,-0.1873169,0.4171753,-0.4375,-1.015625,0.234375
389,389,1727173777692,0.88500977,-0.18292236,0.4015503,-1.1875,-0.25,0.28125
390,390,1727173777732,0.8894043,-0.18707275,0.40057373,-0.53125,-0.453125,0.203125
391,391,1727173777772,0.8811035,-0.18780518,0.3961792,-1.609375,-0.28125,0.4375
392,392,1727173777812,0.89160156,-0.20050049,0.42645264,-0.03125,1.0,0.15625
393,393,1727173777852,0.88061523,-0.18170166,0.4015503,-1.546875,-0.359375,0.453125
394,394,1727173777892,0.87719727,-0.19195557,0.41619873,-0.359375,0.171875,0.40625
395,395,1727173777932,0.8937988,-0.17974854,0.4088745,-0.625,-0.125,0.203125
396,396,1727173777972,0.8796387,-0.1921997,0.41644287,0.3125,1.59375,0.09375
397,397,1727173778012,0.88720703,-0.18341064,0.41693115,0.0,1.078125,0.1875
398,398,1727173778052,0.904541,-0.1885376,0.4130249,-1.40625,-0.515625,0.15625
399,399,1727173778092,0.88427734,-0.18267822,0.4118042,-1.40625,0.078125,0.109375
400,400,1727173778132,0.8859863,-0.18292236,0.40911865,-0.75,-0.484375,0.1875
401,401,1727173778172,0.88720703,-0.18365479,0.40716553,0.03125,1.890625,0.015625
402,402,1727173778212,0.88549805,-0.18536377,0.4130249,0.609375,2.453125,-0.03125
403,403,1727173778252,0.888916,-0.19000244,0.4081421,-0.21875,1.90625,0.390625
404,404,1727173778292,0.89575195,-0.17486572,0.3944702,-0.078125,1.859375,-0.03125
405,405,1727173778332,0.8833008,-0.18804932,0.40252686,-0.265625,3.390625,-0.09375
406,406,1727173778372,0.8979492,-0.1831665,0.41156006,0.421875,3.421875,-0.078125
407,407,1727173778412,0.8852539,-0.19171143,0.39642334,0.46875,3.828125,0.140625
408,408,1727173778452,0.89208984,-0.1897583,0.39788818,0.90625,4.71875,0.265625
409,409,1727173778492,0.8823242,-0.18878174,0.39154053,1.90625,5.703125,0.109375
410,410,1727173778532,0.89819336,-0.19415283,0.38201904,2.546875,4.46875,-0.09375
411,411,1727173778572,0.89453125,-0.19561768,0.3944702,2.015625,3.3125,-0.15625
412,412,1727173778612,0.89086914,-0.18560791,0.3554077,-1.234375,3.96875,0.40625
413,413,1727173778652,0.9074707,-0.19244385,0.3764038,1.859375,4.0625,0.421875
414,414,1727173778692,0.8972168,-0.19927979,0.36883545,1.375,5.015625,0.296875
415,415,1727173778732,0.9055176,-0.18951416,0.35736084,1.828125,4.515625,0.359375
416,416,1727173778772,0.907959,-0.2029419,0.35198975,1.4375,4.4375,0.234375
417,417,1727173778812,0.9030762,-0.19781494,0.35687256,0.96875,4.203125,0.546875
418,418,1727173778852,0.9067383,-0.19464111,0.35198975,1.53125,2.453125,0.46875
419,419,1727173778892,0.89208984,-0.20098877,0.3390503,0.0625,1.375,0.671875
420,420,1727173778932,0.90527344,-0.19708252,0.35150146,1.140625,3.078125,0.46875
421,421,1727173778972,0.9082031,-0.1975708,0.33929443,1.5,3.609375,0.25
422,422,1727173779012,0.90283203,-0.19732666,0.33563232,0.859375,3.65625,0.359375
423,423,1727173779052,0.91186523,-0.19830322,0.33441162,0.75,3.59375,0.375
424,424,1727173779092,0.90966797,-0.19586182,0.32733154,0.46875,3.359375,0.328125
425,425,1727173779132,0.91308594,-0.20196533,0.32391357,0.109375,3.546875,0.453125
426,426,1727173779172,0.9116211,-0.1987915,0.32440186,1.046875,3.078125,0.265625
427,427,1727173779212,0.9082031,-0.19805908,0.3085327,0.21875,3.46875,0.3125
428,428,1727173779252,0.91064453,-0.20245361,0.31097412,1.328125,5.046875,0.359375
429,429,1727173779292,0.91967773,-0.19927979,0.2929077,0.34375,5.0,0.328125
430,430,1727173779332,0.9243164,-0.21295166,0.3222046,2.0625,5.40625,0.546875
431,431,1727173779372,0.9104004,-0.19708252,0.2741089,-0.953125,1.984375,0.828125
432,432,1727173779412,0.92407227,-0.20562744,0.30340576,0.984375,5.34375,0.078125
433,433,1727173779452,0.92163086,-0.20098877,0.28851318,0.1875,2.515625,0.21875
434,434,1727173779492,0.9255371,-0.20220947,0.2855835,-0.390625,2.109375,-0.0625
435,435,1727173779532,0.9248047,-0.19610596,0.28826904,-0.25,1.71875,0.40625
436,436,1727173779572,0.920166,-0.20758057,0.28704834,-0.21875,1.953125,0.171875
437,437,1727173779612,0.9230957,-0.20587158,0.28582764,0.15625,1.421875,0.359375
438,438,1727173779652,0.9121094,-0.1987915,0.2741089,-0.25,0.546875,0.59375
439,439,1727173779692,0.91796875,-0.19952393,0.28363037,0.09375,2.171875,0.359375
440,440,1727173779732,0.9238281,-0.1963501,0.27459717,0.203125,2.109375,0.125
441,441,1727173779772,0.9250488,-0.19805908,0.2765503,-0.234375,2.28125,0.359375
442,442,1727173779812,0.9289551,-0.2000122,0.27508545,0.234375,2.5625,0.28125
443,443,1727173779852,0.92285156,-0.19830322,0.27508545,0.5625,2.671875,0.375
444,444,1727173779892,0.92285156,-0.19927979,0.2675171,0.28125,3.046875,0.328125
445,445,1727173779932,0.92749023,-0.20147705,0.27093506,0.171875,2.328125,0.015625
446,446,1727173779972,0.921875,-0.20050049,0.26507568,0.375,2.5625,0.078125
447,447,1727173780012,0.92529297,-0.19317627,0.2592163,-0.125,2.203125,0.40625
448,448,1727173780052,0.9291992,-0.19390869,0.2662964,0.734375,3.375,-0.015625
449,449,1727173780092,0.9248047,-0.1975708,0.24920654,-1.1875,2.625,0.09375
450,450,1727173780132,0.92822266,-0.20587158,0.27215576,0.90625,2.78125,0.203125
451,451,1727173780172,0.9223633,-0.19805908,0.23529053,-0.859375,1.359375,0.375
452,452,1727173780212,0.93408203,-0.21173096,0.2514038,-0.34375,4.390625,0.375
453,453,1727173780252,0.92822266,-0.19708252,0.2506714,-0.25,1.890625,0.328125
454,454,1727173780292,0.91967773,-0.20269775,0.24407959,-0.390625,1.796875,0.21875
455,455,1727173780332,0.9338379,-0.2029419,0.2501831,-0.296875,1.515625,0.453125
456,456,1727173780372,0.9326172,-0.20855713,0.24188232,-0.515625,0.453125,-0.03125
457,457,1727173780412,0.9238281,-0.206604,0.24993896,-0.734375,0.0625,0.4375
458,458,1727173780452,0.9313965,-0.20489502,0.23895264,-1.375,-1.15625,0.296875
459,459,1727173780492,0.93188477,-0.2131958,0.25457764,-1.375,-0.15625,0.265625
460,460,1727173780532,0.92993164,-0.19976807,0.2501831,-2.21875,-1.375,0.15625
461,461,1727173780572,0.92626953,-0.19830322,0.25701904,-1.5,-0.875,0.0625
462,462,1727173780612,0.93188477,-0.19342041,0.25579834,-1.125,0.015625,-0.03125
463,463,1727173780652,0.9243164,-0.19927979,0.26531982,-1.0,-1.15625,-0.34375
464,464,1727173780692,0.9226074,-0.20562744,0.26361084,-0.9375,-0.484375,-0.171875
465,465,1727173780732,0.92578125,-0.20050049,0.26239014,-0.546875,-0.734375,0.0625
466,466,1727173780772,0.9135742,-0.19927979,0.26263428,-0.875,-0.828125,0.078125
467,467,1727173780812,0.9328613,-0.20050049,0.27093506,-0.734375,-1.25,-0.21875
468,468,1727173780852,0.9206543,-0.20098877,0.2682495,-0.6875,-1.546875,-0.203125
469,469,1727173780892,0.920166,-0.19927979,0.27288818,-0.46875,0.234375,-0.03125
470,470,1727173780932,0.9206543,-0.19464111,0.27166748,-0.296875,-0.546875,0.0
471,471,1727173780972,0.9309082,-0.20196533,0.2814331,-0.65625,-1.296875,-0.34375
472,472,1727173781012,0.9147949,-0.21099854,0.28631592,-0.375,-1.09375,0.515625
473,473,1727173781052,0.9140625,-0.20733643,0.27313232,-0.75,-0.25,0.15625
474,474,1727173781092,0.93066406,-0.20562744,0.29388428,0.109375,0.328125,-0.078125
475,475,1727173781132,0.9267578,-0.20758057,0.28753662,-0.40625,-1.609375,0.171875
476,476,1727173781172,0.92163086,-0.20367432,0.29193115,-0.359375,-2.109375,-0.09375
477,477,1727173781212,0.9223633,-0.19805908,0.28729248,-1.125,-2.71875,0.09375
478,478,1727173781252,0.92211914,-0.20513916,0.30950928,-0.4375,-1.953125,-0.328125
479,479,1727173781292,0.9128418,-0.21099854,0.30047607,-1.25,-4.171875,-0.109375
480,480,1727173781332,0.90966797,-0.20855713,0.30706787,-0.78125,-2.953125,0.265625
481,481,1727173781372,0.90649414,-0.20318604,0.3085327,-0.46875,-1.5,0.109375
482,482,1727173781412,0.91503906,-0.19903564,0.31292725,-0.375,-2.40625,0.375
483,483,1727173781452,0.9001465,-0.20220947,0.31707764,-0.140625,-1.421875,0.125
484,484,1727173781492,0.9133301,-0.21026611,0.32318115,-1.328125,-1.875,0.640625
485,485,1727173781532,0.9147949,-0.20904541,0.32366943,-0.625,-2.296875,0.046875
486,486,1727173781572,0.90356445,-0.20074463,0.32806396,-1.625,-2.125,0.5
487,487,1727173781612,0.9147949,-0.19952393,0.33319092,-1.0625,-2.234375,0.359375
488,488,1727173781652,0.90063477,-0.2029419,0.34735107,-0.9375,-2.765625,0.359375
489,489,1727173781692,0.91503906,-0.20489502,0.3319702,-1.671875,-2.4375,0.453125
490,490,1727173781732,0.9003906,-0.20196533,0.34222412,-0.953125,-1.015625,0.09375
491,491,1727173781772,0.9033203,-0.206604,0.3468628,-0.828125,0.71875,0.21875
492,492,1727173781812,0.90283203,-0.21368408,0.36444092,0.890625,1.59375,0.203125
493,493,1727173781852,0.8942871,-0.20343018,0.34222412,-1.125,1.109375,0.34375
494,494,1727173781892,0.9116211,-0.2119751,0.3534546,0.4375,1.03125,0.28125
495,495,1727173781932,0.90063477,-0.20367432,0.33514404,0.46875,3.09375,0.03125
496,496,1727173781972,0.9123535,-0.20074463,0.35321045,0.71875,2.578125,0.125
497,497,1727173782012,0.9067383,-0.20465088,0.3505249,0.046875,1.71875,0.125
498,498,1727173782052,0.9187012,-0.21173096,0.35369873,0.328125,0.6875,0.125
499,499,1727173782092,0.90063477,-0.20635986,0.34710693,0.15625,0.296875,0.4375
500,500,1727173782132,0.9003906,-0.20391846,0.3397827,-0.78125,-0.4375,0.28125
501,501,1727173782172,0.90844727,-0.20074463,0.3348999,0.15625,1.453125,0.046875
502,502,1727173782212,0.89501953,-0.20318604,0.34075928,0.546875,2.796875,0.25
503,503,1727173782252,0.9082031,-0.20562744,0.33416748,0.5625,2.15625,0.140625
504,504,1727173782292,0.9025879,-0.20611572,0.34051514,1.65625,2.40625,0.203125
505,505,1727173782332,0.90283203,-0.20733643,0.33416748,0.625,1.765625,0.203125
506,506,1727173782372,0.9157715,-0.20880127,0.32855225,0.6875,0.96875,0.40625
507,507,1727173782412,0.91186523,-0.21539307,0.32806396,0.703125,2.1875,-0.109375
508,508,1727173782452,0.90283203,-0.21026611,0.3258667,0.046875,1.390625,0.453125
509,509,1727173782492,0.90625,-0.21026611,0.3151245,0.0,3.078125,0.484375
510,510,1727173782532,0.9050293,-0.21734619,0.3163452,1.625,5.5,0.296875
511,511,1727173782572,0.92993164,-0.20098877,0.33319092,2.140625,4.78125,0.21875
512,512,1727173782612,0.8996582,-0.21783447,0.31585693,1.546875,3.34375,1.109375
513,513,1727173782652,0.9140625,-0.20880127,0.30316162,-0.328125,3.890625,0.59375
514,514,1727173782692,0.9243164,-0.21514893,0.30511475,1.15625,4.25,0.4375
515,515,1727173782732,0.92089844,-0.20928955,0.2999878,0.890625,4.578125,0.4375
516,516,1727173782772,0.9140625,-0.20245361,0.29364014,0.46875,3.890625,0.453125
517,517,1727173782812,0.91845703,-0.21148682,0.29364014,0.140625,2.296875,0.34375
518,518,1727173782852,0.9291992,-0.21099854,0.2897339,-0.4375,0.78125,0.390625
519,519,1727173782892,0.9091797,-0.20977783,0.2909546,0.203125,0.890625,0.59375
520,520,1727173782932,0.91186523,-0.20855713,0.2838745,-0.09375,0.984375,1.09375
521,521,1727173782972,0.921875,-0.20489502,0.28363037,0.21875,2.6875,0.671875
522,522,1727173783012,0.9160156,-0.20489502,0.28631592,0.0625,2.4375,0.5625
523,523,1727173783052,0.91381836,-0.20977783,0.27264404,-0.109375,1.578125,0.765625
524,524,1727173783092,0.9267578,-0.20635986,0.2838745,0.265625,1.5625,0.578125
525,525,1727173783132,0.9189453,-0.20465088,0.2850952,-0.390625,1.046875,1.015625
526,526,1727173783172,0.92333984,-0.20587158,0.2802124,-0.578125,0.46875,0.875
527,527,1727173783212,0.92089844,-0.20245361,0.27459717,-0.765625,0.9375,0.40625
528,528,1727173783252,0.92529297,-0.20562744,0.27508545,-0.359375,2.609375,0.546875
529,529,1727173783292,0.9279785,-0.19781494,0.27801514,0.171875,2.34375,0.5625
530,530,1727173783332,0.920166,-0.20562744,0.26898193,0.0,3.4375,0.46875
531,531,1727173783372,0.9211426,-0.19854736,0.25213623,-0.171875,4.296875,0.671875
532,532,1727173783412,0.93530273,-0.21246338,0.28729248,1.5,4.265625,-0.359375
533,533,1727173783452,0.90966797,-0.19146729,0.25335693,-0.828125,-0.03125,0.9375
534,534,1727173783492,0.920166,-0.19952393,0.26287842,-0.875,2.0,0.65625
535,535,1727173783532,0.92407227,-0.21417236,0.26922607,-0.3125,3.03125,0.546875
536,536,1727173783572,0.9279785,-0.19049072,0.25579834,-0.3125,2.125,0.546875
537,537,1727173783612,0.920166,-0.20220947,0.2506714,-0.390625,1.984375,0.578125
538,538,1727173783652,0.93188477,-0.20367432,0.2555542,-0.609375,2.015625,0.453125
539,539,1727173783692,0.93188477,-0.20245361,0.26409912,-0.59375,2.234375,0.4375
540,540,1727173783732,0.92211914,-0.19952393,0.25482178,-0.640625,0.265625,0.375
541,541,1727173783772,0.92578125,-0.19976807,0.24993896,-0.453125,1.59375,0.34375
542,542,1727173783812,0.92456055,-0.19561768,0.24993896,0.03125,2.484375,0.546875
543,543,1727173783852,0.92993164,-0.20318604,0.24822998,-0.109375,2.3125,0.21875
544,544,1727173783892,0.92089844,-0.1963501,0.24700928,-0.25,2.59375,0.53125
545,545,1727173783932,0.92749023,-0.19195557,0.2514038,-0.046875,2.171875,0.3125
546,546,1727173783972,0.93188477,-0.19830322,0.24090576,-0.25,2.21875,0.296875
547,547,1727173784012,0.93530273,-0.20098877,0.23773193,-0.15625,1.859375,0.21875
548,548,1727173784052,0.9250488,-0.20050049,0.2411499,-0.421875,2.171875,0.171875
549,549,1727173784092,0.9367676,-0.20098877,0.24432373,-0.25,1.0625,0.15625
550,550,1727173784132,0.92871094,-0.2029419,0.24456787,-0.171875,1.53125,0.1875
551,551,1727173784172,0.92749023,-0.19342041,0.23968506,0.078125,1.734375,0.3125
552,552,1727173784212,0.93652344,-0.20611572,0.23358154,-0.140625,2.578125,0.109375
553,553,1727173784252,0.9248047,-0.20172119,0.2230835,0.234375,5.84375,0.390625
554,554,1727173784292,0.95043945,-0.19488525,0.24481201,1.765625,4.28125,-0.71875
555,555,1727173784332,0.92041016,-0.20953369,0.22479248,-1.25,-1.0,0.140625
556,556,1727173784372,0.9243164,-0.19732666,0.20941162,-2.015625,0.375,0.015625
557,557,1727173784412,0.9433594,-0.20709229,0.24188232,-0.25,0.359375,-0.75
558,558,1727173784452,0.93237305,-0.20050049,0.22576904,-1.578125,-1.09375,0.109375
559,559,1727173784492,0.9289551,-0.20050049,0.23431396,-1.484375,-0.3125,-0.390625
560,560,1727173784532,0.93603516,-0.20513916,0.24017334,-1.640625,-0.859375,-0.3125
561,561,1727173784572,0.92993164,-0.20098877,0.23138428,-1.90625,-0.6875,-0.5
562,562,1727173784612,0.9250488,-0.21124268,0.24090576,-1.140625,-0.859375,-0.25
563,563,1727173784652,0.9277344,-0.19830322,0.23919678,-0.578125,0.140625,-0.34375
564,564,1727173784692,0.9272461,-0.20074463,0.23553467,-0.125,0.859375,-0.65625
565,565,1727173784732,0.92822266,-0.20635986,0.24334717,-0.25,0.421875,-0.78125
566,566,1727173784772,0.9243164,-0.19073486,0.23626709,-0.296875,-0.265625,-0.625
567,567,1727173784812,0.9230957,-0.21368408,0.25042725,0.0,-0.171875,-0.578125
568,568,1727173784852,0.9284668,-0.20245361,0.24090576,-0.1875,-0.828125,-0.234375
569,569,1727173784892,0.9243164,-0.20562744,0.24749756,-0.234375,-1.203125,-0.25
570,570,1727173784932,0.92285156,-0.21246338,0.24871826,-0.453125,-1.59375,-0.0625
571,571,1727173784972,0.92749023,-0.22247314,0.25701904,-0.96875,-2.625,0.15625
572,572,1727173785012,0.92211914,-0.20880127,0.25579834,-1.65625,-3.875,-0.203125
573,573,1727173785052,0.91845703,-0.20587158,0.25872803,-1.640625,-3.078125,0.3125
574,574,1727173785092,0.92285156,-0.21173096,0.277771,-1.0,-2.28125,-0.234375
575,575,1727173785132,0.91381836,-0.20977783,0.25823975,-1.015625,-2.046875,0.03125
576,576,1727173785172,0.9260254,-0.22052002,0.29779053,0.484375,-0.53125,-0.40625
577,577,1727173785212,0.8991699,-0.20367432,0.26312256,-2.25,-2.6875,0.671875
578,578,1727173785252,0.92578125,-0.21636963,0.29437256,-0.8125,-1.3125,0.734375
579,579,1727173785292,0.92211914,-0.20928955,0.29437256,-1.5,-3.9375,0.8125
580,580,1727173785332,0.91137695,-0.20758057,0.2904663,-1.859375,-2.984375,0.703125
581,581,1727173785372,0.9135742,-0.21173096,0.30706787,-1.21875,-1.703125,0.75
582,582,1727173785412,0.9123535,-0.21148682,0.30145264,-1.140625,-2.65625,0.4375
583,583,1727173785452,0.9050293,-0.2107544,0.31219482,-1.8125,-1.984375,0.6875
584,584,1727173785492,0.91552734,-0.2000122,0.31732178,-0.984375,-3.46875,0.109375
585,585,1727173785532,0.9086914,-0.20391846,0.3078003,-1.421875,-2.078125,0.3125
586,586,1727173785572,0.9133301,-0.20440674,0.32244873,-0.328125,-1.1875,0.21875
587,587,1727173785612,0.9055176,-0.20196533,0.32537842,-0.96875,-1.484375,0.34375
588,588,1727173785652,0.9147949,-0.20587158,0.32806396,-1.625,-1.625,0.75
589,589,1727173785692,0.9111328,-0.20147705,0.33587646,-0.828125,-2.203125,0.21875
590,590,1727173785732,0.9094238,-0.19830322,0.3300171,-1.625,-3.0625,0.375
591,591,1727173785772,0.90893555,-0.20440674,0.34100342,-0.796875,-2.40625,0.09375
592,592,1727173785812,0.8977051,-0.19976807,0.33587646,-1.390625,-2.09375,0.40625
593,593,1727173785852,0.90527344,-0.20196533,0.34832764,-0.90625,-1.5,0.125
594,594,1727173785892,0.9003906,-0.19122314,0.35491943,-0.796875,-0.96875,0.3125
595,595,1727173785932,0.9133301,-0.20513916,0.3517456,-1.203125,-1.75,0.09375
596,596,1727173785972,0.89819336,-0.20709229,0.3661499,0.015625,-0.53125,0.109375
597,597,1727173786012,0.8984375,-0.2053833,0.35516357,-1.515625,-0.125,0.203125
598,598,1727173786052,0.9057617,-0.20855713,0.3768921,-0.640625,-0.90625,0.140625
599,599,1727173786092,0.8955078,-0.1987915,0.34588623,-0.6875,-0.734375,0.15625
600,600,1727173786132,0.9001465,-0.19903564,0.36029053,-0.625,0.28125,0.234375
601,601,1727173786172,0.89453125,-0.20440674,0.35858154,-0.546875,-0.546875,0.1875
602,602,1727173786212,0.9128418,-0.20904541,0.3690796,-0.703125,0.078125,-0.03125
603,603,1727173786252,0.904541,-0.20196533,0.36541748,-0.546875,-0.59375,0.453125
604,604,1727173786292,0.90112305,-0.19000244,0.3685913,-0.53125,-0.734375,0.0625
605,605,1727173786332,0.8935547,-0.19659424,0.35906982,-0.65625,1.71875,0.25
606,606,1727173786372,0.8955078,-0.2029419,0.3685913,0.828125,3.28125,-0.0625
607,607,1727173786412,0.8972168,-0.20465088,0.3612671,1.71875,3.28125,-0.015625
608,608,1727173786452,0.89697266,-0.20367432,0.35662842,0.390625,3.296875,0.234375
609,609,1727173786492,0.9050293,-0.20562744,0.36175537,1.0625,3.1875,0.328125
610,610,1727173786532,0.90478516,-0.20318604,0.35125732,0.390625,2.953125,0.875
611,611,1727173786572,0.90844727,-0.20440674,0.34735107,0.5,2.0625,0.5
612,612,1727173786612,0.90185547,-0.19781494,0.33294678,0.3125,4.78125,0.5
613,613,1727173786652,0.8977051,-0.20562744,0.338562,2.015625,6.84375,0.421875
614,614,1727173786692,0.9243164,-0.19927979,0.34857178,2.296875,3.171875,0.078125
615,615,1727173786732,0.9033203,-0.2107544,0.33758545,0.546875,1.5,0.6875
616,616,1727173786772,0.90649414,-0.20147705,0.32147217,-0.921875,3.171875,0.125
617,617,1727173786812,0.91918945,-0.21295166,0.33319092,0.9375,3.09375,0.203125
618,618,1727173786852,0.9030762,-0.19781494,0.324646,0.28125,2.796875,0.34375
619,619,1727173786892,0.91503906,-0.20025635,0.31732178,0.265625,2.453125,0.3125
620,620,1727173786932,0.91137695,-0.20758057,0.3168335,-0.09375,3.84375,0.578125
621,621,1727173786972,0.93310547,-0.2078247,0.31854248,-0.328125,2.71875,0.328125
622,622,1727173787012,0.9099121,-0.20587158,0.3078003,0.4375,1.65625,0.75
623,623,1727173787052,0.91308594,-0.20465088,0.3114624,0.296875,2.140625,0.65625
624,624,1727173787092,0.9230957,-0.2053833,0.29779053,0.671875,3.265625,0.65625
625,625,1727173787132,0.92163086,-0.20758057,0.2999878,0.75,4.421875,0.203125
626,626,1727173787172,0.91552734,-0.20220947,0.3012085,0.453125,4.375,0.828125
627,627,1727173787212,0.92089844,-0.20172119,0.29388428,0.046875,3.703125,0.734375
628,628,1727173787252,0.92041016,-0.206604,0.291687,-0.4375,4.03125,0.65625
629,629,1727173787292,0.9226074,-0.20367432,0.28948975,-0.03125,2.78125,0.515625
630,630,1727173787332,0.91552734,-0.20928955,0.277771,0.1875,2.84375,0.59375
631,631,1727173787372,0.91967773,-0.21051025,0.2765503,0.03125,3.71875,0.53125
632,632,1727173787412,0.9140625,-0.20220947,0.25457764,0.1875,5.578125,0.3125
633,633,1727173787452,0.9326172,-0.20489502,0.27947998,2.4375,5.671875,-0.765625
634,634,1727173787492,0.91308594,-0.2041626,0.25531006,-0.03125,1.90625,0.953125
635,635,1727173787532,0.920166,-0.19952393,0.2411499,-0.4375,2.78125,0.6875
636,636,1727173787572,0.94018555,-0.20147705,0.26483154,0.484375,4.734375,0.265625
637,637,1727173787612,0.9255371,-0.19976807,0.25164795,0.15625,3.796875,0.359375
638,638,1727173787652,0.9291992,-0.19464111,0.24700928,0.34375,3.296875,0.40625
639,639,1727173787692,0.92285156,-0.20465088,0.25482178,0.15625,2.578125,0.4375
640,640,1727173787732,0.9387207,-0.20245361,0.24334717,-1.03125,2.03125,0.5625
641,641,1727173787772,0.92993164,-0.20367432,0.24969482,0.140625,0.359375,0.390625
642,642,1727173787812,0.9277344,-0.20440674,0.23504639,-0.25,1.734375,0.640625
643,643,1727173787852,0.9277344,-0.20074463,0.23504639,0.15625,2.96875,0.3125
644,644,1727173787892,0.93310547,-0.20611572,0.23577881,0.59375,3.421875,0.171875
645,645,1727173787932,0.9304199,-0.1975708,0.23651123,0.671875,2.453125,0.28125
646,646,1727173787972,0.9289551,-0.20367432,0.23504639,0.484375,2.234375,0.328125
647,647,1727173788012,0.9279785,-0.20050049,0.22723389,0.34375,2.203125,0.40625
648,648,1727173788052,0.92871094,-0.20343018,0.22406006,0.171875,2.265625,0.09375
649,649,1727173788092,0.9367676,-0.19342041,0.2218628,0.171875,1.71875,0.28125
650,650,1727173788132,0.93237305,-0.19830322,0.22064209,-0.28125,1.28125,0.25
651,651,1727173788172,0.9301758,-0.20587158,0.22161865,-0.109375,2.578125,0.1875
652,652,1727173788212,0.9272461,-0.2078247,0.20306396,-0.8125,3.453125,0.34375
653,653,1727173788252,0.9404297,-0.21881104,0.24456787,0.15625,2.75,-0.125
654,654,1727173788292,0.9260254,-0.1963501,0.20428467,-2.390625,-1.546875,0.484375
655,655,1727173788332,0.93481445,-0.20733643,0.22454834,-2.078125,0.796875,0.109375
656,656,1727173788372,0.9355469,-0.20269775,0.23040771,-1.40625,-1.234375,0.15625
657,657,1727173788412,0.9243164,-0.19683838,0.21917725,-2.59375,-2.25,-0.015625
658,658,1727173788452,0.9375,-0.2029419,0.22601318,-2.21875,-1.828125,-0.078125
659,659,1727173788492,0.9301758,-0.21221924,0.2296753,-1.921875,-2.59375,-0.203125
660,660,1727173788532,0.92285156,-0.20587158,0.24163818,-2.0625,-2.25,-0.046875
661,661,1727173788572,0.9189453,-0.20147705,0.23773193,-2.515625,-4.078125,-0.109375
662,662,1727173788612,0.9309082,-0.2029419,0.24359131,-2.5,-0.75,-0.046875
663,663,1727173788652,0.9367676,-0.20147705,0.2633667,-1.03125,-0.484375,-0.734375
664,664,1727173788692,0.92041016,-0.2041626,0.24945068,-1.46875,-1.421875,-0.625
665,665,1727173788732,0.91918945,-0.19952393,0.2518921,-0.59375,0.765625,-0.234375
666,666,1727173788772,0.93188477,-0.21368408,0.2526245,-0.375,-0.03125,-0.4375
667,667,1727173788812,0.92529297,-0.20953369,0.2592163,0.078125,0.40625,-0.28125
668,668,1727173788852,0.9230957,-0.20880127,0.26116943,-0.421875,-0.875,0.0
669,669,1727173788892,0.92089844,-0.20245361,0.2616577,-0.625,-1.09375,-0.265625
670,670,1727173788932,0.9301758,-0.21417236,0.27215576,-0.171875,-2.03125,0.078125
671,671,1727173788972,0.9213867,-0.2107544,0.26849365,-0.921875,-2.890625,-0.0625
672,672,1727173789012,0.9230957,-0.21051025,0.27215576,-1.15625,-1.359375,-0.0625
673,673,1727173789052,0.9160156,-0.20098877,0.2682495,-1.234375,-0.609375,-0.03125
674,674,1727173789092,0.9243164,-0.20855713,0.2929077,0.28125,-0.515625,-0.46875
675,675,1727173789132,0.9057617,-0.20391846,0.27435303,-1.6875,-3.046875,0.359375
676,676,1727173789172,0.91918945,-0.21881104,0.2789917,-1.59375,-1.390625,0.234375
677,677,1727173789212,0.9250488,-0.21246338,0.29241943,-0.765625,-1.96875,-0.078125
678,678,1727173789252,0.91308594,-0.20269775,0.28948975,-0.421875,-0.640625,0.078125
679,679,1727173789292,0.91967773,-0.20367432,0.29510498,-0.25,-0.25,-0.25
680,680,1727173789332,0.90625,-0.2144165,0.3048706,-0.796875,-0.796875,-0.046875
681,681,1727173789372,0.91064453,-0.21710205,0.30291748,-0.5,-1.40625,-0.09375
682,682,1727173789412,0.9094238,-0.20977783,0.2994995,-1.3125,-2.375,0.0625
683,683,1727173789452,0.9157715,-0.2107544,0.3024292,-1.1875,-2.828125,0.3125
684,684,1727173789492,0.91748047,-0.20831299,0.3114624,-0.6875,-2.015625,-0.171875
685,685,1727173789532,0.9069824,-0.21051025,0.322937,-0.53125,-1.875,0.203125
686,686,1727173789572,0.9030762,-0.2041626,0.30999756,-1.203125,-2.296875,0.25
687,687,1727173789612,0.9140625,-0.21783447,0.33050537,-0.90625,-2.40625,0.140625
688,688,1727173789652,0.9050293,-0.2156372,0.324646,-1.0625,-2.984375,0.109375
689,689,1727173789692,0.9055176,-0.20440674,0.32733154,-0.71875,-1.0,0.328125
690,690,1727173789732,0.90722656,-0.2107544,0.3283081,-0.8125,-0.265625,0.0625
691,691,1727173789772,0.9050293,-0.21759033,0.33172607,-0.484375,-0.078125,-0.03125
692,692,1727173789812,0.9074707,-0.21002197,0.3414917,-0.390625,0.421875,0.28125
693,693,1727173789852,0.89624023,-0.21417236,0.32904053,-0.890625,-0.28125,0.234375
694,694,1727173789892,0.907959,-0.21490479,0.35565186,0.09375,0.53125,0.375
695,695,1727173789932,0.8959961,-0.20269775,0.32318115,-1.75,-0.515625,0.71875
696,696,1727173789972,0.89819336,-0.21759033,0.36273193,0.03125,0.109375,0.421875
697,697,1727173790012,0.9016113,-0.22003174,0.34832764,-1.0,-0.609375,0.484375
698,698,1727173790052,0.91064453,-0.20343018,0.340271,-0.328125,-0.53125,0.3125
699,699,1727173790092,0.8979492,-0.20343018,0.33831787,-0.78125,1.125,0.15625
700,700,1727173790132,0.9121094,-0.2131958,0.35565186,-0.328125,0.90625,0.4375
701,701,1727173790172,0.8847656,-0.21466064,0.34857178,-0.015625,0.34375,0.453125
702,702,1727173790212,0.89453125,-0.20733643,0.33538818,-0.875,0.1875,0.671875
703,703,1727173790252,0.90234375,-0.20587158,0.34344482,0.265625,1.03125,0.28125
704,704,1727173790292,0.90844727,-0.2131958,0.34466553,0.3125,1.78125,0.25
705,705,1727173790332,0.9104004,-0.20587158,0.3456421,0.65625,2.15625,0.34375
706,706,1727173790372,0.8996582,-0.20831299,0.34222412,0.234375,1.71875,0.28125
707,707,1727173790412,0.8996582,-0.20855713,0.34417725,0.3125,1.484375,0.59375
708,708,1727173790452,0.9025879,-0.20831299,0.34832764,0.46875,0.140625,0.78125
709,709,1727173790492,0.9025879,-0.20269775,0.33929443,-0.046875,0.875,0.53125
710,710,1727173790532,0.90405273,-0.21343994,0.33514404,-0.515625,1.484375,0.5625
711,711,1727173790572,0.91137695,-0.20953369,0.33758545,0.328125,2.875,0.453125
712,712,1727173790612,0.8984375,-0.21099854,0.3348999,0.828125,3.3125,0.84375
713,713,1727173790652,0.9248047,-0.19952393,0.33465576,0.859375,3.546875,0.515625
714,714,1727173790692,0.9008789,-0.20733643,0.3378296,1.5625,2.90625,1.15625
715,715,1727173790732,0.9003906,-0.2078247,0.32244873,-0.3125,3.6875,0.671875
716,716,1727173790772,0.9250488,-0.20684814,0.3295288,0.671875,1.90625,0.609375
717,717,1727173790812,0.9121094,-0.2119751,0.31536865,0.3125,3.1875,0.6875
718,718,1727173790852,0.90649414,-0.19805908,0.3156128,0.515625,3.6875,0.453125
719,719,1727173790892,0.9157715,-0.20733643,0.31121826,-0.015625,2.328125,0.453125
720,720,1727173790932,0.9172363,-0.21417236,0.31219482,-0.125,1.375,0.5
721,721,1727173790972,0.91625977,-0.21026611,0.3156128,0.125,0.90625,0.859375
722,722,1727173791012,0.9094238,-0.19805908,0.30682373,-0.015625,1.171875,0.9375
723,723,1727173791052,0.904541,-0.20513916,0.31072998,0.203125,2.828125,0.59375
724,724,1727173791092,0.91796875,-0.20172119,0.3024292,0.625,2.734375,0.53125
725,725,1727173791132,0.9121094,-0.2029419,0.3060913,0.453125,2.4375,0.75
726,726,1727173791172,0.92333984,-0.21514893,0.29974365,-0.21875,2.046875,0.234375
727,727,1727173791212,0.91796875,-0.20562744,0.28289795,-1.0,4.359375,0.125
728,728,1727173791252,0.91845703,-0.20220947,0.28729248,-0.9375,3.765625,0.375
729,729,1727173791292,0.9187012,-0.20391846,0.2909546,-0.171875,3.390625,0.71875
730,730,1727173791332,0.9248047,-0.19927979,0.28289795,0.546875,3.328125,1.1875
731,731,1727173791372,0.9160156,-0.2078247,0.28704834,0.25,3.515625,0.65625
732,732,1727173791412,0.92407227,-0.19805908,0.27557373,0.078125,1.96875,0.453125
733,733,1727173791452,0.91503906,-0.20318604,0.28363037,0.703125,3.296875,0.328125
734,734,1727173791492,0.9123535,-0.19537354,0.25604248,-0.0625,4.421875,0.53125
735,735,1727173791532,0.9367676,-0.21783447,0.27703857,1.78125,4.46875,-0.578125
736,736,1727173791572,0.9033203,-0.20074463,0.2597046,-0.25,1.453125,0.515625
737,737,1727173791612,0.9230957,-0.21051025,0.26385498,-0.6875,2.3125,0.5
738,738,1727173791652,0.9267578,-0.2144165,0.26727295,1.03125,3.984375,-0.109375
739,739,1727173791692,0.9226074,-0.19488525,0.25457764,-0.515625,3.015625,0.40625
740,740,1727173791732,0.9313965,-0.19903564,0.24920654,-0.15625,2.578125,0.25
741,741,1727173791772,0.92041016,-0.20489502,0.25286865,-0.15625,2.765625,0.40625
742,742,1727173791812,0.9355469,-0.19537354,0.2489624,-0.671875,2.0,0.265625
743,743,1727173791852,0.92993164,-0.20391846,0.25823975,-0.28125,0.0,0.25
744,744,1727173791892,0.9260254,-0.19976807,0.23919678,-0.734375,1.890625,0.609375
745,745,1727173791932,0.9243164,-0.20050049,0.25457764,0.3125,2.640625,0.296875
746,746,1727173791972,0.92871094,-0.2029419,0.24847412,-0.0625,2.625,0.1875
747,747,1727173792012,0.9272461,-0.20489502,0.23944092,-0.234375,2.375,0.21875
748,748,1727173792052,0.92871094,-0.20465088,0.24041748,0.015625,2.5625,0.359375
749,749,1727173792092,0.9328613,-0.19976807,0.23260498,-0.15625,2.59375,0.3125
750,750,1727173792132,0.935791,-0.19854736,0.23724365,-0.046875,1.71875,0.171875
751,751,1727173792172,0.9243164,-0.2041626,0.23797607,-0.328125,2.125,0.40625
752,752,1727173792212,0.93359375,-0.2029419,0.2387085,-0.125,1.71875,0.328125
753,753,1727173792252,0.9260254,-0.20098877,0.23309326,-0.4375,1.640625,0.03125
754,754,1727173792292,0.93237305,-0.2041626,0.22991943,-0.375,1.1875,0.375
755,755,1727173792332,0.9313965,-0.19830322,0.23040771,-0.296875,0.953125,0.265625
756,756,1727173792372,0.9382324,-0.20733643,0.23602295,-0.96875,0.171875,0.015625
757,757,1727173792412,0.93603516,-0.20513916,0.23162842,-1.828125,-1.296875,-0.140625
758,758,1727173792452,0.92211914,-0.20050049,0.23651123,-2.0,0.171875,-0.015625
759,759,1727173792492,0.9309082,-0.20245361,0.23699951,-0.90625,1.125,0.3125
