,Unnamed: 0,timestamp,accel_x,accel_y,accel_z,gyro_x,gyro_y,gyro_z
0,0,1727218199070,0.89746094,0.012145996,0.44403076,0.09375,-0.390625,0.40625
1,1,1727218199110,0.890625,0.008972168,0.44476318,-0.46875,-0.984375,0.09375
2,2,1727218199150,0.88061523,0.014343262,0.44085693,-0.296875,-1.015625,0.203125
3,3,1727218199190,0.88842773,0.012390137,0.45233154,-0.09375,-0.390625,-0.078125
4,4,1727218199230,0.88134766,0.004333496,0.447937,-0.59375,-0.171875,0.171875
5,5,1727218199270,0.8815918,0.013122559,0.47381592,1.390625,0.03125,-0.0625
6,6,1727218199310,0.88427734,0.018005371,0.43963623,-1.046875,1.515625,0.015625
7,7,1727218199350,0.8833008,0.026062012,0.45892334,-0.09375,1.203125,0.3125
8,8,1727218199390,0.8808594,0.015075684,0.44622803,0.671875,1.703125,0.546875
9,9,1727218199430,0.890625,0.022644043,0.45135498,0.375,1.078125,0.34375
10,10,1727218199470,0.88671875,0.015319824,0.4545288,0.421875,1.34375,0.25
11,11,1727218199510,0.88964844,0.014831543,0.44866943,0.265625,0.578125,0.15625
12,12,1727218199550,0.88549805,0.011413574,0.44207764,0.109375,0.453125,0.21875
13,13,1727218199590,0.88964844,0.014099121,0.43914795,0.453125,0.078125,0.125
14,14,1727218199630,0.88427734,0.018981934,0.45428467,-0.359375,-0.53125,0.09375
15,15,1727218199670,0.8859863,0.021911621,0.45013428,0.375,-0.203125,0.15625
16,16,1727218199710,0.8823242,0.010437012,0.4376831,0.5625,0.703125,0.578125
17,17,1727218199750,0.8823242,0.027038574,0.45721436,1.671875,-0.546875,0.8125
18,18,1727218199790,0.88183594,0.020202637,0.45159912,0.203125,0.265625,0.578125
19,19,1727218199830,0.8991699,0.018493652,0.44378662,0.171875,0.3125,0.09375
20,20,1727218199870,0.88916016,0.014099121,0.44940186,0.09375,0.109375,0.171875
21,21,1727218199910,0.8894043,0.015319824,0.44866943,-0.609375,-0.109375,-0.125
22,22,1727218199950,0.8859863,0.018005371,0.45062256,-0.359375,-0.15625,-0.03125
23,23,1727218199990,0.88916016,0.018737793,0.45477295,-0.5625,0.734375,-0.203125
24,24,1727218200030,0.88500977,0.024353027,0.46063232,-0.3125,0.75,-0.234375
25,25,1727218200070,0.8869629,0.023620605,0.449646,-0.171875,0.46875,0.015625
26,26,1727218200110,0.88305664,0.01776123,0.44891357,-0.375,0.9375,-0.140625
27,27,1727218200150,0.87646484,0.013366699,0.4533081,0.109375,0.140625,0.03125
28,28,1727218200190,0.9003906,0.023132324,0.45892334,-0.828125,1.21875,-0.171875
29,29,1727218200230,0.89404297,0.02166748,0.43255615,-1.046875,0.953125,-0.171875
30,30,1727218200270,0.8791504,0.020935059,0.4430542,-0.671875,1.296875,-0.15625
31,31,1727218200310,0.88305664,0.02508545,0.44866943,1.046875,2.21875,0.46875
32,32,1727218200350,0.89453125,0.018005371,0.44500732,0.03125,1.46875,0.484375
33,33,1727218200390,0.8894043,0.024353027,0.4459839,0.046875,0.984375,0.046875
34,34,1727218200430,0.892334,0.022644043,0.43914795,-0.125,0.3125,-0.015625
35,35,1727218200470,0.8898926,0.01776123,0.4454956,-0.15625,-0.03125,-0.140625
36,36,1727218200510,0.88427734,0.019226074,0.44354248,-0.4375,-0.140625,-0.234375
37,37,1727218200550,0.89086914,0.023132324,0.43963623,-0.5,-0.53125,-0.046875
38,38,1727218200590,0.8874512,0.023620605,0.44940186,-0.921875,0.015625,-0.25
39,39,1727218200630,0.8847656,0.019714355,0.44573975,0.921875,-0.0625,0.28125
40,40,1727218200670,0.88916016,0.02923584,0.45233154,0.390625,0.28125,0.171875
41,41,1727218200710,0.8876953,0.02166748,0.44354248,-0.34375,-0.015625,0.0
42,42,1727218200750,0.8869629,0.018981934,0.4442749,-0.265625,0.546875,-0.109375
43,43,1727218200790,0.89086914,0.022644043,0.4467163,-0.375,0.59375,-0.3125
44,44,1727218200830,0.8894043,0.02166748,0.44525146,-0.34375,0.34375,0.015625
45,45,1727218200870,0.8815918,0.023132324,0.4430542,-0.40625,0.34375,-0.046875
46,46,1727218200910,0.8828125,0.020446777,0.44818115,-0.421875,0.9375,0.109375
47,47,1727218200950,0.8869629,0.022155762,0.4472046,-0.1875,0.9375,0.359375
48,48,1727218200990,0.890625,0.024597168,0.44232178,-0.359375,0.515625,-0.015625
49,49,1727218201030,0.89575195,0.026062012,0.44378662,-0.28125,0.484375,0.015625
50,50,1727218201070,0.892334,0.023864746,0.4406128,-0.296875,0.625,0.03125
51,51,1727218201110,0.89624023,0.024597168,0.4418335,-0.6875,0.6875,0.109375
52,52,1727218201150,0.8947754,0.021911621,0.4459839,-0.46875,0.96875,-0.015625
53,53,1727218201190,0.8918457,0.030944824,0.4406128,-0.71875,1.265625,0.140625
54,54,1727218201230,0.8864746,0.018005371,0.44573975,0.390625,0.15625,0.234375
55,55,1727218201270,0.88623047,0.02557373,0.4389038,-0.484375,1.28125,-0.015625
56,56,1727218201310,0.8901367,0.020446777,0.4430542,-0.546875,1.671875,0.265625
57,57,1727218201350,0.8955078,0.019470215,0.43914795,0.078125,1.65625,0.390625
58,58,1727218201390,0.8955078,0.024597168,0.43475342,-0.296875,0.9375,0.09375
59,59,1727218201430,0.8955078,0.028015137,0.4381714,-0.21875,0.796875,-0.21875
60,60,1727218201470,0.88916016,0.025817871,0.43719482,-0.453125,0.0,-0.21875
61,61,1727218201510,0.8959961,0.018981934,0.43841553,-0.140625,0.328125,-0.078125
62,62,1727218201550,0.89208984,0.018737793,0.43621826,-0.46875,0.59375,-0.296875
63,63,1727218201590,0.8840332,0.025817871,0.43450928,-0.953125,0.1875,-0.375
64,64,1727218201630,0.89208984,0.028015137,0.43426514,-0.28125,-0.265625,-0.359375
65,65,1727218201670,0.8964844,0.022888184,0.4328003,-0.40625,1.953125,-0.09375
66,66,1727218201710,0.89160156,0.023132324,0.4310913,0.109375,0.921875,-0.40625
67,67,1727218201750,0.89331055,0.02947998,0.4335327,-0.5625,0.765625,-0.625
68,68,1727218201790,0.8989258,0.0211792,0.4262085,-0.78125,0.171875,-0.875
69,69,1727218201830,0.89282227,0.027770996,0.42840576,-0.40625,-0.265625,-0.46875
70,70,1727218201870,0.89501953,0.018737793,0.43304443,-0.390625,-0.03125,-0.21875
71,71,1727218201910,0.88671875,0.027526855,0.43597412,-0.359375,0.546875,-0.109375
72,72,1727218201950,0.89404297,0.01776123,0.4328003,0.0,0.296875,0.0625
73,73,1727218201990,0.8918457,0.024108887,0.4303589,-0.09375,0.109375,-0.109375
74,74,1727218202030,0.8901367,0.022888184,0.43743896,-0.09375,0.09375,-0.046875
75,75,1727218202070,0.89086914,0.02557373,0.42767334,-0.734375,-0.171875,-0.390625
76,76,1727218202110,0.8898926,0.019470215,0.43792725,-0.625,-0.21875,-0.4375
77,77,1727218202150,0.89453125,0.019958496,0.43597412,-0.453125,0.234375,-0.453125
78,78,1727218202190,0.89624023,0.02166748,0.43060303,-1.984375,1.859375,-0.84375
79,79,1727218202230,0.8955078,0.024841309,0.4257202,-0.96875,2.53125,-0.671875
80,80,1727218202270,0.88793945,0.023620605,0.4389038,0.125,2.953125,-0.6875
81,81,1727218202310,0.8991699,0.020202637,0.43011475,0.640625,2.09375,0.265625
82,82,1727218202350,0.8930664,0.020202637,0.41864014,0.703125,1.28125,0.171875
83,83,1727218202390,0.89819336,0.027526855,0.42303467,0.5,0.828125,-0.0625
84,84,1727218202430,0.9042969,0.018981934,0.42401123,-0.421875,-0.375,-0.5
85,85,1727218202470,0.89819336,0.014831543,0.41888428,-0.75,-0.84375,-0.59375
86,86,1727218202510,0.89819336,0.01776123,0.44232178,-0.171875,-1.453125,-0.625
87,87,1727218202550,0.89208984,0.0138549805,0.42547607,-1.640625,-2.28125,-0.859375
88,88,1727218202590,0.89160156,0.021911621,0.432312,-1.203125,-1.59375,-0.890625
89,89,1727218202630,0.88305664,0.015808105,0.4442749,0.0625,-0.46875,-0.171875
90,90,1727218202670,0.8925781,0.014343262,0.4303589,-0.625,-0.484375,-0.328125
91,91,1727218202710,0.8859863,0.021911621,0.4352417,-0.890625,-1.375,-0.359375
92,92,1727218202750,0.8955078,0.022644043,0.43548584,-1.0625,-0.234375,-0.546875
93,93,1727218202790,0.8935547,0.015808105,0.44500732,-1.09375,-0.8125,-0.90625
94,94,1727218202830,0.8845215,0.01751709,0.44378662,-1.546875,-0.546875,-0.859375
95,95,1727218202870,0.8898926,0.018981934,0.4442749,-1.25,-0.265625,-0.75
96,96,1727218202910,0.8847656,0.011657715,0.4442749,-1.3125,0.0,-0.65625
97,97,1727218202950,0.8840332,0.01751709,0.4430542,-1.015625,-0.203125,-0.46875
98,98,1727218202990,0.89404297,0.018249512,0.44866943,-1.4375,0.171875,-0.796875
99,99,1727218203030,0.888916,0.016784668,0.4310913,-1.078125,0.0625,-0.453125
100,100,1727218203070,0.88549805,0.015563965,0.44158936,-2.078125,0.65625,-0.609375
101,101,1727218203110,0.8847656,0.018249512,0.4430542,-0.34375,-0.78125,-0.609375
102,102,1727218203150,0.88183594,0.015075684,0.4454956,-1.390625,0.421875,-0.609375
103,103,1727218203190,0.88964844,0.020690918,0.45819092,-1.84375,-0.421875,-0.40625
104,104,1727218203230,0.8911133,0.015075684,0.43499756,-0.9375,-0.9375,-0.578125
105,105,1727218203270,0.8925781,0.019714355,0.4442749,-0.609375,-0.4375,-0.46875
106,106,1727218203310,0.89208984,0.018981934,0.44940186,-0.8125,-0.359375,-0.484375
107,107,1727218203350,0.88720703,0.014099121,0.4459839,-1.34375,-0.84375,-0.65625
108,108,1727218203390,0.8823242,0.015563965,0.4640503,-0.984375,-1.046875,-0.78125
109,109,1727218203430,0.87841797,0.012634277,0.44158936,-1.953125,-1.515625,-0.640625
110,110,1727218203470,0.8815918,0.020202637,0.45404053,-1.28125,-0.765625,-0.6875
111,111,1727218203510,0.875,0.01727295,0.4611206,0.078125,-0.09375,-0.296875
112,112,1727218203550,0.89086914,0.01751709,0.45281982,-0.09375,0.890625,0.0
113,113,1727218203590,0.8845215,0.007019043,0.44891357,0.09375,-0.125,0.03125
114,114,1727218203630,0.8815918,0.018737793,0.45111084,-0.21875,0.375,-0.25
115,115,1727218203670,0.87939453,0.014099121,0.45281982,-0.4375,0.0625,-0.4375
116,116,1727218203710,0.88378906,0.0072631836,0.4467163,-0.5625,0.265625,-0.28125
117,117,1727218203750,0.88256836,0.018737793,0.45526123,-0.046875,0.234375,-0.140625
118,118,1727218203790,0.8808594,0.013122559,0.46453857,0.5625,0.21875,0.078125
119,119,1727218203830,0.8823242,0.0119018555,0.45794678,0.71875,0.234375,0.1875
120,120,1727218203870,0.8930664,0.030700684,0.47113037,-0.6875,0.8125,-0.28125
121,121,1727218203910,0.88549805,0.0099487305,0.42645264,-0.6875,1.09375,-0.109375
122,122,1727218203950,0.8708496,0.019958496,0.47576904,1.140625,0.8125,0.28125
123,123,1727218203990,0.8898926,0.012390137,0.4545288,0.546875,1.46875,0.203125
124,124,1727218204030,0.8864746,0.01727295,0.45257568,0.859375,1.640625,0.1875
125,125,1727218204070,0.88964844,0.012145996,0.45794678,1.046875,1.515625,-0.03125
126,126,1727218204110,0.88183594,0.014099121,0.44622803,0.0625,0.859375,-0.171875
127,127,1727218204150,0.88305664,0.011413574,0.45233154,0.421875,0.578125,0.125
128,128,1727218204190,0.8901367,0.014099121,0.4586792,0.765625,0.203125,-0.0625
129,129,1727218204230,0.8869629,0.014831543,0.44744873,0.0,-0.546875,-0.015625
130,130,1727218204270,0.8786621,0.016296387,0.45526123,0.40625,-0.453125,0.046875
131,131,1727218204310,0.88427734,0.015319824,0.45843506,2.0,0.171875,0.671875
132,132,1727218204350,0.88720703,0.018981934,0.4701538,2.125,-0.171875,0.546875
133,133,1727218204390,0.88916016,0.010681152,0.44696045,0.765625,0.40625,0.71875
134,134,1727218204430,0.88427734,0.019470215,0.45281982,0.734375,0.578125,0.375
135,135,1727218204470,0.88256836,0.010192871,0.44940186,0.921875,0.03125,0.359375
136,136,1727218204510,0.88720703,0.0060424805,0.45599365,0.59375,-0.390625,0.40625
137,137,1727218204550,0.8847656,0.01361084,0.45941162,0.15625,-0.046875,0.203125
138,138,1727218204590,0.89086914,0.0119018555,0.45965576,0.265625,0.0,0.234375
139,139,1727218204630,0.8857422,0.014587402,0.4586792,0.390625,0.109375,0.328125
140,140,1727218204670,0.8925781,0.025817871,0.45941162,-0.015625,0.953125,0.0625
141,141,1727218204710,0.8852539,0.007019043,0.43841553,-0.1875,0.71875,0.078125
142,142,1727218204750,0.87719727,0.015563965,0.45648193,0.484375,1.03125,-0.03125
143,143,1727218204790,0.8864746,0.013122559,0.46038818,0.96875,1.578125,0.375
144,144,1727218204830,0.8894043,0.018737793,0.45257568,0.125,0.796875,0.375
145,145,1727218204870,0.8845215,0.022644043,0.4557495,0.59375,0.9375,0.03125
146,146,1727218204910,0.8913574,0.018249512,0.45672607,0.328125,0.734375,-0.078125
147,147,1727218204950,0.8874512,0.014587402,0.45111084,0.296875,0.640625,0.15625
148,148,1727218204990,0.8874512,0.019226074,0.46087646,0.5,0.171875,0.125
149,149,1727218205030,0.8864746,0.015808105,0.45428467,-0.0625,0.046875,-0.03125
150,150,1727218205070,0.8847656,0.020446777,0.45159912,-0.59375,-0.140625,-0.09375
151,151,1727218205110,0.8840332,0.023376465,0.46307373,0.921875,0.171875,0.203125
152,152,1727218205150,0.8898926,0.018981934,0.46600342,0.25,0.703125,0.265625
153,153,1727218205190,0.88061523,0.010681152,0.43914795,-0.171875,0.046875,0.15625
154,154,1727218205230,0.8847656,0.014587402,0.4533081,0.171875,0.171875,0.09375
155,155,1727218205270,0.8845215,0.014831543,0.45404053,0.125,0.296875,-0.140625
156,156,1727218205310,0.87841797,0.013366699,0.45892334,-0.3125,0.0,-0.015625
157,157,1727218205350,0.88842773,0.016296387,0.45184326,-0.375,-0.03125,-0.234375
158,158,1727218205390,0.88427734,0.019958496,0.4537964,-0.1875,0.5,0.03125
159,159,1727218205430,0.87890625,0.016540527,0.44866943,-0.09375,0.390625,-0.03125
160,160,1727218205470,0.8864746,0.014587402,0.45428467,0.296875,0.484375,-0.078125
161,161,1727218205510,0.8864746,0.011169434,0.45428467,0.15625,0.921875,-0.171875
162,162,1727218205550,0.88061523,0.016296387,0.4574585,0.234375,0.375,0.125
163,163,1727218205590,0.8886719,0.016540527,0.46624756,0.140625,0.484375,-0.484375
164,164,1727218205630,0.8886719,0.014099121,0.4430542,-1.15625,1.140625,0.0
165,165,1727218205670,0.87768555,0.014587402,0.45062256,-0.828125,0.734375,0.15625
166,166,1727218205710,0.88623047,0.00970459,0.45599365,1.1875,1.78125,0.078125
167,167,1727218205750,0.8959961,0.019958496,0.44866943,0.078125,0.8125,0.28125
168,168,1727218205790,0.8874512,0.01751709,0.45159912,0.171875,1.125,-0.21875
169,169,1727218205830,0.8847656,0.012878418,0.44622803,-0.1875,0.03125,-0.09375
170,170,1727218205870,0.8852539,0.015563965,0.45233154,-0.21875,0.171875,-0.203125
171,171,1727218205910,0.8935547,0.012145996,0.447937,-0.3125,0.015625,-0.25
172,172,1727218205950,0.8901367,0.014343262,0.44744873,-0.640625,0.0,-0.140625
173,173,1727218205990,0.88134766,0.012145996,0.44744873,-0.671875,0.25,-0.21875
174,174,1727218206030,0.8857422,0.014099121,0.4557495,1.0,0.625,0.25
175,175,1727218206070,0.892334,0.024597168,0.4550171,0.75,0.3125,0.28125
176,176,1727218206110,0.89208984,0.008972168,0.44354248,0.015625,-0.09375,0.0625
177,177,1727218206150,0.8845215,0.02166748,0.45159912,0.0625,0.625,-0.078125
178,178,1727218206190,0.8859863,0.014099121,0.44769287,-0.140625,0.171875,-0.234375
179,179,1727218206230,0.8852539,0.01361084,0.4508667,-0.328125,0.078125,-0.09375
180,180,1727218206270,0.88305664,0.016052246,0.4508667,-0.296875,0.0,-0.09375
181,181,1727218206310,0.8815918,0.014343262,0.4557495,-0.375,0.15625,-0.25
182,182,1727218206350,0.88500977,0.019226074,0.44818115,-0.265625,0.25,-0.109375
183,183,1727218206390,0.8857422,0.016784668,0.45111084,-0.34375,0.296875,-0.015625
184,184,1727218206430,0.88500977,0.016784668,0.45428467,-0.28125,0.234375,-0.015625
185,185,1727218206470,0.8845215,0.020202637,0.45477295,-0.1875,0.484375,-0.109375
186,186,1727218206510,0.8874512,0.011413574,0.45550537,-0.25,0.421875,0.015625
187,187,1727218206550,0.88305664,0.019714355,0.4508667,-0.078125,0.1875,-0.03125
188,188,1727218206590,0.8874512,0.013366699,0.45257568,-0.3125,0.453125,-0.0625
189,189,1727218206630,0.88623047,0.018981934,0.45306396,0.015625,0.1875,0.15625
190,190,1727218206670,0.89746094,0.024597168,0.4533081,-0.578125,0.65625,-0.328125
191,191,1727218206710,0.8881836,0.015319824,0.44378662,-0.765625,0.375,-0.03125
192,192,1727218206750,0.8803711,0.010192871,0.4520874,-0.5,0.796875,-0.125
193,193,1727218206790,0.8913574,0.015808105,0.45770264,0.828125,1.203125,0.046875
194,194,1727218206830,0.8894043,0.016052246,0.44622803,-0.0625,0.546875,0.03125
195,195,1727218206870,0.89038086,0.022155762,0.45477295,0.0,0.71875,-0.1875
196,196,1727218206910,0.88916016,0.017028809,0.45111084,-0.296875,0.25,-0.140625
197,197,1727218206950,0.8835449,0.016784668,0.45404053,-0.21875,-0.421875,-0.359375
198,198,1727218206990,0.8894043,0.0138549805,0.45941162,-0.234375,-0.359375,-0.109375
199,199,1727218207030,0.888916,0.011169434,0.44744873,-0.5625,-0.328125,-0.265625
200,200,1727218207070,0.8847656,0.0138549805,0.4545288,-0.78125,-0.5,-0.546875
201,201,1727218207110,0.88671875,0.014099121,0.46038818,0.59375,-0.15625,0.0
202,202,1727218207150,0.88305664,0.018249512,0.45599365,-0.296875,0.03125,-0.140625
203,203,1727218207190,0.8840332,0.014831543,0.45233154,-0.609375,-0.40625,-0.421875
204,204,1727218207230,0.88427734,0.015808105,0.4545288,-0.296875,0.140625,-0.234375
205,205,1727218207270,0.8942871,0.0048217773,0.4545288,-0.8125,-0.34375,-0.765625
206,206,1727218207310,0.8803711,0.013122559,0.45428467,-1.015625,-0.21875,-0.625
207,207,1727218207350,0.8811035,0.016052246,0.4557495,-1.078125,0.0,-0.625
208,208,1727218207390,0.8886719,0.013366699,0.45721436,-0.84375,-0.09375,-0.640625
209,209,1727218207430,0.8852539,0.01751709,0.44744873,-0.6875,-0.234375,-0.5625
210,210,1727218207470,0.88305664,0.023620605,0.4616089,-0.46875,-0.25,-0.359375
211,211,1727218207510,0.8820801,0.01776123,0.4557495,-0.34375,-0.390625,-0.28125
212,212,1727218207550,0.87939453,0.0119018555,0.45794678,-0.421875,-0.390625,-0.21875
213,213,1727218207590,0.8762207,0.019470215,0.46185303,-0.671875,-0.421875,-0.3125
214,214,1727218207630,0.87841797,0.007019043,0.4586792,-0.5,-0.5625,-0.15625
215,215,1727218207670,0.8796387,0.010681152,0.4557495,-1.25,-0.6875,-0.203125
216,216,1727218207710,0.8845215,0.0138549805,0.4821167,-0.15625,-0.9375,-0.65625
217,217,1727218207750,0.8881836,0.011657715,0.45648193,-1.734375,0.703125,-0.640625
218,218,1727218207790,0.876709,0.013122559,0.47039795,-0.765625,0.75,-0.078125
219,219,1727218207830,0.88183594,0.0036010742,0.45843506,-0.453125,0.546875,-0.3125
220,220,1727218207870,0.8869629,0.017028809,0.46331787,-0.46875,0.4375,-0.4375
221,221,1727218207910,0.8769531,0.018249512,0.46575928,-0.828125,0.25,-0.5
222,222,1727218207950,0.8811035,0.0119018555,0.4664917,-1.03125,-0.40625,-0.8125
223,223,1727218207990,0.88720703,0.008972168,0.46575928,-1.34375,-0.6875,-0.609375
224,224,1727218208030,0.8869629,0.0045776367,0.4598999,-0.921875,-0.796875,-0.546875
225,225,1727218208070,0.8791504,0.022399902,0.46380615,-1.140625,-0.703125,-0.671875
226,226,1727218208110,0.87524414,0.014831543,0.4718628,-0.109375,0.09375,-0.390625
227,227,1727218208150,0.8803711,0.007751465,0.4689331,0.609375,0.4375,0.0625
228,228,1727218208190,0.8742676,0.014343262,0.46820068,0.796875,-0.59375,0.21875
229,229,1727218208230,0.88061523,0.009216309,0.47235107,-0.046875,0.40625,-0.09375
230,230,1727218208270,0.88378906,0.015563965,0.46722412,-0.40625,0.453125,-0.40625
231,231,1727218208310,0.87524414,0.01361084,0.47161865,-0.5,-0.484375,-0.375
232,232,1727218208350,0.88183594,0.0138549805,0.47235107,-0.796875,-0.828125,-0.484375
233,233,1727218208390,0.87475586,0.011413574,0.4767456,-0.765625,-0.703125,-0.515625
234,234,1727218208430,0.87353516,0.015563965,0.4784546,-0.890625,-0.5625,-0.53125
235,235,1727218208470,0.87597656,0.01727295,0.47650146,-0.890625,-0.828125,-0.578125
236,236,1727218208510,0.8737793,0.0119018555,0.48236084,-0.984375,-0.375,-0.78125
237,237,1727218208550,0.86865234,0.014587402,0.46966553,-1.046875,-0.609375,-0.515625
238,238,1727218208590,0.86938477,0.010192871,0.48260498,-1.703125,-0.140625,-0.6875
239,239,1727218208630,0.8654785,0.009216309,0.48724365,-0.421875,-0.625,-0.453125
240,240,1727218208670,0.8635254,0.0119018555,0.4784546,-1.46875,0.96875,-0.609375
241,241,1727218208710,0.8774414,0.010192871,0.48968506,-0.953125,0.828125,-0.328125
242,242,1727218208750,0.8754883,0.008483887,0.46502686,-0.953125,0.421875,-0.515625
243,243,1727218208790,0.87231445,0.022888184,0.479187,-0.328125,0.46875,-0.515625
244,244,1727218208830,0.8713379,0.009216309,0.47406006,-0.8125,-0.0625,-0.46875
245,245,1727218208870,0.86694336,0.012878418,0.4784546,-0.765625,-0.421875,-0.453125
246,246,1727218208910,0.87280273,0.013122559,0.48114014,-0.84375,-0.296875,-0.46875
247,247,1727218208950,0.86572266,0.009460449,0.4664917,-1.03125,-0.890625,-0.296875
248,248,1727218208990,0.87646484,0.018737793,0.48065186,-0.234375,-0.171875,-0.265625
249,249,1727218209030,0.8688965,0.0119018555,0.48114014,0.53125,0.484375,0.0625
250,250,1727218209070,0.8691406,0.008972168,0.47357178,0.5,0.84375,0.265625
251,251,1727218209110,0.8623047,0.01776123,0.48773193,1.484375,-0.3125,0.484375
252,252,1727218209150,0.8664551,0.0079956055,0.48431396,0.375,0.671875,0.25
253,253,1727218209190,0.87353516,0.013366699,0.48651123,0.578125,0.46875,0.0625
254,254,1727218209230,0.8713379,0.010437012,0.48406982,0.234375,0.0,-0.046875
255,255,1727218209270,0.8730469,0.015319824,0.47943115,-0.0625,-0.171875,-0.03125
256,256,1727218209310,0.8742676,0.0138549805,0.48284912,0.15625,0.21875,0.140625
257,257,1727218209350,0.8720703,0.0099487305,0.48431396,0.59375,0.40625,0.296875
258,258,1727218209390,0.87060547,0.0138549805,0.48114014,0.984375,0.5,0.609375
259,259,1727218209430,0.8803711,0.010437012,0.48724365,-0.109375,1.265625,-0.109375
260,260,1727218209470,0.8769531,0.005554199,0.46453857,0.390625,0.734375,0.015625
261,261,1727218209510,0.86987305,0.010925293,0.4899292,1.171875,1.625,0.125
262,262,1727218209550,0.88012695,0.007751465,0.48895264,1.578125,2.3125,0.390625
263,263,1727218209590,0.87353516,0.011169434,0.4730835,1.375,1.71875,0.65625
264,264,1727218209630,0.88061523,0.010681152,0.48065186,1.203125,1.3125,0.375
265,265,1727218209670,0.87597656,0.013122559,0.47381592,0.9375,0.9375,0.234375
266,266,1727218209710,0.88012695,0.001159668,0.47113037,0.59375,0.859375,0.28125
267,267,1727218209750,0.87524414,0.0067749023,0.48797607,1.140625,0.609375,0.078125
268,268,1727218209790,0.87890625,0.010681152,0.47454834,-0.125,-0.34375,0.1875
269,269,1727218209830,0.876709,0.012145996,0.47088623,-0.078125,0.0625,-0.375
270,270,1727218209870,0.8676758,0.00970459,0.4833374,1.265625,0.640625,0.46875
271,271,1727218209910,0.87768555,0.012145996,0.4779663,0.671875,1.03125,0.515625
272,272,1727218209950,0.876709,0.011169434,0.4647827,0.703125,0.375,0.34375
273,273,1727218209990,0.8796387,0.012390137,0.47772217,0.328125,0.5625,0.078125
274,274,1727218210030,0.8786621,0.0040893555,0.4694214,0.421875,0.6875,-0.015625
275,275,1727218210070,0.87719727,0.011169434,0.47503662,0.15625,0.109375,-0.0625
276,276,1727218210110,0.87231445,0.009460449,0.47747803,-0.234375,0.28125,-0.03125
277,277,1727218210150,0.87402344,0.008972168,0.46990967,-0.1875,0.03125,0.03125
278,278,1727218210190,0.8720703,0.010925293,0.4730835,-0.109375,0.453125,0.03125
279,279,1727218210230,0.87597656,0.011169434,0.47161865,0.109375,0.625,0.03125
280,280,1727218210270,0.8713379,0.014587402,0.46990967,-0.203125,0.765625,0.046875
281,281,1727218210310,0.8781738,0.0026245117,0.46917725,0.046875,0.609375,0.125
282,282,1727218210350,0.876709,-6.1035156e-05,0.4623413,-0.78125,1.125,-0.078125
283,283,1727218210390,0.8725586,0.0072631836,0.47869873,0.453125,0.0,0.0625
284,284,1727218210430,0.87841797,0.012878418,0.4755249,-0.453125,1.078125,-0.3125
285,285,1727218210470,0.8815918,0.010192871,0.48187256,0.234375,1.640625,0.25
286,286,1727218210510,0.8835449,0.00579834,0.47039795,-0.171875,1.609375,0.359375
287,287,1727218210550,0.88061523,0.010192871,0.465271,0.015625,1.09375,-0.03125
288,288,1727218210590,0.875,0.008972168,0.4647827,0.03125,0.953125,-0.015625
289,289,1727218210630,0.8791504,0.01727295,0.46087646,-0.359375,0.578125,-0.296875
290,290,1727218210670,0.8796387,0.0065307617,0.46697998,-0.4375,0.140625,-0.171875
291,291,1727218210710,0.88427734,0.010925293,0.46453857,-0.640625,0.21875,-0.171875
292,292,1727218210750,0.88061523,0.012878418,0.46917725,-0.65625,0.0,-0.40625
293,293,1727218210790,0.87524414,0.010925293,0.4706421,0.015625,0.46875,0.0
294,294,1727218210830,0.8737793,0.008483887,0.4598999,-0.03125,1.03125,0.3125
295,295,1727218210870,0.8762207,0.012145996,0.46502686,0.28125,0.046875,0.21875
296,296,1727218210910,0.88378906,0.010925293,0.46624756,-0.125,0.546875,-0.140625
297,297,1727218210950,0.87719727,0.012145996,0.46551514,-0.09375,0.484375,-0.25
298,298,1727218210990,0.8815918,0.00579834,0.46380615,-0.609375,0.03125,-0.171875
299,299,1727218211030,0.8781738,0.01361084,0.46868896,-0.859375,-0.046875,-0.25
300,300,1727218211070,0.8781738,0.007019043,0.46551514,-0.53125,-0.28125,-0.21875
301,301,1727218211110,0.875,0.008728027,0.4689331,0.15625,0.34375,-0.03125
302,302,1727218211150,0.875,0.015808105,0.4730835,0.328125,2.9375,0.5
303,303,1727218211190,0.8869629,0.015808105,0.46600342,0.0,1.703125,0.390625
304,304,1727218211230,0.88061523,0.0065307617,0.45965576,-0.390625,0.78125,0.265625
305,305,1727218211270,0.8869629,0.007019043,0.46185303,-0.4375,0.9375,0.21875
306,306,1727218211310,0.88134766,0.011657715,0.4640503,-0.3125,0.25,0.15625
307,307,1727218211350,0.88012695,0.0045776367,0.4628296,-0.328125,0.609375,0.21875
308,308,1727218211390,0.8835449,0.013122559,0.45892334,-0.625,0.796875,0.40625
309,309,1727218211430,0.8845215,0.01727295,0.4689331,0.78125,-0.15625,-0.03125
310,310,1727218211470,0.8852539,0.018249512,0.45306396,-0.5,0.890625,-0.234375
311,311,1727218211510,0.8791504,0.01361084,0.4628296,-0.671875,0.671875,0.265625
312,312,1727218211550,0.88842773,0.0099487305,0.4562378,0.3125,1.28125,0.015625
313,313,1727218211590,0.8828125,0.010925293,0.45648193,0.265625,0.6875,0.15625
314,314,1727218211630,0.8859863,0.008483887,0.4557495,0.03125,0.59375,-0.15625
315,315,1727218211670,0.8840332,0.022644043,0.45770264,-0.265625,-0.234375,-0.21875
316,316,1727218211710,0.87646484,0.007019043,0.46429443,-0.109375,-0.125,-0.015625
317,317,1727218211750,0.8845215,0.018005371,0.45965576,0.4375,0.09375,0.15625
318,318,1727218211790,0.87402344,0.022399902,0.46795654,0.375,-0.140625,0.703125
319,319,1727218211830,0.88061523,0.015319824,0.46038818,0.359375,-0.34375,0.609375
320,320,1727218211870,0.8798828,0.020202637,0.45892334,0.6875,0.0,1.015625
321,321,1727218211910,0.8774414,0.02142334,0.46209717,0.90625,-0.5,1.1875
322,322,1727218211950,0.8666992,0.011657715,0.46038818,0.265625,0.34375,1.28125
323,323,1727218211990,0.88623047,0.02508545,0.4616089,0.140625,1.1875,0.5625
324,324,1727218212030,0.89404297,0.016784668,0.4586792,-0.6875,0.171875,-0.34375
325,325,1727218212070,0.88183594,0.020202637,0.4537964,-1.09375,-0.34375,-0.6875
326,326,1727218212110,0.8815918,0.016052246,0.46331787,-1.328125,-0.25,-1.09375
327,327,1727218212150,0.8815918,0.019958496,0.46331787,-1.015625,-0.15625,-0.765625
328,328,1727218212190,0.87719727,0.022888184,0.46624756,-1.015625,-0.09375,-0.53125
329,329,1727218212230,0.88305664,0.01776123,0.4640503,-0.65625,0.078125,-0.203125
330,330,1727218212270,0.88183594,0.027770996,0.46722412,-0.578125,0.359375,-0.15625
331,331,1727218212310,0.88134766,0.01776123,0.46673584,-1.0,0.359375,-0.296875
332,332,1727218212350,0.87109375,0.01727295,0.46624756,-0.546875,0.25,-0.265625
333,333,1727218212390,0.8808594,0.019958496,0.45819092,-1.46875,0.5,-0.546875
334,334,1727218212430,0.8823242,0.015319824,0.46014404,-0.625,-0.25,-0.578125
335,335,1727218212470,0.8820801,0.023132324,0.46868896,-0.984375,0.96875,-0.78125
336,336,1727218212510,0.8886719,0.023132324,0.47650146,-0.484375,1.734375,-0.171875
337,337,1727218212550,0.88183594,0.020446777,0.45672607,-0.28125,0.875,-0.046875
338,338,1727218212590,0.88183594,0.02166748,0.46966553,-0.078125,0.796875,-0.078125
339,339,1727218212630,0.88256836,0.023376465,0.46209717,-0.03125,0.40625,-0.125
340,340,1727218212670,0.8774414,0.016052246,0.4611206,-0.9375,-0.203125,-0.515625
341,341,1727218212710,0.8835449,0.008728027,0.47088623,-0.65625,-0.484375,-0.75
342,342,1727218212750,0.88500977,0.010925293,0.4508667,-1.703125,-0.59375,-0.65625
343,343,1727218212790,0.87597656,0.018737793,0.46697998,-0.96875,-0.859375,-0.78125
344,344,1727218212830,0.8769531,0.019714355,0.47479248,-0.296875,-0.0625,-0.5
345,345,1727218212870,0.8833008,0.01727295,0.46185303,-0.28125,0.3125,-0.15625
346,346,1727218212910,0.8754883,0.0211792,0.46868896,-0.15625,-0.8125,0.125
347,347,1727218212950,0.88378906,0.015563965,0.4694214,-0.796875,-0.40625,-0.3125
348,348,1727218212990,0.88012695,0.016784668,0.47381592,-1.28125,-0.390625,-0.765625
349,349,1727218213030,0.87597656,0.016296387,0.46697998,-1.359375,-0.84375,-0.5625
350,350,1727218213070,0.87597656,0.01751709,0.47210693,-1.40625,-1.078125,-0.828125
351,351,1727218213110,0.86987305,0.019226074,0.46844482,-1.328125,-0.65625,-0.703125
352,352,1727218213150,0.88427734,0.015808105,0.47821045,-1.0,-0.296875,-0.59375
353,353,1727218213190,0.88012695,0.018005371,0.4796753,-1.21875,-0.359375,-0.671875
354,354,1727218213230,0.86987305,0.015808105,0.4725952,-1.1875,-0.4375,-0.53125
355,355,1727218213270,0.8762207,0.012145996,0.46746826,-1.921875,-0.515625,-0.296875
356,356,1727218213310,0.87524414,0.01727295,0.49261475,-0.125,-0.484375,-0.828125
357,357,1727218213350,0.8781738,0.015808105,0.45843506,-2.203125,0.625,-0.59375
358,358,1727218213390,0.8769531,0.018249512,0.4882202,-0.75,0.640625,-0.234375
359,359,1727218213430,0.8769531,0.014831543,0.47381592,-0.65625,0.046875,-0.375
360,360,1727218213470,0.87719727,0.019470215,0.48065186,-0.765625,0.0625,-0.546875
361,361,1727218213510,0.8823242,0.019470215,0.4784546,-0.984375,-0.03125,-0.53125
362,362,1727218213550,0.87231445,0.016052246,0.47601318,-1.296875,-0.546875,-0.9375
363,363,1727218213590,0.87353516,0.011169434,0.4796753,-1.203125,-0.65625,-0.71875
364,364,1727218213630,0.8803711,0.010192871,0.46673584,-1.421875,-1.234375,-0.671875
365,365,1727218213670,0.8718262,0.019714355,0.4821167,-1.234375,-0.703125,-0.640625
366,366,1727218213710,0.8679199,0.018737793,0.4869995,-0.265625,0.140625,-0.328125
367,367,1727218213750,0.8703613,0.009460449,0.4796753,0.1875,0.28125,-0.03125
368,368,1727218213790,0.87158203,0.018737793,0.4923706,0.578125,-0.953125,-0.125
369,369,1727218213830,0.8691406,0.010437012,0.47698975,-1.046875,-0.359375,-0.453125
370,370,1727218213870,0.8703613,0.022155762,0.48944092,-1.03125,-0.296875,-0.875
371,371,1727218213910,0.86206055,0.016052246,0.4784546,-1.734375,-0.953125,-0.6875
372,372,1727218213950,0.8713379,0.019958496,0.48724365,-1.484375,-0.90625,-0.671875
373,373,1727218213990,0.86328125,0.020446777,0.49163818,-1.296875,-0.46875,-0.453125
374,374,1727218214030,0.86035156,0.018249512,0.4940796,-0.453125,-0.4375,-0.125
375,375,1727218214070,0.8708496,0.0099487305,0.47406006,-0.453125,-0.53125,0.078125
376,376,1727218214110,0.8664551,0.035339355,0.5204468,0.40625,-0.59375,-0.40625
377,377,1727218214150,0.8730469,0.014831543,0.45819092,-1.859375,0.625,0.015625
378,378,1727218214190,0.857666,0.020690918,0.49798584,2.0,1.84375,0.421875
379,379,1727218214230,0.8730469,0.0099487305,0.48846436,1.671875,1.28125,0.578125
380,380,1727218214270,0.8725586,0.024108887,0.49212646,1.6875,1.109375,0.53125
381,381,1727218214310,0.8737793,0.018981934,0.49383545,1.5,1.609375,0.390625
382,382,1727218214350,0.86743164,0.008972168,0.4862671,0.953125,0.96875,0.203125
383,383,1727218214390,0.87060547,0.010437012,0.48968506,0.875,0.984375,0.265625
384,384,1727218214430,0.87353516,0.007507324,0.4779663,1.453125,0.03125,0.171875
385,385,1727218214470,0.86743164,0.013122559,0.48284912,0.609375,0.171875,0.234375
386,386,1727218214510,0.8666992,0.011657715,0.48846436,0.71875,0.578125,-0.078125
387,387,1727218214550,0.8652344,0.002380371,0.47943115,1.53125,1.453125,0.421875
388,388,1727218214590,0.8635254,0.0211792,0.496521,2.046875,1.203125,0.375
389,389,1727218214630,0.8745117,0.0079956055,0.4804077,0.640625,1.046875,0.15625
390,390,1727218214670,0.87280273,0.015075684,0.47650146,1.0,0.6875,0.0625
391,391,1727218214710,0.87475586,0.011657715,0.48406982,0.8125,0.78125,0.203125
392,392,1727218214750,0.8781738,0.011169434,0.4784546,0.46875,0.265625,-0.0625
393,393,1727218214790,0.8737793,0.009216309,0.4850464,0.296875,0.734375,-0.140625
394,394,1727218214830,0.86743164,0.011169434,0.480896,0.234375,1.21875,-0.109375
395,395,1727218214870,0.873291,0.004333496,0.4706421,0.390625,0.96875,0.15625
396,396,1727218214910,0.8815918,0.019958496,0.49505615,0.9375,0.734375,-0.375
397,397,1727218214950,0.87768555,0.0065307617,0.46014404,-0.96875,1.5,0.078125
398,398,1727218214990,0.86450195,0.010437012,0.48284912,0.796875,1.96875,0.375
399,399,1727218215030,0.8781738,0.008728027,0.47479248,1.34375,1.90625,0.59375
400,400,1727218215070,0.88012695,0.015808105,0.4718628,0.8125,1.4375,0.5
401,401,1727218215110,0.87841797,0.01361084,0.47772217,0.875,1.578125,0.328125
402,402,1727218215150,0.8786621,0.014831543,0.4694214,0.359375,0.890625,0.390625
403,403,1727218215190,0.8781738,0.013366699,0.4628296,0.3125,0.875,0.125
404,404,1727218215230,0.88134766,0.010925293,0.47576904,0.765625,1.109375,0.15625
405,405,1727218215270,0.87768555,0.005554199,0.4664917,-0.21875,0.53125,-0.15625
406,406,1727218215310,0.8769531,0.008972168,0.4718628,-0.03125,0.671875,-0.171875
407,407,1727218215350,0.8679199,0.0099487305,0.47869873,1.0,1.328125,0.34375
408,408,1727218215390,0.8798828,0.014831543,0.4779663,1.25,1.5625,0.3125
409,409,1727218215430,0.8835449,0.0033569336,0.4550171,-0.171875,1.34375,0.375
410,410,1727218215470,0.8742676,0.007751465,0.4623413,0.21875,0.8125,0.171875
411,411,1727218215510,0.8786621,0.0138549805,0.46453857,0.125,0.734375,0.03125
412,412,1727218215550,0.8815918,0.0119018555,0.46380615,-0.53125,0.515625,0.015625
413,413,1727218215590,0.8796387,0.011657715,0.45794678,-0.1875,0.640625,-0.1875
414,414,1727218215630,0.88500977,0.008483887,0.46453857,0.0,1.015625,0.03125
415,415,1727218215670,0.87939453,0.011413574,0.46087646,-0.140625,0.65625,-0.015625
416,416,1727218215710,0.8847656,0.015319824,0.46575928,-0.03125,0.546875,0.125
417,417,1727218215750,0.8835449,0.008728027,0.46697998,0.09375,0.625,-0.03125
418,418,1727218215790,0.8823242,0.016540527,0.46038818,0.09375,0.5,-0.046875
419,419,1727218215830,0.87890625,0.010437012,0.46380615,-0.0625,0.671875,0.140625
420,420,1727218215870,0.8798828,0.014831543,0.46014404,0.109375,0.515625,-0.015625
421,421,1727218215910,0.8840332,0.017028809,0.46966553,0.109375,0.953125,-0.171875
422,422,1727218215950,0.8859863,0.0067749023,0.45672607,-0.84375,0.8125,0.078125
423,423,1727218215990,0.8725586,0.008483887,0.4562378,-0.5,1.234375,0.09375
424,424,1727218216030,0.8845215,0.011657715,0.45794678,1.09375,1.890625,0.359375
425,425,1727218216070,0.890625,0.014831543,0.45184326,0.359375,1.046875,0.390625
426,426,1727218216110,0.8798828,0.018493652,0.46014404,0.109375,0.71875,-0.140625
427,427,1727218216150,0.8786621,0.014587402,0.4569702,-0.125,0.21875,-0.03125
428,428,1727218216190,0.8798828,0.0099487305,0.45843506,-0.234375,0.0625,-0.375
429,429,1727218216230,0.88671875,0.0053100586,0.44744873,-0.328125,0.21875,-0.1875
430,430,1727218216270,0.88305664,0.0138549805,0.45428467,-0.625,0.09375,-0.125
431,431,1727218216310,0.88720703,0.013366699,0.45819092,-0.71875,0.375,-0.296875
432,432,1727218216350,0.8859863,0.008483887,0.46697998,0.859375,0.640625,0.078125
433,433,1727218216390,0.8852539,0.019958496,0.4574585,0.421875,0.640625,0.171875
434,434,1727218216430,0.8881836,0.011413574,0.45257568,-0.1875,0.546875,0.34375
435,435,1727218216470,0.8828125,0.008728027,0.45159912,0.09375,0.484375,0.046875
436,436,1727218216510,0.8859863,0.01751709,0.45159912,-0.078125,0.328125,-0.203125
437,437,1727218216550,0.87768555,0.01727295,0.46258545,-0.578125,-0.015625,-0.34375
438,438,1727218216590,0.88256836,0.015075684,0.4557495,-0.421875,0.0,-0.265625
439,439,1727218216630,0.8869629,0.011169434,0.45672607,-0.390625,-0.125,-0.15625
440,440,1727218216670,0.8859863,0.0079956055,0.4574585,-0.46875,0.015625,-0.328125
441,441,1727218216710,0.8779297,0.0119018555,0.45819092,-0.40625,0.03125,-0.3125
442,442,1727218216750,0.8835449,0.01727295,0.46087646,-0.359375,0.046875,-0.25
443,443,1727218216790,0.88305664,0.007751465,0.46038818,-0.1875,0.21875,-0.296875
444,444,1727218216830,0.8815918,0.0119018555,0.4574585,-0.390625,0.125,-0.171875
445,445,1727218216870,0.87841797,0.0138549805,0.45672607,-0.375,-0.078125,-0.171875
446,446,1727218216910,0.8886719,0.009460449,0.46038818,-0.328125,0.203125,-0.25
447,447,1727218216950,0.88378906,0.01361084,0.44476318,-0.921875,0.078125,-0.3125
448,448,1727218216990,0.88256836,0.018249512,0.46624756,-0.40625,0.015625,-0.703125
449,449,1727218217030,0.88500977,0.016296387,0.4472046,-1.546875,1.03125,-0.28125
450,450,1727218217070,0.87939453,0.011169434,0.46014404,-0.9375,1.21875,-0.25
451,451,1727218217110,0.8859863,0.00579834,0.45306396,0.0,0.984375,-0.09375
452,452,1727218217150,0.8952637,0.014343262,0.45013428,-0.375,0.40625,-0.140625
453,453,1727218217190,0.8811035,0.016784668,0.46307373,-0.671875,0.71875,-0.453125
454,454,1727218217230,0.8847656,0.016784668,0.45233154,-0.765625,-0.125,-0.453125
455,455,1727218217270,0.8803711,0.016540527,0.45428467,-1.046875,-0.375,-0.515625
456,456,1727218217310,0.888916,0.011413574,0.463562,-0.515625,-0.296875,-0.4375
457,457,1727218217350,0.8859863,0.012634277,0.45135498,-1.234375,-0.5,-0.359375
458,458,1727218217390,0.8808594,0.020202637,0.463562,-0.625,-0.203125,-0.375
459,459,1727218217430,0.87475586,0.013122559,0.4694214,0.484375,0.5625,-0.046875
460,460,1727218217470,0.88378906,0.014831543,0.4647827,-0.015625,0.0,-0.15625
461,461,1727218217510,0.8779297,0.010192871,0.4640503,-0.703125,-0.1875,-0.296875
462,462,1727218217550,0.88134766,0.018981934,0.45965576,-0.75,0.3125,-0.3125
463,463,1727218217590,0.8774414,0.012634277,0.46258545,-1.109375,-0.015625,-0.671875
464,464,1727218217630,0.8754883,0.011169434,0.4640503,-1.390625,-0.40625,-0.390625
465,465,1727218217670,0.8803711,0.010681152,0.4640503,-1.203125,-0.296875,-0.640625
466,466,1727218217710,0.8774414,0.014831543,0.45916748,-0.921875,0.046875,-0.40625
467,467,1727218217750,0.88378906,0.015319824,0.4640503,-0.65625,0.1875,-0.359375
468,468,1727218217790,0.88549805,0.010925293,0.46673584,-0.9375,0.0,-0.484375
469,469,1727218217830,0.87890625,0.00970459,0.46038818,-0.703125,-0.0625,-0.296875
470,470,1727218217870,0.8828125,0.012878418,0.46868896,-0.578125,-0.3125,-0.34375
471,471,1727218217910,0.87939453,0.008483887,0.4694214,-0.390625,-0.296875,-0.40625
472,472,1727218217950,0.88256836,0.019470215,0.47747803,-1.265625,-0.046875,-0.8125
473,473,1727218217990,0.8840332,0.007507324,0.44354248,-2.21875,0.34375,-0.40625
474,474,1727218218030,0.87719727,0.011657715,0.4804077,-0.28125,1.171875,-0.421875
475,475,1727218218070,0.8828125,0.008483887,0.46868896,-0.578125,0.703125,-0.203125
476,476,1727218218110,0.87939453,0.01776123,0.45819092,-0.734375,0.5,-0.265625
477,477,1727218218150,0.87841797,0.019958496,0.4718628,-0.578125,0.609375,-0.25
478,478,1727218218190,0.87719727,0.018981934,0.45843506,-0.8125,-0.015625,-0.328125
479,479,1727218218230,0.8781738,0.012390137,0.4689331,-0.890625,0.0,-0.453125
480,480,1727218218270,0.88134766,0.013366699,0.4784546,-0.359375,-0.21875,-0.34375
481,481,1727218218310,0.8791504,0.0138549805,0.4640503,-1.0,-0.546875,-0.328125
482,482,1727218218350,0.8796387,0.018737793,0.47381592,-0.875,-0.078125,-0.5
483,483,1727218218390,0.87060547,0.0099487305,0.47772217,0.265625,0.28125,-0.171875
484,484,1727218218430,0.8823242,0.019958496,0.4743042,-0.078125,0.5625,-0.078125
485,485,1727218218470,0.8803711,0.014587402,0.46038818,-0.625,-0.46875,-0.015625
486,486,1727218218510,0.8786621,0.0079956055,0.47039795,-0.765625,0.09375,-0.171875
487,487,1727218218550,0.8696289,0.0138549805,0.47357178,-0.921875,-0.328125,-0.46875
488,488,1727218218590,0.87597656,0.00579834,0.47381592,-0.84375,-0.859375,-0.40625
489,489,1727218218630,0.8725586,0.016296387,0.4713745,-0.609375,-0.1875,-0.4375
490,490,1727218218670,0.87646484,0.015563965,0.46917725,0.234375,0.15625,-0.015625
491,491,1727218218710,0.8737793,0.012145996,0.47601318,0.59375,0.21875,0.15625
492,492,1727218218750,0.8828125,0.015563965,0.4772339,0.265625,-0.015625,0.03125
493,493,1727218218790,0.87109375,0.0119018555,0.47406006,-0.109375,-0.34375,-0.109375
494,494,1727218218830,0.8730469,0.012878418,0.4755249,-1.03125,0.40625,-0.09375
495,495,1727218218870,0.8630371,0.011169434,0.47406006,0.984375,-0.1875,0.234375
496,496,1727218218910,0.8696289,0.016052246,0.47650146,0.046875,1.25,0.1875
497,497,1727218218950,0.8808594,0.010437012,0.4833374,0.75,1.578125,0.265625
498,498,1727218218990,0.87158203,0.014587402,0.46038818,0.984375,1.046875,0.359375
499,499,1727218219030,0.88061523,0.018005371,0.4701538,1.625,1.109375,0.390625
500,500,1727218219070,0.8757324,0.011413574,0.46966553,1.140625,0.84375,0.484375
501,501,1727218219110,0.875,0.010681152,0.46551514,0.875,0.546875,0.203125
502,502,1727218219150,0.88061523,0.0099487305,0.4743042,0.6875,0.5625,0.25
503,503,1727218219190,0.88793945,0.0072631836,0.4550171,0.421875,0.390625,0.265625
504,504,1727218219230,0.8857422,0.014587402,0.46820068,0.0,0.59375,0.0
505,505,1727218219270,0.8676758,0.014831543,0.47113037,1.015625,1.296875,0.390625
506,506,1727218219310,0.88012695,0.010681152,0.45281982,0.765625,2.0,0.484375
507,507,1727218219350,0.8659668,0.012390137,0.465271,1.640625,1.125,0.578125
508,508,1727218219390,0.8894043,0.00970459,0.46697998,0.578125,1.53125,0.359375
509,509,1727218219430,0.8791504,0.011169434,0.45794678,0.609375,1.46875,0.171875
510,510,1727218219470,0.8808594,0.009216309,0.46063232,0.53125,0.875,0.0625
511,511,1727218219510,0.8840332,0.012390137,0.45892334,-0.03125,0.421875,-0.1875
512,512,1727218219550,0.88012695,0.016296387,0.45965576,0.1875,0.828125,0.0
513,513,1727218219590,0.88134766,0.0053100586,0.46307373,0.03125,0.984375,-0.046875
514,514,1727218219630,0.88256836,0.012145996,0.4545288,0.09375,0.5625,0.03125
515,515,1727218219670,0.8857422,0.0119018555,0.45721436,0.109375,0.515625,0.015625
516,516,1727218219710,0.88256836,0.011169434,0.4623413,0.21875,0.75,0.046875
517,517,1727218219750,0.8881836,0.01361084,0.4508667,0.015625,0.6875,-0.0625
518,518,1727218219790,0.88256836,0.010925293,0.449646,-0.484375,0.609375,0.171875
519,519,1727218219830,0.8881836,0.005065918,0.4730835,0.890625,0.359375,-0.265625
520,520,1727218219870,0.8857422,0.011413574,0.4472046,-0.984375,1.109375,-0.140625
521,521,1727218219910,0.8857422,0.011413574,0.45892334,-0.28125,1.46875,0.109375
522,522,1727218219950,0.88256836,0.0004272461,0.4472046,0.71875,1.546875,0.15625
523,523,1727218219990,0.88793945,0.0138549805,0.46429443,0.21875,0.796875,0.3125
524,524,1727218220030,0.8835449,0.0099487305,0.45257568,0.171875,0.984375,0.015625
525,525,1727218220070,0.89086914,0.013366699,0.45355225,-0.09375,0.296875,-0.015625
526,526,1727218220110,0.8898926,0.00579834,0.45281982,-0.21875,0.328125,-0.140625
527,527,1727218220150,0.8859863,0.013122559,0.44989014,-0.15625,0.25,-0.0625
528,528,1727218220190,0.88916016,0.015319824,0.45062256,-0.40625,-0.125,-0.21875
529,529,1727218220230,0.8823242,0.0119018555,0.45770264,-0.65625,0.1875,-0.109375
530,530,1727218220270,0.88500977,0.010437012,0.4562378,0.671875,0.5,0.078125
531,531,1727218220310,0.88378906,0.010437012,0.46014404,0.75,0.203125,0.15625
532,532,1727218220350,0.8911133,0.009460449,0.44989014,-0.328125,0.296875,-0.015625
533,533,1727218220390,0.8815918,0.012145996,0.45599365,-0.046875,0.21875,0.015625
534,534,1727218220430,0.8886719,0.0040893555,0.45599365,-0.15625,0.296875,-0.140625
535,535,1727218220470,0.8835449,0.011413574,0.44940186,-0.609375,-0.109375,-0.203125
536,536,1727218220510,0.88305664,0.014831543,0.45892334,-0.546875,0.03125,-0.15625
537,537,1727218220550,0.8874512,0.008972168,0.45477295,-0.375,0.3125,-0.015625
538,538,1727218220590,0.8874512,0.015563965,0.45135498,-0.25,0.3125,-0.078125
539,539,1727218220630,0.8864746,0.0119018555,0.4537964,-0.109375,0.359375,-0.109375
540,540,1727218220670,0.8811035,0.018737793,0.45355225,-0.21875,0.359375,-0.15625
541,541,1727218220710,0.88623047,0.008972168,0.45306396,-0.09375,0.234375,-0.203125
542,542,1727218220750,0.88378906,0.015808105,0.45672607,-0.0625,0.375,0.046875
543,543,1727218220790,0.88061523,0.011413574,0.4508667,-0.21875,0.359375,-0.03125
544,544,1727218220830,0.88012695,0.015075684,0.46014404,-0.125,0.484375,-0.234375
545,545,1727218220870,0.8828125,0.008972168,0.44378662,-0.453125,0.109375,-0.046875
546,546,1727218220910,0.890625,0.015075684,0.47039795,-0.0625,0.4375,-0.484375
547,547,1727218220950,0.88671875,0.013122559,0.44378662,-1.140625,1.046875,-0.125
548,548,1727218220990,0.8762207,0.008483887,0.45233154,-0.796875,1.046875,-0.046875
549,549,1727218221030,0.88061523,0.008239746,0.4520874,0.5,1.390625,0.21875
550,550,1727218221070,0.8942871,0.016052246,0.44891357,-0.140625,0.8125,-0.015625
551,551,1727218221110,0.88427734,0.01776123,0.45721436,-0.203125,0.71875,-0.203125
552,552,1727218221150,0.8857422,0.011413574,0.45184326,-0.3125,0.296875,-0.125
553,553,1727218221190,0.88256836,0.011657715,0.45062256,-0.453125,0.0,-0.21875
554,554,1727218221230,0.8859863,0.005065918,0.4520874,-0.3125,-0.015625,-0.234375
555,555,1727218221270,0.8833008,0.014831543,0.44403076,-0.421875,-0.28125,-0.03125
556,556,1727218221310,0.88427734,0.013122559,0.45135498,-0.71875,-0.25,-0.234375
557,557,1727218221350,0.87841797,0.010192871,0.4586792,0.375,0.25,-0.09375
558,558,1727218221390,0.89086914,0.016784668,0.45941162,-0.0625,-0.078125,0.03125
559,559,1727218221430,0.88500977,0.015319824,0.45159912,-0.625,-0.1875,-0.078125
560,560,1727218221470,0.8859863,0.014831543,0.45404053,-0.421875,-0.21875,-0.359375
561,561,1727218221510,0.8857422,0.00970459,0.4569702,-0.953125,-0.21875,-0.5
562,562,1727218221550,0.8845215,0.015075684,0.4491577,-1.25,-0.53125,-0.515625
563,563,1727218221590,0.88378906,0.0072631836,0.4586792,-1.0625,-0.34375,-0.28125
564,564,1727218221630,0.8876953,0.014343262,0.4569702,-0.875,-0.234375,-0.328125
565,565,1727218221670,0.88305664,0.018005371,0.45526123,-0.5625,-0.125,-0.390625
566,566,1727218221710,0.8857422,0.01361084,0.45794678,-0.65625,0.03125,-0.28125
567,567,1727218221750,0.8864746,0.017028809,0.46380615,-0.359375,-0.078125,-0.28125
568,568,1727218221790,0.88549805,0.010437012,0.46966553,-0.59375,-0.21875,-0.328125
569,569,1727218221830,0.8820801,0.014831543,0.46063232,-0.421875,-0.03125,-0.15625
570,570,1727218221870,0.8786621,0.019714355,0.46014404,-0.765625,-0.125,-0.1875
571,571,1727218221910,0.8828125,0.009460449,0.46624756,-0.625,-0.3125,-0.078125
572,572,1727218221950,0.88427734,0.01776123,0.4598999,-1.25,0.15625,-0.328125
573,573,1727218221990,0.8840332,0.012390137,0.46038818,-0.171875,-0.484375,-0.375
574,574,1727218222030,0.8730469,0.018737793,0.45721436,-0.96875,1.125,-0.40625
575,575,1727218222070,0.8835449,0.013366699,0.4779663,-0.671875,1.359375,-0.03125
576,576,1727218222110,0.88134766,0.017028809,0.45843506,-0.484375,0.640625,-0.03125
577,577,1727218222150,0.8869629,0.015808105,0.46868896,-0.328125,0.78125,-0.328125
578,578,1727218222190,0.8869629,0.01727295,0.46258545,-0.78125,0.15625,-0.359375
579,579,1727218222230,0.8786621,0.010437012,0.4628296,-1.1875,-0.609375,-0.5625
580,580,1727218222270,0.8781738,0.016540527,0.46673584,-1.453125,-0.75,-0.640625
581,581,1727218222310,0.88305664,0.0079956055,0.447937,-1.09375,-0.71875,-0.34375
582,582,1727218222350,0.87597656,0.016052246,0.4623413,-1.0625,-0.5,-0.453125
583,583,1727218222390,0.8774414,0.014099121,0.4689331,-0.296875,0.1875,-0.234375
584,584,1727218222430,0.8691406,0.017028809,0.4574585,0.40625,0.484375,0.109375
585,585,1727218222470,0.87768555,0.019470215,0.4701538,0.640625,-0.265625,-0.03125
586,586,1727218222510,0.8823242,0.01776123,0.46209717,-0.578125,0.375,-0.15625
587,587,1727218222550,0.8840332,0.014099121,0.4743042,-0.484375,0.40625,-0.34375
588,588,1727218222590,0.87841797,0.0065307617,0.4664917,-0.78125,-0.390625,-0.328125
589,589,1727218222630,0.88378906,0.016052246,0.46966553,-1.09375,-0.6875,-0.609375
590,590,1727218222670,0.88012695,0.012878418,0.4743042,-1.3125,-0.75,-0.4375
591,591,1727218222710,0.873291,0.015319824,0.465271,-1.515625,-0.734375,-0.484375
592,592,1727218222750,0.873291,0.0119018555,0.4706421,-0.9375,-0.296875,-0.4375
593,593,1727218222790,0.87524414,0.008239746,0.47039795,-0.828125,-0.21875,-0.421875
594,594,1727218222830,0.875,0.014587402,0.4718628,-0.578125,-0.109375,-0.390625
595,595,1727218222870,0.8823242,0.0018920898,0.479187,-0.328125,0.1875,-0.28125
596,596,1727218222910,0.87280273,0.009460449,0.47479248,-0.09375,0.203125,-0.203125
597,597,1727218222950,0.88378906,0.021911621,0.48162842,-1.0,0.875,-0.46875
598,598,1727218222990,0.8808594,0.0099487305,0.4484253,-1.15625,1.03125,-0.296875
599,599,1727218223030,0.8718262,0.020446777,0.480896,0.703125,1.421875,-0.078125
600,600,1727218223070,0.8796387,0.015075684,0.47283936,0.078125,1.09375,-0.046875
601,601,1727218223110,0.87719727,0.02166748,0.46258545,0.28125,1.109375,-0.0625
602,602,1727218223150,0.87109375,0.015319824,0.47283936,0.734375,1.3125,0.140625
603,603,1727218223190,0.8774414,0.010681152,0.46746826,0.234375,0.59375,0.03125
604,604,1727218223230,0.875,0.00579834,0.46990967,-0.09375,0.125,0.03125
605,605,1727218223270,0.87719727,0.011657715,0.4899292,0.78125,0.171875,0.015625
606,606,1727218223310,0.8779297,0.014587402,0.4598999,0.203125,0.0,0.375
607,607,1727218223350,0.88378906,0.01751709,0.47088623,0.203125,0.34375,-0.03125
608,608,1727218223390,0.8757324,0.0099487305,0.46795654,1.203125,1.015625,0.171875
609,609,1727218223430,0.87890625,0.009460449,0.46307373,0.703125,1.421875,0.421875
610,610,1727218223470,0.8798828,0.01361084,0.46429443,1.390625,0.421875,0.46875
611,611,1727218223510,0.87646484,0.011657715,0.4664917,0.546875,0.78125,0.140625
612,612,1727218223550,0.88623047,0.018737793,0.47113037,0.515625,0.90625,0.03125
613,613,1727218223590,0.8815918,0.010437012,0.46014404,-0.0625,0.359375,0.03125
614,614,1727218223630,0.8798828,0.014831543,0.4718628,0.03125,0.8125,-0.046875
615,615,1727218223670,0.8781738,0.007019043,0.46722412,0.328125,1.0,0.03125
616,616,1727218223710,0.87719727,0.013122559,0.46380615,0.46875,1.3125,-0.15625
617,617,1727218223750,0.8840332,0.010925293,0.4616089,0.328125,0.96875,-0.078125
618,618,1727218223790,0.8857422,0.014831543,0.4616089,0.21875,0.625,0.0
619,619,1727218223830,0.8808594,0.015075684,0.45477295,0.3125,0.640625,-0.03125
620,620,1727218223870,0.88500977,0.015075684,0.45965576,-0.21875,0.71875,0.203125
621,621,1727218223910,0.8845215,0.0138549805,0.4640503,0.875,0.21875,0.0625
622,622,1727218223950,0.8840332,0.015563965,0.44744873,-0.46875,1.484375,-0.03125
623,623,1727218223990,0.8852539,0.00970459,0.46820068,0.28125,1.859375,0.265625
624,624,1727218224030,0.89160156,0.011657715,0.45281982,0.84375,1.6875,0.3125
625,625,1727218224070,0.88964844,0.014831543,0.45672607,0.5625,0.984375,0.140625
626,626,1727218224110,0.8874512,0.013122559,0.45184326,0.3125,0.984375,-0.125
627,627,1727218224150,0.8857422,0.012634277,0.45184326,-0.125,0.359375,-0.046875
628,628,1727218224190,0.8835449,0.009216309,0.44989014,-0.328125,0.265625,-0.21875
629,629,1727218224230,0.8874512,0.012878418,0.45965576,0.140625,0.3125,-0.078125
630,630,1727218224270,0.8886719,0.012145996,0.4491577,-0.359375,0.0,-0.09375
631,631,1727218224310,0.8781738,0.0072631836,0.4640503,-0.015625,0.671875,-0.140625
632,632,1727218224350,0.8835449,0.010925293,0.4550171,1.015625,0.625,0.21875
633,633,1727218224390,0.8845215,0.014343262,0.4537964,0.6875,0.328125,0.15625
634,634,1727218224430,0.8913574,0.010681152,0.44866943,-0.34375,0.296875,0.171875
635,635,1727218224470,0.8864746,0.00579834,0.45526123,0.109375,0.46875,-0.15625
636,636,1727218224510,0.888916,0.007507324,0.45477295,-0.1875,0.296875,-0.28125
637,637,1727218224550,0.8864746,0.010681152,0.46014404,-0.578125,0.109375,-0.1875
638,638,1727218224590,0.88793945,0.015075684,0.45135498,-0.4375,0.328125,-0.125
639,639,1727218224630,0.8898926,0.010681152,0.45062256,-0.234375,0.140625,-0.15625
640,640,1727218224670,0.8779297,0.019470215,0.449646,-0.40625,0.171875,-0.15625
641,641,1727218224710,0.88378906,0.010925293,0.4545288,-0.15625,0.390625,-0.171875
642,642,1727218224750,0.8847656,0.010681152,0.4545288,-0.28125,0.15625,0.078125
643,643,1727218224790,0.88500977,0.010437012,0.4520874,-0.15625,0.125,-0.0625
644,644,1727218224830,0.88427734,0.011413574,0.45770264,-0.1875,0.21875,-0.09375
645,645,1727218224870,0.8803711,0.010681152,0.45404053,0.015625,0.203125,-0.078125
646,646,1727218224910,0.88012695,0.008483887,0.44891357,-0.140625,0.234375,0.03125
647,647,1727218224950,0.89282227,0.02166748,0.46551514,-0.109375,0.375,-0.5625
648,648,1727218224990,0.8901367,0.009460449,0.4418335,-0.890625,0.78125,-0.0625
649,649,1727218225030,0.875,0.0021362305,0.45257568,-0.46875,0.828125,-0.203125
650,650,1727218225070,0.8876953,0.010192871,0.4508667,0.609375,1.25,0.15625
651,651,1727218225110,0.88623047,0.010681152,0.44378662,0.046875,0.671875,0.171875
652,652,1727218225150,0.88061523,0.016052246,0.4574585,-0.109375,0.84375,-0.03125
653,653,1727218225190,0.89086914,0.017028809,0.45159912,-0.03125,0.453125,-0.171875
654,654,1727218225230,0.8815918,0.0072631836,0.45355225,-0.515625,0.15625,-0.140625
655,655,1727218225270,0.88623047,0.01751709,0.4569702,0.140625,-0.046875,-0.09375
656,656,1727218225310,0.88134766,0.010681152,0.4520874,-0.171875,0.046875,0.03125
657,657,1727218225350,0.88427734,0.012390137,0.45965576,-0.59375,0.078125,-0.234375
658,658,1727218225390,0.8835449,0.012634277,0.4569702,0.46875,0.53125,-0.046875
659,659,1727218225430,0.88500977,0.010925293,0.4491577,0.0,0.515625,0.09375
660,660,1727218225470,0.88134766,0.016784668,0.45037842,-0.0625,0.0,0.171875
661,661,1727218225510,0.8840332,0.010681152,0.447937,0.015625,0.421875,-0.09375
662,662,1727218225550,0.8886719,0.010437012,0.45648193,-0.140625,0.296875,-0.03125
663,663,1727218225590,0.8796387,0.010681152,0.4569702,-0.640625,-0.109375,-0.234375
664,664,1727218225630,0.8803711,0.013366699,0.4569702,-0.53125,0.203125,-0.25
665,665,1727218225670,0.8898926,0.011169434,0.45233154,-0.359375,0.328125,-0.171875
666,666,1727218225710,0.8835449,0.012634277,0.4545288,-0.40625,0.484375,-0.171875
667,667,1727218225750,0.8811035,0.0040893555,0.4533081,-0.4375,0.21875,-0.1875
668,668,1727218225790,0.8894043,0.015319824,0.4537964,-0.28125,0.109375,-0.125
669,669,1727218225830,0.8876953,0.009460449,0.4508667,-0.21875,0.21875,-0.203125
670,670,1727218225870,0.8835449,0.018005371,0.46063232,-0.234375,0.234375,-0.265625
671,671,1727218225910,0.88012695,0.014099121,0.45721436,-0.171875,0.375,-0.125
672,672,1727218225950,0.890625,0.018737793,0.45037842,-0.734375,0.21875,0.015625
673,673,1727218225990,0.8786621,0.007019043,0.4677124,0.359375,-0.078125,-0.453125
674,674,1727218226030,0.8874512,0.015563965,0.44573975,-1.015625,1.078125,-0.109375
675,675,1727218226070,0.8786621,0.008239746,0.45916748,-0.625,1.078125,0.09375
676,676,1727218226110,0.88549805,0.008728027,0.44940186,0.265625,1.265625,0.125
677,677,1727218226150,0.88964844,0.018493652,0.45062256,-0.21875,0.4375,0.109375
678,678,1727218226190,0.8845215,0.020202637,0.45037842,-0.015625,0.671875,-0.234375
679,679,1727218226230,0.8811035,0.013122559,0.44989014,-0.328125,0.390625,-0.40625
680,680,1727218226270,0.88793945,0.0067749023,0.45233154,-0.34375,0.21875,-0.34375
681,681,1727218226310,0.8881836,0.0099487305,0.44940186,-0.109375,0.125,-0.09375
682,682,1727218226350,0.88500977,0.014587402,0.45062256,-0.546875,0.046875,-0.140625
683,683,1727218226390,0.88793945,0.012634277,0.4574585,-0.640625,-0.046875,-0.328125
684,684,1727218226430,0.87890625,0.012634277,0.45843506,0.078125,0.28125,0.0
685,685,1727218226470,0.88916016,0.012634277,0.45794678,-0.21875,-0.0625,0.109375
686,686,1727218226510,0.8881836,0.011413574,0.45355225,-0.578125,-0.34375,-0.203125
687,687,1727218226550,0.8820801,0.015319824,0.4569702,-0.484375,0.046875,-0.234375
688,688,1727218226590,0.8840332,0.014587402,0.45428467,-0.765625,-0.140625,-0.375
689,689,1727218226630,0.88549805,0.008728027,0.4557495,-1.0,-0.34375,-0.46875
690,690,1727218226670,0.88964844,0.019226074,0.45672607,-0.734375,0.0625,-0.390625
691,691,1727218226710,0.8859863,0.014587402,0.45794678,-0.765625,-0.03125,-0.421875
692,692,1727218226750,0.8857422,0.01727295,0.4586792,-0.6875,0.046875,-0.171875
693,693,1727218226790,0.88842773,0.014099121,0.45819092,-0.59375,-0.0625,-0.28125
694,694,1727218226830,0.88500977,0.011169434,0.45550537,-0.5,0.03125,-0.21875
695,695,1727218226870,0.88427734,0.010192871,0.46014404,-0.53125,0.1875,-0.21875
696,696,1727218226910,0.8845215,0.01776123,0.4611206,-0.84375,-0.125,-0.25
697,697,1727218226950,0.8815918,0.015563965,0.45672607,-0.484375,-0.234375,-0.109375
698,698,1727218226990,0.8815918,0.012390137,0.4550171,-1.25,-0.015625,-0.171875
699,699,1727218227030,0.88500977,0.0067749023,0.47625732,-0.328125,-0.53125,-0.40625
700,700,1727218227070,0.87768555,0.013122559,0.44525146,-1.65625,0.96875,-0.4375
701,701,1727218227110,0.87939453,0.010192871,0.4730835,-0.75,0.671875,-0.09375
702,702,1727218227150,0.87719727,0.014831543,0.45550537,-0.328125,0.421875,-0.140625
703,703,1727218227190,0.89208984,0.02142334,0.46136475,-0.28125,0.25,-0.140625
704,704,1727218227230,0.88427734,0.016296387,0.465271,-0.53125,0.390625,-0.3125
705,705,1727218227270,0.8840332,0.013122559,0.4569702,-0.890625,-0.109375,-0.390625
706,706,1727218227310,0.8786621,0.00579834,0.46868896,-1.0625,-0.5,-0.65625
707,707,1727218227350,0.88793945,0.013122559,0.45916748,-0.578125,-0.515625,-0.34375
708,708,1727218227390,0.8774414,0.015075684,0.46063232,-0.9375,-0.484375,-0.40625
709,709,1727218227430,0.87646484,0.017028809,0.46600342,-0.75,-0.09375,-0.34375
710,710,1727218227470,0.87719727,0.014831543,0.46746826,0.34375,0.09375,-0.015625
711,711,1727218227510,0.8745117,0.017028809,0.47406006,0.140625,0.078125,-0.09375
712,712,1727218227550,0.8828125,0.016296387,0.45770264,-0.765625,-0.0625,-0.125
713,713,1727218227590,0.8857422,0.019714355,0.46722412,-0.75,0.140625,-0.359375
714,714,1727218227630,0.8852539,0.007019043,0.46966553,-0.84375,-0.1875,-0.703125
715,715,1727218227670,0.8781738,0.0138549805,0.46600342,-1.28125,-0.828125,-0.5625
716,716,1727218227710,0.87841797,0.018737793,0.47039795,-0.984375,-0.34375,-0.484375
717,717,1727218227750,0.8769531,0.016784668,0.46990967,-1.03125,-0.453125,-0.546875
718,718,1727218227790,0.8840332,0.014587402,0.4689331,-1.359375,-0.75,-0.296875
719,719,1727218227830,0.875,0.01727295,0.47625732,-0.75,-0.890625,-0.4375
720,720,1727218227870,0.8774414,0.019470215,0.4713745,-1.046875,-0.765625,-0.671875
721,721,1727218227910,0.87475586,0.016052246,0.479187,-1.234375,-0.9375,-0.421875
722,722,1727218227950,0.8786621,0.019226074,0.4779663,-1.875,-0.421875,-0.46875
723,723,1727218227990,0.8664551,0.014099121,0.4784546,-0.1875,-0.484375,-0.296875
724,724,1727218228030,0.86816406,0.01361084,0.4796753,-0.859375,0.96875,-0.375
725,725,1727218228070,0.88061523,0.012878418,0.48651123,-0.5,0.828125,-0.171875
726,726,1727218228110,0.87939453,0.016052246,0.45843506,-0.359375,0.796875,-0.203125
727,727,1727218228150,0.8820801,0.019226074,0.47772217,0.3125,1.015625,-0.125
728,728,1727218228190,0.8774414,0.014343262,0.47601318,0.34375,0.671875,-0.125
729,729,1727218228230,0.87402344,0.011657715,0.4730835,-0.046875,0.328125,-0.078125
730,730,1727218228270,0.8791504,0.012878418,0.47454834,-0.046875,0.3125,-0.0625
731,731,1727218228310,0.8847656,0.008972168,0.46307373,-0.25,-0.09375,0.015625
732,732,1727218228350,0.86816406,0.016052246,0.4743042,0.109375,0.21875,-0.109375
733,733,1727218228390,0.86987305,0.007507324,0.4743042,0.703125,0.59375,0.140625
734,734,1727218228430,0.8696289,0.016296387,0.46697998,1.109375,1.21875,0.53125
735,735,1727218228470,0.8745117,0.007751465,0.48529053,1.8125,0.578125,0.46875
736,736,1727218228510,0.8774414,0.011413574,0.46868896,0.5625,0.96875,0.09375
737,737,1727218228550,0.87719727,0.018005371,0.47210693,0.609375,0.984375,-0.015625
738,738,1727218228590,0.8803711,0.006286621,0.46722412,0.34375,0.796875,0.15625
739,739,1727218228630,0.87524414,0.0048217773,0.4706421,0.21875,0.328125,0.140625
740,740,1727218228670,0.875,0.009216309,0.47039795,0.8125,0.546875,0.3125
741,741,1727218228710,0.87768555,0.00970459,0.47479248,0.515625,0.6875,0.203125
742,742,1727218228750,0.8725586,0.011169434,0.47479248,0.53125,0.515625,0.1875
743,743,1727218228790,0.88378906,0.010681152,0.47113037,-0.765625,1.140625,-0.15625
744,744,1727218228830,0.8774414,0.0079956055,0.4730835,0.828125,0.546875,0.234375
745,745,1727218228870,0.87280273,0.01361084,0.47039795,-0.078125,1.3125,-0.0625
746,746,1727218228910,0.8833008,0.007019043,0.47625732,0.375,1.96875,0.25
747,747,1727218228950,0.87841797,0.008239746,0.45794678,0.5625,1.390625,0.1875
748,748,1727218228990,0.8779297,0.022399902,0.4664917,0.546875,1.21875,0.09375
749,749,1727218229030,0.8786621,0.0119018555,0.47161865,0.53125,0.953125,0.203125
750,750,1727218229070,0.87841797,0.0072631836,0.4628296,0.0,0.34375,-0.046875
751,751,1727218229110,0.88012695,0.008972168,0.4574585,0.0,0.359375,0.078125
752,752,1727218229150,0.8786621,0.007507324,0.4562378,0.03125,0.265625,0.03125
753,753,1727218229190,0.88256836,0.015563965,0.45965576,-0.25,0.25,-0.0625
754,754,1727218229230,0.88134766,0.011169434,0.46575928,0.234375,0.71875,-0.0625
755,755,1727218229270,0.87353516,0.0038452148,0.45965576,0.515625,0.796875,0.46875
756,756,1727218229310,0.8786621,0.015563965,0.45819092,1.109375,0.40625,0.328125
757,757,1727218229350,0.88842773,0.008483887,0.45526123,-0.109375,0.78125,-0.015625
758,758,1727218229390,0.88183594,0.012878418,0.46575928,0.109375,0.578125,-0.109375
759,759,1727218229430,0.88378906,0.002380371,0.45648193,0.046875,0.171875,-0.15625
