,Unnamed: 0,timestamp,accel_x,accel_y,accel_z,gyro_x,gyro_y,gyro_z
0,0,1727970627352,0.8444824,-0.034484863,-0.47125244,-0.109375,-1.203125,0.46875
1,1,1727970627392,0.8391113,-0.03741455,-0.45562744,-0.21875,-0.953125,0.296875
2,2,1727970627432,0.8405762,-0.040100098,-0.46368408,0.078125,0.40625,0.265625
3,3,1727970627472,0.845459,-0.03668213,-0.46881104,0.421875,1.03125,0.4375
4,4,1727970627512,0.8449707,-0.028869629,-0.4673462,0.015625,0.390625,0.359375
5,5,1727970627552,0.83691406,-0.038879395,-0.46759033,-0.421875,-0.1875,-0.078125
6,6,1727970627592,0.8347168,-0.041809082,-0.46905518,-0.1875,-0.171875,-0.09375
7,7,1727970627632,0.8352051,-0.038635254,-0.47174072,0.078125,0.0625,0.15625
8,8,1727970627672,0.8432617,-0.04107666,-0.47052002,0.03125,-0.15625,0.328125
9,9,1727970627712,0.845459,-0.042785645,-0.46929932,-0.109375,0.0625,0.234375
10,10,1727970627752,0.842041,-0.04083252,-0.47320557,0.109375,-0.34375,0.21875
11,11,1727970627792,0.84033203,-0.035217285,-0.4649048,-0.21875,-0.234375,0.078125
12,12,1727970627832,0.8425293,-0.03692627,-0.47662354,0.078125,0.25,0.21875
13,13,1727970627872,0.8417969,-0.03375244,-0.47833252,0.03125,-1.328125,0.1875
14,14,1727970627912,0.83984375,-0.035705566,-0.4673462,-0.421875,-2.328125,-0.234375
15,15,1727970627952,0.83813477,-0.039611816,-0.46173096,-0.390625,-1.890625,-0.109375
16,16,1727970627992,0.84399414,-0.03375244,-0.46270752,-0.046875,-1.3125,0.046875
17,17,1727970628032,0.84228516,-0.042541504,-0.4668579,-0.03125,-1.59375,0.203125
18,18,1727970628072,0.8400879,-0.04425049,-0.45635986,-0.125,-1.15625,0.015625
19,19,1727970628112,0.8430176,-0.039367676,-0.46343994,-0.015625,-0.6875,0.3125
20,20,1727970628152,0.8444824,-0.038391113,-0.45880127,0.171875,-0.09375,0.21875
21,21,1727970628192,0.845459,-0.043273926,-0.4602661,0.125,0.625,0.265625
22,22,1727970628232,0.84399414,-0.03326416,-0.46661377,0.09375,0.21875,0.140625
23,23,1727970628272,0.8425293,-0.03692627,-0.46173096,-0.203125,-0.015625,-0.0625
24,24,1727970628312,0.83862305,-0.04058838,-0.4649048,0.03125,0.125,-0.046875
25,25,1727970628352,0.83862305,-0.034240723,-0.46099854,0.25,0.59375,0.078125
26,26,1727970628392,0.8449707,-0.038391113,-0.47003174,0.421875,0.9375,0.234375
27,27,1727970628432,0.83935547,-0.035705566,-0.46588135,0.1875,1.125,0.25
28,28,1727970628472,0.8378906,-0.03643799,-0.47198486,0.203125,0.703125,0.21875
29,29,1727970628512,0.8425293,-0.043029785,-0.46539307,0.234375,0.71875,0.203125
30,30,1727970628552,0.8354492,-0.035217285,-0.47369385,0.078125,1.015625,0.125
31,31,1727970628592,0.84228516,-0.040100098,-0.48443604,0.09375,0.515625,-0.015625
32,32,1727970628632,0.8366699,-0.034484863,-0.4746704,-0.09375,0.015625,0.09375
33,33,1727970628672,0.8352051,-0.03326416,-0.4751587,0.015625,-0.21875,-0.046875
34,34,1727970628712,0.83325195,-0.031555176,-0.47784424,-0.078125,0.359375,-0.03125
35,35,1727970628752,0.83862305,-0.035217285,-0.47930908,0.21875,-0.15625,0.1875
36,36,1727970628792,0.8359375,-0.038635254,-0.4812622,0.015625,-0.296875,0.203125
37,37,1727970628832,0.83032227,-0.043029785,-0.48077393,0.078125,-0.5625,0.0
38,38,1727970628872,0.83374023,-0.04083252,-0.4812622,0.21875,-0.125,0.15625
39,39,1727970628912,0.8317871,-0.03717041,-0.47711182,-0.03125,-0.109375,0.203125
40,40,1727970628952,0.8364258,-0.03692627,-0.4829712,-0.078125,-0.703125,0.09375
41,41,1727970628992,0.83325195,-0.043518066,-0.4727173,-0.5,-2.15625,-0.359375
42,42,1727970629032,0.8342285,-0.03765869,-0.47906494,-0.1875,-1.65625,-0.1875
43,43,1727970629072,0.83618164,-0.03717041,-0.4644165,-0.296875,-2.125,-0.140625
44,44,1727970629112,0.8444824,-0.043762207,-0.4890747,0.453125,-0.078125,0.25
45,45,1727970629152,0.8395996,-0.029846191,-0.57037354,-1.59375,-7.765625,0.46875
46,46,1727970629192,0.8376465,-0.02960205,-0.62335205,-21.0625,-53.46875,0.484375
47,47,1727970629232,1.0031738,-0.06500244,-0.09088135,-21.171875,-42.421875,-2.0
48,48,1727970629272,0.74853516,-0.08013916,-0.38189697,1.640625,15.453125,-3.921875
49,49,1727970629312,0.8588867,-0.06744385,-0.33624268,-3.125,-9.359375,1.25
50,50,1727970629352,0.89086914,-0.058654785,-0.31402588,-1.953125,-1.546875,-1.25
51,51,1727970629392,0.9003906,-0.07183838,-0.3591919,-1.6875,-1.0,-2.640625
52,52,1727970629432,0.9108887,-0.08721924,-0.3604126,-1.796875,-2.140625,-1.25
53,53,1727970629472,0.91625977,-0.08917236,-0.31134033,-1.125,-0.828125,0.609375
54,54,1727970629512,0.89282227,-0.0725708,-0.3513794,0.421875,2.203125,0.71875
55,55,1727970629552,0.9003906,-0.074279785,-0.35162354,-0.671875,-3.734375,0.390625
56,56,1727970629592,0.90405273,-0.077697754,-0.31695557,-1.0625,-0.59375,-0.53125
57,57,1727970629632,0.89086914,-0.08477783,-0.33721924,1.015625,4.0,0.765625
58,58,1727970629672,0.90527344,-0.08135986,-0.35284424,0.6875,2.03125,1.125
59,59,1727970629712,0.89941406,-0.078186035,-0.35333252,-0.359375,0.234375,-0.109375
60,60,1727970629752,0.90063477,-0.08648682,-0.34747314,-0.640625,-0.78125,-0.390625
61,61,1727970629792,0.90283203,-0.08453369,-0.35040283,-0.25,-1.140625,-0.03125
62,62,1727970629832,0.89868164,-0.0881958,-0.3381958,-0.296875,-0.890625,-0.03125
63,63,1727970629872,0.8964844,-0.08892822,-0.348938,-0.125,-0.734375,0.0625
64,64,1727970629912,0.9001465,-0.08917236,-0.3496704,0.078125,-0.9375,0.046875
65,65,1727970629952,0.8918457,-0.08673096,-0.33770752,0.46875,-1.703125,0.5625
66,66,1727970629992,0.9038086,-0.08087158,-0.34161377,0.25,-1.6875,0.453125
67,67,1727970630032,0.8952637,-0.08526611,-0.34503174,-0.359375,0.203125,-0.75
68,68,1727970630072,0.892334,-0.090148926,-0.33892822,0.03125,-0.46875,-0.09375
69,69,1727970630112,0.9067383,-0.08502197,-0.35040283,0.609375,-2.25,0.34375
70,70,1727970630152,0.9099121,-0.08404541,-0.33380127,-0.296875,-5.265625,0.109375
71,71,1727970630192,0.89868164,-0.085754395,-0.31744385,1.046875,-0.3125,0.515625
72,72,1727970630232,0.90527344,-0.08087158,-0.35479736,1.265625,-1.140625,0.609375
73,73,1727970630272,0.9108887,-0.08135986,-0.34698486,-0.296875,-4.1875,0.234375
74,74,1727970630312,0.8984375,-0.08721924,-0.29888916,-0.375,-3.09375,-0.375
75,75,1727970630352,0.9055176,-0.082092285,-0.3242798,0.15625,1.265625,0.140625
76,76,1727970630392,0.90893555,-0.082092285,-0.3406372,0.53125,0.109375,0.703125
77,77,1727970630432,0.9042969,-0.070129395,-0.33111572,-0.671875,-1.0,0.140625
78,78,1727970630472,0.9033203,-0.081848145,-0.32647705,-0.6875,-0.375,-0.4375
79,79,1727970630512,0.9099121,-0.0803833,-0.32965088,0.15625,-0.390625,0.5
80,80,1727970630552,0.9140625,-0.081604004,-0.32452393,-0.234375,0.125,0.21875
81,81,1727970630592,0.90185547,-0.08355713,-0.32281494,0.5625,0.453125,0.28125
82,82,1727970630632,0.9057617,-0.08404541,-0.3279419,1.09375,1.171875,0.9375
83,83,1727970630672,0.9038086,-0.07623291,-0.33551025,1.390625,-0.171875,0.9375
84,84,1727970630712,0.9121094,-0.07623291,-0.35064697,0.515625,-1.890625,0.171875
85,85,1727970630752,0.9082031,-0.07672119,-0.3196411,-0.515625,-3.984375,-0.515625
86,86,1727970630792,0.9020996,-0.07989502,-0.31549072,0.0625,0.890625,-0.96875
87,87,1727970630832,0.90283203,-0.085998535,-0.331604,-0.171875,-0.28125,-0.015625
88,88,1727970630872,0.90966797,-0.08502197,-0.33062744,0.46875,-1.875,0.65625
89,89,1727970630912,0.90649414,-0.078186035,-0.31427002,-0.359375,-1.390625,0.15625
90,90,1727970630952,0.89941406,-0.07647705,-0.315979,-0.234375,1.515625,0.015625
91,91,1727970630992,0.9177246,-0.08477783,-0.3369751,0.46875,2.53125,0.703125
92,92,1727970631032,0.91430664,-0.074035645,-0.33746338,0.046875,0.1875,0.359375
93,93,1727970631072,0.89575195,-0.07550049,-0.33013916,-0.796875,-0.359375,-0.546875
94,94,1727970631112,0.9008789,-0.08477783,-0.317688,0.578125,1.03125,-0.03125
95,95,1727970631152,0.8984375,-0.078430176,-0.3262329,1.4375,1.578125,0.09375
96,96,1727970631192,0.8989258,-0.077941895,-0.34332275,1.8125,1.078125,-0.171875
97,97,1727970631232,0.91186523,-0.081604004,-0.33966064,1.421875,0.578125,0.015625
98,98,1727970631272,0.90185547,-0.07525635,-0.34259033,-0.15625,-0.671875,0.46875
99,99,1727970631312,0.9055176,-0.08526611,-0.331604,-0.171875,-2.015625,0.34375
100,100,1727970631352,0.9030762,-0.07476807,-0.347229,0.0625,-1.78125,0.734375
101,101,1727970631392,0.8989258,-0.070373535,-0.32720947,-1.484375,-4.671875,0.65625
102,102,1727970631432,0.907959,-0.074279785,-0.317688,-1.5,-1.515625,0.109375
103,103,1727970631472,0.9121094,-0.0791626,-0.33184814,-2.53125,-3.453125,0.03125
104,104,1727970631512,0.9157715,-0.074035645,-0.31866455,-2.59375,-4.0625,0.078125
105,105,1727970631552,0.90185547,-0.081604004,-0.3093872,-1.703125,-3.0625,-0.25
106,106,1727970631592,0.9082031,-0.07720947,-0.29400635,0.140625,0.09375,-0.140625
107,107,1727970631632,0.9152832,-0.07501221,-0.31011963,1.078125,0.96875,0.25
108,108,1727970631672,0.90185547,-0.07891846,-0.2930298,1.75,3.6875,0.171875
109,109,1727970631712,0.9042969,-0.082336426,-0.32183838,3.6875,10.078125,0.328125
110,110,1727970631752,0.9128418,-0.07745361,-0.39337158,3.078125,8.875,0.171875
111,111,1727970631792,0.89331055,-0.074279785,-0.36505127,-1.8125,-7.546875,0.1875
112,112,1727970631832,0.91381836,-0.08502197,-0.35577393,-2.34375,-7.296875,0.65625
113,113,1727970631872,0.90771484,-0.07476807,-0.32330322,-4.859375,-12.078125,0.8125
114,114,1727970631912,0.92041016,-0.08306885,-0.28204346,-2.109375,-6.71875,0.59375
115,115,1727970631952,0.90771484,-0.07110596,-0.30743408,-0.328125,-5.0,1.03125
116,116,1727970631992,0.9145508,-0.066711426,-0.300354,-1.046875,-5.171875,-0.109375
117,117,1727970632032,0.9123535,-0.08013916,-0.2786255,-1.265625,-3.671875,-0.96875
118,118,1727970632072,0.9230957,-0.082092285,-0.27105713,0.359375,1.265625,-0.125
119,119,1727970632112,0.9111328,-0.08428955,-0.30548096,0.125,0.546875,0.28125
120,120,1727970632152,0.9187012,-0.081848145,-0.29083252,0.34375,-0.25,0.3125
121,121,1727970632192,0.9169922,-0.07989502,-0.28277588,0.5,2.71875,0.28125
122,122,1727970632232,0.9189453,-0.085998535,-0.30792236,0.625,3.5625,0.4375
123,123,1727970632272,0.91552734,-0.07696533,-0.3098755,-0.140625,1.3125,0.28125
124,124,1727970632312,0.9169922,-0.07867432,-0.30645752,-0.4375,-0.21875,0.15625
125,125,1727970632352,0.9128418,-0.0725708,-0.30718994,-0.3125,-0.21875,0.203125
126,126,1727970632392,0.9086914,-0.07867432,-0.30059814,-0.078125,-0.71875,0.09375
127,127,1727970632432,0.9152832,-0.081604004,-0.30792236,-0.125,-0.8125,-0.125
128,128,1727970632472,0.9147949,-0.0791626,-0.302063,-0.40625,-1.875,0.015625
129,129,1727970632512,0.9194336,-0.08453369,-0.30181885,0.203125,0.234375,0.25
130,130,1727970632552,0.91503906,-0.07354736,-0.30548096,0.390625,1.265625,0.3125
131,131,1727970632592,0.9121094,-0.07891846,-0.30108643,-0.328125,0.203125,-0.03125
132,132,1727970632632,0.9152832,-0.08087158,-0.30841064,-0.171875,-0.046875,0.109375
133,133,1727970632672,0.91625977,-0.07647705,-0.30743408,0.125,-0.53125,0.421875
134,134,1727970632712,0.9123535,-0.07965088,-0.3032837,-0.0625,-0.03125,0.3125
135,135,1727970632752,0.9140625,-0.07940674,-0.30474854,-0.078125,0.15625,-0.015625
136,136,1727970632792,0.9147949,-0.08306885,-0.3147583,-0.296875,-0.28125,-0.1875
137,137,1727970632832,0.9182129,-0.077941895,-0.3110962,-0.609375,-2.96875,-0.21875
138,138,1727970632872,0.91430664,-0.08721924,-0.29400635,-0.46875,-1.375,0.109375
139,139,1727970632912,0.9116211,-0.08502197,-0.30499268,-0.078125,-1.328125,0.484375
140,140,1727970632952,0.9152832,-0.08111572,-0.30792236,-0.015625,-1.578125,0.515625
141,141,1727970632992,0.9211426,-0.07867432,-0.2852173,-0.515625,-1.875,0.1875
142,142,1727970633032,0.9147949,-0.08502197,-0.29156494,-0.09375,1.84375,0.140625
143,143,1727970633072,0.9104004,-0.08380127,-0.29840088,-0.125,2.09375,0.1875
144,144,1727970633112,0.90600586,-0.081848145,-0.30523682,0.484375,3.84375,0.515625
145,145,1727970633152,0.91015625,-0.07867432,-0.3171997,0.15625,2.703125,0.203125
146,146,1727970633192,0.91674805,-0.07574463,-0.32208252,-0.59375,1.359375,-0.4375
147,147,1727970633232,0.9123535,-0.08795166,-0.31622314,-1.125,0.171875,-0.828125
148,148,1727970633272,0.91064453,-0.093811035,-0.31695557,-0.203125,-0.671875,-0.1875
149,149,1727970633312,0.89990234,-0.07965088,-0.32183838,0.015625,-0.53125,-0.09375
150,150,1727970633352,0.91064453,-0.089416504,-0.32305908,-0.546875,-3.421875,-0.046875
151,151,1727970633392,0.9104004,-0.09307861,-0.300354,-0.828125,-3.0,-0.296875
152,152,1727970633432,0.9128418,-0.08404541,-0.30352783,-0.21875,1.328125,0.078125
153,153,1727970633472,0.90893555,-0.085510254,-0.3015747,0.390625,3.328125,0.3125
154,154,1727970633512,0.9016113,-0.08526611,-0.2979126,2.59375,6.953125,0.25
155,155,1727970633552,0.89990234,-0.0869751,-0.34259033,4.359375,9.109375,0.734375
156,156,1727970633592,0.8979492,-0.0725708,-0.32281494,5.328125,6.203125,0.796875
157,157,1727970633632,0.9030762,-0.070617676,-0.3262329,7.453125,14.359375,-0.4375
158,158,1727970633672,0.8845215,-0.07086182,-0.40826416,6.90625,13.4375,-0.453125
159,159,1727970633712,0.8798828,-0.0725708,-0.39849854,2.8125,6.1875,0.078125
160,160,1727970633752,0.8815918,-0.06695557,-0.3977661,1.90625,6.34375,-0.359375
161,161,1727970633792,0.8671875,-0.066467285,-0.39361572,3.046875,8.203125,-0.375
162,162,1727970633832,0.85839844,-0.06060791,-0.4192505,3.421875,10.25,0.15625
163,163,1727970633872,0.8552246,-0.06500244,-0.45196533,2.671875,7.734375,0.46875
164,164,1727970633912,0.86328125,-0.058410645,-0.44293213,0.8125,4.78125,0.125
165,165,1727970633952,0.8552246,-0.070617676,-0.44952393,1.140625,4.96875,-0.203125
166,166,1727970633992,0.8491211,-0.05987549,-0.45025635,1.75,6.4375,0.3125
167,167,1727970634032,0.8461914,-0.06060791,-0.46661377,1.6875,5.59375,0.109375
168,168,1727970634072,0.83935547,-0.06011963,-0.4758911,0.921875,2.609375,-0.234375
169,169,1727970634112,0.8449707,-0.06427002,-0.47027588,0.71875,2.96875,-0.40625
170,170,1727970634152,0.8405762,-0.05645752,-0.47930908,0.84375,2.171875,0.109375
171,171,1727970634192,0.83618164,-0.058898926,-0.48077393,0.5625,1.140625,-0.078125
172,172,1727970634232,0.8339844,-0.05987549,-0.47979736,0.328125,0.703125,0.125
173,173,1727970634272,0.83251953,-0.057434082,-0.47930908,0.53125,1.015625,-0.015625
174,174,1727970634312,0.82836914,-0.05718994,-0.47369385,0.203125,1.046875,0.125
175,175,1727970634352,0.82592773,-0.057922363,-0.48199463,0.421875,2.1875,0.078125
176,176,1727970634392,0.8310547,-0.057922363,-0.4915161,0.125,1.453125,-0.140625
177,177,1727970634432,0.8286133,-0.059387207,-0.4883423,0.140625,1.28125,-0.109375
178,178,1727970634472,0.8220215,-0.054504395,-0.48883057,0.171875,1.1875,0.0
179,179,1727970634512,0.82055664,-0.058898926,-0.4944458,0.359375,1.34375,0.21875
180,180,1727970634552,0.82592773,-0.062805176,-0.49371338,0.375,1.0,0.046875
181,181,1727970634592,0.83081055,-0.05987549,-0.4944458,0.015625,0.484375,0.125
182,182,1727970634632,0.8208008,-0.057922363,-0.4998169,-0.046875,0.1875,0.015625
183,183,1727970634672,0.82592773,-0.05230713,-0.49346924,0.15625,0.90625,0.0625
184,184,1727970634712,0.8232422,-0.062072754,-0.49786377,0.328125,1.046875,0.125
185,185,1727970634752,0.8198242,-0.0635376,-0.49639893,0.03125,0.328125,0.25
186,186,1727970634792,0.8198242,-0.057922363,-0.50909424,-0.046875,0.21875,-0.125
187,187,1727970634832,0.8195801,-0.062561035,-0.50250244,0.15625,-0.171875,-0.046875
188,188,1727970634872,0.8203125,-0.06109619,-0.4998169,0.21875,-0.296875,0.171875
189,189,1727970634912,0.81591797,-0.057678223,-0.5010376,0.171875,0.25,0.359375
190,190,1727970634952,0.81689453,-0.05718994,-0.5054321,0.078125,0.1875,0.140625
191,191,1727970634992,0.8183594,-0.05328369,-0.50616455,-0.078125,-0.21875,0.25
192,192,1727970635032,0.8239746,-0.055480957,-0.49835205,-0.265625,0.046875,0.0
193,193,1727970635072,0.8183594,-0.058410645,-0.5059204,-0.1875,0.578125,0.125
194,194,1727970635112,0.8239746,-0.058654785,-0.5108032,-0.0625,0.171875,0.109375
195,195,1727970635152,0.8112793,-0.055236816,-0.5100708,0.09375,-0.390625,0.046875
196,196,1727970635192,0.81689453,-0.055725098,-0.5022583,-0.015625,-0.640625,0.203125
197,197,1727970635232,0.81689453,-0.06402588,-0.5042114,0.03125,-0.25,0.109375
198,198,1727970635272,0.81469727,-0.055480957,-0.50494385,0.171875,-0.015625,0.1875
199,199,1727970635312,0.82177734,-0.054992676,-0.5108032,0.125,-0.078125,0.4375
200,200,1727970635352,0.8154297,-0.055480957,-0.51446533,0.078125,-0.3125,0.234375
201,201,1727970635392,0.8183594,-0.057922363,-0.50372314,-0.046875,0.078125,0.15625
202,202,1727970635432,0.81347656,-0.054504395,-0.5071411,0.15625,0.265625,0.296875
203,203,1727970635472,0.8220215,-0.05206299,-0.51397705,0.46875,0.1875,0.421875
204,204,1727970635512,0.81347656,-0.05303955,-0.50616455,-0.125,-0.265625,0.21875
205,205,1727970635552,0.81689453,-0.05230713,-0.50787354,0.0,-0.59375,0.03125
206,206,1727970635592,0.81811523,-0.057434082,-0.5076294,0.21875,-0.453125,0.265625
207,207,1727970635632,0.81274414,-0.05303955,-0.50250244,0.15625,-0.484375,0.140625
208,208,1727970635672,0.81640625,-0.05621338,-0.5083618,0.21875,-0.09375,0.21875
209,209,1727970635712,0.8137207,-0.0569458,-0.51031494,0.0625,-0.328125,0.234375
210,210,1727970635752,0.81347656,-0.05596924,-0.51446533,0.109375,0.0,0.25
211,211,1727970635792,0.81762695,-0.05621338,-0.5042114,0.03125,0.4375,0.171875
212,212,1727970635832,0.8190918,-0.055480957,-0.51519775,0.078125,0.46875,0.078125
213,213,1727970635872,0.81811523,-0.050109863,-0.5154419,0.046875,-0.828125,0.125
214,214,1727970635912,0.8137207,-0.054260254,-0.50909424,-0.109375,-1.28125,0.03125
215,215,1727970635952,0.81689453,-0.05328369,-0.5125122,0.03125,-0.828125,0.046875
216,216,1727970635992,0.8186035,-0.05206299,-0.5064087,-0.03125,-0.4375,0.171875
217,217,1727970636032,0.814209,-0.057678223,-0.5064087,0.203125,-0.078125,0.15625
218,218,1727970636072,0.81274414,-0.05279541,-0.51226807,0.296875,0.015625,0.265625
219,219,1727970636112,0.8129883,-0.05230713,-0.5120239,0.0,-0.203125,0.1875
220,220,1727970636152,0.82006836,-0.054748535,-0.5125122,0.265625,0.4375,0.046875
221,221,1727970636192,0.8161621,-0.05621338,-0.5132446,-0.078125,0.3125,0.109375
222,222,1727970636232,0.8137207,-0.04840088,-0.51568604,0.09375,-0.171875,0.203125
223,223,1727970636272,0.8154297,-0.049865723,-0.51226807,0.0,-0.234375,-0.046875
224,224,1727970636312,0.8166504,-0.059387207,-0.5117798,0.234375,-0.0625,-0.1875
225,225,1727970636352,0.81518555,-0.05718994,-0.5108032,0.265625,0.140625,-0.046875
226,226,1727970636392,0.81152344,-0.050842285,-0.51275635,0.4375,0.3125,0.109375
227,227,1727970636432,0.8132324,-0.051574707,-0.51397705,0.453125,0.796875,0.171875
228,228,1727970636472,0.8132324,-0.05621338,-0.5161743,0.5625,0.84375,0.0625
229,229,1727970636512,0.80444336,-0.053527832,-0.5161743,0.375,0.734375,0.28125
230,230,1727970636552,0.8051758,-0.0491333,-0.5198364,0.171875,0.5625,0.015625
231,231,1727970636592,0.8120117,-0.055480957,-0.5178833,0.5625,1.0625,-0.03125
232,232,1727970636632,0.8088379,-0.05670166,-0.5227661,0.515625,0.875,-0.046875
233,233,1727970636672,0.8010254,-0.050354004,-0.5237427,0.4375,0.375,0.09375
234,234,1727970636712,0.8034668,-0.053771973,-0.5256958,0.375,0.1875,0.0
235,235,1727970636752,0.8059082,-0.051574707,-0.52349854,0.1875,-0.953125,0.09375
236,236,1727970636792,0.80810547,-0.05328369,-0.5232544,0.265625,-0.296875,0.140625
237,237,1727970636832,0.8095703,-0.04815674,-0.5215454,0.328125,0.140625,0.21875
238,238,1727970636872,0.7998047,-0.053527832,-0.5210571,0.359375,0.3125,0.109375
239,239,1727970636912,0.8034668,-0.04815674,-0.53448486,0.140625,0.484375,0.046875
240,240,1727970636952,0.8034668,-0.055236816,-0.5557251,-0.546875,-3.21875,0.359375
241,241,1727970636992,0.8083496,-0.049865723,-0.6248169,-4.203125,-19.296875,1.09375
242,242,1727970637032,0.83203125,-0.04864502,-0.4414673,-10.109375,-36.359375,1.234375
243,243,1727970637072,0.8618164,-0.06768799,-0.42877197,-7.421875,-21.0,-0.328125
244,244,1727970637112,0.84472656,-0.070373535,-0.38043213,-3.0,-15.734375,1.0625
245,245,1727970637152,0.8635254,-0.053771973,-0.3970337,-2.703125,-8.78125,0.625
246,246,1727970637192,0.87231445,-0.070617676,-0.3772583,-2.71875,-3.0,-0.59375
247,247,1727970637232,0.86499023,-0.0791626,-0.39385986,0.421875,2.265625,-0.203125
248,248,1727970637272,0.8725586,-0.06939697,-0.41363525,-0.328125,-2.265625,0.125
249,249,1727970637312,0.88623047,-0.0713501,-0.38043213,-1.140625,-0.84375,-0.625
250,250,1727970637352,0.88061523,-0.078186035,-0.41070557,1.1875,3.765625,-0.15625
251,251,1727970637392,0.8671875,-0.07574463,-0.4199829,-0.34375,-1.046875,0.328125
252,252,1727970637432,0.87475586,-0.06817627,-0.40045166,-0.265625,-0.75,0.203125
253,253,1727970637472,0.8688965,-0.07598877,-0.4024048,0.453125,-0.125,0.375
254,254,1727970637512,0.87597656,-0.062072754,-0.41070557,0.125,-0.28125,0.484375
255,255,1727970637552,0.875,-0.06695557,-0.4085083,-0.671875,-1.515625,0.015625
256,256,1727970637592,0.87524414,-0.07086182,-0.3982544,-0.171875,-1.5,0.140625
257,257,1727970637632,0.875,-0.073791504,-0.40386963,-0.109375,-1.390625,0.109375
258,258,1727970637672,0.87109375,-0.06842041,-0.40142822,-0.5625,-2.109375,0.1875
259,259,1727970637712,0.8828125,-0.06817627,-0.3982544,-0.3125,-1.484375,0.21875
260,260,1727970637752,0.876709,-0.070373535,-0.40509033,-0.46875,-0.859375,0.140625
261,261,1727970637792,0.88061523,-0.06842041,-0.4085083,-1.90625,-3.5625,-0.203125
262,262,1727970637832,0.876709,-0.07232666,-0.3850708,-1.9375,-3.796875,-0.328125
263,263,1727970637872,0.87768555,-0.078430176,-0.37286377,-0.796875,-1.25,-0.046875
264,264,1727970637912,0.8815918,-0.0713501,-0.3982544,-0.4375,0.421875,0.265625
265,265,1727970637952,0.8803711,-0.0803833,-0.38482666,-1.1875,-0.90625,-0.015625
266,266,1727970637992,0.87841797,-0.074035645,-0.38726807,0.375,1.71875,0.4375
267,267,1727970638032,0.8774414,-0.07183838,-0.38970947,0.25,0.734375,0.34375
268,268,1727970638072,0.8796387,-0.0725708,-0.38653564,0.046875,0.0,0.0625
269,269,1727970638112,0.87890625,-0.07281494,-0.38531494,0.125,1.296875,0.03125
270,270,1727970638152,0.8803711,-0.08013916,-0.395813,-0.453125,0.28125,0.078125
271,271,1727970638192,0.8742676,-0.07476807,-0.394104,-0.125,-0.15625,0.109375
272,272,1727970638232,0.875,-0.069885254,-0.37408447,-0.1875,-2.359375,0.703125
273,273,1727970638272,0.8874512,-0.07476807,-0.39898682,0.078125,-0.109375,0.484375
274,274,1727970638312,0.8847656,-0.08135986,-0.4036255,-0.90625,-2.515625,-0.203125
275,275,1727970638352,0.8754883,-0.08111572,-0.39312744,-0.78125,-2.375,-0.421875
276,276,1727970638392,0.87231445,-0.08355713,-0.3838501,-0.21875,-1.1875,0.0
277,277,1727970638432,0.8774414,-0.077697754,-0.37994385,0.3125,0.984375,0.265625
278,278,1727970638472,0.87402344,-0.07550049,-0.38409424,1.46875,4.625,0.09375
279,279,1727970638512,0.8796387,-0.0791626,-0.41534424,2.234375,5.46875,0.421875
280,280,1727970638552,0.86743164,-0.07281494,-0.41168213,1.609375,4.140625,0.140625
281,281,1727970638592,0.85717773,-0.061340332,-0.40338135,2.203125,5.46875,0.015625
282,282,1727970638632,0.86987305,-0.06866455,-0.42681885,2.375,6.4375,0.234375
283,283,1727970638672,0.86572266,-0.06500244,-0.4492798,1.625,6.53125,-0.296875
284,284,1727970638712,0.8496094,-0.066711426,-0.4492798,1.984375,5.5,-0.21875
285,285,1727970638752,0.84375,-0.06451416,-0.44610596,2.921875,6.125,-0.078125
286,286,1727970638792,0.8413086,-0.06573486,-0.4570923,2.484375,5.671875,-0.046875
287,287,1727970638832,0.8430176,-0.06304932,-0.47857666,2.21875,4.890625,0.234375
288,288,1727970638872,0.8378906,-0.0635376,-0.472229,1.203125,1.8125,0.09375
289,289,1727970638912,0.83691406,-0.062316895,-0.4727173,1.328125,2.90625,0.046875
290,290,1727970638952,0.8359375,-0.057922363,-0.48101807,1.515625,2.671875,0.1875
291,291,1727970638992,0.8305664,-0.06011963,-0.48516846,1.0625,1.84375,0.203125
292,292,1727970639032,0.829834,-0.057678223,-0.47735596,0.71875,2.1875,0.1875
293,293,1727970639072,0.8310547,-0.057922363,-0.48321533,0.84375,2.734375,0.46875
294,294,1727970639112,0.82250977,-0.058898926,-0.49395752,0.609375,2.65625,0.421875
295,295,1727970639152,0.82666016,-0.059387207,-0.5027466,0.484375,1.640625,0.40625
296,296,1727970639192,0.8339844,-0.05718994,-0.5088501,0.484375,0.0,0.34375
297,297,1727970639232,0.8261719,-0.054016113,-0.5108032,-0.75,-3.96875,0.265625
298,298,1727970639272,0.826416,-0.054504395,-0.4985962,-1.90625,-6.515625,0.0625
299,299,1727970639312,0.8330078,-0.058166504,-0.4907837,-3.859375,-11.484375,0.0625
300,300,1727970639352,0.8378906,-0.06719971,-0.4439087,-4.15625,-9.390625,-0.578125
301,301,1727970639392,0.8527832,-0.06329346,-0.46124268,-2.84375,-7.515625,-0.421875
302,302,1727970639432,0.84277344,-0.07647705,-0.47784424,-2.953125,-11.875,0.046875
303,303,1727970639472,0.85595703,-0.07086182,-0.41070557,-2.71875,-7.140625,-0.109375
304,304,1727970639512,0.859375,-0.070617676,-0.42437744,-1.03125,-3.5,0.09375
305,305,1727970639552,0.8625488,-0.06817627,-0.40142822,-0.96875,-2.84375,0.328125
306,306,1727970639592,0.8652344,-0.0791626,-0.41485596,0.265625,1.0625,0.28125
307,307,1727970639632,0.859375,-0.06427002,-0.4216919,0.796875,1.296875,0.609375
308,308,1727970639672,0.85717773,-0.07110596,-0.42486572,0.828125,1.578125,0.53125
309,309,1727970639712,0.86328125,-0.06768799,-0.42364502,0.46875,1.6875,0.421875
310,310,1727970639752,0.86157227,-0.0713501,-0.43536377,0.40625,1.828125,0.125
311,311,1727970639792,0.8557129,-0.06719971,-0.42974854,0.65625,2.390625,-0.03125
312,312,1727970639832,0.8508301,-0.06890869,-0.4319458,1.328125,4.140625,-0.015625
313,313,1727970639872,0.8532715,-0.065979004,-0.44122314,1.828125,5.828125,0.03125
314,314,1727970639912,0.8432617,-0.06573486,-0.45611572,2.609375,7.203125,0.28125
315,315,1727970639952,0.8483887,-0.06060791,-0.45855713,2.84375,6.015625,0.296875
316,316,1727970639992,0.8342285,-0.058654785,-0.4788208,2.484375,6.4375,0.40625
317,317,1727970640032,0.829834,-0.058410645,-0.49053955,1.5625,4.265625,0.296875
318,318,1727970640072,0.828125,-0.06060791,-0.49053955,0.890625,2.96875,0.234375
319,319,1727970640112,0.8261719,-0.058410645,-0.4907837,0.6875,2.125,0.3125
320,320,1727970640152,0.82592773,-0.05328369,-0.49468994,0.875,1.46875,0.5
321,321,1727970640192,0.8322754,-0.054016113,-0.49249268,0.1875,0.703125,0.125
322,322,1727970640232,0.8269043,-0.054260254,-0.49542236,0.15625,0.578125,-0.015625
323,323,1727970640272,0.82714844,-0.06109619,-0.48931885,0.484375,0.78125,0.09375
324,324,1727970640312,0.82373047,-0.05328369,-0.4968872,0.375,1.0,0.203125
325,325,1727970640352,0.8249512,-0.051818848,-0.49664307,0.546875,1.015625,0.34375
326,326,1727970640392,0.82836914,-0.058898926,-0.49517822,0.3125,0.46875,0.265625
327,327,1727970640432,0.82055664,-0.054992676,-0.4973755,0.421875,0.265625,0.296875
328,328,1727970640472,0.8234863,-0.054260254,-0.4968872,0.171875,1.0625,0.171875
329,329,1727970640512,0.82470703,-0.055480957,-0.50616455,0.3125,1.125,0.1875
330,330,1727970640552,0.82299805,-0.054016113,-0.50738525,0.296875,0.25,0.078125
331,331,1727970640592,0.8161621,-0.049621582,-0.50006104,0.203125,-0.3125,-0.03125
332,332,1727970640632,0.8186035,-0.05206299,-0.5015259,0.3125,0.171875,0.0625
333,333,1727970640672,0.8161621,-0.054016113,-0.5027466,0.203125,0.421875,0.03125
334,334,1727970640712,0.81811523,-0.054748535,-0.50445557,0.28125,0.609375,0.15625
335,335,1727970640752,0.8166504,-0.051330566,-0.50567627,0.28125,1.0625,0.0625
336,336,1727970640792,0.81640625,-0.047180176,-0.51031494,0.359375,0.6875,0.328125
337,337,1727970640832,0.82250977,-0.050842285,-0.5059204,-0.0625,0.140625,0.0
338,338,1727970640872,0.81591797,-0.04888916,-0.5071411,0.328125,1.375,0.109375
339,339,1727970640912,0.81396484,-0.051574707,-0.5166626,0.609375,1.65625,0.515625
340,340,1727970640952,0.81396484,-0.04473877,-0.51763916,0.34375,0.75,-0.140625
341,341,1727970640992,0.8125,-0.04864502,-0.5210571,0.015625,0.4375,-0.109375
342,342,1727970641032,0.8051758,-0.050598145,-0.5125122,0.453125,0.34375,-0.046875
343,343,1727970641072,0.8100586,-0.050354004,-0.5125122,0.4375,0.828125,0.03125
344,344,1727970641112,0.8117676,-0.05230713,-0.5159302,0.5,1.203125,0.28125
345,345,1727970641152,0.8046875,-0.047180176,-0.5166626,0.359375,1.171875,0.0
346,346,1727970641192,0.81103516,-0.05279541,-0.5269165,0.296875,0.90625,0.125
347,347,1727970641232,0.798584,-0.05230713,-0.5220337,0.25,0.953125,0.0625
348,348,1727970641272,0.8088379,-0.049865723,-0.52960205,0.046875,1.25,-0.015625
349,349,1727970641312,0.8054199,-0.051574707,-0.5322876,0.296875,0.59375,-0.078125
350,350,1727970641352,0.8010254,-0.050598145,-0.5303345,0.140625,-0.140625,-0.03125
351,351,1727970641392,0.79907227,-0.04864502,-0.52838135,0.1875,0.078125,0.046875
352,352,1727970641432,0.8005371,-0.050598145,-0.53204346,0.203125,0.390625,0.125
353,353,1727970641472,0.8005371,-0.050354004,-0.52911377,0.234375,0.5,0.109375
354,354,1727970641512,0.79785156,-0.045715332,-0.5359497,0.328125,0.5625,0.171875
355,355,1727970641552,0.8039551,-0.050842285,-0.5310669,0.15625,0.265625,0.125
356,356,1727970641592,0.8000488,-0.050842285,-0.5317993,-0.09375,-0.109375,-0.015625
357,357,1727970641632,0.8041992,-0.050109863,-0.53253174,0.15625,0.40625,0.109375
358,358,1727970641672,0.7973633,-0.046936035,-0.54034424,0.296875,0.109375,0.21875
359,359,1727970641712,0.80444336,-0.045959473,-0.53790283,-0.203125,-0.734375,0.203125
360,360,1727970641752,0.79833984,-0.04547119,-0.55596924,-0.71875,-2.578125,-0.015625
361,361,1727970641792,0.8010254,-0.050842285,-0.55596924,-1.71875,-11.3125,0.71875
362,362,1727970641832,0.8161621,-0.045959473,-0.5198364,-4.125,-16.171875,0.234375
363,363,1727970641872,0.8273926,-0.054748535,-0.50860596,-5.390625,-18.21875,-0.28125
364,364,1727970641912,0.8417969,-0.06060791,-0.49102783,-6.96875,-25.65625,0.484375
365,365,1727970641952,0.86816406,-0.06011963,-0.40533447,-8.046875,-27.140625,-0.890625
366,366,1727970641992,0.87158203,-0.06011963,-0.37335205,-5.234375,-13.140625,-0.625
367,367,1727970642032,0.86694336,-0.06060791,-0.36846924,-3.140625,-6.25,-0.796875
368,368,1727970642072,0.8820801,-0.074523926,-0.38336182,-4.046875,-6.46875,-0.6875
369,369,1727970642112,0.88500977,-0.081848145,-0.36920166,-2.625,-1.984375,-0.625
370,370,1727970642152,0.875,-0.08331299,-0.36212158,-1.1875,-1.140625,-0.078125
371,371,1727970642192,0.8881836,-0.07867432,-0.3711548,-0.0625,0.46875,0.296875
372,372,1727970642232,0.87768555,-0.07965088,-0.3838501,0.734375,2.09375,0.3125
373,373,1727970642272,0.88256836,-0.07232666,-0.39093018,0.828125,0.46875,0.875
374,374,1727970642312,0.8781738,-0.07330322,-0.3862915,0.25,0.015625,0.546875
375,375,1727970642352,0.8798828,-0.07354736,-0.39996338,-0.46875,-1.734375,0.078125
376,376,1727970642392,0.89086914,-0.08062744,-0.3904419,-0.8125,-3.296875,-0.015625
377,377,1727970642432,0.890625,-0.08111572,-0.37652588,-0.34375,-2.15625,0.15625
378,378,1727970642472,0.8774414,-0.06915283,-0.37408447,-0.046875,-0.625,0.234375
379,379,1727970642512,0.8828125,-0.07476807,-0.380188,-0.65625,-1.328125,0.296875
380,380,1727970642552,0.8828125,-0.077941895,-0.37335205,-0.375,-1.390625,0.15625
381,381,1727970642592,0.8808594,-0.08380127,-0.36749268,0.296875,0.171875,0.640625
382,382,1727970642632,0.88623047,-0.07501221,-0.380188,0.953125,1.921875,0.421875
383,383,1727970642672,0.88671875,-0.08087158,-0.38067627,0.671875,1.53125,0.3125
384,384,1727970642712,0.8828125,-0.078430176,-0.3928833,0.140625,0.21875,0.234375
385,385,1727970642752,0.8835449,-0.07354736,-0.3880005,0.40625,0.125,0.296875
386,386,1727970642792,0.8803711,-0.074523926,-0.38409424,-0.09375,0.296875,-0.09375
387,387,1727970642832,0.8823242,-0.07598877,-0.39141846,-0.484375,-0.4375,-0.125
388,388,1727970642872,0.89086914,-0.08282471,-0.38970947,-0.5,-1.4375,0.015625
389,389,1727970642912,0.8823242,-0.07720947,-0.38067627,-0.578125,-1.203125,0.15625
390,390,1727970642952,0.8774414,-0.07598877,-0.38604736,-0.046875,-0.28125,0.296875
391,391,1727970642992,0.8757324,-0.07989502,-0.37213135,-0.5625,0.296875,0.15625
392,392,1727970643032,0.8864746,-0.08282471,-0.38824463,0.09375,1.53125,0.328125
393,393,1727970643072,0.8791504,-0.08135986,-0.39312744,-0.09375,-0.828125,0.09375
394,394,1727970643112,0.8886719,-0.07598877,-0.3892212,-0.28125,-1.796875,0.109375
395,395,1727970643152,0.8796387,-0.07110596,-0.38043213,0.390625,-0.84375,0.328125
396,396,1727970643192,0.88305664,-0.07672119,-0.37945557,-0.15625,-0.609375,0.09375
397,397,1727970643232,0.8845215,-0.08502197,-0.37652588,-0.15625,-0.03125,-0.109375
398,398,1727970643272,0.87890625,-0.07550049,-0.39337158,0.390625,0.78125,0.296875
399,399,1727970643312,0.8852539,-0.078430176,-0.39190674,0.015625,-1.15625,0.234375
400,400,1727970643352,0.8823242,-0.07867432,-0.38604736,-0.078125,-1.21875,0.078125
401,401,1727970643392,0.87939453,-0.08306885,-0.37823486,0.21875,-0.484375,0.484375
402,402,1727970643432,0.88500977,-0.07696533,-0.38189697,0.09375,0.734375,0.484375
403,403,1727970643472,0.8859863,-0.07623291,-0.38238525,-0.234375,0.0,0.25
404,404,1727970643512,0.8881836,-0.07159424,-0.38897705,-0.25,0.359375,0.125
405,405,1727970643552,0.87841797,-0.0725708,-0.37799072,-0.109375,0.46875,0.0625
406,406,1727970643592,0.87719727,-0.07598877,-0.3850708,0.078125,1.09375,0.015625
407,407,1727970643632,0.8781738,-0.07208252,-0.38775635,0.03125,1.484375,0.0
408,408,1727970643672,0.8811035,-0.074279785,-0.39385986,-0.21875,-0.15625,-0.171875
409,409,1727970643712,0.87353516,-0.077697754,-0.39971924,-0.359375,-0.859375,-0.140625
410,410,1727970643752,0.87890625,-0.08013916,-0.39361572,-0.296875,-2.625,0.203125
411,411,1727970643792,0.88623047,-0.081848145,-0.38458252,-0.140625,-2.25,0.40625
412,412,1727970643832,0.87939453,-0.08013916,-0.38726807,-0.640625,-3.78125,0.578125
413,413,1727970643872,0.88964844,-0.07940674,-0.3789673,-1.140625,-3.203125,0.5625
414,414,1727970643912,0.8859863,-0.0713501,-0.37921143,-1.796875,-1.703125,0.109375
415,415,1727970643952,0.87768555,-0.08258057,-0.36993408,-1.6875,-2.625,-0.28125
416,416,1727970643992,0.8864746,-0.07965088,-0.36627197,-1.203125,-0.625,-0.34375
417,417,1727970644032,0.88183594,-0.08453369,-0.38238525,-1.390625,-0.03125,-0.546875
418,418,1727970644072,0.8845215,-0.08331299,-0.37457275,-1.453125,-1.0,-0.625
419,419,1727970644112,0.8864746,-0.09161377,-0.3682251,-0.765625,0.203125,0.109375
420,420,1727970644152,0.8955078,-0.08282471,-0.37921143,-0.796875,-0.703125,-0.3125
421,421,1727970644192,0.88916016,-0.08673096,-0.37261963,-0.78125,-0.71875,-0.0625
422,422,1727970644232,0.8869629,-0.08673096,-0.36309814,-0.390625,-0.328125,0.265625
423,423,1727970644272,0.8796387,-0.08892822,-0.37774658,0.140625,0.078125,0.390625
424,424,1727970644312,0.8857422,-0.0881958,-0.3694458,-0.125,-0.78125,0.109375
425,425,1727970644352,0.8769531,-0.08135986,-0.37213135,-0.078125,-0.09375,0.265625
426,426,1727970644392,0.89086914,-0.085510254,-0.36920166,-0.265625,0.28125,0.21875
427,427,1727970644432,0.89160156,-0.08843994,-0.37774658,-0.4375,-0.90625,-0.25
428,428,1727970644472,0.88061523,-0.09136963,-0.3657837,-0.125,-0.3125,0.1875
429,429,1727970644512,0.88671875,-0.08087158,-0.378479,-0.203125,0.03125,0.125
430,430,1727970644552,0.88378906,-0.08868408,-0.37286377,-0.125,0.125,0.0
431,431,1727970644592,0.8869629,-0.08721924,-0.36993408,-0.28125,-0.40625,0.140625
432,432,1727970644632,0.888916,-0.08843994,-0.3772583,-0.25,-0.75,0.203125
433,433,1727970644672,0.8828125,-0.08502197,-0.38189697,-0.703125,-1.90625,-0.171875
434,434,1727970644712,0.8864746,-0.08843994,-0.36602783,-2.015625,-4.21875,-0.59375
435,435,1727970644752,0.88720703,-0.09259033,-0.3640747,-1.1875,-1.6875,-0.46875
436,436,1727970644792,0.8835449,-0.09210205,-0.37335205,-0.921875,-1.609375,-0.171875
437,437,1727970644832,0.89697266,-0.097473145,-0.35528564,-0.140625,-0.9375,0.0625
438,438,1727970644872,0.892334,-0.089660645,-0.36090088,0.046875,0.0,-0.078125
439,439,1727970644912,0.8857422,-0.09503174,-0.3682251,0.265625,0.796875,0.328125
440,440,1727970644952,0.88964844,-0.09503174,-0.3682251,0.09375,0.265625,0.359375
441,441,1727970644992,0.89086914,-0.09625244,-0.36871338,0.21875,0.421875,0.609375
442,442,1727970645032,0.89086914,-0.09503174,-0.36212158,0.296875,0.6875,0.390625
443,443,1727970645072,0.89086914,-0.086242676,-0.37384033,0.40625,0.171875,0.28125
444,444,1727970645112,0.88720703,-0.08868408,-0.35968018,0.078125,-0.234375,0.109375
445,445,1727970645152,0.88671875,-0.08843994,-0.37457275,-0.25,-0.40625,-0.171875
446,446,1727970645192,0.8952637,-0.089416504,-0.37091064,-0.296875,-1.0,0.0625
447,447,1727970645232,0.888916,-0.090148926,-0.36724854,-0.203125,-0.6875,0.203125
448,448,1727970645272,0.8835449,-0.089416504,-0.36553955,-0.109375,-0.921875,0.109375
449,449,1727970645312,0.8918457,-0.09063721,-0.35772705,0.421875,0.3125,0.078125
450,450,1727970645352,0.88623047,-0.09063721,-0.3640747,0.453125,1.515625,0.515625
451,451,1727970645392,0.8859863,-0.08892822,-0.37701416,0.46875,0.984375,0.3125
452,452,1727970645432,0.8828125,-0.08843994,-0.3616333,0.8125,1.765625,0.34375
453,453,1727970645472,0.888916,-0.08453369,-0.37677002,0.921875,2.671875,0.34375
454,454,1727970645512,0.8796387,-0.082092285,-0.3814087,0.65625,1.84375,0.109375
455,455,1727970645552,0.8828125,-0.08062744,-0.38482666,0.515625,1.65625,0.046875
456,456,1727970645592,0.8833008,-0.089660645,-0.38336182,1.015625,1.625,0.15625
457,457,1727970645632,0.8808594,-0.08721924,-0.37164307,2.25,3.46875,0.625
458,458,1727970645672,0.8757324,-0.077941895,-0.39483643,2.578125,4.9375,0.3125
459,459,1727970645712,0.87597656,-0.08380127,-0.4060669,2.09375,3.46875,0.265625
460,460,1727970645752,0.8691406,-0.08453369,-0.40020752,2.421875,3.8125,0.515625
461,461,1727970645792,0.8684082,-0.07720947,-0.42095947,2.578125,3.75,0.96875
462,462,1727970645832,0.86450195,-0.07354736,-0.42486572,0.984375,1.53125,0.578125
463,463,1727970645872,0.87158203,-0.077697754,-0.42193604,1.15625,2.125,0.125
464,464,1727970645912,0.8625488,-0.07159424,-0.42999268,1.125,1.546875,0.25
465,465,1727970645952,0.8564453,-0.07110596,-0.4258423,0.890625,1.09375,0.0625
466,466,1727970645992,0.8635254,-0.07281494,-0.43145752,0.5,0.921875,0.078125
467,467,1727970646032,0.8635254,-0.07525635,-0.42510986,0.640625,1.59375,0.140625
468,468,1727970646072,0.85668945,-0.066711426,-0.42364502,0.828125,1.984375,0.109375
469,469,1727970646112,0.85595703,-0.07598877,-0.44415283,1.3125,2.078125,0.125
470,470,1727970646152,0.8574219,-0.07232666,-0.43463135,0.265625,0.765625,0.0
471,471,1727970646192,0.85498047,-0.07159424,-0.4343872,0.21875,1.46875,-0.21875
472,472,1727970646232,0.86035156,-0.07086182,-0.4451294,0.359375,2.25,0.109375
473,473,1727970646272,0.8503418,-0.070617676,-0.4553833,0.59375,0.53125,0.140625
474,474,1727970646312,0.8557129,-0.07305908,-0.4451294,0.109375,-0.0625,-0.046875
475,475,1727970646352,0.84765625,-0.07281494,-0.4475708,0.3125,0.34375,-0.09375
476,476,1727970646392,0.8496094,-0.07354736,-0.44732666,0.734375,1.09375,0.234375
477,477,1727970646432,0.8520508,-0.069885254,-0.4512329,0.125,0.5625,0.296875
478,478,1727970646472,0.84521484,-0.06964111,-0.45025635,0.171875,-0.109375,0.0625
479,479,1727970646512,0.85302734,-0.07354736,-0.44830322,0.203125,0.25,0.265625
480,480,1727970646552,0.84716797,-0.0713501,-0.4529419,0.3125,0.015625,0.328125
481,481,1727970646592,0.85302734,-0.069885254,-0.44903564,0.140625,0.25,0.15625
482,482,1727970646632,0.8469238,-0.07330322,-0.45318604,0.234375,0.515625,0.265625
483,483,1727970646672,0.84814453,-0.069885254,-0.45684814,0.203125,0.0625,0.296875
484,484,1727970646712,0.84716797,-0.06915283,-0.4505005,-0.234375,-0.234375,0.140625
485,485,1727970646752,0.84521484,-0.074035645,-0.44659424,-0.25,0.015625,0.03125
486,486,1727970646792,0.8483887,-0.074523926,-0.45855713,-0.234375,-0.53125,0.0625
487,487,1727970646832,0.845459,-0.0713501,-0.45196533,-0.234375,-0.9375,0.09375
488,488,1727970646872,0.8503418,-0.07208252,-0.4788208,-0.640625,-2.515625,0.078125
489,489,1727970646912,0.8498535,-0.0791626,-0.4776001,-3.765625,-11.03125,0.265625
490,490,1727970646952,0.8581543,-0.07354736,-0.4102173,-4.484375,-12.90625,0.078125
491,491,1727970646992,0.87475586,-0.074279785,-0.44195557,-3.859375,-12.28125,0.578125
492,492,1727970647032,0.8798828,-0.07672119,-0.378479,-5.5,-14.0,0.25
493,493,1727970647072,0.8811035,-0.077697754,-0.36846924,-4.265625,-8.28125,-0.109375
494,494,1727970647112,0.8820801,-0.08111572,-0.3526001,-2.234375,-4.09375,-0.4375
495,495,1727970647152,0.8864746,-0.08258057,-0.3604126,0.359375,0.46875,0.0
496,496,1727970647192,0.87890625,-0.082092285,-0.36798096,0.609375,0.609375,0.3125
497,497,1727970647232,0.8864746,-0.081604004,-0.3875122,0.203125,1.09375,-0.234375
498,498,1727970647272,0.8911133,-0.08795166,-0.3796997,-0.375,-1.453125,-0.515625
499,499,1727970647312,0.89282227,-0.09234619,-0.3706665,0.40625,0.328125,0.1875
500,500,1727970647352,0.8786621,-0.082336426,-0.3772583,0.78125,0.625,0.546875
501,501,1727970647392,0.8779297,-0.086242676,-0.37945557,0.953125,1.34375,0.5625
502,502,1727970647432,0.88061523,-0.07940674,-0.38311768,0.4375,1.53125,0.21875
503,503,1727970647472,0.8808594,-0.08087158,-0.3880005,0.46875,0.609375,0.265625
504,504,1727970647512,0.8833008,-0.0803833,-0.38238525,0.359375,0.625,0.078125
505,505,1727970647552,0.88305664,-0.085510254,-0.39312744,-0.203125,0.125,-0.015625
506,506,1727970647592,0.8815918,-0.08062744,-0.3916626,-0.46875,-2.4375,-0.125
507,507,1727970647632,0.87719727,-0.08258057,-0.38238525,-0.28125,-2.21875,0.34375
508,508,1727970647672,0.88256836,-0.07989502,-0.37384033,-0.515625,-2.359375,0.203125
509,509,1727970647712,0.87939453,-0.08331299,-0.37750244,-0.234375,-0.890625,0.046875
510,510,1727970647752,0.8852539,-0.08917236,-0.37408447,0.21875,0.3125,0.3125
511,511,1727970647792,0.88012695,-0.07965088,-0.37872314,0.484375,1.796875,0.203125
512,512,1727970647832,0.8803711,-0.077697754,-0.39678955,-0.03125,0.71875,0.03125
513,513,1727970647872,0.8874512,-0.08135986,-0.39093018,-0.515625,-1.484375,-0.171875
514,514,1727970647912,0.8798828,-0.08428955,-0.38067627,0.015625,-0.40625,0.046875
515,515,1727970647952,0.87280273,-0.08721924,-0.38116455,0.125,-0.390625,0.21875
516,516,1727970647992,0.8864746,-0.08843994,-0.38458252,-0.109375,-0.46875,0.203125
517,517,1727970648032,0.8786621,-0.08013916,-0.3796997,0.1875,0.75,0.234375
518,518,1727970648072,0.88012695,-0.08355713,-0.39019775,-0.125,-0.078125,0.09375
519,519,1727970648112,0.8808594,-0.081848145,-0.38482666,-0.078125,-0.375,0.125
520,520,1727970648152,0.87402344,-0.08453369,-0.3821411,0.3125,0.578125,0.28125
521,521,1727970648192,0.87353516,-0.08282471,-0.3838501,0.359375,1.59375,0.25
522,522,1727970648232,0.8808594,-0.08843994,-0.38580322,0.484375,1.96875,0.15625
523,523,1727970648272,0.87524414,-0.078186035,-0.3928833,0.671875,2.9375,0.09375
524,524,1727970648312,0.8762207,-0.08453369,-0.40899658,1.09375,2.703125,0.234375
525,525,1727970648352,0.86987305,-0.077941895,-0.39971924,1.1875,2.25,-0.03125
526,526,1727970648392,0.8730469,-0.078186035,-0.41827393,1.171875,2.640625,-0.078125
527,527,1727970648432,0.8725586,-0.090148926,-0.40826416,0.8125,1.875,-0.046875
528,528,1727970648472,0.8688965,-0.08135986,-0.40679932,1.15625,2.375,0.03125
529,529,1727970648512,0.8613281,-0.07989502,-0.40924072,1.984375,3.84375,-0.046875
530,530,1727970648552,0.86816406,-0.07989502,-0.42266846,2.109375,4.203125,0.328125
531,531,1727970648592,0.8605957,-0.07672119,-0.42877197,1.828125,3.640625,0.265625
532,532,1727970648632,0.85253906,-0.074523926,-0.44171143,1.265625,2.796875,0.25
533,533,1727970648672,0.86035156,-0.078430176,-0.43218994,0.859375,2.78125,0.078125
534,534,1727970648712,0.85595703,-0.07672119,-0.44024658,1.15625,3.5625,0.15625
535,535,1727970648752,0.84814453,-0.07159424,-0.45196533,1.0625,2.625,0.078125
536,536,1727970648792,0.8491211,-0.07183838,-0.4463501,1.09375,3.109375,0.046875
537,537,1727970648832,0.84472656,-0.06915283,-0.46417236,1.375,2.953125,0.265625
538,538,1727970648872,0.8486328,-0.06402588,-0.45928955,0.640625,2.65625,-0.03125
539,539,1727970648912,0.84472656,-0.06719971,-0.4697876,0.671875,1.859375,-0.109375
540,540,1727970648952,0.8395996,-0.065979004,-0.4619751,0.734375,1.59375,0.125
541,541,1727970648992,0.8432617,-0.06866455,-0.4619751,0.703125,1.96875,0.171875
542,542,1727970649032,0.8388672,-0.06427002,-0.472229,0.515625,2.078125,0.203125
543,543,1727970649072,0.83813477,-0.06915283,-0.4746704,0.546875,2.046875,0.203125
544,544,1727970649112,0.8366699,-0.06915283,-0.47711182,0.53125,1.609375,0.25
545,545,1727970649152,0.8359375,-0.06524658,-0.47540283,0.171875,0.84375,0.078125
546,546,1727970649192,0.8388672,-0.07159424,-0.47808838,0.296875,1.234375,-0.125
547,547,1727970649232,0.8286133,-0.0713501,-0.4763794,0.140625,0.671875,-0.015625
548,548,1727970649272,0.83569336,-0.06866455,-0.48150635,0.28125,0.390625,0.0625
549,549,1727970649312,0.82910156,-0.066223145,-0.47735596,0.125,0.390625,0.0625
550,550,1727970649352,0.8339844,-0.07183838,-0.4837036,0.421875,0.71875,0.171875
551,551,1727970649392,0.82299805,-0.066467285,-0.4817505,0.21875,0.890625,0.28125
552,552,1727970649432,0.8305664,-0.07183838,-0.4920044,0.203125,0.9375,0.265625
553,553,1727970649472,0.8342285,-0.06329346,-0.48345947,0.203125,-0.046875,0.3125
554,554,1727970649512,0.83374023,-0.07159424,-0.489563,0.15625,0.359375,0.203125
555,555,1727970649552,0.8261719,-0.06719971,-0.48492432,-0.09375,0.015625,0.09375
556,556,1727970649592,0.8327637,-0.07086182,-0.487854,0.1875,0.53125,0.203125
557,557,1727970649632,0.82836914,-0.06842041,-0.49224854,0.09375,0.21875,0.28125
558,558,1727970649672,0.8249512,-0.06329346,-0.49053955,0.234375,0.28125,0.265625
559,559,1727970649712,0.83154297,-0.06915283,-0.49298096,-0.046875,-0.203125,0.125
560,560,1727970649752,0.8198242,-0.06915283,-0.48492432,-0.078125,-0.578125,0.09375
561,561,1727970649792,0.8210449,-0.066467285,-0.4890747,0.046875,-0.421875,0.296875
562,562,1727970649832,0.82958984,-0.06695557,-0.49346924,-0.015625,-0.1875,0.265625
563,563,1727970649872,0.83251953,-0.061584473,-0.49102783,-0.015625,-0.40625,0.203125
564,564,1727970649912,0.828125,-0.0647583,-0.49176025,-0.078125,-0.84375,0.25
565,565,1727970649952,0.8261719,-0.06085205,-0.48858643,-0.171875,-0.796875,0.109375
566,566,1727970649992,0.82666016,-0.06500244,-0.4902954,-0.265625,-0.296875,0.203125
567,567,1727970650032,0.8286133,-0.062805176,-0.4907837,0.046875,-0.234375,0.15625
568,568,1727970650072,0.8239746,-0.057434082,-0.49761963,-0.046875,-0.78125,0.234375
569,569,1727970650112,0.82421875,-0.06329346,-0.49005127,-0.25,-1.03125,0.21875
570,570,1727970650152,0.82836914,-0.061584473,-0.4902954,-0.125,-0.578125,0.109375
571,571,1727970650192,0.83325195,-0.06939697,-0.48858643,-0.171875,-0.3125,0.25
572,572,1727970650232,0.82836914,-0.06500244,-0.49273682,0.078125,-0.59375,0.328125
573,573,1727970650272,0.82788086,-0.06793213,-0.49005127,0.09375,-0.546875,0.15625
574,574,1727970650312,0.8288574,-0.06793213,-0.49224854,-0.046875,-0.71875,0.203125
575,575,1727970650352,0.8300781,-0.06451416,-0.48980713,-0.15625,-0.640625,0.078125
576,576,1727970650392,0.8276367,-0.06719971,-0.489563,-0.375,-1.265625,-0.03125
577,577,1727970650432,0.83032227,-0.066223145,-0.48760986,-0.25,-0.953125,0.296875
578,578,1727970650472,0.8293457,-0.066467285,-0.48931885,-0.046875,-0.984375,0.3125
579,579,1727970650512,0.8273926,-0.062561035,-0.4817505,-0.140625,-1.34375,0.359375
580,580,1727970650552,0.82958984,-0.062072754,-0.48516846,-0.9375,-2.625,0.03125
581,581,1727970650592,0.83813477,-0.06890869,-0.47662354,-0.609375,-2.09375,0.015625
582,582,1727970650632,0.8352051,-0.061828613,-0.4805298,-0.09375,-0.953125,0.15625
583,583,1727970650672,0.8352051,-0.06549072,-0.48028564,-0.078125,-0.859375,0.28125
584,584,1727970650712,0.8334961,-0.07183838,-0.47784424,-0.03125,-0.5,0.25
585,585,1727970650752,0.8388672,-0.06451416,-0.47833252,-0.46875,-1.53125,0.125
586,586,1727970650792,0.8312988,-0.06304932,-0.47906494,-0.234375,-0.625,-0.015625
587,587,1727970650832,0.83374023,-0.06549072,-0.4751587,-0.234375,-0.421875,0.125
588,588,1727970650872,0.8347168,-0.06890869,-0.4734497,-0.046875,-0.375,0.109375
589,589,1727970650912,0.8347168,-0.066467285,-0.47808838,-0.234375,-1.015625,0.078125
590,590,1727970650952,0.83813477,-0.065979004,-0.4751587,-0.234375,-1.171875,0.078125
591,591,1727970650992,0.82836914,-0.06915283,-0.4697876,-0.1875,-0.796875,0.171875
592,592,1727970651032,0.8378906,-0.06695557,-0.47027588,0.03125,-0.03125,0.125
593,593,1727970651072,0.8378906,-0.06866455,-0.4776001,0.125,-0.125,0.21875
594,594,1727970651112,0.8330078,-0.06744385,-0.4734497,-0.046875,-0.28125,0.109375
595,595,1727970651152,0.8261719,-0.066711426,-0.4751587,0.078125,0.0,0.0
596,596,1727970651192,0.842041,-0.065979004,-0.47930908,0.15625,0.5625,0.03125
597,597,1727970651232,0.8371582,-0.066223145,-0.47784424,0.203125,0.234375,0.171875
598,598,1727970651272,0.82910156,-0.06500244,-0.473938,0.25,0.015625,-0.015625
599,599,1727970651312,0.83154297,-0.06866455,-0.47418213,0.359375,1.125,0.21875
600,600,1727970651352,0.8317871,-0.06939697,-0.4805298,0.75,1.359375,0.359375
601,601,1727970651392,0.8286133,-0.066711426,-0.489563,0.28125,0.796875,0.140625
602,602,1727970651432,0.8317871,-0.062561035,-0.48638916,0.171875,0.390625,-0.078125
603,603,1727970651472,0.8300781,-0.06793213,-0.4902954,0.3125,0.265625,0.140625
604,604,1727970651512,0.8300781,-0.06964111,-0.4902954,0.328125,0.71875,0.265625
605,605,1727970651552,0.8273926,-0.062316895,-0.49224854,0.1875,0.140625,0.1875
606,606,1727970651592,0.8269043,-0.0647583,-0.49224854,0.125,0.328125,0.1875
607,607,1727970651632,0.8317871,-0.06329346,-0.49102783,0.03125,0.140625,0.15625
608,608,1727970651672,0.82543945,-0.06768799,-0.48101807,0.109375,0.015625,-0.0625
609,609,1727970651712,0.8288574,-0.066467285,-0.49273682,-0.078125,0.609375,-0.03125
610,610,1727970651752,0.83203125,-0.06719971,-0.49761963,0.015625,0.328125,-0.1875
611,611,1727970651792,0.8261719,-0.06939697,-0.49005127,0.421875,0.375,-0.015625
612,612,1727970651832,0.8210449,-0.06890869,-0.49102783,0.25,0.359375,0.03125
613,613,1727970651872,0.826416,-0.0647583,-0.49517822,0.609375,0.9375,0.078125
614,614,1727970651912,0.8276367,-0.06402588,-0.49493408,0.421875,0.890625,0.09375
615,615,1727970651952,0.82470703,-0.06329346,-0.5003052,0.421875,0.8125,0.03125
616,616,1727970651992,0.8198242,-0.06695557,-0.5015259,0.171875,0.546875,0.125
617,617,1727970652032,0.8183594,-0.065979004,-0.50323486,0.28125,0.625,-0.046875
618,618,1727970652072,0.81469727,-0.06011963,-0.50616455,0.28125,0.796875,0.03125
619,619,1727970652112,0.81689453,-0.06378174,-0.5022583,0.421875,0.40625,0.171875
620,620,1727970652152,0.8190918,-0.06719971,-0.4993286,0.265625,0.46875,-0.078125
621,621,1727970652192,0.81689453,-0.06304932,-0.50177,0.1875,0.875,0.21875
622,622,1727970652232,0.81274414,-0.061828613,-0.50738525,0.453125,0.53125,0.5
623,623,1727970652272,0.8161621,-0.06402588,-0.51397705,0.28125,0.109375,0.1875
624,624,1727970652312,0.82128906,-0.062072754,-0.5083618,0.0625,0.09375,0.03125
625,625,1727970652352,0.80810547,-0.06451416,-0.51446533,0.203125,-0.15625,0.15625
626,626,1727970652392,0.8154297,-0.061828613,-0.506897,0.0,0.09375,0.234375
627,627,1727970652432,0.81689453,-0.06695557,-0.50982666,0.125,0.5625,0.28125
628,628,1727970652472,0.81518555,-0.059387207,-0.5130005,0.296875,0.46875,0.15625
629,629,1727970652512,0.81274414,-0.062561035,-0.5132446,0.078125,0.546875,0.21875
630,630,1727970652552,0.81689453,-0.059387207,-0.50787354,-0.03125,0.109375,0.125
631,631,1727970652592,0.814209,-0.06768799,-0.5132446,-0.078125,0.265625,0.15625
632,632,1727970652632,0.81225586,-0.06378174,-0.51519775,-0.03125,-0.015625,0.109375
633,633,1727970652672,0.8100586,-0.06573486,-0.51519775,0.15625,-0.203125,0.171875
634,634,1727970652712,0.81347656,-0.06549072,-0.517395,0.046875,-0.015625,0.0
635,635,1727970652752,0.8137207,-0.066467285,-0.5159302,0.078125,0.0,0.28125
636,636,1727970652792,0.80444336,-0.05718994,-0.5117798,0.203125,-0.046875,0.34375
637,637,1727970652832,0.8112793,-0.058166504,-0.5166626,0.171875,0.03125,0.3125
638,638,1727970652872,0.81103516,-0.05596924,-0.5161743,0.046875,-0.171875,0.1875
639,639,1727970652912,0.8100586,-0.06549072,-0.5154419,-0.140625,-0.09375,0.203125
640,640,1727970652952,0.81103516,-0.058410645,-0.5161743,0.140625,-0.125,-0.078125
641,641,1727970652992,0.8195801,-0.058410645,-0.51812744,-0.125,-0.390625,0.0
642,642,1727970653032,0.8105469,-0.054992676,-0.520813,-0.109375,-0.53125,0.0625
643,643,1727970653072,0.8059082,-0.06695557,-0.51690674,-0.046875,0.015625,0.1875
644,644,1727970653112,0.8088379,-0.06109619,-0.52301025,0.359375,0.546875,0.453125
645,645,1727970653152,0.8088379,-0.05670166,-0.5186157,0.140625,0.09375,0.296875
646,646,1727970653192,0.8144531,-0.06036377,-0.51763916,-0.171875,-0.46875,0.03125
647,647,1727970653232,0.8129883,-0.06378174,-0.51690674,0.046875,-0.34375,0.234375
648,648,1727970653272,0.80566406,-0.05596924,-0.51812744,0.078125,-0.296875,0.140625
649,649,1727970653312,0.8046875,-0.059143066,-0.5239868,0.015625,-0.34375,0.078125
650,650,1727970653352,0.8078613,-0.062072754,-0.52423096,0.015625,-0.21875,0.234375
651,651,1727970653392,0.8129883,-0.05621338,-0.520813,0.03125,-0.453125,0.234375
652,652,1727970653432,0.80444336,-0.055480957,-0.5137329,-0.171875,-0.375,0.078125
653,653,1727970653472,0.8088379,-0.06085205,-0.5195923,-0.125,-0.0625,0.15625
654,654,1727970653512,0.8076172,-0.05621338,-0.5171509,0.046875,-0.109375,0.015625
655,655,1727970653552,0.8059082,-0.06011963,-0.5237427,-0.140625,-0.78125,0.203125
656,656,1727970653592,0.80859375,-0.058166504,-0.51690674,-0.015625,-0.578125,-0.03125
657,657,1727970653632,0.814209,-0.062072754,-0.520813,0.0,-0.4375,0.046875
658,658,1727970653672,0.8132324,-0.059387207,-0.5198364,0.03125,-0.40625,0.109375
659,659,1727970653712,0.80566406,-0.06304932,-0.5171509,-0.046875,-0.3125,0.21875
660,660,1727970653752,0.8117676,-0.061584473,-0.5183716,-0.015625,-0.234375,0.234375
661,661,1727970653792,0.81152344,-0.05279541,-0.51763916,-0.078125,-0.25,0.140625
662,662,1727970653832,0.8054199,-0.06036377,-0.5220337,-0.125,-0.515625,0.109375
663,663,1727970653872,0.8029785,-0.057434082,-0.522522,0.0,-0.859375,0.046875
664,664,1727970653912,0.8076172,-0.062805176,-0.5232544,-0.046875,-0.375,0.140625
665,665,1727970653952,0.80859375,-0.062561035,-0.52130127,0.140625,0.375,0.25
666,666,1727970653992,0.8093262,-0.05670166,-0.52178955,0.109375,0.40625,0.359375
667,667,1727970654032,0.8078613,-0.05645752,-0.522522,-0.328125,-0.3125,0.0625
668,668,1727970654072,0.80810547,-0.057434082,-0.5227661,-0.28125,-0.796875,-0.015625
669,669,1727970654112,0.8022461,-0.06304932,-0.5195923,0.0625,-0.453125,0.296875
670,670,1727970654152,0.80859375,-0.058654785,-0.5198364,-0.203125,-0.65625,0.140625
671,671,1727970654192,0.8137207,-0.055236816,-0.5198364,-0.03125,-0.53125,0.265625
672,672,1727970654232,0.8015137,-0.057922363,-0.5256958,0.03125,-0.484375,0.234375
673,673,1727970654272,0.80566406,-0.06329346,-0.5237427,-0.03125,-0.5625,0.21875
674,674,1727970654312,0.8054199,-0.059631348,-0.5166626,-0.078125,-0.359375,0.109375
675,675,1727970654352,0.8066406,-0.054992676,-0.52667236,-0.03125,0.0625,0.09375
676,676,1727970654392,0.80908203,-0.059387207,-0.52545166,0.109375,-0.21875,0.234375
677,677,1727970654432,0.8076172,-0.054260254,-0.52130127,-0.03125,-0.828125,0.34375
678,678,1727970654472,0.81030273,-0.057434082,-0.5183716,-0.046875,-0.53125,0.109375
679,679,1727970654512,0.8063965,-0.058166504,-0.522522,0.015625,-0.40625,0.125
680,680,1727970654552,0.8117676,-0.0569458,-0.5220337,0.03125,-0.296875,0.171875
681,681,1727970654592,0.8120117,-0.059143066,-0.5252075,-0.03125,-0.328125,0.234375
682,682,1727970654632,0.8063965,-0.057434082,-0.51812744,-0.0625,-0.21875,0.15625
683,683,1727970654672,0.80493164,-0.062561035,-0.5166626,-0.046875,-0.390625,0.109375
684,684,1727970654712,0.8083496,-0.059631348,-0.51934814,0.0,-0.578125,0.171875
685,685,1727970654752,0.81103516,-0.06011963,-0.519104,-0.046875,-0.328125,0.0
686,686,1727970654792,0.8078613,-0.061828613,-0.5198364,-0.140625,-0.015625,0.3125
687,687,1727970654832,0.8027344,-0.0569458,-0.5237427,0.390625,0.140625,0.328125
688,688,1727970654872,0.8051758,-0.05279541,-0.52130127,-0.015625,-0.03125,0.015625
689,689,1727970654912,0.80810547,-0.054748535,-0.51934814,-0.09375,-0.375,0.078125
690,690,1727970654952,0.8078613,-0.05718994,-0.5203247,0.046875,-0.375,0.203125
691,691,1727970654992,0.8071289,-0.058654785,-0.52593994,0.171875,-0.484375,0.203125
692,692,1727970655032,0.8046875,-0.058410645,-0.52130127,0.09375,-0.28125,0.21875
693,693,1727970655072,0.80688477,-0.055236816,-0.522522,-0.015625,-0.484375,0.25
694,694,1727970655112,0.8095703,-0.0569458,-0.5237427,0.109375,-0.390625,0.0
695,695,1727970655152,0.8059082,-0.058898926,-0.5154419,-0.28125,-0.40625,0.125
696,696,1727970655192,0.81030273,-0.057678223,-0.52471924,-0.125,-0.078125,0.046875
697,697,1727970655232,0.8051758,-0.06060791,-0.5261841,0.015625,-0.1875,-0.03125
698,698,1727970655272,0.80249023,-0.06036377,-0.5220337,0.03125,-0.390625,0.015625
699,699,1727970655312,0.80371094,-0.055236816,-0.5203247,0.0,-0.53125,0.046875
700,700,1727970655352,0.80371094,-0.057678223,-0.52178955,0.1875,-0.109375,0.125
701,701,1727970655392,0.80615234,-0.06573486,-0.52227783,0.09375,0.171875,0.359375
702,702,1727970655432,0.8029785,-0.06060791,-0.5261841,0.3125,0.578125,0.21875
703,703,1727970655472,0.80444336,-0.05670166,-0.5249634,0.296875,0.390625,0.203125
704,704,1727970655512,0.8017578,-0.057678223,-0.53082275,0.125,0.234375,-0.015625
705,705,1727970655552,0.7973633,-0.057922363,-0.5264282,0.171875,0.140625,0.0
706,706,1727970655592,0.8076172,-0.05621338,-0.5274048,0.171875,0.375,-0.046875
707,707,1727970655632,0.80322266,-0.054992676,-0.5281372,0.21875,0.578125,0.078125
708,708,1727970655672,0.8017578,-0.05718994,-0.5310669,0.1875,0.078125,0.28125
709,709,1727970655712,0.79907227,-0.05718994,-0.5335083,0.109375,0.1875,0.078125
710,710,1727970655752,0.8027344,-0.055725098,-0.52789307,-0.03125,-0.046875,-0.140625
711,711,1727970655792,0.7988281,-0.058654785,-0.5303345,0.359375,0.296875,0.21875
712,712,1727970655832,0.8051758,-0.057434082,-0.53375244,0.21875,0.03125,0.296875
713,713,1727970655872,0.79541016,-0.055725098,-0.5288696,-0.0625,0.015625,0.125
714,714,1727970655912,0.80444336,-0.05621338,-0.53863525,0.109375,-0.125,0.171875
715,715,1727970655952,0.80078125,-0.05645752,-0.5352173,0.078125,0.0625,0.0625
716,716,1727970655992,0.8005371,-0.061584473,-0.5310669,-0.171875,-0.171875,0.1875
717,717,1727970656032,0.80126953,-0.06109619,-0.53741455,-0.125,0.203125,0.078125
718,718,1727970656072,0.7956543,-0.06060791,-0.5293579,0.03125,-0.171875,0.265625
719,719,1727970656112,0.79663086,-0.05645752,-0.5359497,0.234375,-0.1875,0.125
720,720,1727970656152,0.7993164,-0.054992676,-0.5342407,0.015625,-0.234375,0.203125
721,721,1727970656192,0.8029785,-0.06011963,-0.53375244,0.078125,-0.0625,-0.015625
722,722,1727970656232,0.79711914,-0.051818848,-0.5310669,0.046875,0.0,0.21875
723,723,1727970656272,0.79589844,-0.05621338,-0.54351807,-0.15625,-0.046875,0.140625
724,724,1727970656312,0.7939453,-0.053771973,-0.5359497,-0.03125,-0.328125,0.171875
725,725,1727970656352,0.79174805,-0.05255127,-0.5401001,-0.03125,-0.28125,0.1875
726,726,1727970656392,0.7998047,-0.05303955,-0.5442505,-0.0625,-0.4375,0.140625
727,727,1727970656432,0.7956543,-0.06036377,-0.53790283,-0.25,-0.59375,0.234375
728,728,1727970656472,0.80078125,-0.06011963,-0.5352173,-0.09375,-0.078125,0.21875
729,729,1727970656512,0.7956543,-0.05303955,-0.5418091,0.25,0.28125,0.453125
730,730,1727970656552,0.7973633,-0.05230713,-0.54034424,0.046875,-0.109375,0.4375
731,731,1727970656592,0.7949219,-0.059631348,-0.5366821,-0.3125,-0.65625,0.015625
732,732,1727970656632,0.79663086,-0.05645752,-0.53692627,-0.125,-1.0625,0.15625
733,733,1727970656672,0.79467773,-0.05621338,-0.536438,-0.0625,-0.8125,0.3125
734,734,1727970656712,0.79541016,-0.055480957,-0.53570557,-0.1875,-0.546875,0.296875
735,735,1727970656752,0.7976074,-0.053527832,-0.538147,-0.125,-0.53125,0.40625
736,736,1727970656792,0.7961426,-0.05303955,-0.536438,-0.21875,-0.859375,0.1875
737,737,1727970656832,0.7932129,-0.054748535,-0.5298462,-0.25,-0.421875,0.296875
738,738,1727970656872,0.79833984,-0.05670166,-0.5335083,-0.28125,-0.171875,0.078125
739,739,1727970656912,0.7980957,-0.059143066,-0.5418091,-0.0625,-0.296875,0.296875
740,740,1727970656952,0.79589844,-0.054260254,-0.53863525,-0.140625,-0.6875,0.15625
741,741,1727970656992,0.796875,-0.058166504,-0.53131104,-0.234375,-1.0,0.203125
742,742,1727970657032,0.7973633,-0.05718994,-0.5359497,-0.25,-0.796875,0.171875
743,743,1727970657072,0.79663086,-0.053771973,-0.5317993,-0.140625,-0.765625,0.078125
744,744,1727970657112,0.79589844,-0.051574707,-0.5317993,0.015625,-0.53125,0.3125
745,745,1727970657152,0.7980957,-0.055480957,-0.53326416,-0.125,-0.578125,0.1875
746,746,1727970657192,0.8005371,-0.058654785,-0.536438,-0.234375,-0.390625,0.21875
747,747,1727970657232,0.79785156,-0.058166504,-0.5298462,-0.21875,-0.8125,-0.0625
748,748,1727970657272,0.80078125,-0.057922363,-0.5315552,-0.09375,-0.84375,0.078125
749,749,1727970657312,0.8029785,-0.061828613,-0.52471924,-0.375,-0.40625,0.03125
750,750,1727970657352,0.7980957,-0.05279541,-0.5303345,0.171875,-0.125,0.34375
751,751,1727970657392,0.7973633,-0.046447754,-0.5322876,-0.015625,-0.265625,0.125
752,752,1727970657432,0.7993164,-0.05206299,-0.5342407,-0.109375,-0.546875,0.0625
753,753,1727970657472,0.798584,-0.055236816,-0.5288696,-0.109375,-0.546875,0.09375
754,754,1727970657512,0.8015137,-0.055725098,-0.536438,0.078125,-0.828125,0.078125
755,755,1727970657552,0.8000488,-0.057922363,-0.53375244,-0.078125,-0.78125,0.203125
756,756,1727970657592,0.796875,-0.06060791,-0.52911377,0.03125,-0.4375,0.25
757,757,1727970657632,0.80126953,-0.054260254,-0.53302,-0.015625,-0.671875,0.03125
758,758,1727970657672,0.7961426,-0.055236816,-0.5249634,-0.09375,-0.71875,0.15625
759,759,1727970657712,0.79589844,-0.054748535,-0.52960205,-0.234375,-0.390625,0.015625
