,Unnamed: 0,timestamp,accel_x,accel_y,accel_z,gyro_x,gyro_y,gyro_z
0,0,1729520198624,0.8027344,0.18475342,0.5856323,-0.546875,0.390625,-0.515625
1,1,1729520198664,0.8017578,0.19085693,0.59710693,0.53125,0.21875,-0.90625
2,2,1729520198704,0.8071289,0.18426514,0.5812378,0.234375,0.6875,-1.3125
3,3,1729520198744,0.8010254,0.18548584,0.5775757,-0.25,-0.546875,-1.03125
4,4,1729520198784,0.796875,0.1828003,0.574646,-0.4375,-0.1875,-1.0625
5,5,1729520198824,0.80688477,0.18182373,0.58099365,-1.15625,-0.109375,-0.90625
6,6,1729520198864,0.80322266,0.18450928,0.5800171,-1.25,-0.015625,-0.859375
7,7,1729520198904,0.8010254,0.1798706,0.5790405,-0.234375,-0.03125,-0.75
8,8,1729520198944,0.80444336,0.18182373,0.5787964,0.1875,0.046875,-0.4375
9,9,1729520198984,0.81396484,0.17889404,0.5819702,0.828125,1.03125,-0.015625
10,10,1729520199024,0.8178711,0.17474365,0.55877686,-0.875,-0.203125,-0.15625
11,11,1729520199064,0.8005371,0.17694092,0.5656128,-1.1875,-1.25,0.296875
12,12,1729520199104,0.8093262,0.1942749,0.5878296,0.34375,-0.546875,0.546875
13,13,1729520199144,0.8137207,0.19036865,0.5812378,1.171875,0.21875,0.296875
14,14,1729520199184,0.8059082,0.18255615,0.57440186,-0.71875,-0.171875,0.359375
15,15,1729520199224,0.81103516,0.17938232,0.56365967,-0.171875,-1.5625,0.484375
16,16,1729520199264,0.8083496,0.1852417,0.571228,0.71875,-1.0,1.0
17,17,1729520199304,0.80566406,0.17425537,0.57562256,-0.953125,-1.015625,1.125
18,18,1729520199344,0.7980957,0.184021,0.5704956,-0.65625,-2.265625,1.6875
19,19,1729520199384,0.8029785,0.19403076,0.5751343,0.15625,-1.625,2.28125
20,20,1729520199424,0.80737305,0.19232178,0.5831909,-0.515625,-0.90625,2.125
21,21,1729520199464,0.7949219,0.1954956,0.5883179,0.6875,-0.34375,2.4375
22,22,1729520199504,0.79956055,0.18109131,0.58392334,-0.171875,-0.765625,2.109375
23,23,1729520199544,0.7993164,0.19671631,0.58343506,-1.171875,-1.140625,1.59375
24,24,1729520199584,0.79833984,0.19647217,0.5975952,-2.796875,-0.875,1.09375
25,25,1729520199624,0.79663086,0.19476318,0.588562,1.078125,-0.828125,1.65625
26,26,1729520199664,0.78930664,0.19647217,0.5807495,1.828125,-1.234375,1.5625
27,27,1729520199704,0.78466797,0.21331787,0.59368896,-0.859375,-0.515625,1.734375
28,28,1729520199744,0.8041992,0.20355225,0.59661865,-0.703125,-0.234375,1.5625
29,29,1729520199784,0.79248047,0.20184326,0.590271,-1.125,-0.28125,1.125
30,30,1729520199824,0.79248047,0.2074585,0.59368896,-1.046875,-0.03125,1.1875
31,31,1729520199864,0.79785156,0.20697021,0.588562,-0.40625,-0.59375,1.109375
32,32,1729520199904,0.8022461,0.21282959,0.5844116,0.5,-0.8125,0.828125
33,33,1729520199944,0.79418945,0.21356201,0.5831909,0.1875,-0.96875,0.765625
34,34,1729520199984,0.7866211,0.21331787,0.59710693,-0.140625,-0.078125,1.078125
35,35,1729520200024,0.78881836,0.22015381,0.5956421,0.046875,-0.375,0.8125
36,36,1729520200064,0.7963867,0.21282959,0.588562,-0.734375,-0.984375,0.46875
37,37,1729520200104,0.80029297,0.20721436,0.5861206,0.0,-0.03125,0.53125
38,38,1729520200144,0.78637695,0.20452881,0.5873413,-0.28125,-1.1875,0.53125
39,39,1729520200184,0.7919922,0.21234131,0.5956421,0.328125,-0.078125,0.328125
40,40,1729520200224,0.79345703,0.20916748,0.5807495,0.515625,0.296875,0.65625
41,41,1729520200264,0.79833984,0.21575928,0.58148193,0.375,-1.03125,1.078125
42,42,1729520200304,0.78930664,0.21478271,0.58758545,0.109375,-0.40625,0.78125
43,43,1729520200344,0.7836914,0.22259521,0.60369873,-1.25,-0.546875,0.125
44,44,1729520200384,0.78027344,0.20892334,0.6005249,0.328125,0.34375,0.578125
45,45,1729520200424,0.7902832,0.22454834,0.58343506,1.203125,-0.53125,0.28125
46,46,1729520200464,0.79663086,0.22406006,0.58026123,-0.375,-1.078125,-0.015625
47,47,1729520200504,0.79711914,0.21380615,0.59368896,-0.796875,0.078125,-0.125
48,48,1729520200544,0.79003906,0.2033081,0.59173584,0.78125,0.40625,-0.125
49,49,1729520200584,0.79711914,0.21600342,0.5975952,1.0625,-0.046875,-0.28125
50,50,1729520200624,0.7907715,0.21331787,0.5883179,2.015625,0.25,-0.640625
51,51,1729520200664,0.78881836,0.21209717,0.59124756,1.515625,0.640625,-0.546875
52,52,1729520200704,0.78930664,0.21722412,0.5914917,0.65625,-0.25,-0.875
53,53,1729520200744,0.80371094,0.2074585,0.5790405,0.953125,0.359375,-1.125
54,54,1729520200784,0.79663086,0.20184326,0.588562,0.78125,-0.390625,-0.9375
55,55,1729520200824,0.7963867,0.20794678,0.58807373,1.671875,0.578125,-0.984375
56,56,1729520200864,0.7973633,0.20452881,0.5861206,0.546875,0.25,-0.890625
57,57,1729520200904,0.8046875,0.19500732,0.57928467,1.53125,0.65625,-0.984375
58,58,1729520200944,0.7890625,0.19232178,0.58343506,1.765625,0.578125,-0.640625
59,59,1729520200984,0.8017578,0.21234131,0.59173584,1.421875,0.0625,-0.484375
60,60,1729520201024,0.8083496,0.20013428,0.5734253,1.875,1.25,-0.890625
61,61,1729520201064,0.7993164,0.19036865,0.57562256,-0.78125,0.90625,-1.15625
62,62,1729520201104,0.8027344,0.18914795,0.5890503,0.046875,0.40625,-0.90625
63,63,1729520201144,0.80908203,0.18499756,0.57196045,0.515625,0.171875,-1.125
64,64,1729520201184,0.8132324,0.17767334,0.57244873,0.234375,-0.046875,-1.125
65,65,1729520201224,0.80249023,0.19281006,0.57806396,-0.0625,-0.46875,-0.78125
66,66,1729520201264,0.8095703,0.19036865,0.57318115,0.125,-0.25,-1.0
67,67,1729520201304,0.80322266,0.18621826,0.58148193,-0.5,-0.140625,-0.96875
68,68,1729520201344,0.8059082,0.18377686,0.5661011,-0.453125,-0.328125,-1.140625
69,69,1729520201384,0.8054199,0.17767334,0.57977295,-0.578125,-0.46875,-0.9375
70,70,1729520201424,0.81274414,0.18255615,0.58148193,-0.140625,-0.046875,-0.53125
71,71,1729520201464,0.80615234,0.18304443,0.5778198,-0.328125,0.203125,-0.484375
72,72,1729520201504,0.8215332,0.18060303,0.57684326,-0.71875,0.609375,-0.5625
73,73,1729520201544,0.8129883,0.17474365,0.5717163,-0.3125,-0.765625,-0.546875
74,74,1729520201584,0.7993164,0.18060303,0.56903076,0.28125,0.65625,-0.609375
75,75,1729520201624,0.81933594,0.1876831,0.57244873,0.40625,-0.703125,-0.90625
76,76,1729520201664,0.8149414,0.18377686,0.56536865,-0.609375,-0.53125,-0.609375
77,77,1729520201704,0.81103516,0.1798706,0.56658936,-1.203125,-0.53125,-0.21875
78,78,1729520201744,0.8132324,0.17523193,0.5741577,-0.171875,-0.1875,0.03125
79,79,1729520201784,0.81152344,0.17962646,0.5734253,0.0,-0.21875,0.375
80,80,1729520201824,0.8063965,0.17303467,0.55584717,-0.5,-1.078125,0.671875
81,81,1729520201864,0.80322266,0.1852417,0.559021,0.65625,-1.328125,1.328125
82,82,1729520201904,0.810791,0.18304443,0.5619507,1.125,-0.640625,1.5625
83,83,1729520201944,0.80981445,0.18939209,0.57928467,-0.21875,-0.734375,1.96875
84,84,1729520201984,0.810791,0.18988037,0.5836792,-0.734375,-1.046875,1.890625
85,85,1729520202024,0.8046875,0.18035889,0.57147217,-0.203125,-0.65625,1.53125
86,86,1729520202064,0.795166,0.18133545,0.5734253,-0.46875,-0.96875,1.5625
87,87,1729520202104,0.79541016,0.19134521,0.57928467,0.5,-1.046875,1.65625
88,88,1729520202144,0.80078125,0.19281006,0.5927124,-0.46875,-1.25,1.140625
89,89,1729520202184,0.8112793,0.18548584,0.5709839,0.34375,-0.71875,1.546875
90,90,1729520202224,0.7890625,0.1942749,0.56951904,-0.203125,-1.265625,1.359375
91,91,1729520202264,0.80493164,0.19647217,0.5975952,-0.515625,-1.09375,1.6875
92,92,1729520202304,0.8039551,0.20135498,0.5927124,-0.046875,-0.65625,1.25
93,93,1729520202344,0.80200195,0.19525146,0.57318115,-1.71875,-0.578125,1.03125
94,94,1729520202384,0.79541016,0.2008667,0.58587646,-1.125,-1.234375,1.078125
95,95,1729520202424,0.80126953,0.20062256,0.5824585,-0.65625,-1.328125,1.0
96,96,1729520202464,0.8005371,0.20819092,0.5861206,-0.671875,-0.375,1.25
97,97,1729520202504,0.80371094,0.20111084,0.5787964,-0.796875,-0.8125,1.421875
98,98,1729520202544,0.7976074,0.2098999,0.58221436,-1.46875,-0.921875,0.859375
99,99,1729520202584,0.79174805,0.21087646,0.5775757,-0.171875,-0.234375,0.859375
100,100,1729520202624,0.80371094,0.20843506,0.5812378,-0.484375,-1.453125,0.921875
101,101,1729520202664,0.79711914,0.21014404,0.59173584,-0.921875,-0.734375,0.84375
102,102,1729520202704,0.7973633,0.21014404,0.5914917,-1.046875,-0.25,1.015625
103,103,1729520202744,0.79785156,0.21063232,0.58465576,-0.34375,-0.375,0.59375
104,104,1729520202784,0.79711914,0.21942139,0.58636475,-0.609375,-0.578125,0.453125
105,105,1729520202824,0.79589844,0.2140503,0.57733154,0.796875,-1.015625,0.59375
106,106,1729520202864,0.79174805,0.21160889,0.57073975,0.109375,-1.375,0.46875
107,107,1729520202904,0.7883301,0.21844482,0.5975952,-2.140625,-1.265625,0.71875
108,108,1729520202944,0.7922363,0.21551514,0.6051636,-0.21875,-0.296875,0.796875
109,109,1729520202984,0.79296875,0.2164917,0.58465576,-0.578125,-0.3125,0.140625
110,110,1729520203024,0.79296875,0.22259521,0.5805054,-0.015625,-0.53125,0.390625
111,111,1729520203064,0.7937012,0.22259521,0.58636475,0.078125,-0.296875,0.078125
112,112,1729520203104,0.7937012,0.21697998,0.58514404,0.0,-0.15625,0.375
113,113,1729520203144,0.796875,0.21746826,0.59173584,0.328125,0.3125,0.296875
114,114,1729520203184,0.79248047,0.22015381,0.5878296,0.921875,-0.078125,-0.046875
115,115,1729520203224,0.7871094,0.22454834,0.59198,1.5625,0.390625,-0.203125
116,116,1729520203264,0.7927246,0.21722412,0.59173584,0.875,0.5,-0.484375
117,117,1729520203304,0.7897949,0.21502686,0.5932007,1.21875,0.421875,-0.453125
118,118,1729520203344,0.79467773,0.21551514,0.5758667,1.328125,-0.046875,-0.609375
119,119,1729520203384,0.7910156,0.2074585,0.58807373,-0.046875,-0.328125,-0.890625
120,120,1729520203424,0.8063965,0.21331787,0.57977295,2.515625,1.0,-0.515625
121,121,1729520203464,0.7980957,0.20599365,0.5751343,0.90625,-0.21875,-0.75
122,122,1729520203504,0.8063965,0.20404053,0.57318115,1.375,0.171875,-0.765625
123,123,1729520203544,0.79003906,0.19598389,0.57928467,1.734375,0.484375,-0.703125
124,124,1729520203584,0.8078613,0.21185303,0.59588623,1.09375,-0.40625,-0.65625
125,125,1729520203624,0.8000488,0.20526123,0.5836792,0.96875,-0.375,-1.28125
126,126,1729520203664,0.80200195,0.19232178,0.5765991,-0.984375,0.59375,-1.1875
127,127,1729520203704,0.80566406,0.19769287,0.5783081,0.671875,0.453125,-0.5625
128,128,1729520203744,0.80737305,0.19671631,0.57440186,0.53125,0.34375,-0.78125
129,129,1729520203784,0.8076172,0.18621826,0.588562,-0.328125,-0.65625,-0.75
130,130,1729520203824,0.8022461,0.19036865,0.5783081,0.8125,0.734375,-0.640625
131,131,1729520203864,0.80615234,0.20281982,0.5778198,0.9375,0.4375,-0.921875
132,132,1729520203904,0.8088379,0.19378662,0.57977295,0.078125,0.265625,-1.078125
133,133,1729520203944,0.7988281,0.184021,0.5812378,-0.75,-0.015625,-0.96875
134,134,1729520203984,0.8071289,0.18597412,0.5778198,-0.328125,-0.09375,-0.78125
135,135,1729520204024,0.80688477,0.1906128,0.5668335,-0.296875,-0.078125,-0.75
136,136,1729520204064,0.81396484,0.18865967,0.58026123,0.015625,-0.59375,-0.65625
137,137,1729520204104,0.8132324,0.19134521,0.5812378,0.46875,-0.25,-0.671875
138,138,1729520204144,0.8239746,0.18206787,0.56951904,-0.546875,-0.59375,-0.640625
139,139,1729520204184,0.79663086,0.18255615,0.5687866,0.609375,-0.390625,-0.140625
140,140,1729520204224,0.8093262,0.19598389,0.5692749,1.109375,-0.3125,0.21875
141,141,1729520204264,0.8095703,0.19134521,0.5709839,-0.09375,-1.171875,0.046875
142,142,1729520204304,0.8051758,0.17791748,0.5765991,-1.40625,-0.421875,0.3125
143,143,1729520204344,0.80249023,0.18182373,0.57318115,0.0625,-0.96875,0.8125
144,144,1729520204384,0.8112793,0.18988037,0.5700073,0.09375,-0.65625,0.9375
145,145,1729520204424,0.8041992,0.18328857,0.5661011,-0.59375,-0.90625,1.140625
146,146,1729520204464,0.8029785,0.19256592,0.57928467,-0.625,-1.765625,1.671875
147,147,1729520204504,0.8046875,0.19525146,0.5853882,0.140625,-0.75,1.59375
148,148,1729520204544,0.8029785,0.19891357,0.57928467,-0.53125,-0.734375,1.25
149,149,1729520204584,0.8051758,0.19158936,0.58758545,-1.375,-0.96875,1.0
150,150,1729520204624,0.80371094,0.20233154,0.56951904,-0.765625,-1.59375,1.21875
151,151,1729520204664,0.80615234,0.2008667,0.5775757,-0.796875,-1.171875,1.046875
152,152,1729520204704,0.8027344,0.20599365,0.5873413,-1.328125,-1.703125,1.21875
153,153,1729520204744,0.7973633,0.1984253,0.59124756,-0.625,-0.71875,1.328125
154,154,1729520204784,0.7939453,0.20306396,0.5907593,-0.234375,0.28125,1.5625
155,155,1729520204824,0.7988281,0.20257568,0.58026123,-0.03125,-0.640625,1.34375
156,156,1729520204864,0.7949219,0.20550537,0.5687866,-0.421875,-2.0625,1.03125
157,157,1729520204904,0.7932129,0.21722412,0.5883179,-1.234375,-1.546875,1.078125
158,158,1729520204944,0.7961426,0.21575928,0.6178589,-0.578125,-0.203125,1.0
159,159,1729520204984,0.79907227,0.21234131,0.59002686,-0.6875,-0.296875,0.609375
160,160,1729520205024,0.78881836,0.21307373,0.58343506,-0.6875,-0.375,0.828125
161,161,1729520205064,0.7919922,0.21234131,0.5853882,-0.25,-0.40625,1.03125
162,162,1729520205104,0.79174805,0.2164917,0.5819702,-0.625,-0.5,0.75
163,163,1729520205144,0.79418945,0.21673584,0.5861206,-1.125,-0.96875,0.375
164,164,1729520205184,0.7907715,0.21282959,0.5934448,-1.109375,-0.40625,0.71875
165,165,1729520205224,0.7907715,0.22064209,0.5890503,-0.203125,-0.234375,0.3125
166,166,1729520205264,0.78515625,0.21820068,0.5866089,-0.40625,-0.015625,0.34375
167,167,1729520205304,0.79589844,0.22406006,0.5817261,-0.578125,0.21875,0.328125
168,168,1729520205344,0.7883301,0.22332764,0.58465576,-0.453125,-0.65625,0.484375
169,169,1729520205384,0.7915039,0.22161865,0.5829468,-0.859375,-0.78125,0.359375
170,170,1729520205424,0.795166,0.22625732,0.5836792,-0.453125,-1.1875,0.484375
171,171,1729520205464,0.7915039,0.22064209,0.5934448,0.46875,-0.703125,0.421875
172,172,1729520205504,0.79345703,0.22991943,0.5907593,0.203125,0.1875,0.0625
173,173,1729520205544,0.7993164,0.21356201,0.5819702,1.21875,-0.046875,-0.125
174,174,1729520205584,0.7885742,0.21282959,0.5878296,2.140625,-0.3125,-0.15625
175,175,1729520205624,0.7871094,0.22772217,0.5946655,1.140625,-0.15625,-0.234375
176,176,1729520205664,0.7861328,0.22283936,0.5961304,2.203125,-0.46875,-0.453125
177,177,1729520205704,0.7902832,0.22381592,0.5709839,1.390625,-0.984375,-0.171875
178,178,1729520205744,0.7844238,0.21746826,0.5790405,1.796875,-1.109375,0.78125
179,179,1729520205784,0.78222656,0.20697021,0.58636475,2.625,-2.265625,1.125
180,180,1729520205824,0.81518555,0.22210693,0.61224365,1.4375,0.296875,-0.203125
181,181,1729520205864,0.798584,0.20257568,0.5734253,0.859375,3.625,-0.984375
182,182,1729520205904,0.7919922,0.20550537,0.5775757,1.359375,-0.46875,-0.359375
183,183,1729520205944,0.7961426,0.21453857,0.59124756,0.71875,-0.359375,-0.5625
184,184,1729520205984,0.78930664,0.20672607,0.5844116,-0.46875,1.015625,-1.03125
185,185,1729520206024,0.7973633,0.19866943,0.59173584,0.828125,0.375,-0.78125
186,186,1729520206064,0.8015137,0.21087646,0.58026123,1.515625,0.34375,-0.46875
187,187,1729520206104,0.7973633,0.20648193,0.57440186,0.671875,0.328125,-0.578125
188,188,1729520206144,0.8041992,0.19696045,0.57806396,0.796875,0.09375,-0.125
189,189,1729520206184,0.8076172,0.20477295,0.5853882,1.109375,0.734375,-0.3125
190,190,1729520206224,0.7988281,0.2020874,0.58392334,-0.15625,0.8125,-0.546875
191,191,1729520206264,0.8022461,0.18841553,0.57806396,0.59375,-0.03125,-0.53125
192,192,1729520206304,0.7976074,0.19573975,0.5775757,0.515625,-0.25,-0.484375
193,193,1729520206344,0.80810547,0.2020874,0.57928467,1.03125,0.65625,-0.546875
194,194,1729520206384,0.81640625,0.20721436,0.5675659,0.328125,-0.640625,-0.59375
195,195,1729520206424,0.79956055,0.19256592,0.5841675,-0.9375,0.09375,-0.3125
196,196,1729520206464,0.80078125,0.19500732,0.58221436,0.015625,0.203125,-0.609375
197,197,1729520206504,0.79907227,0.19720459,0.57684326,0.90625,0.234375,-0.25
198,198,1729520206544,0.8029785,0.18670654,0.57318115,-0.484375,-0.296875,-0.1875
199,199,1729520206584,0.8041992,0.19500732,0.5680542,-0.265625,-0.53125,0.03125
200,200,1729520206624,0.81030273,0.19769287,0.5734253,0.421875,-0.640625,0.34375
201,201,1729520206664,0.80444336,0.19744873,0.57562256,-0.671875,-1.0625,0.3125
202,202,1729520206704,0.80566406,0.19378662,0.57562256,-0.84375,-0.96875,0.421875
203,203,1729520206744,0.80029297,0.19744873,0.56829834,0.015625,-1.46875,0.75
204,204,1729520206784,0.8034668,0.19647217,0.5751343,-0.234375,-1.53125,1.03125
205,205,1729520206824,0.80566406,0.19940186,0.57855225,-0.734375,-1.671875,1.28125
206,206,1729520206864,0.7998047,0.20184326,0.5883179,-0.8125,-1.375,1.1875
207,207,1729520206904,0.8000488,0.20452881,0.58270264,-0.484375,-0.84375,0.90625
208,208,1729520206944,0.7961426,0.2074585,0.59002686,-0.359375,-0.546875,0.96875
209,209,1729520206984,0.7939453,0.20037842,0.5873413,-1.34375,-1.171875,0.59375
210,210,1729520207024,0.7976074,0.2008667,0.57855225,-0.109375,-1.609375,0.75
211,211,1729520207064,0.79296875,0.20965576,0.57733154,0.234375,-1.328125,1.265625
212,212,1729520207104,0.8046875,0.21185303,0.59710693,-0.5625,-1.328125,0.984375
213,213,1729520207144,0.80200195,0.20819092,0.5853882,-1.4375,-0.96875,0.6875
214,214,1729520207184,0.7902832,0.20477295,0.588562,-1.296875,-0.65625,0.828125
215,215,1729520207224,0.7944336,0.20135498,0.59246826,-0.171875,-0.5625,0.640625
216,216,1729520207264,0.7895508,0.20770264,0.5910034,-0.53125,-0.953125,0.5
217,217,1729520207304,0.7927246,0.21307373,0.5890503,-0.8125,-0.671875,0.671875
218,218,1729520207344,0.78930664,0.20916748,0.5812378,-0.859375,-0.796875,0.75
219,219,1729520207384,0.79174805,0.21575928,0.59832764,-0.71875,-0.234375,0.6875
220,220,1729520207424,0.7922363,0.21722412,0.5897827,-1.0,0.375,0.265625
221,221,1729520207464,0.79052734,0.2140503,0.5861206,-1.4375,-0.390625,0.28125
222,222,1729520207504,0.7919922,0.22015381,0.5907593,-0.6875,-0.484375,0.28125
223,223,1729520207544,0.7854004,0.21990967,0.588562,-0.625,-0.078125,0.265625
224,224,1729520207584,0.79296875,0.21990967,0.58148193,-0.625,-0.109375,0.234375
225,225,1729520207624,0.79541016,0.21966553,0.5841675,-0.6875,-0.71875,0.28125
226,226,1729520207664,0.79418945,0.21868896,0.5861206,-0.96875,0.125,0.25
227,227,1729520207704,0.7890625,0.21502686,0.59051514,-0.625,-0.15625,0.203125
228,228,1729520207744,0.78637695,0.22137451,0.588562,0.03125,-0.390625,0.21875
229,229,1729520207784,0.7878418,0.22406006,0.5829468,-0.078125,-0.96875,0.3125
230,230,1729520207824,0.8041992,0.2255249,0.58465576,0.40625,-1.0625,0.328125
231,231,1729520207864,0.7988281,0.22113037,0.586853,0.828125,-0.765625,-0.015625
232,232,1729520207904,0.79003906,0.22479248,0.60321045,0.203125,0.453125,0.09375
233,233,1729520207944,0.7932129,0.21697998,0.60150146,2.03125,0.09375,-0.140625
234,234,1729520207984,0.7937012,0.21942139,0.5758667,0.9375,-0.46875,-0.625
235,235,1729520208024,0.78515625,0.21697998,0.590271,-0.046875,-0.46875,-0.234375
236,236,1729520208064,0.78930664,0.21844482,0.5939331,1.140625,-0.109375,-0.0625
237,237,1729520208104,0.7939453,0.21551514,0.5910034,1.4375,0.828125,-0.484375
238,238,1729520208144,0.7963867,0.21209717,0.57684326,1.125,0.40625,-0.390625
239,239,1729520208184,0.80444336,0.21575928,0.58807373,0.703125,0.265625,-0.28125
240,240,1729520208224,0.79248047,0.21258545,0.5848999,0.78125,0.28125,-0.515625
241,241,1729520208264,0.798584,0.21282959,0.5836792,0.40625,0.1875,-0.71875
242,242,1729520208304,0.798584,0.20672607,0.58514404,0.578125,0.078125,-0.703125
243,243,1729520208344,0.7988281,0.21234131,0.5807495,1.34375,0.375,-0.6875
244,244,1729520208384,0.8029785,0.20306396,0.57806396,1.234375,0.453125,-0.46875
245,245,1729520208424,0.80444336,0.20306396,0.5829468,1.15625,0.53125,-0.46875
246,246,1729520208464,0.79541016,0.20355225,0.5783081,0.96875,0.25,-0.28125
247,247,1729520208504,0.7998047,0.2020874,0.5831909,0.375,0.921875,-0.546875
248,248,1729520208544,0.80126953,0.19671631,0.5817261,0.875,0.625,-0.703125
249,249,1729520208584,0.8010254,0.2008667,0.5812378,0.65625,0.125,-0.46875
250,250,1729520208624,0.81689453,0.19671631,0.5817261,-0.171875,-0.09375,-1.015625
251,251,1729520208664,0.7919922,0.19671631,0.56781006,0.953125,0.3125,-0.578125
252,252,1729520208704,0.80615234,0.20843506,0.5709839,1.609375,0.203125,-0.296875
253,253,1729520208744,0.8132324,0.20013428,0.57733154,0.109375,-0.9375,-0.4375
254,254,1729520208784,0.80249023,0.19989014,0.57244873,-1.203125,-0.015625,-0.453125
255,255,1729520208824,0.80126953,0.18890381,0.58270264,0.234375,-0.28125,-0.21875
256,256,1729520208864,0.8063965,0.19622803,0.5692749,0.390625,-0.21875,-0.125
257,257,1729520208904,0.81689453,0.19281006,0.5685425,-0.71875,-0.765625,0.125
258,258,1729520208944,0.80249023,0.19329834,0.5765991,-0.265625,-0.953125,0.359375
259,259,1729520208984,0.80444336,0.1984253,0.58026123,0.515625,-0.640625,0.609375
260,260,1729520209024,0.8041992,0.19793701,0.56903076,-0.5,-0.90625,0.703125
261,261,1729520209064,0.80249023,0.20233154,0.5700073,-0.78125,-1.578125,0.59375
262,262,1729520209104,0.8015137,0.19671631,0.5765991,-0.109375,-1.4375,0.96875
263,263,1729520209144,0.8046875,0.20013428,0.5819702,-0.078125,-0.984375,0.828125
264,264,1729520209184,0.80126953,0.20233154,0.5795288,-0.90625,-1.390625,0.96875
265,265,1729520209224,0.7980957,0.20281982,0.5758667,-1.046875,-1.734375,1.015625
266,266,1729520209264,0.8010254,0.20135498,0.5819702,-1.453125,-1.546875,1.09375
267,267,1729520209304,0.7998047,0.20281982,0.5944214,-1.0625,-1.109375,0.90625
268,268,1729520209344,0.7998047,0.20697021,0.58587646,-0.515625,-0.796875,0.828125
269,269,1729520209384,0.80444336,0.20452881,0.58465576,-1.140625,-0.828125,0.59375
270,270,1729520209424,0.798584,0.20550537,0.5836792,-0.703125,-1.625,0.8125
271,271,1729520209464,0.78393555,0.2164917,0.5910034,-0.59375,-1.03125,0.90625
272,272,1729520209504,0.79467773,0.21429443,0.6000366,-1.03125,-0.640625,1.03125
273,273,1729520209544,0.7963867,0.21697998,0.5778198,-1.390625,-0.625,0.671875
274,274,1729520209584,0.78930664,0.21234131,0.58636475,-2.390625,-1.3125,0.53125
275,275,1729520209624,0.79248047,0.21307373,0.5932007,-0.6875,0.109375,0.625
276,276,1729520209664,0.78930664,0.21868896,0.5819702,-0.65625,-0.359375,0.421875
277,277,1729520209704,0.7944336,0.22381592,0.5800171,-0.796875,-0.75,0.515625
278,278,1729520209744,0.78881836,0.21429443,0.58758545,-1.25,-0.546875,0.53125
279,279,1729520209784,0.7944336,0.23138428,0.59051514,-0.046875,0.578125,0.546875
280,280,1729520209824,0.79418945,0.2243042,0.58099365,-0.5,-0.046875,0.375
281,281,1729520209864,0.7922363,0.22210693,0.5890503,-1.203125,-0.484375,-0.125
282,282,1729520209904,0.7871094,0.21600342,0.590271,-0.75,-0.515625,0.1875
283,283,1729520209944,0.7883301,0.22113037,0.5856323,-0.125,-0.921875,0.421875
284,284,1729520209984,0.79711914,0.2218628,0.5819702,-0.484375,-1.4375,0.515625
285,285,1729520210024,0.7927246,0.22869873,0.58514404,-0.390625,-1.765625,0.640625
286,286,1729520210064,0.7915039,0.2230835,0.59832764,-0.09375,-0.53125,0.171875
287,287,1729520210104,0.7890625,0.2243042,0.5907593,0.6875,0.296875,-0.171875
288,288,1729520210144,0.7858887,0.22454834,0.6039429,1.875,0.375,-0.234375
289,289,1729520210184,0.7944336,0.22406006,0.5944214,1.40625,0.140625,-0.609375
290,290,1729520210224,0.79296875,0.2230835,0.5765991,1.5,-0.453125,-0.59375
291,291,1729520210264,0.7937012,0.22015381,0.5790405,2.78125,-0.046875,-0.484375
292,292,1729520210304,0.7919922,0.21990967,0.5993042,1.46875,0.421875,-0.390625
293,293,1729520210344,0.7907715,0.21087646,0.5841675,1.59375,1.234375,-0.4375
294,294,1729520210384,0.7890625,0.20550537,0.57684326,-0.53125,-0.5,-0.5
295,295,1729520210424,0.7927246,0.20355225,0.59051514,0.515625,-1.0625,-0.46875
296,296,1729520210464,0.8059082,0.21429443,0.5812378,1.9375,0.578125,-0.40625
297,297,1729520210504,0.79663086,0.21868896,0.5726929,0.625,0.6875,-0.53125
298,298,1729520210544,0.79663086,0.20648193,0.5753784,0.734375,-0.359375,-0.421875
299,299,1729520210584,0.79003906,0.20843506,0.5922241,1.71875,-0.34375,0.140625
300,300,1729520210624,0.7932129,0.21356201,0.59539795,0.796875,-0.578125,-0.125
301,301,1729520210664,0.8066406,0.20794678,0.5751343,-0.953125,1.0625,-1.1875
302,302,1729520210704,0.79663086,0.2008667,0.5753784,0.515625,0.046875,-0.90625
303,303,1729520210744,0.8022461,0.20257568,0.58636475,1.25,-0.6875,-0.359375
304,304,1729520210784,0.7980957,0.20037842,0.58636475,0.171875,0.421875,-0.171875
305,305,1729520210824,0.8010254,0.19403076,0.5778198,-0.078125,0.515625,-0.140625
306,306,1729520210864,0.8022461,0.19696045,0.57489014,0.203125,-0.21875,-0.0625
307,307,1729520210904,0.8017578,0.20965576,0.57440186,-0.25,-0.796875,-0.03125
308,308,1729520210944,0.7944336,0.20574951,0.5717163,-0.234375,-0.640625,0.109375
309,309,1729520210984,0.7998047,0.19525146,0.58026123,-0.515625,-0.96875,0.28125
310,310,1729520211024,0.798584,0.19354248,0.5812378,0.40625,-0.703125,0.703125
311,311,1729520211064,0.80029297,0.21185303,0.5795288,0.65625,-0.8125,0.84375
312,312,1729520211104,0.8059082,0.20819092,0.57855225,-0.46875,-1.421875,0.609375
313,313,1729520211144,0.79711914,0.2008667,0.5758667,-1.671875,-1.921875,0.46875
314,314,1729520211184,0.7919922,0.20233154,0.59783936,-1.203125,-1.40625,0.5625
315,315,1729520211224,0.7897949,0.199646,0.5841675,-0.3125,-0.125,0.609375
316,316,1729520211264,0.7988281,0.19891357,0.58514404,-1.03125,-0.71875,0.609375
317,317,1729520211304,0.79589844,0.2033081,0.58343506,-0.53125,-1.484375,0.703125
318,318,1729520211344,0.7937012,0.21697998,0.5812378,-0.6875,-0.609375,1.015625
319,319,1729520211384,0.7944336,0.215271,0.57977295,-0.421875,-0.421875,0.78125
320,320,1729520211424,0.79345703,0.21624756,0.5841675,-1.34375,-1.515625,0.796875
321,321,1729520211464,0.79125977,0.21380615,0.59295654,-1.765625,-1.921875,0.453125
322,322,1729520211504,0.7949219,0.21697998,0.5914917,-0.65625,-0.265625,0.53125
323,323,1729520211544,0.79003906,0.22283936,0.5824585,-0.53125,-0.140625,0.640625
324,324,1729520211584,0.7844238,0.2218628,0.58880615,-1.3125,-0.953125,0.546875
325,325,1729520211624,0.7919922,0.2189331,0.5890503,-1.46875,-0.90625,0.78125
326,326,1729520211664,0.79296875,0.22039795,0.5963745,-0.890625,-0.6875,0.421875
327,327,1729520211704,0.7915039,0.21795654,0.5968628,-0.515625,-0.125,0.421875
328,328,1729520211744,0.7897949,0.22210693,0.59368896,-0.390625,0.71875,0.3125
329,329,1729520211784,0.78930664,0.22088623,0.5836792,-1.09375,0.28125,0.265625
330,330,1729520211824,0.79345703,0.22210693,0.5790405,-0.46875,-1.265625,0.3125
331,331,1729520211864,0.78759766,0.22357178,0.58148193,-0.203125,-1.0,0.578125
332,332,1729520211904,0.7878418,0.23724365,0.5968628,-0.6875,0.046875,0.515625
333,333,1729520211944,0.79541016,0.22576904,0.5946655,0.0625,-0.125,0.234375
334,334,1729520211984,0.79052734,0.22869873,0.588562,-0.90625,-0.90625,0.453125
335,335,1729520212024,0.7937012,0.22332764,0.5932007,-0.4375,-0.484375,0.53125
336,336,1729520212064,0.79589844,0.22332764,0.5922241,0.171875,-0.296875,0.25
337,337,1729520212104,0.79418945,0.21917725,0.5951538,0.03125,-0.53125,-0.21875
338,338,1729520212144,0.7873535,0.22161865,0.5985718,0.96875,0.171875,-0.09375
339,339,1729520212184,0.7885742,0.2255249,0.60321045,1.671875,-0.078125,-0.140625
340,340,1729520212224,0.77978516,0.22869873,0.586853,1.671875,0.171875,-0.265625
341,341,1729520212264,0.7897949,0.21942139,0.59124756,0.53125,0.21875,-0.21875
342,342,1729520212304,0.78808594,0.21722412,0.5856323,1.109375,-0.125,-0.40625
343,343,1729520212344,0.79541016,0.21942139,0.5817261,1.546875,0.390625,-0.421875
344,344,1729520212384,0.80566406,0.21746826,0.5895386,0.390625,0.3125,-0.515625
345,345,1729520212424,0.7932129,0.21234131,0.5819702,1.15625,0.703125,-0.546875
346,346,1729520212464,0.7897949,0.20819092,0.5841675,1.375,0.453125,-0.578125
347,347,1729520212504,0.79418945,0.2140503,0.5836792,0.859375,0.109375,-0.359375
348,348,1729520212544,0.796875,0.20794678,0.5910034,0.28125,-0.421875,-0.8125
349,349,1729520212584,0.80200195,0.21014404,0.5922241,0.671875,0.328125,-0.859375
350,350,1729520212624,0.79541016,0.20941162,0.58026123,1.78125,1.296875,-0.828125
351,351,1729520212664,0.79589844,0.20184326,0.5824585,0.234375,0.84375,-0.71875
352,352,1729520212704,0.8010254,0.19793701,0.5836792,0.734375,-0.515625,-0.984375
353,353,1729520212744,0.79418945,0.20355225,0.58099365,2.046875,0.921875,-0.4375
354,354,1729520212784,0.80737305,0.21136475,0.5841675,1.28125,0.546875,-0.53125
355,355,1729520212824,0.80493164,0.2074585,0.5704956,-0.59375,0.078125,-0.859375
356,356,1729520212864,0.8022461,0.19232178,0.5831909,-0.90625,0.46875,-0.59375
357,357,1729520212904,0.7976074,0.19329834,0.5829468,0.796875,0.453125,-0.640625
358,358,1729520212944,0.8076172,0.20062256,0.5783081,0.421875,0.359375,-0.40625
359,359,1729520212984,0.8076172,0.19598389,0.5717163,-0.46875,-0.296875,-0.640625
360,360,1729520213024,0.80249023,0.19915771,0.5778198,-0.03125,-0.375,-0.40625
361,361,1729520213064,0.80493164,0.19915771,0.58392334,0.46875,0.3125,-0.34375
362,362,1729520213104,0.80810547,0.19769287,0.5717163,-0.4375,-0.328125,-0.421875
363,363,1729520213144,0.8029785,0.19720459,0.57196045,-0.71875,-0.8125,-0.5
364,364,1729520213184,0.8059082,0.19207764,0.57562256,-0.09375,-0.390625,-0.140625
365,365,1729520213224,0.8078613,0.19476318,0.56121826,-0.046875,-0.34375,-0.0625
366,366,1729520213264,0.80615234,0.1984253,0.56585693,-0.34375,-0.859375,0.59375
367,367,1729520213304,0.8046875,0.19915771,0.574646,-0.125,-1.0625,0.609375
368,368,1729520213344,0.8017578,0.19232178,0.5770874,-0.125,-0.890625,0.734375
369,369,1729520213384,0.8005371,0.19232178,0.5765991,-0.09375,-0.90625,0.8125
370,370,1729520213424,0.7956543,0.20404053,0.57318115,0.171875,-1.015625,1.0
371,371,1729520213464,0.80322266,0.1876831,0.58026123,-0.921875,-0.875,0.84375
372,372,1729520213504,0.80688477,0.19525146,0.58026123,-0.078125,-1.578125,0.828125
373,373,1729520213544,0.78930664,0.2008667,0.5734253,0.71875,-0.921875,1.25
374,374,1729520213584,0.81518555,0.21087646,0.586853,-0.15625,-1.015625,1.265625
375,375,1729520213624,0.80688477,0.20599365,0.58392334,-1.40625,-1.40625,0.6875
376,376,1729520213664,0.7927246,0.20355225,0.58636475,-1.28125,-0.59375,0.734375
377,377,1729520213704,0.7939453,0.20819092,0.58587646,-0.046875,-0.3125,0.9375
378,378,1729520213744,0.7973633,0.21258545,0.57977295,-0.578125,-0.765625,0.78125
379,379,1729520213784,0.8051758,0.20697021,0.58465576,-1.15625,-1.015625,0.84375
380,380,1729520213824,0.7980957,0.20501709,0.58026123,-0.203125,-0.578125,0.96875
381,381,1729520213864,0.79785156,0.21600342,0.5934448,-0.59375,-0.75,0.890625
382,382,1729520213904,0.79589844,0.20892334,0.5866089,-0.671875,0.078125,0.859375
383,383,1729520213944,0.7998047,0.2098999,0.5866089,-0.515625,-0.34375,0.671875
384,384,1729520213984,0.8000488,0.21234131,0.57684326,-0.34375,-0.53125,0.609375
385,385,1729520214024,0.798584,0.21820068,0.5824585,-0.515625,-0.46875,0.59375
386,386,1729520214064,0.79541016,0.22357178,0.58026123,-0.671875,-0.375,0.59375
387,387,1729520214104,0.7993164,0.21380615,0.57855225,-1.125,-0.3125,0.734375
388,388,1729520214144,0.7988281,0.21795654,0.5795288,-0.53125,-0.546875,0.671875
389,389,1729520214184,0.7883301,0.22406006,0.5946655,-0.84375,-0.640625,0.40625
390,390,1729520214224,0.7944336,0.22088623,0.5914917,-0.640625,-0.046875,0.3125
391,391,1729520214264,0.78881836,0.22357178,0.5787964,-0.421875,-0.0625,0.421875
392,392,1729520214304,0.8039551,0.2164917,0.5765991,-0.296875,-1.0,0.21875
393,393,1729520214344,0.79589844,0.21673584,0.5717163,0.171875,-0.90625,0.25
394,394,1729520214384,0.782959,0.22357178,0.58343506,-0.609375,-0.078125,0.625
395,395,1729520214424,0.79833984,0.22235107,0.59906006,-0.046875,-0.1875,0.640625
396,396,1729520214464,0.79345703,0.22601318,0.5805054,-0.453125,-0.65625,0.390625
397,397,1729520214504,0.79711914,0.22698975,0.59173584,-0.71875,-0.625,0.203125
398,398,1729520214544,0.7944336,0.22381592,0.59051514,0.71875,0.265625,-0.015625
399,399,1729520214584,0.7890625,0.22576904,0.5878296,0.875,-0.015625,-0.171875
400,400,1729520214624,0.79248047,0.2218628,0.57977295,0.609375,-0.453125,-0.1875
401,401,1729520214664,0.7885742,0.2189331,0.5927124,0.921875,-0.78125,0.03125
402,402,1729520214704,0.7932129,0.2177124,0.5973511,1.5625,0.078125,-0.140625
403,403,1729520214744,0.79711914,0.22161865,0.5673218,0.828125,0.234375,-0.5625
404,404,1729520214784,0.7961426,0.21258545,0.57733154,0.890625,-0.6875,-0.6875
405,405,1729520214824,0.79418945,0.2189331,0.5861206,1.078125,0.21875,-0.578125
406,406,1729520214864,0.79467773,0.21209717,0.5890503,0.71875,0.234375,-0.625
407,407,1729520214904,0.798584,0.20892334,0.58343506,0.734375,0.28125,-0.734375
408,408,1729520214944,0.7963867,0.20721436,0.5787964,1.125,0.453125,-0.625
409,409,1729520214984,0.7973633,0.21502686,0.5817261,0.921875,0.046875,-0.75
410,410,1729520215024,0.7993164,0.21160889,0.5844116,0.78125,0.1875,-0.5625
411,411,1729520215064,0.7980957,0.21014404,0.58514404,0.375,0.234375,-0.421875
412,412,1729520215104,0.8083496,0.20257568,0.574646,0.5625,-0.453125,-0.875
413,413,1729520215144,0.7937012,0.20159912,0.576355,1.390625,0.25,-0.609375
414,414,1729520215184,0.7976074,0.21282959,0.58270264,1.703125,0.703125,-0.296875
415,415,1729520215224,0.8034668,0.20599365,0.5787964,0.484375,-0.25,-0.671875
416,416,1729520215264,0.80566406,0.2033081,0.5765991,-1.0625,-0.265625,-0.890625
417,417,1729520215304,0.80200195,0.20501709,0.57928467,0.140625,0.34375,-0.71875
418,418,1729520215344,0.796875,0.19940186,0.5765991,0.84375,0.40625,-0.6875
419,419,1729520215384,0.8088379,0.20648193,0.58099365,-0.03125,0.046875,-0.71875
420,420,1729520215424,0.80444336,0.1918335,0.57318115,-0.234375,-0.171875,-0.484375
421,421,1729520215464,0.8027344,0.19647217,0.57977295,0.484375,-0.25,-0.234375
422,422,1729520215504,0.8071289,0.20233154,0.5795288,0.15625,0.046875,-0.328125
423,423,1729520215544,0.80737305,0.19989014,0.5817261,-0.6875,0.046875,-0.53125
424,424,1729520215584,0.8054199,0.19671631,0.5758667,-0.078125,-0.484375,-0.40625
425,425,1729520215624,0.80444336,0.19378662,0.57244873,0.390625,-0.53125,-0.5
426,426,1729520215664,0.81030273,0.19110107,0.5668335,-0.34375,-0.3125,-0.21875
427,427,1729520215704,0.79956055,0.199646,0.5700073,-0.03125,-0.5625,0.03125
428,428,1729520215744,0.8066406,0.19012451,0.574646,0.078125,-0.515625,0.3125
429,429,1729520215784,0.8076172,0.19696045,0.56903076,-0.015625,-0.921875,0.734375
430,430,1729520215824,0.81030273,0.21014404,0.5697632,0.21875,-0.953125,0.734375
431,431,1729520215864,0.80493164,0.19085693,0.5751343,-0.296875,-1.390625,0.703125
432,432,1729520215904,0.80371094,0.1852417,0.58026123,0.921875,-1.171875,1.171875
433,433,1729520215944,0.79956055,0.19720459,0.58392334,0.703125,-0.75,1.328125
434,434,1729520215984,0.80566406,0.20159912,0.5778198,-0.515625,-1.4375,1.234375
435,435,1729520216024,0.7944336,0.19573975,0.58392334,-1.84375,-1.734375,0.8125
436,436,1729520216064,0.7937012,0.19744873,0.5910034,-0.609375,-0.75,0.8125
437,437,1729520216104,0.79833984,0.20281982,0.5805054,0.125,-0.421875,1.03125
438,438,1729520216144,0.80566406,0.20550537,0.57977295,-0.4375,-0.828125,0.9375
439,439,1729520216184,0.80029297,0.20306396,0.57684326,-0.875,-1.53125,1.03125
440,440,1729520216224,0.79663086,0.20526123,0.5829468,-0.34375,-1.0625,1.328125
441,441,1729520216264,0.7932129,0.20550537,0.5980835,0.25,-0.09375,1.40625
442,442,1729520216304,0.80371094,0.215271,0.5805054,-1.09375,-0.96875,1.15625
443,443,1729520216344,0.80078125,0.20428467,0.58758545,-1.625,-0.875,0.6875
444,444,1729520216384,0.79785156,0.21087646,0.5944214,-0.390625,-0.390625,0.5625
445,445,1729520216424,0.79248047,0.21307373,0.58465576,-0.3125,-0.75,0.6875
446,446,1729520216464,0.79956055,0.21966553,0.5844116,-1.109375,-1.1875,0.578125
447,447,1729520216504,0.7976074,0.21160889,0.5895386,-0.953125,-0.796875,0.578125
448,448,1729520216544,0.7871094,0.21380615,0.59368896,-0.09375,-0.296875,0.84375
449,449,1729520216584,0.7919922,0.22259521,0.5890503,-0.4375,-0.640625,0.671875
450,450,1729520216624,0.7939453,0.21990967,0.5848999,-0.59375,-0.1875,0.484375
451,451,1729520216664,0.79418945,0.21429443,0.58392334,-0.671875,-0.546875,0.203125
452,452,1729520216704,0.79296875,0.21820068,0.57855225,0.421875,-1.1875,0.6875
453,453,1729520216744,0.7883301,0.23065186,0.5873413,-0.25,-0.28125,0.734375
454,454,1729520216784,0.7922363,0.21746826,0.60443115,-0.671875,0.4375,0.6875
455,455,1729520216824,0.79589844,0.21820068,0.5800171,-0.34375,0.046875,0.28125
456,456,1729520216864,0.7956543,0.22503662,0.5805054,-0.890625,-0.46875,0.265625
457,457,1729520216904,0.7927246,0.22113037,0.5795288,-0.3125,-0.265625,0.3125
458,458,1729520216944,0.7961426,0.22039795,0.5897827,-0.265625,-0.21875,0.4375
459,459,1729520216984,0.79003906,0.22039795,0.58148193,-0.5,-0.828125,0.625
460,460,1729520217024,0.78881836,0.22479248,0.58636475,-0.484375,-0.640625,0.59375
461,461,1729520217064,0.79174805,0.22698975,0.6000366,0.21875,-0.21875,0.671875
462,462,1729520217104,0.7854004,0.23138428,0.5831909,0.15625,-0.609375,0.34375
463,463,1729520217144,0.78930664,0.22943115,0.5956421,-0.515625,-0.90625,0.03125
464,464,1729520217184,0.7849121,0.22479248,0.5993042,0.5625,0.046875,-0.28125
465,465,1729520217224,0.78759766,0.22235107,0.59002686,1.234375,0.734375,-0.296875
466,466,1729520217264,0.79467773,0.2230835,0.5873413,1.015625,-0.390625,-0.34375
467,467,1729520217304,0.80126953,0.22015381,0.58099365,0.828125,-0.125,-0.34375
468,468,1729520217344,0.79907227,0.21795654,0.58026123,0.703125,-0.078125,-0.265625
469,469,1729520217384,0.79589844,0.2218628,0.5841675,1.0,0.171875,-0.359375
470,470,1729520217424,0.7956543,0.22283936,0.5861206,0.6875,0.0625,-0.5625
471,471,1729520217464,0.80126953,0.21746826,0.58465576,1.265625,0.8125,-0.421875
472,472,1729520217504,0.7993164,0.21282959,0.5829468,0.578125,-0.046875,-0.65625
473,473,1729520217544,0.81030273,0.21136475,0.58026123,1.03125,-0.546875,-0.734375
474,474,1729520217584,0.7939453,0.20428467,0.5861206,1.796875,0.328125,-0.546875
475,475,1729520217624,0.79003906,0.21942139,0.59124756,1.4375,0.09375,-0.1875
476,476,1729520217664,0.8005371,0.20892334,0.58758545,0.984375,-0.359375,-0.75
477,477,1729520217704,0.795166,0.20428467,0.5807495,-0.640625,-0.03125,-0.828125
478,478,1729520217744,0.78930664,0.20721436,0.58343506,0.421875,0.0625,-0.578125
479,479,1729520217784,0.79663086,0.20257568,0.57855225,0.90625,0.578125,-0.359375
480,480,1729520217824,0.8017578,0.20452881,0.58465576,0.21875,-0.171875,-0.484375
481,481,1729520217864,0.7973633,0.1984253,0.5770874,0.0625,-0.578125,-0.390625
482,482,1729520217904,0.8029785,0.20672607,0.5883179,0.46875,1.1875,-0.5625
483,483,1729520217944,0.8022461,0.20257568,0.5758667,0.46875,0.671875,-0.609375
484,484,1729520217984,0.8010254,0.20062256,0.5717163,-0.3125,-0.4375,-0.796875
485,485,1729520218024,0.80493164,0.20184326,0.5758667,-0.359375,-0.078125,-0.671875
486,486,1729520218064,0.8015137,0.19793701,0.57928467,0.453125,-0.09375,-0.671875
487,487,1729520218104,0.8078613,0.19989014,0.58099365,0.1875,-0.140625,-0.34375
488,488,1729520218144,0.80371094,0.20281982,0.5656128,-0.234375,-0.421875,-0.203125
489,489,1729520218184,0.80810547,0.19818115,0.57147217,-0.265625,-0.515625,0.046875
490,490,1729520218224,0.80078125,0.20306396,0.57611084,-0.234375,-0.734375,0.328125
491,491,1729520218264,0.80371094,0.20013428,0.5717163,-0.390625,-1.015625,0.453125
492,492,1729520218304,0.79956055,0.20355225,0.576355,0.15625,-0.765625,0.546875
493,493,1729520218344,0.8100586,0.19476318,0.57855225,-0.515625,-0.984375,0.828125
494,494,1729520218384,0.8054199,0.19281006,0.57440186,-0.15625,-1.53125,0.78125
495,495,1729520218424,0.798584,0.20501709,0.5717163,0.703125,-0.9375,1.265625
496,496,1729520218464,0.8063965,0.20697021,0.5841675,-0.265625,-1.09375,1.109375
497,497,1729520218504,0.80200195,0.20599365,0.5848999,-0.9375,-1.078125,0.859375
498,498,1729520218544,0.7907715,0.2062378,0.59002686,-1.125,-0.796875,0.921875
499,499,1729520218584,0.7915039,0.20233154,0.590271,-0.03125,-0.28125,0.984375
500,500,1729520218624,0.7993164,0.20574951,0.57977295,-0.171875,-0.46875,0.65625
501,501,1729520218664,0.80200195,0.20550537,0.5807495,-1.046875,-1.359375,0.734375
502,502,1729520218704,0.7961426,0.20574951,0.57806396,-0.4375,-0.9375,0.796875
503,503,1729520218744,0.7944336,0.21453857,0.586853,-0.5,-0.578125,0.90625
504,504,1729520218784,0.7961426,0.21234131,0.5897827,-0.625,-0.28125,1.0
505,505,1729520218824,0.798584,0.20916748,0.58343506,-1.21875,-0.765625,0.8125
506,506,1729520218864,0.796875,0.215271,0.5914917,-1.015625,-0.953125,0.546875
507,507,1729520218904,0.7963867,0.2164917,0.58709717,-0.421875,-0.71875,0.484375
508,508,1729520218944,0.7922363,0.22088623,0.58636475,-0.890625,-0.3125,0.59375
509,509,1729520218984,0.79785156,0.21307373,0.5783081,-0.734375,-0.484375,0.796875
510,510,1729520219024,0.8000488,0.21917725,0.58758545,-0.578125,-0.625,0.71875
511,511,1729520219064,0.795166,0.22210693,0.5910034,-0.859375,-0.3125,0.484375
512,512,1729520219104,0.78808594,0.22235107,0.58709717,-0.875,-0.65625,0.25
513,513,1729520219144,0.79052734,0.21722412,0.5897827,-0.8125,-0.453125,0.4375
514,514,1729520219184,0.79174805,0.22503662,0.58929443,-0.40625,0.0,0.53125
515,515,1729520219224,0.80126953,0.21966553,0.576355,-0.59375,-0.296875,0.359375
516,516,1729520219264,0.7963867,0.22235107,0.57733154,0.34375,-0.828125,0.296875
517,517,1729520219304,0.7844238,0.23114014,0.5824585,-0.609375,-0.8125,0.703125
518,518,1729520219344,0.795166,0.23114014,0.6034546,-0.6875,-0.03125,0.640625
519,519,1729520219384,0.7907715,0.23065186,0.57733154,-0.609375,-0.40625,0.46875
520,520,1729520219424,0.78466797,0.22869873,0.59002686,-1.140625,-0.734375,0.453125
521,521,1729520219464,0.7910156,0.22528076,0.5856323,-0.34375,-0.40625,0.4375
522,522,1729520219504,0.7910156,0.22821045,0.58636475,-0.15625,-0.328125,0.46875
523,523,1729520219544,0.7883301,0.230896,0.5787964,-0.1875,-0.5625,0.328125
524,524,1729520219584,0.79785156,0.22821045,0.58270264,-0.546875,-0.40625,0.390625
525,525,1729520219624,0.79125977,0.22894287,0.59490967,0.234375,-0.265625,0.21875
526,526,1729520219664,0.7854004,0.22747803,0.5856323,0.3125,0.234375,0.015625
527,527,1729520219704,0.78466797,0.22869873,0.59368896,0.65625,0.140625,-0.125
528,528,1729520219744,0.7922363,0.22235107,0.58807373,1.015625,0.03125,-0.390625
529,529,1729520219784,0.79785156,0.22747803,0.5861206,0.53125,-0.125,-0.375
530,530,1729520219824,0.79467773,0.22845459,0.5841675,0.9375,0.109375,-0.375
531,531,1729520219864,0.7980957,0.22283936,0.5853882,1.203125,0.234375,-0.40625
532,532,1729520219904,0.7939453,0.22113037,0.5805054,0.859375,0.359375,-0.546875
533,533,1729520219944,0.7919922,0.21868896,0.58392334,0.703125,0.25,-0.546875
534,534,1729520219984,0.79711914,0.21966553,0.5866089,0.78125,0.125,-0.4375
535,535,1729520220024,0.79418945,0.21917725,0.5787964,1.234375,0.140625,-0.640625
536,536,1729520220064,0.79785156,0.22015381,0.5751343,0.578125,0.484375,-0.609375
537,537,1729520220104,0.8059082,0.20892334,0.58148193,0.109375,-0.3125,-0.90625
538,538,1729520220144,0.79296875,0.2111206,0.57366943,1.40625,-0.015625,-0.515625
539,539,1729520220184,0.79663086,0.21380615,0.5922241,1.34375,0.234375,-0.34375
540,540,1729520220224,0.80615234,0.21600342,0.58514404,1.0625,0.28125,-0.8125
541,541,1729520220264,0.7976074,0.21380615,0.57366943,-0.59375,0.171875,-0.921875
542,542,1729520220304,0.7963867,0.21063232,0.5805054,0.515625,-0.015625,-0.578125
543,543,1729520220344,0.80493164,0.20574951,0.57733154,1.015625,0.015625,-0.578125
544,544,1729520220384,0.80688477,0.20599365,0.57611084,-0.046875,0.171875,-0.78125
545,545,1729520220424,0.80493164,0.20111084,0.57196045,0.375,-0.25,-0.421875
546,546,1729520220464,0.8022461,0.20111084,0.57806396,0.5625,0.171875,-0.328125
547,547,1729520220504,0.8022461,0.2008667,0.5805054,0.515625,0.40625,-0.609375
548,548,1729520220544,0.79907227,0.19818115,0.5680542,-0.265625,-0.375,-0.71875
549,549,1729520220584,0.8027344,0.20574951,0.5739136,-0.375,-0.484375,-0.6875
550,550,1729520220624,0.8046875,0.2033081,0.5741577,0.015625,-0.203125,-0.421875
551,551,1729520220664,0.8027344,0.19598389,0.572937,0.3125,-0.234375,-0.453125
552,552,1729520220704,0.8112793,0.20111084,0.56536865,-0.015625,-0.203125,-0.265625
553,553,1729520220744,0.80688477,0.20013428,0.574646,-0.046875,-0.328125,-0.25
554,554,1729520220784,0.8034668,0.19940186,0.57684326,0.015625,-0.109375,0.015625
555,555,1729520220824,0.8034668,0.19769287,0.56781006,0.3125,-0.46875,0.125
556,556,1729520220864,0.80615234,0.20452881,0.57196045,-0.328125,-0.625,0.25
557,557,1729520220904,0.80688477,0.18572998,0.5739136,-0.234375,-1.0,0.265625
558,558,1729520220944,0.7956543,0.19744873,0.5639038,0.921875,-0.4375,0.625
559,559,1729520220984,0.8137207,0.21136475,0.5717163,0.625,-1.25,0.96875
560,560,1729520221024,0.8063965,0.21038818,0.5687866,-0.75,-1.359375,0.671875
561,561,1729520221064,0.8000488,0.2008667,0.58636475,-1.53125,-1.1875,0.84375
562,562,1729520221104,0.79663086,0.20013428,0.58270264,0.265625,-0.328125,1.03125
563,563,1729520221144,0.80249023,0.20404053,0.57440186,0.296875,-0.5,1.0
564,564,1729520221184,0.8105469,0.20452881,0.5770874,-0.8125,-1.03125,0.828125
565,565,1729520221224,0.8010254,0.20477295,0.5770874,-0.53125,-0.859375,0.8125
566,566,1729520221264,0.7973633,0.20819092,0.576355,-0.34375,-0.734375,0.953125
567,567,1729520221304,0.7973633,0.21307373,0.5787964,-0.390625,-0.359375,0.9375
568,568,1729520221344,0.8088379,0.21258545,0.5824585,-1.046875,-0.875,0.828125
569,569,1729520221384,0.7976074,0.21380615,0.58587646,-0.890625,-1.1875,0.734375
570,570,1729520221424,0.79956055,0.21282959,0.5836792,-0.140625,-0.46875,0.796875
571,571,1729520221464,0.795166,0.21380615,0.57733154,-0.484375,-0.828125,0.875
572,572,1729520221504,0.7932129,0.2111206,0.58465576,-0.171875,-0.65625,1.046875
573,573,1729520221544,0.80126953,0.21453857,0.5817261,-0.96875,-0.78125,0.6875
574,574,1729520221584,0.80029297,0.21356201,0.58026123,-0.921875,-1.0,0.734375
575,575,1729520221624,0.79174805,0.21624756,0.58465576,-0.28125,-0.59375,0.640625
576,576,1729520221664,0.7902832,0.215271,0.5848999,-1.15625,-0.25,0.65625
577,577,1729520221704,0.7937012,0.21429443,0.58221436,-0.078125,-1.265625,0.578125
578,578,1729520221744,0.7927246,0.22332764,0.5739136,-0.03125,-1.125,0.671875
579,579,1729520221784,0.79174805,0.22943115,0.5944214,-0.53125,-0.71875,0.921875
580,580,1729520221824,0.8010254,0.22698975,0.5856323,-0.765625,-1.265625,0.515625
581,581,1729520221864,0.79248047,0.2267456,0.588562,-1.234375,-1.0,0.59375
582,582,1729520221904,0.7895508,0.22503662,0.59002686,-0.546875,0.0625,0.484375
583,583,1729520221944,0.7873535,0.22601318,0.58343506,-0.296875,-0.625,0.75
584,584,1729520221984,0.79589844,0.2230835,0.5844116,-0.625,-1.1875,0.390625
585,585,1729520222024,0.7927246,0.22772217,0.58392334,-0.234375,-0.46875,0.5625
586,586,1729520222064,0.7927246,0.23016357,0.5914917,0.09375,-0.671875,0.78125
587,587,1729520222104,0.7907715,0.23358154,0.59490967,-0.34375,-0.4375,0.390625
588,588,1729520222144,0.7939453,0.22796631,0.5841675,-0.1875,-0.34375,0.140625
589,589,1729520222184,0.7890625,0.2243042,0.58929443,0.0,-0.421875,-0.015625
590,590,1729520222224,0.7910156,0.22747803,0.5907593,0.765625,-0.015625,-0.046875
591,591,1729520222264,0.7861328,0.22894287,0.59539795,0.984375,0.296875,-0.21875
592,592,1729520222304,0.795166,0.23236084,0.58709717,1.046875,0.375,-0.375
593,593,1729520222344,0.78930664,0.22918701,0.5807495,0.78125,0.15625,-0.578125
594,594,1729520222384,0.7944336,0.22747803,0.5873413,0.859375,0.234375,-0.5
595,595,1729520222424,0.7919922,0.22161865,0.5817261,1.3125,0.9375,-0.59375
596,596,1729520222464,0.79541016,0.22088623,0.58709717,0.421875,0.453125,-0.5625
597,597,1729520222504,0.80493164,0.21331787,0.57366943,1.15625,-0.25,-0.71875
598,598,1729520222544,0.7858887,0.21331787,0.5775757,1.953125,0.421875,-0.484375
599,599,1729520222584,0.79418945,0.22161865,0.6005249,1.015625,0.359375,-0.421875
600,600,1729520222624,0.8027344,0.22259521,0.5770874,0.734375,0.296875,-0.890625
601,601,1729520222664,0.7998047,0.21185303,0.5704956,-0.34375,0.046875,-0.765625
602,602,1729520222704,0.8029785,0.21160889,0.5861206,0.625,-0.1875,-0.859375
603,603,1729520222744,0.8027344,0.21356201,0.5829468,0.890625,0.421875,-0.4375
604,604,1729520222784,0.7980957,0.21160889,0.574646,0.5625,-0.015625,-0.625
605,605,1729520222824,0.8000488,0.20404053,0.58148193,0.34375,0.15625,-0.53125
606,606,1729520222864,0.79541016,0.2098999,0.58270264,0.84375,0.734375,-0.59375
607,607,1729520222904,0.8071289,0.20355225,0.57440186,0.421875,-0.09375,-0.703125
608,608,1729520222944,0.80444336,0.21209717,0.5734253,-0.28125,-0.5,-0.8125
609,609,1729520222984,0.80444336,0.20404053,0.5751343,-0.078125,0.015625,-0.84375
610,610,1729520223024,0.80126953,0.2074585,0.5697632,0.71875,0.09375,-0.46875
611,611,1729520223064,0.8005371,0.2008667,0.5626831,-0.78125,-0.140625,-0.40625
612,612,1729520223104,0.8054199,0.20037842,0.57440186,-1.15625,-1.21875,-0.5
613,613,1729520223144,0.8100586,0.19720459,0.58099365,0.734375,-0.671875,-0.78125
614,614,1729520223184,0.8010254,0.20574951,0.57073975,1.21875,0.78125,-0.53125
615,615,1729520223224,0.8005371,0.21185303,0.57244873,-0.09375,-0.359375,-0.1875
616,616,1729520223264,0.8054199,0.18621826,0.5807495,-0.71875,-0.9375,-0.140625
617,617,1729520223304,0.7890625,0.19622803,0.57611084,1.46875,0.484375,0.296875
618,618,1729520223344,0.8112793,0.20770264,0.5673218,0.453125,-1.484375,0.453125
619,619,1729520223384,0.8117676,0.2111206,0.57684326,-0.671875,-0.765625,0.40625
620,620,1729520223424,0.8071289,0.20257568,0.57562256,-0.640625,-0.6875,0.484375
621,621,1729520223464,0.8039551,0.19573975,0.5741577,0.15625,-0.65625,0.578125
622,622,1729520223504,0.8054199,0.199646,0.57977295,0.265625,-0.53125,0.6875
623,623,1729520223544,0.80615234,0.20062256,0.5778198,-0.125,-0.71875,0.96875
624,624,1729520223584,0.80249023,0.19891357,0.57025146,-0.25,-1.21875,1.046875
625,625,1729520223624,0.79907227,0.20892334,0.5866089,-0.09375,-0.9375,0.96875
626,626,1729520223664,0.8076172,0.21453857,0.5770874,-0.09375,-0.6875,0.96875
627,627,1729520223704,0.7993164,0.20697021,0.5783081,-1.03125,-1.171875,0.78125
628,628,1729520223744,0.7961426,0.20819092,0.58929443,-1.203125,-1.0625,0.65625
629,629,1729520223784,0.80249023,0.20697021,0.5800171,0.234375,0.109375,0.9375
630,630,1729520223824,0.79296875,0.21429443,0.5812378,-0.265625,-1.578125,1.0
631,631,1729520223864,0.8029785,0.21453857,0.58465576,-0.65625,-1.34375,1.125
632,632,1729520223904,0.80029297,0.215271,0.5836792,-0.375,-0.515625,1.015625
633,633,1729520223944,0.7956543,0.22161865,0.58880615,-0.03125,-0.25,0.78125
634,634,1729520223984,0.79248047,0.21331787,0.5844116,-0.828125,0.171875,0.828125
635,635,1729520224024,0.80029297,0.21234131,0.5775757,-0.984375,-1.21875,0.859375
636,636,1729520224064,0.7910156,0.21575928,0.5775757,-0.171875,-2.28125,0.546875
637,637,1729520224104,0.7932129,0.22747803,0.5836792,0.1875,-0.734375,0.90625
638,638,1729520224144,0.79003906,0.2177124,0.5963745,-0.328125,-0.140625,0.8125
639,639,1729520224184,0.7976074,0.22625732,0.5819702,-1.3125,-0.953125,0.6875
640,640,1729520224224,0.79345703,0.21575928,0.5873413,-0.71875,-0.921875,0.640625
641,641,1729520224264,0.79541016,0.22528076,0.5890503,-0.375,-0.234375,0.546875
642,642,1729520224304,0.79663086,0.22772217,0.58929443,-0.875,-0.71875,0.546875
643,643,1729520224344,0.79296875,0.22259521,0.58392334,-0.734375,-0.671875,0.421875
644,644,1729520224384,0.79052734,0.22210693,0.5817261,-1.03125,-0.0625,0.703125
645,645,1729520224424,0.7890625,0.22259521,0.5939331,-0.125,-0.515625,0.515625
646,646,1729520224464,0.7980957,0.22723389,0.58709717,-0.625,-0.828125,0.3125
647,647,1729520224504,0.7902832,0.22698975,0.586853,-0.9375,-0.359375,0.3125
648,648,1729520224544,0.7885742,0.22601318,0.5836792,-0.5625,0.078125,0.40625
649,649,1729520224584,0.798584,0.2321167,0.5778198,0.328125,-1.125,0.359375
650,650,1729520224624,0.7949219,0.23699951,0.586853,0.6875,-0.953125,0.109375
651,651,1729520224664,0.79418945,0.22747803,0.5997925,0.015625,-0.421875,0.078125
652,652,1729520224704,0.79345703,0.22772217,0.59661865,0.828125,0.375,-0.140625
653,653,1729520224744,0.7980957,0.230896,0.58880615,0.578125,0.390625,-0.578125
654,654,1729520224784,0.79296875,0.23114014,0.5817261,1.078125,0.109375,-0.703125
655,655,1729520224824,0.7910156,0.2164917,0.59173584,0.5,-0.09375,-0.8125
656,656,1729520224864,0.7866211,0.20452881,0.5778198,1.859375,0.078125,-0.8125
657,657,1729520224904,0.79125977,0.21746826,0.5841675,2.28125,0.40625,-0.03125
658,658,1729520224944,0.7980957,0.22747803,0.6010132,1.078125,0.203125,-0.296875
659,659,1729520224984,0.80322266,0.2218628,0.57562256,0.46875,0.390625,-0.84375
660,660,1729520225024,0.7973633,0.2177124,0.57977295,-0.015625,0.234375,-0.671875
661,661,1729520225064,0.795166,0.21697998,0.59051514,0.421875,0.375,-0.65625
662,662,1729520225104,0.8041992,0.2111206,0.57073975,0.71875,0.8125,-0.625
663,663,1729520225144,0.8010254,0.21160889,0.57611084,0.453125,-0.625,-0.640625
664,664,1729520225184,0.8005371,0.2086792,0.5787964,0.75,0.34375,-0.71875
665,665,1729520225224,0.80493164,0.20770264,0.5866089,1.125,0.390625,-0.515625
666,666,1729520225264,0.8010254,0.21136475,0.5739136,-0.078125,0.28125,-0.578125
667,667,1729520225304,0.8000488,0.21380615,0.57440186,-0.78125,0.15625,-0.859375
668,668,1729520225344,0.7973633,0.19989014,0.57806396,0.96875,-0.125,-0.875
669,669,1729520225384,0.7993164,0.20233154,0.5687866,0.875,-0.265625,-0.84375
670,670,1729520225424,0.81103516,0.2033081,0.5775757,-0.21875,-0.3125,-0.484375
671,671,1729520225464,0.8120117,0.20013428,0.57318115,-0.25,0.125,-0.15625
672,672,1729520225504,0.8029785,0.20428467,0.57684326,0.109375,0.234375,-0.484375
673,673,1729520225544,0.79833984,0.20452881,0.57684326,0.328125,0.359375,-0.53125
674,674,1729520225584,0.8059082,0.19598389,0.5739136,-0.28125,-0.203125,-0.765625
675,675,1729520225624,0.79833984,0.1930542,0.5700073,0.46875,-0.859375,-0.53125
676,676,1729520225664,0.7973633,0.21160889,0.5700073,1.015625,-0.3125,0.125
677,677,1729520225704,0.8154297,0.20526123,0.5656128,-0.125,-1.046875,-0.046875
678,678,1729520225744,0.80859375,0.19891357,0.5709839,-1.09375,-0.8125,0.234375
679,679,1729520225784,0.8005371,0.19866943,0.5758667,-0.234375,-0.703125,0.453125
680,680,1729520225824,0.8041992,0.19671631,0.5685425,0.28125,-0.828125,0.84375
681,681,1729520225864,0.8066406,0.19647217,0.5795288,-0.421875,-1.046875,0.921875
682,682,1729520225904,0.80908203,0.19769287,0.57366943,-0.375,-1.375,1.21875
683,683,1729520225944,0.7980957,0.21282959,0.58514404,-0.296875,-1.015625,1.109375
684,684,1729520225984,0.7910156,0.21209717,0.58343506,-0.1875,-0.546875,0.90625
685,685,1729520226024,0.79785156,0.21063232,0.57562256,-0.734375,-1.0,0.765625
686,686,1729520226064,0.8005371,0.20721436,0.58343506,-0.796875,-1.015625,0.890625
687,687,1729520226104,0.8046875,0.21160889,0.576355,-0.0625,-0.78125,0.78125
688,688,1729520226144,0.80249023,0.2111206,0.57366943,-0.9375,-1.25,0.765625
689,689,1729520226184,0.7993164,0.20941162,0.5812378,-0.84375,-1.1875,0.859375
690,690,1729520226224,0.79418945,0.21234131,0.5848999,-0.140625,-0.671875,1.015625
691,691,1729520226264,0.7973633,0.21209717,0.5946655,-0.328125,-0.140625,1.109375
692,692,1729520226304,0.7961426,0.21380615,0.58343506,-0.9375,-0.40625,1.09375
693,693,1729520226344,0.8022461,0.21917725,0.5704956,-0.5,-1.75,0.640625
694,694,1729520226384,0.7890625,0.22064209,0.58026123,0.328125,-1.109375,0.828125
695,695,1729520226424,0.7873535,0.22406006,0.59490967,-0.671875,-0.5625,1.125
696,696,1729520226464,0.795166,0.2218628,0.58880615,-0.609375,-0.34375,0.890625
697,697,1729520226504,0.7963867,0.22576904,0.57733154,-1.625,-0.8125,0.546875
698,698,1729520226544,0.79711914,0.21942139,0.5829468,-0.8125,-0.5,0.5
699,699,1729520226584,0.79003906,0.21942139,0.58587646,-0.3125,-0.375,0.53125
700,700,1729520226624,0.7927246,0.21917725,0.5836792,-0.859375,-0.546875,0.546875
701,701,1729520226664,0.79785156,0.22503662,0.5739136,-0.703125,-0.296875,0.65625
702,702,1729520226704,0.7922363,0.22650146,0.58587646,-0.84375,-0.625,0.625
703,703,1729520226744,0.7927246,0.22821045,0.59539795,-0.796875,-0.40625,0.40625
704,704,1729520226784,0.79296875,0.2230835,0.5831909,-0.71875,-0.078125,0.375
705,705,1729520226824,0.7922363,0.22650146,0.5775757,-0.21875,-0.828125,0.1875
706,706,1729520226864,0.79296875,0.22869873,0.5848999,-0.4375,-0.65625,0.46875
707,707,1729520226904,0.78808594,0.23504639,0.5800171,-0.390625,-0.125,0.390625
708,708,1729520226944,0.7907715,0.22601318,0.5844116,-0.5,-0.140625,0.265625
709,709,1729520226984,0.7949219,0.22381592,0.59124756,-0.03125,-0.609375,0.3125
710,710,1729520227024,0.7949219,0.22357178,0.58270264,0.046875,-0.796875,0.109375
711,711,1729520227064,0.7922363,0.22918701,0.586853,0.125,-0.125,0.125
712,712,1729520227104,0.7993164,0.22723389,0.5829468,0.40625,-0.015625,-0.140625
713,713,1729520227144,0.78466797,0.22113037,0.5829468,1.46875,0.21875,-0.171875
714,714,1729520227184,0.7854004,0.2333374,0.59198,1.0,0.265625,-0.265625
715,715,1729520227224,0.7949219,0.22503662,0.59588623,1.6875,0.25,-0.4375
716,716,1729520227264,0.7980957,0.22113037,0.57855225,0.9375,0.296875,-0.671875
717,717,1729520227304,0.79663086,0.22381592,0.58465576,0.375,-0.078125,-0.578125
718,718,1729520227344,0.78930664,0.22210693,0.5805054,1.515625,0.453125,-0.65625
719,719,1729520227384,0.8029785,0.22576904,0.57440186,1.265625,0.171875,-0.5625
720,720,1729520227424,0.7988281,0.21502686,0.57196045,0.796875,0.09375,-0.65625
721,721,1729520227464,0.7895508,0.22113037,0.5856323,0.8125,0.25,-0.53125
722,722,1729520227504,0.8005371,0.2111206,0.5836792,1.203125,0.34375,-0.40625
723,723,1729520227544,0.8005371,0.22064209,0.57366943,0.4375,0.3125,-0.921875
724,724,1729520227584,0.79956055,0.21063232,0.58099365,0.203125,-0.078125,-0.78125
725,725,1729520227624,0.8017578,0.21038818,0.5836792,0.9375,-0.171875,-0.75
726,726,1729520227664,0.8054199,0.20892334,0.574646,0.625,0.40625,-0.765625
727,727,1729520227704,0.8000488,0.2074585,0.56707764,0.34375,0.171875,-0.4375
728,728,1729520227744,0.80493164,0.20281982,0.5770874,0.203125,-0.0625,-0.609375
729,729,1729520227784,0.7988281,0.20819092,0.5805054,0.75,0.03125,-0.46875
730,730,1729520227824,0.8054199,0.2074585,0.57489014,0.53125,0.28125,-0.484375
731,731,1729520227864,0.8166504,0.19793701,0.58514404,-0.515625,-0.109375,-0.875
732,732,1729520227904,0.79956055,0.19647217,0.572937,0.640625,-0.109375,-0.625
733,733,1729520227944,0.79956055,0.20721436,0.5739136,1.234375,-0.046875,-0.4375
734,734,1729520227984,0.8149414,0.21380615,0.572937,0.046875,-0.546875,-0.609375
735,735,1729520228024,0.8027344,0.21038818,0.57073975,-1.078125,-0.09375,-0.640625
736,736,1729520228064,0.7993164,0.19598389,0.57855225,-0.359375,-0.34375,-0.375
737,737,1729520228104,0.80810547,0.19891357,0.57244873,0.84375,0.28125,-0.15625
738,738,1729520228144,0.81152344,0.19647217,0.57244873,-0.203125,-0.046875,-0.15625
739,739,1729520228184,0.8039551,0.19500732,0.5663452,-0.15625,-0.859375,0.15625
740,740,1729520228224,0.8034668,0.19915771,0.57440186,0.3125,-0.671875,0.359375
741,741,1729520228264,0.8071289,0.19891357,0.57440186,-0.078125,-0.375,0.453125
742,742,1729520228304,0.80200195,0.20184326,0.5692749,-0.5625,-0.921875,0.3125
743,743,1729520228344,0.8046875,0.20428467,0.5726929,0.109375,-1.0,0.546875
744,744,1729520228384,0.8071289,0.2008667,0.5726929,0.140625,-0.671875,0.890625
745,745,1729520228424,0.8105469,0.20721436,0.574646,-0.484375,-1.015625,0.6875
746,746,1729520228464,0.8034668,0.20697021,0.57611084,-0.59375,-1.09375,0.984375
747,747,1729520228504,0.8041992,0.20013428,0.57806396,-0.171875,-0.890625,1.125
748,748,1729520228544,0.796875,0.20428467,0.5795288,-0.53125,-0.546875,1.015625
749,749,1729520228584,0.8029785,0.21185303,0.58026123,-0.578125,-0.53125,0.828125
750,750,1729520228624,0.80200195,0.20379639,0.57244873,-0.015625,-1.3125,0.828125
751,751,1729520228664,0.79345703,0.21185303,0.5663452,0.328125,-1.140625,1.03125
752,752,1729520228704,0.8029785,0.21014404,0.58148193,-0.09375,-1.015625,1.046875
753,753,1729520228744,0.8046875,0.21307373,0.5963745,-0.96875,-0.546875,0.828125
754,754,1729520228784,0.80200195,0.2033081,0.57489014,-1.578125,-0.625,0.953125
755,755,1729520228824,0.79711914,0.21478271,0.57928467,-0.484375,-0.625,0.828125
756,756,1729520228864,0.79589844,0.21600342,0.5829468,-0.296875,-0.6875,0.953125
757,757,1729520228904,0.80029297,0.21820068,0.58392334,-0.90625,-1.015625,0.78125
758,758,1729520228944,0.79296875,0.21673584,0.57489014,-0.875,-0.671875,0.796875
759,759,1729520228984,0.7915039,0.21380615,0.58343506,-0.671875,-0.375,0.90625
