,timestamp,accel_x,accel_y,accel_z,gyro_x,gyro_y,gyro_z
0,1727894954252,0.94628906,0.099609375,-0.2705078,4.125,-28.8125,23.40625
1,1727894954292,0.98339844,0.00390625,0.0068359375,31.40625,-43.0625,20.25
2,1727894954332,1.15625,0.02734375,0.021484375,5.71875,-24.1875,26.90625
3,1727894954372,1.1289062,0.24511719,0.2578125,5.90625,7.78125,30.75
4,1727894954412,1.2324219,0.5234375,0.14746094,10.78125,71.15625,12.0
5,1727894954452,1.3916016,0.2578125,0.3623047,-52.03125,148.0,-7.53125
6,1727894954492,1.2646484,-0.08300781,-0.4951172,-206.0,184.75,-12.78125
7,1727894954532,1.453125,-0.4609375,-0.56347656,-66.78125,153.65625,-33.46875
8,1727894954572,1.1845703,-0.10644531,0.11328125,204.09375,59.25,-85.40625
9,1727894954612,1.1083984,0.01171875,-0.056640625,5.15625,93.0625,-82.0
10,1727894954652,0.9863281,0.125,-0.1171875,-41.65625,93.96875,-63.375
11,1727894954692,0.78808594,0.08691406,-0.06347656,-118.90625,96.25,-36.03125
12,1727894954732,0.60546875,-0.26660156,-0.040039062,-106.53125,61.8125,-22.59375
13,1727894954772,0.52246094,-0.328125,-0.026367188,-74.84375,-10.8125,-11.25
14,1727894954812,0.51171875,-0.20214844,0.19335938,-2.59375,-33.53125,3.75
15,1727894954852,0.5214844,-0.034179688,0.4580078,45.9375,-50.75,-0.5
16,1727894954892,1.0488281,0.29003906,0.89453125,50.53125,-52.6875,-12.40625
17,1727894954932,1.3144531,0.82128906,0.5078125,-62.65625,-41.40625,-6.625
18,1727894954972,0.86328125,-0.09277344,0.12402344,58.625,-64.65625,-6.875
19,1727894955012,1.5410156,-0.453125,-0.28027344,17.25,-86.9375,30.0
20,1727894955052,1.6298828,0.3779297,0.41210938,48.625,-8.4375,-15.90625
21,1727894955092,0.44628906,-0.6220703,-0.28515625,209.28125,-24.6875,-35.90625
22,1727894955132,0.6171875,-0.4658203,-0.26953125,12.0,-10.5,77.0
23,1727894955172,1.109375,0.16699219,-0.24707031,103.90625,-66.5,129.1875
24,1727894955212,1.3916016,0.7734375,0.02734375,85.5,-139.84375,61.125
25,1727894955252,0.8183594,0.375,0.07128906,-17.65625,-20.03125,33.1875
26,1727894955292,0.9765625,0.034179688,-0.19824219,-41.34375,-35.53125,15.21875
27,1727894955332,0.9082031,0.10449219,-0.39746094,-26.28125,-49.9375,21.59375
28,1727894955372,0.9238281,-0.2685547,-0.23046875,-7.40625,-90.71875,4.625
29,1727894955412,0.95214844,-0.23730469,0.10449219,50.34375,-95.53125,32.4375
30,1727894955452,1.2617188,0.234375,0.31054688,43.4375,-56.59375,42.34375
31,1727894955492,1.3505859,0.3955078,0.04296875,94.34375,20.78125,18.46875
32,1727894955532,1.6171875,0.4560547,0.07519531,-13.03125,71.53125,-7.34375
33,1727894955572,1.5361328,0.41503906,0.04296875,-74.3125,169.1875,-51.125
34,1727894955612,1.4931641,-0.3701172,-0.3828125,-273.21875,215.0625,-59.71875
35,1727894955652,1.3544922,-0.73828125,-0.6904297,-124.78125,175.40625,-12.78125
36,1727894955692,1.0234375,-0.1484375,0.49902344,311.1875,13.28125,-100.3125
37,1727894955732,0.8466797,0.061523438,-0.18164062,66.5,66.5625,-106.53125
38,1727894955772,0.72558594,0.056640625,-0.1953125,-56.90625,78.28125,-74.625
39,1727894955812,0.734375,-0.0068359375,-0.20996094,-114.03125,57.0625,-51.1875
40,1727894955852,0.5722656,-0.26171875,-0.17382812,-104.875,23.125,-35.5625
41,1727894955892,0.34570312,-0.15722656,-0.07714844,-67.71875,-25.53125,-6.0625
42,1727894955932,0.47753906,-0.0068359375,0.12011719,-39.15625,-77.34375,10.65625
43,1727894955972,1.2783203,0.030273438,0.6464844,-20.34375,-108.0625,24.09375
44,1727894956012,2.0058594,0.5908203,1.1123047,-71.875,-12.65625,1.25
45,1727894956052,0.9716797,-0.15527344,0.30078125,51.3125,-34.3125,-20.96875
46,1727894956092,0.94140625,-0.47753906,-0.5439453,34.15625,-43.90625,16.46875
47,1727894956132,1.1611328,-0.22851562,-0.37890625,49.28125,-4.59375,38.125
48,1727894956172,0.5263672,0.11230469,-0.15820312,229.03125,-48.0625,10.34375
49,1727894956212,1.0087891,-0.043945312,-0.33691406,83.34375,-43.15625,69.75
50,1727894956252,1.0283203,0.21875,-0.43359375,-1.1875,-64.09375,52.84375
51,1727894956292,1.0595703,0.41210938,0.24414062,125.71875,-139.25,26.9375
52,1727894956332,0.86328125,0.21875,-0.17871094,-15.53125,-16.1875,22.4375
53,1727894956372,0.87402344,-0.00390625,-0.09863281,-20.46875,-37.90625,20.0
54,1727894956412,0.9765625,-0.040039062,-0.19140625,26.34375,-53.90625,18.09375
55,1727894956452,1.0019531,-0.0234375,-0.31835938,9.0625,-55.0625,21.40625
56,1727894956492,0.8798828,-0.0703125,0.06542969,47.84375,-88.21875,34.21875
57,1727894956532,1.1503906,0.018554688,0.3408203,41.84375,-66.65625,37.5
58,1727894956572,1.3876953,0.38085938,-0.08691406,37.40625,-1.78125,40.125
59,1727894956612,1.3027344,0.49414062,0.14160156,4.96875,23.0625,9.4375
60,1727894956652,1.4931641,0.27148438,0.36132812,-32.6875,110.03125,-18.875
61,1727894956692,1.4628906,-0.10253906,0.059570312,-139.0625,214.65625,-32.96875
62,1727894956732,1.4833984,-0.2763672,-0.87109375,-236.65625,186.4375,-34.375
63,1727894956772,1.2138672,-0.14355469,-0.578125,68.46875,102.03125,-67.71875
64,1727894956812,1.1884766,0.18359375,0.3701172,179.25,96.65625,-111.0625
65,1727894956852,0.79589844,-0.20996094,-0.39746094,-89.3125,111.5625,-76.6875
66,1727894956892,0.74316406,0.06738281,-0.31054688,-114.34375,88.59375,-56.25
67,1727894956932,0.6230469,-0.20019531,-0.32617188,-162.875,71.46875,-45.375
68,1727894956972,0.28710938,-0.40429688,-0.2861328,-112.03125,4.25,-37.6875
69,1727894957012,0.25195312,-0.34765625,-0.17089844,-16.4375,-80.78125,-15.09375
70,1727894957052,0.49609375,-0.30859375,0.10253906,66.5,-153.75,-5.28125
71,1727894957092,1.796875,0.020507812,0.9482422,4.4375,-128.5,67.1875
72,1727894957132,1.8398438,1.6162109,0.7558594,-60.25,-20.09375,-96.34375
73,1727894957172,0.46289062,-0.34179688,-0.07714844,23.125,-30.96875,-31.40625
74,1727894957212,0.56933594,-0.3251953,-0.76171875,39.84375,-62.875,36.0
75,1727894957252,2.0058594,-0.9423828,0.060546875,-0.15625,5.78125,56.3125
76,1727894957292,1.0488281,-0.123046875,-0.38964844,279.40625,-26.125,-20.34375
77,1727894957332,0.6220703,-0.5292969,-0.5751953,89.09375,-23.03125,14.1875
78,1727894957372,0.5996094,-0.16113281,-0.4873047,47.09375,-38.53125,48.0625
79,1727894957412,1.3955078,0.78125,0.0390625,93.0625,-147.0,52.21875
80,1727894957452,0.8046875,0.54785156,-0.13964844,68.21875,-20.46875,-10.9375
81,1727894957492,0.74609375,-0.28710938,-0.28125,29.21875,-33.71875,-17.3125
82,1727894957532,1.0664062,-0.11328125,-0.13964844,60.15625,-71.5,27.3125
83,1727894957572,0.9658203,0.21777344,-0.2578125,42.875,-51.59375,36.65625
84,1727894957612,1.0283203,0.046875,0.2763672,52.46875,-98.03125,28.90625
85,1727894957652,1.1367188,0.078125,0.23730469,21.53125,-34.6875,27.0625
86,1727894957692,1.2890625,0.32910156,-0.11230469,57.15625,2.125,23.15625
87,1727894957732,1.3798828,0.18652344,0.17871094,24.875,20.25,6.8125
88,1727894957772,1.4785156,0.39746094,0.18847656,-61.0,106.5625,-3.25
89,1727894957812,1.5224609,-0.01171875,-0.0625,-125.625,230.09375,-27.5
90,1727894957852,1.5,-0.19140625,-0.8144531,-176.40625,187.96875,-39.625
91,1727894957892,1.1376953,-0.115234375,-0.4873047,5.84375,111.25,-66.125
92,1727894957932,1.0244141,0.009765625,0.16601562,68.21875,101.84375,-90.96875
93,1727894957972,0.78808594,0.055664062,-0.19726562,-85.21875,123.46875,-62.40625
94,1727894958012,0.79785156,0.11230469,-0.2939453,-118.0,84.875,-50.625
95,1727894958052,0.7109375,-0.078125,-0.3125,-179.71875,65.96875,-36.21875
96,1727894958092,0.48535156,-0.27734375,-0.25097656,-125.5,4.5625,-45.625
97,1727894958132,0.4140625,-0.43847656,-0.072265625,-17.1875,-66.0625,-34.03125
98,1727894958172,0.5800781,-0.41503906,0.07128906,54.0625,-90.96875,-15.65625
99,1727894958212,1.0039062,0.036132812,0.43652344,26.46875,-123.125,32.9375
100,1727894958252,1.9570312,0.8251953,1.1191406,-107.75,-36.09375,40.5
101,1727894958292,0.78222656,0.3095703,0.43554688,50.34375,-40.65625,-21.15625
102,1727894958332,0.4951172,-0.036132812,-0.46972656,62.40625,-67.71875,26.78125
103,1727894958372,2.0058594,-0.5654297,-0.9003906,21.03125,120.90625,43.5
104,1727894958412,0.9785156,-0.103515625,0.82714844,29.28125,-353.78125,-5.40625
105,1727894958452,0.65234375,-0.33007812,-1.1074219,74.75,-44.8125,36.78125
106,1727894958492,0.84765625,-0.059570312,-0.25878906,-95.125,-5.21875,71.875
107,1727894958532,1.0410156,0.8720703,0.17285156,251.75,-100.46875,-17.96875
108,1727894958572,0.8701172,-0.0703125,-0.26660156,23.34375,-10.6875,-63.875
109,1727894958612,0.8388672,-0.5908203,-0.08203125,-56.84375,-38.84375,-9.375
110,1727894958652,0.95410156,0.051757812,-0.4873047,76.40625,-25.21875,28.1875
111,1727894958692,0.9892578,0.3720703,-0.29589844,17.375,-54.65625,39.65625
112,1727894958732,0.97753906,0.061523438,-0.06542969,51.75,-69.09375,7.59375
113,1727894958772,1.0878906,-0.31835938,0.33496094,32.8125,-74.25,8.46875
114,1727894958812,1.2451172,0.2763672,-0.14160156,84.5625,2.0,27.3125
115,1727894958852,1.1132812,0.40625,-0.103515625,29.34375,17.6875,15.0625
116,1727894958892,1.4316406,0.34179688,0.125,-19.78125,31.28125,8.09375
117,1727894958932,1.3544922,0.22851562,0.28222656,-11.5,123.40625,-18.53125
118,1727894958972,1.4501953,-0.5263672,-0.095703125,-172.03125,206.84375,-21.03125
119,1727894959012,1.34375,-0.3388672,-0.7783203,-124.78125,166.96875,-8.21875
120,1727894959052,1.2363281,0.25,-0.2109375,135.78125,76.34375,-67.40625
121,1727894959092,1.0449219,0.15820312,0.111328125,11.21875,117.84375,-73.6875
122,1727894959132,0.82910156,-0.10253906,-0.2607422,-82.90625,117.0625,-67.21875
123,1727894959172,0.73828125,0.045898438,-0.21972656,-99.5,82.4375,-42.3125
124,1727894959212,0.7285156,-0.049804688,-0.15234375,-122.34375,56.1875,-37.4375
125,1727894959252,0.5234375,-0.22851562,-0.13085938,-98.46875,-9.0625,-32.8125
126,1727894959292,0.42773438,-0.35839844,-0.005859375,-26.875,-55.3125,-29.875
127,1727894959332,0.5605469,-0.375,0.14550781,58.4375,-65.625,-31.875
128,1727894959372,0.9824219,-0.08691406,0.4375,57.34375,-91.9375,4.25
129,1727894959412,1.8398438,0.9794922,1.0917969,-87.53125,-45.25,39.53125
130,1727894959452,0.9667969,0.39453125,0.4951172,-9.71875,-47.5625,-6.3125
131,1727894959492,0.46972656,-0.23632812,0.052734375,11.5625,-56.53125,9.0625
132,1727894959532,0.796875,-0.39648438,-0.82910156,53.75,-56.15625,58.8125
133,1727894959572,2.0058594,-0.42089844,-0.53515625,61.75,46.96875,46.59375
134,1727894959612,0.890625,0.5107422,1.0048828,216.46875,-172.5625,-1.1875
135,1727894959652,0.8017578,-0.1796875,-1.0654297,17.75,-5.5625,28.34375
136,1727894959692,0.7060547,0.10839844,-0.2734375,-255.5625,-37.0,46.71875
137,1727894959732,1.0400391,0.5449219,0.0234375,192.96875,-70.4375,-23.875
138,1727894959772,0.9042969,-0.31347656,-0.18457031,3.40625,-5.9375,-56.125
139,1727894959812,0.765625,-0.40527344,-0.2109375,-14.0,-35.53125,1.25
140,1727894959852,1.0488281,-0.078125,-0.3359375,36.1875,-37.1875,30.5625
141,1727894959892,0.95703125,0.43066406,-0.26464844,43.75,-41.40625,39.78125
142,1727894959932,0.8935547,0.21484375,-0.09082031,60.71875,-71.71875,3.75
143,1727894959972,1.1191406,-0.18457031,0.30566406,37.5625,-84.625,4.1875
144,1727894960012,1.2480469,0.07421875,0.14941406,52.53125,-10.75,17.5
145,1727894960052,1.1738281,0.28027344,-0.18261719,22.8125,34.15625,36.46875
146,1727894960092,1.4189453,0.5498047,0.14453125,-7.34375,35.125,20.0
147,1727894960132,1.5400391,0.57714844,0.19921875,-21.4375,147.75,-35.84375
148,1727894960172,1.5244141,-0.44628906,-0.2763672,-230.3125,234.84375,-45.6875
149,1727894960212,1.4794922,-0.7080078,-0.77441406,-144.375,204.09375,-7.28125
150,1727894960252,1.0429688,-0.115234375,-0.043945312,140.71875,79.4375,-35.59375
151,1727894960292,0.9580078,0.30371094,0.0029296875,92.9375,88.65625,-89.1875
152,1727894960332,0.73535156,0.16015625,-0.19921875,-63.625,97.15625,-89.5
153,1727894960372,0.7705078,0.20996094,-0.29785156,-176.53125,98.625,-35.1875
154,1727894960412,0.6191406,-0.19921875,-0.20019531,-178.65625,58.34375,-23.71875
155,1727894960452,0.31835938,-0.54589844,-0.10058594,-108.0625,-20.84375,-31.8125
156,1727894960492,0.5283203,-0.39257812,0.057617188,40.5625,-96.875,-35.5
157,1727894960532,0.578125,-0.43066406,0.15136719,105.4375,-118.71875,-36.28125
158,1727894960572,1.3046875,0.19433594,0.63183594,16.75,-108.71875,45.09375
159,1727894960612,2.0058594,1.4287109,0.96777344,-71.4375,-22.0,-8.3125
160,1727894960652,0.56347656,-0.3232422,0.29492188,41.78125,-37.8125,-17.71875
161,1727894960692,0.87890625,-0.7050781,-0.74609375,54.71875,-31.875,40.25
162,1727894960732,2.0058594,-0.4892578,-0.28125,60.53125,-25.15625,42.46875
163,1727894960772,0.9199219,0.20605469,0.23046875,331.53125,-59.46875,-22.65625
164,1727894960812,0.48632812,-0.29589844,-1.0126953,-50.5,-18.375,27.9375
165,1727894960852,1.1552734,0.203125,0.15429688,-74.0,-101.46875,71.625
166,1727894960892,0.9814453,0.5214844,-0.17382812,175.21875,-26.4375,-21.8125
167,1727894960932,0.9609375,-0.034179688,-0.0087890625,-37.0,-26.875,-41.40625
168,1727894960972,0.8339844,-0.375,-0.111328125,16.8125,-13.9375,-15.46875
169,1727894961012,0.9785156,0.15332031,-0.37402344,22.4375,-28.34375,23.96875
170,1727894961052,0.8652344,0.31347656,-0.20507812,56.625,-49.625,20.0625
171,1727894961092,0.97753906,-0.07910156,-0.055664062,10.59375,-65.03125,16.75
172,1727894961132,1.0253906,-0.111328125,0.2421875,52.21875,-65.9375,16.75
173,1727894961172,1.2597656,0.23046875,-0.09863281,40.625,-7.71875,30.90625
174,1727894961212,1.1777344,0.36035156,-0.109375,11.6875,-2.75,24.03125
175,1727894961252,1.4609375,0.32714844,0.080078125,-36.59375,18.46875,6.4375
176,1727894961292,1.5419922,0.12597656,0.4892578,-44.09375,125.78125,-27.78125
177,1727894961332,1.59375,-0.36035156,-0.25976562,-220.125,234.59375,-5.09375
178,1727894961372,1.1943359,0.021484375,-0.9638672,-112.9375,183.28125,-10.71875
179,1727894961412,1.1289062,0.17089844,-0.123046875,160.375,110.6875,-71.75
180,1727894961452,1.1572266,0.21875,0.09667969,54.4375,121.9375,-79.8125
181,1727894961492,0.81347656,0.08105469,-0.3251953,-20.46875,96.96875,-85.90625
182,1727894961532,0.7402344,0.05859375,-0.3466797,-118.75,100.03125,-67.09375
183,1727894961572,0.5878906,-0.14941406,-0.2783203,-164.875,59.25,-43.1875
184,1727894961612,0.3154297,-0.41308594,-0.06738281,-89.875,-12.84375,-32.375
185,1727894961652,0.39160156,-0.46484375,-0.078125,23.46875,-83.6875,-11.0
186,1727894961692,0.6191406,-0.13378906,0.22167969,66.875,-148.8125,7.84375
187,1727894961732,1.5351562,0.3466797,0.91503906,-3.125,-123.4375,38.375
188,1727894961772,1.3544922,0.9003906,0.484375,16.09375,-102.375,-6.8125
189,1727894961812,0.90527344,0.16503906,0.13769531,104.71875,-60.875,2.59375
190,1727894961852,1.7646484,-0.49023438,-0.75097656,59.625,1.25,28.78125
191,1727894961892,1.2939453,-0.51171875,0.4892578,84.21875,-233.15625,-33.09375
192,1727894961932,0.53027344,-0.45996094,-0.9345703,128.875,-15.875,58.5625
193,1727894961972,0.8154297,0.099609375,-0.7314453,-147.125,-20.78125,90.5625
194,1727894962012,1.1972656,0.88671875,-0.12597656,161.59375,-202.09375,21.8125
195,1727894962052,0.9921875,0.25390625,0.07519531,154.46875,-31.28125,-62.90625
196,1727894962092,0.8105469,-0.66503906,0.041992188,0.53125,-8.75,-25.65625
197,1727894962132,0.96875,-0.0859375,-0.5185547,11.9375,-13.09375,39.03125
198,1727894962172,0.9296875,0.5332031,-0.2607422,49.96875,-64.34375,47.65625
199,1727894962212,0.9394531,0.09277344,-0.045898438,60.9375,-56.90625,8.03125
200,1727894962252,1.0224609,-0.13085938,0.20996094,35.9375,-64.40625,16.875
201,1727894962292,1.1728516,0.20214844,-0.0234375,41.71875,-14.65625,23.84375
202,1727894962332,1.2021484,0.056640625,-0.034179688,44.21875,-3.4375,8.15625
203,1727894962372,1.2744141,0.026367188,-0.04296875,25.78125,18.15625,12.4375
204,1727894962412,1.3515625,0.2919922,0.4794922,37.5625,77.5625,7.78125
205,1727894962452,1.3115234,0.18066406,0.10839844,-61.4375,204.8125,-25.28125
206,1727894962492,1.4550781,0.17480469,-0.74316406,-214.8125,170.46875,-45.625
207,1727894962532,1.6142578,0.04296875,-0.80078125,-165.78125,139.5625,-67.59375
208,1727894962572,1.3056641,-0.38476562,0.51660156,231.71875,122.0625,-94.75
209,1727894962612,0.85546875,-0.41601562,-0.30859375,-14.90625,116.5625,-69.78125
210,1727894962652,0.7294922,0.23730469,-0.20898438,24.625,70.28125,-85.78125
211,1727894962692,0.8066406,0.32226562,-0.1484375,-145.59375,76.53125,-52.9375
212,1727894962732,0.5605469,-0.07128906,-0.3173828,-192.15625,51.125,-31.53125
213,1727894962772,0.24414062,-0.5214844,-0.22851562,-85.46875,12.375,3.34375
214,1727894962812,0.4013672,-0.63378906,0.08691406,10.28125,-71.625,7.46875
215,1727894962852,0.5751953,-0.12402344,0.27539062,49.1875,-135.34375,20.71875
216,1727894962892,1.2080078,0.20410156,0.68066406,23.53125,-119.78125,20.46875
217,1727894962932,2.0058594,1.0693359,0.7714844,-69.28125,-57.875,7.65625
218,1727894962972,0.88964844,0.46777344,0.029296875,89.40625,-78.5625,7.65625
219,1727894963012,1.4267578,-0.15429688,-0.8642578,-43.90625,-48.28125,67.71875
220,1727894963052,1.0908203,-0.76171875,0.4111328,138.53125,-127.53125,-43.25
221,1727894963092,0.75097656,-0.3984375,-0.0048828125,179.84375,-18.6875,41.53125
222,1727894963132,0.8955078,-0.02734375,-0.7324219,-129.28125,-28.21875,80.90625
223,1727894963172,1.0634766,0.7988281,-0.0625,69.875,-141.25,48.25
224,1727894963212,1.0009766,0.5878906,0.001953125,150.90625,-38.15625,-15.34375
225,1727894963252,0.88378906,-0.31054688,0.06347656,-109.9375,-19.84375,-21.375
226,1727894963292,0.83496094,-0.203125,-0.24316406,-70.6875,-11.375,4.375
227,1727894963332,0.9580078,-0.026367188,-0.32421875,6.5,-42.8125,11.875
228,1727894963372,0.9003906,-0.018554688,-0.10449219,35.25,-61.59375,8.6875
229,1727894963412,0.94628906,-0.14648438,-0.1953125,31.90625,-64.78125,22.9375
230,1727894963452,1.0898438,-0.12109375,0.1640625,56.6875,-77.15625,33.0625
231,1727894963492,1.2402344,0.5058594,-0.07519531,73.90625,-16.8125,36.21875
232,1727894963532,1.4326172,0.3720703,-0.2265625,-11.625,24.09375,8.53125
233,1727894963572,1.6972656,0.40625,0.11230469,-47.9375,55.9375,-8.09375
234,1727894963612,1.4716797,0.171875,0.171875,-80.34375,192.71875,-47.4375
235,1727894963652,1.2939453,-0.49316406,-0.5419922,-254.21875,207.4375,-40.0625
236,1727894963692,0.8408203,-0.4921875,-0.7783203,-145.90625,146.46875,7.125
237,1727894963732,1.0351562,0.15039062,0.43164062,245.09375,76.15625,-78.9375
238,1727894963772,1.1230469,0.26757812,-0.27148438,33.3125,90.5,-79.375
239,1727894963812,0.97558594,-0.046875,-0.34277344,-35.125,103.9375,-76.625
240,1727894963852,0.75390625,-0.09472656,-0.296875,-116.125,105.4375,-63.3125
241,1727894963892,0.44335938,-0.17773438,-0.13769531,-97.625,30.6875,-34.21875
242,1727894963932,0.40234375,-0.15722656,-0.05078125,-62.75,-33.71875,-13.28125
243,1727894963972,0.48632812,-0.18261719,0.14941406,6.09375,-89.5625,7.375
244,1727894964012,0.6611328,-0.078125,0.4453125,44.21875,-136.25,23.21875
245,1727894964052,1.7607422,0.62890625,0.68359375,-26.3125,-111.03125,27.6875
246,1727894964092,1.28125,0.37597656,0.64746094,2.1875,-19.3125,-19.375
247,1727894964132,0.39453125,-0.22070312,0.036132812,55.53125,-51.59375,22.875
248,1727894964172,2.0058594,-0.6386719,-0.86621094,66.1875,65.28125,104.03125
249,1727894964212,1.1132812,-0.107421875,0.24707031,107.34375,-229.03125,18.96875
250,1727894964252,0.484375,0.15820312,-0.9472656,-25.71875,-66.0625,83.34375
251,1727894964292,0.8496094,0.50390625,-0.11328125,-55.875,-57.875,51.3125
252,1727894964332,0.98339844,0.38867188,0.14160156,180.71875,-71.25,-49.28125
253,1727894964372,0.96972656,-0.421875,-0.17773438,-54.03125,-4.34375,-49.71875
254,1727894964412,0.68066406,-0.3173828,-0.19140625,-38.78125,-25.53125,-2.90625
255,1727894964452,0.9667969,-0.05078125,-0.41601562,61.9375,-36.75,24.4375
256,1727894964492,0.9824219,0.26953125,-0.25195312,34.40625,-61.65625,31.34375
257,1727894964532,1.0400391,0.046875,-0.107421875,34.59375,-66.59375,17.0625
258,1727894964572,1.0869141,-0.11035156,0.48046875,74.5,-74.59375,8.15625
259,1727894964612,1.2324219,0.24511719,-0.047851562,68.28125,10.34375,22.1875
260,1727894964652,1.2070312,0.35253906,-0.030273438,23.28125,34.34375,24.375
261,1727894964692,1.4599609,0.50878906,0.29003906,9.5,73.65625,-0.4375
262,1727894964732,1.3476562,0.18261719,0.52246094,-41.40625,217.34375,-40.78125
263,1727894964772,1.6298828,-0.33496094,-0.69140625,-255.40625,228.25,-55.09375
264,1727894964812,1.6376953,-0.5673828,-0.7001953,-43.71875,168.875,-32.75
265,1727894964852,1.2138672,0.064453125,0.19628906,215.625,52.53125,-70.28125
266,1727894964892,0.9091797,0.20996094,-0.036132812,24.09375,121.25,-108.3125
267,1727894964932,0.7373047,0.21679688,-0.20019531,-87.5,102.65625,-64.40625
268,1727894964972,0.5839844,0.032226562,-0.36816406,-177.875,98.6875,-35.84375
269,1727894965012,0.5175781,-0.26464844,-0.27148438,-179.09375,37.46875,-33.40625
270,1727894965052,0.2841797,-0.3828125,-0.0546875,-79.5,-57.4375,-21.875
271,1727894965092,0.4375,-0.5517578,0.203125,56.9375,-118.0,-18.28125
272,1727894965132,0.85058594,-0.3125,0.3154297,156.59375,-151.03125,-15.78125
273,1727894965172,1.9287109,0.9189453,1.3251953,-24.3125,-94.375,55.21875
274,1727894965212,1.1416016,0.5830078,0.2763672,-66.5,-70.34375,-1.3125
275,1727894965252,0.8925781,-0.15722656,0.21484375,53.8125,-55.3125,1.4375
276,1727894965292,1.9267578,-0.67089844,-0.953125,38.4375,-66.0625,20.40625
277,1727894965332,1.0712891,-0.31640625,0.63378906,234.78125,-175.0625,-35.90625
278,1727894965372,0.71191406,-0.7626953,-0.5625,110.4375,17.4375,41.25
279,1727894965412,0.8027344,-0.24609375,-0.88671875,-117.8125,-20.71875,105.125
280,1727894965452,1.3076172,1.0898438,-0.18164062,216.28125,-295.84375,32.4375
281,1727894965492,1.1279297,0.7841797,0.19140625,268.28125,-4.65625,-46.59375
282,1727894965532,0.77246094,-0.3779297,0.02734375,-6.78125,30.3125,-37.25
283,1727894965572,0.9169922,-0.13378906,-0.23730469,-56.84375,-6.71875,16.21875
284,1727894965612,0.90527344,0.19042969,-0.42871094,-18.9375,-21.9375,24.75
285,1727894965652,0.94433594,0.059570312,-0.14355469,72.84375,-62.03125,19.25
286,1727894965692,1.0205078,-0.10644531,0.234375,61.5625,-78.15625,23.78125
287,1727894965732,1.1953125,0.22753906,0.07910156,33.375,-35.40625,31.84375
288,1727894965772,1.2246094,0.27246094,-0.030273438,39.21875,6.15625,21.40625
289,1727894965812,1.3974609,0.119140625,0.03515625,5.53125,23.96875,9.75
290,1727894965852,1.4794922,0.1953125,0.42871094,-3.875,94.34375,-12.84375
291,1727894965892,1.4228516,0.028320312,0.1640625,-91.28125,255.65625,-25.15625
292,1727894965932,1.3574219,0.10253906,-0.9609375,-215.09375,201.875,-44.21875
293,1727894965972,1.3925781,-0.45117188,-0.4921875,89.40625,124.0,-84.3125
294,1727894966012,1.1601562,0.0009765625,0.3828125,150.84375,90.6875,-109.875
295,1727894966052,0.85058594,-0.109375,-0.28808594,-67.53125,115.9375,-74.625
296,1727894966092,0.8779297,0.25195312,-0.2626953,-92.6875,78.71875,-60.375
297,1727894966132,0.6542969,-0.018554688,-0.25097656,-159.9375,67.625,-50.625
298,1727894966172,0.43847656,-0.40429688,-0.13378906,-138.28125,3.71875,-38.53125
299,1727894966212,0.31054688,-0.67578125,-0.053710938,-23.46875,-38.21875,-27.1875
300,1727894966252,0.5019531,-0.27539062,0.059570312,63.28125,-113.96875,5.21875
301,1727894966292,1.0947266,0.14648438,0.37109375,56.75,-125.625,48.0
302,1727894966332,1.7480469,0.9189453,0.6171875,-41.28125,-94.8125,47.75
303,1727894966372,1.2138672,0.37695312,0.32714844,-50.1875,-73.6875,-9.25
304,1727894966412,0.9873047,-0.05859375,-0.16796875,67.71875,-66.375,21.65625
305,1727894966452,1.9814453,-0.76464844,0.0107421875,39.65625,-10.21875,22.375
306,1727894966492,0.71875,-0.3310547,0.09375,153.125,2.84375,17.5625
307,1727894966532,0.62597656,-0.07714844,-1.0019531,-89.9375,-22.28125,79.25
308,1727894966572,1.0175781,0.31640625,-0.45214844,-136.0,-26.5,67.1875
309,1727894966612,1.0029297,0.7753906,0.4296875,336.65625,-180.8125,-9.0
310,1727894966652,1.0410156,-0.08984375,-0.068359375,14.3125,5.46875,-65.53125
311,1727894966692,0.7890625,-0.5332031,-0.15039062,-103.96875,-4.09375,-7.34375
312,1727894966732,0.9042969,0.01171875,-0.15820312,11.625,-24.0,28.59375
313,1727894966772,0.97558594,0.18847656,-0.35839844,34.03125,-44.09375,26.53125
314,1727894966812,0.84375,0.15917969,-0.13476562,2.0625,-56.65625,22.9375
315,1727894966852,1.0205078,-0.09375,-0.119140625,6.21875,-58.90625,26.9375
316,1727894966892,1.1025391,0.0126953125,0.2626953,43.0,-68.75,24.5
317,1727894966932,1.1826172,0.076171875,-0.21484375,5.96875,1.03125,36.15625
318,1727894966972,1.3212891,0.20507812,-0.08496094,4.875,-5.09375,25.125
319,1727894967012,1.3837891,0.40039062,0.35253906,20.96875,34.21875,5.46875
320,1727894967052,1.3427734,0.26464844,0.19140625,-34.875,154.65625,-27.1875
321,1727894967092,1.4648438,-0.3515625,-0.32910156,-175.375,212.15625,-32.125
322,1727894967132,1.2753906,-0.20703125,-0.7919922,-109.03125,139.9375,-25.65625
323,1727894967172,1.1210938,0.025390625,-0.059570312,144.3125,66.03125,-86.5625
324,1727894967212,1.0439453,0.10058594,0.06640625,-31.9375,119.0625,-85.53125
325,1727894967252,0.9042969,0.05859375,-0.17480469,-49.40625,96.65625,-82.78125
326,1727894967292,0.8300781,-0.0146484375,-0.24414062,-126.90625,98.875,-53.0
327,1727894967332,0.60546875,-0.2734375,-0.20996094,-152.71875,69.5,-43.46875
328,1727894967372,0.38085938,-0.37304688,0.0087890625,-68.4375,-20.40625,-18.21875
329,1727894967412,0.5253906,-0.24804688,0.0087890625,17.8125,-55.4375,-12.71875
330,1727894967452,0.5,-0.29101562,0.11328125,56.8125,-77.28125,-4.84375
331,1727894967492,1.109375,0.09667969,0.4013672,16.03125,-116.90625,53.8125
332,1727894967532,2.0058594,1.2226562,1.1552734,-61.46875,-30.53125,31.53125
333,1727894967572,0.86816406,0.119140625,0.37695312,21.15625,-38.78125,-10.28125
334,1727894967612,0.8574219,-0.4111328,-0.5966797,75.125,-65.8125,34.875
335,1727894967652,2.0058594,-0.79589844,-0.6484375,41.84375,75.59375,27.6875
336,1727894967692,0.6035156,-0.27929688,-0.028320312,82.1875,-119.84375,16.5625
337,1727894967732,0.63378906,-0.26171875,0.10253906,50.9375,-73.75,60.65625
338,1727894967772,1.234375,0.66308594,-0.3330078,-3.0,-50.625,69.0625
339,1727894967812,0.95996094,0.83984375,-0.087890625,113.5625,-89.625,-16.0625
340,1727894967852,0.99609375,-0.24023438,0.024414062,-25.53125,-23.03125,-50.1875
341,1727894967892,0.8066406,-0.20703125,-0.059570312,-45.3125,-20.84375,-1.25
342,1727894967932,0.88964844,-0.13867188,-0.24511719,20.96875,-41.09375,11.3125
343,1727894967972,0.9824219,-0.0703125,-0.31054688,16.75,-49.40625,20.53125
344,1727894968012,1.03125,0.12597656,0.009765625,59.0,-68.625,20.3125
345,1727894968052,1.1191406,0.13476562,0.17871094,77.75,-40.65625,14.375
346,1727894968092,1.1533203,0.15039062,-0.111328125,47.9375,7.0625,20.25
347,1727894968132,1.4716797,0.2783203,-0.005859375,17.6875,15.71875,20.25
348,1727894968172,1.4824219,0.6699219,0.2705078,34.84375,81.9375,-19.0
349,1727894968212,1.3701172,0.068359375,0.20507812,-48.96875,209.46875,-64.78125
350,1727894968252,1.4873047,-0.6582031,-0.640625,-222.375,183.6875,-51.59375
351,1727894968292,1.1738281,-0.75,-0.36621094,-16.3125,120.15625,-31.21875
352,1727894968332,1.0742188,0.18164062,0.0546875,166.3125,71.75,-90.25
353,1727894968372,0.94628906,0.046875,-0.02734375,25.4375,96.25,-86.34375
354,1727894968412,0.8330078,0.078125,-0.21777344,-48.53125,90.5625,-58.5625
355,1727894968452,0.59277344,0.10644531,-0.19433594,-133.3125,79.9375,-35.90625
356,1727894968492,0.37304688,-0.1796875,-0.08105469,-124.65625,17.3125,-12.90625
357,1727894968532,0.42382812,-0.33691406,-0.033203125,-57.46875,-46.90625,-10.71875
358,1727894968572,0.45996094,-0.359375,0.10644531,44.0,-111.34375,-5.8125
359,1727894968612,1.0126953,-0.13574219,0.48339844,90.8125,-125.125,17.0625
360,1727894968652,2.0058594,0.7832031,1.2275391,-68.125,-56.96875,51.78125
361,1727894968692,1.1279297,0.3779297,0.34472656,-37.8125,-36.34375,-18.28125
362,1727894968732,0.44335938,-0.2578125,0.01171875,69.5625,-85.09375,7.1875
363,1727894968772,1.5400391,-0.46484375,-0.83496094,-22.0,0.46875,69.4375
364,1727894968812,1.6855469,-0.3095703,0.1796875,214.34375,-200.6875,6.5
365,1727894968852,0.80566406,-0.10546875,-0.7050781,143.40625,3.53125,54.84375
366,1727894968892,0.65234375,0.16308594,-0.5332031,-211.03125,-24.3125,55.53125
367,1727894968932,1.0742188,0.5595703,0.29492188,246.0625,-105.5,-10.28125
368,1727894968972,1.0273438,-0.1015625,-0.038085938,23.34375,-8.125,-50.375
369,1727894969012,0.7167969,-0.4482422,-0.2529297,-56.125,0.71875,-8.6875
370,1727894969052,0.8701172,-0.029296875,-0.29101562,56.4375,-34.0625,19.625
371,1727894969092,0.97265625,0.3330078,-0.31054688,38.6875,-47.5625,30.5625
372,1727894969132,0.9667969,0.123046875,-0.14257812,35.125,-65.6875,9.875
373,1727894969172,1.0429688,-0.20507812,0.20898438,53.25,-80.03125,9.875
374,1727894969212,1.2421875,0.11621094,0.13085938,45.03125,-19.3125,31.34375
375,1727894969252,1.1064453,0.39746094,-0.17089844,13.96875,18.15625,48.5
376,1727894969292,1.5332031,0.41601562,0.051757812,-9.1875,14.3125,16.34375
377,1727894969332,1.5371094,0.47265625,0.059570312,-14.4375,112.59375,-22.4375
378,1727894969372,1.4140625,-0.27929688,0.08691406,-129.71875,211.46875,-43.3125
379,1727894969412,1.3701172,-0.47851562,-0.89746094,-232.375,176.8125,-16.625
380,1727894969452,1.0341797,-0.22070312,-0.31347656,58.6875,124.6875,-23.875
381,1727894969492,1.0087891,0.24023438,0.24804688,137.90625,100.25,-85.46875
382,1727894969532,0.92285156,0.013671875,-0.17871094,-45.3125,107.96875,-67.96875
383,1727894969572,0.8183594,0.04296875,-0.2841797,-84.875,96.25,-61.625
384,1727894969612,0.72558594,-0.053710938,-0.14355469,-126.84375,67.96875,-46.34375
385,1727894969652,0.453125,-0.25,-0.09082031,-122.03125,12.1875,-29.03125
386,1727894969692,0.42871094,-0.30664062,-0.01171875,-34.09375,-38.90625,-26.75
387,1727894969732,0.48242188,-0.2705078,0.059570312,54.96875,-82.53125,-18.59375
388,1727894969772,0.86035156,-0.09375,0.390625,36.65625,-131.59375,3.15625
389,1727894969812,2.0058594,0.7158203,1.2333984,-66.1875,-72.71875,38.84375
390,1727894969852,0.9580078,0.47070312,0.46289062,16.6875,-36.46875,-16.4375
391,1727894969892,0.3173828,-0.0107421875,-0.08496094,-17.34375,-64.84375,17.8125
392,1727894969932,1.6757812,-0.9121094,-1.0849609,-88.40625,-18.6875,75.15625
393,1727894969972,2.0058594,-0.22949219,0.4501953,278.53125,-171.53125,12.65625
394,1727894970012,0.9707031,-0.29589844,-0.27148438,268.09375,-66.5,27.3125
395,1727894970052,0.3330078,-0.12109375,-0.9160156,-112.4375,-4.40625,80.53125
396,1727894970092,1.1582031,1.1992188,-0.036132812,92.5625,-154.4375,24.8125
397,1727894970132,0.9003906,0.24414062,-0.087890625,159.59375,-12.90625,-64.96875
398,1727894970172,0.8388672,-0.671875,-0.13183594,-114.65625,-24.8125,-16.3125
399,1727894970212,0.88964844,-0.35253906,-0.33398438,-44.15625,-19.0625,28.125
400,1727894970252,1.0087891,0.30371094,-0.4501953,35.6875,-38.09375,42.46875
401,1727894970292,0.92089844,0.12011719,0.056640625,88.84375,-82.84375,24.625
402,1727894970332,1.1181641,-0.08984375,0.26757812,33.0625,-73.0625,23.90625
403,1727894970372,1.2109375,0.30664062,-0.08691406,45.15625,-1.59375,21.28125
404,1727894970412,1.0859375,0.16601562,-0.1015625,13.21875,25.4375,11.625
405,1727894970452,1.4882812,0.12597656,0.34375,-5.5,42.40625,-4.59375
406,1727894970492,1.3154297,0.17480469,0.51953125,21.28125,190.03125,-18.875
407,1727894970532,1.6484375,0.107421875,-0.39257812,-165.5,219.40625,-33.34375
408,1727894970572,1.7578125,-0.048828125,-0.80859375,-139.65625,191.625,-63.5625
409,1727894970612,1.2861328,-0.3671875,-0.30273438,113.25,79.21875,-84.0
410,1727894970652,0.9589844,0.021484375,0.11621094,90.5,104.34375,-111.96875
411,1727894970692,0.7841797,0.06738281,-0.11621094,-76.0625,102.28125,-71.0625
412,1727894970732,0.66503906,0.14453125,-0.29101562,-105.6875,128.65625,-50.0625
413,1727894970772,0.7529297,-0.13378906,-0.3017578,-200.46875,44.125,-44.34375
414,1727894970812,0.24609375,-0.5410156,-0.140625,-119.46875,-17.71875,-8.75
415,1727894970852,0.32128906,-0.44726562,0.1484375,63.09375,-68.5625,-26.46875
416,1727894970892,0.63378906,-0.27441406,0.3779297,143.84375,-102.25,-26.09375
417,1727894970932,1.5537109,0.7988281,0.77246094,-38.40625,-94.0,52.15625
418,1727894970972,1.3525391,0.6826172,0.59765625,-59.78125,-64.34375,9.8125
419,1727894971012,0.5625,-0.0859375,0.29101562,2.53125,-80.03125,-2.78125
420,1727894971052,0.5517578,-0.328125,-0.45214844,90.625,-98.84375,38.375
421,1727894971092,2.0058594,-0.36914062,-1.0195312,-35.90625,26.96875,98.1875
422,1727894971132,0.41308594,0.3046875,1.1523438,461.65625,-197.40625,-35.1875
423,1727894971172,0.6064453,-0.73535156,-0.32226562,-42.5625,-1.96875,17.5625
424,1727894971212,0.5019531,-0.024414062,-0.7578125,-186.90625,-22.28125,57.84375
425,1727894971252,1.1679688,1.03125,-0.39648438,176.125,-176.53125,-6.125
426,1727894971292,0.8925781,0.61621094,-0.06347656,220.125,-30.0,-42.875
427,1727894971332,0.9951172,-0.27148438,0.0048828125,-68.5,-13.625,-14.6875
428,1727894971372,0.9746094,-0.20898438,-0.2626953,1.125,-19.4375,2.0
429,1727894971412,1.0927734,-0.08300781,-0.34960938,39.09375,-24.4375,5.40625
430,1727894971452,0.8203125,-0.07324219,-0.17089844,72.4375,-79.3125,17.5625
431,1727894971492,0.9707031,-0.12890625,0.103515625,42.71875,-71.90625,38.0625
432,1727894971532,1.234375,0.47460938,-0.19433594,46.0,-30.78125,58.375
433,1727894971572,1.3095703,0.036132812,0.15039062,81.15625,-44.5625,2.1875
434,1727894971612,1.2324219,0.16699219,0.11328125,7.125,45.03125,26.59375
435,1727894971652,1.3935547,0.515625,-0.056640625,-11.375,118.875,5.65625
436,1727894971692,1.4697266,-0.068359375,-0.0029296875,-59.53125,211.03125,-31.65625
437,1727894971732,1.6474609,0.0068359375,-0.7402344,-229.21875,216.96875,-43.125
438,1727894971772,1.2958984,-0.234375,-0.90722656,-95.59375,134.25,-78.9375
439,1727894971812,0.91503906,-0.22265625,0.5488281,203.21875,92.03125,-110.5
440,1727894971852,0.7998047,0.10839844,-0.043945312,19.09375,71.03125,-83.15625
441,1727894971892,0.91015625,0.40625,-0.19921875,-98.90625,69.0,-56.46875
442,1727894971932,0.89453125,-0.0146484375,-0.35839844,-186.125,65.0,-58.0625
443,1727894971972,0.5234375,-0.53515625,-0.3642578,-162.625,78.34375,-39.5625
444,1727894972012,0.20117188,-0.4296875,0.056640625,-48.125,11.9375,-31.59375
445,1727894972052,0.5292969,-0.171875,0.15429688,19.875,-63.3125,-6.9375
446,1727894972092,0.6748047,0.07128906,0.39648438,15.53125,-125.5,16.5
447,1727894972132,1.2626953,0.24414062,0.6894531,-28.84375,-70.75,27.6875
448,1727894972172,1.4482422,0.7939453,0.46484375,-20.65625,-92.4375,-3.03125
449,1727894972212,0.54003906,0.21582031,0.16015625,14.5625,-74.40625,8.09375
450,1727894972252,0.9121094,-0.123046875,-0.6074219,12.4375,-77.59375,75.78125
451,1727894972292,2.0058594,-0.74902344,-0.6855469,37.9375,106.4375,45.3125
452,1727894972332,0.81933594,-0.23535156,0.8535156,230.5625,-218.40625,-23.46875
453,1727894972372,0.7089844,-0.33398438,-0.75683594,-26.03125,-21.5625,78.09375
454,1727894972412,0.48339844,0.21386719,-0.24023438,-164.09375,-53.375,68.46875
455,1727894972452,0.8544922,0.72265625,-0.043945312,286.46875,-73.9375,-31.65625
456,1727894972492,0.9238281,-0.059570312,-0.32617188,-6.5625,-29.9375,-55.03125
457,1727894972532,0.9394531,-0.484375,-0.11230469,-29.0625,-54.15625,-6.75
458,1727894972572,0.9785156,0.13671875,-0.28710938,35.1875,-31.4375,22.125
459,1727894972612,0.9003906,0.10839844,-0.3154297,29.65625,-47.125,14.9375
460,1727894972652,1.1132812,0.043945312,0.15234375,58.5625,-100.59375,24.03125
461,1727894972692,1.2314453,0.20019531,0.14355469,68.875,-57.5625,27.5
462,1727894972732,1.2705078,0.25,-0.024414062,45.9375,-8.125,13.78125
463,1727894972772,1.1572266,-0.0703125,0.025390625,16.34375,30.0,9.3125
464,1727894972812,1.2529297,0.08496094,0.45214844,33.3125,73.34375,19.4375
465,1727894972852,1.3945312,0.11328125,0.12011719,-18.5625,203.09375,-5.28125
466,1727894972892,1.5498047,0.22167969,-0.6455078,-168.0,227.875,-38.0625
467,1727894972932,1.6611328,0.17675781,-0.6816406,-95.125,144.4375,-71.0625
468,1727894972972,1.3486328,-0.24511719,0.140625,175.6875,86.28125,-111.59375
469,1727894973012,0.93066406,0.005859375,-0.08691406,-35.375,97.875,-111.71875
470,1727894973052,0.6982422,0.15234375,-0.3095703,-106.03125,87.375,-87.78125
471,1727894973092,0.80566406,0.16015625,-0.46679688,-196.1875,75.59375,-72.0
472,1727894973132,0.51660156,-0.22167969,-0.31152344,-233.1875,44.53125,-38.0625
473,1727894973172,0.30078125,-0.50097656,-0.033203125,-107.5,-40.84375,-18.53125
474,1727894973212,0.4501953,-0.63964844,0.06640625,62.46875,-126.25,-45.375
475,1727894973252,0.80566406,-0.1171875,0.22753906,93.65625,-168.59375,12.5
476,1727894973292,1.7021484,0.85839844,1.2666016,-83.9375,-74.46875,67.96875
477,1727894973332,1.1650391,0.5078125,0.5566406,-11.75,-48.125,-29.5
478,1727894973372,0.68359375,-0.22558594,-0.37597656,87.75,-71.84375,-9.1875
479,1727894973412,2.0058594,-0.5214844,-0.6933594,22.0,41.96875,72.53125
480,1727894973452,1.0996094,0.23828125,0.3095703,268.65625,-42.1875,-47.625
481,1727894973492,0.33984375,-0.5488281,-0.46777344,25.4375,-58.96875,13.46875
482,1727894973532,0.67871094,-0.2607422,-0.49609375,-40.5,-1.125,62.71875
483,1727894973572,1.3076172,0.3671875,-0.4248047,134.9375,-83.75,27.0
484,1727894973612,0.6298828,0.42578125,-0.25585938,119.65625,-44.09375,12.4375
485,1727894973652,0.90527344,-0.1640625,-0.17773438,-12.65625,-42.6875,-0.5625
486,1727894973692,1.0976562,0.17480469,-0.24121094,35.375,-47.1875,14.5
487,1727894973732,0.90722656,0.057617188,-0.103515625,38.25,-55.75,1.5
488,1727894973772,0.89746094,-0.25097656,0.0087890625,36.78125,-71.5625,8.53125
489,1727894973812,1.0390625,-0.23925781,0.13476562,23.53125,-64.71875,51.5
490,1727894973852,1.2148438,0.66503906,-0.07519531,29.8125,-34.375,74.125
491,1727894973892,1.2226562,0.47460938,-0.0087890625,100.3125,-24.75,0.28125
492,1727894973932,1.3173828,-0.12988281,0.12988281,5.78125,25.9375,-12.0
493,1727894973972,1.2744141,0.25585938,0.33691406,-33.59375,97.34375,8.40625
494,1727894974012,1.4394531,-0.06933594,0.15234375,-67.84375,185.40625,-29.9375
495,1727894974052,1.4707031,-0.11328125,-0.57128906,-205.96875,210.0,-32.625
496,1727894974092,1.7197266,-0.15722656,-0.71484375,-31.625,133.96875,-68.875
497,1727894974132,1.2451172,0.18066406,0.20410156,252.34375,79.75,-115.125
498,1727894974172,0.9707031,0.12109375,0.0,-89.0,112.46875,-81.5
499,1727894974212,0.7910156,0.08300781,-0.3076172,-144.0625,94.15625,-56.84375
500,1727894974252,0.7451172,0.0087890625,-0.22851562,-196.25,86.96875,-38.0
501,1727894974292,0.5673828,-0.3466797,-0.171875,-190.4375,40.5,-26.75
502,1727894974332,0.3671875,-0.4169922,0.07714844,-18.03125,-10.5,-42.3125
503,1727894974372,0.4873047,-0.3984375,0.009765625,71.15625,-60.5625,-42.1875
504,1727894974412,0.66796875,-0.024414062,0.13671875,36.40625,-99.875,6.4375
505,1727894974452,1.0927734,0.29785156,0.5292969,-48.59375,-95.0625,31.96875
506,1727894974492,1.5546875,0.59765625,0.8261719,-47.4375,-81.5625,16.21875
507,1727894974532,0.80078125,0.31054688,0.36035156,43.6875,-75.8125,-9.0625
508,1727894974572,1.0283203,-0.43359375,-0.09863281,68.875,-82.53125,28.0625
509,1727894974612,1.8955078,-0.44335938,-0.71484375,1.8125,-47.4375,47.75
510,1727894974652,1.0791016,0.01953125,0.8623047,173.875,-118.3125,-33.78125
511,1727894974692,0.7109375,-0.46875,-0.9375,165.6875,-21.625,24.8125
512,1727894974732,0.58691406,0.0,-0.6826172,-87.3125,7.0,68.53125
513,1727894974772,1.1494141,0.83691406,-0.017578125,124.0,-209.0,37.8125
514,1727894974812,0.96777344,0.22558594,-0.001953125,67.84375,-25.96875,-44.34375
515,1727894974852,0.9169922,-0.37597656,-0.109375,-76.625,-18.21875,-23.71875
516,1727894974892,0.94433594,-0.20996094,-0.171875,45.625,-17.0,1.8125
517,1727894974932,0.8964844,0.0234375,-0.33789062,26.46875,-18.6875,22.875
518,1727894974972,0.89746094,0.23242188,-0.3046875,28.0,-33.15625,29.28125
519,1727894975012,0.9267578,0.024414062,-0.0546875,30.1875,-71.90625,22.5625
520,1727894975052,1.1953125,0.09082031,0.2919922,69.875,-59.78125,11.21875
521,1727894975092,1.3359375,0.1875,-0.119140625,38.5625,-6.0,16.9375
522,1727894975132,1.3867188,0.115234375,0.024414062,14.1875,15.3125,14.5625
523,1727894975172,1.4501953,0.40429688,0.1640625,-15.65625,75.125,-5.34375
524,1727894975212,1.3857422,-0.0107421875,0.26367188,3.6875,198.59375,-44.15625
525,1727894975252,1.3544922,-0.19628906,-0.5878906,-178.71875,183.5625,-54.96875
526,1727894975292,1.5234375,-0.4873047,-0.52734375,19.15625,119.125,-60.09375
527,1727894975332,1.1201172,-0.040039062,0.31445312,156.90625,87.625,-97.25
528,1727894975372,0.93066406,-0.034179688,-0.20410156,-24.8125,120.96875,-82.125
529,1727894975412,0.80859375,-0.059570312,-0.17773438,-51.71875,99.15625,-57.09375
530,1727894975452,0.6123047,-0.06933594,-0.15625,-110.4375,81.71875,-57.875
531,1727894975492,0.55859375,-0.19921875,-0.14453125,-141.875,41.5625,-39.9375
532,1727894975532,0.42285156,-0.24609375,-0.14941406,-51.84375,-18.09375,-16.8125
533,1727894975572,0.41308594,-0.21386719,-0.047851562,29.65625,-67.875,-3.4375
534,1727894975612,0.55371094,-0.044921875,0.24414062,67.125,-120.875,16.28125
535,1727894975652,1.7216797,0.6904297,1.2431641,-14.1875,-111.03125,61.875
536,1727894975692,1.4111328,1.0019531,0.42773438,18.71875,-84.25,-21.03125
537,1727894975732,0.7060547,-0.38964844,0.18457031,75.90625,-46.96875,5.09375
538,1727894975772,1.4677734,-0.43847656,-0.9267578,-19.1875,26.65625,97.75
539,1727894975812,1.6279297,-0.63671875,0.3076172,73.96875,-283.53125,-7.34375
540,1727894975852,0.67578125,-0.08496094,-0.33691406,200.84375,-43.90625,47.875
541,1727894975892,0.63183594,0.16894531,-0.6484375,-203.03125,-12.03125,77.125
542,1727894975932,1.0771484,0.9013672,0.018554688,145.65625,-161.5625,2.78125
543,1727894975972,0.96777344,0.09667969,0.09375,113.375,-14.1875,-65.40625
544,1727894976012,0.8222656,-0.56640625,-0.12792969,-126.125,-4.34375,-12.28125
545,1727894976052,0.77246094,-0.12109375,-0.20507812,-0.5,-19.3125,22.0625
546,1727894976092,0.9902344,0.25,-0.38964844,19.375,-42.9375,26.84375
547,1727894976132,0.9042969,0.115234375,-0.1796875,54.25,-67.15625,17.0
548,1727894976172,0.99316406,-0.19824219,0.2421875,43.4375,-78.5625,17.3125
549,1727894976212,1.2490234,0.17578125,0.1171875,71.75,-27.0625,26.59375
550,1727894976252,1.2167969,0.375,-0.08984375,36.59375,17.9375,32.03125
551,1727894976292,1.4833984,0.43554688,0.20703125,-2.875,38.9375,9.4375
552,1727894976332,1.4365234,0.49609375,0.40722656,-8.125,153.96875,-29.0625
553,1727894976372,1.640625,-0.12890625,-0.20214844,-197.21875,255.84375,-58.875
554,1727894976412,1.671875,-0.42773438,-0.9003906,-208.46875,224.21875,-48.375
555,1727894976452,1.1513672,-0.82714844,-0.19628906,215.4375,62.96875,-85.40625
556,1727894976492,1.0097656,0.37695312,0.19921875,162.75,87.5625,-116.125
557,1727894976532,0.71777344,0.15625,-0.19433594,-15.53125,85.90625,-90.25
558,1727894976572,0.5048828,0.18457031,-0.3017578,-171.15625,93.25,-40.3125
559,1727894976612,0.50097656,-0.018554688,-0.25,-209.5625,57.78125,-26.625
560,1727894976652,0.3828125,-0.32226562,-0.22167969,-163.59375,-10.34375,-5.75
561,1727894976692,0.33496094,-0.453125,0.064453125,-30.53125,-63.96875,-5.75
562,1727894976732,0.72265625,-0.34179688,0.58984375,110.875,-83.03125,-29.9375
563,1727894976772,1.2783203,0.5263672,0.8027344,24.75,-110.0625,-12.34375
564,1727894976812,1.5673828,0.9589844,0.76171875,-48.90625,-62.28125,1.4375
565,1727894976852,0.8671875,0.15527344,0.064453125,-45.90625,-87.65625,-3.4375
566,1727894976892,1.3691406,-0.30371094,-0.39257812,-16.1875,-92.0,32.1875
567,1727894976932,2.0058594,-0.86328125,-0.08105469,131.375,-17.15625,48.25
568,1727894976972,0.3935547,-0.23339844,-0.2763672,208.40625,-5.3125,-25.34375
569,1727894977012,0.32226562,-0.6503906,-0.6298828,107.65625,-68.4375,24.21875
570,1727894977052,0.6640625,-0.19433594,-0.6455078,60.46875,-15.71875,106.40625
571,1727894977092,1.7109375,0.51660156,-0.48339844,31.0,-48.34375,96.21875
572,1727894977132,1.0527344,1.1376953,0.0390625,104.53125,-244.71875,38.84375
573,1727894977172,1.0654297,-0.02734375,0.578125,100.5625,-25.65625,-57.46875
574,1727894977212,0.96777344,-0.20605469,-0.2841797,-49.59375,16.53125,-14.0625
575,1727894977252,0.9111328,-0.18554688,-0.3232422,-93.46875,0.21875,18.09375
576,1727894977292,0.95996094,0.099609375,-0.30273438,8.9375,-38.09375,21.71875
577,1727894977332,0.8496094,-0.14746094,-0.022460938,59.65625,-82.84375,24.09375
578,1727894977372,1.1757812,0.17675781,0.15332031,56.9375,-67.875,37.375
579,1727894977412,1.296875,0.31835938,0.051757812,46.71875,-15.71875,24.3125
580,1727894977452,1.4130859,0.21191406,0.024414062,-22.84375,29.03125,13.84375
581,1727894977492,1.5449219,0.40820312,0.14257812,-51.90625,99.65625,-9.84375
582,1727894977532,1.5507812,-0.12597656,0.19433594,-84.4375,216.40625,-43.46875
583,1727894977572,1.3066406,-0.18457031,-0.7919922,-321.875,220.625,-32.1875
584,1727894977612,1.3535156,-0.55566406,-0.5058594,1.5625,101.46875,-43.40625
585,1727894977652,1.0380859,-0.19238281,0.48046875,294.90625,104.21875,-89.5625
586,1727894977692,0.8574219,-0.0390625,-0.3017578,-28.90625,97.6875,-52.625
587,1727894977732,0.7265625,0.056640625,-0.3017578,-50.1875,113.15625,-47.5
588,1727894977772,0.5683594,-0.12988281,-0.2763672,-144.375,82.5,-18.9375
589,1727894977812,0.31445312,-0.27734375,-0.23144531,-93.15625,8.21875,12.96875
590,1727894977852,0.14941406,-0.46289062,-0.17871094,1.875,-62.625,9.9375
591,1727894977892,0.32226562,-0.21679688,-0.053710938,25.78125,-149.5625,5.09375
592,1727894977932,2.0058594,0.42382812,1.5097656,65.03125,-140.65625,51.0625
593,1727894977972,1.1337891,1.1669922,0.9003906,-48.0,-13.1875,-79.125
594,1727894978012,0.5,-0.5566406,-0.25683594,35.9375,-30.28125,-6.1875
595,1727894978052,1.4384766,-0.9638672,-0.57910156,139.25,71.9375,18.78125
596,1727894978092,1.9824219,-0.41503906,0.6669922,-234.625,-77.78125,71.75
597,1727894978132,0.83496094,-0.038085938,-1.0136719,138.90625,-33.21875,34.75
598,1727894978172,0.4921875,0.15527344,-0.7578125,5.21875,-33.40625,62.65625
599,1727894978212,1.1972656,0.3876953,0.051757812,21.34375,-144.3125,48.0
600,1727894978252,1.0068359,0.20898438,0.3251953,194.1875,-81.25,15.65625
601,1727894978292,0.74609375,-0.032226562,-0.22070312,-29.5625,-25.65625,1.125
602,1727894978332,0.9902344,-0.07519531,-0.22167969,-12.34375,-37.25,17.84375
603,1727894978372,1.0087891,0.07128906,-0.203125,29.03125,-62.40625,23.84375
604,1727894978412,0.9189453,0.103515625,-0.2607422,37.5625,-59.90625,18.03125
605,1727894978452,0.93652344,-0.24121094,0.39257812,71.34375,-99.9375,11.21875
606,1727894978492,1.3251953,0.05078125,0.07910156,47.53125,-7.21875,33.84375
607,1727894978532,1.2089844,0.5732422,-0.047851562,31.53125,15.96875,38.5
608,1727894978572,1.6552734,0.5839844,0.115234375,16.03125,58.5625,-11.75
609,1727894978612,1.4443359,0.39160156,0.14648438,-64.28125,191.4375,-45.375
610,1727894978652,1.6337891,-0.28320312,-0.5292969,-373.125,228.625,-57.03125
611,1727894978692,1.3789062,-0.30664062,-1.0380859,-231.40625,165.875,-13.4375
612,1727894978732,1.0722656,-0.13964844,0.42773438,367.21875,33.25,-104.09375
613,1727894978772,0.87890625,-0.034179688,-0.18164062,-53.65625,103.5,-81.6875
614,1727894978812,0.70703125,0.029296875,-0.25683594,-38.59375,75.96875,-58.6875
615,1727894978852,0.73046875,0.15234375,-0.28125,-129.78125,71.28125,-50.4375
616,1727894978892,0.6904297,-0.19042969,-0.2783203,-141.0625,36.84375,-31.15625
617,1727894978932,0.28320312,-0.4033203,-0.15917969,-67.34375,-7.09375,-29.125
618,1727894978972,0.39648438,-0.3955078,0.06542969,23.125,-60.0625,-28.71875
619,1727894979012,0.7470703,-0.047851562,0.37304688,45.5625,-115.75,12.0625
620,1727894979052,1.921875,0.578125,1.2597656,-71.75,-68.6875,57.34375
621,1727894979092,1.4619141,1.0742188,0.5205078,-48.96875,-61.65625,-42.9375
622,1727894979132,1.0087891,-0.26757812,-0.25585938,20.25,-46.03125,-19.0
623,1727894979172,1.4609375,-0.66503906,-0.54296875,31.0,16.875,74.1875
624,1727894979212,0.9394531,0.0146484375,0.47851562,109.40625,-15.15625,-28.15625
625,1727894979252,0.31835938,-0.5576172,-0.7392578,84.8125,-35.71875,9.25
626,1727894979292,0.5839844,-0.40625,-0.14746094,-13.9375,-26.375,87.4375
627,1727894979332,1.3857422,0.19140625,-0.3564453,91.46875,-18.5625,99.09375
628,1727894979372,1.2041016,1.0654297,-0.025390625,-72.71875,-227.9375,79.75
629,1727894979412,0.75878906,0.05859375,0.29296875,43.375,-25.03125,-15.03125
630,1727894979452,0.89941406,-0.375,-0.076171875,-2.28125,-48.0625,-7.34375
631,1727894979492,1.0175781,-0.09375,-0.29785156,-55.9375,-40.3125,21.15625
632,1727894979532,0.93847656,0.080078125,-0.3046875,14.03125,-81.375,23.53125
633,1727894979572,0.90527344,-0.3046875,0.26953125,58.9375,-101.59375,20.1875
634,1727894979612,1.25,0.26464844,-0.07519531,60.53125,-9.0625,34.28125
635,1727894979652,1.2832031,0.4638672,-0.07519531,21.34375,6.5625,13.28125
636,1727894979692,1.5322266,0.36621094,0.22558594,41.25,67.71875,-31.46875
637,1727894979732,1.5751953,0.076171875,0.3701172,-48.71875,167.59375,-51.40625
638,1727894979772,1.4287109,-0.083984375,-0.43359375,-247.53125,224.21875,-51.28125
639,1727894979812,1.6582031,-0.5859375,-0.8544922,-74.59375,220.0,-40.1875
640,1727894979852,1.0615234,-0.5654297,0.24414062,236.1875,29.03125,-76.875
641,1727894979892,0.92285156,0.28710938,-0.20117188,99.78125,53.5,-105.90625
642,1727894979932,0.73046875,-0.0029296875,-0.18847656,-28.15625,76.53125,-83.65625
643,1727894979972,0.48242188,-0.02734375,-0.3388672,-156.9375,66.4375,-43.96875
644,1727894980012,0.41796875,-0.19726562,-0.1875,-111.21875,1.75,-1.4375
645,1727894980052,0.2548828,-0.46679688,-0.0859375,-25.78125,-54.21875,-6.8125
646,1727894980092,0.38085938,-0.21191406,0.064453125,19.75,-90.03125,9.3125
647,1727894980132,1.0761719,0.0625,0.62597656,44.90625,-99.9375,11.03125
648,1727894980172,2.0058594,2.008789,1.2646484,-75.8125,-23.875,-18.09375
649,1727894980212,0.9638672,0.16015625,0.02734375,-4.84375,-3.4375,-19.625
650,1727894980252,0.921875,-0.85058594,-0.8261719,27.4375,-11.3125,15.1875
651,1727894980292,1.4511719,-0.57714844,0.76660156,-72.34375,-17.78125,18.96875
652,1727894980332,0.5878906,-0.20996094,-0.6308594,225.5,-68.375,17.96875
653,1727894980372,0.6816406,-0.3544922,-0.33984375,137.96875,-54.9375,82.8125
654,1727894980412,1.1357422,0.4345703,-0.5859375,75.125,-14.375,85.0625
655,1727894980452,1.2802734,1.1875,-0.059570312,25.5625,-216.625,64.4375
656,1727894980492,0.7578125,-0.024414062,0.057617188,27.6875,-16.0625,-20.90625
657,1727894980532,0.88183594,-0.46777344,-0.11816406,-15.71875,-41.40625,-2.59375
658,1727894980572,1.0429688,-0.13085938,-0.15917969,-37.5,-65.4375,28.21875
659,1727894980612,1.0927734,0.10644531,-0.1171875,-2.21875,-64.15625,38.78125
660,1727894980652,1.0039062,0.18066406,0.28515625,99.53125,-76.96875,36.65625
661,1727894980692,1.3095703,0.2548828,0.06933594,50.75,-21.0,25.65625
662,1727894980732,1.2949219,0.09863281,0.06640625,27.875,26.03125,18.34375
663,1727894980772,1.3271484,0.30273438,0.34375,-4.15625,36.375,25.5
664,1727894980812,1.0146484,0.25097656,0.42871094,14.1875,169.0625,-5.21875
665,1727894980852,1.5488281,0.030273438,-0.375,-170.1875,198.96875,-30.3125
666,1727894980892,1.6171875,0.15332031,-0.625,-200.9375,181.875,-51.46875
667,1727894980932,1.6201172,-0.31347656,-0.5205078,74.0,97.6875,-107.9375
668,1727894980972,1.0917969,-0.19433594,0.3173828,197.84375,70.78125,-130.03125
669,1727894981012,0.7734375,0.052734375,-0.12011719,-82.90625,91.15625,-87.5625
670,1727894981052,0.7001953,0.3017578,-0.20507812,-125.5,87.15625,-62.65625
671,1727894981092,0.76464844,-0.046875,-0.3359375,-203.09375,60.53125,-50.125
672,1727894981132,0.36914062,-0.5986328,-0.2705078,-211.875,11.34375,-27.4375
673,1727894981172,0.17089844,-0.56640625,0.13183594,-2.09375,-57.6875,-27.5625
674,1727894981212,0.46484375,-0.3017578,0.25,106.0625,-98.71875,-26.09375
675,1727894981252,1.3222656,0.36523438,0.7001953,-3.0625,-114.53125,34.75
676,1727894981292,1.921875,1.2929688,0.8808594,-87.90625,-61.40625,-9.25
677,1727894981332,0.6591797,-0.057617188,0.17382812,28.375,-80.15625,-11.875
678,1727894981372,0.9169922,-0.43847656,-0.5371094,75.0625,-77.03125,44.53125
679,1727894981412,2.0058594,-1.0371094,0.12597656,135.78125,-2.9375,51.4375
680,1727894981452,0.39257812,-0.17773438,-0.65527344,213.125,9.9375,17.6875
681,1727894981492,0.044921875,-0.07128906,-0.62402344,-115.9375,-103.40625,69.5
682,1727894981532,1.5224609,0.30371094,-0.34472656,23.90625,-58.3125,81.875
683,1727894981572,1.2675781,0.69921875,0.5048828,250.34375,-241.28125,6.6875
684,1727894981612,0.8886719,0.0546875,0.19042969,-28.34375,13.71875,-46.09375
685,1727894981652,0.75878906,-0.35839844,-0.47070312,-86.8125,50.46875,-9.78125
686,1727894981692,0.9472656,0.037109375,-0.42089844,11.75,-46.09375,11.8125
687,1727894981732,1.0263672,-0.009765625,-0.21972656,51.90625,-72.46875,-2.90625
688,1727894981772,0.89746094,-0.43164062,0.20410156,40.25,-98.96875,10.15625
689,1727894981812,1.0664062,-0.055664062,-0.0107421875,46.5,-30.84375,43.6875
690,1727894981852,1.4628906,0.43945312,-0.078125,63.15625,-39.5,44.46875
691,1727894981892,1.2294922,0.3828125,0.013671875,56.8125,26.90625,17.0625
692,1727894981932,1.3994141,0.26464844,0.4873047,-5.03125,51.875,7.40625
693,1727894981972,1.2568359,0.0390625,0.17675781,-24.0625,181.8125,-30.71875
694,1727894982012,1.453125,-0.08203125,-0.49804688,-144.84375,186.5625,-31.8125
695,1727894982052,1.5683594,0.01171875,-0.69628906,-88.78125,159.84375,-58.75
696,1727894982092,1.3701172,-0.1015625,0.0009765625,180.09375,105.5,-102.3125
697,1727894982132,0.9638672,-0.3232422,-0.09082031,-38.15625,136.75,-95.46875
698,1727894982172,0.5527344,0.001953125,-0.29785156,-58.6875,110.46875,-62.46875
699,1727894982212,0.6015625,0.15625,-0.23339844,-93.21875,69.625,-54.34375
700,1727894982252,0.7705078,0.0,-0.32714844,-175.8125,25.25,-41.65625
701,1727894982292,0.42871094,-0.27539062,-0.23339844,-160.0625,-16.4375,-38.84375
702,1727894982332,0.3017578,-0.53027344,0.045898438,30.6875,-89.3125,-49.46875
703,1727894982372,0.56347656,-0.07324219,0.17480469,84.21875,-152.84375,-15.21875
704,1727894982412,1.7265625,0.4267578,1.0673828,-30.34375,-96.4375,62.40625
705,1727894982452,1.4892578,1.09375,0.83203125,-33.34375,-28.8125,-28.28125
706,1727894982492,0.68847656,-0.20800781,-0.16210938,60.59375,-49.8125,-16.8125
707,1727894982532,1.3388672,-0.49902344,-0.82910156,-55.6875,-43.71875,37.21875
708,1727894982572,2.0058594,0.42382812,1.328125,267.125,-112.5,-47.375
709,1727894982612,0.50878906,-1.0576172,-0.28320312,153.78125,23.40625,-47.3125
710,1727894982652,0.375,-0.5078125,-0.6845703,-80.78125,11.75,72.125
711,1727894982692,0.9267578,0.25,-0.7080078,51.5,-25.90625,77.5
712,1727894982732,1.3613281,1.3154297,-0.25585938,13.84375,-224.9375,80.1875
713,1727894982772,0.7910156,-0.13867188,0.33496094,168.9375,-27.78125,-28.71875
714,1727894982812,1.0341797,-0.41796875,-0.17382812,-9.59375,-64.21875,25.5625
715,1727894982852,1.0361328,0.061523438,-0.1015625,-36.75,-56.90625,54.53125
716,1727894982892,0.9082031,0.13476562,-0.072265625,81.71875,-66.125,35.125
717,1727894982932,1.0791016,-0.049804688,0.27148438,42.65625,-80.78125,40.6875
718,1727894982972,1.2607422,0.43554688,-0.19824219,23.59375,-14.0625,42.75
719,1727894983012,1.296875,0.03515625,0.23535156,81.71875,-16.25,-4.25
720,1727894983052,1.4453125,0.16015625,0.31152344,10.96875,61.625,10.96875
721,1727894983092,1.2050781,0.3095703,0.42382812,20.78125,173.125,-18.53125
722,1727894983132,1.5654297,0.020507812,-0.28222656,-146.75,217.28125,-62.71875
723,1727894983172,1.7177734,0.10839844,-0.82910156,-141.75,170.28125,-100.5625
724,1727894983212,1.5371094,-0.34765625,-0.16699219,198.84375,57.59375,-124.78125
725,1727894983252,1.1064453,-0.24023438,0.10546875,0.71875,114.1875,-125.15625
726,1727894983292,0.58496094,-0.07519531,-0.35058594,-72.90625,68.34375,-86.9375
727,1727894983332,0.58496094,0.20410156,-0.19921875,-132.78125,58.28125,-60.21875
728,1727894983372,0.578125,0.0029296875,-0.45703125,-223.09375,24.75,-41.15625
729,1727894983412,0.20410156,-0.4111328,-0.3046875,-184.84375,-2.28125,-21.625
730,1727894983452,0.29296875,-0.5498047,-0.076171875,-14.3125,-64.40625,-17.65625
731,1727894983492,0.76464844,-0.32910156,0.19335938,51.8125,-98.34375,4.75
732,1727894983532,2.0058594,1.1152344,1.5244141,-74.53125,-97.25,28.71875
733,1727894983572,1.0771484,0.7109375,0.5996094,-17.59375,-80.15625,-35.1875
734,1727894983612,1.0576172,-0.40039062,-0.18945312,17.75,-63.96875,11.4375
735,1727894983652,1.6464844,-0.46777344,-0.5214844,16.34375,11.34375,77.5625
736,1727894983692,1.1787109,0.14550781,0.18164062,186.25,-20.59375,-36.9375
737,1727894983732,0.59375,-0.65625,-0.2841797,133.84375,-33.65625,6.5625
738,1727894983772,0.48632812,-0.4560547,-0.4716797,1.3125,-22.96875,77.3125
739,1727894983812,1.1845703,0.1640625,-0.5996094,75.53125,-32.625,108.0
740,1727894983852,1.1337891,0.99121094,-0.22851562,-47.25,-245.4375,90.4375
741,1727894983892,0.9951172,0.20996094,0.3798828,152.875,-55.8125,-48.84375
742,1727894983932,1.0419922,-0.29882812,0.21191406,9.5625,-23.5625,-9.84375
743,1727894983972,0.97265625,-0.0078125,-0.33984375,-71.5625,9.4375,23.28125
744,1727894984012,0.96777344,0.0146484375,-0.33007812,4.375,-34.9375,18.96875
745,1727894984052,0.8828125,-0.2109375,0.030273438,73.21875,-97.78125,24.375
746,1727894984092,1.1230469,0.17285156,0.125,49.34375,-41.09375,36.96875
747,1727894984132,1.2939453,0.45117188,-0.041992188,41.90625,-16.125,23.90625
748,1727894984172,1.2900391,0.095703125,0.06933594,13.46875,19.28125,3.75
749,1727894984212,1.53125,0.28027344,0.32617188,-39.5625,77.3125,1.875
750,1727894984252,1.5429688,-0.018554688,0.33496094,-22.96875,212.4375,-47.6875
751,1727894984292,1.4628906,0.0009765625,-0.55566406,-253.0,207.375,-55.25
752,1727894984332,1.5205078,-0.3828125,-0.80859375,-22.71875,152.625,-60.5625
753,1727894984372,0.9433594,-0.29101562,0.3935547,262.4375,56.6875,-100.78125
754,1727894984412,0.8652344,0.15039062,-0.076171875,-23.9375,94.15625,-84.25
755,1727894984452,0.7705078,0.091796875,-0.21289062,-110.125,100.15625,-47.8125
756,1727894984492,0.6308594,-0.0009765625,-0.3408203,-177.34375,88.46875,-25.84375
757,1727894984532,0.44335938,-0.31152344,-0.31445312,-139.375,26.96875,-25.125
758,1727894984572,0.12988281,-0.45507812,-0.22070312,-54.21875,-55.875,-10.78125
759,1727894984612,0.24609375,-0.5605469,-0.034179688,46.0,-134.21875,9.8125
