,timestamp,accel_x,accel_y,accel_z,gyro_x,gyro_y,gyro_z
0,1727267543251,-1.5410156,-0.546875,0.0068359375,-21.8125,-30.53125,-9.0
1,1727267543278,-1.3310547,-0.36621094,0.14550781,29.84375,-85.28125,-35.84375
2,1727267543311,-1.1103516,0.026367188,0.4013672,94.03125,-157.90625,-58.78125
3,1727267543340,-1.2724609,0.16113281,-0.3671875,213.90625,-79.71875,-23.15625
4,1727267543398,-1.1337891,0.08886719,-0.55566406,91.65625,-97.25,2.25
5,1727267543429,-0.8378906,-0.171875,-0.2841797,-146.875,-98.28125,-40.0625
6,1727267543458,-1.1474609,-0.31152344,0.36328125,-197.34375,-95.09375,-69.59375
7,1727267543519,-0.99902344,-0.061523438,0.0703125,98.5625,-58.125,-59.84375
8,1727267543548,-0.7675781,0.12988281,-0.19824219,36.46875,-45.4375,-68.0
9,1727267543586,-0.5566406,-0.0107421875,-0.11035156,14.09375,-5.21875,-50.125
10,1727267543638,-0.36035156,0.08105469,-0.059570312,21.90625,27.375,-17.03125
11,1727267543668,-0.29003906,0.296875,0.04296875,8.21875,61.9375,18.71875
12,1727267543702,-0.50878906,0.24316406,0.12695312,28.625,99.59375,74.25
13,1727267543758,-2.0,-1.5136719,2.0,-81.1875,17.6875,62.53125
14,1727267543788,-1.4121094,-1.171875,0.18652344,150.75,-50.78125,-84.5625
15,1727267543824,-0.23925781,0.26171875,0.0625,55.65625,-26.6875,-62.5
16,1727267543908,-0.6904297,-0.5136719,-0.046875,0.78125,81.46875,0.09375
17,1727267543939,-1.9414062,0.35058594,-0.6816406,-8.0,55.53125,50.59375
18,1727267543999,-1.6445312,-0.73828125,-0.16796875,131.15625,-9.65625,16.78125
19,1727267544029,-0.38964844,0.38964844,-0.4140625,-50.75,44.28125,-43.09375
20,1727267544060,-0.6738281,1.0507812,0.17285156,-4.90625,41.4375,12.9375
21,1727267544094,-1.2460938,0.123046875,-0.41796875,-104.875,18.0,59.96875
22,1727267544119,-1.1640625,-0.21289062,-0.27929688,-44.15625,62.65625,56.375
23,1727267544148,-0.90722656,-0.39453125,-0.18261719,30.4375,91.65625,57.71875
24,1727267544178,-0.83984375,-0.47753906,-0.22460938,3.09375,53.4375,57.71875
25,1727267544239,-0.91015625,-0.20996094,-0.13867188,-118.96875,75.65625,8.03125
26,1727267544303,-0.90527344,-0.08886719,-0.056640625,-121.21875,25.625,9.5
27,1727267544423,-0.9003906,-0.056640625,0.020507812,-16.8125,37.53125,36.78125
28,1727267544452,-0.9628906,-0.15429688,-0.091796875,0.28125,29.65625,42.71875
29,1727267544479,-0.9970703,-0.21582031,-0.068359375,-33.15625,15.625,31.96875
30,1727267544508,-1.046875,-0.3408203,-0.27539062,-19.3125,-5.5,26.59375
31,1727267544571,-1.2089844,-0.3798828,-0.10839844,-20.875,-7.46875,12.375
32,1727267544599,-1.3525391,-0.35742188,0.13671875,-25.71875,-32.25,-9.78125
33,1727267544631,-1.4316406,-0.7265625,0.12792969,-48.65625,-82.71875,-46.40625
34,1727267544666,-1.2460938,-0.28710938,0.43164062,30.875,-150.71875,-86.25
35,1727267544697,-1.5087891,0.103515625,-0.30566406,309.1875,-100.0625,-80.65625
36,1727267544720,-1.5712891,0.18359375,-0.54589844,239.65625,-74.34375,-30.09375
37,1727267544750,-0.89453125,0.25390625,-0.484375,-42.375,-123.84375,-17.96875
38,1727267544783,-0.81152344,0.03515625,0.47070312,-330.09375,-157.65625,-75.21875
39,1727267544813,-0.8496094,-0.025390625,-0.07519531,-22.28125,-69.15625,-44.6875
40,1727267544843,-0.64160156,-0.19335938,0.026367188,18.90625,-22.59375,-44.28125
41,1727267544869,-0.53808594,0.059570312,-0.2763672,99.46875,-11.0625,-28.28125
42,1727267544899,-0.2607422,0.16113281,-0.103515625,-8.0,37.8125,-16.4375
43,1727267544959,-0.26171875,0.23339844,-0.033203125,33.25,68.65625,30.3125
44,1727267544988,-0.7158203,0.21484375,0.18457031,53.09375,111.1875,75.96875
45,1727267545051,-2.0,-2.0,2.0,-126.34375,35.75,-25.46875
46,1727267545198,-0.7841797,-0.27441406,-0.19824219,179.4375,-22.0625,-64.40625
47,1727267545228,-1.2802734,1.2246094,0.65234375,-87.96875,30.5,-27.59375
48,1727267545258,-1.3457031,-0.55859375,0.35839844,-56.84375,23.96875,54.90625
49,1727267545288,-0.7675781,-0.6464844,-0.62890625,75.59375,-18.5625,-1.34375
50,1727267545351,-0.6894531,0.36523438,-0.19726562,-110.6875,58.03125,-29.75
51,1727267545378,-0.8300781,0.4375,0.15722656,-190.625,102.09375,5.90625
52,1727267545408,-1.1074219,0.045898438,-0.15527344,-69.90625,46.875,62.375
53,1727267545438,-0.9248047,-0.083984375,-0.16308594,40.875,55.03125,75.65625
54,1727267545468,-0.921875,-0.23535156,-0.2421875,25.375,66.15625,64.3125
55,1727267545618,-0.93847656,-0.41503906,-0.25683594,-15.46875,55.03125,63.40625
56,1727267545648,-0.87597656,-0.3251953,-0.13183594,-45.0,77.1875,38.3125
57,1727267545680,-0.9082031,-0.22949219,-0.1015625,-61.1875,46.90625,19.21875
58,1727267545709,-0.8388672,-0.11035156,-0.09277344,-10.875,36.78125,35.375
59,1727267545739,-1.0322266,-0.123046875,-0.03125,2.71875,52.53125,41.125
60,1727267545768,-1.1289062,-0.10644531,-0.0087890625,-29.5,20.6875,26.84375
61,1727267545798,-1.1503906,-0.4111328,-0.31835938,-43.71875,-15.6875,17.875
62,1727267545828,-1.3652344,-0.5058594,0.022460938,-24.90625,-22.28125,-1.71875
63,1727267545858,-1.5976562,-0.6357422,-0.0048828125,33.3125,-40.0625,-36.03125
64,1727267545890,-1.3300781,-0.3623047,0.19335938,33.625,-86.0,-81.6875
65,1727267545918,-1.4824219,0.53125,0.4658203,202.5625,-148.15625,-88.75
66,1727267545949,-1.4414062,0.15527344,-0.7324219,309.125,-79.3125,-17.03125
67,1727267545979,-1.1376953,0.21191406,-0.62597656,38.5,-130.75,-1.71875
68,1727267546009,-1.0029297,0.23046875,-0.43164062,-197.46875,-94.25,-39.0625
69,1727267546039,-0.8808594,-0.23046875,0.5654297,-318.25,-95.09375,-69.15625
70,1727267546069,-0.7871094,-0.1953125,-0.15429688,81.03125,-42.625,-35.59375
71,1727267546099,-0.4169922,-0.08300781,-0.09277344,51.1875,-14.25,-39.3125
72,1727267546189,-0.38867188,0.123046875,-0.17480469,113.09375,12.375,-18.09375
73,1727267546224,-0.27246094,0.19433594,-0.036132812,1.375,47.90625,13.71875
74,1727267546254,-0.43359375,0.16308594,-0.024414062,60.59375,83.0,66.34375
75,1727267546309,-1.6777344,-0.98339844,2.0,-95.84375,6.40625,64.8125
76,1727267546339,-1.8710938,-1.0107422,-0.091796875,264.03125,-20.03125,-66.25
77,1727267546368,-0.001953125,0.6015625,0.16015625,15.0,-41.21875,-63.0
78,1727267546404,-1.1845703,0.3408203,-0.053710938,-98.90625,69.8125,24.40625
79,1727267546428,-2.0,-1.5859375,-0.001953125,-2.59375,8.96875,50.8125
80,1727267546460,-0.9082031,0.09082031,-0.54589844,10.1875,-18.25,-19.65625
81,1727267546488,-0.49414062,0.8261719,0.15332031,-97.25,96.125,-22.46875
82,1727267546527,-0.8496094,0.37890625,-0.107421875,-78.875,27.34375,55.59375
83,1727267546549,-1.2294922,-0.030273438,-0.26464844,-90.34375,54.78125,69.8125
84,1727267546578,-1.0810547,-0.32421875,-0.234375,55.59375,72.125,81.34375
85,1727267546642,-0.7763672,-0.3642578,-0.22070312,-46.9375,62.3125,51.25
86,1727267546668,-0.8105469,-0.4326172,-0.19335938,-0.5625,71.9375,59.0625
87,1727267546699,-0.9716797,-0.18164062,-0.08886719,-96.5625,72.75,24.40625
88,1727267546759,-0.8984375,-0.16796875,-0.045898438,-84.96875,26.15625,21.53125
89,1727267546788,-0.86816406,-0.061523438,0.01171875,-23.03125,39.84375,41.5625
90,1727267546849,-1.0273438,-0.10449219,0.08300781,-2.40625,42.40625,42.03125
91,1727267546879,-1.1064453,-0.37695312,-0.3017578,-31.8125,2.90625,27.625
92,1727267546909,-1.1708984,-0.37109375,-0.203125,-10.40625,8.53125,20.84375
93,1727267546939,-1.3759766,-0.33984375,0.07910156,-23.34375,-33.71875,-0.8125
94,1727267547000,-1.4580078,-0.7841797,-0.125,-14.90625,-49.5625,-40.25
95,1727267547029,-1.3896484,-0.31347656,0.35742188,-27.3125,-108.96875,-93.75
96,1727267547059,-1.3847656,0.39257812,0.08300781,245.15625,-108.78125,-89.1875
97,1727267547123,-1.453125,0.13183594,-0.62402344,312.375,-75.5625,-34.625
98,1727267547150,-0.77734375,0.4169922,-0.36621094,-532.78125,-733.21875,-105.1875
99,1727267547179,-1.2021484,-0.72558594,1.1582031,-370.5625,26.59375,-67.59375
100,1727267547239,-0.9277344,-0.09863281,-0.47851562,182.34375,-38.40625,-36.5
101,1727267547329,-0.6875,-0.20898438,-0.0107421875,-13.5625,-15.34375,-70.8125
102,1727267547388,-0.375,-0.16503906,-0.043945312,172.71875,13.71875,-36.6875
103,1727267547419,-0.3701172,0.20898438,-0.23046875,185.71875,-1.25,-2.03125
104,1727267547448,-0.14453125,0.18457031,-0.15722656,42.84375,45.21875,19.34375
105,1727267547484,-0.42089844,0.19921875,-0.043945312,68.34375,92.625,56.8125
106,1727267547515,-1.9267578,-0.9140625,2.0,-148.5625,61.5625,94.28125
107,1727267547538,-1.359375,-1.0068359,-0.0546875,155.6875,17.875,-62.8125
108,1727267547568,-0.08691406,0.17089844,-0.21679688,76.59375,-32.59375,-40.59375
109,1727267547628,-1.9443359,0.09472656,-0.6308594,-95.84375,132.25,46.75
110,1727267547658,-1.5175781,-1.1386719,0.31152344,-0.3125,-113.25,-22.0625
111,1727267547689,-0.11230469,0.55078125,-0.5683594,-19.125,19.625,-29.75
112,1727267547719,-0.65722656,0.77441406,0.19140625,-43.96875,116.75,5.125
113,1727267547748,-1.1064453,0.24414062,-0.23242188,-82.40625,39.34375,58.6875
114,1727267547779,-1.1884766,-0.08886719,-0.26660156,-90.71875,49.78125,60.40625
115,1727267547872,-0.8798828,-0.36035156,-0.25390625,25.9375,90.6875,76.8125
116,1727267547899,-0.7998047,-0.47753906,-0.2109375,42.59375,75.84375,82.03125
117,1727267547931,-0.9589844,-0.3623047,-0.040039062,-127.8125,51.6875,15.3125
118,1727267547962,-0.90722656,-0.18847656,-0.125,-97.0,32.8125,7.5
119,1727267547989,-0.7792969,-0.13378906,-0.06640625,-19.0625,58.6875,31.53125
120,1727267548019,-0.87402344,-0.072265625,0.024414062,6.46875,49.84375,39.59375
121,1727267548079,-1.1865234,-0.057617188,-0.0126953125,10.71875,29.46875,40.15625
122,1727267548109,-1.0673828,-0.37402344,-0.41992188,-33.9375,-8.25,28.5
123,1727267548140,-1.203125,-0.16308594,0.056640625,-12.40625,3.9375,18.96875
124,1727267548199,-1.3652344,-0.3173828,-0.01953125,48.75,-10.09375,9.6875
125,1727267548234,-1.5449219,-0.5253906,0.080078125,-34.125,-45.84375,-41.09375
126,1727267548258,-1.2734375,-0.40039062,0.1640625,-5.15625,-130.25,-72.15625
127,1727267548319,-1.3574219,0.26464844,-0.036132812,203.28125,-119.21875,-79.71875
128,1727267548349,-1.4833984,0.03125,-0.6904297,342.625,-67.9375,-24.0
129,1727267548380,-1.1972656,0.064453125,-0.83984375,-11.4375,-147.34375,-27.34375
130,1727267548439,-0.92285156,-0.1953125,0.4921875,-491.09375,-84.625,-120.875
131,1727267548477,-0.9707031,-0.009765625,0.0126953125,114.125,-47.0,-57.625
132,1727267548499,-0.72265625,0.08691406,-0.2919922,156.46875,-28.875,-44.9375
133,1727267548558,-0.5,0.30664062,-0.36035156,36.84375,-19.3125,-28.46875
134,1727267548588,-0.31152344,0.115234375,-0.22167969,-48.71875,12.6875,-9.71875
135,1727267548619,-0.28320312,0.09863281,0.038085938,13.71875,52.78125,36.0625
136,1727267548679,-0.4326172,0.09765625,-0.14257812,61.375,68.71875,74.875
137,1727267548714,-1.6015625,-1.7177734,2.0,-98.53125,25.25,44.59375
138,1727267548740,-1.4863281,-0.8105469,-0.21484375,216.71875,1.8125,-64.21875
139,1727267548798,-0.4345703,0.4921875,0.048828125,50.34375,-16.8125,-62.9375
140,1727267548834,-1.7382812,0.3671875,-0.020507812,-101.5625,51.5,23.4375
141,1727267548859,-1.6777344,-1.5371094,0.111328125,69.5,-54.09375,-14.40625
142,1727267548918,-0.22753906,0.4794922,-0.5126953,63.40625,-35.21875,-3.625
143,1727267548955,-0.7939453,0.91796875,0.038085938,-108.34375,106.78125,-9.71875
144,1727267548979,-1.1894531,0.21386719,-0.21972656,-119.65625,42.28125,46.125
145,1727267549039,-1.1123047,-0.14941406,-0.2607422,-82.21875,70.53125,57.71875
146,1727267549073,-0.9433594,-0.34179688,-0.13964844,7.625,91.46875,69.5
147,1727267549099,-0.8857422,-0.421875,-0.12109375,-94.125,28.5625,49.71875
148,1727267549159,-0.9550781,-0.19433594,-0.19238281,-18.09375,56.3125,38.9375
149,1727267549193,-0.8828125,-0.14648438,-0.18847656,-60.375,43.125,25.6875
150,1727267549220,-0.7236328,-0.15234375,-0.16601562,-71.78125,42.78125,29.46875
151,1727267549278,-0.7988281,-0.13476562,-0.12011719,-29.1875,59.0625,43.8125
152,1727267549310,-1.1875,-0.08105469,0.28125,-31.15625,36.78125,44.46875
153,1727267549369,-1.0830078,-0.48339844,-0.3671875,-33.46875,-19.0625,30.0
154,1727267549399,-1.2021484,-0.31347656,-0.059570312,-13.4375,1.625,24.8125
155,1727267549433,-1.4316406,-0.4111328,-0.041015625,-4.59375,-36.28125,7.0
156,1727267549489,-1.3427734,-0.8183594,0.05859375,-1.25,-69.09375,-47.375
157,1727267549519,-1.3837891,-0.09277344,0.33007812,77.625,-118.125,-100.71875
158,1727267549550,-1.5,0.3701172,-0.40527344,285.09375,-89.0,-71.125
159,1727267549612,-1.4111328,0.16601562,-0.6816406,179.78125,-106.9375,-15.625
160,1727267549639,-0.9794922,0.3828125,-1.1621094,-127.15625,-189.78125,-39.6875
161,1727267549668,-1.1162109,-0.4658203,1.2470703,-675.375,-45.3125,-101.9375
162,1727267549728,-0.8417969,-0.030273438,-0.4091797,12.4375,-43.53125,-50.75
163,1727267549759,-0.7578125,-0.13769531,-0.06640625,59.875,-1.125,-46.875
164,1727267549788,-0.5205078,0.2109375,-0.12207031,88.78125,10.0625,-29.125
165,1727267549849,-0.33984375,0.22363281,-0.11816406,90.8125,21.90625,3.71875
166,1727267549909,-0.35253906,0.21875,-0.017578125,41.84375,52.78125,45.28125
167,1727267549943,-0.55371094,-0.057617188,0.06738281,92.28125,57.78125,84.59375
168,1727267549968,-2.0,-2.0,2.0,-174.15625,-49.28125,-16.875
169,1727267549999,-1.2236328,-0.625,-0.15039062,206.03125,-52.375,-90.71875
170,1727267550028,-0.123046875,0.33398438,0.06738281,69.125,-19.0,-31.4375
171,1727267550088,-1.0234375,0.17382812,-0.37402344,-12.78125,107.84375,26.90625
172,1727267550118,-2.0,-0.115234375,1.4775391,-58.25,124.3125,39.46875
173,1727267550150,-0.76660156,-0.21191406,-0.9550781,212.8125,-14.90625,13.53125
174,1727267550209,-0.26367188,0.73535156,-0.24316406,-214.84375,65.28125,-63.5625
175,1727267550239,-0.9316406,0.67285156,-0.13867188,29.78125,58.03125,63.28125
176,1727267550269,-1.4726562,0.1015625,-0.3330078,-128.3125,40.34375,64.8125
177,1727267550329,-1.0546875,-0.19140625,-0.22070312,29.84375,65.0,84.40625
178,1727267550358,-0.8203125,-0.5527344,-0.24707031,82.0625,76.9375,85.3125
179,1727267550388,-0.95996094,-0.41503906,-0.055664062,-51.03125,53.6875,49.78125
180,1727267550448,-0.96875,-0.1484375,-0.18359375,-105.84375,34.34375,9.8125
181,1727267550478,-0.703125,-0.13085938,-0.20800781,-83.09375,39.78125,26.28125
182,1727267550509,-0.72753906,-0.13085938,-0.16503906,-44.6875,61.5625,39.46875
183,1727267550569,-1.0517578,0.05078125,0.30273438,-26.5625,44.84375,54.625
184,1727267550599,-1.1240234,-0.4580078,-0.24902344,-28.15625,-7.28125,43.0625
185,1727267550636,-1.0839844,-0.43554688,-0.3076172,-1.65625,15.125,30.375
186,1727267550689,-1.4492188,-0.31054688,0.13867188,-34.25,-27.71875,-1.59375
187,1727267550719,-1.4814453,-0.70214844,0.009765625,58.625,-46.46875,-23.28125
188,1727267550749,-1.3466797,-0.38085938,0.052734375,35.15625,-105.65625,-90.53125
189,1727267550809,-1.4355469,0.39746094,0.15820312,171.8125,-126.25,-91.5
190,1727267550839,-1.3994141,0.07519531,-0.6621094,291.65625,-70.09375,-34.5
191,1727267550869,-1.0869141,0.19335938,-0.5966797,42.53125,-119.9375,-18.09375
192,1727267550959,-0.9296875,0.005859375,-0.3388672,-359.9375,-182.5625,-85.78125
193,1727267550991,-0.8984375,-0.18359375,0.3720703,-232.5625,-64.78125,-61.96875
194,1727267551053,-0.78027344,-0.08496094,-0.26953125,28.71875,-17.90625,-64.03125
195,1727267551079,-0.5576172,-0.053710938,-0.23535156,91.21875,14.5,-31.21875
196,1727267551109,-0.3466797,-0.0625,-0.18066406,90.125,42.90625,-6.5
197,1727267551139,-0.28027344,0.17578125,-0.041015625,86.71875,61.25,16.40625
198,1727267551174,-0.5214844,0.2265625,-0.11328125,113.875,85.8125,49.78125
199,1727267551201,-1.7646484,-1.1650391,1.9824219,-82.09375,36.53125,23.65625
200,1727267551233,-1.5244141,-0.8105469,0.13574219,121.5625,-18.25,-47.25
201,1727267551289,-0.828125,0.4580078,-0.123046875,-30.71875,-18.4375,-63.625
202,1727267551319,-1.4570312,-1.4824219,-0.55371094,-48.71875,16.34375,38.3125
203,1727267551349,-0.86035156,-0.20703125,-0.18457031,-75.46875,-48.90625,-78.625
204,1727267551414,-0.42871094,0.9375,0.2265625,35.15625,78.40625,-37.3125
205,1727267551439,-1.0751953,0.66015625,-0.28320312,-57.8125,36.125,48.1875
206,1727267551468,-1.0976562,0.21386719,-0.31347656,-168.96875,62.4375,41.4375
207,1727267551532,-1.2216797,-0.16796875,-0.2705078,-44.625,45.34375,68.40625
208,1727267551558,-0.88671875,-0.33007812,-0.24902344,1.6875,81.21875,87.21875
209,1727267551589,-1.0058594,-0.5595703,-0.27148438,37.75,78.28125,89.84375
210,1727267551653,-0.8691406,-0.23242188,-0.17773438,-120.0,59.375,27.6875
211,1727267551679,-0.77441406,-0.14550781,-0.17382812,-152.96875,38.375,19.75
212,1727267551711,-0.89160156,0.009765625,0.21777344,-80.75,66.4375,47.40625
213,1727267551769,-0.82910156,-0.29882812,-0.14648438,-20.875,10.96875,56.875
214,1727267551799,-0.96484375,-0.5546875,-0.25097656,-21.0,9.5,41.78125
215,1727267551829,-0.9814453,-0.38378906,-0.25585938,4.5625,16.53125,21.78125
216,1727267551923,-1.3457031,-0.14941406,0.1015625,-9.90625,13.90625,4.3125
217,1727267551950,-1.4755859,-0.35058594,0.18945312,9.4375,-43.34375,-5.75
218,1727267551983,-1.2539062,-0.6425781,0.038085938,-16.25,-95.15625,-70.75
219,1727267552009,-1.6015625,0.234375,0.3232422,112.46875,-120.6875,-111.90625
220,1727267552039,-1.6064453,-0.045898438,-0.578125,324.5,-64.96875,-76.25
221,1727267552069,-1.4560547,0.107421875,-0.53125,147.75,-102.6875,-32.71875
222,1727267552129,-1.1171875,0.38964844,-0.73339844,-180.125,-118.59375,-47.9375
223,1727267552189,-0.9892578,-0.25097656,0.9404297,-421.34375,-89.625,-83.28125
224,1727267552219,-0.7207031,0.036132812,-0.38183594,67.84375,-70.5,-59.84375
225,1727267552248,-0.41992188,0.07910156,-0.19042969,21.28125,-30.40625,-52.375
226,1727267552279,-0.22949219,0.12792969,-0.115234375,97.8125,0.34375,-12.09375
227,1727267552309,-0.18945312,0.0703125,-0.12695312,94.03125,36.3125,28.5
228,1727267552369,-0.30273438,0.09375,-0.1640625,109.40625,67.90625,66.21875
229,1727267552399,-1.3486328,-0.7011719,1.2021484,-7.03125,62.0625,59.625
230,1727267552429,-1.9765625,-1.2587891,0.0,209.75,-8.5,-63.90625
231,1727267552489,-0.6699219,0.46972656,0.1328125,33.625,-28.34375,-80.71875
232,1727267552526,-1.0693359,0.13769531,-0.041992188,-107.875,46.90625,9.03125
233,1727267552549,-1.8789062,-1.1513672,-0.11230469,55.71875,-28.875,11.9375
234,1727267552613,-1.0517578,0.44726562,-0.22753906,-4.71875,22.4375,-28.9375
235,1727267552639,-0.7949219,0.7128906,-0.123046875,17.5,35.3125,24.28125
236,1727267552669,-1.1123047,0.34277344,-0.27246094,-70.8125,47.90625,55.59375
237,1727267552729,-1.1894531,0.005859375,-0.30566406,-124.84375,64.5625,54.5625
238,1727267552759,-0.97558594,-0.35839844,-0.31445312,37.65625,70.59375,77.5625
239,1727267552788,-0.68652344,-0.33496094,-0.20800781,44.59375,101.59375,88.5
240,1727267552849,-0.8154297,-0.20605469,-0.14355469,-85.34375,86.03125,28.96875
241,1727267552883,-0.7705078,-0.14648438,-0.14941406,-155.59375,42.65625,12.75
242,1727267552939,-0.91308594,0.36132812,0.7470703,-136.375,29.84375,51.125
243,1727267553003,-0.8779297,-0.3232422,-0.35742188,21.96875,15.71875,60.84375
244,1727267553030,-1.2275391,-0.44726562,-0.03515625,-61.53125,25.5625,36.0
245,1727267553059,-1.203125,-0.43652344,-0.1640625,-9.28125,-6.96875,27.625
246,1727267553089,-1.3603516,-0.4375,0.11621094,-8.125,-26.9375,4.3125
247,1727267553119,-1.4355469,-0.8066406,0.051757812,15.0,-65.9375,-42.25
248,1727267553148,-1.3505859,-0.24902344,0.43652344,75.4375,-122.28125,-108.53125
249,1727267553209,-1.5751953,0.20214844,-0.4814453,339.59375,-88.625,-99.0625
250,1727267553240,-1.6523438,-0.0078125,-0.6503906,257.125,-85.71875,-37.0
251,1727267553298,-1.0400391,0.23925781,-0.6767578,-5.875,-137.59375,-24.3125
252,1727267553329,-0.98535156,0.17285156,0.2607422,-368.90625,-92.4375,-105.4375
253,1727267553360,-0.7480469,-0.18554688,0.06933594,-71.1875,-44.4375,-58.4375
254,1727267553389,-0.61035156,0.076171875,-0.41308594,18.90625,-48.125,-60.9375
255,1727267553449,-0.37890625,0.052734375,-0.13574219,69.25,-1.65625,-31.8125
256,1727267553484,-0.25683594,0.052734375,-0.14160156,124.25,38.1875,11.15625
257,1727267553509,-0.2734375,0.21777344,-0.068359375,107.71875,52.96875,41.0
258,1727267553569,-0.66503906,0.0009765625,-0.052734375,124.125,102.59375,78.125
259,1727267553604,-2.0,-2.0,2.0,-100.59375,-120.875,-101.625
260,1727267553629,-0.82421875,-0.056640625,-0.34960938,125.03125,-35.90625,-74.96875
261,1727267553690,-0.3310547,0.32421875,0.33203125,-3.5,15.90625,-41.9375
262,1727267553719,-1.8701172,-0.30371094,-0.32421875,-74.125,151.28125,69.3125
263,1727267553751,-1.6318359,-0.9707031,0.12011719,19.9375,-64.09375,-28.28125
264,1727267553808,-0.47851562,0.7529297,-0.36621094,45.03125,49.0,-35.0625
265,1727267553843,-0.8769531,0.7011719,-0.25878906,-18.6875,35.8125,41.78125
266,1727267553876,-1.2265625,0.3388672,-0.32714844,-182.75,49.90625,52.53125
267,1727267553929,-1.1708984,-0.12109375,-0.25683594,-78.5,44.65625,69.6875
268,1727267553959,-0.89746094,-0.4560547,-0.29101562,46.625,77.1875,81.03125
269,1727267553988,-0.7392578,-0.46484375,-0.2734375,62.90625,80.625,78.71875
270,1727267554048,-0.8720703,-0.20996094,-0.18066406,-108.84375,85.1875,17.4375
271,1727267554082,-0.79785156,-0.12207031,-0.123046875,-138.75,63.53125,14.375
272,1727267554109,-0.8457031,0.0,0.27246094,-156.9375,0.84375,38.125
273,1727267554169,-0.8769531,-0.25585938,-0.13183594,34.21875,32.15625,55.03125
274,1727267554229,-1.1318359,-0.31347656,-0.080078125,-46.875,13.34375,37.59375
275,1727267554259,-1.0625,-0.44628906,-0.33496094,18.65625,4.1875,34.09375
276,1727267554290,-1.4472656,-0.2626953,-0.009765625,-27.90625,1.4375,8.15625
277,1727267554319,-1.6123047,-0.3955078,-0.0126953125,37.59375,-30.15625,-20.59375
278,1727267554349,-1.2783203,-0.42089844,0.19042969,-0.3125,-90.96875,-72.34375
279,1727267554409,-1.4550781,0.33496094,0.40722656,119.6875,-135.8125,-92.90625
280,1727267554469,-1.4365234,-0.06738281,-0.67578125,324.5625,-60.4375,-46.84375
281,1727267554499,-1.3154297,-0.0029296875,-0.5800781,129.0625,-111.46875,-20.34375
282,1727267554529,-0.9736328,0.23925781,-0.6923828,-548.90625,-536.34375,-182.3125
283,1727267554559,-0.97753906,-0.057617188,0.24414062,-188.125,-138.75,-42.0625
284,1727267554593,-0.71777344,-0.0546875,-0.37890625,-43.40625,-42.375,-72.78125
285,1727267554650,-0.4970703,-0.053710938,-0.18847656,29.28125,0.34375,-52.125
286,1727267554679,-0.3798828,-0.064453125,-0.21289062,141.9375,4.0,-9.84375
287,1727267554709,-0.19921875,0.0029296875,-0.0546875,100.8125,40.4375,18.34375
288,1727267554799,-0.29882812,0.2109375,-0.076171875,153.84375,49.0,61.875
289,1727267554833,-1.03125,-0.27148438,0.41308594,115.9375,116.6875,79.09375
290,1727267554859,-2.0,-1.6298828,0.7392578,75.4375,-43.03125,-79.78125
291,1727267554889,-0.78027344,0.17382812,0.12402344,67.6875,7.25,-79.90625
292,1727267554918,-1.8369141,0.42382812,0.06347656,-56.71875,25.4375,15.4375
293,1727267554954,-1.6484375,-2.0,-0.7626953,83.90625,-26.375,-35.46875
294,1727267555008,0.013671875,0.7988281,-0.07128906,-35.46875,-32.59375,-26.0625
295,1727267555039,-1.1806641,0.9921875,-0.1796875,65.34375,64.375,56.375
296,1727267555071,-1.1591797,0.29003906,-0.39648438,-123.1875,65.90625,57.96875
297,1727267555129,-1.0498047,-0.059570312,-0.23535156,-135.8125,65.53125,49.65625
298,1727267555159,-1.015625,-0.2607422,-0.18945312,51.125,67.6875,90.625
299,1727267555196,-1.0693359,-0.7861328,0.11816406,90.6875,123.59375,98.125
300,1727267555252,-0.828125,-0.27246094,-0.16308594,-36.21875,55.53125,40.6875
301,1727267555280,-0.8613281,-0.049804688,-0.14648438,-44.5,72.3125,38.5625
302,1727267555309,-0.82714844,-0.19433594,-0.18652344,-37.4375,41.0625,35.15625
303,1727267555370,-0.8642578,-0.125,-0.12011719,-44.15625,64.875,37.15625
304,1727267555399,-0.9736328,-0.17578125,-0.1171875,-33.46875,-2.53125,29.34375
305,1727267555431,-1.1416016,-0.4013672,-0.33496094,-13.375,24.65625,24.15625
306,1727267555489,-1.4833984,-0.4658203,-0.12792969,-83.5,-20.28125,-4.71875
307,1727267555521,-1.6582031,-0.6953125,-0.046875,-33.71875,-48.1875,-40.90625
308,1727267555554,-1.1767578,-0.47753906,0.43652344,6.09375,-100.71875,-94.5
309,1727267555608,-1.3535156,0.5107422,0.6826172,131.09375,-146.875,-111.71875
310,1727267555639,-1.421875,0.20605469,-0.62890625,287.875,-69.40625,-42.4375
311,1727267555672,-1.2548828,0.09765625,-0.70996094,101.1875,-125.0625,-24.96875
312,1727267555730,-0.9013672,0.17578125,-0.6777344,-235.96875,-21.6875,-64.21875
313,1727267555759,-1.1201172,-0.4970703,0.7207031,-256.5,-52.5,-80.75
314,1727267555788,-0.80566406,-0.030273438,-0.32910156,103.5,-54.28125,-63.125
315,1727267555849,-0.4765625,0.109375,-0.11621094,38.9375,-16.75,-45.78125
316,1727267555879,-0.3017578,0.17480469,-0.09082031,136.875,12.5,5.90625
317,1727267555908,-0.06347656,0.11816406,-0.10449219,72.375,37.9375,38.8125
318,1727267555968,-0.32421875,0.18554688,-0.10839844,43.9375,67.71875,59.96875
319,1727267556003,-1.5117188,-0.80566406,1.5830078,-10.75,44.96875,74.75
320,1727267556029,-1.7324219,-1.1582031,0.22265625,234.84375,-36.15625,-79.46875
321,1727267556089,-0.3564453,0.31640625,0.09277344,82.75,-9.46875,-57.4375
322,1727267556120,-1.2255859,0.10058594,-0.4814453,-88.09375,45.15625,12.375
323,1727267556149,-2.0,-1.8457031,0.71972656,-135.5625,-77.28125,-27.40625
324,1727267556209,-0.40820312,0.55859375,-0.5732422,89.46875,-10.4375,-3.5
325,1727267556239,-1.046875,0.6845703,-0.18164062,-48.34375,64.8125,24.03125
326,1727267556268,-1.0693359,0.20410156,-0.34472656,-125.9375,48.375,50.71875
327,1727267556329,-1.1337891,-0.09863281,-0.19335938,-68.0,80.78125,67.625
328,1727267556359,-1.0576172,-0.24121094,-0.15136719,43.0625,104.96875,85.5
329,1727267556388,-0.78808594,-0.5751953,0.034179688,-101.34375,27.03125,74.75
330,1727267556449,-0.78027344,-0.28222656,-0.22167969,-79.84375,50.03125,33.3125
331,1727267556479,-0.8935547,-0.13769531,-0.21777344,-55.6875,67.71875,33.5
332,1727267556509,-0.8466797,-0.18847656,-0.14550781,-70.15625,53.5,35.75
333,1727267556568,-0.99316406,0.052734375,0.3798828,-84.96875,19.9375,51.3125
334,1727267556599,-1.0058594,-0.28125,-0.060546875,11.59375,34.28125,55.28125
335,1727267556628,-1.0673828,-0.4453125,-0.33984375,-38.90625,-8.6875,22.875
336,1727267556689,-1.2197266,-0.17382812,0.033203125,-25.28125,7.625,13.15625
337,1727267556748,-1.4335938,-0.35351562,-0.015625,51.5,-24.0,2.84375
338,1727267556779,-1.5390625,-0.625,-0.078125,13.59375,-60.625,-52.4375
339,1727267556809,-1.3925781,-0.06640625,0.31933594,49.96875,-123.125,-97.375
340,1727267556838,-1.3916016,0.31152344,-0.29296875,284.90625,-78.03125,-84.96875
341,1727267556868,-1.3847656,0.07128906,-0.67578125,215.25,-101.09375,-23.28125
342,1727267556933,-1.0166016,0.14648438,-0.6279297,-14.65625,-105.3125,-29.0
343,1727267556959,-0.9921875,0.080078125,0.13867188,-376.71875,-120.125,-93.34375
344,1727267556989,-0.9267578,-0.09082031,0.047851562,-53.71875,-61.65625,-52.5
345,1727267557049,-0.6640625,0.18652344,-0.296875,13.0,-50.375,-54.34375
346,1727267557079,-0.47753906,-0.064453125,-0.16113281,2.4375,-3.5,-36.15625
347,1727267557109,-0.26367188,-0.022460938,-0.07519531,59.125,26.15625,2.375
348,1727267557174,-0.18457031,0.16113281,-0.018554688,89.875,58.28125,40.625
349,1727267557200,-0.46875,0.076171875,-0.08984375,70.84375,102.28125,74.15625
350,1727267557229,-2.0,-2.0,2.0,-197.84375,-49.625,-21.625
351,1727267557293,-1.0703125,-0.35839844,-0.2578125,162.21875,-38.21875,-82.03125
352,1727267557319,-0.16015625,0.546875,0.029296875,34.03125,-5.15625,-29.96875
353,1727267557348,-2.0,0.10449219,-0.19824219,-108.28125,130.65625,48.8125
354,1727267557409,-1.2460938,-1.0957031,-0.07519531,31.125,-86.0625,-27.53125
355,1727267557469,-0.21972656,0.6376953,-0.40234375,-20.71875,40.5625,-14.0625
356,1727267557499,-0.89746094,0.7548828,-0.10546875,-26.0625,89.03125,28.90625
357,1727267557529,-1.2646484,0.20996094,-0.26464844,-154.0625,43.75,61.4375
358,1727267557559,-1.1708984,-0.13964844,-0.24707031,-50.625,54.96875,79.5625
359,1727267557590,-0.9013672,-0.3642578,-0.22851562,67.5625,97.03125,93.25
360,1727267557649,-0.7685547,-0.51464844,-0.15527344,56.6875,69.125,83.53125
361,1727267557680,-0.9267578,-0.25683594,-0.15917969,-102.375,58.59375,16.09375
362,1727267557714,-0.8417969,-0.12988281,-0.16699219,-112.375,45.875,17.3125
363,1727267557769,-0.8046875,-0.12109375,-0.0546875,-62.09375,55.46875,32.46875
364,1727267557803,-0.8535156,-0.16308594,-0.06640625,-64.46875,16.03125,35.875
365,1727267557859,-1.0966797,-0.22167969,0.029296875,-32.125,30.5,39.71875
366,1727267557889,-1.0625,-0.43164062,-0.32714844,-7.71875,-12.96875,23.96875
367,1727267557918,-1.3876953,-0.24316406,0.0009765625,-21.5,17.625,4.25
368,1727267557949,-1.5205078,-0.49414062,0.048828125,-20.40625,-39.5625,-12.65625
369,1727267558009,-1.3896484,-0.7675781,0.171875,-50.375,-90.21875,-65.3125
370,1727267558039,-1.4384766,0.0009765625,0.5605469,120.78125,-148.6875,-108.15625
371,1727267558069,-1.5703125,0.06738281,-0.6230469,395.1875,-70.5625,-78.75
372,1727267558129,-1.5322266,0.10058594,-0.6279297,200.1875,-101.21875,-27.125
373,1727267558160,-1.0410156,0.3544922,-0.6484375,-66.3125,-113.25,-34.4375
374,1727267558189,-0.9355469,-0.024414062,0.52246094,-411.625,-108.59375,-87.90625
375,1727267558249,-0.7207031,-0.034179688,-0.13378906,-14.25,-49.40625,-52.375
376,1727267558280,-0.4423828,0.001953125,-0.2705078,64.8125,-27.25,-21.9375
377,1727267558309,-0.37304688,0.018554688,-0.234375,65.59375,-2.03125,-18.75
378,1727267558369,-0.24121094,0.14453125,-0.1875,-5.375,26.21875,-4.09375
379,1727267558404,-0.28222656,0.2421875,-0.12988281,94.46875,54.5625,52.84375
380,1727267558429,-1.0019531,-0.3779297,0.859375,63.46875,76.71875,65.78125
381,1727267558493,-2.0,-1.8183594,0.6123047,215.125,-60.375,-105.53125
382,1727267558527,-0.40625,0.33691406,-0.080078125,64.6875,-45.84375,-75.15625
383,1727267558550,-0.8378906,0.2998047,0.31152344,-59.9375,33.5625,-6.375
384,1727267558609,-2.0,-1.1962891,0.28027344,-65.875,65.15625,75.5
385,1727267558639,-0.7890625,-0.1953125,-0.6484375,86.15625,-38.09375,-19.90625
386,1727267558669,-0.6328125,0.92871094,0.3076172,-35.46875,59.625,-9.96875
387,1727267558734,-0.9785156,0.31835938,-0.3828125,-136.5,45.5625,36.1875
388,1727267558789,-1.3427734,0.024414062,-0.2861328,-129.03125,83.0625,52.0
389,1727267558824,-1.0830078,-0.22070312,-0.0859375,-2.34375,89.28125,69.0625
390,1727267558857,-0.8203125,-0.40625,-0.15820312,-73.6875,31.34375,63.09375
391,1727267558882,-0.8408203,-0.29589844,-0.19042969,61.8125,68.28125,59.0625
392,1727267558909,-0.9248047,-0.1171875,-0.17871094,-37.0,62.96875,32.9375
393,1727267558976,-0.7910156,-0.11425781,-0.111328125,-102.5625,44.0,27.28125
394,1727267559029,-0.82421875,-0.087890625,-0.056640625,-75.625,67.0,40.8125
395,1727267559060,-0.95214844,-0.14550781,0.06738281,-62.34375,11.65625,52.78125
396,1727267559092,-1.0419922,-0.41503906,-0.29589844,33.8125,-9.40625,54.84375
397,1727267559120,-1.1884766,-0.35839844,-0.2685547,25.0625,18.71875,31.0
398,1727267559149,-1.5273438,-0.265625,-0.09082031,-39.625,-11.90625,-6.59375
399,1727267559209,-1.4912109,-0.66308594,0.0625,-45.65625,-57.03125,-45.0625
400,1727267559243,-1.1914062,-0.21484375,0.6113281,38.6875,-157.90625,-90.71875
401,1727267559270,-1.46875,0.08984375,-0.31054688,282.5625,-78.125,-76.6875
402,1727267559328,-1.3662109,0.0068359375,-0.5751953,228.625,-72.9375,-17.96875
403,1727267559389,-1.0927734,0.1015625,-0.47265625,69.75,-87.1875,-23.75
404,1727267559419,-0.8828125,0.265625,-0.25390625,-310.5625,-125.4375,-77.09375
405,1727267559453,-0.8955078,-0.020507812,0.3203125,-131.5,-73.8125,-42.5625
406,1727267559479,-0.6894531,0.055664062,-0.34570312,-31.375,-39.8125,-48.1875
407,1727267559509,-0.4892578,-0.040039062,-0.13085938,5.21875,13.28125,-36.875
408,1727267559568,-0.42285156,0.046875,-0.10449219,93.1875,25.25,0.65625
409,1727267559603,-0.41601562,0.099609375,-0.09863281,76.28125,28.5625,32.03125
410,1727267559629,-0.5595703,0.10839844,-0.022460938,86.46875,47.96875,54.25
411,1727267559692,-1.765625,-1.5751953,2.0,-116.28125,-2.6875,1.21875
412,1727267559719,-1.4511719,-0.6875,0.045898438,91.0625,-8.3125,-52.625
413,1727267559749,-0.5996094,0.18457031,0.28320312,5.71875,-23.40625,-81.4375
414,1727267559809,-1.6464844,-0.3564453,0.3076172,-7.59375,41.96875,16.65625
415,1727267559841,-1.6347656,-1.0673828,-0.26367188,56.5625,-49.28125,-28.875
416,1727267559876,-0.34277344,0.7001953,-0.42285156,51.25,13.40625,-9.125
417,1727267559929,-1.3632812,0.90722656,-0.055664062,39.65625,85.0,34.03125
418,1727267559959,-1.0478516,0.20117188,-0.31152344,-142.03125,50.65625,54.375
419,1727267559996,-1.0166016,-0.10839844,-0.25976562,-115.125,67.5625,60.46875
420,1727267560053,-0.97753906,-0.25683594,-0.23632812,-5.25,70.34375,77.4375
421,1727267560083,-0.92871094,-0.59472656,-0.15917969,22.09375,97.21875,85.3125
422,1727267560108,-0.8623047,-0.3828125,-0.072265625,-68.4375,13.09375,44.40625
423,1727267560169,-0.921875,-0.08984375,-0.16894531,-70.5,52.0,23.65625
424,1727267560199,-0.8515625,-0.15234375,-0.18261719,-46.40625,45.6875,34.59375
425,1727267560229,-0.8925781,0.07714844,0.30566406,-26.25,54.71875,53.875
426,1727267560288,-0.94628906,-0.13378906,-0.123046875,20.8125,27.375,55.34375
427,1727267560324,-1.0888672,-0.41015625,-0.34179688,-36.28125,-2.46875,32.625
428,1727267560351,-1.0058594,-0.45898438,-0.29296875,14.15625,8.84375,25.3125
429,1727267560408,-1.3300781,-0.18457031,0.12207031,-35.96875,-9.125,-7.46875
430,1727267560439,-1.5664062,-0.49316406,0.032226562,38.4375,-43.15625,-18.6875
431,1727267560474,-1.3652344,-0.46972656,0.17382812,-9.0625,-94.3125,-71.3125
432,1727267560529,-1.5537109,0.31640625,0.32128906,141.9375,-123.84375,-101.53125
433,1727267560561,-1.4951172,0.10449219,-0.5673828,356.5,-56.53125,-49.46875
434,1727267560594,-1.2060547,0.103515625,-0.6875,89.03125,-117.375,-13.3125
435,1727267560648,-0.8779297,0.25878906,-0.44921875,-118.1875,-73.875,-39.5
436,1727267560680,-0.9238281,0.107421875,0.60546875,-360.96875,-102.125,-73.4375
437,1727267560709,-0.7480469,0.060546875,-0.234375,18.34375,-46.78125,-44.9375
438,1727267560768,-0.5419922,-0.076171875,-0.26171875,2.3125,-5.3125,-35.96875
439,1727267560833,-0.44921875,-0.13867188,-0.15722656,54.84375,8.46875,-19.96875
440,1727267560858,-0.32421875,0.0126953125,-0.083984375,44.125,15.0,2.3125
441,1727267560891,-0.3388672,0.17480469,-0.22460938,57.25,58.875,35.4375
442,1727267560918,-1.1630859,-0.65625,1.2275391,47.96875,56.4375,54.5625
443,1727267560953,-2.0,-1.1494141,0.59375,97.09375,-40.96875,-72.59375
444,1727267561008,-0.31347656,0.021484375,0.3125,48.09375,-40.1875,-67.53125
445,1727267561039,-0.40820312,-0.22851562,-0.48828125,25.5,44.34375,18.53125
446,1727267561070,-2.0,0.1328125,-0.7861328,3.40625,43.0,41.25
447,1727267561129,-0.9013672,-0.14160156,-0.73828125,-63.25,-78.125,-20.21875
448,1727267561159,-0.22949219,0.6933594,-0.26171875,-112.8125,49.3125,-24.125
449,1727267561189,-0.7089844,0.49804688,-0.11621094,-146.25,52.34375,33.5625
450,1727267561312,-1.4101562,0.17382812,-0.43652344,-110.5,24.28125,78.59375
451,1727267561343,-1.1474609,-0.18261719,-0.24121094,51.625,62.5,78.40625
452,1727267561369,-0.8183594,-0.33496094,-0.20703125,119.6875,85.8125,99.53125
453,1727267561429,-0.9589844,-0.5517578,-0.22363281,54.1875,90.1875,79.28125
454,1727267561459,-0.85839844,-0.19042969,0.0,-152.34375,53.75,12.875
455,1727267561491,-0.77734375,-0.08984375,-0.033203125,-116.90625,43.875,14.09375
456,1727267561552,-0.8339844,-0.05859375,0.0029296875,-58.90625,28.1875,30.0
457,1727267561581,-0.98535156,-0.12011719,0.083984375,-14.84375,25.6875,36.78125
458,1727267561669,-1.1113281,-0.5527344,-0.37597656,-7.9375,5.59375,15.625
459,1727267561699,-1.4091797,-0.15136719,0.10839844,-34.4375,4.3125,-1.3125
460,1727267561729,-1.5292969,-0.3154297,0.033203125,28.96875,-27.65625,-5.25
461,1727267561759,-1.2646484,-0.57910156,0.051757812,-41.65625,-104.25,-61.96875
462,1727267561790,-1.3574219,-0.115234375,0.359375,65.71875,-141.375,-104.9375
463,1727267561819,-1.421875,0.16015625,-0.4248047,320.65625,-77.78125,-73.0625
464,1727267561849,-1.5166016,0.041992188,-0.6171875,187.90625,-101.34375,-28.875
465,1727267561913,-0.9892578,0.1875,-0.53027344,6.40625,-100.125,-25.90625
466,1727267561943,-0.9873047,-0.13085938,0.19238281,-368.0,-85.40625,-93.875
467,1727267561970,-0.9824219,-0.009765625,0.16894531,41.5,-63.5,-52.75
468,1727267561999,-0.5625,0.23144531,-0.25390625,123.8125,-23.09375,-24.96875
469,1727267562033,-0.39453125,0.11328125,-0.31445312,8.21875,-19.0,-22.65625
470,1727267562062,-0.27734375,0.0126953125,-0.044921875,-35.15625,22.1875,-2.09375
471,1727267562088,-0.32226562,0.1953125,-0.060546875,31.84375,46.5,46.3125
472,1727267562119,-0.5751953,-0.37109375,0.15722656,48.625,86.78125,80.84375
473,1727267562182,-2.0,-2.0,2.0,-37.78125,-46.65625,-42.75
474,1727267562209,-0.9863281,-0.20214844,-0.26367188,173.5,-42.5625,-62.28125
475,1727267562242,-0.6748047,0.6826172,0.22265625,-7.40625,-17.34375,-41.59375
476,1727267562305,-1.6914062,0.05859375,0.6904297,-160.53125,99.78125,27.4375
477,1727267562328,-1.2695312,-0.9296875,-0.328125,20.6875,-10.8125,-13.125
478,1727267562359,-0.55078125,0.7451172,0.07324219,-54.40625,49.65625,-26.3125
479,1727267562423,-0.84375,0.4658203,-0.28222656,-60.9375,26.53125,49.25
480,1727267562449,-1.2597656,0.10058594,-0.30273438,-109.09375,57.90625,66.40625
481,1727267562479,-1.1044922,-0.20214844,-0.22851562,-6.375,58.34375,78.96875
482,1727267562544,-0.9716797,-0.48242188,-0.21191406,50.59375,94.71875,85.25
483,1727267562569,-0.76464844,-0.4814453,-0.033203125,-100.125,29.40625,44.96875
484,1727267562601,-0.9296875,-0.09472656,-0.16503906,-72.84375,63.28125,21.21875
485,1727267562664,-0.8330078,-0.16503906,-0.15820312,-56.03125,45.15625,28.3125
486,1727267562689,-0.7607422,-0.034179688,0.038085938,-47.125,35.25,38.625
487,1727267562719,-0.87597656,-0.064453125,-0.026367188,24.34375,59.875,51.0625
488,1727267562783,-1.1298828,-0.18945312,0.037109375,-41.59375,15.125,36.53125
489,1727267562809,-1.0693359,-0.515625,-0.4091797,-14.53125,-13.6875,19.6875
490,1727267562868,-1.4033203,-0.20703125,-0.009765625,-23.21875,17.0,-5.25
491,1727267562903,-1.5058594,-0.5419922,0.045898438,45.9375,-32.3125,-12.15625
492,1727267562934,-1.3203125,-0.60253906,0.08105469,-7.28125,-101.5625,-64.90625
493,1727267562958,-1.4316406,0.119140625,0.4658203,118.15625,-162.25,-103.21875
494,1727267563019,-1.5527344,0.13085938,-0.6152344,370.65625,-55.9375,-59.53125
495,1727267563050,-1.5292969,0.12109375,-0.70214844,163.5,-132.40625,-17.46875
496,1727267563079,-1.0166016,0.18945312,-0.48339844,-171.46875,-78.6875,-42.125
497,1727267563143,-0.9169922,-0.10546875,0.60253906,-282.25,-90.46875,-58.59375
498,1727267563173,-0.7714844,-0.026367188,-0.20703125,59.0,-63.0,-47.0625
499,1727267563200,-0.4345703,0.10058594,-0.25390625,40.28125,-38.90625,-42.1875
500,1727267563264,-0.38671875,0.1171875,-0.19921875,3.03125,-9.90625,-28.8125
501,1727267563297,-0.14453125,0.13085938,-0.06542969,20.5,25.5,2.71875
502,1727267563349,-0.24023438,0.23144531,-0.064453125,54.3125,59.3125,51.75
503,1727267563379,-0.875,-0.3173828,0.33496094,45.625,98.3125,74.4375
504,1727267563409,-2.0,-2.0,1.5478516,95.375,-71.625,-86.875
505,1727267563440,-0.69628906,0.06933594,-0.12597656,62.0625,-13.0625,-85.59375
506,1727267563529,-1.2421875,0.6640625,0.5234375,-27.25,41.96875,0.90625
507,1727267563589,-1.8056641,-2.0,0.24316406,-28.40625,52.59375,37.21875
508,1727267563618,-0.5419922,0.32128906,-0.58203125,41.375,-24.25,-10.5
509,1727267563649,-0.9091797,1.0986328,0.6035156,-72.40625,116.75,-15.53125
510,1727267563682,-0.9501953,0.2265625,-0.3076172,-99.875,37.21875,56.1875
511,1727267563709,-1.1113281,-0.005859375,-0.2548828,-157.4375,64.0,54.375
512,1727267563739,-1.0400391,-0.19824219,-0.2265625,-54.75,51.875,64.5625
513,1727267563769,-0.8798828,-0.5498047,-0.27929688,5.21875,78.0,72.25
514,1727267563799,-0.7832031,-0.37695312,-0.19238281,58.34375,79.03125,70.65625
515,1727267563861,-0.86816406,-0.17285156,-0.15332031,-77.71875,65.96875,25.375
516,1727267563889,-0.84472656,-0.12890625,-0.1171875,-65.9375,54.90625,23.71875
517,1727267563920,-0.87597656,-0.13378906,-0.032226562,7.625,21.21875,41.3125
518,1727267563979,-0.9765625,-0.15136719,-0.17480469,33.5,66.21875,48.6875
519,1727267564014,-1.1894531,-0.04296875,0.055664062,-43.34375,4.625,32.625
520,1727267564046,-1.1132812,-0.4404297,-0.38476562,-2.03125,-12.71875,32.34375
521,1727267564099,-1.34375,-0.36816406,0.083984375,-9.0,-1.96875,7.5
522,1727267564128,-1.4101562,-0.43945312,0.1328125,28.78125,-49.46875,-7.78125
523,1727267564158,-1.2294922,-0.57910156,-0.12109375,22.1875,-92.1875,-62.46875
524,1727267564227,-1.5292969,0.0,0.25097656,57.90625,-131.96875,-111.78125
525,1727267564252,-1.6904297,0.20019531,-0.56152344,388.96875,-51.03125,-70.9375
526,1727267564279,-1.3505859,0.22070312,-0.6621094,119.75,-134.78125,-14.53125
527,1727267564339,-0.9316406,0.31152344,-0.17871094,-135.34375,-89.5,-56.28125
528,1727267564369,-1.0097656,0.036132812,0.42089844,-262.03125,-102.4375,-76.8125
529,1727267564399,-0.7207031,0.041015625,-0.28320312,52.65625,-64.53125,-51.59375
530,1727267564458,-0.45117188,0.0703125,-0.2685547,0.03125,-25.96875,-39.8125
531,1727267564489,-0.36035156,0.037109375,-0.1640625,-6.90625,-2.6875,-18.375
532,1727267564523,-0.22753906,0.14355469,-0.083984375,40.28125,38.0625,25.0625
533,1727267564580,-0.35546875,0.12988281,-0.16308594,60.53125,73.21875,66.34375
534,1727267564614,-1.375,-0.8378906,1.2148438,-55.375,81.90625,47.21875
535,1727267564639,-2.0,-1.5908203,0.18164062,217.625,-18.625,-90.84375
536,1727267564698,-0.57714844,0.4140625,-0.0068359375,30.6875,-39.5625,-75.21875
537,1727267564729,-1.0361328,0.6015625,0.3466797,-78.5625,50.9375,6.09375
538,1727267564759,-2.0,-1.8193359,-0.43359375,-9.65625,-18.8125,67.6875
539,1727267564819,-0.78222656,0.051757812,-0.5263672,14.3125,-26.4375,-26.875
540,1727267564849,-0.60058594,0.8261719,-0.061523438,-65.8125,91.84375,-30.65625
541,1727267564883,-0.8798828,0.48828125,-0.24804688,-75.53125,36.59375,52.59375
542,1727267564939,-1.2753906,0.06347656,-0.29492188,-168.34375,50.21875,53.75
543,1727267564975,-1.1044922,-0.21484375,-0.23535156,-55.25,45.46875,64.6875
544,1727267565004,-0.875,-0.51171875,-0.27734375,65.71875,64.5,89.40625
545,1727267565058,-0.7314453,-0.48535156,-0.23828125,39.28125,75.4375,77.4375
546,1727267565089,-0.9238281,-0.328125,-0.15039062,-124.40625,62.25,21.65625
547,1727267565119,-0.9501953,-0.036132812,0.2939453,-129.65625,38.3125,25.5625
548,1727267565187,-0.8095703,-0.068359375,0.00390625,3.21875,28.125,41.25
549,1727267565210,-1.0117188,-0.20605469,-0.13085938,27.5625,61.625,39.90625
550,1727267565242,-1.1611328,-0.1796875,-0.061523438,-52.1875,3.65625,20.6875
551,1727267565299,-1.2197266,-0.32226562,-0.24707031,2.4375,-0.4375,26.09375
552,1727267565329,-1.4541016,-0.42578125,-0.061523438,-19.84375,-28.21875,-6.25
553,1727267565389,-1.4785156,-0.57714844,0.095703125,-36.5,-50.3125,-56.21875
554,1727267565419,-1.1826172,-0.12597656,0.3857422,69.5625,-120.5625,-90.21875
555,1727267565450,-1.4042969,0.3359375,-0.17773438,312.96875,-82.84375,-65.3125
556,1727267565484,-1.3447266,0.12792969,-0.6191406,233.3125,-95.53125,-18.03125
557,1727267565540,-1.1669922,0.38085938,-0.9423828,-39.375,-166.9375,-21.75
558,1727267565569,-1.3369141,-0.109375,0.99609375,-437.5625,-9.90625,-97.84375
559,1727267565605,-0.828125,-0.08300781,-0.087890625,13.09375,-65.8125,-59.59375
560,1727267565659,-0.6503906,-0.12597656,-0.16503906,60.15625,-33.78125,-51.15625
561,1727267565689,-0.45214844,0.05859375,-0.19824219,61.75,-3.0625,-35.53125
562,1727267565719,-0.2890625,0.16015625,-0.12207031,51.875,8.21875,-4.71875
563,1727267565778,-0.3017578,0.19726562,-0.045898438,51.125,58.09375,31.53125
564,1727267565808,-0.53027344,0.10839844,-0.0390625,69.5,89.9375,76.78125
565,1727267565869,-2.0,-1.890625,2.0,-136.5,41.65625,22.5
566,1727267565902,-1.2753906,-0.59375,0.091796875,186.625,-16.5625,-50.5625
567,1727267565929,-0.8173828,0.6699219,-0.0068359375,-19.53125,-10.5625,-47.0625
568,1727267565963,-1.7626953,-0.95703125,0.16113281,-67.71875,47.65625,32.5625
569,1727267566019,-0.6777344,-0.2109375,-0.234375,-9.59375,-24.375,-55.875
570,1727267566050,-0.8408203,0.8144531,0.24902344,-9.71875,49.78125,-16.625
571,1727267566079,-0.91796875,0.2685547,-0.38476562,-8.75,25.25,49.59375
572,1727267566139,-1.1806641,0.12207031,-0.32226562,-129.34375,57.34375,42.71875
573,1727267566169,-1.0898438,-0.10449219,-0.20410156,-65.1875,67.5625,49.65625
574,1727267566205,-0.9824219,-0.31347656,-0.16992188,9.8125,78.59375,70.0
575,1727267566260,-0.8720703,-0.5341797,-0.115234375,-116.96875,19.09375,39.53125
576,1727267566289,-0.94140625,-0.17285156,-0.10644531,-31.09375,51.6875,27.21875
577,1727267566319,-0.8203125,-0.15136719,-0.19921875,-27.0625,33.75,26.90625
578,1727267566379,-0.8310547,-0.12890625,-0.16015625,-28.40625,47.65625,31.0
579,1727267566409,-0.93847656,-0.07324219,-0.119140625,-32.3125,57.78125,30.9375
580,1727267566439,-1.0458984,0.07324219,0.12597656,-56.28125,33.625,32.21875
581,1727267566500,-1.0029297,-0.25585938,-0.19335938,4.0625,-20.9375,42.03125
582,1727267566619,-1.0498047,-0.33984375,-0.24609375,-20.84375,-0.875,38.5625
583,1727267566649,-1.1806641,-0.4248047,-0.01171875,-89.4375,-23.28125,15.3125
584,1727267566679,-1.4423828,-0.70996094,0.107421875,-52.875,-46.28125,-22.71875
585,1727267566710,-1.2363281,-0.5253906,0.24414062,61.8125,-92.25,-71.65625
586,1727267566769,-1.4716797,0.36035156,0.21875,233.1875,-110.0625,-97.0625
587,1727267566805,-1.4814453,0.20898438,-0.5205078,289.21875,-63.1875,-43.34375
588,1727267566833,-1.1582031,0.18066406,-0.546875,43.3125,-115.875,-16.875
589,1727267566859,-0.84375,-0.013671875,-0.14257812,-130.5,-79.78125,-52.25
590,1727267566889,-1.0556641,-0.17285156,0.2841797,-209.65625,-66.78125,-70.3125
591,1727267566919,-0.9033203,-0.12792969,-0.07324219,74.21875,-36.46875,-38.53125
592,1727267566953,-0.5996094,-0.041015625,-0.21972656,82.9375,8.15625,-37.96875
593,1727267566981,-0.45117188,0.09863281,-0.27246094,54.71875,16.09375,-26.75
594,1727267567009,-0.39453125,0.23632812,0.0078125,7.5,40.8125,-3.90625
595,1727267567039,-0.47851562,0.27441406,0.037109375,46.4375,62.59375,42.59375
596,1727267567099,-1.0224609,-0.40234375,0.95214844,47.90625,46.375,60.59375
597,1727267567130,-2.0,-1.3076172,1.0810547,31.40625,-1.84375,-34.8125
598,1727267567160,-0.76464844,-0.25,-0.095703125,28.78125,-30.09375,-58.375
599,1727267567219,-1.0664062,-0.27734375,-0.26660156,28.5625,4.25,-4.84375
600,1727267567254,-1.6757812,-0.20703125,0.23242188,-54.8125,54.625,-2.75
601,1727267567279,-0.79296875,0.052734375,-0.78027344,140.65625,-44.5625,5.46875
602,1727267567339,-0.76660156,0.5800781,-0.30078125,-71.625,57.1875,-18.9375
603,1727267567369,-1.0341797,0.4501953,-0.23144531,-57.3125,15.4375,58.28125
604,1727267567399,-1.2207031,0.001953125,-0.31933594,-84.4375,47.96875,61.09375
605,1727267567459,-1.1416016,-0.24316406,-0.24804688,-1.125,78.34375,63.46875
606,1727267567489,-0.9248047,-0.83203125,-0.01171875,-54.15625,71.625,60.90625
607,1727267567521,-0.88183594,-0.25097656,-0.10449219,-87.65625,44.59375,13.28125
608,1727267567583,-1.015625,0.0625,-0.10449219,-31.625,45.53125,20.0
609,1727267567609,-0.875,-0.12207031,-0.14550781,-38.53125,32.46875,27.9375
610,1727267567639,-0.7988281,-0.15332031,-0.13378906,-31.5,36.3125,33.0625
611,1727267567699,-0.89453125,-0.09082031,-0.13964844,-25.65625,56.5,39.71875
612,1727267567729,-1.0400391,0.0107421875,0.26757812,-24.5,32.21875,48.25
613,1727267567759,-1.0048828,-0.37402344,-0.296875,33.5625,-0.8125,43.9375
614,1727267567819,-1.1835938,-0.2734375,-0.10546875,-15.875,13.65625,22.875
615,1727267567849,-1.3662109,-0.29589844,0.041015625,-46.40625,-34.125,6.15625
616,1727267567880,-1.4130859,-0.7285156,0.07421875,-41.8125,-64.46875,-30.59375
617,1727267567943,-1.0927734,-0.4638672,0.21972656,39.59375,-106.8125,-86.375
618,1727267567969,-1.5449219,0.3984375,0.08886719,214.65625,-99.4375,-98.59375
619,1727267568000,-1.5537109,0.115234375,-0.6201172,260.125,-76.8125,-40.78125
620,1727267568059,-1.1132812,0.09375,-0.5439453,90.9375,-91.9375,-2.09375
621,1727267568091,-1.0039062,-0.20605469,-0.087890625,-230.46875,-116.15625,-76.4375
622,1727267568153,-1.1455078,0.015625,0.5097656,-121.84375,-86.0,-65.4375
623,1727267568179,-0.7373047,0.24316406,-0.15136719,77.0,-49.09375,-65.03125
624,1727267568209,-0.6347656,0.045898438,-0.3828125,-12.78125,-27.96875,-52.875
625,1727267568239,-0.4560547,-0.14453125,-0.044921875,-13.03125,-2.53125,-35.34375
626,1727267568304,-0.38964844,0.060546875,0.109375,42.96875,29.71875,-0.1875
627,1727267568329,-0.5625,-0.029296875,0.14453125,58.8125,44.25,29.34375
628,1727267568359,-1.0253906,-0.53515625,0.8574219,53.9375,38.125,32.15625
629,1727267568423,-1.40625,-0.92578125,0.55859375,52.53125,0.90625,-4.09375
630,1727267568450,-1.0214844,-0.26171875,0.328125,-3.3125,12.1875,-36.15625
631,1727267568510,-1.0625,-0.35742188,0.53515625,29.21875,8.59375,-18.09375
632,1727267568544,-1.4873047,-0.23632812,-0.21582031,-47.5625,43.625,14.8125
633,1727267568569,-1.2822266,-0.69921875,0.5859375,-11.4375,-49.40625,-14.34375
634,1727267568600,-0.71484375,0.7480469,-0.22070312,-62.6875,52.78125,0.65625
635,1727267568660,-1.0664062,0.34765625,-0.29785156,-10.6875,39.21875,70.0
636,1727267568689,-1.0693359,-0.041015625,-0.36621094,-56.21875,41.3125,66.5
637,1727267568724,-1.0664062,-0.23242188,-0.34570312,10.375,66.5,61.25
638,1727267568783,-1.0214844,-0.64453125,0.0029296875,-274.96875,63.21875,36.4375
639,1727267568809,-0.9980469,-0.25097656,0.15429688,-103.28125,48.25,41.90625
640,1727267568839,-0.9902344,-0.18261719,-0.09863281,63.34375,31.71875,45.5625
641,1727267568899,-0.87402344,-0.22265625,-0.22265625,30.0,34.59375,27.03125
642,1727267568929,-0.9277344,-0.27539062,-0.21484375,-37.75,29.84375,8.71875
643,1727267568964,-0.8798828,-0.1484375,-0.14648438,-27.125,61.3125,9.9375
644,1727267569019,-0.9042969,0.0009765625,-0.12109375,-7.46875,73.65625,18.96875
645,1727267569049,-0.9267578,0.13867188,0.09472656,-9.125,52.15625,35.625
646,1727267569079,-1.0009766,-0.21386719,-0.3359375,36.71875,12.9375,38.1875
647,1727267569139,-1.2001953,-0.171875,0.047851562,-78.75,17.125,5.21875
648,1727267569174,-1.2304688,-0.13964844,0.0625,-35.71875,-15.875,11.71875
649,1727267569199,-1.3652344,-0.3935547,-0.12792969,-7.21875,-25.78125,11.40625
650,1727267569289,-1.4169922,-0.71191406,0.0087890625,-75.625,-63.96875,-23.625
651,1727267569323,-1.1513672,-0.3486328,0.171875,50.59375,-98.46875,-68.4375
652,1727267569356,-1.3769531,0.3955078,0.021484375,196.59375,-105.90625,-69.96875
653,1727267569379,-1.2949219,0.051757812,-0.6464844,245.84375,-74.46875,-25.96875
654,1727267569409,-1.0439453,0.005859375,-0.44628906,63.46875,-86.3125,-20.9375
655,1727267569440,-0.97265625,-0.09375,-0.057617188,-198.4375,-102.625,-68.1875
656,1727267569500,-1.0703125,0.13964844,0.3017578,-97.65625,-82.28125,-61.96875
657,1727267569529,-0.8251953,0.047851562,-0.12207031,43.25,-44.3125,-54.21875
658,1727267569560,-0.6767578,-0.13476562,-0.32617188,-6.53125,-25.28125,-45.96875
659,1727267569624,-0.5498047,-0.091796875,0.0126953125,-10.40625,-5.875,-34.1875
660,1727267569649,-0.4267578,0.14160156,0.11230469,39.53125,22.5625,2.90625
661,1727267569680,-0.5439453,0.049804688,0.11230469,31.0,46.1875,38.4375
662,1727267569743,-0.7480469,-0.32617188,0.45214844,49.65625,55.28125,47.71875
663,1727267569769,-1.6826172,-1.3007812,0.9238281,22.09375,11.9375,10.90625
664,1727267569799,-1.1884766,-0.7373047,0.40820312,4.6875,-35.96875,-58.125
665,1727267569859,-0.58691406,-0.18945312,0.23339844,110.65625,-14.3125,-33.65625
666,1727267569893,-0.75683594,-0.08203125,-0.19140625,28.78125,70.125,-5.03125
667,1727267569921,-2.0,0.22460938,0.5859375,2.84375,98.5625,13.28125
668,1727267569979,-1.1796875,-0.37109375,-0.73339844,24.34375,-24.3125,-40.0
669,1727267570039,-0.29785156,1.3916016,0.64453125,-25.15625,34.03125,-30.90625
670,1727267570071,-0.921875,0.4609375,-0.4111328,-61.0,16.59375,61.375
671,1727267570099,-1.4296875,0.01171875,-0.43066406,-93.65625,48.9375,61.9375
672,1727267570129,-1.0566406,-0.16308594,-0.28320312,-57.21875,49.59375,56.9375
673,1727267570159,-0.85839844,-0.46777344,-0.2626953,-1.71875,75.1875,74.6875
674,1727267570220,-0.9609375,-0.56347656,0.13671875,-17.96875,134.25,62.25
675,1727267570249,-0.95410156,-0.25390625,-0.10839844,-136.1875,3.65625,-2.59375
676,1727267570281,-0.8847656,-0.13378906,-0.20898438,-33.40625,31.0,16.84375
677,1727267570339,-0.9433594,-0.26757812,-0.20410156,-33.21875,43.75,25.5
678,1727267570369,-0.9628906,-0.20898438,-0.13867188,-1.78125,59.5625,31.46875
679,1727267570429,-0.9921875,-0.018554688,0.10546875,-20.03125,43.375,30.375
680,1727267570461,-0.9345703,-0.19238281,-0.12597656,-4.96875,8.84375,27.34375
681,1727267570489,-1.0820312,-0.20996094,-0.24804688,-12.78125,16.21875,14.8125
682,1727267570521,-1.1757812,-0.14550781,-0.049804688,-46.53125,-7.8125,6.46875
683,1727267570579,-1.3671875,-0.24414062,-0.024414062,-31.25,-25.84375,7.5
684,1727267570609,-1.3193359,-0.6826172,0.001953125,-11.5,-50.78125,-5.5625
685,1727267570639,-1.1464844,-0.578125,0.08886719,24.03125,-107.3125,-60.25
686,1727267570699,-1.5058594,0.16503906,0.35742188,157.28125,-128.0,-93.46875
687,1727267570734,-1.5517578,0.14648438,-0.53125,318.28125,-62.5625,-57.21875
688,1727267570759,-1.265625,0.103515625,-0.6660156,128.09375,-115.6875,-13.75
689,1727267570819,-0.98339844,0.13476562,-0.37597656,-115.875,-86.3125,-49.34375
690,1727267570854,-1.0224609,-0.064453125,0.50878906,-264.71875,-101.53125,-63.0
691,1727267570879,-0.90722656,-0.0107421875,-0.10546875,48.5,-64.78125,-53.3125
692,1727267570939,-0.59277344,0.046875,-0.25585938,44.34375,-39.5625,-51.78125
693,1727267570969,-0.50390625,-0.07714844,-0.0126953125,1.28125,-10.5625,-41.15625
694,1727267571004,-0.32910156,-0.060546875,-0.041015625,17.5625,14.28125,-4.21875
695,1727267571058,-0.50390625,0.109375,0.05859375,35.1875,41.71875,20.3125
696,1727267571094,-0.7080078,-0.27441406,0.46679688,41.375,59.4375,41.96875
697,1727267571123,-1.3623047,-0.8779297,0.98828125,47.59375,20.0,18.40625
698,1727267571187,-1.3876953,-0.828125,0.47070312,-29.25,28.4375,-33.09375
699,1727267571209,-0.84277344,-0.4169922,0.36132812,80.625,-9.96875,-27.0625
700,1727267571243,-0.7480469,-0.390625,-0.0859375,37.34375,54.90625,3.34375
701,1727267571299,-2.0,-0.23828125,0.6220703,-15.34375,98.375,17.625
702,1727267571329,-0.98339844,0.09765625,-0.87597656,72.6875,-33.65625,-15.8125
703,1727267571360,-0.5546875,1.1191406,0.4482422,41.375,36.59375,6.6875
704,1727267571419,-0.98339844,0.36035156,-0.35058594,-37.96875,24.15625,64.0625
705,1727267571449,-1.2714844,0.068359375,-0.38867188,-136.78125,52.78125,48.4375
706,1727267571479,-0.9970703,-0.15527344,-0.20800781,-82.34375,63.28125,54.96875
707,1727267571539,-0.86328125,-0.22753906,-0.2607422,80.0625,78.40625,84.6875
708,1727267571569,-0.95996094,-0.4892578,-0.26660156,-27.84375,73.59375,51.6875
709,1727267571603,-0.9560547,-0.34277344,-0.20214844,-130.5,64.375,15.84375
710,1727267571658,-0.9082031,-0.2763672,-0.13183594,-137.59375,46.0,7.8125
711,1727267571689,-0.93652344,-0.01953125,0.33007812,-150.09375,14.9375,24.40625
712,1727267571719,-0.8935547,-0.19921875,-0.15527344,53.6875,38.0,44.53125
713,1727267571779,-0.9970703,-0.13476562,-0.087890625,16.84375,45.75,39.96875
714,1727267571809,-1.1621094,-0.17675781,-0.12597656,-18.03125,10.125,28.71875
715,1727267571869,-1.2451172,-0.25390625,-0.15332031,-33.59375,-12.65625,12.375
716,1727267571933,-1.3388672,-0.24316406,0.041992188,-44.875,-25.40625,-3.375
717,1727267571989,-1.3007812,-0.71972656,0.072265625,-57.4375,-71.625,-31.03125
718,1727267572019,-1.1796875,-0.5107422,0.27246094,36.0625,-111.59375,-87.125
719,1727267572050,-1.4453125,0.2548828,-0.14257812,204.875,-102.90625,-103.34375
720,1727267572083,-1.5126953,0.095703125,-0.6113281,351.1875,-48.59375,-35.34375
721,1727267572109,-1.2275391,0.005859375,-0.69628906,105.875,-95.71875,-19.78125
722,1727267572139,-0.95214844,-0.12597656,-0.18164062,-255.75,-121.84375,-81.9375
723,1727267572199,-0.9169922,-0.0107421875,0.47460938,-215.90625,-79.78125,-54.8125
724,1727267572229,-0.78027344,0.18359375,0.0068359375,113.9375,-26.0625,-48.96875
725,1727267572260,-0.5283203,0.13964844,-0.33789062,91.65625,-4.46875,-22.71875
726,1727267572291,-0.4326172,-0.053710938,-0.107421875,-20.59375,-1.96875,-21.9375
727,1727267572349,-0.45214844,0.15136719,0.07421875,7.25,25.4375,17.75
728,1727267572381,-0.5058594,0.00390625,0.018554688,58.625,38.8125,55.96875
729,1727267572408,-1.2558594,-0.7597656,0.9423828,10.375,40.375,38.3125
730,1727267572444,-2.0,-0.95214844,0.7050781,40.375,3.71875,-41.40625
731,1727267572502,-0.51171875,-0.08886719,0.12207031,24.09375,-25.21875,-68.1875
732,1727267572529,-1.0820312,-0.23632812,-0.043945312,1.5,36.3125,-4.71875
733,1727267572563,-1.5810547,-0.2939453,-0.07421875,-36.15625,89.71875,17.3125
734,1727267572620,-1.3339844,-0.3203125,0.21191406,-11.90625,-39.625,-6.375
735,1727267572649,-0.53222656,0.58496094,-0.29101562,-88.34375,58.34375,-15.15625
736,1727267572709,-0.8076172,0.26367188,-0.27148438,1.625,16.90625,65.53125
737,1727267572739,-1.2900391,-0.12402344,-0.42285156,-27.46875,57.84375,55.65625
738,1727267572769,-1.0322266,-0.34960938,-0.2763672,-3.375,81.15625,61.1875
739,1727267572829,-0.87597656,-0.5957031,-0.017578125,-217.90625,21.71875,32.46875
740,1727267572859,-0.94433594,-0.09765625,0.01953125,-12.46875,60.59375,37.28125
741,1727267572889,-0.9589844,-0.048828125,-0.15234375,52.71875,48.75,39.28125
742,1727267572919,-0.92871094,-0.21484375,-0.18066406,-1.40625,29.46875,28.375
743,1727267572979,-0.79003906,-0.23730469,-0.16503906,-8.4375,32.21875,24.21875
744,1727267573009,-0.7949219,-0.1328125,-0.16113281,-2.21875,64.5625,28.96875
745,1727267573040,-0.9794922,0.0146484375,-0.15234375,-5.9375,78.59375,34.15625
746,1727267573099,-1.1386719,-0.029296875,0.047851562,-66.0625,-18.75,24.71875
747,1727267573129,-1.0205078,-0.3125,-0.40820312,-17.28125,11.21875,20.8125
748,1727267573160,-1.2529297,-0.06347656,0.08886719,-59.03125,7.1875,4.3125
749,1727267573248,-1.5429688,-0.4560547,-0.10449219,-29.125,-19.84375,9.5
750,1727267573279,-1.4697266,-0.6533203,0.015625,-62.28125,-87.90625,-28.15625
751,1727267573309,-1.1308594,-0.25,0.14453125,107.34375,-121.65625,-71.5
752,1727267573342,-1.3056641,0.16699219,-0.31445312,311.3125,-71.4375,-65.125
753,1727267573376,-1.2890625,0.14453125,-0.57910156,232.21875,-88.03125,-28.59375
754,1727267573404,-0.8027344,0.068359375,-0.9169922,-175.3125,-241.84375,-27.0625
755,1727267573459,-1.1289062,-0.11230469,1.0292969,-504.78125,-61.34375,-97.0625
756,1727267573491,-0.9736328,0.03515625,-0.25976562,38.3125,-90.90625,-62.8125
757,1727267573519,-0.9003906,-0.041015625,-0.11328125,4.75,-36.6875,-58.5
758,1727267573580,-0.6542969,-0.005859375,-0.21875,44.53125,-7.78125,-39.0625
759,1727267573612,-0.46191406,-0.00390625,-0.15625,50.875,6.5625,-13.03125
760,1727267573639,-0.33398438,0.15527344,-0.047851562,40.625,34.15625,19.15625
761,1727267573700,-0.4736328,0.22070312,0.009765625,33.625,60.40625,55.71875
762,1727267573729,-0.9970703,-0.5488281,0.921875,26.71875,57.0625,73.03125
763,1727267573793,-2.0,-1.8046875,0.6748047,72.4375,15.5625,-52.9375
764,1727267573823,-1.0703125,-0.18554688,0.13867188,19.9375,-14.1875,-80.15625
765,1727267573849,-0.60546875,-0.14453125,0.17773438,27.34375,12.75,-28.9375
766,1727267573915,-1.4404297,-0.4091797,-0.7607422,72.1875,85.875,55.21875
767,1727267573949,-1.9189453,-0.6777344,0.8466797,-42.1875,26.78125,-17.09375
768,1727267573970,-0.9111328,0.45214844,-0.5498047,12.375,13.40625,-22.125
769,1727267574031,-0.6357422,0.96191406,0.3857422,78.90625,21.53125,25.8125
