,Unnamed: 0,timestamp,accel_x,accel_y,accel_z,gyro_x,gyro_y,gyro_z
0,0,1727997494572,-1.1279297,0.1640625,-0.06640625,-87.125,-70.21875,-42.15625
1,1,1727997494612,-1.2060547,0.05859375,-0.08886719,-122.03125,-33.65625,-44.09375
2,2,1727997494652,-1.0908203,-0.12792969,0.0068359375,-91.09375,-17.71875,-34.34375
3,3,1727997494692,-0.96875,-0.17382812,0.059570312,9.125,-29.25,-26.9375
4,4,1727997494732,-0.875,-0.041015625,0.16015625,39.28125,-41.21875,-33.0
5,5,1727997494772,-0.8203125,0.13964844,0.17871094,33.4375,-29.75,-29.5625
6,6,1727997494812,-0.7792969,0.12695312,0.11816406,6.4375,-8.5625,-13.875
7,7,1727997494852,-0.8046875,0.09082031,0.09863281,-5.4375,-2.59375,5.21875
8,8,1727997494892,-0.71777344,-0.0009765625,0.09667969,-11.3125,14.625,26.59375
9,9,1727997494932,-0.765625,-0.1953125,0.11035156,-27.3125,30.65625,35.125
10,10,1727997494972,-0.9375,-0.35253906,0.16601562,-9.28125,23.59375,35.0625
11,11,1727997495012,-1.1289062,-0.43164062,0.33398438,38.875,13.03125,22.90625
12,12,1727997495052,-1.015625,-0.17382812,0.20410156,36.78125,15.09375,2.59375
13,13,1727997495092,-0.82421875,-0.03515625,0.16113281,9.75,30.25,-5.71875
14,14,1727997495132,-1.9853516,0.34277344,0.28808594,-21.5625,42.03125,26.46875
15,15,1727997495172,-1.0302734,-0.06640625,0.31933594,-64.03125,-31.03125,-24.125
16,16,1727997495212,-0.3017578,0.17578125,-0.60058594,-20.53125,23.90625,15.59375
17,17,1727997495252,-0.9238281,0.19238281,0.18652344,6.40625,12.90625,48.90625
18,18,1727997495292,-1.2158203,-0.11621094,-0.0703125,15.53125,-32.4375,42.09375
19,19,1727997495332,-0.7832031,0.07324219,-0.20410156,-12.53125,23.03125,19.3125
20,20,1727997495372,-0.9277344,0.087890625,0.055664062,39.46875,45.8125,7.0
21,21,1727997495412,-1.1386719,0.15625,-0.20410156,6.15625,-28.53125,12.3125
22,22,1727997495452,-0.85546875,0.0126953125,-0.2529297,-16.5625,29.28125,17.65625
23,23,1727997495492,-1.0322266,-0.08496094,-0.18164062,14.21875,2.15625,23.65625
24,24,1727997495532,-0.9707031,-0.01171875,-0.11230469,45.15625,39.40625,15.53125
25,25,1727997495572,-1.0136719,0.33691406,0.2919922,-72.71875,106.125,-11.09375
26,26,1727997495612,-0.9501953,0.10644531,-0.11328125,-8.5,-36.09375,10.15625
27,27,1727997495652,-1.0341797,-0.080078125,-0.1875,41.78125,-4.96875,19.9375
28,28,1727997495692,-0.9863281,-0.09375,-0.14746094,35.0625,12.25,15.03125
29,29,1727997495732,-0.96875,-0.0029296875,-0.111328125,10.34375,9.4375,3.75
30,30,1727997495772,-0.9716797,0.043945312,-0.06542969,-16.1875,20.71875,1.0
31,31,1727997495812,-0.95410156,0.013671875,-0.038085938,-13.8125,16.28125,3.4375
32,32,1727997495852,-0.9580078,0.020507812,-0.06347656,0.09375,3.5625,6.6875
33,33,1727997495892,-0.9794922,0.018554688,-0.08105469,-3.5625,1.375,6.5
34,34,1727997495932,-0.9277344,-0.021484375,-0.07128906,-10.15625,4.3125,7.28125
35,35,1727997495972,-0.953125,-0.060546875,-0.08886719,2.90625,2.59375,1.875
36,36,1727997496012,-1.1572266,-0.07714844,-0.11425781,5.53125,-9.3125,-10.65625
37,37,1727997496052,-1.3476562,-0.045898438,-0.14160156,8.34375,-30.71875,-22.6875
38,38,1727997496092,-1.2119141,0.3076172,0.50683594,-158.40625,-122.09375,-67.34375
39,39,1727997496132,-0.9550781,0.28710938,-0.052734375,-125.625,-78.53125,-73.59375
40,40,1727997496172,-0.90234375,0.060546875,-0.09082031,-82.28125,-57.09375,-60.53125
41,41,1727997496212,-1.2832031,-0.16015625,-0.03125,-23.875,-41.15625,-46.0
42,42,1727997496252,-0.9902344,-0.08496094,-0.072265625,-11.84375,-12.3125,-39.03125
43,43,1727997496292,-0.9248047,0.005859375,0.12597656,42.71875,-24.5,-26.34375
44,44,1727997496332,-0.84277344,0.07910156,0.13476562,77.3125,-20.71875,-36.96875
45,45,1727997496372,-0.8251953,0.22363281,0.21386719,50.875,-0.6875,-32.4375
46,46,1727997496412,-0.8408203,0.11816406,0.109375,31.15625,2.40625,-13.9375
47,47,1727997496452,-0.82714844,0.107421875,0.12011719,9.6875,5.59375,0.21875
48,48,1727997496492,-0.8388672,-0.109375,0.14941406,-7.90625,17.90625,7.96875
49,49,1727997496532,-0.8857422,-0.26367188,0.11035156,2.65625,22.96875,13.03125
50,50,1727997496572,-0.8886719,-0.25,0.12109375,41.59375,20.53125,20.0625
51,51,1727997496612,-0.99902344,-0.14355469,0.22753906,67.65625,8.9375,18.09375
52,52,1727997496652,-0.9892578,-0.08691406,0.2548828,60.40625,6.1875,5.875
53,53,1727997496692,-1.0097656,-0.07910156,0.39648438,18.21875,15.40625,-4.0
54,54,1727997496732,-0.82128906,-0.048828125,0.24902344,-8.1875,32.75,-0.53125
55,55,1727997496772,-0.8671875,0.0009765625,0.119140625,-16.125,52.28125,19.625
56,56,1727997496812,-1.7851562,0.103515625,0.11816406,12.0,36.90625,38.96875
57,57,1727997496852,-1.1679688,0.032226562,0.12890625,62.0,-34.40625,3.6875
58,58,1727997496892,-0.49902344,0.08300781,-0.31445312,3.15625,26.8125,13.46875
59,59,1727997496932,-0.92285156,0.265625,0.47460938,-25.09375,56.5625,33.21875
60,60,1727997496972,-1.0927734,-0.03125,-0.2626953,4.75,-1.3125,28.78125
61,61,1727997497012,-0.8378906,-0.12695312,-0.12109375,34.78125,22.0625,25.40625
62,62,1727997497052,-0.9658203,0.033203125,-0.083984375,67.5625,12.90625,8.40625
63,63,1727997497092,-1.1035156,0.20507812,-0.07421875,60.65625,4.0,5.59375
64,64,1727997497132,-0.9707031,0.05859375,-0.12402344,34.28125,10.03125,5.34375
65,65,1727997497172,-0.98046875,0.01953125,-0.18847656,30.5625,4.3125,1.8125
66,66,1727997497212,-0.88671875,0.057617188,-0.09277344,41.78125,28.84375,-0.875
67,67,1727997497252,-0.9423828,0.14941406,-0.055664062,1.15625,25.84375,-6.9375
68,68,1727997497292,-0.99902344,0.22460938,0.0390625,-45.25,28.84375,-1.875
69,69,1727997497332,-1.0146484,0.07910156,-0.08984375,-21.9375,-2.28125,13.34375
70,70,1727997497372,-0.99121094,0.0009765625,-0.11328125,23.46875,1.6875,16.3125
71,71,1727997497412,-0.97753906,-0.01171875,-0.11035156,38.0625,2.65625,15.65625
72,72,1727997497452,-0.9765625,0.009765625,-0.111328125,22.625,4.3125,9.3125
73,73,1727997497492,-0.9658203,0.051757812,-0.111328125,-15.65625,9.0,6.0
74,74,1727997497532,-0.9658203,0.044921875,-0.083984375,-26.4375,12.84375,8.9375
75,75,1727997497572,-1.0048828,0.029296875,-0.091796875,-12.09375,4.78125,11.25
76,76,1727997497612,-0.9873047,0.022460938,-0.1015625,-14.0625,5.78125,11.5625
77,77,1727997497652,-0.9667969,-0.0126953125,-0.0859375,-24.75,8.03125,12.71875
78,78,1727997497692,-1.0019531,-0.044921875,-0.09277344,-3.6875,8.21875,12.0625
79,79,1727997497732,-1.1015625,0.018554688,-0.12890625,-0.75,-0.53125,-2.21875
80,80,1727997497772,-1.1689453,0.0048828125,-0.17089844,-23.875,-11.0625,-9.5625
81,81,1727997497812,-1.2128906,0.11816406,-0.20019531,-25.71875,-10.71875,-27.4375
82,82,1727997497852,-0.79003906,0.20605469,1.9833984,-100.0625,34.03125,-45.75
83,83,1727997497892,-0.7294922,0.29785156,0.11425781,-165.125,-121.5,-12.65625
84,84,1727997497932,-0.9921875,0.18164062,-0.061523438,-103.21875,-89.03125,-26.09375
85,85,1727997497972,-1.1875,-0.046875,0.0234375,-15.09375,-77.96875,-24.5
86,86,1727997498012,-1.2480469,-0.16601562,-0.021484375,-82.59375,-24.6875,-53.4375
87,87,1727997498052,-0.99902344,0.06738281,0.059570312,-29.1875,-27.25,-38.375
88,88,1727997498092,-0.8046875,0.072265625,0.19433594,14.15625,-12.78125,-31.78125
89,89,1727997498132,-0.83203125,0.040039062,0.1953125,33.6875,-13.40625,-28.03125
90,90,1727997498172,-0.9091797,0.18066406,0.15527344,35.0625,-8.34375,-31.21875
91,91,1727997498212,-0.8486328,0.22167969,0.15917969,9.4375,-7.0,-22.5625
92,92,1727997498252,-0.87109375,0.06347656,0.11425781,-9.125,0.21875,-4.90625
93,93,1727997498292,-0.85058594,-0.047851562,0.13769531,-9.90625,12.25,8.34375
94,94,1727997498332,-0.8457031,-0.15527344,0.09472656,-5.21875,21.15625,17.78125
95,95,1727997498372,-0.82714844,-0.17382812,0.08984375,14.3125,29.4375,25.0625
96,96,1727997498412,-0.96777344,-0.22363281,0.19238281,36.1875,28.0625,18.46875
97,97,1727997498452,-1.0888672,-0.24121094,0.2890625,42.46875,20.59375,1.125
98,98,1727997498492,-1.0361328,-0.2529297,0.36132812,22.8125,6.75,-19.375
99,99,1727997498532,-0.6738281,-0.057617188,0.22167969,3.21875,27.3125,-11.875
100,100,1727997498572,-1.1464844,0.28515625,0.041015625,-29.1875,69.1875,24.75
101,101,1727997498612,-1.9521484,0.23730469,0.5810547,30.25,-15.09375,49.21875
102,102,1727997498652,-0.78027344,-0.055664062,-0.28808594,42.03125,9.5625,-3.875
103,103,1727997498692,-0.33203125,0.048828125,-0.16601562,-73.8125,52.8125,30.90625
104,104,1727997498732,-1.4335938,0.2265625,0.115234375,-62.46875,21.9375,34.46875
105,105,1727997498772,-0.9980469,-0.061523438,-0.24511719,6.40625,8.46875,33.34375
106,106,1727997498812,-0.7949219,-0.12109375,-0.099609375,36.25,15.0,21.03125
107,107,1727997498852,-1.0917969,0.2109375,-0.052734375,37.40625,2.03125,3.03125
108,108,1727997498892,-0.9980469,0.20117188,-0.07128906,36.0625,12.0625,5.03125
109,109,1727997498932,-0.9609375,0.055664062,-0.16796875,13.21875,-3.25,5.40625
110,110,1727997498972,-0.95214844,0.030273438,-0.20898438,34.09375,7.0625,8.625
111,111,1727997499012,-0.94140625,0.0126953125,-0.068359375,32.875,40.375,4.84375
112,112,1727997499052,-0.9785156,0.16796875,0.09863281,-35.78125,43.5,-4.0
113,113,1727997499092,-0.9863281,0.11621094,-0.06542969,-20.21875,-2.34375,3.8125
114,114,1727997499132,-1.0039062,0.087890625,-0.12597656,-3.8125,6.3125,7.96875
115,115,1727997499172,-0.9785156,0.0048828125,-0.10253906,16.53125,6.4375,12.90625
116,116,1727997499212,-0.984375,-0.015625,-0.11425781,33.0625,3.75,13.65625
117,117,1727997499252,-0.96875,0.022460938,-0.09863281,25.4375,3.6875,9.6875
118,118,1727997499292,-0.95410156,0.07324219,-0.09472656,-12.59375,6.0,2.90625
119,119,1727997499332,-0.9785156,0.07128906,-0.1015625,-58.6875,5.9375,-0.59375
120,120,1727997499372,-0.9873047,0.060546875,-0.095703125,-44.875,8.46875,4.3125
121,121,1727997499412,-0.9638672,0.0390625,-0.09277344,-25.34375,10.03125,10.84375
122,122,1727997499452,-0.98535156,0.033203125,-0.08886719,-17.03125,10.09375,12.25
123,123,1727997499492,-1.0400391,0.05078125,-0.11816406,-30.34375,5.53125,5.28125
124,124,1727997499532,-1.0947266,-0.0126953125,-0.16601562,-16.25,-2.96875,8.6875
125,125,1727997499572,-1.2832031,-0.001953125,-0.22558594,49.59375,-21.5,6.125
126,126,1727997499612,-1.0576172,0.21582031,-0.19238281,-1.125,13.28125,-24.09375
127,127,1727997499652,-1.3017578,0.37890625,1.9833984,-17.09375,27.375,-49.09375
128,128,1727997499692,-0.6826172,0.2861328,-0.31347656,-208.21875,-118.375,-14.0625
129,129,1727997499732,-1.0693359,0.13183594,-0.25,-86.3125,-83.21875,-25.90625
130,130,1727997499772,-1.2392578,0.024414062,0.059570312,-37.90625,-66.8125,-23.78125
131,131,1727997499812,-1.1357422,-0.109375,-0.0234375,-50.375,-19.4375,-35.0
132,132,1727997499852,-0.9013672,-0.049804688,0.022460938,8.71875,-27.125,-31.40625
133,133,1727997499892,-0.8779297,0.06738281,0.107421875,19.8125,-16.625,-35.84375
134,134,1727997499932,-0.85546875,0.10546875,0.12207031,48.9375,-9.125,-31.34375
135,135,1727997499972,-0.91796875,0.13574219,0.15625,48.6875,-13.625,-29.3125
136,136,1727997500012,-0.87402344,0.24121094,0.0859375,14.3125,-7.09375,-26.75
137,137,1727997500052,-0.8486328,0.052734375,0.1640625,-9.40625,12.78125,-10.15625
138,138,1727997500092,-0.8642578,-0.13183594,0.099609375,-9.46875,20.46875,-0.40625
139,139,1727997500132,-0.84765625,-0.18847656,0.083984375,17.0625,21.03125,8.15625
140,140,1727997500172,-0.9355469,-0.13964844,0.16015625,47.65625,15.59375,9.96875
141,141,1727997500212,-0.94921875,-0.083984375,0.19726562,53.75,14.25,2.40625
142,142,1727997500252,-0.8857422,-0.05859375,0.2783203,26.71875,23.53125,1.6875
143,143,1727997500292,-0.9404297,-0.140625,0.3232422,4.125,35.5625,0.15625
144,144,1727997500332,-1.4833984,0.09277344,0.18261719,-26.375,53.0625,4.90625
145,145,1727997500372,-1.3652344,0.25390625,0.29882812,-41.28125,-5.9375,2.65625
146,146,1727997500412,-0.4736328,0.19335938,-0.3779297,-15.28125,10.65625,19.4375
147,147,1727997500452,-0.7890625,0.047851562,-0.12597656,13.28125,29.4375,47.15625
148,148,1727997500492,-1.2402344,-0.06640625,0.08691406,31.15625,10.46875,44.59375
149,149,1727997500532,-0.8808594,-0.033203125,-0.19824219,-11.96875,10.03125,12.71875
150,150,1727997500572,-0.83203125,0.043945312,-0.12402344,36.46875,15.21875,6.9375
151,151,1727997500612,-1.1289062,0.21582031,-0.11816406,71.34375,-1.5625,2.53125
152,152,1727997500652,-0.98535156,0.14648438,-0.1328125,-19.25,20.25,4.375
153,153,1727997500692,-0.9501953,0.030273438,-0.16015625,8.71875,2.0,12.96875
154,154,1727997500732,-0.9277344,0.005859375,-0.12402344,53.5,24.8125,13.875
155,155,1727997500772,-0.9423828,0.09375,-0.005859375,10.65625,32.8125,2.78125
156,156,1727997500812,-1.0351562,0.140625,0.0107421875,-20.40625,0.34375,4.1875
157,157,1727997500852,-0.984375,0.087890625,-0.11425781,-8.9375,2.0,11.3125
158,158,1727997500892,-1.0009766,0.009765625,-0.123046875,14.75,-0.15625,15.46875
159,159,1727997500932,-0.9794922,-0.00390625,-0.14941406,37.9375,2.15625,16.375
160,160,1727997500972,-0.9609375,0.032226562,-0.123046875,22.375,12.4375,11.625
161,161,1727997501012,-0.9560547,0.038085938,-0.0703125,-19.5,22.5625,9.4375
162,162,1727997501052,-0.99316406,0.018554688,-0.07128906,-28.28125,13.71875,9.0
163,163,1727997501092,-0.9941406,-0.013671875,-0.07128906,-14.78125,4.5625,10.90625
164,164,1727997501132,-0.98828125,-0.06738281,-0.09277344,7.5625,0.53125,14.3125
165,165,1727997501172,-1.0908203,-0.10644531,-0.15527344,24.09375,-16.6875,6.5
166,166,1727997501212,-1.0673828,-0.048828125,-0.21679688,54.1875,-4.65625,-4.375
167,167,1727997501252,-1.1582031,0.06640625,-0.18164062,14.8125,2.65625,-24.8125
168,168,1727997501292,-1.2001953,0.86328125,0.8564453,2.0,35.875,-38.84375
169,169,1727997501332,-0.8847656,0.03125,0.026367188,-106.46875,-75.65625,-22.8125
170,170,1727997501372,-0.96777344,0.18945312,0.13867188,-89.3125,-105.9375,-34.6875
171,171,1727997501412,-1.0458984,0.109375,-0.09863281,-8.3125,-75.78125,-35.0
172,172,1727997501452,-1.1777344,0.095703125,-0.033203125,-58.0,-27.96875,-52.9375
173,173,1727997501492,-1.0488281,0.0546875,0.05078125,-25.28125,-28.96875,-37.625
174,174,1727997501532,-0.87109375,-0.013671875,0.12695312,0.65625,-12.40625,-33.71875
175,175,1727997501572,-0.86621094,0.01953125,0.20507812,23.59375,-16.8125,-35.0
176,176,1727997501612,-0.8544922,0.08203125,0.16210938,41.5,-12.59375,-38.4375
177,177,1727997501652,-0.8701172,0.17675781,0.15820312,25.5,-8.5625,-29.5625
178,178,1727997501692,-0.859375,0.13769531,0.11230469,-4.71875,-1.8125,-14.3125
179,179,1727997501732,-0.8486328,-0.00390625,0.125,-13.5625,10.78125,2.40625
180,180,1727997501772,-0.88378906,-0.21679688,0.13085938,-10.28125,18.46875,7.96875
181,181,1727997501812,-0.8642578,-0.3017578,0.103515625,14.21875,23.53125,12.53125
182,182,1727997501852,-0.9765625,-0.19238281,0.19726562,54.0,10.71875,14.5
183,183,1727997501892,-0.9560547,-0.11425781,0.27539062,60.78125,-0.53125,6.1875
184,184,1727997501932,-0.9902344,-0.11035156,0.38671875,27.15625,3.21875,-3.9375
185,185,1727997501972,-0.8544922,-0.028320312,0.29492188,-2.40625,12.78125,-5.34375
186,186,1727997502012,-0.7470703,0.0390625,0.14746094,-15.03125,40.0,16.875
187,187,1727997502052,-1.359375,0.32421875,0.060546875,-30.34375,55.4375,45.3125
188,188,1727997502092,-1.5830078,-0.07128906,0.5292969,17.6875,-18.46875,40.1875
189,189,1727997502132,-0.6591797,0.009765625,-0.37402344,-8.125,29.03125,-4.65625
190,190,1727997502172,-0.57714844,0.076171875,-0.041992188,-78.3125,52.78125,30.71875
191,191,1727997502212,-1.2783203,0.16796875,-0.0107421875,-28.59375,-4.65625,32.75
192,192,1727997502252,-0.9765625,-0.07128906,-0.23144531,7.375,14.8125,31.46875
193,193,1727997502292,-0.83691406,-0.06738281,-0.109375,37.75,19.6875,10.90625
194,194,1727997502332,-1.0761719,0.2861328,0.026367188,-9.34375,10.90625,-1.0
195,195,1727997502372,-0.98535156,0.12988281,-0.09667969,4.5625,10.84375,13.21875
196,196,1727997502412,-0.9892578,-0.05859375,-0.21679688,10.53125,0.8125,13.65625
197,197,1727997502452,-0.9550781,-0.06738281,-0.14355469,41.4375,23.28125,12.96875
198,198,1727997502492,-0.9716797,0.10058594,0.140625,-22.40625,34.53125,-2.03125
199,199,1727997502532,-0.9902344,0.16308594,-0.024414062,-14.53125,-0.75,-1.25
200,200,1727997502572,-1.0048828,0.13574219,-0.07324219,-17.59375,5.78125,4.375
201,201,1727997502612,-0.9814453,0.08984375,-0.123046875,-8.25,3.9375,8.28125
202,202,1727997502652,-0.9667969,0.029296875,-0.08984375,5.96875,8.46875,13.6875
203,203,1727997502692,-0.9667969,-0.0048828125,-0.11816406,34.59375,6.8125,18.21875
204,204,1727997502732,-0.97753906,-0.001953125,-0.06542969,31.40625,19.75,17.3125
205,205,1727997502772,-0.9794922,-0.0078125,-0.0546875,-1.375,13.9375,10.46875
206,206,1727997502812,-0.95214844,-0.005859375,-0.06640625,-25.84375,7.90625,5.03125
207,207,1727997502852,-0.98339844,-0.0146484375,-0.083984375,-12.09375,4.375,5.875
208,208,1727997502892,-0.96875,-0.051757812,-0.07421875,1.09375,3.15625,6.75
209,209,1727997502932,-1.0419922,-0.07714844,-0.1171875,11.53125,-7.0,-3.03125
210,210,1727997502972,-1.1591797,-0.017578125,-0.17578125,17.75,-16.15625,-18.21875
211,211,1727997503012,-1.2255859,0.13476562,-0.20703125,-18.875,-14.5,-38.53125
212,212,1727997503052,-1.2128906,0.8203125,1.5341797,-48.46875,65.59375,-63.4375
213,213,1727997503092,-0.82910156,0.17578125,0.056640625,-192.15625,-103.3125,-22.84375
214,214,1727997503132,-0.81347656,0.20996094,-0.08496094,-108.53125,-88.40625,-23.40625
215,215,1727997503172,-1.3056641,-0.11035156,0.020507812,-27.3125,-71.9375,-32.75
216,216,1727997503212,-1.2177734,-0.0009765625,0.0546875,-63.4375,-16.625,-48.75
217,217,1727997503252,-0.9658203,0.02734375,-0.021484375,-7.84375,-27.8125,-26.09375
218,218,1727997503292,-0.84765625,0.055664062,0.23046875,14.09375,-26.625,-21.34375
219,219,1727997503332,-0.8066406,0.14355469,0.15625,32.46875,-15.34375,-25.375
220,220,1727997503372,-0.8544922,0.12109375,0.22949219,37.34375,-17.25,-14.125
221,221,1727997503412,-0.8496094,0.21777344,0.16113281,15.53125,-8.5,-8.75
222,222,1727997503452,-0.7949219,0.14550781,0.109375,-23.28125,3.5625,8.28125
223,223,1727997503492,-0.83984375,-0.0546875,0.14355469,-29.375,18.09375,16.875
224,224,1727997503532,-0.8955078,-0.29492188,0.14355469,-17.46875,22.5625,15.65625
225,225,1727997503572,-0.96875,-0.33203125,0.24902344,22.6875,16.375,20.15625
226,226,1727997503612,-0.9638672,-0.15136719,0.27734375,37.9375,13.40625,7.0625
227,227,1727997503652,-0.9658203,-0.078125,0.31835938,18.90625,10.65625,-4.375
228,228,1727997503692,-0.82421875,-0.049804688,0.31152344,-0.1875,19.75,-10.15625
229,229,1727997503732,-0.79296875,0.08496094,0.13476562,-22.125,53.4375,12.46875
230,230,1727997503772,-1.9443359,0.2529297,0.44433594,-24.90625,58.25,34.40625
231,231,1727997503812,-1.1708984,-0.024414062,0.16113281,54.71875,-47.46875,-2.90625
232,232,1727997503852,-0.3671875,0.04296875,-0.47265625,-53.1875,29.15625,4.3125
233,233,1727997503892,-1.0234375,0.24511719,0.34375,-50.4375,88.03125,26.59375
234,234,1727997503932,-1.1005859,-0.009765625,-0.2607422,31.125,-20.59375,30.0625
235,235,1727997503972,-0.8300781,-0.05859375,-0.15136719,30.25,20.40625,26.03125
236,236,1727997504012,-0.984375,0.041992188,-0.109375,66.09375,19.375,7.96875
237,237,1727997504052,-1.1123047,0.26464844,-0.0068359375,-3.0,19.5,0.34375
238,238,1727997504092,-0.96777344,0.043945312,-0.14550781,-23.15625,5.21875,9.6875
239,239,1727997504132,-0.9472656,-0.018554688,-0.19433594,30.4375,3.625,14.75
240,240,1727997504172,-0.8769531,0.021484375,-0.095703125,39.03125,28.09375,11.125
241,241,1727997504212,-0.98535156,0.109375,-0.06640625,-14.40625,22.3125,-0.9375
242,242,1727997504252,-1.0292969,0.119140625,-0.07910156,-40.46875,18.21875,-1.875
243,243,1727997504292,-0.9970703,0.08691406,-0.07910156,-40.4375,17.96875,0.09375
244,244,1727997504332,-0.9794922,0.020507812,-0.08300781,-19.78125,12.53125,6.5625
245,245,1727997504372,-0.984375,-0.0087890625,-0.103515625,10.78125,9.96875,11.375
246,246,1727997504412,-0.96875,-0.0029296875,-0.080078125,29.21875,12.0,9.6875
247,247,1727997504452,-0.94140625,0.08203125,-0.0703125,8.90625,9.84375,4.125
248,248,1727997504492,-1.0009766,0.09082031,-0.064453125,-27.4375,14.3125,4.84375
249,249,1727997504532,-0.9873047,0.0078125,-0.07128906,-30.96875,10.40625,10.53125
250,250,1727997504572,-0.96777344,-0.053710938,-0.076171875,1.5,3.5625,18.09375
251,251,1727997504612,-1.0234375,-0.08203125,-0.109375,20.5,-5.65625,16.4375
252,252,1727997504652,-1.1025391,-0.030273438,-0.16015625,-8.0,-10.46875,0.46875
253,253,1727997504692,-1.140625,0.009765625,-0.19238281,-35.59375,-16.375,-11.4375
254,254,1727997504732,-1.1210938,0.11816406,-0.19921875,-30.59375,-4.0,-22.5625
255,255,1727997504772,-0.9550781,0.20214844,-0.091796875,-91.8125,18.84375,-38.125
256,256,1727997504812,-0.8486328,0.37695312,0.037109375,-122.34375,-153.21875,-33.0
257,257,1727997504852,-0.93359375,0.25195312,0.0087890625,-59.09375,-96.46875,-39.21875
258,258,1727997504892,-1.2421875,0.16015625,-0.017578125,-60.6875,-75.21875,-28.90625
259,259,1727997504932,-1.2021484,-0.15527344,-0.040039062,-75.34375,-23.78125,-40.0
260,260,1727997504972,-0.91308594,-0.064453125,0.024414062,-31.75,-29.5,-27.875
261,261,1727997505012,-0.7939453,-0.018554688,0.13867188,40.09375,-17.90625,-28.21875
262,262,1727997505052,-0.85253906,0.04296875,0.13867188,44.1875,-13.34375,-28.46875
263,263,1727997505092,-0.8857422,0.13183594,0.2109375,48.25,-11.0,-23.09375
264,264,1727997505132,-0.84765625,0.20410156,0.11230469,23.84375,-5.15625,-16.3125
265,265,1727997505172,-0.8261719,0.07714844,0.14453125,-6.90625,11.875,0.6875
266,266,1727997505212,-0.8857422,-0.14550781,0.14648438,-12.59375,26.03125,8.21875
267,267,1727997505252,-0.92089844,-0.3232422,0.11425781,5.96875,29.375,8.4375
268,268,1727997505292,-0.9707031,-0.18261719,0.21386719,45.5,14.3125,8.15625
269,269,1727997505332,-0.9169922,-0.095703125,0.1953125,61.25,3.875,-3.375
270,270,1727997505372,-0.9160156,-0.02734375,0.3017578,40.9375,8.34375,-6.625
271,271,1727997505412,-0.8261719,-0.060546875,0.29296875,-1.0625,25.84375,-5.03125
272,272,1727997505452,-0.74121094,-0.029296875,0.18945312,-9.1875,47.625,10.46875
273,273,1727997505492,-1.4492188,0.15234375,0.1015625,-10.46875,55.34375,30.125
274,274,1727997505532,-1.7294922,0.059570312,0.6201172,78.78125,-44.40625,24.875
275,275,1727997505572,-0.6191406,-0.04296875,-0.24023438,-9.0625,16.9375,-16.15625
276,276,1727997505612,-0.54296875,0.19042969,-0.033203125,-109.6875,68.8125,27.375
277,277,1727997505652,-1.2734375,0.19140625,-0.0107421875,38.4375,-15.40625,43.0
278,278,1727997505692,-0.94140625,-0.12988281,-0.18554688,17.4375,12.96875,31.46875
279,279,1727997505732,-0.8095703,-0.12207031,-0.10839844,58.03125,21.21875,17.375
280,280,1727997505772,-1.1142578,0.2578125,0.08984375,73.65625,23.84375,4.25
281,281,1727997505812,-1.0742188,0.14550781,-0.09277344,17.3125,-6.1875,6.6875
282,282,1727997505852,-0.9560547,-0.005859375,-0.22167969,34.09375,-14.375,7.28125
283,283,1727997505892,-0.9277344,-0.03515625,-0.22460938,65.90625,8.75,6.6875
284,284,1727997505932,-0.8886719,0.07324219,-0.103515625,24.40625,31.21875,-3.625
285,285,1727997505972,-0.9375,0.20800781,-0.08496094,-34.0,27.3125,-11.03125
286,286,1727997506012,-1.0234375,0.2861328,0.17578125,-83.875,58.25,-6.3125
287,287,1727997506052,-1.0253906,0.030273438,-0.107421875,-19.84375,-24.625,19.5625
288,288,1727997506092,-0.99609375,-0.064453125,-0.16894531,29.9375,-1.25,20.71875
289,289,1727997506132,-0.96777344,-0.06542969,-0.13964844,60.84375,7.90625,13.46875
290,290,1727997506172,-0.96875,0.038085938,-0.10644531,17.375,16.15625,4.0625
291,291,1727997506212,-0.9628906,0.095703125,-0.044921875,-28.09375,18.9375,1.96875
292,292,1727997506252,-0.9970703,0.0546875,-0.061523438,-39.875,14.625,5.21875
293,293,1727997506292,-0.99609375,0.0029296875,-0.080078125,-23.53125,5.90625,11.4375
294,294,1727997506332,-0.96875,-0.046875,-0.091796875,0.65625,1.25,16.75
295,295,1727997506372,-1.0478516,-0.107421875,-0.12597656,10.25,-14.1875,9.5625
296,296,1727997506412,-1.1191406,-0.07324219,-0.20117188,14.21875,-17.5,-3.21875
297,297,1727997506452,-1.1923828,0.103515625,-0.22265625,8.65625,-6.4375,-19.25
298,298,1727997506492,-1.0244141,0.27246094,-0.16210938,-118.59375,19.3125,-39.09375
299,299,1727997506532,-1.0449219,0.47753906,0.53027344,244.5,-23.78125,-9.5625
300,300,1727997506572,-0.9667969,0.11425781,0.16015625,-192.03125,-70.9375,-15.09375
301,301,1727997506612,-1.0205078,0.052734375,0.28808594,-10.5625,-83.28125,-16.375
302,302,1727997506652,-1.0507812,0.05078125,-0.12011719,-64.78125,-79.4375,-25.96875
303,303,1727997506692,-1.2099609,0.020507812,0.0078125,-91.8125,-35.5,-42.8125
304,304,1727997506732,-1.0380859,-0.022460938,0.09082031,-41.28125,-26.15625,-38.96875
305,305,1727997506772,-0.83984375,0.09863281,0.09375,-19.71875,-16.375,-24.8125
306,306,1727997506812,-0.80371094,0.06347656,0.18359375,20.5625,-18.78125,-17.5
307,307,1727997506852,-0.9345703,0.064453125,0.17382812,28.4375,-16.09375,-18.09375
308,308,1727997506892,-0.88378906,0.15917969,0.15625,10.1875,-10.34375,-17.71875
309,309,1727997506932,-0.8125,0.13378906,0.12695312,-12.96875,2.90625,-7.84375
310,310,1727997506972,-0.8046875,0.0390625,0.103515625,-15.28125,10.46875,8.75
311,311,1727997507012,-0.8408203,-0.1328125,0.14941406,-17.53125,20.90625,17.0
312,312,1727997507052,-0.88183594,-0.2626953,0.16015625,-6.0,22.90625,18.53125
313,313,1727997507092,-0.9433594,-0.24609375,0.22167969,15.0,19.5,12.84375
314,314,1727997507132,-0.9794922,-0.053710938,0.23535156,22.03125,27.375,5.28125
315,315,1727997507172,-1.0039062,-0.18945312,0.35058594,-8.8125,21.15625,-8.6875
316,316,1727997507212,-0.78125,-0.16894531,0.13378906,-23.875,27.625,-4.5625
317,317,1727997507252,-1.6591797,0.25976562,0.16308594,-5.5,53.5,12.46875
318,318,1727997507292,-1.3964844,0.045898438,0.50878906,28.25,-43.96875,3.625
319,319,1727997507332,-0.33984375,0.13183594,-0.48535156,-24.75,28.59375,-3.21875
320,320,1727997507372,-0.88964844,0.24316406,0.20410156,-58.5,75.28125,28.21875
321,321,1727997507412,-1.1953125,0.109375,-0.080078125,27.5,-31.09375,35.6875
322,322,1727997507452,-0.82421875,-0.0078125,-0.17871094,-16.5625,5.65625,20.71875
323,323,1727997507492,-0.89453125,0.040039062,-0.15332031,25.25,14.625,1.75
324,324,1727997507532,-1.1738281,0.25976562,-0.17773438,-14.71875,7.65625,-7.53125
325,325,1727997507572,-0.9921875,0.15820312,-0.087890625,-86.4375,43.5,-0.9375
326,326,1727997507612,-0.9863281,0.08105469,-0.13964844,-85.03125,3.28125,3.6875
327,327,1727997507652,-0.9199219,0.033203125,-0.15527344,-26.4375,16.5625,9.375
328,328,1727997507692,-1.0136719,0.08105469,-0.11328125,-55.0625,17.125,2.03125
329,329,1727997507732,-0.9863281,0.14941406,-0.10839844,-77.21875,11.6875,-0.09375
330,330,1727997507772,-1.03125,0.13183594,-0.091796875,-107.8125,9.125,-1.5625
331,331,1727997507812,-0.99121094,0.078125,-0.103515625,-102.0,2.21875,2.34375
332,332,1727997507852,-0.9560547,0.02734375,-0.13964844,-79.65625,-2.59375,9.375
333,333,1727997507892,-0.98828125,0.061523438,-0.15820312,-71.5,-7.40625,8.4375
334,334,1727997507932,-0.9951172,0.08300781,-0.17285156,-116.40625,-1.125,4.96875
335,335,1727997507972,-0.9736328,0.048828125,-0.20507812,-128.25,5.90625,6.625
336,336,1727997508012,-0.984375,-0.0107421875,-0.18945312,-91.6875,12.59375,13.6875
337,337,1727997508052,-1.0117188,-0.018554688,-0.13183594,-81.8125,22.84375,13.875
338,338,1727997508092,-0.9941406,-0.043945312,0.1640625,-132.65625,37.5,5.28125
339,339,1727997508132,-1.0205078,-0.04296875,-0.11816406,-119.15625,-25.25,-2.40625
340,340,1727997508172,-0.99609375,-0.043945312,-0.06738281,-71.6875,-1.5625,-10.09375
341,341,1727997508212,-1.0126953,0.08300781,-0.009765625,-120.8125,-24.1875,-36.28125
342,342,1727997508252,-0.96972656,0.22851562,-0.01953125,-190.25,-6.1875,-47.53125
343,343,1727997508292,-1.0097656,0.29296875,0.07324219,-180.6875,-11.625,-43.5625
344,344,1727997508332,-1.1601562,0.22558594,0.1328125,-135.46875,-23.15625,-36.34375
345,345,1727997508372,-1.1015625,0.2734375,0.115234375,-151.375,-32.0,-27.4375
346,346,1727997508412,-0.8564453,0.3515625,0.036132812,-133.0,-53.625,3.5
347,347,1727997508452,-0.91503906,0.06640625,-0.107421875,-133.5,-48.5625,27.8125
348,348,1727997508492,-0.9980469,-0.08691406,-0.091796875,-92.53125,-34.03125,26.09375
349,349,1727997508532,-0.9482422,0.038085938,0.0703125,-32.96875,-43.59375,39.75
350,350,1727997508572,-0.9794922,0.10449219,0.20605469,-44.4375,-46.53125,45.125
351,351,1727997508612,-1.0078125,-0.0048828125,0.20117188,-59.59375,-42.03125,49.65625
352,352,1727997508652,-0.9033203,0.03515625,0.22460938,-66.3125,-24.5625,47.21875
353,353,1727997508692,-0.92285156,0.0068359375,0.25878906,-58.4375,-22.25,37.3125
354,354,1727997508732,-0.89941406,-0.10058594,0.21679688,-39.375,-22.125,37.09375
355,355,1727997508772,-0.8515625,-0.053710938,0.25976562,-45.0,-12.34375,25.375
356,356,1727997508812,-0.8261719,0.080078125,0.2861328,-40.0,-5.875,22.90625
357,357,1727997508852,-0.88671875,-0.009765625,0.31835938,-66.90625,9.8125,16.3125
358,358,1727997508892,-0.7207031,-0.06933594,0.2265625,-94.5625,25.4375,9.4375
359,359,1727997508932,-0.80859375,0.0390625,0.34765625,-74.71875,55.40625,6.0
360,360,1727997508972,-1.0810547,-0.0087890625,0.4580078,-62.15625,71.8125,8.34375
361,361,1727997509012,-1.4199219,-0.38671875,0.9316406,-61.28125,40.9375,-20.65625
362,362,1727997509052,-0.7753906,0.43066406,0.09667969,-62.03125,35.6875,-20.90625
363,363,1727997509092,-0.78027344,0.27539062,0.037109375,24.75,17.0,4.53125
364,364,1727997509132,-1.171875,0.0625,-0.041992188,52.90625,31.96875,20.125
365,365,1727997509172,-1.0341797,0.0234375,-0.068359375,-0.625,30.3125,11.625
366,366,1727997509212,-0.95996094,0.15917969,-0.099609375,-27.1875,32.6875,2.40625
367,367,1727997509252,-0.9736328,0.1015625,-0.09667969,-5.8125,38.71875,-2.96875
368,368,1727997509292,-0.9638672,0.10449219,-0.11621094,-45.84375,30.78125,-1.625
369,369,1727997509332,-0.9638672,-0.0146484375,-0.12695312,-71.71875,33.25,4.84375
370,370,1727997509372,-0.97265625,-0.08300781,-0.12011719,-51.09375,36.53125,7.0625
371,371,1727997509412,-0.9746094,-0.09765625,-0.07324219,-51.53125,36.09375,0.8125
372,372,1727997509452,-1.0556641,-0.03515625,-0.018554688,-48.1875,40.125,-5.40625
373,373,1727997509492,-1.0117188,0.1015625,0.064453125,-90.15625,18.9375,-13.21875
374,374,1727997509532,-0.96777344,0.048828125,-0.07324219,-69.34375,5.84375,-6.375
375,375,1727997509572,-1.0029297,0.038085938,-0.099609375,-33.59375,6.0,1.375
376,376,1727997509612,-0.953125,0.04296875,-0.064453125,-43.96875,9.96875,5.28125
377,377,1727997509652,-0.98828125,-0.018554688,-0.08203125,-38.65625,7.0625,14.5625
378,378,1727997509692,-0.98828125,-0.06542969,-0.06933594,-13.25,10.53125,20.0
379,379,1727997509732,-0.9902344,-0.09863281,-0.087890625,3.71875,12.125,19.375
380,380,1727997509772,-0.9658203,-0.1015625,-0.08105469,-2.34375,11.5625,14.625
381,381,1727997509812,-0.96191406,-0.036132812,-0.09375,-25.34375,1.25,8.28125
382,382,1727997509852,-0.97265625,0.020507812,-0.13183594,-50.3125,2.71875,3.09375
383,383,1727997509892,-0.96875,0.028320312,-0.13183594,-56.28125,10.34375,3.375
384,384,1727997509932,-1.0029297,-0.107421875,-0.12109375,-5.625,11.25,9.75
385,385,1727997509972,-1.2275391,-0.14746094,-0.15039062,57.78125,0.34375,8.28125
386,386,1727997510012,-1.2861328,0.036132812,-0.11328125,15.53125,-0.6875,-22.90625
387,387,1727997510052,-1.1708984,0.8388672,1.7519531,-135.21875,17.0625,-54.96875
388,388,1727997510092,-0.8535156,0.2861328,-0.1484375,-126.40625,-99.75,-28.53125
389,389,1727997510132,-0.9160156,0.10058594,-0.022460938,-63.0625,-75.96875,-35.5625
390,390,1727997510172,-1.1416016,0.08886719,-0.037109375,-80.78125,-59.0,-51.0
391,391,1727997510212,-1.1132812,0.051757812,0.044921875,-66.96875,-43.3125,-36.28125
392,392,1727997510252,-0.97265625,-0.14648438,0.0234375,-5.28125,-41.46875,-26.65625
393,393,1727997510292,-0.94921875,-0.17382812,0.19042969,37.59375,-50.625,-37.875
394,394,1727997510332,-0.8310547,0.14746094,0.14453125,38.96875,-35.90625,-44.78125
395,395,1727997510372,-0.8105469,0.14257812,0.13183594,25.5,-18.40625,-30.78125
396,396,1727997510412,-0.79589844,0.099609375,0.13183594,13.78125,-9.125,-13.8125
397,397,1727997510452,-0.76171875,0.049804688,0.12890625,4.375,6.25,6.1875
398,398,1727997510492,-0.79003906,-0.12597656,0.19238281,-5.3125,16.9375,19.875
399,399,1727997510532,-0.8154297,-0.26171875,0.19238281,9.125,24.5,29.9375
400,400,1727997510572,-0.95703125,-0.23632812,0.31054688,38.4375,12.71875,28.40625
401,401,1727997510612,-1.0302734,-0.20703125,0.35058594,57.46875,10.03125,10.96875
402,402,1727997510652,-1.0576172,-0.14746094,0.41796875,20.75,28.65625,-10.65625
403,403,1727997510692,-0.8300781,-0.12109375,0.27929688,-9.1875,20.0625,-19.5
404,404,1727997510732,-0.85253906,0.064453125,0.17675781,-10.09375,56.90625,6.4375
405,405,1727997510772,-1.9853516,0.26464844,0.6826172,-16.0625,36.65625,24.03125
406,406,1727997510812,-1.1484375,-0.33691406,-0.57128906,21.34375,-6.5625,-49.96875
407,407,1727997510852,-0.049804688,0.55078125,0.2763672,-109.15625,42.6875,-1.4375
408,408,1727997510892,-1.0224609,0.32714844,-0.30566406,4.625,8.40625,73.46875
409,409,1727997510932,-1.4228516,-0.15625,-0.1484375,58.34375,-0.21875,68.8125
410,410,1727997510972,-0.7314453,-0.16503906,0.0126953125,53.03125,50.09375,40.5
411,411,1727997511012,-0.9736328,0.12207031,-0.06933594,67.96875,-1.90625,17.1875
412,412,1727997511052,-1.1005859,0.16210938,-0.14941406,84.21875,-1.4375,7.90625
413,413,1727997511092,-0.9375,0.049804688,-0.13378906,19.6875,16.5,8.75
414,414,1727997511132,-0.88183594,0.0234375,-0.099609375,20.5,26.9375,7.65625
415,415,1727997511172,-0.98535156,0.15625,0.053710938,-6.59375,46.0625,1.4375
416,416,1727997511212,-0.9814453,0.10449219,-0.051757812,-14.96875,1.875,8.28125
417,417,1727997511252,-0.984375,0.057617188,-0.11035156,12.0625,7.65625,12.0625
418,418,1727997511292,-1.0224609,0.036132812,-0.0859375,18.34375,7.21875,12.125
419,419,1727997511332,-0.9511719,0.029296875,-0.09667969,8.84375,11.75,7.59375
420,420,1727997511372,-0.953125,0.036132812,-0.095703125,-10.09375,12.53125,4.90625
421,421,1727997511412,-0.96875,0.044921875,-0.064453125,10.125,15.40625,9.5
422,422,1727997511452,-0.98828125,0.013671875,-0.08300781,-4.65625,14.875,9.96875
423,423,1727997511492,-0.9765625,-0.001953125,-0.076171875,-30.0,11.5,6.9375
424,424,1727997511532,-0.98339844,-0.03125,-0.072265625,-20.65625,7.1875,7.125
425,425,1727997511572,-0.9951172,-0.0703125,-0.07910156,4.1875,4.25,11.0625
426,426,1727997511612,-1.0878906,-0.06933594,-0.13085938,31.28125,-8.625,6.375
427,427,1727997511652,-1.1679688,-0.018554688,-0.1875,40.5625,-4.78125,-4.65625
428,428,1727997511692,-1.1669922,0.1484375,-0.18652344,11.625,3.625,-24.5625
429,429,1727997511732,-1.0146484,0.31640625,-0.13476562,-147.34375,27.0625,-43.0
430,430,1727997511772,-1.0234375,0.42382812,0.8300781,301.5,-140.40625,-2.71875
431,431,1727997511812,-0.90234375,0.20214844,-0.036132812,-180.0625,-105.5625,-25.65625
432,432,1727997511852,-1.0693359,0.06640625,-0.1171875,-51.28125,-92.75,-27.625
433,433,1727997511892,-1.3232422,0.021484375,0.060546875,-30.0,-50.6875,-31.40625
434,434,1727997511932,-1.1005859,-0.048828125,0.009765625,-67.09375,-19.8125,-36.46875
435,435,1727997511972,-0.8964844,-0.021484375,0.15625,-5.09375,-25.59375,-32.875
436,436,1727997512012,-0.89160156,0.0625,0.15917969,19.09375,-35.3125,-34.9375
437,437,1727997512052,-0.8515625,0.1015625,0.12988281,36.46875,-26.03125,-38.59375
438,438,1727997512092,-0.85839844,0.13378906,0.15039062,36.0,-16.875,-27.625
439,439,1727997512132,-0.7734375,0.21875,0.10058594,14.3125,-9.625,-13.28125
440,440,1727997512172,-0.72558594,0.08300781,0.10839844,-1.3125,15.78125,11.375
441,441,1727997512212,-0.80078125,-0.13378906,0.15722656,-7.78125,31.71875,22.90625
442,442,1727997512252,-0.9169922,-0.34179688,0.23828125,12.3125,32.875,25.90625
443,443,1727997512292,-1.1308594,-0.34765625,0.39746094,68.03125,8.09375,14.5
444,444,1727997512332,-1.1015625,-0.14453125,0.3310547,43.3125,13.59375,-19.125
445,445,1727997512372,-0.79589844,0.0703125,0.26660156,-5.375,36.65625,-38.65625
446,446,1727997512412,-1.4570312,0.5253906,0.2607422,-43.46875,49.34375,11.0625
447,447,1727997512452,-1.0439453,-0.3173828,0.109375,-64.84375,-38.125,-15.78125
448,448,1727997512492,-0.33691406,0.25,-0.48046875,-57.15625,12.78125,33.90625
449,449,1727997512532,-1.2177734,0.0234375,-0.15527344,66.8125,4.25,77.96875
450,450,1727997512572,-1.0507812,-0.15429688,0.07128906,2.59375,64.65625,28.40625
451,451,1727997512612,-0.9277344,0.23632812,0.09765625,18.34375,7.28125,21.09375
452,452,1727997512652,-0.921875,0.14453125,-0.09667969,82.0,-10.84375,19.375
453,453,1727997512692,-1.0556641,0.16894531,-0.13769531,7.1875,4.125,8.21875
454,454,1727997512732,-0.96972656,-0.037109375,-0.20898438,-10.625,18.71875,12.40625
455,455,1727997512772,-1.0097656,-0.18359375,-0.06542969,8.21875,46.96875,14.125
456,456,1727997512812,-0.9824219,0.09082031,0.13769531,-11.125,22.3125,-4.0
457,457,1727997512852,-0.94433594,0.15332031,-0.017578125,45.625,-2.59375,4.65625
458,458,1727997512892,-1.0019531,0.11816406,-0.059570312,21.96875,10.90625,8.15625
459,459,1727997512932,-0.9873047,0.024414062,-0.11230469,20.5625,0.03125,12.25
460,460,1727997512972,-1.0107422,-0.040039062,-0.09863281,35.4375,8.5625,11.9375
461,461,1727997513012,-0.9921875,0.018554688,-0.044921875,51.5625,9.3125,10.90625
462,462,1727997513052,-0.98339844,0.045898438,-0.025390625,25.9375,10.59375,7.84375
463,463,1727997513092,-0.95996094,0.022460938,-0.049804688,5.78125,10.21875,7.125
464,464,1727997513132,-0.9658203,0.005859375,-0.051757812,-13.625,3.5625,5.53125
465,465,1727997513172,-0.9736328,0.03515625,-0.0703125,-9.46875,2.09375,6.25
466,466,1727997513212,-0.984375,0.018554688,-0.078125,-10.15625,2.28125,8.5
467,467,1727997513252,-0.9433594,-0.024414062,-0.091796875,2.71875,2.53125,8.75
468,468,1727997513292,-0.9550781,-0.038085938,-0.1171875,12.0,-5.9375,1.375
469,469,1727997513332,-1.0253906,-0.061523438,-0.1640625,17.0625,-14.25,-5.03125
470,470,1727997513372,-1.2705078,-0.0390625,-0.21875,63.21875,-20.21875,-11.25
471,471,1727997513412,-1.125,0.20214844,-0.15332031,-2.15625,9.0,-39.09375
472,472,1727997513452,-1.0097656,0.44921875,0.49121094,-30.0,-157.75,-24.375
473,473,1727997513492,-0.91503906,0.14746094,0.21875,-106.34375,-79.25,-32.375
474,474,1727997513532,-0.9970703,-0.026367188,-0.14453125,21.84375,-88.09375,-22.84375
475,475,1727997513572,-1.1884766,0.015625,-0.056640625,-45.25,-48.90625,-46.71875
476,476,1727997513612,-1.0605469,-0.060546875,-0.032226562,-11.3125,-22.0,-43.78125
477,477,1727997513652,-0.921875,-0.033203125,0.032226562,29.65625,-9.78125,-26.9375
478,478,1727997513692,-0.88964844,0.044921875,0.13671875,31.59375,-6.3125,-31.59375
479,479,1727997513732,-0.8417969,0.080078125,0.13769531,51.0625,4.78125,-34.75
480,480,1727997513772,-0.9296875,0.020507812,0.13769531,59.125,5.34375,-29.6875
481,481,1727997513812,-0.91503906,0.16894531,0.076171875,35.5,0.71875,-30.5
482,482,1727997513852,-0.8105469,0.076171875,0.15820312,8.78125,14.8125,-14.375
483,483,1727997513892,-0.87402344,-0.14550781,0.13378906,-3.125,24.3125,-3.21875
484,484,1727997513932,-0.90722656,-0.22851562,0.07128906,16.09375,24.8125,2.15625
485,485,1727997513972,-0.8574219,-0.15917969,0.047851562,42.53125,26.9375,3.25
486,486,1727997514012,-0.9326172,-0.109375,0.11035156,60.34375,20.71875,3.9375
487,487,1727997514052,-0.984375,-0.1328125,0.24511719,49.96875,18.59375,1.5
488,488,1727997514092,-1.0517578,-0.19824219,0.3642578,27.5625,19.9375,-6.625
489,489,1727997514132,-0.9091797,-0.111328125,0.24804688,1.15625,26.53125,-5.21875
490,490,1727997514172,-0.84277344,0.109375,0.049804688,-15.59375,46.0625,16.875
491,491,1727997514212,-1.6796875,0.33984375,-0.009765625,-13.03125,41.65625,52.8125
492,492,1727997514252,-1.2919922,0.080078125,0.47558594,40.5625,-49.28125,25.65625
493,493,1727997514292,-0.46777344,-0.10839844,-0.4404297,-25.71875,37.75,2.21875
494,494,1727997514332,-0.76953125,0.23144531,0.20996094,-109.9375,56.0625,37.8125
495,495,1727997514372,-1.2744141,0.07714844,-0.234375,-34.3125,-26.59375,37.375
496,496,1727997514412,-0.8925781,-0.15625,-0.19042969,24.46875,11.8125,41.90625
497,497,1727997514452,-0.921875,-0.08496094,-0.12109375,73.40625,13.28125,12.90625
498,498,1727997514492,-1.0664062,0.2861328,0.037109375,23.46875,23.03125,-2.96875
499,499,1727997514532,-1.0068359,0.2529297,0.0,22.6875,3.8125,6.0625
500,500,1727997514572,-0.9814453,0.07714844,-0.18457031,7.1875,-14.25,8.5625
501,501,1727997514612,-0.91308594,-0.0087890625,-0.1875,32.28125,13.09375,8.5
502,502,1727997514652,-0.93066406,0.0087890625,-0.09863281,18.15625,31.34375,2.40625
503,503,1727997514692,-1.0107422,0.0859375,-0.038085938,-10.9375,22.625,-2.53125
504,504,1727997514732,-1.0351562,0.11425781,-0.025390625,-10.03125,7.59375,-1.0625
505,505,1727997514772,-0.96484375,0.119140625,-0.0859375,-1.40625,7.71875,2.90625
506,506,1727997514812,-0.9736328,0.09863281,-0.0859375,-8.1875,7.90625,8.15625
507,507,1727997514852,-0.9628906,0.053710938,-0.09277344,4.875,5.65625,13.65625
508,508,1727997514892,-0.96875,0.036132812,-0.09277344,26.96875,5.78125,17.90625
509,509,1727997514932,-0.9824219,0.0126953125,-0.07324219,11.40625,10.96875,16.75
510,510,1727997514972,-0.984375,-0.021484375,-0.07910156,-3.625,9.3125,12.40625
511,511,1727997515012,-0.9609375,-0.02734375,-0.08105469,4.0625,9.5625,10.46875
512,512,1727997515052,-1.0019531,-0.030273438,-0.08691406,-8.4375,3.15625,3.5625
513,513,1727997515092,-1.1376953,-0.0068359375,-0.16308594,-35.25,-8.28125,-10.34375
514,514,1727997515132,-1.2431641,0.0390625,-0.21972656,8.03125,-25.59375,-15.59375
515,515,1727997515172,-1.0800781,0.23242188,-0.17480469,-23.15625,-0.34375,-35.5625
516,516,1727997515212,-1.0478516,0.4111328,1.0244141,-55.0625,-133.03125,-50.3125
517,517,1727997515252,-0.7236328,0.3359375,-0.16210938,-124.71875,-103.65625,-25.46875
518,518,1727997515292,-1.2294922,0.037109375,-0.024414062,-46.59375,-66.875,-30.5625
519,519,1727997515332,-1.2421875,-0.0859375,0.01171875,-67.03125,-40.3125,-48.6875
520,520,1727997515372,-1.0224609,-0.08496094,-0.052734375,-29.0,-36.21875,-42.03125
521,521,1727997515412,-0.90527344,-0.11230469,0.040039062,42.15625,-15.90625,-27.1875
522,522,1727997515452,-0.82714844,0.06738281,0.18945312,47.84375,-21.875,-32.125
523,523,1727997515492,-0.84277344,0.1953125,0.20800781,58.21875,-10.15625,-28.96875
524,524,1727997515532,-0.8828125,0.16601562,0.1328125,44.90625,-10.28125,-19.3125
525,525,1727997515572,-0.88378906,0.15917969,0.099609375,1.5625,-0.40625,-9.375
526,526,1727997515612,-0.8613281,-0.0078125,0.14648438,-15.15625,17.96875,2.78125
527,527,1727997515652,-0.8808594,-0.20898438,0.10058594,-18.6875,31.03125,3.8125
528,528,1727997515692,-0.8828125,-0.23242188,0.08496094,13.34375,37.6875,5.78125
529,529,1727997515732,-0.95214844,-0.15917969,0.16308594,48.5,22.8125,6.875
530,530,1727997515772,-0.95214844,-0.125,0.21386719,60.84375,5.59375,-3.625
531,531,1727997515812,-0.8876953,-0.07128906,0.29003906,8.46875,21.75,-9.0
532,532,1727997515852,-0.9345703,-0.13378906,0.30664062,-27.3125,39.15625,-4.84375
533,533,1727997515892,-0.84277344,-0.14160156,0.21972656,-25.46875,45.5625,7.71875
534,534,1727997515932,-0.91503906,-0.13867188,-0.0390625,-21.875,56.71875,26.03125
535,535,1727997515972,-1.8847656,0.21289062,-0.15917969,36.1875,25.375,43.0
536,536,1727997516012,-1.1640625,0.29589844,0.75,42.84375,-45.8125,-4.5
537,537,1727997516052,-0.4111328,0.026367188,-0.42871094,-7.59375,56.5625,14.9375
538,538,1727997516092,-1.1494141,0.2578125,0.453125,-152.78125,14.875,34.34375
539,539,1727997516132,-1.1708984,-0.0390625,-0.32714844,12.0625,-67.78125,30.59375
540,540,1727997516172,-0.82910156,-0.00390625,-0.21875,84.625,-7.21875,22.6875
541,541,1727997516212,-0.9638672,0.030273438,-0.22363281,75.78125,-8.5625,8.5
542,542,1727997516252,-1.1513672,0.14550781,-0.18164062,24.40625,19.875,1.9375
543,543,1727997516292,-0.93847656,0.01171875,-0.12597656,-29.1875,46.0625,0.28125
544,544,1727997516332,-0.94140625,0.022460938,-0.07324219,-12.71875,39.03125,-2.03125
545,545,1727997516372,-0.8935547,0.07910156,-0.024414062,-33.65625,41.0625,-7.125
546,546,1727997516412,-0.9941406,0.12109375,-0.048828125,-31.03125,16.21875,-6.875
547,547,1727997516452,-1.0332031,0.15234375,-0.07128906,-36.6875,15.46875,-2.09375
548,548,1727997516492,-0.9638672,0.08984375,-0.078125,-46.96875,17.3125,5.84375
549,549,1727997516532,-0.98828125,0.0146484375,-0.08984375,-18.5625,6.6875,13.875
550,550,1727997516572,-0.9482422,-0.0087890625,-0.09765625,36.1875,6.375,22.625
551,551,1727997516612,-0.9716797,-0.02734375,-0.11425781,31.125,7.90625,22.75
552,552,1727997516652,-0.9892578,-0.032226562,-0.09667969,-0.875,6.0,16.21875
553,553,1727997516692,-1.0039062,-0.0068359375,-0.11328125,-18.4375,4.96875,11.9375
554,554,1727997516732,-0.9658203,-0.0107421875,-0.12890625,-21.4375,7.0625,11.4375
555,555,1727997516772,-1.0380859,-0.022460938,-0.13769531,-15.28125,2.15625,6.4375
556,556,1727997516812,-1.1347656,-0.061523438,-0.14550781,12.625,1.875,3.3125
557,557,1727997516852,-1.2275391,0.0107421875,-0.16796875,42.875,-3.375,-7.0
558,558,1727997516892,-1.1025391,0.18457031,-0.111328125,-34.5625,-0.34375,-38.125
559,559,1727997516932,-0.93652344,0.43066406,0.12890625,-115.1875,-165.875,-38.0625
560,560,1727997516972,-0.9082031,0.31835938,-0.020507812,-170.625,-95.96875,-50.375
561,561,1727997517012,-1.2246094,0.1171875,-0.033203125,-32.1875,-71.75,-35.625
562,562,1727997517052,-1.1835938,-0.18261719,-0.04296875,-75.53125,-30.90625,-42.34375
563,563,1727997517092,-0.97558594,-0.15136719,0.038085938,-37.90625,-44.34375,-36.34375
564,564,1727997517132,-0.8769531,-0.040039062,0.14160156,47.59375,-41.15625,-31.21875
565,565,1727997517172,-0.8046875,0.18261719,0.13769531,39.90625,-34.40625,-33.65625
566,566,1727997517212,-0.79296875,0.22460938,0.19140625,34.28125,-14.8125,-24.625
567,567,1727997517252,-0.7998047,0.17675781,0.09277344,10.25,-10.28125,-9.0
568,568,1727997517292,-0.7919922,0.11328125,0.06542969,-16.5,11.5625,8.34375
569,569,1727997517332,-0.8671875,-0.14550781,0.1484375,-14.90625,27.0,18.28125
570,570,1727997517372,-0.8808594,-0.3779297,0.12597656,1.75,30.1875,13.21875
571,571,1727997517412,-0.9794922,-0.31152344,0.25097656,38.9375,29.21875,20.59375
572,572,1727997517452,-1.0615234,-0.078125,0.3173828,50.75,17.25,2.21875
573,573,1727997517492,-1.0439453,-0.109375,0.35351562,45.15625,7.21875,-21.75
574,574,1727997517532,-0.5830078,0.015625,0.24609375,-17.90625,30.65625,-17.78125
575,575,1727997517572,-0.8330078,0.11425781,0.17480469,-40.3125,85.84375,21.21875
576,576,1727997517612,-1.9853516,0.1640625,0.41601562,-27.46875,36.46875,30.78125
577,577,1727997517652,-1.0205078,0.1875,-0.12207031,101.0625,-50.375,8.75
578,578,1727997517692,-0.4453125,0.0087890625,-0.296875,-28.8125,24.625,19.125
579,579,1727997517732,-1.1494141,0.2783203,0.56640625,-87.125,112.34375,32.875
580,580,1727997517772,-0.9941406,-0.025390625,-0.296875,64.75,-62.78125,35.0
581,581,1727997517812,-0.8330078,-0.09667969,-0.19335938,45.46875,4.4375,25.59375
582,582,1727997517852,-1.0058594,0.055664062,-0.10253906,84.6875,8.21875,8.6875
583,583,1727997517892,-1.0664062,0.14746094,-0.13671875,7.5625,27.8125,1.1875
584,584,1727997517932,-0.9433594,-0.017578125,-0.11328125,-5.09375,30.5625,4.71875
585,585,1727997517972,-0.9277344,-0.017578125,-0.13085938,23.46875,23.78125,5.46875
586,586,1727997518012,-0.9199219,0.08984375,-0.028320312,16.21875,36.21875,-0.09375
587,587,1727997518052,-1.0263672,0.13574219,-0.013671875,-25.21875,16.03125,-4.1875
588,588,1727997518092,-1.0244141,0.13964844,-0.07910156,-9.40625,10.15625,2.40625
589,589,1727997518132,-0.9863281,0.049804688,-0.07421875,-13.09375,9.375,7.46875
590,590,1727997518172,-0.9736328,0.0107421875,-0.09765625,18.34375,1.375,9.78125
591,591,1727997518212,-0.953125,0.01953125,-0.123046875,28.59375,7.0,11.6875
592,592,1727997518252,-0.97753906,0.0390625,-0.095703125,19.21875,11.09375,11.625
593,593,1727997518292,-0.97265625,0.03125,-0.08300781,-15.09375,12.4375,8.8125
594,594,1727997518332,-0.9941406,0.0234375,-0.078125,-16.4375,13.34375,9.0625
595,595,1727997518372,-0.9511719,-0.0087890625,-0.072265625,-1.40625,13.15625,12.46875
596,596,1727997518412,-1.0556641,-0.057617188,-0.11230469,5.65625,4.5,8.875
597,597,1727997518452,-1.1601562,-0.07519531,-0.14746094,25.125,-6.125,4.78125
598,598,1727997518492,-1.2402344,0.0087890625,-0.19335938,47.53125,-10.90625,-5.9375
599,599,1727997518532,-1.0302734,0.17285156,-0.115234375,-19.71875,-1.75,-32.6875
600,600,1727997518572,-0.9316406,0.2626953,0.07519531,-141.4375,-148.46875,-42.03125
601,601,1727997518612,-0.8564453,0.2421875,-0.026367188,-101.59375,-88.78125,-44.9375
602,602,1727997518652,-1.2636719,0.11035156,-0.024414062,-25.15625,-77.90625,-35.5625
603,603,1727997518692,-1.2001953,-0.08300781,-0.08691406,-60.8125,-27.96875,-44.03125
604,604,1727997518732,-0.99902344,-0.053710938,-0.009765625,-28.34375,-25.125,-33.96875
605,605,1727997518772,-0.83203125,-0.1015625,0.059570312,44.21875,-0.53125,-29.28125
606,606,1727997518812,-0.8828125,0.049804688,0.14648438,37.34375,-7.21875,-30.625
607,607,1727997518852,-0.8535156,0.053710938,0.12402344,69.25,0.9375,-33.59375
608,608,1727997518892,-0.8623047,0.24511719,0.12792969,59.5625,-13.28125,-23.71875
609,609,1727997518932,-0.7783203,0.2421875,0.12011719,-2.59375,9.6875,-2.84375
610,610,1727997518972,-0.8378906,-0.009765625,0.12792969,-29.0,27.0,10.28125
611,611,1727997519012,-0.9042969,-0.3125,0.07519531,-12.71875,31.90625,11.1875
612,612,1727997519052,-0.99902344,-0.3408203,0.099609375,30.875,22.625,15.15625
613,613,1727997519092,-0.9628906,-0.20019531,0.09277344,62.3125,18.84375,2.90625
614,614,1727997519132,-0.96777344,-0.15820312,0.2548828,43.875,11.5625,-6.75
615,615,1727997519172,-1.0527344,-0.20410156,0.38085938,38.375,2.53125,-17.90625
616,616,1727997519212,-0.8535156,0.052734375,0.15625,10.0,17.71875,-3.21875
617,617,1727997519252,-1.3496094,0.55078125,0.21875,5.0625,36.03125,38.0625
618,618,1727997519292,-1.4355469,-0.0078125,0.33984375,-6.59375,-21.9375,32.75
619,619,1727997519332,-0.59375,0.038085938,-0.37402344,-48.71875,8.03125,8.4375
620,620,1727997519372,-0.74902344,0.16210938,0.00390625,-60.0625,31.59375,39.28125
621,621,1727997519412,-1.1738281,-0.09082031,-0.16210938,-31.03125,-14.4375,38.0
622,622,1727997519452,-0.87402344,-0.04296875,-0.2578125,30.4375,23.96875,29.625
623,623,1727997519492,-0.8876953,-0.0078125,-0.0859375,79.4375,47.21875,14.96875
624,624,1727997519532,-1.1142578,0.40527344,0.31152344,-14.46875,-14.75,6.3125
625,625,1727997519572,-0.98828125,0.14550781,-0.08496094,17.125,-8.5625,14.3125
626,626,1727997519612,-0.97265625,0.0234375,-0.2607422,-15.53125,-20.65625,9.0625
627,627,1727997519652,-0.92871094,-0.0546875,-0.24316406,18.125,20.90625,7.71875
628,628,1727997519692,-0.9355469,-0.03515625,-0.12792969,5.53125,39.8125,0.6875
629,629,1727997519732,-1.0097656,0.18945312,0.14746094,-80.34375,46.0,-9.5625
630,630,1727997519772,-1.0214844,0.13085938,-0.07324219,-25.65625,-1.0,3.5
631,631,1727997519812,-0.9892578,0.12402344,-0.059570312,-13.6875,14.375,6.75
632,632,1727997519852,-0.96484375,0.06347656,-0.07421875,-17.34375,9.25,12.25
633,633,1727997519892,-1.0078125,-0.015625,-0.095703125,22.9375,9.0,19.25
634,634,1727997519932,-0.9902344,-0.06640625,-0.018554688,28.5,11.875,16.875
635,635,1727997519972,-0.98535156,0.041015625,-0.057617188,-8.9375,10.46875,9.1875
636,636,1727997520012,-0.9716797,0.013671875,-0.055664062,-26.5625,6.3125,9.3125
637,637,1727997520052,-0.9873047,-0.00390625,-0.07910156,-8.625,0.8125,11.25
638,638,1727997520092,-0.9746094,-0.032226562,-0.0703125,5.96875,1.25,13.34375
639,639,1727997520132,-1.0439453,-0.09277344,-0.13476562,17.75,-10.21875,8.4375
640,640,1727997520172,-1.1025391,-0.080078125,-0.16699219,35.5,-14.96875,-8.03125
641,641,1727997520212,-1.1308594,0.08105469,-0.18554688,17.375,-7.53125,-27.5625
642,642,1727997520252,-1.0683594,0.2529297,-0.13085938,-108.34375,10.59375,-48.375
643,643,1727997520292,-0.9238281,0.47070312,0.328125,32.5,-130.28125,3.5
644,644,1727997520332,-0.9267578,0.107421875,0.20507812,-106.40625,-59.0,-25.0
645,645,1727997520372,-0.953125,0.07324219,-0.07324219,-53.59375,-90.1875,-23.53125
646,646,1727997520412,-1.1445312,-0.048828125,-0.051757812,-49.28125,-51.0,-39.53125
647,647,1727997520452,-1.15625,0.059570312,0.091796875,-43.15625,-15.59375,-48.5
648,648,1727997520492,-0.9082031,0.051757812,0.037109375,-29.0625,-16.15625,-26.15625
649,649,1727997520532,-0.8652344,0.032226562,0.16210938,22.6875,-10.78125,-25.375
650,650,1727997520572,-0.875,0.01171875,0.15917969,42.09375,-13.28125,-25.65625
651,651,1727997520612,-0.88378906,0.07519531,0.18847656,43.875,-6.8125,-26.875
652,652,1727997520652,-0.83203125,0.17675781,0.10644531,26.59375,-2.21875,-14.75
653,653,1727997520692,-0.80371094,0.07910156,0.09863281,-2.65625,12.59375,3.5
654,654,1727997520732,-0.8613281,-0.07714844,0.115234375,-2.9375,24.3125,15.34375
655,655,1727997520772,-0.9296875,-0.29882812,0.11035156,9.5625,28.09375,14.25
656,656,1727997520812,-1.0419922,-0.27929688,0.26367188,47.46875,13.15625,9.84375
657,657,1727997520852,-0.96777344,-0.13574219,0.22363281,47.59375,3.8125,-2.59375
658,658,1727997520892,-0.9433594,-0.015625,0.30371094,29.21875,0.9375,-10.34375
659,659,1727997520932,-0.79589844,0.0146484375,0.21289062,-1.90625,24.3125,-3.21875
660,660,1727997520972,-1.0888672,0.16503906,0.111328125,-20.03125,49.84375,18.71875
661,661,1727997521012,-1.8085938,0.12597656,0.5361328,-4.09375,15.65625,30.375
662,662,1727997521052,-0.87402344,0.052734375,-0.19921875,20.96875,-16.3125,-2.09375
663,663,1727997521092,-0.47558594,0.13574219,-0.25097656,-38.90625,29.03125,21.40625
664,664,1727997521132,-1.1943359,0.24414062,0.24023438,-16.75,48.125,37.625
665,665,1727997521172,-1.1025391,-0.13867188,-0.24707031,2.78125,1.6875,35.84375
666,666,1727997521212,-0.8515625,-0.16015625,0.0048828125,34.71875,39.03125,24.9375
667,667,1727997521252,-1.0273438,0.21875,0.056640625,47.65625,4.0625,6.8125
668,668,1727997521292,-1.0283203,0.17871094,-0.06640625,52.96875,3.09375,7.84375
669,669,1727997521332,-0.97753906,0.047851562,-0.15234375,10.3125,-8.4375,6.375
670,670,1727997521372,-0.9716797,0.0009765625,-0.19921875,23.59375,8.15625,9.375
671,671,1727997521412,-0.92578125,0.009765625,-0.09082031,31.90625,32.875,5.46875
672,672,1727997521452,-0.9736328,0.12109375,-0.053710938,-6.59375,23.84375,-2.90625
673,673,1727997521492,-1.0068359,0.14355469,-0.022460938,-35.0625,20.0625,-2.09375
674,674,1727997521532,-0.9794922,0.07714844,-0.083984375,-25.40625,11.03125,1.5
675,675,1727997521572,-0.9736328,0.055664062,-0.078125,-6.125,9.5625,6.5
676,676,1727997521612,-0.9746094,0.034179688,-0.083984375,8.71875,9.8125,10.90625
677,677,1727997521652,-0.96484375,0.03515625,-0.07519531,13.78125,12.46875,13.28125
678,678,1727997521692,-0.98535156,0.025390625,-0.07714844,20.0,16.15625,13.09375
679,679,1727997521732,-0.9785156,0.013671875,-0.07421875,15.375,16.5625,11.6875
680,680,1727997521772,-0.9746094,-0.0087890625,-0.076171875,-0.3125,14.3125,11.0625
681,681,1727997521812,-1.0107422,-0.057617188,-0.103515625,-9.1875,3.625,4.78125
682,682,1727997521852,-1.1552734,-0.040039062,-0.16308594,-13.4375,-9.3125,-8.09375
683,683,1727997521892,-1.1787109,0.049804688,-0.20605469,-4.78125,-18.34375,-16.625
684,684,1727997521932,-1.0878906,0.1953125,-0.15625,-62.09375,-5.46875,-35.5625
685,685,1727997521972,-1.1005859,0.34472656,0.9160156,-124.90625,-121.125,-51.0
686,686,1727997522012,-0.8457031,0.2841797,-0.021484375,-118.65625,-107.21875,-27.5
687,687,1727997522052,-1.1611328,-0.0078125,-0.057617188,-42.8125,-71.6875,-31.84375
688,688,1727997522092,-1.1953125,-0.16699219,-0.07421875,-65.03125,-29.9375,-42.28125
689,689,1727997522132,-1.0195312,-0.0068359375,0.005859375,-59.15625,-16.03125,-41.53125
690,690,1727997522172,-0.8388672,0.0068359375,0.041992188,50.75,-8.75,-28.09375
691,691,1727997522212,-0.8886719,-0.020507812,0.13964844,56.875,-22.96875,-25.96875
692,692,1727997522252,-0.8828125,0.119140625,0.19921875,35.5625,-13.8125,-26.9375
693,693,1727997522292,-0.86328125,0.20117188,0.13085938,32.28125,-9.71875,-17.25
694,694,1727997522332,-0.81640625,0.17578125,0.07324219,5.21875,-5.78125,-0.34375
695,695,1727997522372,-0.86816406,-0.0625,0.13378906,-3.875,12.0625,9.75
696,696,1727997522412,-0.9111328,-0.328125,0.09277344,-5.3125,19.5,5.15625
697,697,1727997522452,-0.921875,-0.2861328,0.140625,28.78125,15.03125,11.4375
698,698,1727997522492,-0.9785156,-0.107421875,0.23828125,61.125,0.40625,6.8125
699,699,1727997522532,-0.94628906,-0.053710938,0.26660156,54.5625,-5.40625,-1.375
700,700,1727997522572,-0.9199219,0.0009765625,0.33984375,11.21875,8.875,-7.40625
701,701,1727997522612,-0.79785156,0.013671875,0.23632812,-11.4375,32.75,4.78125
702,702,1727997522652,-0.92578125,0.041992188,0.16601562,-27.25,52.46875,24.375
703,703,1727997522692,-1.84375,0.109375,0.2705078,10.25,28.71875,30.59375
704,704,1727997522732,-1.1689453,-0.041015625,0.13964844,42.46875,-37.625,-4.25
705,705,1727997522772,-0.3544922,0.12890625,-0.37695312,-48.28125,21.09375,0.59375
706,706,1727997522812,-1.0361328,0.42285156,0.47753906,-54.46875,105.25,20.53125
707,707,1727997522852,-1.1533203,-0.037109375,-0.31347656,16.71875,-21.21875,41.96875
708,708,1727997522892,-0.84765625,-0.15625,-0.13085938,49.46875,26.21875,35.375
709,709,1727997522932,-0.96777344,0.04296875,0.0126953125,47.53125,26.34375,3.15625
710,710,1727997522972,-1.0771484,0.24121094,-0.061523438,39.09375,1.75,4.5
711,711,1727997523012,-0.98535156,0.06933594,-0.119140625,5.84375,4.84375,5.46875
712,712,1727997523052,-0.9501953,0.024414062,-0.18261719,21.21875,7.53125,9.3125
713,713,1727997523092,-0.9355469,-0.026367188,-0.056640625,22.75,31.78125,6.0
714,714,1727997523132,-0.9863281,0.12011719,0.03515625,-19.90625,9.125,-3.3125
715,715,1727997523172,-1.0087891,0.11328125,-0.0859375,-11.75,8.34375,1.125
716,716,1727997523212,-1.0126953,0.059570312,-0.06542969,-1.1875,10.03125,4.84375
717,717,1727997523252,-0.9814453,0.040039062,-0.083984375,7.625,9.96875,6.4375
718,718,1727997523292,-0.98535156,0.036132812,-0.07714844,11.09375,12.46875,8.34375
719,719,1727997523332,-0.98046875,0.045898438,-0.0703125,14.21875,13.8125,7.71875
720,720,1727997523372,-0.99316406,0.04296875,-0.044921875,1.09375,13.53125,5.15625
721,721,1727997523412,-0.9863281,0.044921875,-0.059570312,-19.78125,10.21875,4.5
722,722,1727997523452,-0.98339844,0.018554688,-0.07714844,-19.65625,6.0625,6.5625
723,723,1727997523492,-0.9736328,0.021484375,-0.07910156,-10.46875,4.625,8.40625
724,724,1727997523532,-0.97558594,0.021484375,-0.08105469,-13.09375,4.0625,9.90625
725,725,1727997523572,-1.0117188,-0.033203125,-0.09375,-5.6875,1.0,8.6875
726,726,1727997523612,-1.0595703,-0.049804688,-0.14453125,5.71875,-8.03125,4.3125
727,727,1727997523652,-1.1191406,-0.041992188,-0.19628906,10.65625,-13.03125,-6.625
728,728,1727997523692,-1.0234375,0.11035156,-0.20703125,-26.1875,1.375,-28.59375
729,729,1727997523732,-0.93066406,0.2421875,-0.12109375,-147.21875,30.3125,-43.625
730,730,1727997523772,-1.0693359,0.43652344,0.7011719,237.34375,-111.90625,8.75
731,731,1727997523812,-1.0878906,0.07519531,0.02734375,-130.4375,-97.9375,-9.6875
732,732,1727997523852,-1.0097656,0.022460938,0.053710938,-51.40625,-111.1875,-21.40625
733,733,1727997523892,-1.171875,-0.041992188,-0.018554688,-33.53125,-73.9375,-34.40625
734,734,1727997523932,-1.1123047,-0.12597656,-0.0126953125,-38.59375,-30.0,-49.65625
735,735,1727997523972,-0.9941406,0.061523438,0.06640625,-12.46875,-37.1875,-36.40625
736,736,1727997524012,-0.82714844,0.045898438,0.10058594,14.09375,-17.0625,-38.65625
737,737,1727997524052,-0.8544922,-0.09765625,0.1796875,38.6875,-8.9375,-29.625
738,738,1727997524092,-0.90234375,0.0029296875,0.13183594,44.0,-1.90625,-32.375
739,739,1727997524132,-0.78808594,0.15722656,0.10644531,39.46875,4.4375,-18.40625
740,740,1727997524172,-0.79003906,0.05078125,0.09082031,41.96875,8.875,3.375
741,741,1727997524212,-0.7861328,-0.018554688,0.10058594,40.28125,24.6875,19.8125
742,742,1727997524252,-0.8886719,-0.043945312,0.08691406,59.625,38.0625,31.34375
743,743,1727997524292,-1.1113281,-0.0234375,0.35253906,82.4375,25.1875,34.5625
744,744,1727997524332,-1.0615234,-0.171875,0.4169922,110.03125,4.71875,17.90625
745,745,1727997524372,-1.1035156,0.20800781,0.3671875,81.03125,27.5,-4.125
746,746,1727997524412,-1.6962891,0.4736328,0.390625,-29.0,33.59375,-10.21875
747,747,1727997524452,-0.7294922,-0.1015625,0.0546875,-68.8125,0.34375,12.53125
748,748,1727997524492,-1.0068359,-0.068359375,-0.29492188,58.875,-25.59375,14.4375
749,749,1727997524532,-0.83496094,-0.095703125,-0.3330078,135.3125,-14.1875,12.34375
