,Unnamed: 0,timestamp,accel_x,accel_y,accel_z,gyro_x,gyro_y,gyro_z
0,0,1729186540928,-0.6699219,-0.018554688,-0.17089844,117.34375,-65.25,-36.8125
1,1,1729186540968,-0.6826172,0.3466797,-0.3203125,164.90625,-48.96875,-31.03125
2,2,1729186541008,-0.3984375,0.5488281,0.0625,71.21875,-4.96875,-14.96875
3,3,1729186541048,-0.6982422,0.09863281,0.3466797,-13.1875,22.125,-13.125
4,4,1729186541088,-0.9902344,0.22167969,0.6982422,-16.5625,45.46875,-32.0625
5,5,1729186541128,-1.5068359,-0.22851562,1.2412109,7.75,-5.375,-25.21875
6,6,1729186541168,-0.7783203,0.21679688,0.49121094,3.65625,1.625,3.46875
7,7,1729186541208,-1.2128906,0.29589844,0.22753906,41.125,4.375,4.5625
8,8,1729186541248,-1.2949219,1.1054688,-0.25,-110.375,37.03125,14.6875
9,9,1729186541288,-0.5527344,0.32128906,-0.06738281,17.625,53.6875,17.9375
10,10,1729186541328,-0.95703125,-0.20214844,-0.7246094,-152.71875,161.84375,10.1875
11,11,1729186541368,-1.453125,-0.77734375,-0.37597656,-22.28125,97.21875,-1.53125
12,12,1729186541408,-0.95703125,0.15136719,-0.21386719,75.71875,11.75,-19.65625
13,13,1729186541448,-0.8232422,0.4267578,0.049804688,21.34375,57.96875,-20.28125
14,14,1729186541488,-0.84375,0.13964844,0.052734375,-107.0,60.34375,-24.125
15,15,1729186541528,-0.9980469,-0.26757812,-0.115234375,-47.9375,16.09375,-12.96875
16,16,1729186541568,-0.8876953,-0.037109375,-0.07519531,-29.9375,61.6875,-25.46875
17,17,1729186541608,-0.9501953,0.052734375,-0.123046875,-39.9375,55.34375,1.3125
18,18,1729186541648,-1.0,0.1171875,-0.111328125,13.96875,67.0,17.4375
19,19,1729186541688,-1.1083984,-0.0009765625,0.25195312,36.25,48.5,28.71875
20,20,1729186541728,-1.2011719,-0.025390625,0.026367188,-98.46875,14.09375,-3.625
21,21,1729186541768,-1.1054688,0.23828125,0.3544922,-53.78125,3.15625,4.125
22,22,1729186541808,-1.1494141,-0.078125,0.072265625,-51.53125,-45.125,30.5625
23,23,1729186541848,-1.1884766,0.13378906,0.09472656,10.375,-85.71875,50.03125
24,24,1729186541888,-1.4560547,-0.5341797,-0.09765625,30.8125,-173.21875,36.71875
25,25,1729186541928,-1.6044922,0.3564453,-0.14355469,28.125,-145.03125,4.0
26,26,1729186541968,-1.3046875,0.17089844,-0.078125,-50.0625,-103.53125,-5.3125
27,27,1729186542008,-1.0791016,0.17871094,-0.08984375,-94.75,-76.375,-18.15625
28,28,1729186542048,-0.77246094,-0.18457031,0.061523438,207.875,-115.96875,-34.3125
29,29,1729186542088,-0.70996094,0.036132812,-0.28808594,74.3125,-79.90625,-36.5
30,30,1729186542128,-0.53515625,0.07714844,-0.22851562,135.90625,-59.09375,-31.5625
31,31,1729186542168,-0.49414062,0.39453125,-0.08691406,130.59375,-22.78125,-27.78125
32,32,1729186542208,-0.5410156,0.49804688,0.109375,63.8125,27.21875,-29.125
33,33,1729186542248,-1.0146484,0.29101562,0.4794922,-1.34375,29.59375,-41.75
34,34,1729186542288,-1.1943359,0.026367188,1.1425781,55.15625,9.5625,-35.21875
35,35,1729186542328,-1.1113281,0.17382812,0.80566406,-22.46875,-5.5625,-21.25
36,36,1729186542368,-0.84472656,0.024414062,0.66015625,109.0625,-31.5625,2.0625
37,37,1729186542408,-1.2792969,0.3935547,-0.4013672,-80.59375,26.15625,20.375
38,38,1729186542448,-0.8251953,1.2519531,0.21191406,-2.8125,31.59375,-3.6875
39,39,1729186542488,-0.8701172,-0.25195312,-0.6591797,-115.5625,117.78125,39.40625
40,40,1729186542528,-1.8203125,-0.83984375,-0.78125,-56.65625,171.375,12.5
41,41,1729186542568,-0.93652344,0.046875,0.44921875,-6.0625,66.40625,-22.21875
42,42,1729186542608,-0.7529297,0.5097656,-0.10253906,25.8125,65.0625,-28.34375
43,43,1729186542648,-0.8779297,0.20214844,-0.028320312,-58.65625,74.25,-39.875
44,44,1729186542688,-1.0097656,-0.038085938,-0.03515625,-50.75,38.5625,-15.625
45,45,1729186542728,-0.9423828,-0.08203125,0.072265625,-86.6875,88.0,-33.84375
46,46,1729186542768,-0.9453125,-0.083984375,-0.14550781,-31.9375,41.78125,11.65625
47,47,1729186542808,-0.9941406,0.11328125,0.018554688,48.6875,63.15625,14.28125
48,48,1729186542848,-1.1210938,0.048828125,0.09375,-50.5625,27.75,25.3125
49,49,1729186542888,-1.2294922,-0.17089844,-0.11425781,-79.125,5.78125,2.25
50,50,1729186542928,-1.2773438,0.02734375,0.38867188,-53.84375,-12.15625,1.9375
51,51,1729186542968,-1.2412109,0.2685547,0.34277344,-7.53125,-72.78125,44.0
52,52,1729186543008,-1.2871094,-0.10546875,0.359375,4.5625,-167.9375,66.4375
53,53,1729186543048,-1.3408203,-0.25,-0.5683594,43.3125,-207.03125,14.625
54,54,1729186543088,-1.6308594,0.32421875,0.09082031,-25.59375,-111.90625,-0.9375
55,55,1729186543128,-1.2998047,0.34472656,-0.057617188,-95.78125,-100.25,-10.15625
56,56,1729186543168,-0.9501953,-0.17871094,-0.32617188,173.3125,-20.59375,-48.0625
57,57,1729186543208,-0.5957031,-0.061523438,-0.19628906,71.875,-91.5625,-38.40625
58,58,1729186543248,-0.6064453,-0.109375,-0.4345703,146.84375,-43.84375,-50.5625
59,59,1729186543288,-0.4892578,0.34179688,-0.19042969,151.03125,-10.5,-40.71875
60,60,1729186543328,-0.30664062,0.5292969,0.0546875,75.59375,36.4375,-34.25
61,61,1729186543368,-0.81347656,0.13769531,0.34375,20.5,43.875,-41.6875
62,62,1729186543408,-1.6943359,0.5732422,1.0654297,-1.90625,27.875,-53.0
63,63,1729186543448,-0.9667969,0.15820312,1.0957031,42.46875,-70.09375,-6.5
64,64,1729186543488,-0.7783203,-0.040039062,0.21386719,84.21875,26.65625,15.90625
65,65,1729186543528,-1.6210938,0.20996094,-0.33789062,-144.65625,62.125,25.6875
66,66,1729186543568,-0.2265625,0.9511719,-0.59277344,-90.71875,-24.625,-23.34375
67,67,1729186543608,-0.3330078,0.15527344,-0.43066406,-117.625,84.34375,19.09375
68,68,1729186543648,-2.0,-0.55078125,-0.8300781,102.9375,130.65625,48.15625
69,69,1729186543688,-0.890625,-0.3154297,0.61816406,122.90625,56.5625,-11.0
70,70,1729186543728,-0.9160156,0.66796875,0.10058594,-82.0,126.9375,-96.5
71,71,1729186543768,-0.8925781,0.16699219,0.15625,-160.71875,87.5,-32.0625
72,72,1729186543808,-0.88964844,-0.3642578,-0.15917969,-116.90625,66.09375,-7.8125
73,73,1729186543848,-0.92578125,0.017578125,0.045898438,-11.71875,93.5625,0.28125
74,74,1729186543888,-0.94433594,-0.09765625,-0.08984375,-11.0625,56.5625,26.90625
75,75,1729186543928,-1.1162109,-0.049804688,0.115234375,-8.1875,51.9375,22.375
76,76,1729186543968,-1.1660156,-0.045898438,-0.07519531,-57.875,18.0625,-2.40625
77,77,1729186544008,-1.3222656,0.025390625,0.21386719,-63.96875,-5.375,11.53125
78,78,1729186544048,-1.4628906,-0.053710938,0.43164062,-72.28125,-69.09375,25.9375
79,79,1729186544088,-1.2949219,-0.1640625,0.23632812,77.0,-154.5625,51.625
80,80,1729186544128,-1.1982422,0.041015625,-0.41503906,79.875,-225.28125,27.9375
81,81,1729186544168,-1.6640625,0.57714844,-0.08886719,-14.71875,-142.40625,8.53125
82,82,1729186544208,-1.3925781,0.43359375,0.047851562,-102.96875,-107.25,6.34375
83,83,1729186544248,-0.9667969,-0.5605469,-0.328125,161.3125,-28.21875,-47.5
84,84,1729186544288,-0.44628906,-0.0068359375,-0.2861328,35.5625,-91.875,-23.15625
85,85,1729186544328,-0.5371094,-0.23535156,-0.42578125,169.84375,-49.21875,-26.3125
86,86,1729186544368,-0.2578125,0.47265625,-0.47753906,141.71875,-10.09375,-34.0625
87,87,1729186544408,-0.3017578,0.48242188,0.005859375,57.90625,46.375,-27.84375
88,88,1729186544448,-1.2666016,0.49316406,1.3525391,-51.90625,52.78125,-51.96875
89,89,1729186544488,-1.5048828,0.4111328,1.0761719,-41.59375,-12.65625,4.25
90,90,1729186544528,-0.8251953,-0.2265625,0.61328125,16.90625,-24.625,-11.71875
91,91,1729186544568,-0.98339844,0.16210938,0.01171875,-21.5625,57.65625,-10.28125
92,92,1729186544608,-1.7373047,1.2919922,-0.4140625,-158.9375,24.46875,-20.9375
93,93,1729186544648,-0.5517578,-0.22753906,-0.6347656,-70.8125,113.03125,54.78125
94,94,1729186544688,-1.6005859,-1.0097656,-0.73535156,-3.8125,127.90625,-9.0625
95,95,1729186544728,-1.0283203,0.19335938,-0.119140625,0.15625,60.59375,-42.0625
96,96,1729186544768,-0.81347656,0.55078125,0.0234375,46.0625,58.59375,-23.28125
97,97,1729186544808,-0.79003906,0.14550781,0.09472656,-126.96875,82.1875,-21.125
98,98,1729186544848,-1.0273438,-0.16503906,-0.07519531,-56.84375,52.96875,-9.78125
99,99,1729186544888,-0.78222656,-0.0390625,-0.16308594,-119.875,116.375,-33.46875
100,100,1729186544928,-0.8496094,-0.05078125,-0.14160156,-56.96875,79.4375,17.875
101,101,1729186544968,-1.1347656,0.12988281,-0.064453125,5.53125,71.875,19.28125
102,102,1729186545008,-1.1787109,0.01171875,0.37304688,-27.25,30.0,22.1875
103,103,1729186545048,-1.0839844,-0.140625,-0.19140625,-63.96875,-1.3125,13.53125
104,104,1729186545088,-1.2177734,-0.23828125,0.28027344,-70.375,-12.03125,9.3125
105,105,1729186545128,-1.2705078,0.24316406,0.46875,20.0,-49.40625,32.34375
106,106,1729186545168,-1.2412109,-0.25097656,0.19140625,23.125,-128.5625,64.0625
107,107,1729186545208,-1.4609375,-0.328125,-0.56152344,55.65625,-197.46875,21.46875
108,108,1729186545248,-1.6699219,0.49804688,0.11328125,118.34375,-143.9375,-7.28125
109,109,1729186545288,-1.5322266,0.34570312,-0.045898438,-59.53125,-120.9375,-20.09375
110,110,1729186545328,-0.97265625,0.171875,-0.3173828,-129.46875,-80.40625,-35.40625
111,111,1729186545368,-0.7451172,-0.20507812,0.041015625,163.25,-110.1875,-55.625
112,112,1729186545408,-0.44921875,0.1015625,-0.33398438,109.90625,-64.03125,-39.5625
113,113,1729186545448,-0.56152344,0.16308594,-0.3076172,174.65625,-33.03125,-20.21875
114,114,1729186545488,-0.2607422,0.5253906,-0.171875,142.6875,-10.15625,-27.84375
115,115,1729186545528,-0.51953125,0.171875,0.27539062,45.28125,24.09375,-26.6875
116,116,1729186545568,-1.25,0.30371094,0.8330078,-5.75,33.375,-57.4375
117,117,1729186545608,-1.5205078,0.3076172,1.1689453,23.4375,-49.875,-28.09375
118,118,1729186545648,-0.94433594,0.10058594,0.64160156,20.0,-36.875,15.3125
119,119,1729186545688,-2.0,0.23535156,0.51464844,23.0,-30.34375,44.78125
120,120,1729186545728,-0.13867188,0.41308594,-1.125,-53.65625,13.65625,49.1875
121,121,1729186545768,-0.08203125,0.36035156,-0.578125,-237.0625,130.84375,-46.28125
122,122,1729186545808,-1.8251953,-0.017578125,-0.82128906,-174.21875,192.78125,51.6875
123,123,1729186545848,-1.1523438,-0.9794922,0.18945312,40.34375,67.625,6.8125
124,124,1729186545888,-0.7207031,0.2421875,-0.034179688,80.84375,34.53125,-8.375
125,125,1729186545928,-0.9355469,0.14550781,0.13769531,-1.84375,97.53125,-46.21875
126,126,1729186545968,-0.89746094,0.015625,0.05078125,-118.96875,68.09375,-32.90625
127,127,1729186546008,-0.765625,0.07519531,-0.040039062,-104.25,62.84375,-30.03125
128,128,1729186546048,-0.9121094,-0.14453125,-0.028320312,-67.28125,70.65625,7.1875
129,129,1729186546088,-0.96484375,-0.06738281,-0.12890625,-34.1875,76.875,18.21875
130,130,1729186546128,-1.0283203,0.28125,0.17675781,58.09375,76.40625,15.5625
131,131,1729186546168,-1.265625,-0.095703125,0.10546875,-95.46875,8.46875,17.0
132,132,1729186546208,-1.2988281,-0.25,0.18945312,-33.84375,-3.25,-4.96875
133,133,1729186546248,-1.3466797,0.022460938,0.34472656,-33.71875,-61.65625,21.15625
134,134,1729186546288,-1.2294922,-0.013671875,0.25683594,25.0,-139.40625,53.75
135,135,1729186546328,-1.2792969,-0.65234375,-0.82128906,36.1875,-192.9375,25.875
136,136,1729186546368,-1.9033203,0.49902344,0.20605469,31.46875,-122.09375,-12.96875
137,137,1729186546408,-1.4443359,0.4560547,-0.15136719,-39.0625,-132.59375,-25.59375
138,138,1729186546448,-0.9736328,0.033203125,-0.4580078,-46.65625,-79.125,-36.46875
139,139,1729186546488,-0.5546875,-0.16015625,-0.0546875,90.125,-123.4375,-45.3125
140,140,1729186546528,-0.5097656,-0.109375,-0.44628906,161.71875,-90.09375,-26.8125
141,141,1729186546568,-0.5410156,0.1640625,-0.32714844,196.8125,-43.59375,-19.25
142,142,1729186546608,-0.21191406,0.5996094,-0.0546875,118.75,-1.90625,-34.6875
143,143,1729186546648,-0.5048828,0.053710938,0.25878906,-12.03125,48.5625,-32.84375
144,144,1729186546688,-1.3710938,0.50683594,0.8496094,-37.75,71.40625,-54.6875
145,145,1729186546728,-1.3525391,0.119140625,1.3828125,69.875,-67.9375,4.125
146,146,1729186546768,-0.67871094,0.095703125,0.54296875,34.96875,-11.90625,-7.21875
147,147,1729186546808,-1.1347656,0.25976562,0.043945312,14.5,17.25,19.8125
148,148,1729186546848,-1.1054688,1.4394531,-0.7207031,-175.5,7.1875,23.84375
149,149,1729186546888,-0.68066406,-0.4345703,-0.4345703,-75.9375,80.3125,45.21875
150,150,1729186546928,-1.3847656,-0.3408203,-0.51464844,-254.21875,224.90625,-14.71875
151,151,1729186546968,-1.2792969,-0.6611328,-0.13964844,47.65625,100.6875,1.3125
152,152,1729186547008,-0.78125,0.41796875,-0.23144531,83.53125,7.96875,-24.78125
153,153,1729186547048,-0.9267578,0.47460938,0.024414062,-7.78125,71.03125,-20.21875
154,154,1729186547088,-0.7138672,-0.14355469,0.11425781,-166.03125,68.15625,-21.6875
155,155,1729186547128,-0.95410156,-0.32910156,-0.13769531,-133.5625,78.125,-35.15625
156,156,1729186547168,-0.8964844,-0.11035156,0.09375,-52.8125,89.65625,-13.25
157,157,1729186547208,-0.99902344,0.11035156,-0.036132812,-16.6875,64.4375,16.21875
158,158,1729186547248,-0.9082031,0.00390625,0.001953125,-16.0,48.5,24.28125
159,159,1729186547288,-1.1376953,0.041015625,-0.038085938,-54.9375,45.15625,16.03125
160,160,1729186547328,-1.3125,-0.35742188,0.14550781,-61.46875,12.75,15.4375
161,161,1729186547368,-1.3925781,0.0078125,0.37695312,-40.0,-30.40625,8.46875
162,162,1729186547408,-1.3583984,-0.07910156,0.1640625,2.84375,-87.65625,38.8125
163,163,1729186547448,-1.3125,-0.36328125,0.20703125,63.71875,-211.1875,57.25
164,164,1729186547488,-1.2636719,0.15429688,-0.57421875,19.21875,-185.875,-2.15625
165,165,1729186547528,-1.5488281,0.33496094,0.03125,-32.5625,-120.6875,-2.28125
166,166,1729186547568,-1.2050781,0.33398438,-0.21386719,-100.125,-100.0,-27.1875
167,167,1729186547608,-0.76464844,-0.5263672,0.12109375,203.125,-128.875,-58.4375
168,168,1729186547648,-0.58496094,0.015625,-0.3935547,94.21875,-92.84375,-38.40625
169,169,1729186547688,-0.5205078,-0.09863281,-0.3359375,171.1875,-41.28125,-38.03125
170,170,1729186547728,-0.33984375,0.578125,-0.13769531,143.84375,-12.90625,-34.8125
171,171,1729186547768,-0.32226562,0.39746094,0.119140625,60.90625,19.8125,-20.21875
172,172,1729186547808,-1.0009766,0.2607422,0.5654297,-31.15625,48.9375,-36.15625
173,173,1729186547848,-1.7548828,0.21289062,1.2197266,17.625,20.5,-18.5625
174,174,1729186547888,-0.7265625,0.001953125,0.95996094,32.8125,-45.375,-15.46875
175,175,1729186547928,-0.95703125,0.11328125,0.5263672,70.84375,9.6875,6.6875
176,176,1729186547968,-1.4794922,0.25097656,-0.21484375,-116.03125,31.125,-3.0
177,177,1729186548008,-0.48632812,1.2294922,-0.11621094,69.5,30.6875,5.90625
178,178,1729186548048,-1.0439453,-0.44433594,-0.64746094,-155.59375,134.4375,58.59375
179,179,1729186548088,-1.6269531,-0.5449219,-0.859375,-178.96875,172.34375,-22.84375
180,180,1729186548128,-1.0722656,-0.07324219,0.083984375,54.0,58.875,-10.09375
181,181,1729186548168,-0.9003906,0.5107422,0.04296875,144.625,54.375,-6.71875
182,182,1729186548208,-0.890625,0.18652344,0.026367188,-45.96875,84.09375,-41.15625
183,183,1729186548248,-1.0458984,-0.06542969,-0.087890625,-129.71875,40.875,-16.125
184,184,1729186548288,-0.7636719,-0.24804688,-0.052734375,-116.90625,76.09375,-27.90625
185,185,1729186548328,-0.9189453,-0.0107421875,-0.076171875,-20.875,72.3125,11.9375
186,186,1729186548368,-0.97753906,-0.0234375,-0.0009765625,23.0625,72.5625,25.5625
187,187,1729186548408,-1.0664062,0.009765625,0.18945312,-9.21875,55.90625,21.71875
188,188,1729186548448,-1.1738281,0.051757812,0.083984375,-105.0625,29.65625,-1.1875
189,189,1729186548488,-1.2675781,-0.18554688,0.2890625,-68.1875,-12.65625,9.625
190,190,1729186548528,-1.4472656,0.025390625,0.421875,-45.71875,-72.46875,34.03125
191,191,1729186548568,-1.4228516,-0.66308594,-0.33984375,5.46875,-170.59375,46.0625
192,192,1729186548608,-1.2490234,0.13085938,-0.22070312,90.5,-170.90625,6.21875
193,193,1729186548648,-1.6494141,0.078125,-0.18457031,27.75,-146.3125,-4.90625
194,194,1729186548688,-1.5078125,0.32714844,-0.0146484375,-36.34375,-103.03125,-29.1875
195,195,1729186548728,-0.84765625,0.036132812,-0.74121094,-36.21875,-73.75,-46.78125
196,196,1729186548768,-0.7314453,-0.0126953125,-0.07128906,112.28125,-124.03125,-37.25
197,197,1729186548808,-0.50097656,-0.056640625,-0.39257812,155.0625,-78.75,-37.75
198,198,1729186548848,-0.48242188,0.22949219,-0.21386719,159.34375,-36.5,-19.71875
199,199,1729186548888,-0.2529297,0.51464844,-0.107421875,90.75,2.1875,-20.53125
200,200,1729186548928,-0.671875,0.25683594,0.34179688,-11.0,43.4375,-29.0625
201,201,1729186548968,-1.3496094,0.19726562,0.953125,-4.34375,33.5625,-50.96875
202,202,1729186549008,-1.2597656,-0.015625,1.3115234,56.5625,-49.875,-19.0625
203,203,1729186549048,-0.64941406,0.043945312,0.55566406,43.25,-9.125,-0.8125
204,204,1729186549088,-1.0791016,0.2939453,-0.0625,37.34375,43.0625,24.71875
205,205,1729186549128,-1.6894531,2.0,-0.12207031,-224.6875,1.6875,27.28125
206,206,1729186549168,-0.84375,-0.43066406,-0.765625,-80.59375,67.78125,78.0625
207,207,1729186549208,-1.1279297,-0.3154297,-0.9277344,-271.5,223.3125,-19.0
208,208,1729186549248,-1.4423828,-0.7675781,-0.4814453,39.09375,107.34375,-7.65625
209,209,1729186549288,-0.8925781,0.21972656,-0.24414062,126.5,8.96875,-12.34375
210,210,1729186549328,-0.7890625,0.4248047,-0.015625,33.5,91.34375,-26.125
211,211,1729186549368,-0.85546875,0.16503906,0.18554688,-165.125,82.9375,-48.53125
212,212,1729186549408,-0.890625,-0.022460938,-0.04296875,-94.4375,42.71875,-27.96875
213,213,1729186549448,-0.7714844,-0.07421875,-0.123046875,-33.28125,95.0625,-6.53125
214,214,1729186549488,-1.0361328,-0.07519531,0.087890625,41.0,72.375,27.875
215,215,1729186549528,-1.0869141,0.060546875,0.11425781,-22.0625,42.84375,19.15625
216,216,1729186549568,-1.2558594,-0.080078125,-0.119140625,-86.5625,12.6875,9.09375
217,217,1729186549608,-1.3974609,-0.08886719,0.33691406,-29.5625,9.625,8.28125
218,218,1729186549648,-1.5849609,-0.08691406,0.06933594,-44.75,-60.3125,27.9375
219,219,1729186549688,-1.3554688,0.31640625,0.37695312,62.71875,-135.625,6.09375
220,220,1729186549728,-1.1669922,-0.0859375,-0.5917969,70.65625,-201.6875,32.46875
221,221,1729186549768,-1.6679688,0.28808594,0.10449219,29.53125,-128.6875,9.03125
222,222,1729186549808,-1.4013672,0.43847656,-0.036132812,-101.03125,-128.875,-4.71875
223,223,1729186549848,-1.015625,-0.50390625,-0.26757812,238.03125,-40.25,-39.4375
224,224,1729186549888,-0.4921875,0.15917969,-0.2548828,58.21875,-144.53125,-32.5625
225,225,1729186549928,-0.5019531,-0.11425781,-0.2685547,160.6875,-100.71875,-26.25
226,226,1729186549968,-0.37402344,0.34375,-0.19335938,154.09375,-34.4375,-30.21875
227,227,1729186550008,-0.22265625,0.4140625,0.037109375,84.09375,23.71875,-32.3125
228,228,1729186550048,-0.5722656,0.13476562,0.5126953,-25.65625,57.53125,-39.5625
229,229,1729186550088,-1.7773438,0.4189453,1.2304688,-41.9375,46.0,-66.71875
230,230,1729186550128,-0.8964844,0.171875,1.1425781,47.90625,-86.0,13.34375
231,231,1729186550168,-0.6015625,0.11328125,0.59277344,72.96875,-2.40625,8.84375
232,232,1729186550208,-1.6542969,0.34765625,-0.16699219,-75.15625,20.84375,20.0
233,233,1729186550248,-0.21679688,1.1113281,-0.66015625,27.03125,-1.84375,23.1875
234,234,1729186550288,-1.0683594,-0.29296875,-0.7216797,-242.375,161.59375,21.21875
235,235,1729186550328,-1.6152344,-0.65722656,-0.9736328,-291.09375,272.09375,-36.40625
236,236,1729186550368,-1.1279297,-0.33789062,0.39746094,29.9375,54.96875,2.375
237,237,1729186550408,-0.7939453,0.5751953,0.21679688,200.1875,16.71875,-0.4375
238,238,1729186550448,-0.88183594,0.234375,0.022460938,-25.28125,92.9375,-36.875
239,239,1729186550488,-0.9316406,-0.055664062,0.034179688,-115.625,61.25,-22.84375
240,240,1729186550528,-0.84765625,-0.06738281,0.041992188,-73.0,85.96875,-25.40625
241,241,1729186550568,-0.9267578,-0.045898438,0.025390625,-6.96875,47.40625,20.625
242,242,1729186550608,-0.9824219,-0.140625,0.041015625,-9.96875,69.25,19.40625
243,243,1729186550648,-1.1689453,0.107421875,0.15234375,-67.15625,50.8125,9.03125
244,244,1729186550688,-1.3691406,-0.22460938,0.125,-72.03125,19.21875,13.90625
245,245,1729186550728,-1.4785156,0.024414062,0.24609375,-97.5625,-28.21875,-1.59375
246,246,1729186550768,-1.5507812,0.22265625,0.6123047,43.8125,-108.78125,51.125
247,247,1729186550808,-1.1025391,-0.40820312,-0.48535156,16.59375,-180.0,17.375
248,248,1729186550848,-1.5712891,-0.025390625,-0.27929688,37.75,-168.46875,7.4375
249,249,1729186550888,-1.3457031,0.3671875,-0.044921875,11.75,-114.46875,-8.5625
250,250,1729186550928,-1.046875,0.16992188,-0.18554688,-84.25,-90.96875,-30.59375
251,251,1729186550968,-0.8232422,-0.32226562,-0.17675781,206.78125,-93.59375,-63.90625
252,252,1729186551008,-0.57128906,-0.04296875,-0.4326172,115.78125,-94.5,-39.5
253,253,1729186551048,-0.44628906,0.0029296875,-0.2578125,201.40625,-63.1875,-24.1875
254,254,1729186551088,-0.20605469,0.67871094,-0.14160156,130.40625,-15.46875,-32.71875
255,255,1729186551128,-0.33789062,0.3232422,0.15039062,24.15625,41.96875,-19.96875
256,256,1729186551168,-1.4345703,0.328125,0.90527344,-25.46875,51.8125,-41.8125
257,257,1729186551208,-1.7285156,0.2685547,1.3525391,28.90625,-34.9375,-2.625
258,258,1729186551248,-0.5859375,0.123046875,0.5214844,14.625,-3.1875,5.59375
259,259,1729186551288,-1.2275391,0.14648438,-0.099609375,-38.65625,38.5,33.6875
260,260,1729186551328,-1.3310547,1.2373047,-0.5888672,-181.15625,-11.1875,16.65625
261,261,1729186551368,-0.4765625,-0.12109375,-0.6953125,-134.84375,112.53125,26.15625
262,262,1729186551408,-1.7763672,-0.56933594,-0.88671875,-140.75,198.40625,10.78125
263,263,1729186551448,-1.3105469,-0.4560547,0.34472656,82.75,84.8125,-0.0625
264,264,1729186551488,-0.7480469,0.54003906,-0.11816406,100.8125,36.84375,-28.34375
265,265,1729186551528,-0.6640625,0.38378906,0.14453125,-183.65625,116.9375,-66.25
266,266,1729186551568,-0.8154297,-0.038085938,-0.20996094,-137.59375,49.1875,-19.25
267,267,1729186551608,-0.8730469,0.047851562,-0.05078125,-69.46875,103.4375,-16.625
268,268,1729186551648,-0.9794922,-0.06933594,0.0078125,0.0,66.9375,32.875
269,269,1729186551688,-1.0898438,0.033203125,0.17773438,-18.4375,75.4375,26.46875
270,270,1729186551728,-1.2412109,-0.17480469,0.053710938,-57.375,21.46875,25.1875
271,271,1729186551768,-1.3125,-0.24707031,0.2763672,-23.5625,0.90625,-4.21875
272,272,1729186551808,-1.5556641,-0.14453125,0.18164062,-36.5,-67.875,27.6875
273,273,1729186551848,-1.40625,0.1484375,0.08984375,36.0,-136.5,20.96875
274,274,1729186551888,-1.1201172,-0.17480469,-0.6611328,46.0,-218.53125,30.375
275,275,1729186551928,-1.7041016,0.52734375,0.21777344,24.09375,-114.40625,0.78125
276,276,1729186551968,-1.4375,0.37597656,-0.0029296875,-86.375,-104.5,-17.40625
277,277,1729186552008,-0.9160156,-0.34960938,-0.8701172,22.4375,-57.4375,-42.0625
278,278,1729186552048,-0.6660156,-0.0029296875,-0.24316406,56.1875,-114.9375,-41.9375
279,279,1729186552088,-0.5058594,-0.05859375,-0.4453125,184.96875,-89.90625,-28.53125
280,280,1729186552128,-0.34179688,0.41601562,-0.26367188,164.15625,-42.5625,-20.53125
281,281,1729186552168,-0.19824219,0.5605469,-0.061523438,88.84375,21.90625,-29.6875
282,282,1729186552208,-0.89160156,0.12695312,0.5371094,0.40625,57.28125,-31.8125
283,283,1729186552248,-2.0,0.42773438,1.3632812,-61.125,26.65625,-44.28125
284,284,1729186552288,-0.61328125,0.107421875,1.0585938,51.0625,-81.0,12.375
285,285,1729186552328,-0.80859375,-0.08105469,0.5625,65.96875,13.84375,-6.4375
286,286,1729186552368,-0.9511719,0.041015625,-0.43945312,-116.21875,59.875,-26.25
287,287,1729186552408,-1.5878906,2.0,0.56640625,49.0,83.34375,-47.3125
288,288,1729186552448,-0.6796875,-0.2607422,-0.7236328,-128.1875,112.15625,49.84375
289,289,1729186552488,-1.625,-0.7128906,-1.0244141,-146.3125,191.5625,-12.15625
290,290,1729186552528,-1.0673828,0.12011719,-0.015625,53.34375,52.90625,-8.625
291,291,1729186552568,-0.70703125,0.51660156,0.0,101.96875,46.0625,-4.46875
292,292,1729186552608,-0.8232422,0.24316406,0.001953125,-82.46875,79.5,-35.71875
293,293,1729186552648,-1.0585938,-0.125,-0.041015625,-84.90625,33.4375,-17.15625
294,294,1729186552688,-0.83984375,-0.13476562,-0.0078125,-54.65625,80.84375,-14.78125
295,295,1729186552728,-0.84472656,0.015625,0.04296875,-6.125,67.1875,14.21875
296,296,1729186552768,-1.0517578,0.034179688,0.08105469,17.75,78.96875,21.71875
297,297,1729186552808,-1.0947266,-0.056640625,-0.0048828125,-53.3125,37.9375,18.1875
298,298,1729186552848,-1.3427734,-0.4140625,0.08300781,-86.125,14.21875,4.375
299,299,1729186552888,-1.2988281,0.2421875,0.4248047,-75.8125,-6.53125,-6.25
300,300,1729186552928,-1.3203125,0.040039062,0.359375,-10.9375,-82.84375,54.375
301,301,1729186552968,-1.3134766,-0.55078125,0.24707031,32.28125,-186.78125,61.8125
302,302,1729186553008,-1.2304688,0.12109375,-0.5107422,20.8125,-170.96875,-15.28125
303,303,1729186553048,-1.6738281,0.36621094,0.09472656,16.65625,-129.15625,-2.59375
304,304,1729186553088,-1.2910156,0.45214844,-0.061523438,-101.15625,-96.21875,-22.65625
305,305,1729186553128,-0.7783203,-0.14453125,-0.65722656,102.59375,-45.375,-53.3125
306,306,1729186553168,-0.65527344,-0.048828125,-0.24511719,68.78125,-100.1875,-50.625
307,307,1729186553208,-0.46875,0.078125,-0.40527344,193.96875,-90.90625,-33.09375
308,308,1729186553248,-0.34375,0.36914062,-0.27539062,169.90625,-25.03125,-30.96875
309,309,1729186553288,-0.20019531,0.5517578,0.015625,84.21875,15.375,-26.8125
310,310,1729186553328,-0.9013672,0.16113281,0.5517578,-20.46875,56.375,-36.5625
311,311,1729186553368,-1.9785156,0.4765625,1.3154297,15.84375,0.53125,-37.78125
312,312,1729186553408,-0.6611328,0.13964844,0.9560547,31.25,-64.15625,-3.8125
313,313,1729186553448,-0.6894531,0.060546875,0.5361328,62.0,5.0625,-9.15625
314,314,1729186553488,-1.1875,0.16992188,-0.46875,-89.96875,44.40625,13.0
315,315,1729186553528,-1.1992188,1.6572266,-0.0009765625,-63.0625,24.40625,-2.625
316,316,1729186553568,-0.7871094,-0.26367188,-0.64453125,-185.625,116.1875,46.6875
317,317,1729186553608,-1.7607422,-0.8222656,-1.078125,-210.28125,251.3125,-20.03125
318,318,1729186553648,-1.0820312,-0.29589844,0.4111328,59.96875,72.625,-10.09375
319,319,1729186553688,-0.7441406,0.65722656,-0.04296875,144.53125,46.375,-8.1875
320,320,1729186553728,-0.640625,0.43554688,0.047851562,-134.125,84.875,-55.75
321,321,1729186553768,-0.9941406,-0.0546875,-0.140625,-215.53125,43.875,-21.8125
322,322,1729186553808,-0.859375,-0.17675781,-0.053710938,-81.8125,93.84375,-23.875
323,323,1729186553848,-0.96484375,-0.05078125,0.024414062,14.8125,59.875,24.8125
324,324,1729186553888,-0.96484375,-0.041015625,0.076171875,-9.125,59.5625,27.28125
325,325,1729186553928,-1.0507812,-0.021484375,0.16015625,-47.625,31.78125,30.5
326,326,1729186553968,-1.2402344,-0.1640625,-0.041015625,-77.90625,28.25,6.09375
327,327,1729186554008,-1.3027344,-0.07324219,0.47265625,-47.4375,7.96875,2.5625
328,328,1729186554048,-1.4335938,0.0048828125,0.2705078,-6.25,-67.09375,50.34375
329,329,1729186554088,-1.3466797,-0.2529297,0.734375,96.34375,-184.90625,74.75
330,330,1729186554128,-1.2412109,-0.79589844,-1.1074219,51.4375,-217.0625,5.59375
331,331,1729186554168,-2.0,0.54589844,0.23730469,91.53125,-136.0,-23.75
332,332,1729186554208,-1.4960938,0.5107422,-0.13378906,-82.15625,-130.5625,-38.34375
333,333,1729186554248,-1.0302734,-0.29785156,-1.3613281,128.78125,-44.3125,-63.6875
334,334,1729186554288,-0.7841797,-0.026367188,-0.42773438,117.53125,-165.1875,-37.5625
335,335,1729186554328,-0.44433594,-0.23535156,-0.36035156,235.03125,-108.65625,-35.84375
336,336,1729186554368,-0.16308594,0.5234375,-0.25976562,196.03125,-35.15625,-43.59375
337,337,1729186554408,-0.01171875,0.48046875,-0.15722656,87.75,36.90625,-31.375
338,338,1729186554448,-0.6201172,0.16210938,0.2939453,-15.21875,75.53125,-26.03125
339,339,1729186554488,-1.9375,0.4814453,1.5693359,-6.65625,45.75,-59.90625
340,340,1729186554528,-1.109375,0.18554688,1.1005859,59.5,-35.71875,0.46875
341,341,1729186554568,-1.8691406,0.5078125,0.7158203,41.96875,-6.65625,28.125
342,342,1729186554608,-1.2041016,1.6064453,-0.75390625,-157.0,-46.59375,37.34375
343,343,1729186554648,0.4326172,-0.15039062,-0.2626953,-82.34375,41.25,44.40625
344,344,1729186554688,-1.8251953,-0.25,-1.1171875,-354.15625,286.71875,14.6875
345,345,1729186554728,-1.3369141,-1.3359375,0.27734375,-82.34375,164.65625,-18.21875
346,346,1729186554768,-0.859375,0.2626953,-0.42773438,157.8125,-1.25,-9.59375
347,347,1729186554808,-0.65722656,0.7216797,0.020507812,99.21875,65.09375,-9.96875
348,348,1729186554848,-0.71777344,-0.055664062,0.12988281,-187.8125,103.9375,-46.34375
349,349,1729186554888,-0.91503906,-0.17675781,0.024414062,-32.90625,57.90625,-25.28125
350,350,1729186554928,-0.83496094,0.051757812,-0.09472656,-54.875,68.09375,-15.28125
351,351,1729186554968,-0.95214844,-0.06933594,-0.14257812,-39.03125,65.28125,20.84375
352,352,1729186555008,-0.96777344,0.12890625,0.16992188,-3.1875,73.90625,14.21875
353,353,1729186555048,-1.2470703,-0.119140625,0.018554688,-72.03125,45.15625,6.8125
354,354,1729186555088,-1.4003906,-0.2626953,0.31835938,-67.8125,-5.375,-9.28125
355,355,1729186555128,-1.5263672,-0.0390625,0.21777344,-16.625,-70.5,34.34375
356,356,1729186555168,-1.4169922,0.09277344,0.29101562,48.875,-147.96875,30.0625
357,357,1729186555208,-1.1845703,-0.4111328,-0.8144531,49.1875,-209.125,21.34375
358,358,1729186555248,-1.7558594,0.5253906,0.09765625,16.78125,-131.25,-3.3125
359,359,1729186555288,-1.2910156,0.4423828,-0.052734375,-95.78125,-122.875,-16.4375
360,360,1729186555328,-1.0419922,-0.11230469,-0.9707031,70.84375,-34.25,-34.375
361,361,1729186555368,-0.6699219,-0.01171875,-0.22265625,56.5,-122.8125,-34.9375
362,362,1729186555408,-0.41503906,0.005859375,-0.375,173.5625,-85.53125,-32.90625
363,363,1729186555448,-0.4580078,0.28515625,-0.2548828,178.5,-43.59375,-25.40625
364,364,1729186555488,-0.19628906,0.53808594,-0.037109375,105.9375,18.59375,-35.0
365,365,1729186555528,-0.7480469,0.099609375,0.54785156,0.53125,56.0625,-34.75
366,366,1729186555568,-1.9482422,0.6455078,1.3876953,-31.375,13.03125,-47.4375
367,367,1729186555608,-0.78125,0.12109375,1.0244141,54.625,-61.40625,7.4375
368,368,1729186555648,-0.64746094,0.06347656,0.49121094,86.28125,7.75,-2.75
369,369,1729186555688,-1.5380859,0.26171875,-0.47460938,-138.25,28.1875,15.3125
370,370,1729186555728,-0.30566406,1.0654297,-0.11621094,39.40625,23.25,9.5
371,371,1729186555768,-0.7910156,-0.20703125,-0.5488281,-197.40625,132.5625,35.8125
372,372,1729186555808,-1.8203125,-0.74902344,-1.1445312,-202.71875,229.15625,-9.96875
373,373,1729186555848,-1.0039062,-0.047851562,0.7470703,65.28125,64.4375,-2.53125
374,374,1729186555888,-0.7636719,0.41308594,-0.0126953125,149.09375,47.34375,-8.5625
375,375,1729186555928,-0.6904297,0.39648438,-0.057617188,-79.375,95.875,-54.40625
376,376,1729186555968,-0.9550781,-0.08691406,-0.140625,-108.34375,51.125,-23.40625
377,377,1729186556008,-0.8095703,-0.109375,0.024414062,-68.25,98.1875,-24.5
378,378,1729186556048,-0.9091797,-0.14355469,0.029296875,-9.15625,62.0,23.25
379,379,1729186556088,-1.0625,-0.0048828125,0.13085938,-8.5625,63.15625,19.8125
380,380,1729186556128,-1.1894531,-0.09667969,0.060546875,-53.78125,25.875,14.28125
381,381,1729186556168,-1.4208984,-0.3251953,0.107421875,-84.25,13.09375,7.1875
382,382,1729186556208,-1.3837891,0.11328125,0.29589844,-35.0,-56.46875,28.5
383,383,1729186556248,-1.2578125,0.14550781,0.5859375,29.65625,-128.125,57.28125
384,384,1729186556288,-1.3867188,-0.9589844,-0.8154297,32.09375,-195.75,26.65625
385,385,1729186556328,-1.7597656,0.58496094,-0.0068359375,48.375,-145.15625,-18.5625
386,386,1729186556368,-1.3603516,0.4716797,-0.15234375,-17.09375,-144.125,-2.28125
387,387,1729186556408,-1.0917969,0.23632812,-0.29101562,-96.9375,-83.09375,-24.125
388,388,1729186556448,-0.6171875,-0.43847656,-0.03515625,118.34375,-120.25,-60.0625
389,389,1729186556488,-0.5078125,-0.11621094,-0.5732422,165.03125,-94.25,-41.65625
390,390,1729186556528,-0.40429688,0.09082031,-0.2939453,176.6875,-48.28125,-23.03125
391,391,1729186556568,-0.12011719,0.5566406,-0.125,116.6875,3.78125,-38.09375
392,392,1729186556608,-0.4658203,0.1484375,0.26953125,24.28125,61.4375,-25.96875
393,393,1729186556648,-1.9375,0.52441406,1.3212891,-18.75,42.90625,-62.5
394,394,1729186556688,-1.0849609,0.28515625,1.2099609,42.71875,-90.34375,14.8125
395,395,1729186556728,-0.42773438,-0.08691406,0.47753906,53.875,-5.375,-2.09375
396,396,1729186556768,-1.1191406,0.06542969,-0.17773438,-9.65625,33.84375,22.75
397,397,1729186556808,-1.4091797,1.7666016,-0.2861328,-240.4375,20.125,20.125
398,398,1729186556848,-0.93652344,-0.20019531,-0.6972656,-73.75,82.4375,57.96875
399,399,1729186556888,-1.0878906,-0.60839844,-0.8535156,-203.09375,233.125,-20.46875
400,400,1729186556928,-1.2363281,-0.6230469,-0.25585938,-12.15625,83.84375,-20.53125
401,401,1729186556968,-0.8574219,0.39648438,-0.13476562,141.9375,11.21875,-19.375
402,402,1729186557008,-0.9345703,0.26464844,0.0107421875,-37.25,89.875,-42.375
403,403,1729186557048,-0.8798828,-0.12402344,-0.048828125,-134.21875,65.90625,-25.09375
404,404,1729186557088,-0.9160156,-0.14746094,-0.05078125,-90.90625,92.15625,-24.625
405,405,1729186557128,-0.8798828,0.05859375,-0.0390625,-31.8125,69.0,4.625
406,406,1729186557168,-0.984375,-0.08984375,0.024414062,-1.0625,67.78125,27.5625
407,407,1729186557208,-1.1025391,0.07128906,0.10546875,-30.03125,45.53125,21.71875
408,408,1729186557248,-1.2285156,-0.21582031,0.061523438,-59.78125,29.03125,13.84375
409,409,1729186557288,-1.3173828,0.087890625,0.29589844,-120.1875,12.1875,-11.4375
410,410,1729186557328,-1.4814453,-0.059570312,0.35546875,-14.40625,-70.625,45.9375
411,411,1729186557368,-1.4003906,-0.15039062,0.47753906,65.0,-168.90625,48.8125
412,412,1729186557408,-1.0761719,-0.16210938,-1.0039062,-8.8125,-179.40625,-4.21875
413,413,1729186557448,-1.9257812,0.390625,0.2783203,77.5625,-138.3125,7.625
414,414,1729186557488,-1.3583984,0.43945312,-0.18066406,-37.75,-133.6875,-21.625
415,415,1729186557528,-0.9628906,0.001953125,-0.5361328,-49.21875,-69.21875,-44.15625
416,416,1729186557568,-0.7373047,-0.12890625,-0.15039062,82.625,-116.71875,-64.15625
417,417,1729186557608,-0.4794922,0.009765625,-0.5019531,189.8125,-95.71875,-53.78125
418,418,1729186557648,-0.4375,0.22363281,-0.2685547,197.3125,-37.1875,-30.96875
419,419,1729186557688,-0.19433594,0.6171875,-0.047851562,111.375,-2.28125,-30.59375
420,420,1729186557728,-0.71972656,0.15136719,0.43847656,-0.25,31.84375,-30.28125
421,421,1729186557768,-1.3164062,0.44726562,1.0664062,26.53125,2.96875,-57.8125
422,422,1729186557808,-1.1972656,0.037109375,1.2197266,58.09375,-74.96875,-21.25
423,423,1729186557848,-0.48535156,0.14550781,0.5449219,64.375,-10.625,6.28125
424,424,1729186557888,-1.7460938,0.47851562,0.35058594,44.25,24.34375,33.8125
425,425,1729186557928,-0.8183594,1.609375,-0.6513672,-119.875,-21.3125,50.40625
426,426,1729186557968,-0.10839844,-0.22558594,-0.5498047,-171.53125,99.96875,10.3125
427,427,1729186558008,-1.6953125,-0.034179688,-0.9355469,-329.125,291.65625,17.9375
428,428,1729186558048,-1.3876953,-1.0986328,0.28320312,-58.71875,147.125,-6.0625
429,429,1729186558088,-0.85839844,0.24121094,-0.3359375,124.875,12.1875,-6.71875
430,430,1729186558128,-0.69628906,0.31054688,-0.07519531,35.75,52.34375,-22.84375
431,431,1729186558168,-0.8095703,0.11035156,0.11816406,-154.6875,96.65625,-42.6875
432,432,1729186558208,-1.0537109,-0.2919922,-0.02734375,-145.46875,66.28125,-32.375
433,433,1729186558248,-0.7558594,-0.07128906,-0.032226562,-89.0625,87.03125,-14.59375
434,434,1729186558288,-1.0146484,-0.1171875,-0.06933594,-35.65625,65.90625,22.5625
435,435,1729186558328,-1.03125,0.12890625,0.24804688,22.5625,61.03125,23.1875
436,436,1729186558368,-1.1308594,-0.22460938,-0.021484375,-102.125,10.78125,16.15625
437,437,1729186558408,-1.3681641,-0.123046875,0.35351562,-36.625,41.84375,-0.75
438,438,1729186558448,-1.359375,0.12207031,0.16699219,-49.09375,-47.6875,30.25
439,439,1729186558488,-1.2939453,-0.14550781,0.33984375,6.03125,-122.875,62.0
440,440,1729186558528,-1.5126953,-0.84472656,-0.25976562,61.875,-205.34375,47.28125
441,441,1729186558568,-1.4990234,0.26464844,-0.24804688,24.875,-160.0,-20.875
442,442,1729186558608,-1.5566406,0.25195312,-0.13183594,-2.03125,-131.96875,-14.3125
443,443,1729186558648,-1.1728516,0.37597656,-0.14355469,-87.0,-92.0625,-47.0625
444,444,1729186558688,-1.0166016,-0.56933594,-0.9238281,263.0,-32.84375,-82.46875
445,445,1729186558728,-0.5703125,-0.0107421875,-0.43359375,83.46875,-99.6875,-45.4375
446,446,1729186558768,-0.50097656,0.02734375,-0.2890625,220.5625,-65.25,-21.9375
447,447,1729186558808,-0.27441406,0.5332031,-0.19238281,167.96875,-15.6875,-24.75
448,448,1729186558848,-0.2919922,0.48339844,0.06738281,72.125,26.28125,-14.59375
449,449,1729186558888,-1.0283203,0.16015625,0.62890625,-8.5,40.34375,-36.8125
450,450,1729186558928,-1.7597656,0.41503906,1.2509766,5.78125,-14.3125,-47.9375
451,451,1729186558968,-0.63378906,0.10644531,0.9736328,40.6875,-52.9375,1.625
452,452,1729186559008,-1.0664062,0.26757812,0.50097656,74.9375,19.15625,-3.96875
453,453,1729186559048,-1.7470703,0.13085938,0.23730469,-110.375,16.90625,9.875
454,454,1729186559088,0.07910156,0.78027344,-0.83691406,-20.40625,8.34375,20.0
455,455,1729186559128,-0.46972656,0.072265625,-0.3310547,-196.25,150.625,-1.96875
456,456,1729186559168,-2.0,-0.4794922,-1.1279297,-204.90625,264.75,3.34375
457,457,1729186559208,-1.0224609,-0.5410156,0.60546875,77.625,53.375,11.71875
458,458,1729186559248,-0.7949219,0.47558594,-0.07714844,152.75,43.3125,-18.5625
459,459,1729186559288,-0.8388672,0.18945312,0.125,-41.75,87.9375,-43.15625
460,460,1729186559328,-1.0234375,-0.3095703,0.032226562,-109.375,57.125,-24.78125
461,461,1729186559368,-0.9013672,0.044921875,0.23046875,-74.71875,84.21875,-30.96875
462,462,1729186559408,-0.8808594,0.059570312,-0.19335938,-41.75,50.34375,13.90625
463,463,1729186559448,-0.8935547,-0.036132812,0.043945312,-12.34375,80.0,20.0625
464,464,1729186559488,-1.1298828,-0.0009765625,0.040039062,-46.03125,59.8125,14.15625
465,465,1729186559528,-1.3486328,-0.36523438,0.036132812,-71.3125,28.125,5.0
466,466,1729186559568,-1.3740234,0.21972656,0.41210938,-78.1875,8.84375,-5.09375
467,467,1729186559608,-1.4580078,-0.26757812,0.16894531,-10.6875,-51.78125,25.8125
468,468,1729186559648,-1.3037109,0.23632812,0.09277344,19.40625,-140.09375,13.84375
469,469,1729186559688,-1.125,-0.37304688,-0.6933594,33.125,-195.15625,25.4375
470,470,1729186559728,-1.7988281,0.4091797,0.19042969,48.15625,-126.96875,-2.15625
471,471,1729186559768,-1.3984375,0.54296875,-0.028320312,-84.375,-126.3125,-17.34375
472,472,1729186559808,-0.78515625,0.0625,-1.59375,-53.375,-85.71875,-17.03125
473,473,1729186559848,-0.72753906,-0.12597656,-0.08203125,53.375,-127.34375,-32.96875
474,474,1729186559888,-0.43359375,-0.0078125,-0.40234375,136.8125,-98.84375,-19.78125
475,475,1729186559928,-0.41503906,0.140625,-0.26757812,161.78125,-53.0,-20.46875
476,476,1729186559968,-0.17773438,0.57128906,-0.14257812,114.4375,5.96875,-33.78125
477,477,1729186560008,-0.484375,0.048828125,0.29882812,27.4375,56.0625,-23.5
478,478,1729186560048,-1.6972656,0.4423828,1.2851562,-23.15625,35.4375,-64.15625
479,479,1729186560088,-1.1933594,0.18652344,1.1640625,44.71875,-33.09375,-6.1875
480,480,1729186560128,-0.58984375,0.11621094,0.6376953,70.34375,-16.1875,-0.5625
481,481,1729186560168,-1.0498047,0.3486328,-0.09667969,-31.03125,35.9375,23.96875
482,482,1729186560208,-1.5947266,2.0,-0.07714844,-169.625,-3.1875,46.96875
483,483,1729186560248,-0.8183594,-0.5917969,-0.7265625,-125.8125,82.875,41.0625
484,484,1729186560288,-1.28125,-0.4814453,-0.93652344,-308.3125,252.375,-24.78125
485,485,1729186560328,-1.2294922,-0.6230469,-0.4189453,39.0,124.1875,-12.21875
486,486,1729186560368,-0.8720703,0.3076172,-0.1328125,123.59375,15.84375,-10.625
487,487,1729186560408,-0.8798828,0.22070312,-0.043945312,-36.8125,90.8125,-33.09375
488,488,1729186560448,-0.75390625,-0.03515625,0.12695312,-161.09375,72.90625,-35.0
489,489,1729186560488,-0.8876953,-0.14648438,-0.13671875,-112.125,66.625,-31.9375
490,490,1729186560528,-0.82714844,0.057617188,-0.06640625,-8.625,78.59375,3.03125
491,491,1729186560568,-1.0029297,-0.09667969,-0.021484375,-7.09375,70.78125,29.59375
492,492,1729186560608,-1.1259766,0.09667969,0.11230469,-29.75,69.0625,18.90625
493,493,1729186560648,-1.2792969,-0.14160156,-0.0048828125,-62.46875,23.71875,11.875
494,494,1729186560688,-1.3740234,0.091796875,0.5732422,-76.0625,22.5,-16.0625
495,495,1729186560728,-1.3564453,0.057617188,0.38476562,-28.9375,-64.96875,35.1875
496,496,1729186560768,-1.2734375,-0.33007812,0.2685547,45.5625,-155.28125,45.6875
497,497,1729186560808,-1.2382812,-0.087890625,-0.90234375,35.5625,-169.9375,-5.75
498,498,1729186560848,-1.8232422,0.4267578,0.12988281,73.96875,-130.6875,-10.28125
499,499,1729186560888,-1.4521484,0.5029297,-0.048828125,-58.78125,-126.90625,-24.375
500,500,1729186560928,-0.91503906,0.001953125,-0.4970703,-80.875,-72.9375,-46.40625
501,501,1729186560968,-0.8046875,-0.296875,-0.09667969,143.0,-140.03125,-44.03125
502,502,1729186561008,-0.42285156,0.051757812,-0.54589844,137.3125,-97.625,-30.46875
503,503,1729186561048,-0.42285156,0.17089844,-0.3251953,170.09375,-38.09375,-22.90625
504,504,1729186561088,-0.20996094,0.5576172,-0.1640625,116.75,0.71875,-32.125
505,505,1729186561128,-0.59765625,0.28710938,0.24707031,15.96875,51.8125,-27.0625
506,506,1729186561168,-1.8222656,0.4765625,1.2832031,-27.96875,34.09375,-63.5625
507,507,1729186561208,-1.0654297,0.22753906,1.2207031,60.40625,-74.0625,-5.8125
508,508,1729186561248,-0.81640625,-0.047851562,0.5605469,22.5625,10.78125,3.03125
509,509,1729186561288,-1.5605469,0.030273438,0.140625,-20.15625,8.53125,38.75
510,510,1729186561328,-0.56933594,1.1572266,-1.0849609,-205.9375,-8.875,45.9375
511,511,1729186561368,-0.3486328,0.38671875,0.038085938,-94.25,119.90625,-2.75
512,512,1729186561408,-2.0,-0.41308594,-1.1757812,-170.84375,266.28125,14.4375
513,513,1729186561448,-0.97753906,-0.96972656,0.6308594,67.25,72.0625,2.0
514,514,1729186561488,-0.8417969,0.34472656,-0.15332031,146.28125,24.71875,-20.71875
515,515,1729186561528,-0.8251953,0.4033203,0.13964844,-51.03125,92.875,-55.3125
516,516,1729186561568,-0.9609375,-0.041015625,-0.08886719,-95.78125,52.84375,-18.3125
517,517,1729186561608,-0.8486328,-0.049804688,0.0859375,-91.8125,83.34375,-31.25
518,518,1729186561648,-0.9121094,0.018554688,-0.21289062,-53.1875,42.78125,16.84375
519,519,1729186561688,-0.97753906,-0.09765625,0.07128906,35.25,70.96875,27.375
520,520,1729186561728,-1.1474609,0.07421875,0.020507812,-53.0625,41.0625,18.34375
521,521,1729186561768,-1.5927734,-0.47851562,0.17382812,-29.9375,18.34375,23.0625
522,522,1729186561808,-1.2744141,0.16796875,0.35351562,-90.40625,-24.1875,-3.5625
523,523,1729186561848,-1.3505859,0.078125,0.3154297,-13.0625,-86.1875,39.71875
524,524,1729186561888,-1.2539062,-0.4189453,0.23339844,30.625,-188.1875,57.125
525,525,1729186561928,-1.2939453,-0.052734375,-0.63378906,40.875,-174.8125,-8.875
526,526,1729186561968,-1.7412109,0.44628906,0.17773438,20.5,-132.65625,-7.03125
527,527,1729186562008,-1.2734375,0.4111328,-0.041015625,-72.65625,-112.8125,-31.5625
528,528,1729186562048,-0.86035156,-0.28808594,-0.62890625,131.40625,-25.96875,-61.0
529,529,1729186562088,-0.6689453,-0.036132812,-0.3203125,75.3125,-104.09375,-43.03125
530,530,1729186562128,-0.5361328,-0.13378906,-0.5019531,209.9375,-71.5625,-30.21875
531,531,1729186562168,-0.27929688,0.3935547,-0.26660156,155.3125,-18.6875,-34.8125
532,532,1729186562208,-0.2919922,0.59765625,-0.057617188,80.5625,21.15625,-27.1875
533,533,1729186562248,-1.0087891,0.09863281,0.5888672,5.65625,50.65625,-43.40625
534,534,1729186562288,-1.7138672,0.41992188,1.3613281,4.5,0.84375,-41.40625
535,535,1729186562328,-0.9355469,-0.083984375,0.9111328,50.46875,-32.84375,-9.15625
536,536,1729186562368,-0.85839844,0.08105469,0.5283203,109.59375,-21.4375,-0.375
537,537,1729186562408,-1.5751953,0.24707031,-0.24902344,-146.8125,31.25,40.375
538,538,1729186562448,0.038085938,1.2021484,-0.3779297,63.21875,8.96875,9.5625
539,539,1729186562488,-0.6533203,-0.23828125,-0.64746094,-172.875,120.28125,48.625
540,540,1729186562528,-2.0,-0.8330078,-1.1171875,-250.0625,246.375,-7.15625
541,541,1729186562568,-1.0009766,-0.10839844,0.5732422,28.0625,61.5,-9.96875
542,542,1729186562608,-0.73339844,0.5078125,0.028320312,147.3125,31.1875,-11.3125
543,543,1729186562648,-0.83203125,0.24316406,0.083984375,-71.625,99.96875,-53.125
544,544,1729186562688,-1.0234375,-0.23925781,-0.109375,-137.90625,59.1875,-17.78125
545,545,1729186562728,-0.8564453,-0.016601562,0.087890625,-73.5,90.5,-32.0
546,546,1729186562768,-0.9140625,0.028320312,-0.15429688,-50.84375,49.0,16.71875
547,547,1729186562808,-0.94140625,-0.10644531,0.036132812,11.875,73.53125,27.8125
548,548,1729186562848,-1.1464844,0.0146484375,0.08203125,-49.5,47.21875,19.9375
549,549,1729186562888,-1.3896484,-0.38183594,0.17285156,-9.84375,29.78125,27.15625
550,550,1729186562928,-1.3642578,0.14648438,0.32421875,-87.28125,-25.78125,-2.59375
551,551,1729186562968,-1.5332031,-0.3173828,0.171875,-17.65625,-91.375,34.78125
552,552,1729186563008,-1.2851562,-0.0078125,0.4140625,74.5625,-192.34375,47.03125
553,553,1729186563048,-1.2578125,-0.08105469,-0.42773438,47.40625,-191.53125,7.125
554,554,1729186563088,-1.6708984,0.4951172,0.09472656,-35.0625,-123.625,-1.40625
555,555,1729186563128,-1.3037109,0.33007812,-0.018554688,-88.34375,-116.09375,-33.65625
556,556,1729186563168,-0.74902344,-0.7138672,0.20019531,233.25,-128.625,-75.53125
557,557,1729186563208,-0.48632812,0.025390625,-0.4189453,85.6875,-126.53125,-33.40625
558,558,1729186563248,-0.44433594,-0.12988281,-0.3515625,219.96875,-79.96875,-21.125
559,559,1729186563288,-0.24609375,0.5175781,-0.22949219,148.46875,-11.0,-38.28125
560,560,1729186563328,-0.18457031,0.43359375,-0.0087890625,59.8125,38.3125,-34.9375
561,561,1729186563368,-1.1103516,0.29296875,0.8574219,-30.09375,61.1875,-50.75
562,562,1729186563408,-2.0,0.3642578,1.3720703,-34.625,13.71875,-27.96875
563,563,1729186563448,-0.6699219,0.005859375,0.92089844,44.46875,-59.03125,6.03125
564,564,1729186563488,-1.0458984,0.27734375,0.48632812,66.5,30.6875,15.65625
565,565,1729186563528,-1.8105469,0.62402344,-0.1640625,-222.84375,34.03125,12.3125
566,566,1729186563568,0.095703125,0.6298828,-0.7578125,76.8125,37.21875,9.09375
567,567,1729186563608,-0.9951172,-0.03515625,-0.63378906,-210.9375,212.5625,49.4375
568,568,1729186563648,-1.8427734,-0.93359375,-1.0302734,-147.34375,152.4375,-3.625
569,569,1729186563688,-1.0654297,-0.036132812,0.21582031,78.0625,25.875,-8.1875
570,570,1729186563728,-0.7451172,0.5830078,0.068359375,87.6875,55.96875,-27.90625
571,571,1729186563768,-0.6845703,0.4140625,0.078125,-132.53125,90.625,-53.90625
572,572,1729186563808,-0.96972656,-0.23925781,-0.049804688,-96.03125,69.25,-18.25
573,573,1729186563848,-0.86035156,0.080078125,0.1328125,-58.0625,85.5625,-17.59375
574,574,1729186563888,-0.9550781,-0.034179688,0.02734375,-5.8125,65.28125,26.78125
575,575,1729186563928,-1.1005859,-0.11328125,0.16601562,-2.21875,54.5,26.21875
576,576,1729186563968,-1.1455078,-0.3154297,-0.19140625,-74.34375,15.0625,7.96875
577,577,1729186564008,-1.3935547,0.19921875,0.2578125,-87.59375,38.6875,-6.25
578,578,1729186564048,-1.4970703,-0.3330078,0.29003906,-23.34375,-43.21875,26.28125
579,579,1729186564088,-1.2929688,0.34179688,0.48339844,28.375,-134.34375,34.90625
580,580,1729186564128,-1.2207031,-0.5732422,-0.36132812,50.40625,-220.0625,54.125
581,581,1729186564168,-1.7177734,0.44433594,-0.14550781,5.71875,-157.25,-18.4375
582,582,1729186564208,-1.4072266,0.6748047,0.078125,-42.3125,-109.34375,-3.6875
583,583,1729186564248,-1.0214844,-0.107421875,-0.68652344,-107.0,-83.09375,-40.40625
584,584,1729186564288,-0.7548828,-0.2705078,-0.12792969,27.6875,-110.375,-43.34375
585,585,1729186564328,-0.4970703,-0.27734375,-0.5488281,154.90625,-72.53125,-36.5
586,586,1729186564368,-0.2578125,0.24316406,-0.26757812,199.21875,-32.5625,-37.90625
587,587,1729186564408,-0.1875,0.50878906,-0.23828125,91.90625,21.71875,-28.40625
588,588,1729186564448,-0.6269531,0.2890625,0.42578125,39.84375,69.8125,-40.53125
589,589,1729186564488,-2.0,0.8144531,1.4521484,-88.40625,22.09375,-77.84375
590,590,1729186564528,-0.86621094,0.13964844,0.9638672,55.03125,-73.8125,27.28125
591,591,1729186564568,-0.7871094,-0.20605469,0.5214844,86.71875,-4.46875,0.96875
592,592,1729186564608,-1.4736328,0.15722656,-0.4736328,-174.40625,28.5625,4.875
593,593,1729186564648,-0.34277344,0.9404297,-0.35253906,123.9375,24.8125,29.84375
594,594,1729186564688,-0.71484375,-0.4033203,-0.2607422,-131.84375,101.25,31.25
595,595,1729186564728,-1.8583984,-0.49121094,-0.89453125,-180.4375,179.71875,-13.875
596,596,1729186564768,-1.1025391,-0.037109375,0.21875,45.09375,68.40625,-7.28125
597,597,1729186564808,-0.87597656,0.19921875,-0.018554688,93.625,67.6875,-22.21875
598,598,1729186564848,-0.6953125,0.39453125,0.16601562,-72.84375,103.8125,-61.0
599,599,1729186564888,-0.82910156,-0.0126953125,-0.18652344,-114.21875,44.25,-14.90625
600,600,1729186564928,-0.8935547,-0.07128906,-0.0234375,-79.0,104.40625,-34.9375
601,601,1729186564968,-0.90527344,-0.11328125,-0.08691406,-22.65625,50.65625,21.09375
602,602,1729186565008,-1.0302734,0.001953125,-0.10449219,-6.3125,74.75,19.75
603,603,1729186565048,-1.0537109,-0.08496094,0.19042969,-5.375,40.5625,24.875
604,604,1729186565088,-1.2519531,-0.0107421875,-0.0029296875,-73.9375,33.375,-5.21875
605,605,1729186565128,-1.4365234,-0.15722656,0.18847656,-85.65625,-7.71875,15.125
606,606,1729186565168,-1.5029297,-0.24316406,0.119140625,-19.375,-55.375,24.75
607,607,1729186565208,-1.40625,0.21289062,0.47753906,72.5625,-153.21875,31.65625
608,608,1729186565248,-1.1367188,-0.23925781,-0.52734375,74.3125,-208.15625,18.96875
609,609,1729186565288,-1.734375,0.12695312,-0.03515625,12.3125,-152.25,16.34375
610,610,1729186565328,-1.3681641,0.60546875,0.0009765625,-54.65625,-113.78125,-0.125
611,611,1729186565368,-1.0566406,-0.33007812,-0.81933594,38.0,-65.375,-34.875
612,612,1729186565408,-0.6660156,-0.07714844,-0.3076172,63.65625,-122.34375,-37.5625
613,613,1729186565448,-0.5205078,-0.19433594,-0.4267578,170.03125,-79.96875,-35.84375
614,614,1729186565488,-0.3408203,0.26464844,-0.38085938,168.8125,-37.90625,-33.65625
615,615,1729186565528,-0.14550781,0.6689453,-0.046875,88.90625,15.375,-27.3125
616,616,1729186565568,-0.7324219,0.1875,0.5439453,19.09375,58.625,-24.90625
617,617,1729186565608,-2.0,0.5625,1.4003906,-33.03125,16.46875,-52.75
618,618,1729186565648,-0.625,0.19726562,0.984375,47.46875,-77.53125,12.3125
619,619,1729186565688,-0.5996094,-0.1328125,0.6035156,58.6875,16.09375,-7.59375
620,620,1729186565728,-1.2363281,0.23828125,-0.6611328,-111.03125,64.6875,9.125
621,621,1729186565768,-1.1767578,1.2421875,0.25390625,75.0625,18.96875,8.03125
622,622,1729186565808,-0.6230469,-0.4248047,-0.40429688,-167.3125,129.25,10.90625
623,623,1729186565848,-1.6728516,-0.40625,-0.9814453,-129.65625,170.46875,9.09375
624,624,1729186565888,-1.1240234,-0.005859375,0.42578125,55.96875,63.46875,-12.59375
625,625,1729186565928,-0.78808594,0.52246094,0.043945312,133.90625,41.84375,-19.84375
626,626,1729186565968,-0.6298828,0.2998047,0.16113281,-136.125,91.0625,-41.9375
627,627,1729186566008,-1.0634766,-0.26757812,-0.08300781,-115.0625,64.5625,-23.34375
628,628,1729186566048,-0.80371094,0.072265625,0.01953125,-69.28125,83.53125,-27.90625
629,629,1729186566088,-0.9785156,-0.109375,-0.099609375,-11.71875,66.5625,20.0625
630,630,1729186566128,-1.0478516,0.09863281,0.2529297,31.40625,72.75,19.53125
631,631,1729186566168,-1.1220703,-0.18652344,-0.01171875,-92.4375,29.34375,9.75
632,632,1729186566208,-1.3730469,-0.2109375,0.07714844,-77.84375,15.375,-19.375
633,633,1729186566248,-1.5556641,-0.14453125,0.30859375,-41.53125,-45.3125,27.625
634,634,1729186566288,-1.4248047,0.16601562,0.10644531,-2.875,-108.65625,20.625
635,635,1729186566328,-1.1542969,-0.34472656,-0.45410156,54.25,-204.90625,45.09375
636,636,1729186566368,-1.5664062,0.4404297,0.14746094,94.28125,-148.9375,1.75
637,637,1729186566408,-1.3583984,0.55566406,-0.16699219,-46.84375,-133.0625,8.21875
638,638,1729186566448,-1.1591797,-0.04296875,-0.42382812,-97.84375,-97.1875,-33.875
639,639,1729186566488,-0.7265625,-0.13183594,-0.080078125,25.5,-139.0,-46.46875
640,640,1729186566528,-0.5371094,-0.21386719,-0.45410156,97.6875,-86.5625,-37.90625
641,641,1729186566568,-0.49316406,-0.0048828125,-0.33007812,179.71875,-63.5625,-33.21875
642,642,1729186566608,-0.1796875,0.57910156,-0.15429688,132.75,-3.5,-36.34375
643,643,1729186566648,-0.29003906,0.21777344,0.21972656,40.28125,47.96875,-18.4375
644,644,1729186566688,-1.4199219,0.43164062,1.1582031,-43.21875,56.0625,-54.9375
645,645,1729186566728,-1.5351562,0.37304688,1.0292969,0.96875,-37.5625,-4.96875
646,646,1729186566768,-0.4794922,-0.14453125,0.6767578,57.59375,-5.15625,8.40625
647,647,1729186566808,-1.4638672,0.15039062,0.31152344,8.71875,50.28125,19.9375
648,648,1729186566848,-1.4765625,1.4931641,-0.2626953,-173.71875,18.40625,33.90625
649,649,1729186566888,0.041015625,0.18847656,-0.52734375,-33.15625,15.71875,8.40625
650,650,1729186566928,-1.4726562,-0.095703125,-1.1591797,-224.3125,255.40625,25.75
651,651,1729186566968,-1.3232422,-1.1416016,0.064453125,-0.5625,92.28125,-3.6875
652,652,1729186567008,-0.7519531,0.57910156,-0.032226562,210.875,2.125,-3.90625
653,653,1729186567048,-0.875,0.3203125,0.14941406,0.96875,75.90625,-34.8125
654,654,1729186567088,-0.8535156,0.041992188,-0.049804688,-134.0625,87.4375,-20.28125
655,655,1729186567128,-0.78027344,-0.44628906,-0.11621094,-146.5625,38.625,-28.9375
656,656,1729186567168,-0.7919922,0.30566406,-0.22949219,-39.9375,88.5,4.6875
657,657,1729186567208,-1.0751953,-0.10253906,0.203125,12.375,76.09375,36.46875
658,658,1729186567248,-1.1064453,-0.10058594,0.053710938,-82.09375,47.21875,19.46875
659,659,1729186567288,-1.3134766,-0.2841797,-0.046875,56.75,51.75,15.96875
660,660,1729186567328,-1.3203125,0.17773438,0.12695312,-77.21875,-18.15625,13.34375
661,661,1729186567368,-1.4570312,-0.0859375,0.31933594,-1.46875,-55.0,41.65625
662,662,1729186567408,-1.4863281,-0.2861328,0.42382812,-1.96875,-172.5625,56.3125
663,663,1729186567448,-1.0371094,0.13769531,-1.03125,27.21875,-168.34375,-18.875
664,664,1729186567488,-1.7421875,0.421875,0.34960938,96.78125,-126.90625,-4.34375
665,665,1729186567528,-1.4169922,0.140625,-0.22558594,-12.84375,-129.53125,-14.59375
666,666,1729186567568,-1.0224609,-0.11035156,-0.7949219,19.15625,-68.8125,-48.1875
667,667,1729186567608,-0.7792969,0.125,-0.24707031,101.1875,-133.9375,-49.15625
668,668,1729186567648,-0.5107422,0.09082031,-0.29882812,144.625,-89.84375,-40.125
669,669,1729186567688,-0.30078125,0.171875,-0.31445312,147.375,-49.34375,-8.1875
670,670,1729186567728,-0.19042969,0.5498047,-0.12890625,113.9375,-17.15625,-14.53125
671,671,1729186567768,-0.5800781,0.16601562,0.3232422,8.46875,38.1875,-25.78125
672,672,1729186567808,-1.4208984,0.24121094,1.0751953,-6.59375,19.34375,-47.0
673,673,1729186567848,-1.2636719,0.2998047,1.1972656,28.1875,-52.375,-17.09375
674,674,1729186567888,-1.0869141,0.328125,0.5263672,26.34375,9.6875,24.59375
675,675,1729186567928,-1.859375,0.10253906,0.6142578,61.5,-30.84375,55.96875
676,676,1729186567968,0.123046875,1.0058594,-1.3867188,-146.75,33.84375,28.25
677,677,1729186568008,-0.17089844,0.44628906,0.0625,-148.28125,156.28125,-29.5
678,678,1729186568048,-1.8916016,-0.58691406,-0.7734375,-169.625,213.84375,3.40625
679,679,1729186568088,-1.1142578,-0.68847656,-0.049804688,-110.625,108.1875,-1.125
680,680,1729186568128,-0.7783203,0.23339844,0.02734375,221.125,19.09375,9.8125
681,681,1729186568168,-0.98535156,0.29101562,0.12207031,58.46875,72.3125,-36.03125
682,682,1729186568208,-1.0351562,0.028320312,0.23046875,-112.375,91.90625,-33.53125
683,683,1729186568248,-0.76171875,-0.21679688,0.068359375,-119.71875,33.125,-23.75
684,684,1729186568288,-0.8564453,0.23632812,-0.083984375,-66.40625,71.03125,3.46875
685,685,1729186568328,-0.9433594,0.015625,-0.18554688,9.5625,77.5,35.625
686,686,1729186568368,-1.1787109,-0.01171875,0.12207031,-38.46875,56.25,25.0
687,687,1729186568408,-1.4746094,-0.57128906,0.1171875,-17.40625,11.75,21.34375
688,688,1729186568448,-1.3564453,0.19238281,0.4345703,-38.53125,-37.6875,9.25
689,689,1729186568488,-1.5605469,0.048828125,0.2890625,-20.9375,-100.71875,25.0
690,690,1729186568528,-1.2626953,-0.2685547,-0.20800781,30.375,-177.03125,27.15625
691,691,1729186568568,-1.3496094,0.33789062,-0.6376953,-2.625,-152.78125,-6.65625
692,692,1729186568608,-1.484375,0.45703125,0.15136719,20.0,-112.625,3.03125
693,693,1729186568648,-1.1259766,0.26171875,-0.17773438,-69.34375,-95.59375,-27.34375
694,694,1729186568688,-0.68066406,-0.09472656,-0.07421875,148.46875,-85.65625,-46.71875
695,695,1729186568728,-0.6611328,0.0048828125,-0.44335938,63.40625,-77.21875,-30.03125
696,696,1729186568768,-0.49414062,-0.07324219,-0.36035156,162.75,-58.3125,-17.96875
697,697,1729186568808,-0.3251953,0.3701172,-0.27246094,127.65625,-37.6875,-22.34375
698,698,1729186568848,-0.3984375,0.3671875,0.16699219,62.0,16.34375,-25.84375
699,699,1729186568888,-1.0771484,0.044921875,0.8466797,-24.78125,39.59375,-49.75
700,700,1729186568928,-2.0,0.5517578,1.2919922,-1.53125,-14.125,-25.40625
701,701,1729186568968,-0.5966797,0.1328125,0.9628906,46.5,-61.96875,8.09375
702,702,1729186569008,-0.44433594,-0.09277344,0.41992188,85.8125,9.125,-7.09375
703,703,1729186569048,-0.92578125,0.18164062,-0.30078125,-22.84375,62.25,7.8125
704,704,1729186569088,-2.0,1.890625,0.3203125,-258.5,62.53125,11.40625
705,705,1729186569128,-0.6074219,-0.29785156,-0.74902344,-23.8125,74.9375,33.75
706,706,1729186569168,-1.2392578,-0.49414062,-0.6689453,-236.71875,219.53125,-21.375
707,707,1729186569208,-1.3720703,-0.6464844,-0.047851562,-28.53125,106.84375,-10.625
708,708,1729186569248,-0.7529297,0.5996094,-0.053710938,189.6875,-19.90625,-9.21875
709,709,1729186569288,-0.8574219,0.3935547,0.015625,6.21875,82.5,-22.71875
710,710,1729186569328,-0.92578125,-0.0087890625,0.08886719,-178.25,62.375,-15.03125
711,711,1729186569368,-0.8310547,-0.27441406,-0.06542969,-88.40625,52.0,-18.03125
712,712,1729186569408,-0.86328125,-0.009765625,-0.125,-31.6875,71.15625,6.34375
713,713,1729186569448,-0.90527344,-0.025390625,0.20800781,41.25,77.875,21.71875
714,714,1729186569488,-1.1220703,-0.022460938,0.06738281,-89.625,46.90625,22.5625
715,715,1729186569528,-1.3291016,-0.41992188,0.032226562,-87.78125,17.5625,11.46875
716,716,1729186569568,-1.2822266,0.2890625,0.33789062,-92.59375,4.0,-15.6875
717,717,1729186569608,-1.4667969,-0.06933594,0.3935547,1.03125,-75.5625,41.0625
718,718,1729186569648,-1.3789062,-0.35351562,0.18652344,25.4375,-188.0625,38.0
719,719,1729186569688,-1.2705078,-0.09472656,-0.50097656,86.03125,-181.15625,-2.40625
720,720,1729186569728,-1.6953125,0.4111328,0.06347656,5.1875,-137.53125,-1.40625
721,721,1729186569768,-1.4482422,0.3330078,-0.076171875,-60.5,-105.90625,-25.34375
722,722,1729186569808,-0.92089844,-0.25585938,-0.4921875,126.625,-53.59375,-67.65625
723,723,1729186569848,-0.5136719,0.013671875,-0.28320312,54.375,-101.15625,-43.71875
724,724,1729186569888,-0.41992188,-0.06347656,-0.43164062,163.9375,-63.75,-42.0
725,725,1729186569928,-0.34570312,0.27539062,-0.27539062,155.125,-22.28125,-26.5
726,726,1729186569968,-0.043945312,0.5595703,-0.0859375,115.15625,14.03125,-30.84375
727,727,1729186570008,-0.74609375,0.19824219,0.5361328,7.625,58.875,-23.40625
728,728,1729186570048,-2.0,0.48828125,1.5224609,-9.59375,29.21875,-49.875
729,729,1729186570088,-0.57421875,0.11328125,0.9316406,54.25,-69.90625,5.1875
730,730,1729186570128,-0.68652344,0.06542969,0.39160156,76.9375,3.34375,2.59375
731,731,1729186570168,-1.4677734,0.49804688,-0.6386719,-135.40625,21.46875,48.625
732,732,1729186570208,-0.3857422,0.7207031,0.5234375,193.09375,-8.9375,37.875
733,733,1729186570248,-0.6875,-0.44335938,-0.890625,-257.28125,145.375,2.5625
734,734,1729186570288,-1.9785156,-0.29492188,-0.94628906,-189.84375,216.90625,2.25
735,735,1729186570328,-1.0166016,-0.00390625,0.7832031,91.65625,70.25,-7.71875
736,736,1729186570368,-0.90722656,0.25878906,-0.053710938,60.46875,84.09375,-23.8125
737,737,1729186570408,-0.6171875,0.33007812,0.07324219,-160.34375,92.75,-53.71875
738,738,1729186570448,-0.9013672,-0.12988281,-0.12402344,-123.90625,47.84375,-18.03125
739,739,1729186570488,-0.7402344,-0.07128906,-0.10449219,-107.9375,84.875,-12.15625
740,740,1729186570528,-0.96777344,-0.11621094,-0.09472656,-27.125,63.21875,26.84375
741,741,1729186570568,-1.0126953,-0.00390625,0.41308594,-9.0625,78.34375,30.3125
742,742,1729186570608,-1.1816406,-0.35253906,0.16503906,-110.0625,25.5625,26.34375
743,743,1729186570648,-1.3486328,-0.08105469,0.41796875,-26.125,3.71875,0.90625
744,744,1729186570688,-1.4492188,0.099609375,0.4423828,-10.21875,-81.75,68.28125
745,745,1729186570728,-1.4492188,-0.6425781,-0.09863281,4.375,-168.71875,59.0625
746,746,1729186570768,-1.3378906,0.19628906,-0.07324219,59.8125,-154.375,-26.0625
747,747,1729186570808,-1.6455078,0.34277344,-0.28808594,52.59375,-160.78125,-17.34375
748,748,1729186570848,-1.6611328,0.4921875,0.06738281,-14.25,-113.59375,-31.375
749,749,1729186570888,-1.0703125,0.30078125,-0.5859375,-81.8125,-54.65625,-77.34375
750,750,1729186570928,-0.71972656,-0.20605469,-0.13183594,173.25,-135.34375,-50.25
751,751,1729186570968,-0.2939453,-0.01171875,-0.44628906,121.6875,-91.5,-28.15625
752,752,1729186571008,-0.31933594,0.16113281,-0.25,141.46875,-22.0,-11.90625
753,753,1729186571048,-0.19140625,0.40820312,-0.14257812,95.4375,10.90625,-30.40625
