,timestamp,accel_x,accel_y,accel_z,gyro_x,gyro_y,gyro_z
0,1727894437742,0.40429688,0.4970703,0.80566406,0.53125,0.125,-0.03125
1,1727894437782,0.40429688,0.49804688,0.79785156,0.0,-0.125,0.03125
2,1727894437822,0.4033203,0.4951172,0.796875,0.46875,-0.4375,-0.375
3,1727894437862,0.39257812,0.49804688,0.8076172,0.65625,-0.4375,-0.25
4,1727894437902,0.39941406,0.49121094,0.7939453,0.59375,-0.4375,-0.09375
5,1727894437942,0.4013672,0.50683594,0.7890625,0.0,-0.125,0.40625
6,1727894437982,0.40722656,0.4970703,0.7871094,-0.5,0.125,0.40625
7,1727894438022,0.40234375,0.49902344,0.7861328,-0.375,0.0,0.09375
8,1727894438062,0.39941406,0.49023438,0.8066406,0.21875,-0.1875,-0.1875
9,1727894438102,0.39648438,0.48828125,0.8046875,0.21875,-0.1875,-0.4375
10,1727894438142,0.4013672,0.5019531,0.79785156,0.28125,-0.1875,-0.375
11,1727894438182,0.39941406,0.49902344,0.7910156,0.21875,0.125,-0.09375
12,1727894438222,0.40039062,0.5048828,0.8046875,0.28125,-0.0625,0.21875
13,1727894438262,0.40429688,0.50097656,0.7910156,-0.3125,0.0625,0.21875
14,1727894438302,0.40527344,0.49414062,0.7988281,-0.1875,-0.0625,0.03125
15,1727894438342,0.39453125,0.5029297,0.7832031,0.0,-0.0625,-0.15625
16,1727894438382,0.3935547,0.49609375,0.7910156,-0.125,-0.25,-0.1875
17,1727894438422,0.39941406,0.50097656,0.7919922,-0.375,0.0,-0.25
18,1727894438462,0.39160156,0.5019531,0.79785156,0.0,0.125,-0.15625
19,1727894438502,0.39257812,0.49609375,0.79589844,-0.1875,0.25,0.15625
20,1727894438542,0.41308594,0.4951172,0.8027344,-0.1875,0.1875,0.15625
21,1727894438582,0.39941406,0.49316406,0.7861328,0.15625,-0.0625,-0.25
22,1727894438622,0.39746094,0.49804688,0.7949219,0.15625,-0.375,-0.1875
23,1727894438662,0.39941406,0.49902344,0.7949219,0.09375,-0.125,-0.25
24,1727894438702,0.40429688,0.50390625,0.79296875,0.09375,0.0,-0.15625
25,1727894438742,0.39648438,0.49609375,0.8017578,-0.25,0.1875,0.09375
26,1727894438782,0.4033203,0.50097656,0.7890625,-0.5,0.5625,0.21875
27,1727894438822,0.40039062,0.5029297,0.7998047,-0.625,0.5,0.21875
28,1727894438862,0.3984375,0.5,0.7861328,-0.375,0.3125,0.21875
29,1727894438902,0.4033203,0.5019531,0.78808594,-0.1875,0.1875,0.09375
30,1727894438942,0.3984375,0.4951172,0.7910156,-0.0625,0.1875,0.03125
31,1727894438982,0.39941406,0.49316406,0.7939453,0.21875,-0.0625,-0.25
32,1727894439022,0.40722656,0.48828125,0.78515625,-0.125,-0.1875,-0.1875
33,1727894439062,0.3955078,0.49316406,0.77734375,-0.0625,0.0,-0.1875
34,1727894439102,0.39648438,0.49414062,0.80859375,-0.1875,0.0,-0.09375
35,1727894439142,0.3984375,0.49414062,0.7988281,0.0,0.125,0.03125
36,1727894439182,0.40722656,0.50097656,0.80078125,-0.0625,0.0,-0.1875
37,1727894439222,0.390625,0.4921875,0.7832031,0.0,-0.1875,0.03125
38,1727894439262,0.40722656,0.49023438,0.7998047,0.09375,0.1875,-0.1875
39,1727894439302,0.39941406,0.4951172,0.7988281,0.0,0.0,-0.09375
40,1727894439342,0.40820312,0.49121094,0.78125,0.0,-0.0625,-0.1875
41,1727894439382,0.40039062,0.49316406,0.796875,0.0,0.1875,-0.25
42,1727894439422,0.40039062,0.49316406,0.796875,-0.1875,-0.1875,-0.09375
43,1727894439462,0.38964844,0.4951172,0.80566406,0.0,0.125,-0.15625
44,1727894439502,0.39453125,0.4892578,0.80078125,0.0,0.1875,-0.15625
45,1727894439542,0.4033203,0.49609375,0.7998047,0.0,0.3125,0.09375
46,1727894439582,0.40820312,0.5019531,0.79589844,0.0,0.125,0.15625
47,1727894439622,0.40234375,0.49023438,0.796875,-0.25,0.125,0.03125
48,1727894439662,0.39941406,0.49023438,0.7988281,-0.25,-0.0625,-0.09375
49,1727894439702,0.39941406,0.4951172,0.8066406,0.09375,-0.0625,-0.03125
50,1727894439742,0.3935547,0.49414062,0.7949219,0.0,0.0625,0.03125
51,1727894439782,0.3935547,0.4951172,0.7998047,0.09375,0.0625,-0.15625
52,1727894439822,0.3984375,0.49023438,0.79785156,0.28125,0.0,-0.09375
53,1727894439862,0.39746094,0.49316406,0.79003906,0.0,0.0625,-0.09375
54,1727894439902,0.390625,0.49414062,0.7998047,0.21875,-0.125,0.03125
55,1727894439942,0.3955078,0.49414062,0.80859375,0.0,0.0,0.03125
56,1727894439982,0.39941406,0.49902344,0.7939453,0.15625,0.3125,0.09375
57,1727894440022,0.3935547,0.49316406,0.7861328,0.03125,-0.0625,0.15625
58,1727894440062,0.4091797,0.4921875,0.79296875,0.28125,-0.125,-0.09375
59,1727894440102,0.39160156,0.5058594,0.78222656,-0.0625,-0.1875,-0.25
60,1727894440142,0.39648438,0.50097656,0.796875,-0.5625,0.0625,-0.09375
61,1727894440182,0.39453125,0.5048828,0.7871094,-0.75,0.4375,0.03125
62,1727894440222,0.39453125,0.49804688,0.80078125,-0.375,0.3125,0.28125
63,1727894440262,0.3955078,0.49609375,0.7939453,-0.125,0.125,0.21875
64,1727894440302,0.39453125,0.49316406,0.8046875,0.21875,-0.0625,-0.15625
65,1727894440342,0.40722656,0.49609375,0.79589844,0.53125,-0.1875,-0.25
66,1727894440382,0.3955078,0.4873047,0.80078125,0.46875,-0.1875,-0.15625
67,1727894440422,0.3955078,0.49121094,0.8095703,0.03125,-0.1875,-0.15625
68,1727894440462,0.40234375,0.49902344,0.8076172,0.0,-0.125,0.09375
69,1727894440502,0.4033203,0.50097656,0.78222656,-0.375,0.0,-0.09375
70,1727894440542,0.3984375,0.4951172,0.8017578,-0.6875,0.0625,0.40625
71,1727894440582,0.3955078,0.484375,0.7998047,-0.6875,-0.0625,0.28125
72,1727894440622,0.39257812,0.4892578,0.8066406,0.71875,-0.1875,0.09375
73,1727894440662,0.40429688,0.48632812,0.7871094,0.59375,-0.53125,-0.09375
74,1727894440702,0.39648438,0.50097656,0.7949219,1.03125,-0.4375,-0.375
75,1727894440742,0.39941406,0.49902344,0.8144531,0.40625,-0.1875,-0.1875
76,1727894440782,0.40625,0.5019531,0.7910156,-0.125,-0.25,-0.15625
77,1727894440822,0.4013672,0.49902344,0.79296875,-0.25,-0.0625,-0.1875
78,1727894440862,0.40039062,0.49121094,0.7910156,-0.625,0.125,-0.09375
79,1727894440902,0.38964844,0.484375,0.7939453,-0.75,0.1875,-0.15625
80,1727894440942,0.3935547,0.50097656,0.8046875,0.0,0.375,0.03125
81,1727894440982,0.39941406,0.49023438,0.7949219,-0.0625,0.25,0.09375
82,1727894441022,0.3955078,0.4873047,0.8027344,0.03125,0.25,0.21875
83,1727894441062,0.39648438,0.50390625,0.7763672,0.09375,-0.0625,0.09375
84,1727894441102,0.39746094,0.5019531,0.7998047,0.40625,-0.1875,-0.1875
85,1727894441142,0.3984375,0.49902344,0.7910156,0.65625,-0.1875,-0.4375
86,1727894441182,0.40820312,0.4892578,0.78125,0.59375,-0.3125,-0.25
87,1727894441222,0.4013672,0.49023438,0.7910156,0.0,0.0625,0.15625
88,1727894441262,0.39746094,0.49804688,0.79296875,-0.4375,0.25,0.28125
89,1727894441302,0.39453125,0.48828125,0.7919922,-0.4375,0.125,0.09375
90,1727894441342,0.39257812,0.49804688,0.79785156,0.03125,-0.0625,-0.15625
91,1727894441382,0.4013672,0.50097656,0.79785156,0.03125,-0.375,-0.1875
92,1727894441422,0.40039062,0.5019531,0.8017578,0.0,-0.0625,-0.03125
93,1727894441462,0.39941406,0.49414062,0.79785156,0.0,-0.125,0.21875
94,1727894441502,0.39941406,0.49804688,0.79785156,-0.3125,-0.0625,0.09375
95,1727894441542,0.39746094,0.49414062,0.7871094,-0.1875,0.0,-0.03125
96,1727894441582,0.40722656,0.49023438,0.8046875,0.0,0.125,0.03125
97,1727894441622,0.39941406,0.49316406,0.79589844,-0.375,0.0625,0.21875
98,1727894441662,0.39746094,0.48535156,0.7949219,-1.34375,0.4375,0.84375
99,1727894441702,0.40429688,0.4873047,0.81152344,-1.40625,0.8125,0.96875
100,1727894441742,0.40039062,0.4951172,0.80078125,0.40625,-0.625,-0.125
101,1727894441782,0.40039062,0.49804688,0.78808594,0.3125,-0.5,-0.1875
102,1727894441822,0.40625,0.5,0.79296875,0.125,-0.25,-0.1875
103,1727894441862,0.39746094,0.484375,0.79785156,0.0625,-0.125,-0.25
104,1727894441902,0.39648438,0.49316406,0.80078125,-0.1875,0.0,-0.03125
105,1727894441942,0.39257812,0.49316406,0.7861328,-0.3125,-0.0625,0.21875
106,1727894441982,0.40039062,0.49902344,0.79296875,0.0625,-0.125,0.03125
107,1727894442022,0.39453125,0.49902344,0.8027344,0.375,-0.1875,-0.09375
108,1727894442062,0.39746094,0.49804688,0.79589844,0.53125,0.0,-0.03125
109,1727894442102,0.39746094,0.49316406,0.78808594,0.59375,-0.3125,-0.03125
110,1727894442142,0.40820312,0.49609375,0.8066406,0.3125,-0.25,-0.4375
111,1727894442182,0.4033203,0.5019531,0.7861328,0.1875,-0.125,-0.25
112,1727894442222,0.39257812,0.49121094,0.7988281,-0.0625,-0.25,-0.125
113,1727894442262,0.38378906,0.5029297,0.7783203,0.53125,-0.75,0.28125
114,1727894442302,0.39746094,0.5,0.7871094,0.375,-0.75,-0.03125
115,1727894442342,0.39941406,0.5029297,0.79296875,1.15625,-1.21875,-1.0625
116,1727894442382,0.4169922,0.5,0.7949219,3.09375,-2.03125,-1.25
117,1727894442422,0.41015625,0.4970703,0.7949219,1.6875,-1.96875,-1.0625
118,1727894442462,0.3984375,0.48828125,0.7998047,0.0625,-1.09375,-0.375
119,1727894442502,0.3935547,0.48242188,0.7910156,-0.1875,-0.1875,-0.09375
120,1727894442542,0.3857422,0.4951172,0.81640625,1.46875,-0.625,0.09375
121,1727894442582,0.40625,0.51171875,0.7841797,1.28125,-0.90625,0.15625
122,1727894442622,0.41308594,0.50097656,0.78808594,0.1875,-0.5625,-0.125
123,1727894442662,0.40234375,0.49804688,0.7890625,-0.875,0.0625,0.28125
124,1727894442702,0.40625,0.48339844,0.8066406,-1.46875,0.46875,0.59375
125,1727894442742,0.40234375,0.4951172,0.78808594,-1.28125,0.84375,0.40625
126,1727894442782,0.3955078,0.47558594,0.79003906,0.0,0.71875,0.28125
127,1727894442822,0.40039062,0.5029297,0.7939453,0.3125,0.65625,0.53125
128,1727894442862,0.40039062,0.4970703,0.79296875,-0.8125,0.71875,0.90625
129,1727894442902,0.39941406,0.5058594,0.7871094,-1.15625,0.96875,0.53125
130,1727894442942,0.39941406,0.5078125,0.7910156,-0.4375,0.375,0.21875
131,1727894442982,0.40234375,0.5078125,0.80078125,0.125,-0.125,-0.125
132,1727894443022,0.3955078,0.5058594,0.7988281,0.46875,-0.5,-0.5
133,1727894443062,0.3984375,0.49609375,0.79003906,0.1875,-0.4375,-0.5
134,1727894443102,0.39648438,0.49023438,0.7910156,0.3125,-0.3125,-0.4375
135,1727894443142,0.41015625,0.49121094,0.7910156,0.125,-0.125,-0.09375
136,1727894443182,0.39746094,0.4951172,0.78515625,-0.1875,0.0,0.03125
137,1727894443222,0.3935547,0.5029297,0.79785156,-0.1875,0.0625,-0.03125
138,1727894443262,0.39746094,0.5019531,0.8017578,-0.375,-0.0625,0.15625
139,1727894443302,0.3935547,0.50097656,0.7939453,-0.6875,0.0,0.15625
140,1727894443342,0.39257812,0.4970703,0.7949219,-0.625,-0.0625,0.46875
141,1727894443382,0.4013672,0.49121094,0.79589844,0.125,-0.3125,0.03125
142,1727894443422,0.40625,0.4951172,0.7988281,0.40625,-0.3125,-0.125
143,1727894443462,0.40625,0.50390625,0.8027344,0.125,-0.125,-0.25
144,1727894443502,0.39941406,0.49316406,0.79296875,-0.1875,-0.0625,0.03125
145,1727894443542,0.40039062,0.4921875,0.7988281,-0.6875,0.0,0.21875
146,1727894443582,0.39160156,0.48632812,0.80078125,-0.25,0.0625,0.09375
147,1727894443622,0.390625,0.49023438,0.8046875,0.0625,-0.0625,0.09375
148,1727894443662,0.39746094,0.49316406,0.79296875,0.1875,0.0625,-0.03125
149,1727894443702,0.39453125,0.49414062,0.78125,0.125,-0.3125,-0.09375
150,1727894443742,0.3984375,0.4814453,0.7988281,0.25,-0.3125,-0.1875
151,1727894443782,0.40722656,0.5029297,0.7861328,0.375,-0.3125,-0.1875
152,1727894443822,0.40527344,0.49316406,0.7939453,0.125,-0.125,-0.03125
153,1727894443862,0.39746094,0.4873047,0.7910156,0.0,0.0,-0.03125
154,1727894443902,0.39746094,0.4970703,0.7998047,0.125,-0.0625,0.28125
155,1727894443942,0.40039062,0.49121094,0.7910156,-0.25,-0.125,0.09375
156,1727894443982,0.39648438,0.4921875,0.80078125,0.125,-0.0625,-0.03125
157,1727894444022,0.4013672,0.49414062,0.79785156,0.3125,-0.1875,-0.125
158,1727894444062,0.41210938,0.49121094,0.8144531,0.3125,-0.125,-0.375
159,1727894444102,0.40820312,0.5,0.80078125,0.125,0.0,-0.09375
160,1727894444142,0.40039062,0.4951172,0.7919922,0.0625,0.0,-0.09375
161,1727894444182,0.39941406,0.49316406,0.8027344,0.0,-0.1875,-0.03125
162,1727894444222,0.3935547,0.49121094,0.7871094,-0.125,0.0,-0.09375
163,1727894444262,0.4091797,0.4951172,0.796875,0.1875,-0.1875,-0.1875
164,1727894444302,0.40039062,0.49609375,0.79785156,0.25,-0.125,-0.25
165,1727894444342,0.39941406,0.4921875,0.79003906,0.125,-0.0625,-0.03125
166,1727894444382,0.40039062,0.48632812,0.7939453,0.0625,0.0,-0.09375
167,1727894444422,0.4033203,0.5,0.796875,0.125,-0.0625,-0.125
168,1727894444462,0.40039062,0.4814453,0.7919922,0.0,-0.3125,0.03125
169,1727894444502,0.390625,0.5058594,0.78808594,0.3125,-0.3125,-0.03125
170,1727894444542,0.39746094,0.4951172,0.7998047,0.125,-0.25,-0.1875
171,1727894444582,0.3955078,0.49902344,0.78808594,0.125,-0.1875,-0.25
172,1727894444622,0.40234375,0.48242188,0.7890625,0.125,-0.25,-0.1875
173,1727894444662,0.39746094,0.4951172,0.7841797,0.125,-0.0625,0.09375
174,1727894444702,0.40429688,0.49023438,0.7832031,0.125,0.0,0.03125
175,1727894444742,0.4013672,0.49316406,0.80078125,0.0,-0.125,-0.125
176,1727894444782,0.40625,0.4951172,0.7998047,0.3125,-0.0625,-0.125
177,1727894444822,0.4013672,0.49316406,0.7939453,0.0,-0.0625,-0.03125
178,1727894444862,0.40039062,0.5,0.7910156,-0.125,0.0625,-0.03125
179,1727894444902,0.40820312,0.49316406,0.7998047,-0.125,0.3125,0.03125
180,1727894444942,0.40039062,0.4873047,0.79296875,0.0,0.0625,-0.03125
181,1727894444982,0.39160156,0.49316406,0.796875,0.0625,-0.3125,0.09375
182,1727894445022,0.3984375,0.4951172,0.7949219,0.1875,-0.1875,-0.125
183,1727894445062,0.39453125,0.50097656,0.80078125,0.25,-0.1875,-0.1875
184,1727894445102,0.40039062,0.4951172,0.79785156,0.0625,-0.25,-0.125
185,1727894445142,0.40039062,0.5,0.8017578,0.125,-0.25,-0.09375
186,1727894445182,0.40429688,0.49121094,0.8027344,-0.125,-0.25,-0.1875
187,1727894445222,0.39257812,0.49316406,0.8027344,0.3125,-0.1875,-0.1875
188,1727894445262,0.39648438,0.48828125,0.80078125,0.53125,-0.3125,-0.125
189,1727894445302,0.3984375,0.48828125,0.7939453,0.0,-0.125,-0.125
190,1727894445342,0.39648438,0.4892578,0.8066406,0.1875,0.1875,0.09375
191,1727894445382,0.39941406,0.4951172,0.80078125,0.46875,0.0,0.09375
192,1727894445422,0.40625,0.4951172,0.79296875,0.25,0.0,-0.03125
193,1727894445462,0.40039062,0.5048828,0.80859375,0.1875,-0.125,-0.125
194,1727894445502,0.39941406,0.49023438,0.7939453,0.125,-0.125,-0.125
195,1727894445542,0.39941406,0.5078125,0.7949219,-0.0625,-0.125,-0.03125
196,1727894445582,0.39160156,0.4951172,0.8046875,-0.90625,0.1875,0.09375
197,1727894445622,0.38964844,0.4892578,0.79296875,-0.375,-0.0625,-0.09375
198,1727894445662,0.39453125,0.49121094,0.79785156,0.65625,-0.3125,-0.375
199,1727894445702,0.40527344,0.4921875,0.8017578,1.03125,-0.3125,-0.5
200,1727894445742,0.40039062,0.4892578,0.79296875,0.65625,-0.0625,-0.25
201,1727894445782,0.4033203,0.49121094,0.80078125,0.46875,0.1875,0.03125
202,1727894445822,0.40234375,0.49902344,0.7998047,-0.25,0.1875,0.03125
203,1727894445862,0.3935547,0.5019531,0.8046875,-0.1875,0.125,0.21875
204,1727894445902,0.39648438,0.49609375,0.7949219,-0.125,-0.0625,-0.03125
205,1727894445942,0.3984375,0.5029297,0.7949219,0.3125,-0.25,-0.03125
206,1727894445982,0.39257812,0.49609375,0.7988281,-0.3125,-0.375,-0.125
207,1727894446022,0.39453125,0.49902344,0.80078125,0.125,-0.125,0.03125
208,1727894446062,0.3984375,0.49023438,0.78125,0.125,-0.3125,-0.125
209,1727894446102,0.39941406,0.4794922,0.80371094,0.375,-0.3125,-0.125
210,1727894446142,0.39746094,0.49804688,0.7919922,0.125,-0.3125,-0.125
211,1727894446182,0.40039062,0.48828125,0.7988281,-0.1875,-0.1875,0.03125
212,1727894446222,0.4033203,0.49316406,0.80859375,-0.1875,0.0625,0.15625
213,1727894446262,0.40039062,0.49414062,0.7988281,0.15625,0.21875,-0.125
214,1727894446302,0.39941406,0.49414062,0.80859375,0.46875,-0.09375,-0.1875
215,1727894446342,0.4033203,0.4951172,0.8046875,0.59375,-0.5,-0.125
216,1727894446382,0.4033203,0.49609375,0.7949219,0.34375,-0.375,-0.125
217,1727894446422,0.3955078,0.49316406,0.796875,-0.21875,-0.21875,0.0
218,1727894446462,0.39941406,0.49902344,0.796875,-0.40625,-0.28125,0.125
219,1727894446502,0.3984375,0.48535156,0.7910156,-0.34375,-0.28125,0.0625
220,1727894446542,0.3955078,0.4951172,0.80859375,-0.28125,-0.28125,-0.0625
221,1727894446582,0.40527344,0.49609375,0.7949219,-0.40625,-0.21875,0.125
222,1727894446622,0.40527344,0.49121094,0.7988281,-0.40625,-0.09375,-0.125
223,1727894446662,0.3935547,0.49609375,0.80078125,-0.21875,-0.28125,-0.125
224,1727894446702,0.3955078,0.4873047,0.796875,-0.03125,-0.09375,-0.0625
225,1727894446742,0.39941406,0.48242188,0.7998047,0.15625,-0.09375,0.0625
226,1727894446782,0.39746094,0.49902344,0.7871094,0.78125,-0.21875,-0.125
227,1727894446822,0.40527344,0.5,0.80371094,0.71875,-0.21875,-0.0625
228,1727894446862,0.39746094,0.4970703,0.7998047,0.46875,-0.375,0.0
229,1727894446902,0.39257812,0.49609375,0.8027344,0.46875,-0.375,-0.1875
230,1727894446942,0.40039062,0.4892578,0.7871094,-0.03125,-0.21875,-0.125
231,1727894446982,0.40625,0.49316406,0.80078125,-0.28125,-0.03125,0.125
232,1727894447022,0.40625,0.49023438,0.7988281,-0.34375,0.03125,0.1875
233,1727894447062,0.3984375,0.484375,0.79296875,-0.34375,0.21875,0.125
234,1727894447102,0.39160156,0.5048828,0.8027344,-0.34375,0.09375,0.125
235,1727894447142,0.40039062,0.49804688,0.7890625,0.03125,-0.03125,-0.125
236,1727894447182,0.3955078,0.49804688,0.79589844,-0.03125,0.09375,0.125
237,1727894447222,0.40429688,0.50097656,0.80078125,-0.03125,0.03125,0.0625
238,1727894447262,0.39648438,0.49023438,0.796875,0.15625,-0.03125,-0.0625
239,1727894447302,0.38671875,0.49609375,0.7890625,0.03125,-0.09375,0.0
240,1727894447342,0.4013672,0.4970703,0.7949219,0.09375,-0.15625,0.0
241,1727894447382,0.40234375,0.49902344,0.7861328,0.09375,0.09375,-0.125
242,1727894447422,0.3935547,0.49023438,0.7832031,-0.15625,0.03125,0.1875
243,1727894447462,0.40039062,0.49609375,0.7988281,-0.03125,0.09375,0.1875
244,1727894447502,0.40234375,0.48535156,0.8125,-0.03125,-0.03125,-0.125
245,1727894447542,0.4013672,0.5029297,0.8046875,-0.03125,0.03125,-0.0625
246,1727894447582,0.3955078,0.49414062,0.7939453,-0.15625,-0.21875,0.0
247,1727894447622,0.39648438,0.48339844,0.80371094,-0.28125,0.03125,0.125
248,1727894447662,0.3955078,0.49023438,0.8066406,-0.15625,0.15625,0.0625
249,1727894447702,0.3955078,0.5,0.80566406,0.03125,0.21875,0.125
250,1727894447742,0.39648438,0.48828125,0.7919922,0.21875,-0.09375,0.125
251,1727894447782,0.40527344,0.49023438,0.7919922,0.03125,-0.15625,-0.0625
252,1727894447822,0.4013672,0.49609375,0.796875,0.21875,-0.15625,-0.1875
253,1727894447862,0.39648438,0.5,0.7998047,0.15625,-0.03125,-0.0625
254,1727894447902,0.39257812,0.49121094,0.8017578,0.03125,-0.09375,-0.0625
255,1727894447942,0.40039062,0.4873047,0.79785156,-0.09375,0.03125,0.0625
256,1727894447982,0.39648438,0.48828125,0.80371094,-0.15625,-0.09375,0.1875
257,1727894448022,0.3935547,0.49414062,0.80566406,-0.21875,0.03125,0.0625
258,1727894448062,0.39746094,0.49804688,0.7871094,0.21875,-0.03125,0.0625
259,1727894448102,0.39160156,0.4951172,0.79589844,0.03125,-0.15625,0.0
260,1727894448142,0.39257812,0.49121094,0.796875,0.09375,0.03125,0.125
261,1727894448182,0.40820312,0.49023438,0.80078125,0.15625,-0.03125,0.1875
262,1727894448222,0.4033203,0.49023438,0.7910156,-0.03125,0.03125,-0.125
263,1727894448262,0.40039062,0.49804688,0.79785156,-0.03125,0.03125,0.0
264,1727894448302,0.40039062,0.49316406,0.8017578,-0.34375,-0.03125,-0.0625
265,1727894448342,0.38964844,0.4951172,0.79296875,-0.28125,0.15625,0.21875
266,1727894448382,0.390625,0.5029297,0.79785156,-0.21875,0.09375,0.21875
267,1727894448422,0.39746094,0.49121094,0.80566406,0.09375,0.09375,-0.0625
268,1727894448462,0.40527344,0.5,0.80078125,0.15625,-0.09375,0.0
269,1727894448502,0.40039062,0.4873047,0.7910156,-0.15625,-0.28125,-0.0625
270,1727894448542,0.3984375,0.48828125,0.79003906,-0.03125,-0.21875,-0.125
271,1727894448582,0.3984375,0.48535156,0.8027344,0.03125,0.03125,-0.0625
272,1727894448622,0.40625,0.48828125,0.7890625,0.09375,0.03125,0.21875
273,1727894448662,0.40234375,0.4951172,0.7861328,-0.21875,0.03125,0.0
274,1727894448702,0.4013672,0.49414062,0.7919922,-0.15625,-0.03125,0.0
275,1727894448742,0.3984375,0.49316406,0.7998047,-0.03125,-0.09375,-0.0625
276,1727894448782,0.4013672,0.49023438,0.80859375,0.40625,-0.21875,-0.125
277,1727894448822,0.40429688,0.48828125,0.79296875,0.09375,-0.21875,0.125
278,1727894448862,0.39453125,0.48828125,0.7919922,-0.03125,0.09375,0.125
279,1727894448902,0.40820312,0.4794922,0.79785156,-0.03125,0.03125,0.0625
280,1727894448942,0.41210938,0.4892578,0.7949219,0.03125,-0.15625,-0.0625
281,1727894448982,0.4140625,0.49609375,0.8027344,-0.03125,-0.03125,-0.125
282,1727894449022,0.40039062,0.4794922,0.796875,-0.5,0.03125,0.0
283,1727894449062,0.39746094,0.49609375,0.7939453,-0.28125,0.15625,0.125
284,1727894449102,0.4013672,0.47753906,0.8046875,0.15625,0.03125,0.0625
285,1727894449142,0.40039062,0.49609375,0.79003906,0.28125,-0.21875,-0.125
286,1727894449182,0.40625,0.49609375,0.8027344,0.15625,-0.09375,-0.125
287,1727894449222,0.40039062,0.49023438,0.7998047,-0.15625,-0.09375,-0.0625
288,1727894449262,0.39746094,0.49121094,0.8046875,-0.28125,-0.21875,0.0
289,1727894449302,0.39160156,0.48828125,0.79589844,0.03125,-0.21875,-0.0625
290,1727894449342,0.3984375,0.49609375,0.7988281,0.28125,-0.03125,0.0
291,1727894449382,0.3984375,0.4873047,0.7939453,0.15625,-0.15625,-0.0625
292,1727894449422,0.3955078,0.5,0.7949219,0.03125,-0.03125,0.21875
293,1727894449462,0.40527344,0.484375,0.80859375,-0.09375,-0.21875,0.0
294,1727894449502,0.3984375,0.4951172,0.7949219,0.03125,-0.21875,-0.1875
295,1727894449542,0.4013672,0.49121094,0.80566406,0.28125,-0.21875,-0.1875
296,1727894449582,0.3955078,0.50097656,0.8076172,-0.09375,-0.09375,0.0625
297,1727894449622,0.39257812,0.4921875,0.8076172,-0.28125,0.03125,0.1875
298,1727894449662,0.3984375,0.49023438,0.8105469,-0.15625,-0.03125,0.1875
299,1727894449702,0.39160156,0.49609375,0.7910156,-0.03125,0.09375,0.125
300,1727894449742,0.40234375,0.49414062,0.8027344,-0.21875,-0.21875,0.125
301,1727894449782,0.39746094,0.48828125,0.796875,0.09375,-0.09375,-0.1875
302,1727894449822,0.40429688,0.49023438,0.78808594,0.15625,-0.15625,-0.125
303,1727894449862,0.390625,0.4892578,0.7998047,0.03125,-0.03125,-0.0625
304,1727894449902,0.3935547,0.49804688,0.8046875,-0.28125,-0.09375,0.0625
305,1727894449942,0.39648438,0.5029297,0.7890625,-0.09375,-0.15625,0.0625
306,1727894449982,0.39746094,0.48828125,0.79589844,0.03125,-0.03125,0.0
307,1727894450022,0.39648438,0.484375,0.8046875,0.15625,-0.03125,-0.1875
308,1727894450062,0.40722656,0.49414062,0.80566406,-0.03125,-0.09375,0.0
309,1727894450102,0.40039062,0.49609375,0.7949219,-0.09375,-0.28125,-0.9375
310,1727894450142,0.3984375,0.4921875,0.79003906,-0.15625,-0.15625,-0.75
311,1727894450182,0.4013672,0.49609375,0.7890625,-0.09375,-0.4375,-0.875
312,1727894450222,0.38964844,0.49414062,0.7832031,0.09375,-0.34375,-0.875
313,1727894450262,0.3984375,0.49804688,0.7998047,0.28125,-0.21875,-0.8125
314,1727894450302,0.40820312,0.49121094,0.79589844,0.09375,-0.21875,-0.75
315,1727894450342,0.40234375,0.4873047,0.7949219,-0.09375,-0.15625,-0.75
316,1727894450382,0.4013672,0.49023438,0.7998047,-0.09375,-0.34375,-1.0625
317,1727894450422,0.39941406,0.49609375,0.78515625,-0.09375,-0.28125,-1.09375
318,1727894450462,0.39257812,0.4873047,0.7910156,-0.28125,-0.09375,-0.8125
319,1727894450502,0.3955078,0.49023438,0.79296875,-0.28125,-0.03125,-0.875
320,1727894450542,0.39746094,0.4921875,0.7861328,0.15625,-0.28125,-0.875
321,1727894450582,0.40527344,0.484375,0.7939453,0.40625,-0.4375,-0.8125
322,1727894450622,0.40039062,0.4951172,0.79589844,0.03125,-0.375,-0.9375
323,1727894450662,0.4013672,0.49804688,0.80078125,-0.09375,-0.5,-0.875
324,1727894450702,0.40039062,0.4921875,0.7988281,-0.09375,-0.28125,-0.875
325,1727894450742,0.39746094,0.48828125,0.7939453,-0.15625,-0.21875,-1.0
326,1727894450782,0.39941406,0.49316406,0.8017578,-0.03125,-0.28125,-0.75
327,1727894450822,0.40820312,0.49121094,0.79785156,0.03125,-0.09375,-0.9375
328,1727894450862,0.3935547,0.48535156,0.8017578,-0.15625,-0.09375,-0.75
329,1727894450902,0.390625,0.4921875,0.7910156,0.03125,-0.21875,-0.75
330,1727894450942,0.3984375,0.5019531,0.8046875,0.21875,-0.28125,-1.0625
331,1727894450982,0.3984375,0.4970703,0.8027344,0.21875,-0.15625,-0.9375
332,1727894451022,0.39746094,0.49316406,0.7890625,-0.21875,-0.28125,-0.625
333,1727894451062,0.39648438,0.4921875,0.7910156,0.21875,-0.28125,-1.0625
334,1727894451102,0.40722656,0.49609375,0.8027344,0.34375,-0.4375,-1.0
335,1727894451142,0.4033203,0.48339844,0.7890625,-0.09375,-0.28125,-0.875
336,1727894451182,0.39941406,0.5048828,0.7890625,-0.09375,-0.03125,-0.75
337,1727894451222,0.390625,0.49121094,0.7910156,-0.09375,-0.15625,-0.75
338,1727894451262,0.41015625,0.4951172,0.80859375,-0.03125,-0.21875,-0.75
339,1727894451302,0.4013672,0.48632812,0.7871094,-0.15625,-0.15625,-0.8125
340,1727894451342,0.4033203,0.48535156,0.8076172,-0.03125,-0.21875,-0.8125
341,1727894451382,0.40234375,0.4951172,0.8066406,-0.21875,-0.28125,-0.75
342,1727894451422,0.39648438,0.48828125,0.7919922,-0.15625,-0.34375,-0.9375
343,1727894451462,0.3984375,0.4951172,0.7998047,0.09375,-0.34375,-1.0
344,1727894451502,0.3984375,0.49121094,0.7949219,0.09375,-0.28125,-0.875
345,1727894451542,0.40429688,0.49121094,0.79003906,-0.09375,-0.21875,-0.75
346,1727894451582,0.39746094,0.49023438,0.7841797,-0.28125,-0.09375,-0.625
347,1727894451622,0.39648438,0.49804688,0.79589844,0.09375,-0.21875,-0.875
348,1727894451662,0.39160156,0.49121094,0.79296875,0.09375,-0.34375,-0.8125
349,1727894451702,0.3955078,0.49414062,0.796875,-0.03125,-0.15625,-0.625
350,1727894451742,0.40722656,0.49316406,0.78808594,0.15625,-0.21875,-1.0
351,1727894451782,0.40722656,0.48632812,0.8017578,0.15625,-0.34375,-1.0
352,1727894451822,0.39648438,0.49316406,0.7939453,-0.21875,-0.28125,-0.9375
353,1727894451862,0.3935547,0.49316406,0.7939453,-0.5,-0.21875,-0.8125
354,1727894451902,0.390625,0.48632812,0.80078125,-0.03125,-0.15625,-0.8125
355,1727894451942,0.4033203,0.49609375,0.80078125,-0.03125,0.03125,-0.8125
356,1727894451982,0.40429688,0.49316406,0.81640625,-0.09375,-0.15625,-0.875
357,1727894452022,0.40625,0.49023438,0.7949219,-0.03125,-0.34375,-0.9375
358,1727894452062,0.39257812,0.49414062,0.79589844,-0.09375,-0.4375,-0.9375
359,1727894452102,0.39453125,0.49414062,0.7910156,-0.09375,-0.28125,-0.8125
360,1727894452142,0.40039062,0.49316406,0.7919922,0.03125,-0.34375,-1.0625
361,1727894452182,0.40429688,0.4921875,0.796875,0.09375,-0.15625,-0.8125
362,1727894452222,0.39648438,0.49121094,0.7861328,-0.03125,-0.15625,-0.8125
363,1727894452262,0.39746094,0.48339844,0.79785156,-0.21875,-0.09375,-0.8125
364,1727894452302,0.40234375,0.4873047,0.8027344,-0.09375,-0.375,-0.8125
365,1727894452342,0.3984375,0.49804688,0.80078125,-0.15625,-0.34375,-0.9375
366,1727894452382,0.40039062,0.4873047,0.79785156,-0.03125,0.09375,-0.75
367,1727894452422,0.39746094,0.49414062,0.79589844,0.21875,-0.21875,-0.875
368,1727894452462,0.40820312,0.49023438,0.79785156,0.21875,-0.28125,-1.09375
369,1727894452502,0.40625,0.49316406,0.79785156,-0.15625,-0.34375,-0.875
370,1727894452542,0.3984375,0.484375,0.78808594,-0.34375,-0.375,-0.75
371,1727894452582,0.40039062,0.48632812,0.7871094,-0.03125,-0.09375,-0.75
372,1727894452622,0.40234375,0.49121094,0.7939453,0.03125,-0.15625,-0.75
373,1727894452662,0.39648438,0.4892578,0.80371094,0.21875,-0.34375,-0.9375
374,1727894452702,0.39746094,0.49023438,0.7949219,0.03125,-0.34375,-0.9375
375,1727894452742,0.40429688,0.48632812,0.78222656,-0.21875,-0.4375,-0.875
376,1727894452782,0.3955078,0.49023438,0.80078125,-0.09375,-0.34375,-0.9375
377,1727894452822,0.39941406,0.4951172,0.7998047,-0.03125,-0.09375,-0.8125
378,1727894452862,0.40234375,0.49023438,0.8095703,-0.15625,-0.34375,-0.875
379,1727894452902,0.40429688,0.50390625,0.8046875,-0.21875,0.03125,-0.625
380,1727894452942,0.40429688,0.49804688,0.796875,-0.34375,-0.28125,-0.875
381,1727894452982,0.3955078,0.49414062,0.79296875,-0.09375,-0.4375,-0.9375
382,1727894453022,0.38378906,0.49316406,0.8017578,0.34375,-0.4375,-0.8125
383,1727894453062,0.3984375,0.4921875,0.79785156,0.21875,-0.15625,-0.8125
384,1727894453102,0.40039062,0.4892578,0.8046875,0.28125,-0.28125,-0.75
385,1727894453142,0.40429688,0.48535156,0.8017578,0.34375,-0.625,-1.0625
386,1727894453182,0.39941406,0.49121094,0.79785156,-0.03125,-0.375,-1.0625
387,1727894453222,0.39941406,0.49414062,0.7949219,-0.5,-0.15625,-0.9375
388,1727894453262,0.40039062,0.49023438,0.7939453,-0.40625,0.15625,-0.8125
389,1727894453302,0.39746094,0.4921875,0.80371094,-0.5,0.34375,-0.9375
390,1727894453342,0.390625,0.4794922,0.79296875,-0.4375,0.03125,-0.9375
391,1727894453382,0.3955078,0.49121094,0.7919922,-0.28125,-0.34375,-0.875
392,1727894453422,0.3935547,0.48632812,0.8076172,-0.09375,-0.28125,-0.8125
393,1727894453462,0.3857422,0.49023438,0.79785156,0.03125,-0.34375,-0.6875
394,1727894453502,0.3955078,0.49414062,0.7939453,0.53125,-0.5,-0.6875
395,1727894453542,0.40527344,0.4921875,0.79003906,0.59375,-0.625,-1.0
396,1727894453582,0.41503906,0.4921875,0.80078125,0.53125,-0.75,-1.0625
397,1727894453622,0.40625,0.49414062,0.7998047,0.34375,-0.5,-1.15625
398,1727894453662,0.40527344,0.4921875,0.80371094,-0.03125,-0.03125,-0.875
399,1727894453702,0.40039062,0.49609375,0.8076172,-0.75,0.21875,-0.875
400,1727894453742,0.3955078,0.49316406,0.7919922,-0.5,0.46875,-0.5
401,1727894453782,0.3955078,0.48242188,0.7910156,-0.15625,0.15625,-0.625
402,1727894453822,0.4013672,0.4951172,0.796875,0.15625,-0.21875,-1.0
403,1727894453862,0.40039062,0.49316406,0.79589844,0.46875,-0.6875,-1.21875
404,1727894453902,0.40429688,0.4873047,0.8066406,0.40625,-0.625,-1.15625
405,1727894453942,0.40039062,0.4921875,0.80371094,0.15625,-0.34375,-1.0625
406,1727894453982,0.40722656,0.48828125,0.79296875,-0.15625,-0.28125,-0.75
407,1727894454022,0.4013672,0.4873047,0.80566406,-0.15625,-0.03125,-0.5
408,1727894454062,0.40429688,0.48632812,0.8027344,-0.34375,0.09375,-0.5
409,1727894454102,0.4033203,0.4951172,0.7939453,-0.34375,-0.03125,-0.75
410,1727894454142,0.40234375,0.48828125,0.79296875,-0.21875,-0.15625,-1.0
411,1727894454182,0.39160156,0.4873047,0.796875,-0.09375,-0.34375,-1.0625
412,1727894454222,0.3984375,0.4970703,0.79785156,0.09375,-0.4375,-1.0625
413,1727894454262,0.40234375,0.49609375,0.7832031,0.15625,-0.34375,-0.9375
414,1727894454302,0.40234375,0.49121094,0.80371094,0.03125,-0.34375,-0.8125
415,1727894454342,0.40039062,0.48828125,0.8046875,-0.03125,-0.34375,-0.5625
416,1727894454382,0.40234375,0.48828125,0.80078125,-0.03125,-0.34375,-1.0
417,1727894454422,0.40039062,0.4951172,0.796875,0.09375,-0.34375,-0.6875
418,1727894454462,0.40722656,0.49316406,0.79296875,-0.03125,-0.15625,-0.6875
419,1727894454502,0.4013672,0.4892578,0.7871094,0.09375,-0.21875,-1.0
420,1727894454542,0.40527344,0.49023438,0.80566406,-0.09375,-0.34375,-1.0
421,1727894454582,0.3955078,0.50390625,0.7919922,-0.15625,-0.28125,-0.9375
422,1727894454622,0.39941406,0.49414062,0.7939453,-0.40625,-0.09375,-0.75
423,1727894454662,0.39746094,0.49121094,0.78808594,-0.03125,-0.15625,-0.75
424,1727894454702,0.4013672,0.49121094,0.7910156,0.03125,-0.15625,-0.625
425,1727894454742,0.39746094,0.49121094,0.78808594,-0.09375,-0.28125,-0.75
426,1727894454782,0.3935547,0.48828125,0.8066406,0.03125,-0.375,-1.0
427,1727894454822,0.40625,0.49316406,0.7949219,-0.03125,-0.34375,-0.8125
428,1727894454862,0.390625,0.49316406,0.8046875,0.03125,-0.09375,-0.9375
429,1727894454902,0.39648438,0.4921875,0.7890625,-0.09375,-0.21875,-0.6875
430,1727894454942,0.40527344,0.4951172,0.796875,-0.15625,-0.09375,-0.625
431,1727894454982,0.4013672,0.49023438,0.7939453,-0.03125,-0.03125,-0.5625
432,1727894455022,0.39648438,0.49804688,0.7734375,-0.09375,-0.28125,-0.75
433,1727894455062,0.3955078,0.49609375,0.7998047,0.15625,-0.34375,-0.8125
434,1727894455102,0.40039062,0.4921875,0.79003906,0.09375,-0.375,-0.8125
435,1727894455142,0.40039062,0.49121094,0.79296875,0.03125,-0.03125,-0.8125
436,1727894455182,0.40722656,0.50097656,0.79296875,-0.03125,-0.34375,-0.6875
437,1727894455222,0.4033203,0.49023438,0.796875,-0.03125,-0.34375,-1.0625
438,1727894455262,0.40527344,0.5078125,0.7949219,-0.09375,-0.28125,-1.0625
439,1727894455302,0.40039062,0.49609375,0.8046875,-0.40625,-0.34375,-0.8125
440,1727894455342,0.38964844,0.49023438,0.8105469,-0.34375,0.15625,-0.75
441,1727894455382,0.3955078,0.48242188,0.79003906,-0.09375,-0.03125,-0.8125
442,1727894455422,0.39941406,0.4921875,0.78808594,0.09375,-0.21875,-0.8125
443,1727894455462,0.39453125,0.49023438,0.78808594,-0.03125,-0.375,-1.0
444,1727894455502,0.39941406,0.4970703,0.79296875,-0.03125,-0.34375,-1.0625
445,1727894455542,0.40234375,0.48828125,0.7871094,-0.03125,-0.34375,-0.9375
446,1727894455582,0.39648438,0.48828125,0.7949219,-0.03125,-0.28125,-0.8125
447,1727894455622,0.3984375,0.49023438,0.79296875,-0.09375,-0.15625,-0.8125
448,1727894455662,0.40039062,0.48632812,0.7832031,-0.09375,-0.21875,-0.625
449,1727894455702,0.390625,0.4970703,0.8076172,-0.21875,-0.21875,-0.6875
450,1727894455742,0.40429688,0.49316406,0.7861328,-0.03125,-0.375,-0.9375
451,1727894455782,0.40625,0.49316406,0.7998047,0.21875,-0.5625,-1.09375
452,1727894455822,0.39746094,0.49121094,0.79296875,0.03125,-0.21875,-1.0625
453,1727894455862,0.3955078,0.49609375,0.8027344,-0.15625,-0.28125,-0.8125
454,1727894455902,0.40039062,0.49121094,0.8027344,-0.15625,-0.21875,-0.8125
455,1727894455942,0.39648438,0.49121094,0.79785156,-0.09375,-0.21875,-0.875
456,1727894455982,0.39746094,0.49414062,0.796875,-0.15625,-0.34375,-1.0
457,1727894456022,0.39648438,0.48632812,0.7939453,-0.09375,-0.28125,-0.9375
458,1727894456062,0.4033203,0.49121094,0.80078125,-0.03125,-0.28125,-1.0
459,1727894456102,0.39746094,0.49804688,0.7949219,0.15625,-0.34375,-0.9375
460,1727894456142,0.39941406,0.4921875,0.79589844,0.34375,-0.34375,-0.875
461,1727894456182,0.4013672,0.49121094,0.8066406,-0.03125,-0.28125,-0.75
462,1727894456222,0.40039062,0.4794922,0.8027344,-0.03125,-0.21875,-0.875
463,1727894456262,0.40429688,0.49804688,0.7919922,-0.03125,-0.15625,-0.8125
464,1727894456302,0.39453125,0.4873047,0.80566406,-0.21875,-0.15625,-0.75
465,1727894456342,0.39746094,0.49316406,0.80566406,-0.03125,-0.21875,-1.09375
466,1727894456382,0.3955078,0.49023438,0.796875,-0.03125,-0.28125,-1.0625
467,1727894456422,0.39160156,0.484375,0.8027344,0.09375,-0.5625,-0.9375
468,1727894456462,0.3955078,0.5,0.8027344,0.09375,-0.375,-0.625
469,1727894456502,0.39746094,0.49804688,0.8046875,-0.09375,-0.15625,-0.75
470,1727894456542,0.39746094,0.4951172,0.8027344,-0.03125,-0.09375,-0.6875
471,1727894456582,0.4033203,0.49316406,0.796875,-0.09375,-0.28125,-0.9375
472,1727894456622,0.3984375,0.49023438,0.80371094,0.09375,-0.34375,-1.09375
473,1727894456662,0.40039062,0.49414062,0.7949219,0.03125,-0.15625,-1.15625
474,1727894456702,0.40039062,0.47851562,0.78125,-0.15625,-0.09375,-0.875
475,1727894456742,0.39648438,0.49316406,0.80078125,-0.15625,-0.03125,-0.75
476,1727894456782,0.39257812,0.49609375,0.79785156,-0.09375,-0.28125,-0.75
477,1727894456822,0.40429688,0.49414062,0.7871094,0.15625,-0.34375,-0.875
478,1727894456862,0.39648438,0.49316406,0.7890625,0.15625,-0.5625,-0.9375
479,1727894456902,0.41308594,0.4892578,0.8017578,0.15625,-0.5,-1.09375
480,1727894456942,0.3955078,0.4873047,0.7998047,0.15625,-0.375,-0.9375
481,1727894456982,0.4111328,0.49414062,0.8017578,-0.21875,-0.28125,-0.875
482,1727894457022,0.39648438,0.48828125,0.79589844,-0.21875,0.03125,-0.8125
483,1727894457062,0.39648438,0.49414062,0.80371094,-0.09375,-0.03125,-0.75
484,1727894457102,0.4033203,0.4970703,0.796875,-0.09375,-0.09375,-0.6875
485,1727894457142,0.38867188,0.49316406,0.79589844,-0.09375,-0.15625,-0.8125
486,1727894457182,0.40625,0.484375,0.7861328,0.15625,-0.4375,-1.0
487,1727894457222,0.3955078,0.49804688,0.796875,0.21875,-0.5,-1.15625
488,1727894457262,0.4013672,0.48632812,0.8076172,0.03125,-0.34375,-0.75
489,1727894457302,0.40722656,0.48632812,0.7998047,-0.03125,-0.21875,-0.6875
490,1727894457342,0.40625,0.49609375,0.7939453,0.03125,-0.03125,-0.875
491,1727894457382,0.40429688,0.4951172,0.79003906,0.03125,-0.28125,-0.875
492,1727894457422,0.3984375,0.4921875,0.8027344,-0.15625,-0.09375,-0.75
493,1727894457462,0.4013672,0.48828125,0.7871094,-0.21875,-0.09375,-0.9375
494,1727894457502,0.3984375,0.49316406,0.7919922,-0.03125,-0.21875,-0.625
495,1727894457542,0.39941406,0.48828125,0.7998047,0.09375,-0.21875,-0.8125
496,1727894457582,0.39257812,0.49414062,0.7861328,0.09375,-0.28125,-0.8125
497,1727894457622,0.3984375,0.49316406,0.7939453,0.09375,-0.34375,-0.9375
498,1727894457662,0.3935547,0.4921875,0.7998047,-0.09375,-0.34375,-0.875
499,1727894457702,0.40429688,0.49902344,0.7998047,-0.09375,-0.34375,-0.8125
500,1727894457742,0.39453125,0.49804688,0.78515625,-0.09375,-0.15625,-0.75
501,1727894457782,0.39257812,0.48339844,0.7919922,-0.15625,-0.21875,-0.9375
502,1727894457822,0.40039062,0.48339844,0.7988281,-0.21875,-0.15625,-0.875
503,1727894457862,0.40820312,0.49121094,0.8027344,0.09375,-0.21875,-1.0
504,1727894457902,0.39941406,0.48828125,0.8046875,-0.09375,-0.375,-1.09375
505,1727894457942,0.39453125,0.49804688,0.7871094,0.03125,0.0,0.03125
506,1727894457982,0.39746094,0.4873047,0.8066406,-0.09375,-0.03125,-0.09375
507,1727894458022,0.40527344,0.48535156,0.8027344,0.09375,-0.09375,-0.03125
508,1727894458062,0.41015625,0.5048828,0.7988281,0.09375,-0.09375,-0.21875
509,1727894458102,0.39746094,0.49609375,0.79785156,-0.09375,-0.15625,-0.28125
510,1727894458142,0.39648438,0.4873047,0.7998047,-0.4375,-0.15625,0.03125
511,1727894458182,0.4013672,0.4970703,0.7998047,-0.15625,0.125,0.09375
512,1727894458222,0.3955078,0.48828125,0.7988281,-0.09375,0.125,-0.09375
513,1727894458262,0.39648438,0.49316406,0.78515625,-0.09375,-0.03125,-0.09375
514,1727894458302,0.39648438,0.4873047,0.7890625,-0.09375,0.0625,-0.09375
515,1727894458342,0.39648438,0.49121094,0.7998047,-0.3125,-0.15625,-0.03125
516,1727894458382,0.40527344,0.4873047,0.7998047,-0.25,-0.15625,-0.09375
517,1727894458422,0.3984375,0.5,0.7939453,-0.03125,-0.03125,-0.15625
518,1727894458462,0.39746094,0.49804688,0.80078125,-0.03125,-0.03125,-0.15625
519,1727894458502,0.39746094,0.4921875,0.79785156,-0.09375,-0.03125,-0.03125
520,1727894458542,0.40429688,0.4921875,0.80859375,0.03125,-0.15625,0.03125
521,1727894458582,0.3935547,0.49902344,0.8046875,0.03125,-0.21875,-0.28125
522,1727894458622,0.39941406,0.50097656,0.79296875,-0.03125,0.0625,0.03125
523,1727894458662,0.40039062,0.49609375,0.79296875,-0.09375,0.0625,0.09375
524,1727894458702,0.4013672,0.49609375,0.80371094,-0.03125,0.125,-0.21875
525,1727894458742,0.4013672,0.4951172,0.8046875,-0.25,-0.15625,-0.09375
526,1727894458782,0.4033203,0.50390625,0.78808594,-0.21875,0.0,-0.09375
527,1727894458822,0.39453125,0.48828125,0.796875,-0.4375,0.0,-0.09375
528,1727894458862,0.3955078,0.48046875,0.7910156,-0.09375,0.125,0.03125
529,1727894458902,0.40429688,0.49023438,0.8066406,0.03125,0.25,-0.03125
530,1727894458942,0.41015625,0.49121094,0.7919922,-0.09375,-0.03125,0.03125
531,1727894458982,0.39453125,0.4921875,0.8017578,-0.09375,-0.03125,-0.21875
532,1727894459022,0.40820312,0.49414062,0.81152344,0.09375,-0.15625,-0.15625
533,1727894459062,0.4013672,0.4892578,0.8066406,-0.15625,-0.15625,-0.03125
534,1727894459102,0.3984375,0.4951172,0.7998047,-0.09375,-0.09375,-0.09375
535,1727894459142,0.4033203,0.484375,0.7890625,-0.21875,0.0625,-0.03125
536,1727894459182,0.40039062,0.49121094,0.7890625,0.03125,0.0,-0.03125
537,1727894459222,0.4013672,0.5,0.79785156,-0.09375,-0.09375,-0.34375
538,1727894459262,0.4013672,0.49316406,0.79589844,-0.03125,0.125,-0.03125
539,1727894459302,0.4013672,0.49121094,0.7988281,-0.03125,0.0625,0.03125
540,1727894459342,0.40429688,0.484375,0.7949219,0.03125,0.125,-0.09375
541,1727894459382,0.39453125,0.49902344,0.7998047,-0.03125,-0.09375,-0.28125
542,1727894459422,0.3935547,0.4873047,0.79589844,0.03125,-0.03125,-0.40625
543,1727894459462,0.3984375,0.49804688,0.78808594,-0.25,-0.09375,-0.09375
544,1727894459502,0.40722656,0.4951172,0.7988281,-0.25,0.125,-0.03125
545,1727894459542,0.3935547,0.49023438,0.7871094,-0.15625,0.1875,0.09375
546,1727894459582,0.40722656,0.49023438,0.8017578,-0.15625,0.0,-0.09375
547,1727894459622,0.4013672,0.4951172,0.80859375,-0.15625,-0.09375,-0.15625
548,1727894459662,0.4013672,0.49023438,0.7949219,-0.03125,-0.15625,-0.09375
549,1727894459702,0.39648438,0.49121094,0.7998047,-0.03125,-0.15625,-0.21875
550,1727894459742,0.40429688,0.49023438,0.8125,0.03125,-0.03125,-0.09375
551,1727894459782,0.40625,0.49414062,0.7998047,-0.15625,0.0,-0.03125
552,1727894459822,0.40429688,0.4921875,0.7919922,-0.09375,0.0625,-0.03125
553,1727894459862,0.39941406,0.49121094,0.7988281,0.15625,0.0,-0.03125
554,1727894459902,0.3935547,0.49121094,0.79003906,0.09375,0.0625,-0.15625
555,1727894459942,0.40429688,0.48535156,0.8066406,-0.09375,0.0625,0.15625
556,1727894459982,0.4033203,0.49804688,0.7919922,0.03125,0.0,0.03125
557,1727894460022,0.40234375,0.4970703,0.79589844,0.03125,-0.28125,-0.34375
558,1727894460062,0.3984375,0.5029297,0.7949219,0.03125,-0.03125,-0.34375
559,1727894460102,0.40527344,0.49316406,0.80078125,-0.09375,0.0,-0.15625
560,1727894460142,0.39746094,0.49023438,0.7939453,-0.4375,0.1875,0.21875
561,1727894460182,0.40039062,0.4951172,0.7998047,-0.25,0.125,0.28125
562,1727894460222,0.4033203,0.49414062,0.7998047,0.15625,0.0625,-0.09375
563,1727894460262,0.39746094,0.49414062,0.7998047,0.28125,-0.21875,-0.09375
564,1727894460302,0.40039062,0.484375,0.8017578,0.09375,-0.21875,-0.46875
565,1727894460342,0.40527344,0.4921875,0.7998047,-0.03125,-0.09375,-0.09375
566,1727894460382,0.3984375,0.4970703,0.80566406,-0.09375,-0.03125,-0.09375
567,1727894460422,0.3984375,0.48632812,0.7949219,-0.25,0.25,-0.03125
568,1727894460462,0.4013672,0.49609375,0.8027344,-0.25,0.125,0.09375
569,1727894460502,0.3935547,0.48339844,0.80371094,-0.25,0.0,0.03125
570,1727894460542,0.3955078,0.49316406,0.7939453,-0.21875,0.125,0.03125
571,1727894460582,0.4013672,0.49316406,0.80078125,-0.03125,0.0625,0.03125
572,1727894460622,0.40625,0.4873047,0.7890625,0.40625,-0.15625,-0.28125
573,1727894460662,0.4033203,0.48828125,0.7939453,0.34375,-0.15625,-0.34375
574,1727894460702,0.40722656,0.49316406,0.80078125,-0.09375,-0.09375,-0.28125
575,1727894460742,0.3984375,0.49121094,0.8017578,-0.25,0.0625,-0.03125
576,1727894460782,0.4013672,0.49804688,0.8095703,-0.15625,0.25,0.03125
577,1727894460822,0.38964844,0.49414062,0.79785156,-0.21875,0.125,0.15625
578,1727894460862,0.4013672,0.49804688,0.79003906,-0.15625,0.0,0.03125
579,1727894460902,0.40625,0.4970703,0.79296875,-0.09375,-0.09375,-0.21875
580,1727894460942,0.40527344,0.49023438,0.8017578,-0.09375,-0.15625,-0.21875
581,1727894460982,0.3935547,0.49023438,0.7890625,0.09375,-0.15625,-0.15625
582,1727894461022,0.3935547,0.4951172,0.80371094,0.28125,-0.03125,0.03125
583,1727894461062,0.4033203,0.49023438,0.80078125,0.40625,-0.03125,-0.15625
584,1727894461102,0.3955078,0.50097656,0.8173828,0.34375,-0.40625,-0.21875
585,1727894461142,0.41308594,0.49902344,0.7919922,0.71875,-0.59375,-0.34375
586,1727894461182,0.40039062,0.49902344,0.7910156,0.03125,-0.28125,-0.28125
587,1727894461222,0.3955078,0.49023438,0.7841797,-0.75,0.0625,0.03125
588,1727894461262,0.39941406,0.49121094,0.8066406,-0.4375,0.0,0.09375
589,1727894461302,0.40039062,0.49609375,0.79296875,-0.21875,-0.09375,-0.15625
590,1727894461342,0.4013672,0.4892578,0.7988281,-0.09375,0.0625,-0.21875
591,1727894461382,0.39453125,0.49316406,0.8017578,-0.4375,0.0,-0.03125
592,1727894461422,0.4033203,0.49121094,0.80566406,-0.4375,0.0625,0.28125
593,1727894461462,0.40234375,0.48828125,0.8017578,-0.25,0.0625,0.03125
594,1727894461502,0.40234375,0.4892578,0.7890625,0.21875,-0.09375,-0.15625
595,1727894461542,0.40039062,0.48828125,0.79296875,0.90625,-0.34375,-0.09375
596,1727894461582,0.4033203,0.49316406,0.79296875,0.40625,-0.34375,-0.28125
597,1727894461622,0.40820312,0.49902344,0.7861328,0.03125,-0.21875,-0.34375
598,1727894461662,0.40429688,0.49902344,0.78808594,-0.21875,-0.09375,0.09375
599,1727894461702,0.4013672,0.4873047,0.7998047,-0.3125,0.125,-0.09375
600,1727894461742,0.39648438,0.48632812,0.7910156,-0.3125,0.0,-0.15625
601,1727894461782,0.39746094,0.49023438,0.78222656,-0.5,0.0,0.09375
602,1727894461822,0.39746094,0.4921875,0.7910156,-0.375,-0.15625,0.09375
603,1727894461862,0.39648438,0.48828125,0.8017578,-0.09375,-0.15625,-0.09375
604,1727894461902,0.39648438,0.48046875,0.79003906,0.15625,0.0,-0.09375
605,1727894461942,0.40234375,0.4951172,0.7861328,0.21875,-0.03125,-0.15625
606,1727894461982,0.40527344,0.49316406,0.7939453,0.09375,-0.15625,-0.34375
607,1727894462022,0.39941406,0.49121094,0.796875,0.09375,-0.09375,-0.34375
608,1727894462062,0.3984375,0.4951172,0.7910156,-0.15625,-0.03125,0.03125
609,1727894462102,0.3935547,0.49609375,0.7988281,-0.15625,0.125,0.15625
610,1727894462142,0.3935547,0.49316406,0.7939453,-0.25,0.0625,0.03125
611,1727894462182,0.41015625,0.4970703,0.78808594,0.03125,0.0625,-0.03125
612,1727894462222,0.39648438,0.49023438,0.7792969,0.03125,-0.21875,-0.15625
613,1727894462262,0.4013672,0.49316406,0.7861328,-0.09375,-0.21875,-0.28125
614,1727894462302,0.40039062,0.48828125,0.7939453,-0.25,-0.21875,-0.28125
615,1727894462342,0.3935547,0.48339844,0.7890625,-0.21875,-0.09375,-0.15625
616,1727894462382,0.40039062,0.48828125,0.80371094,-0.3125,0.3125,-0.03125
617,1727894462422,0.39257812,0.4921875,0.79589844,-0.3125,0.3125,0.09375
618,1727894462462,0.40429688,0.50097656,0.79589844,-0.09375,0.0625,-0.03125
619,1727894462502,0.40527344,0.5,0.7910156,-0.09375,-0.03125,-0.21875
620,1727894462542,0.39941406,0.49023438,0.7832031,0.21875,-0.03125,-0.09375
621,1727894462582,0.40625,0.4951172,0.7832031,0.09375,-0.03125,-0.03125
622,1727894462622,0.40625,0.5029297,0.7792969,-0.03125,-0.03125,-0.03125
623,1727894462662,0.40625,0.4921875,0.79003906,-0.09375,-0.09375,-0.34375
624,1727894462702,0.40429688,0.4892578,0.80078125,-0.25,-0.03125,-0.15625
625,1727894462742,0.40039062,0.48535156,0.7919922,-0.375,0.0625,-0.15625
626,1727894462782,0.39746094,0.4951172,0.7939453,-0.15625,0.25,0.15625
627,1727894462822,0.39941406,0.48632812,0.796875,-0.03125,0.25,-0.03125
628,1727894462862,0.40039062,0.4951172,0.7910156,0.21875,0.0,-0.09375
629,1727894462902,0.3984375,0.5019531,0.7988281,-0.03125,0.0,-0.15625
630,1727894462942,0.39746094,0.48535156,0.7988281,-0.3125,-0.09375,-0.15625
631,1727894462982,0.40429688,0.49414062,0.78515625,-0.09375,0.0625,-0.03125
632,1727894463022,0.39941406,0.48632812,0.7988281,-0.21875,0.125,-0.09375
633,1727894463062,0.3935547,0.48632812,0.80371094,-0.15625,0.0625,-0.03125
634,1727894463102,0.4033203,0.48632812,0.7939453,-0.15625,0.25,0.03125
635,1727894463142,0.3955078,0.49804688,0.8046875,-0.03125,0.125,0.03125
636,1727894463182,0.39160156,0.49609375,0.81347656,0.03125,0.0,0.03125
637,1727894463222,0.40527344,0.49609375,0.7988281,0.15625,0.1875,-0.09375
638,1727894463262,0.3935547,0.49121094,0.80371094,-0.03125,0.0,-0.03125
639,1727894463302,0.40527344,0.48828125,0.80078125,0.03125,-0.21875,-0.28125
640,1727894463342,0.4013672,0.4892578,0.7988281,-0.15625,-0.21875,-0.21875
641,1727894463382,0.4033203,0.49121094,0.79589844,-0.3125,-0.15625,0.03125
642,1727894463422,0.39453125,0.48535156,0.7919922,-0.25,0.125,0.03125
643,1727894463462,0.3984375,0.49316406,0.79003906,-0.25,0.1875,0.03125
644,1727894463502,0.3935547,0.48339844,0.7910156,0.03125,0.125,-0.09375
645,1727894463542,0.39941406,0.48828125,0.80078125,-0.15625,-0.15625,-0.15625
646,1727894463582,0.39941406,0.48632812,0.79003906,0.09375,-0.28125,-0.15625
647,1727894463622,0.40039062,0.49902344,0.80566406,0.71875,-0.46875,-0.34375
648,1727894463662,0.40527344,0.49414062,0.7988281,0.90625,-0.15625,-0.46875
649,1727894463702,0.39746094,0.49316406,0.80371094,0.03125,-0.21875,-0.21875
650,1727894463742,0.4013672,0.49023438,0.80566406,-0.375,-0.09375,-0.03125
651,1727894463782,0.41308594,0.49414062,0.7871094,-0.15625,-0.21875,-0.21875
652,1727894463822,0.39160156,0.49414062,0.8066406,-0.09375,0.0,-0.03125
653,1727894463862,0.3935547,0.4970703,0.796875,-0.25,0.0625,0.21875
654,1727894463902,0.3955078,0.48632812,0.7988281,-0.15625,-0.09375,0.09375
655,1727894463942,0.40429688,0.4873047,0.8017578,0.21875,-0.15625,-0.28125
656,1727894463982,0.40722656,0.4970703,0.8027344,-0.09375,-0.03125,-0.28125
657,1727894464022,0.40234375,0.50097656,0.80566406,-0.3125,-0.03125,-0.15625
658,1727894464062,0.39648438,0.4873047,0.81152344,-0.625,-0.03125,-0.09375
659,1727894464102,0.40625,0.484375,0.8027344,-0.21875,0.0625,0.03125
660,1727894464142,0.4033203,0.50097656,0.7949219,-0.09375,0.0625,-0.09375
661,1727894464182,0.4033203,0.48535156,0.79296875,-0.09375,0.0,-0.03125
662,1727894464222,0.40039062,0.4921875,0.7890625,-0.09375,-0.09375,-0.21875
663,1727894464262,0.40039062,0.49316406,0.80078125,-0.15625,-0.15625,-0.21875
664,1727894464302,0.4091797,0.49804688,0.7988281,0.40625,-0.15625,-0.21875
665,1727894464342,0.40527344,0.50097656,0.796875,0.15625,-0.28125,-0.28125
666,1727894464382,0.39257812,0.4970703,0.7871094,-0.21875,-0.03125,0.03125
667,1727894464422,0.39746094,0.49902344,0.8017578,-0.09375,-0.03125,-0.03125
668,1727894464462,0.39941406,0.49316406,0.7919922,-0.25,-0.15625,0.03125
669,1727894464502,0.40039062,0.4951172,0.7988281,-0.21875,-0.09375,0.03125
670,1727894464542,0.390625,0.4873047,0.8046875,-0.09375,0.0,0.03125
671,1727894464582,0.40527344,0.4873047,0.796875,0.34375,-0.09375,-0.15625
672,1727894464622,0.40820312,0.49804688,0.7910156,0.40625,-0.15625,-0.46875
673,1727894464662,0.39648438,0.4951172,0.7919922,-0.3125,-0.03125,-0.28125
674,1727894464702,0.40429688,0.4951172,0.7988281,-0.625,0.0625,-0.03125
675,1727894464742,0.39648438,0.5019531,0.80371094,-0.4375,0.0625,-0.03125
676,1727894464782,0.39257812,0.4794922,0.8017578,-0.15625,0.375,0.03125
677,1727894464822,0.3955078,0.49414062,0.7949219,0.03125,0.125,0.03125
678,1727894464862,0.40039062,0.49609375,0.8066406,0.28125,-0.15625,-0.21875
679,1727894464902,0.39746094,0.49316406,0.79589844,0.21875,-0.28125,-0.34375
680,1727894464942,0.40527344,0.4921875,0.7939453,0.21875,-0.15625,-0.46875
681,1727894464982,0.39941406,0.48046875,0.7919922,0.03125,0.0,-0.21875
682,1727894465022,0.4033203,0.50097656,0.79785156,-0.15625,0.0625,-0.03125
683,1727894465062,0.39941406,0.49121094,0.8027344,-0.375,0.1875,-0.03125
684,1727894465102,0.39257812,0.49609375,0.8066406,-0.09375,0.0,-0.03125
685,1727894465142,0.40429688,0.4921875,0.7998047,-0.15625,-0.03125,-0.15625
686,1727894465182,0.4091797,0.5,0.7919922,0.09375,0.0625,-0.09375
687,1727894465222,0.39941406,0.48828125,0.80371094,-0.03125,0.0625,-0.03125
688,1727894465262,0.4013672,0.49316406,0.79589844,-0.09375,-0.09375,-0.09375
689,1727894465302,0.40234375,0.5,0.8046875,0.03125,-0.15625,-0.21875
690,1727894465342,0.39746094,0.49121094,0.80566406,0.21875,0.0,-0.15625
691,1727894465382,0.39648438,0.4892578,0.8027344,-0.09375,0.125,-0.09375
692,1727894465422,0.39941406,0.49121094,0.7861328,-0.21875,0.125,0.09375
693,1727894465462,0.3955078,0.49902344,0.79785156,-0.03125,0.0625,0.09375
694,1727894465502,0.39941406,0.4921875,0.7861328,-0.03125,0.0625,0.09375
695,1727894465542,0.40234375,0.4951172,0.80371094,-0.03125,-0.03125,-0.15625
696,1727894465582,0.4013672,0.49414062,0.7998047,-0.15625,-0.15625,-0.15625
697,1727894465622,0.40039062,0.49414062,0.81152344,-0.03125,-0.03125,-0.21875
698,1727894465662,0.3955078,0.4892578,0.79003906,0.03125,-0.03125,0.09375
699,1727894465702,0.39257812,0.4921875,0.80078125,-0.03125,0.125,0.15625
700,1727894465742,0.4091797,0.4970703,0.7939453,-0.09375,0.25,0.09375
701,1727894465782,0.3955078,0.49121094,0.80371094,-0.03125,-0.03125,0.15625
702,1727894465822,0.4013672,0.4951172,0.7939453,-0.09375,-0.03125,-0.03125
703,1727894465862,0.39160156,0.49316406,0.80078125,0.21875,0.0,-0.03125
704,1727894465902,0.4091797,0.49804688,0.7919922,-0.03125,0.125,0.09375
705,1727894465942,0.40234375,0.49121094,0.80371094,-0.09375,-0.21875,0.03125
706,1727894465982,0.3955078,0.49121094,0.796875,0.15625,0.0625,-0.28125
707,1727894466022,0.3955078,0.48632812,0.79785156,-0.15625,0.0,0.03125
708,1727894466062,0.3955078,0.49121094,0.796875,-0.375,0.125,0.03125
709,1727894466102,0.3984375,0.4970703,0.7890625,-0.21875,0.125,0.15625
710,1727894466142,0.39746094,0.49609375,0.7910156,-0.03125,0.125,0.09375
711,1727894466182,0.4033203,0.4970703,0.80078125,0.09375,0.0,-0.03125
712,1727894466222,0.4013672,0.50097656,0.7998047,0.03125,-0.03125,-0.03125
713,1727894466262,0.39453125,0.49414062,0.7939453,-0.15625,-0.09375,0.03125
714,1727894466302,0.39746094,0.49414062,0.7910156,-0.09375,0.0,-0.03125
715,1727894466342,0.40429688,0.49121094,0.796875,-0.09375,-0.09375,-0.09375
716,1727894466382,0.3984375,0.4892578,0.80078125,-0.03125,0.0625,0.03125
717,1727894466422,0.3955078,0.4814453,0.7949219,-0.09375,0.0,-0.03125
718,1727894466462,0.3955078,0.49414062,0.80371094,0.03125,-0.15625,0.03125
719,1727894466502,0.40722656,0.4921875,0.7988281,-0.15625,-0.03125,-0.03125
720,1727894466542,0.40039062,0.49023438,0.7988281,-0.03125,0.25,0.03125
721,1727894466582,0.40429688,0.49023438,0.81152344,0.09375,-0.03125,-0.15625
722,1727894466622,0.40722656,0.49414062,0.8076172,-0.03125,-0.15625,-0.28125
723,1727894466662,0.41210938,0.49902344,0.7988281,-0.09375,0.0,-0.03125
724,1727894466702,0.4033203,0.47558594,0.8066406,-0.4375,0.125,-0.21875
725,1727894466742,0.4013672,0.48046875,0.7832031,-0.09375,0.125,-0.03125
726,1727894466782,0.3984375,0.49804688,0.7949219,-0.09375,0.25,0.15625
727,1727894466822,0.39941406,0.5029297,0.79003906,-0.03125,0.0,0.03125
728,1727894466862,0.390625,0.49316406,0.79296875,-0.03125,-0.21875,0.09375
729,1727894466902,0.40234375,0.4921875,0.7919922,0.40625,-0.40625,-0.21875
730,1727894466942,0.39746094,0.49804688,0.8144531,0.40625,-0.28125,-0.28125
731,1727894466982,0.40722656,0.49023438,0.79296875,0.0625,-0.28125,-0.03125
732,1727894467022,0.40820312,0.4951172,0.7998047,-0.1875,-0.0625,-0.09375
733,1727894467062,0.40722656,0.49804688,0.7919922,-0.6875,0.125,0.03125
734,1727894467102,0.4033203,0.48339844,0.8017578,-0.375,0.0625,0.03125
735,1727894467142,0.3935547,0.49902344,0.7792969,-0.1875,-0.0625,-0.15625
736,1727894467182,0.3955078,0.5,0.79589844,-0.0625,-0.125,-0.09375
737,1727894467222,0.40527344,0.4970703,0.8017578,0.0,-0.0625,0.21875
738,1727894467262,0.40527344,0.48046875,0.796875,0.1875,-0.1875,-0.03125
739,1727894467302,0.40625,0.49609375,0.7890625,0.28125,-0.21875,-0.15625
740,1727894467342,0.3984375,0.48828125,0.8017578,0.34375,-0.21875,-0.28125
741,1727894467382,0.4013672,0.48632812,0.79589844,-0.125,-0.0625,-0.15625
742,1727894467422,0.4033203,0.49902344,0.7890625,-0.3125,0.125,0.09375
743,1727894467462,0.4091797,0.49316406,0.79785156,-0.125,0.1875,0.03125
744,1727894467502,0.40234375,0.4921875,0.79003906,0.0,0.0625,0.03125
745,1727894467542,0.3984375,0.49804688,0.7841797,-0.0625,0.0625,-0.09375
746,1727894467582,0.3935547,0.48339844,0.78125,-0.0625,-0.1875,-0.15625
747,1727894467622,0.4033203,0.49804688,0.7861328,0.1875,-0.125,-0.34375
748,1727894467662,0.40527344,0.49902344,0.7939453,0.0625,-0.1875,-0.03125
749,1727894467702,0.39648438,0.49609375,0.8027344,0.0,-0.0625,-0.09375
750,1727894467742,0.40429688,0.4921875,0.78808594,0.0,0.0625,0.03125
751,1727894467782,0.3955078,0.49121094,0.7998047,-0.125,0.0,0.03125
752,1727894467822,0.4013672,0.49609375,0.78808594,-0.0625,-0.125,0.21875
753,1727894467862,0.4033203,0.48828125,0.80371094,-0.125,-0.0625,-0.21875
754,1727894467902,0.40722656,0.4892578,0.8066406,-0.1875,0.125,0.15625
755,1727894467942,0.39453125,0.48828125,0.7890625,-0.25,0.0,0.09375
756,1727894467982,0.40429688,0.49316406,0.79296875,-0.125,-0.125,-0.03125
757,1727894468022,0.4013672,0.49316406,0.79296875,-0.0625,-0.125,-0.09375
758,1727894468062,0.39648438,0.49414062,0.79785156,0.125,0.0625,-0.09375
759,1727894468102,0.40429688,0.49023438,0.8046875,0.125,-0.0625,-0.09375
