,Unnamed: 0,timestamp,accel_x,accel_y,accel_z,gyro_x,gyro_y,gyro_z
0,0,1727820729939,-0.9824219,0.032226562,-0.34277344,-0.28125,-0.15625,-0.15625
1,1,1727820729979,-0.98046875,0.0234375,-0.3486328,0.25,0.125,-0.03125
2,2,1727820730019,-0.9863281,0.03125,-0.33496094,0.3125,0.125,0.8125
3,3,1727820730059,-0.9785156,0.03125,-0.3515625,-1.625,-1.4375,0.28125
4,4,1727820730099,-0.9873047,0.020507812,-0.3408203,0.5,0.375,0.46875
5,5,1727820730139,-0.97753906,0.032226562,-0.33789062,1.125,0.125,0.15625
6,6,1727820730179,-0.9765625,0.026367188,-0.3408203,0.0,-0.40625,-0.09375
7,7,1727820730219,-0.9765625,0.03515625,-0.3486328,0.8125,0.1875,-0.28125
8,8,1727820730259,-0.9707031,0.03515625,-0.3515625,1.34375,-0.28125,0.40625
9,9,1727820730299,-0.9746094,0.0390625,-0.34765625,0.3125,0.0625,0.09375
10,10,1727820730339,-0.9814453,0.028320312,-0.34472656,0.5625,0.3125,0.21875
11,11,1727820730379,-0.9824219,0.03515625,-0.34570312,0.0,0.125,-0.03125
12,12,1727820730419,-0.9794922,0.028320312,-0.34570312,0.125,-0.21875,-0.03125
13,13,1727820730459,-0.9814453,0.032226562,-0.34570312,0.0,-0.40625,-0.21875
14,14,1727820730499,-0.98046875,0.041015625,-0.359375,0.4375,0.1875,-0.03125
15,15,1727820730539,-0.9746094,0.034179688,-0.3515625,0.375,-0.21875,-0.03125
16,16,1727820730579,-0.9814453,0.018554688,-0.33398438,0.375,0.0625,-0.28125
17,17,1727820730619,-0.9765625,0.03125,-0.34570312,0.125,0.0625,-0.21875
18,18,1727820730659,-0.9765625,0.024414062,-0.34277344,0.25,-0.09375,-0.28125
19,19,1727820730699,-0.98046875,0.03515625,-0.34179688,-0.03125,0.125,-0.09375
20,20,1727820730739,-0.9892578,0.029296875,-0.35351562,0.375,0.375,0.15625
21,21,1727820730779,-0.9863281,0.0390625,-0.3408203,0.375,0.1875,-0.09375
22,22,1727820730819,-0.98046875,0.029296875,-0.34179688,0.0625,0.375,-0.21875
23,23,1727820730859,-0.98535156,0.022460938,-0.3310547,0.375,0.4375,0.03125
24,24,1727820730899,-0.98046875,0.022460938,-0.35839844,-0.09375,-0.09375,0.03125
25,25,1727820730939,-0.97753906,0.02734375,-0.33007812,0.4375,0.3125,0.09375
26,26,1727820730979,-0.97753906,0.040039062,-0.36523438,0.375,0.375,0.15625
27,27,1727820731019,-0.9736328,0.022460938,-0.35058594,0.4375,0.125,0.15625
28,28,1727820731059,-0.9824219,0.03515625,-0.34375,0.375,0.0625,-0.03125
29,29,1727820731099,-0.9902344,0.026367188,-0.35351562,0.8125,0.25,-0.46875
30,30,1727820731139,-0.9873047,0.032226562,-0.33789062,0.0,-0.09375,-0.46875
31,31,1727820731179,-0.97265625,0.033203125,-0.34179688,-0.53125,-0.03125,-0.65625
32,32,1727820731219,-0.97558594,0.02734375,-0.36035156,-0.90625,-0.09375,-0.15625
33,33,1727820731259,-0.9794922,0.017578125,-0.34179688,1.34375,0.4375,0.5625
34,34,1727820731299,-0.984375,0.030273438,-0.3564453,1.78125,1.1875,0.46875
35,35,1727820731339,-0.9873047,0.032226562,-0.33789062,1.78125,0.9375,0.21875
36,36,1727820731379,-0.9785156,0.032226562,-0.359375,1.34375,0.125,0.09375
37,37,1727820731419,-0.9814453,0.026367188,-0.35839844,0.3125,-0.21875,-0.21875
38,38,1727820731459,-0.9785156,0.034179688,-0.34570312,0.0,0.0,-0.40625
39,39,1727820731499,-0.984375,0.021484375,-0.3486328,0.875,0.4375,0.09375
40,40,1727820731539,-0.97753906,0.02734375,-0.34472656,0.1875,0.5625,0.03125
41,41,1727820731579,-0.984375,0.020507812,-0.35058594,0.5,0.25,0.03125
42,42,1727820731619,-0.98339844,0.016601562,-0.33984375,1.0,0.25,0.21875
43,43,1727820731659,-0.9736328,0.025390625,-0.3486328,0.75,0.4375,0.28125
44,44,1727820731699,-0.97265625,0.030273438,-0.34277344,0.875,0.1875,0.46875
45,45,1727820731739,-0.99121094,0.0146484375,-0.34375,1.59375,0.375,0.53125
46,46,1727820731779,-0.9746094,0.025390625,-0.3408203,1.1875,0.625,0.15625
47,47,1727820731819,-0.9736328,0.022460938,-0.34375,1.0,0.625,0.09375
48,48,1727820731859,-0.98046875,0.025390625,-0.34472656,0.25,0.0625,0.03125
49,49,1727820731899,-0.98339844,0.032226562,-0.3359375,0.0,-0.15625,0.21875
50,50,1727820731939,-0.98046875,0.020507812,-0.33984375,0.875,0.4375,0.40625
51,51,1727820731979,-0.9746094,0.024414062,-0.34765625,0.375,0.9375,0.34375
52,52,1727820732019,-0.98828125,0.024414062,-0.34570312,0.25,0.8125,0.34375
53,53,1727820732059,-0.98535156,0.036132812,-0.35839844,0.3125,0.25,0.15625
54,54,1727820732099,-0.9736328,0.0390625,-0.3310547,-0.03125,0.0,-0.03125
55,55,1727820732139,-0.9746094,0.028320312,-0.36132812,-0.65625,0.125,-0.15625
56,56,1727820732179,-0.98046875,0.015625,-0.35058594,0.0,0.6875,0.09375
57,57,1727820732219,-0.984375,0.032226562,-0.3486328,-0.15625,0.1875,0.21875
58,58,1727820732259,-0.9873047,0.022460938,-0.34960938,-1.21875,-0.53125,-0.40625
59,59,1727820732299,-0.984375,0.0126953125,-0.35546875,-0.90625,-0.46875,-0.875
60,60,1727820732339,-0.97558594,0.041992188,-0.34472656,-0.46875,-0.28125,-0.71875
61,61,1727820732379,-0.9658203,0.024414062,-0.35546875,-0.84375,-0.90625,-0.59375
62,62,1727820732419,-0.9746094,0.0146484375,-0.3720703,-0.09375,0.0625,-0.15625
63,63,1727820732459,-0.9785156,0.026367188,-0.34472656,0.75,1.25,0.34375
64,64,1727820732499,-0.98828125,0.015625,-0.35058594,1.71875,0.75,0.53125
65,65,1727820732539,-0.9716797,0.020507812,-0.33691406,1.25,-0.15625,0.34375
66,66,1727820732579,-0.9785156,0.021484375,-0.3564453,1.84375,-0.09375,-0.03125
67,67,1727820732619,-0.984375,0.029296875,-0.34472656,1.25,-0.03125,-0.09375
68,68,1727820732659,-0.98046875,0.021484375,-0.34277344,1.90625,0.1875,0.34375
69,69,1727820732699,-0.96972656,0.032226562,-0.34765625,0.5625,0.0625,0.5625
70,70,1727820732739,-0.97558594,0.01953125,-0.36035156,1.1875,0.5,0.8125
71,71,1727820732779,-0.9794922,0.026367188,-0.35058594,0.375,1.0625,0.34375
72,72,1727820732819,-0.9814453,0.026367188,-0.3388672,0.25,0.3125,0.09375
73,73,1727820732859,-0.98828125,0.01953125,-0.34375,-0.90625,-0.15625,-0.53125
74,74,1727820732899,-0.9794922,0.033203125,-0.3466797,-1.15625,-0.15625,-0.75
75,75,1727820732939,-0.97753906,0.026367188,-0.35742188,0.0,0.1875,-0.46875
76,76,1727820732979,-0.9746094,0.024414062,-0.35839844,-0.40625,0.625,-0.46875
77,77,1727820733019,-0.9863281,0.0234375,-0.34179688,0.3125,0.125,0.28125
78,78,1727820733059,-0.97558594,0.020507812,-0.36132812,0.0625,-0.28125,-0.15625
79,79,1727820733099,-0.9785156,0.017578125,-0.3515625,-0.09375,0.6875,-0.59375
80,80,1727820733139,-0.9873047,0.026367188,-0.3359375,-0.15625,0.125,-0.28125
81,81,1727820733179,-0.9873047,0.018554688,-0.35546875,-0.21875,-0.15625,-0.03125
82,82,1727820733219,-0.9736328,0.028320312,-0.3466797,-0.09375,0.1875,-0.15625
83,83,1727820733259,-0.97265625,0.017578125,-0.34472656,0.375,0.6875,0.03125
84,84,1727820733299,-0.9814453,0.0126953125,-0.36132812,0.75,1.0,0.03125
85,85,1727820733339,-0.9794922,0.030273438,-0.34179688,1.40625,1.0,0.34375
86,86,1727820733379,-0.9814453,0.02734375,-0.35058594,0.75,-0.03125,0.46875
87,87,1727820733419,-0.97558594,0.0234375,-0.34570312,0.3125,-0.34375,0.21875
88,88,1727820733459,-0.98535156,0.0234375,-0.33496094,-0.40625,0.3125,-0.34375
89,89,1727820733499,-0.97558594,0.016601562,-0.33984375,-0.40625,0.1875,-0.03125
90,90,1727820733539,-0.98828125,0.022460938,-0.3544922,-0.34375,0.125,0.21875
91,91,1727820733579,-0.96777344,0.0234375,-0.3564453,-0.15625,0.3125,0.15625
92,92,1727820733619,-0.96875,0.022460938,-0.3486328,0.375,0.875,0.21875
93,93,1727820733659,-0.9736328,0.029296875,-0.33203125,0.375,0.4375,0.46875
94,94,1727820733699,-0.97558594,0.017578125,-0.3623047,0.0625,0.5,0.28125
95,95,1727820733739,-0.9814453,0.022460938,-0.35839844,-0.09375,-0.03125,-0.28125
96,96,1727820733779,-0.97265625,0.032226562,-0.3642578,-0.53125,-0.40625,-0.28125
97,97,1727820733819,-0.9707031,0.028320312,-0.36328125,-1.15625,-0.46875,-0.15625
98,98,1727820733859,-0.97265625,0.029296875,-0.34472656,-1.75,-0.21875,-0.15625
99,99,1727820733899,-0.98535156,0.01953125,-0.359375,-1.09375,-0.28125,-0.28125
100,100,1727820733939,-0.9814453,0.01953125,-0.36523438,-1.28125,-1.3125,-0.46875
101,101,1727820733979,-0.97558594,0.021484375,-0.34570312,-1.15625,-1.9375,-0.65625
102,102,1727820734019,-0.97265625,0.037109375,-0.36328125,-0.71875,-1.09375,-0.71875
103,103,1727820734059,-0.9658203,0.02734375,-0.35351562,-0.40625,-0.53125,-0.40625
104,104,1727820734099,-0.97753906,0.033203125,-0.35742188,0.0625,-0.28125,0.34375
105,105,1727820734139,-0.9716797,0.0390625,-0.34277344,-0.40625,0.3125,0.03125
106,106,1727820734179,-0.9794922,0.024414062,-0.34960938,-0.28125,0.0,0.09375
107,107,1727820734219,-0.98046875,0.020507812,-0.3466797,-0.96875,-0.40625,0.03125
108,108,1727820734259,-0.97265625,0.022460938,-0.34179688,-0.59375,-0.46875,0.21875
109,109,1727820734299,-0.97753906,0.018554688,-0.34765625,-0.34375,0.0,0.15625
110,110,1727820734339,-0.9873047,0.02734375,-0.35546875,0.1875,0.25,0.15625
111,111,1727820734379,-0.97753906,0.017578125,-0.34277344,0.375,0.1875,0.21875
112,112,1727820734419,-0.98046875,0.0234375,-0.3359375,-0.09375,0.0,-0.09375
113,113,1727820734459,-0.9736328,0.0234375,-0.3408203,0.25,-0.03125,-0.15625
114,114,1727820734499,-0.9765625,0.032226562,-0.3623047,0.6875,0.25,-0.09375
115,115,1727820734539,-0.97753906,0.03125,-0.3515625,0.4375,0.0625,-0.03125
116,116,1727820734579,-0.9794922,0.038085938,-0.3515625,0.1875,-0.15625,0.15625
117,117,1727820734619,-0.9716797,0.033203125,-0.35546875,0.0,-0.21875,-0.09375
118,118,1727820734659,-0.9873047,0.026367188,-0.34472656,-0.28125,0.1875,-0.28125
119,119,1727820734699,-0.9824219,0.024414062,-0.34472656,-0.46875,0.0,-0.28125
120,120,1727820734739,-0.9824219,0.01953125,-0.3515625,-0.15625,0.0625,-0.28125
121,121,1727820734779,-0.98046875,0.02734375,-0.34472656,0.0,-0.15625,-0.28125
122,122,1727820734819,-0.9794922,0.02734375,-0.36035156,0.0625,0.4375,-0.21875
123,123,1727820734859,-0.9824219,0.026367188,-0.35058594,0.625,0.375,0.03125
124,124,1727820734899,-0.9824219,0.0234375,-0.33691406,0.375,0.4375,-0.03125
125,125,1727820734939,-0.9746094,0.025390625,-0.33691406,0.125,-0.03125,-0.03125
126,126,1727820734979,-0.97558594,0.025390625,-0.33789062,-0.03125,-0.09375,-0.15625
127,127,1727820735019,-0.9785156,0.02734375,-0.34472656,-0.34375,-0.28125,-0.46875
128,128,1727820735059,-0.97558594,0.03125,-0.33398438,-0.40625,0.0625,-0.09375
129,129,1727820735099,-0.9794922,0.022460938,-0.34570312,-0.40625,-0.03125,-0.09375
130,130,1727820735139,-0.97753906,0.020507812,-0.35058594,-0.46875,0.125,-0.21875
131,131,1727820735179,-0.9873047,0.030273438,-0.33789062,-1.625,-0.03125,-0.40625
132,132,1727820735219,-0.9765625,0.0234375,-0.3486328,-2.1875,-0.53125,-0.28125
133,133,1727820735259,-0.9873047,0.0146484375,-0.34472656,-1.03125,-0.21875,-0.34375
134,134,1727820735299,-0.9746094,0.01171875,-0.3359375,-0.53125,-0.34375,-0.53125
135,135,1727820735339,-0.9765625,0.016601562,-0.34179688,-0.40625,-0.28125,-0.28125
136,136,1727820735379,-0.9824219,0.020507812,-0.35351562,1.125,0.3125,0.34375
137,137,1727820735419,-0.98535156,0.02734375,-0.33789062,1.46875,0.4375,0.625
138,138,1727820735459,-0.9794922,0.03125,-0.3310547,1.78125,0.5,0.5625
139,139,1727820735499,-0.9785156,0.041015625,-0.3408203,0.75,0.0625,-0.03125
140,140,1727820735539,-0.9814453,0.0234375,-0.34179688,0.125,-0.59375,-0.09375
141,141,1727820735579,-0.97753906,0.02734375,-0.35742188,0.3125,-0.34375,0.03125
142,142,1727820735619,-0.97753906,0.0107421875,-0.35058594,0.6875,0.25,0.03125
143,143,1727820735659,-0.97558594,0.016601562,-0.34765625,1.0625,0.1875,0.28125
144,144,1727820735699,-0.96875,0.032226562,-0.34277344,1.0,0.3125,0.34375
145,145,1727820735739,-0.9785156,0.018554688,-0.35253906,0.9375,-0.15625,0.28125
146,146,1727820735779,-0.9824219,0.026367188,-0.34375,0.5625,0.375,0.03125
147,147,1727820735819,-0.96972656,0.034179688,-0.35058594,-0.15625,0.0,0.28125
148,148,1727820735859,-0.9716797,0.025390625,-0.36035156,-0.78125,0.125,0.21875
149,149,1727820735899,-0.97753906,0.015625,-0.35742188,-0.71875,0.75,-0.21875
150,150,1727820735939,-0.98339844,0.026367188,-0.33691406,-0.15625,0.9375,0.03125
151,151,1727820735979,-0.98046875,0.015625,-0.34277344,0.9375,0.625,0.40625
152,152,1727820736019,-0.9863281,0.029296875,-0.33984375,1.0,0.5,0.21875
153,153,1727820736059,-0.9814453,0.028320312,-0.33984375,0.75,0.1875,-0.15625
154,154,1727820736099,-0.97753906,0.03515625,-0.3515625,1.125,0.125,-0.03125
155,155,1727820736139,-0.98339844,0.026367188,-0.34765625,0.3125,0.125,-0.03125
156,156,1727820736179,-0.9824219,0.029296875,-0.34765625,-0.03125,0.1875,-0.34375
157,157,1727820736219,-0.9794922,0.017578125,-0.33789062,-0.59375,-0.09375,-0.15625
158,158,1727820736259,-0.9863281,0.01953125,-0.3515625,-0.40625,-0.21875,-0.34375
159,159,1727820736299,-0.9814453,0.01953125,-0.34570312,0.0,-0.28125,-0.46875
160,160,1727820736339,-0.97753906,0.018554688,-0.35546875,0.1875,0.0625,-0.53125
161,161,1727820736379,-0.9824219,0.016601562,-0.33789062,1.28125,0.375,-0.28125
162,162,1727820736419,-0.97558594,0.0146484375,-0.35546875,0.3125,0.375,-0.8125
163,163,1727820736459,-0.9785156,0.03515625,-0.34570312,0.5625,1.28125,-0.59375
164,164,1727820736499,-0.9814453,0.030273438,-0.33789062,1.1875,0.3125,-0.09375
165,165,1727820736539,-0.9794922,0.029296875,-0.34765625,1.0625,0.375,0.21875
166,166,1727820736579,-0.98046875,0.0234375,-0.3466797,0.0,0.0,-0.15625
167,167,1727820736619,-0.98535156,0.020507812,-0.33984375,-0.21875,0.125,-0.09375
168,168,1727820736659,-0.9921875,0.01171875,-0.34765625,0.1875,0.0625,-0.15625
169,169,1727820736699,-0.9824219,0.025390625,-0.33203125,-0.03125,-0.15625,-0.21875
170,170,1727820736739,-0.9794922,0.015625,-0.3388672,0.75,-0.15625,-0.09375
171,171,1727820736779,-0.9814453,0.024414062,-0.3515625,0.1875,-0.46875,-0.71875
172,172,1727820736819,-0.98046875,0.01171875,-0.34179688,-0.15625,-0.78125,-0.59375
173,173,1727820736859,-0.9716797,0.0234375,-0.3466797,-0.21875,-0.15625,-0.34375
174,174,1727820736899,-0.97753906,0.016601562,-0.3515625,0.125,0.125,0.03125
175,175,1727820736939,-0.97753906,0.015625,-0.34570312,0.75,0.1875,0.15625
176,176,1727820736979,-0.9814453,0.018554688,-0.3232422,1.28125,0.125,0.34375
177,177,1727820737019,-0.9824219,0.022460938,-0.34960938,0.6875,-0.21875,0.09375
178,178,1727820737059,-0.9746094,0.01953125,-0.3359375,-0.34375,-0.15625,-0.15625
179,179,1727820737099,-0.97558594,0.0087890625,-0.33691406,-0.03125,-0.15625,0.03125
180,180,1727820737139,-0.984375,0.018554688,-0.34765625,0.0625,0.375,-0.03125
181,181,1727820737179,-0.9873047,0.025390625,-0.34570312,-0.40625,0.1875,0.09375
182,182,1727820737219,-0.9814453,0.0009765625,-0.3544922,-0.15625,-0.15625,0.03125
183,183,1727820737259,-0.9794922,0.021484375,-0.33789062,-0.34375,-0.03125,-0.03125
184,184,1727820737299,-0.9736328,0.017578125,-0.34277344,-0.34375,0.0625,-0.15625
185,185,1727820737339,-0.9667969,0.018554688,-0.34277344,-0.53125,-0.34375,-0.09375
186,186,1727820737379,-0.9814453,0.016601562,-0.3408203,-0.78125,0.125,0.03125
187,187,1727820737419,-0.9765625,0.015625,-0.3330078,-0.46875,0.0625,-0.09375
188,188,1727820737459,-0.9794922,0.0048828125,-0.3330078,0.0625,0.0,0.28125
189,189,1727820737499,-0.97558594,0.018554688,-0.33789062,-0.34375,-0.09375,0.15625
190,190,1727820737539,-0.9814453,0.0146484375,-0.33789062,-0.21875,-0.03125,-0.21875
191,191,1727820737579,-0.9785156,0.020507812,-0.35351562,0.0,0.0,-0.21875
192,192,1727820737619,-0.984375,0.017578125,-0.35839844,-0.40625,-0.28125,-0.09375
193,193,1727820737659,-0.984375,0.0107421875,-0.34765625,0.0,-0.09375,0.09375
194,194,1727820737699,-0.984375,0.0234375,-0.34472656,0.125,0.0625,0.09375
195,195,1727820737739,-0.9824219,0.0126953125,-0.34277344,-0.15625,0.1875,0.03125
196,196,1727820737779,-0.98046875,0.020507812,-0.3330078,0.0,0.1875,0.21875
197,197,1727820737819,-0.98339844,0.024414062,-0.33398438,0.3125,0.125,0.28125
198,198,1727820737859,-0.9814453,0.025390625,-0.35253906,-0.03125,0.25,-0.09375
199,199,1727820737899,-0.96972656,0.018554688,-0.34277344,0.0625,0.25,-0.09375
200,200,1727820737939,-0.9765625,0.026367188,-0.34277344,0.0625,0.125,0.09375
201,201,1727820737979,-0.98339844,0.01953125,-0.32617188,-0.09375,0.0,0.03125
202,202,1727820738019,-0.9746094,0.016601562,-0.33496094,0.0625,0.25,0.09375
203,203,1727820738059,-0.98339844,0.0087890625,-0.33789062,0.375,0.25,0.09375
204,204,1727820738099,-0.9746094,0.017578125,-0.33691406,0.1875,0.0625,0.09375
205,205,1727820738139,-0.984375,0.01953125,-0.34765625,0.0,0.125,-0.34375
206,206,1727820738179,-0.984375,0.016601562,-0.3466797,0.1875,-0.15625,0.03125
207,207,1727820738219,-0.9794922,0.026367188,-0.3486328,-0.40625,-0.15625,0.03125
208,208,1727820738259,-0.9736328,0.016601562,-0.34960938,-0.53125,0.1875,0.09375
209,209,1727820738299,-0.9824219,0.0234375,-0.33984375,-0.96875,0.375,-0.03125
210,210,1727820738339,-0.97265625,0.0068359375,-0.33984375,0.4375,0.3125,0.34375
211,211,1727820738379,-0.9863281,0.018554688,-0.3232422,0.6875,0.75,-0.03125
212,212,1727820738419,-0.9794922,0.024414062,-0.33007812,1.0,0.0,-0.03125
213,213,1727820738459,-0.9873047,0.028320312,-0.3359375,0.625,0.0,-0.15625
214,214,1727820738499,-0.9824219,0.029296875,-0.3388672,0.6875,-0.09375,-0.03125
215,215,1727820738539,-0.97265625,0.01953125,-0.3564453,0.5625,0.3125,-0.03125
216,216,1727820738579,-0.9746094,0.018554688,-0.34472656,0.5625,0.5,0.21875
217,217,1727820738619,-0.97558594,0.0126953125,-0.34375,0.625,0.5,0.03125
218,218,1727820738659,-0.9794922,0.0126953125,-0.34570312,-0.21875,0.1875,-0.40625
219,219,1727820738699,-0.9814453,0.016601562,-0.3486328,-0.34375,-0.21875,-0.34375
220,220,1727820738739,-0.9746094,0.017578125,-0.3486328,0.125,0.0625,-0.21875
221,221,1727820738779,-0.9794922,0.020507812,-0.34570312,0.375,0.25,-0.15625
222,222,1727820738819,-0.98535156,0.0078125,-0.3466797,0.5625,0.25,-0.09375
223,223,1727820738859,-0.9824219,0.018554688,-0.35351562,0.25,0.0625,-0.28125
224,224,1727820738899,-0.9736328,0.01953125,-0.3408203,0.0625,0.3125,-0.40625
225,225,1727820738939,-0.9765625,0.021484375,-0.34277344,-0.09375,0.0625,-0.46875
226,226,1727820738979,-0.98535156,0.03515625,-0.34179688,-1.5625,-1.1875,-0.46875
227,227,1727820739019,-0.984375,0.017578125,-0.33203125,-0.59375,-1.3125,0.0625
228,228,1727820739059,-0.9746094,0.016601562,-0.34570312,-0.96875,0.46875,-0.40625
229,229,1727820739099,-0.9902344,0.018554688,-0.33203125,-0.28125,0.03125,-0.34375
230,230,1727820739139,-0.97753906,0.0107421875,-0.3408203,-0.78125,-0.4375,-0.40625
231,231,1727820739179,-0.98535156,0.015625,-0.3466797,-0.78125,-0.9375,-0.59375
232,232,1727820739219,-0.97558594,0.009765625,-0.34960938,-0.40625,-2.03125,-0.40625
233,233,1727820739259,-0.9736328,0.0048828125,-0.35253906,0.0,-0.3125,-0.34375
234,234,1727820739299,-0.9785156,0.018554688,-0.3359375,1.09375,0.21875,0.3125
235,235,1727820739339,-0.9892578,0.009765625,-0.34472656,1.09375,0.21875,0.5
236,236,1727820739379,-0.98535156,0.015625,-0.34277344,0.5,-0.09375,0.1875
237,237,1727820739419,-0.9814453,0.016601562,-0.34570312,1.09375,0.15625,-0.03125
238,238,1727820739459,-0.9785156,0.022460938,-0.32910156,1.15625,-0.15625,-0.21875
239,239,1727820739499,-0.9824219,0.024414062,-0.34179688,0.0,-0.6875,0.0625
240,240,1727820739539,-0.97753906,0.015625,-0.3408203,0.0625,-0.15625,0.0625
241,241,1727820739579,-0.9814453,0.0126953125,-0.3408203,0.875,0.34375,0.125
242,242,1727820739619,-0.9814453,0.0146484375,-0.33691406,-0.0625,0.03125,0.0625
243,243,1727820739659,-0.97558594,0.013671875,-0.3330078,-0.0625,-0.6875,0.25
244,244,1727820739699,-0.9765625,0.015625,-0.3330078,0.5,0.03125,0.3125
245,245,1727820739739,-0.9814453,0.018554688,-0.34277344,0.0625,0.59375,0.25
246,246,1727820739779,-0.98535156,0.013671875,-0.33789062,-0.125,0.46875,0.5
247,247,1727820739819,-0.9863281,0.0078125,-0.33789062,-0.65625,0.34375,0.4375
248,248,1727820739859,-0.9814453,0.0126953125,-0.3359375,-0.96875,0.46875,0.125
249,249,1727820739899,-0.9824219,0.0126953125,-0.34570312,-0.53125,0.15625,0.0625
250,250,1727820739939,-0.9824219,0.0126953125,-0.34765625,-0.46875,0.09375,0.0625
251,251,1727820739979,-0.9785156,0.009765625,-0.33203125,-0.1875,0.15625,0.375
252,252,1727820740019,-0.97753906,0.009765625,-0.33789062,0.125,0.65625,0.375
253,253,1727820740059,-0.9814453,0.009765625,-0.33398438,0.5625,0.65625,0.375
254,254,1727820740099,-0.9794922,0.01171875,-0.34179688,0.625,0.40625,0.4375
255,255,1727820740139,-0.9814453,0.018554688,-0.3330078,0.625,0.40625,0.6875
256,256,1727820740179,-0.9873047,0.0048828125,-0.34570312,1.03125,0.78125,0.75
257,257,1727820740219,-0.97558594,0.016601562,-0.3359375,1.34375,0.71875,1.0625
258,258,1727820740259,-0.9794922,0.0146484375,-0.3466797,1.59375,0.90625,1.375
259,259,1727820740299,-0.99121094,0.01953125,-0.3466797,0.875,0.40625,0.8125
260,260,1727820740339,-0.9814453,0.03125,-0.3486328,0.5,0.34375,0.1875
261,261,1727820740379,-0.97753906,0.016601562,-0.34277344,-0.90625,-0.875,-0.15625
262,262,1727820740419,-0.96777344,0.0107421875,-0.33496094,-2.3125,-0.8125,-0.78125
263,263,1727820740459,-0.9746094,0.015625,-0.3359375,-2.0625,-0.5,-0.28125
264,264,1727820740499,-0.9785156,-0.00390625,-0.32617188,-0.1875,0.34375,0.1875
265,265,1727820740539,-0.98828125,0.0029296875,-0.33496094,-0.125,0.46875,0.1875
266,266,1727820740579,-0.984375,0.0,-0.33398438,1.78125,0.78125,0.625
267,267,1727820740619,-0.97558594,0.026367188,-0.3486328,1.65625,0.40625,0.5625
268,268,1727820740659,-0.97265625,0.020507812,-0.34179688,1.28125,0.21875,0.3125
269,269,1727820740699,-0.984375,0.032226562,-0.34765625,0.625,0.28125,0.3125
270,270,1727820740739,-0.98046875,0.0234375,-0.3330078,0.125,0.90625,0.1875
271,271,1727820740779,-0.9824219,0.016601562,-0.34472656,-0.25,0.59375,0.125
272,272,1727820740819,-0.9824219,0.015625,-0.33007812,0.0625,0.59375,0.125
273,273,1727820740859,-0.9794922,0.01171875,-0.33398438,0.8125,-0.03125,0.1875
274,274,1727820740899,-0.98046875,0.015625,-0.34179688,0.625,-0.25,0.125
275,275,1727820740939,-0.9746094,0.0126953125,-0.34765625,0.375,0.15625,0.375
276,276,1727820740979,-0.9746094,0.024414062,-0.33203125,0.4375,0.21875,0.3125
277,277,1727820741019,-0.97753906,0.018554688,-0.34179688,-0.46875,-0.03125,0.1875
278,278,1727820741059,-0.97558594,0.018554688,-0.3466797,-0.59375,-0.09375,0.0625
279,279,1727820741099,-0.9824219,0.0126953125,-0.33789062,-0.34375,-0.25,-0.09375
280,280,1727820741139,-0.9765625,0.022460938,-0.3359375,0.125,-0.25,0.125
281,281,1727820741179,-0.984375,0.018554688,-0.33789062,-0.0625,0.03125,0.125
282,282,1727820741219,-0.9746094,0.0234375,-0.34472656,0.1875,-0.03125,0.375
283,283,1727820741259,-0.9824219,0.024414062,-0.3486328,-0.0625,0.03125,0.3125
284,284,1727820741299,-0.9824219,0.015625,-0.33691406,-0.1875,0.09375,0.1875
285,285,1727820741339,-0.9794922,0.016601562,-0.33691406,-0.28125,-0.03125,-0.03125
286,286,1727820741379,-0.9794922,0.0234375,-0.33789062,-0.1875,-0.09375,0.03125
287,287,1727820741419,-0.9892578,0.01953125,-0.33984375,0.0,-0.1875,0.125
288,288,1727820741459,-0.98339844,0.015625,-0.34179688,0.1875,0.15625,0.3125
289,289,1727820741499,-0.97753906,0.015625,-0.3359375,0.1875,0.21875,0.1875
290,290,1727820741539,-0.98828125,0.0146484375,-0.34472656,0.375,0.21875,0.1875
291,291,1727820741579,-0.9824219,0.0146484375,-0.33984375,0.1875,-0.09375,0.1875
292,292,1727820741619,-0.9716797,0.0234375,-0.34277344,0.0,0.03125,0.125
293,293,1727820741659,-0.9824219,0.016601562,-0.3544922,0.25,0.15625,0.125
294,294,1727820741699,-0.9785156,0.0146484375,-0.3466797,0.1875,0.15625,0.1875
295,295,1727820741739,-0.9863281,0.022460938,-0.3408203,0.5,0.03125,0.0625
296,296,1727820741779,-0.9863281,0.021484375,-0.3359375,0.5625,0.15625,-0.15625
297,297,1727820741819,-0.97753906,0.017578125,-0.3564453,0.4375,-0.15625,-0.03125
298,298,1727820741859,-0.97558594,0.036132812,-0.3466797,-0.28125,-0.15625,-0.21875
299,299,1727820741899,-0.9794922,0.018554688,-0.33984375,-0.125,-0.25,0.0625
300,300,1727820741939,-0.98046875,0.021484375,-0.3408203,-0.65625,0.03125,-0.09375
301,301,1727820741979,-0.98046875,0.020507812,-0.33984375,-0.71875,-0.03125,-0.09375
302,302,1727820742019,-0.98535156,0.009765625,-0.3359375,-0.46875,-0.1875,-0.15625
303,303,1727820742059,-0.97753906,0.0146484375,-0.34960938,-0.53125,-0.3125,-0.21875
304,304,1727820742099,-0.9814453,0.015625,-0.33496094,0.0,-0.03125,-0.03125
305,305,1727820742139,-0.98046875,0.0146484375,-0.34765625,1.0,-0.09375,-0.03125
306,306,1727820742179,-0.9892578,0.026367188,-0.33984375,0.75,-0.09375,-0.03125
307,307,1727820742219,-0.97265625,0.0234375,-0.3251953,0.0625,-0.09375,-0.15625
308,308,1727820742259,-0.97558594,0.020507812,-0.3359375,-0.34375,-0.15625,-0.03125
309,309,1727820742299,-0.98535156,0.01171875,-0.33398438,-0.65625,-0.09375,-0.09375
310,310,1727820742339,-0.984375,0.013671875,-0.3310547,-0.34375,0.15625,-0.15625
311,311,1727820742379,-0.98046875,0.0234375,-0.3330078,0.125,-0.03125,-0.15625
312,312,1727820742419,-0.984375,0.0126953125,-0.34277344,0.375,-0.1875,-0.03125
313,313,1727820742459,-0.97265625,0.0107421875,-0.3486328,0.6875,0.09375,0.03125
314,314,1727820742499,-0.9785156,0.016601562,-0.35742188,1.09375,0.09375,0.25
315,315,1727820742539,-0.9785156,0.02734375,-0.34277344,0.6875,0.21875,0.25
316,316,1727820742579,-0.9814453,0.03515625,-0.3408203,-0.46875,-0.25,0.0625
317,317,1727820742619,-0.9736328,0.0078125,-0.34472656,-0.90625,-0.5625,-0.09375
318,318,1727820742659,-0.9765625,0.0078125,-0.35058594,-1.03125,-0.1875,-0.21875
319,319,1727820742699,-0.97558594,0.0234375,-0.31640625,-0.34375,-0.09375,-0.09375
320,320,1727820742739,-0.98046875,0.0068359375,-0.33789062,0.0,-0.03125,0.03125
321,321,1727820742779,-0.9824219,0.00390625,-0.3466797,-0.125,-0.1875,0.125
322,322,1727820742819,-0.97558594,0.018554688,-0.34375,0.125,-0.1875,0.125
323,323,1727820742859,-0.97753906,0.0146484375,-0.3544922,0.25,-0.09375,0.125
324,324,1727820742899,-0.97558594,0.016601562,-0.33789062,0.21875,0.03125,0.09375
325,325,1727820742939,-0.9814453,0.016601562,-0.3486328,-0.25,-0.21875,-0.03125
326,326,1727820742979,-0.9863281,0.01953125,-0.3515625,-0.125,-0.34375,0.03125
327,327,1727820743019,-0.9736328,0.016601562,-0.34570312,0.03125,-0.03125,0.21875
328,328,1727820743059,-0.9746094,0.0107421875,-0.3359375,-0.125,-0.03125,0.03125
329,329,1727820743099,-0.9746094,0.0126953125,-0.34472656,0.28125,-0.09375,0.3125
330,330,1727820743139,-0.98046875,0.017578125,-0.33691406,0.15625,-0.09375,0.21875
331,331,1727820743179,-0.984375,0.015625,-0.33398438,-0.125,-0.21875,0.21875
332,332,1727820743219,-0.98046875,0.017578125,-0.3515625,0.34375,-0.34375,0.15625
333,333,1727820743259,-0.9824219,0.01953125,-0.33203125,-0.5625,-0.09375,0.15625
334,334,1727820743299,-0.9794922,0.0087890625,-0.33789062,-0.125,-0.03125,0.15625
335,335,1727820743339,-0.98046875,0.024414062,-0.34277344,-0.4375,0.09375,0.15625
336,336,1727820743379,-0.9814453,0.01171875,-0.33203125,-0.3125,-0.03125,0.09375
337,337,1727820743419,-0.9892578,0.020507812,-0.3388672,-0.25,-0.15625,0.09375
338,338,1727820743459,-0.9863281,0.015625,-0.3359375,-0.3125,0.03125,0.15625
339,339,1727820743499,-0.96972656,0.017578125,-0.3330078,0.0,0.03125,0.28125
340,340,1727820743539,-0.98046875,0.0146484375,-0.34570312,0.15625,0.34375,0.28125
341,341,1727820743579,-0.9794922,0.01171875,-0.34179688,0.0,-0.03125,0.21875
342,342,1727820743619,-0.97265625,0.01953125,-0.34179688,-0.1875,-0.03125,0.15625
343,343,1727820743659,-0.98535156,0.017578125,-0.33496094,-0.3125,0.03125,0.09375
344,344,1727820743699,-0.9716797,0.0087890625,-0.33496094,-0.125,0.09375,0.21875
345,345,1727820743739,-0.97753906,0.0087890625,-0.33984375,0.0,0.40625,0.28125
346,346,1727820743779,-0.9794922,0.013671875,-0.35742188,0.59375,0.15625,0.625
347,347,1727820743819,-0.9863281,0.0087890625,-0.35058594,1.21875,0.53125,0.6875
348,348,1727820743859,-0.9814453,0.029296875,-0.3330078,1.15625,0.34375,0.5625
349,349,1727820743899,-0.98535156,0.017578125,-0.33984375,0.71875,0.40625,0.5
350,350,1727820743939,-0.97558594,0.022460938,-0.35742188,-0.25,0.03125,0.03125
351,351,1727820743979,-0.98046875,0.00390625,-0.33496094,-0.75,-0.15625,0.03125
352,352,1727820744019,-0.9785156,0.013671875,-0.33984375,-0.8125,0.15625,-0.09375
353,353,1727820744059,-0.9794922,0.0029296875,-0.3408203,-0.25,0.03125,0.03125
354,354,1727820744099,-0.9736328,0.020507812,-0.35742188,-0.125,-0.03125,-0.15625
355,355,1727820744139,-0.98046875,0.026367188,-0.3330078,0.0,0.21875,-0.15625
356,356,1727820744179,-0.9746094,0.015625,-0.35351562,0.21875,-0.15625,0.03125
357,357,1727820744219,-0.97558594,0.016601562,-0.3486328,-0.375,0.03125,-0.09375
358,358,1727820744259,-0.98535156,0.0126953125,-0.34375,-0.0625,-0.09375,0.09375
359,359,1727820744299,-0.9824219,0.0234375,-0.35742188,-0.5,0.03125,-0.34375
360,360,1727820744339,-0.98339844,0.01953125,-0.34375,-0.9375,-0.34375,-0.21875
361,361,1727820744379,-0.97753906,0.015625,-0.33496094,-0.875,-0.21875,-0.28125
362,362,1727820744419,-0.97558594,0.016601562,-0.3310547,-0.5625,-0.21875,-0.21875
363,363,1727820744459,-0.9736328,0.0087890625,-0.34472656,-0.3125,-0.03125,-0.09375
364,364,1727820744499,-0.9707031,0.013671875,-0.3486328,-0.1875,-0.15625,-0.03125
365,365,1727820744539,-0.9873047,0.009765625,-0.33789062,0.15625,-0.21875,0.09375
366,366,1727820744579,-0.97265625,0.013671875,-0.33691406,-0.1875,0.15625,0.09375
367,367,1727820744619,-0.9746094,0.017578125,-0.33496094,0.0,0.03125,0.15625
368,368,1727820744659,-0.9785156,0.009765625,-0.34277344,-0.5,-0.09375,0.03125
369,369,1727820744699,-0.97753906,0.0146484375,-0.36816406,-0.3125,0.03125,-0.09375
370,370,1727820744739,-0.9794922,0.01171875,-0.33691406,0.09375,0.15625,0.09375
371,371,1727820744779,-0.984375,0.00390625,-0.3310547,0.0,0.28125,0.15625
372,372,1727820744819,-0.98535156,0.017578125,-0.34472656,0.03125,0.15625,0.3125
373,373,1727820744859,-0.97753906,0.020507812,-0.34375,-0.5625,0.09375,0.3125
374,374,1727820744899,-0.9794922,0.013671875,-0.34277344,0.34375,0.40625,0.75
375,375,1727820744939,-0.98339844,0.009765625,-0.33496094,0.46875,0.09375,0.21875
376,376,1727820744979,-0.98535156,0.0078125,-0.32910156,-0.125,-0.03125,-0.15625
377,377,1727820745019,-0.984375,0.017578125,-0.34277344,0.15625,-0.15625,-0.09375
378,378,1727820745059,-0.96777344,0.028320312,-0.3544922,0.46875,0.09375,0.09375
379,379,1727820745099,-0.9765625,0.016601562,-0.3564453,0.21875,0.34375,0.09375
380,380,1727820745139,-0.98046875,0.016601562,-0.33691406,-0.0625,0.15625,0.03125
381,381,1727820745179,-0.9873047,0.017578125,-0.3408203,-0.5,-0.09375,-0.15625
382,382,1727820745219,-0.9667969,0.017578125,-0.35058594,-1.3125,-0.28125,-0.09375
383,383,1727820745259,-0.97558594,0.022460938,-0.34765625,-1.125,-0.09375,-0.03125
384,384,1727820745299,-0.9814453,0.01171875,-0.34765625,-0.625,0.15625,0.28125
385,385,1727820745339,-0.9824219,0.009765625,-0.328125,-0.1875,0.34375,0.09375
386,386,1727820745379,-0.97558594,0.018554688,-0.33496094,-0.25,-0.09375,-0.09375
387,387,1727820745419,-0.97753906,0.01171875,-0.35742188,0.0,-0.09375,-0.15625
388,388,1727820745459,-0.98046875,0.0146484375,-0.33007812,0.15625,-0.03125,0.03125
389,389,1727820745499,-0.9785156,0.01953125,-0.34277344,0.15625,0.34375,0.03125
390,390,1727820745539,-0.9814453,0.018554688,-0.33203125,0.03125,0.28125,0.09375
391,391,1727820745579,-0.9794922,0.016601562,-0.34570312,0.03125,0.15625,0.03125
392,392,1727820745619,-0.9785156,0.009765625,-0.34375,-0.3125,-0.09375,0.03125
393,393,1727820745659,-0.97753906,0.0107421875,-0.33691406,-0.125,-0.40625,-0.09375
394,394,1727820745699,-0.9785156,0.015625,-0.33789062,-0.125,-0.40625,0.03125
395,395,1727820745739,-0.9746094,0.01953125,-0.3310547,0.03125,-0.15625,0.03125
396,396,1727820745779,-0.98535156,0.018554688,-0.3466797,0.09375,-0.40625,-0.03125
397,397,1727820745819,-0.9785156,0.0126953125,-0.34277344,0.34375,0.28125,0.09375
398,398,1727820745859,-0.97558594,0.018554688,-0.34179688,0.34375,-0.03125,0.03125
399,399,1727820745899,-0.9707031,0.033203125,-0.33984375,-0.125,0.28125,0.09375
400,400,1727820745939,-0.984375,0.0126953125,-0.33496094,0.53125,0.21875,0.3125
401,401,1727820745979,-0.9746094,0.026367188,-0.33496094,0.03125,0.21875,-0.21875
402,402,1727820746019,-0.9785156,0.0107421875,-0.3466797,0.15625,0.15625,-0.09375
403,403,1727820746059,-0.98339844,0.0107421875,-0.34277344,-0.125,-0.09375,-0.03125
404,404,1727820746099,-0.98535156,0.00390625,-0.34277344,-0.4375,-0.28125,0.09375
405,405,1727820746139,-0.9794922,0.016601562,-0.34472656,-0.25,0.53125,0.03125
406,406,1727820746179,-0.9736328,0.0126953125,-0.33789062,-0.375,0.40625,0.3125
407,407,1727820746219,-0.98828125,0.0048828125,-0.32714844,-0.125,0.21875,0.3125
408,408,1727820746259,-0.9941406,0.0048828125,-0.3359375,0.28125,0.40625,0.15625
409,409,1727820746299,-0.9765625,-0.005859375,-0.35058594,0.21875,0.28125,-0.71875
410,410,1727820746339,-0.98046875,0.02734375,-0.3466797,-0.3125,1.3125,-1.375
411,411,1727820746379,-0.9814453,0.02734375,-0.35058594,0.28125,-0.09375,-0.65625
412,412,1727820746419,-0.9814453,0.0234375,-0.35546875,-0.9375,-0.75,-0.34375
413,413,1727820746459,-0.984375,0.0048828125,-0.3515625,-0.875,-0.5625,0.28125
414,414,1727820746499,-0.97558594,0.0029296875,-0.3486328,-0.9375,-0.03125,0.21875
415,415,1727820746539,-0.98046875,0.022460938,-0.36132812,-0.5,0.78125,0.3125
416,416,1727820746579,-0.9814453,0.022460938,-0.3359375,0.15625,-0.03125,0.5625
417,417,1727820746619,-0.9794922,0.0068359375,-0.35742188,0.03125,-0.5,0.4375
418,418,1727820746659,-0.9814453,0.0146484375,-0.3486328,-1.34375,0.09375,0.09375
419,419,1727820746699,-0.9736328,0.016601562,-0.34277344,-0.875,0.03125,0.09375
420,420,1727820746739,-0.97753906,0.018554688,-0.35058594,-0.1875,-0.5,0.5
421,421,1727820746779,-0.9814453,0.016601562,-0.35351562,-0.9375,0.15625,0.28125
422,422,1727820746819,-0.98535156,0.009765625,-0.33789062,-0.8125,-0.03125,0.09375
423,423,1727820746859,-0.9765625,0.0107421875,-0.32128906,-0.5,-0.03125,0.09375
424,424,1727820746899,-0.98535156,0.013671875,-0.33203125,-0.75,-0.03125,0.03125
425,425,1727820746939,-0.9863281,0.01171875,-0.33789062,-0.0625,-0.09375,0.28125
426,426,1727820746979,-0.98828125,0.0146484375,-0.3671875,0.21875,0.34375,0.21875
427,427,1727820747019,-0.9794922,0.017578125,-0.3359375,-0.0625,0.40625,0.15625
428,428,1727820747059,-0.97753906,0.0126953125,-0.3408203,0.09375,0.09375,0.3125
429,429,1727820747099,-0.98535156,0.018554688,-0.33496094,0.03125,0.28125,0.3125
430,430,1727820747139,-0.9863281,0.0078125,-0.33203125,-0.125,0.09375,0.09375
431,431,1727820747179,-0.9794922,0.017578125,-0.33398438,-0.25,0.21875,0.15625
432,432,1727820747219,-0.9746094,0.022460938,-0.34570312,-0.0625,0.28125,0.28125
433,433,1727820747259,-0.9824219,0.015625,-0.34765625,0.15625,0.34375,0.375
434,434,1727820747299,-0.9863281,0.015625,-0.3486328,0.28125,0.65625,0.3125
435,435,1727820747339,-0.9814453,0.020507812,-0.33007812,0.28125,0.53125,0.375
436,436,1727820747379,-0.98339844,0.0146484375,-0.34765625,1.4375,0.46875,0.5625
437,437,1727820747419,-0.9814453,0.017578125,-0.34277344,0.40625,0.59375,0.375
438,438,1727820747459,-0.97558594,0.017578125,-0.33691406,0.09375,0.46875,0.28125
439,439,1727820747499,-0.98535156,0.01171875,-0.3359375,-0.6875,0.28125,0.03125
440,440,1727820747539,-0.98046875,0.0126953125,-0.3515625,-0.75,0.09375,-0.21875
441,441,1727820747579,-0.98535156,0.025390625,-0.33789062,-1.40625,-0.15625,-0.21875
442,442,1727820747619,-0.9716797,0.0029296875,-0.34765625,-1.125,-0.28125,-0.15625
443,443,1727820747659,-0.9785156,0.0068359375,-0.3310547,-0.6875,0.03125,-0.03125
444,444,1727820747699,-0.9736328,0.0107421875,-0.33496094,-0.1875,-0.03125,0.03125
445,445,1727820747739,-0.9824219,0.0107421875,-0.3408203,0.53125,0.03125,0.21875
446,446,1727820747779,-0.97558594,0.0107421875,-0.33691406,0.59375,-0.09375,0.15625
447,447,1727820747819,-0.9736328,0.016601562,-0.34375,0.21875,-0.21875,-0.03125
448,448,1727820747859,-0.9746094,0.0234375,-0.33203125,-0.4375,-0.15625,-0.15625
449,449,1727820747899,-0.984375,0.016601562,-0.34570312,-0.125,-0.21875,-0.21875
450,450,1727820747939,-0.9824219,0.0146484375,-0.33496094,-1.53125,-0.21875,-0.46875
451,451,1727820747979,-0.98046875,0.0107421875,-0.35253906,-0.875,-0.15625,0.09375
452,452,1727820748019,-0.9892578,0.00390625,-0.33984375,0.21875,0.09375,0.4375
453,453,1727820748059,-0.9863281,0.0107421875,-0.34570312,0.84375,0.28125,0.28125
454,454,1727820748099,-0.98046875,0.017578125,-0.33789062,1.21875,0.15625,0.21875
455,455,1727820748139,-0.98535156,0.0048828125,-0.3408203,0.46875,-0.28125,0.09375
456,456,1727820748179,-0.9863281,0.0146484375,-0.3544922,-0.25,-0.34375,0.03125
457,457,1727820748219,-0.9736328,0.013671875,-0.3408203,-0.5,-0.21875,-0.09375
458,458,1727820748259,-0.9892578,0.0107421875,-0.3515625,-0.625,-0.09375,-0.03125
459,459,1727820748299,-0.98535156,0.01171875,-0.3486328,-0.375,-0.28125,-0.09375
460,460,1727820748339,-0.9824219,0.0107421875,-0.32714844,-0.375,-0.21875,-0.03125
461,461,1727820748379,-0.9824219,0.016601562,-0.3408203,0.0,-0.03125,0.09375
462,462,1727820748419,-0.97558594,0.0146484375,-0.3330078,0.65625,0.09375,0.3125
463,463,1727820748459,-0.97753906,0.0146484375,-0.34472656,0.40625,0.46875,0.15625
464,464,1727820748499,-0.97558594,0.01953125,-0.3466797,-0.3125,0.34375,0.28125
465,465,1727820748539,-0.9785156,0.016601562,-0.33203125,-0.25,0.28125,0.28125
466,466,1727820748579,-0.97753906,0.0048828125,-0.34277344,-0.875,0.28125,0.15625
467,467,1727820748619,-0.97265625,0.00390625,-0.35058594,-0.5625,0.40625,0.09375
468,468,1727820748659,-0.984375,0.018554688,-0.35253906,0.0,0.53125,0.28125
469,469,1727820748699,-0.9746094,0.016601562,-0.3564453,0.09375,0.59375,0.3125
470,470,1727820748739,-0.9736328,0.0087890625,-0.32714844,0.34375,0.28125,0.28125
471,471,1727820748779,-0.98535156,0.018554688,-0.33789062,0.65625,0.21875,0.21875
472,472,1727820748819,-0.9746094,0.0126953125,-0.3623047,0.21875,0.09375,0.28125
473,473,1727820748859,-0.9736328,0.013671875,-0.3330078,0.84375,0.71875,0.8125
474,474,1727820748899,-0.99609375,0.013671875,-0.34960938,1.5625,0.15625,0.09375
475,475,1727820748939,-0.97558594,0.00390625,-0.3515625,1.03125,-0.875,0.6875
476,476,1727820748979,-0.9736328,0.0068359375,-0.34472656,1.375,0.40625,0.4375
477,477,1727820749019,-0.9892578,0.022460938,-0.3251953,0.78125,0.59375,0.4375
478,478,1727820749059,-0.9824219,0.020507812,-0.34472656,0.40625,-0.34375,0.625
479,479,1727820749099,-0.9892578,0.009765625,-0.33789062,-0.375,-1.0,0.28125
480,480,1727820749139,-0.9824219,0.0107421875,-0.3486328,-1.3125,-0.75,-0.28125
481,481,1727820749179,-0.9794922,0.0146484375,-0.33691406,-1.46875,-0.34375,-0.15625
482,482,1727820749219,-0.9736328,0.0126953125,-0.34765625,-1.25,-0.09375,-0.03125
483,483,1727820749259,-0.9785156,0.00390625,-0.33203125,-0.4375,-0.03125,0.3125
484,484,1727820749299,-0.98828125,0.0087890625,-0.3388672,-0.125,0.53125,0.21875
485,485,1727820749339,-0.984375,0.0126953125,-0.33203125,-0.125,0.21875,0.03125
486,486,1727820749379,-0.96484375,0.015625,-0.33496094,-0.3125,0.03125,0.28125
487,487,1727820749419,-0.9814453,0.0107421875,-0.34765625,0.03125,0.34375,0.3125
488,488,1727820749459,-0.9785156,0.016601562,-0.3330078,0.03125,0.53125,0.375
489,489,1727820749499,-0.9794922,0.0107421875,-0.33984375,0.0,0.53125,0.4375
490,490,1727820749539,-0.98046875,0.015625,-0.34570312,0.71875,0.40625,0.4375
491,491,1727820749579,-0.97265625,0.015625,-0.34960938,0.96875,0.40625,0.5
492,492,1727820749619,-0.9765625,0.015625,-0.34960938,0.84375,0.40625,0.5625
493,493,1727820749659,-0.984375,0.0126953125,-0.34765625,1.15625,0.59375,0.5625
494,494,1727820749699,-0.9824219,0.017578125,-0.34277344,0.59375,0.28125,0.625
495,495,1727820749739,-0.98828125,0.015625,-0.34472656,0.84375,-0.03125,0.5625
496,496,1727820749779,-0.98339844,0.0087890625,-0.34960938,0.65625,0.03125,0.375
497,497,1727820749819,-0.9794922,0.0146484375,-0.34765625,0.59375,0.40625,0.21875
498,498,1727820749859,-0.9785156,0.01171875,-0.35253906,0.96875,0.21875,0.375
499,499,1727820749899,-0.9814453,0.03125,-0.3388672,0.15625,0.15625,0.15625
500,500,1727820749939,-0.97753906,0.015625,-0.3544922,-0.75,0.03125,0.03125
501,501,1727820749979,-0.9716797,0.025390625,-0.34960938,-0.5,-0.21875,-0.15625
502,502,1727820750019,-0.9716797,0.00390625,-0.3564453,-1.25,0.03125,-0.34375
503,503,1727820750059,-0.97753906,0.0,-0.3466797,-0.75,-0.40625,0.09375
504,504,1727820750099,-0.9736328,0.001953125,-0.35253906,-0.125,-0.5,-0.03125
505,505,1727820750139,-0.98046875,0.01953125,-0.34570312,0.34375,0.65625,-0.15625
506,506,1727820750179,-0.97558594,0.025390625,-0.31640625,0.09375,0.09375,0.09375
507,507,1727820750219,-0.9863281,0.020507812,-0.3408203,-0.3125,-0.21875,0.15625
508,508,1727820750259,-0.9814453,0.01953125,-0.3466797,-1.25,-0.15625,-0.34375
509,509,1727820750299,-0.9794922,0.01171875,-0.3359375,-0.6875,0.21875,-0.15625
510,510,1727820750339,-0.98046875,0.0068359375,-0.34375,-0.3125,0.28125,0.09375
511,511,1727820750379,-0.984375,0.017578125,-0.34960938,-0.25,0.40625,0.3125
512,512,1727820750419,-0.9785156,0.018554688,-0.3330078,-0.1875,0.28125,0.15625
513,513,1727820750459,-0.984375,0.009765625,-0.3486328,-0.125,-0.03125,-0.03125
514,514,1727820750499,-0.97753906,0.0087890625,-0.33496094,-0.3125,-0.21875,-0.21875
515,515,1727820750539,-0.984375,0.0087890625,-0.34179688,0.21875,0.40625,-0.09375
516,516,1727820750579,-0.9736328,0.0107421875,-0.36132812,0.65625,0.03125,-0.09375
517,517,1727820750619,-0.96972656,0.0087890625,-0.34570312,0.09375,0.21875,-0.03125
518,518,1727820750659,-0.97558594,0.0087890625,-0.34570312,1.21875,0.09375,0.03125
519,519,1727820750699,-0.97753906,0.01953125,-0.3388672,1.09375,0.21875,-0.15625
520,520,1727820750739,-0.9746094,0.0087890625,-0.33203125,1.5625,0.40625,0.15625
521,521,1727820750779,-0.98046875,0.0087890625,-0.33203125,0.84375,-0.4375,-0.21875
522,522,1727820750819,-0.97558594,0.00390625,-0.34277344,-0.125,-0.09375,-0.21875
523,523,1727820750859,-0.9785156,0.016601562,-0.3388672,0.28125,-0.21875,-0.15625
524,524,1727820750899,-0.97265625,0.018554688,-0.3388672,0.09375,-0.34375,-0.03125
525,525,1727820750939,-0.9814453,0.015625,-0.33496094,-0.5,-0.09375,-0.03125
526,526,1727820750979,-0.9658203,0.0078125,-0.34472656,-0.3125,-0.40625,-0.03125
527,527,1727820751019,-0.9824219,0.0087890625,-0.33496094,-0.8125,-0.21875,-0.21875
528,528,1727820751059,-0.9902344,0.0,-0.3388672,-0.5625,-0.40625,-0.21875
529,529,1727820751099,-0.98046875,0.0068359375,-0.3408203,-0.6875,-0.34375,-0.21875
530,530,1727820751139,-0.98339844,0.0029296875,-0.33007812,-0.75,-0.15625,-0.15625
531,531,1727820751179,-0.97558594,0.001953125,-0.34765625,-0.4375,-0.28125,-0.09375
532,532,1727820751219,-0.96777344,0.01171875,-0.3359375,-0.4375,-0.09375,-0.09375
533,533,1727820751259,-0.98046875,0.0126953125,-0.34277344,-0.3125,0.03125,-0.03125
534,534,1727820751299,-0.98535156,0.001953125,-0.3359375,-0.5,-0.09375,0.03125
535,535,1727820751339,-0.98535156,0.009765625,-0.3466797,-0.1875,-0.03125,0.03125
536,536,1727820751379,-0.9765625,0.0048828125,-0.33691406,-0.125,-0.09375,-0.03125
537,537,1727820751419,-0.98046875,0.009765625,-0.3359375,-0.125,-0.21875,0.09375
538,538,1727820751459,-0.97753906,0.0107421875,-0.3359375,0.03125,-0.15625,0.03125
539,539,1727820751499,-0.97265625,0.0029296875,-0.35742188,-0.0625,-0.15625,0.21875
540,540,1727820751539,-0.9736328,0.0107421875,-0.34765625,0.0,0.03125,0.28125
541,541,1727820751579,-0.984375,0.00390625,-0.34570312,0.34375,0.03125,0.4375
542,542,1727820751619,-0.97558594,0.0107421875,-0.34472656,0.28125,-0.09375,0.3125
543,543,1727820751659,-0.9814453,0.0029296875,-0.33984375,0.09375,-0.03125,0.21875
544,544,1727820751699,-0.98339844,0.0107421875,-0.33691406,0.0,-0.03125,0.21875
545,545,1727820751739,-0.97753906,0.015625,-0.34472656,-0.1875,-0.28125,0.21875
546,546,1727820751779,-0.98339844,0.0087890625,-0.3359375,0.0,-0.03125,0.3125
547,547,1727820751819,-0.96972656,0.0126953125,-0.3388672,-0.125,-0.09375,0.21875
548,548,1727820751859,-0.9794922,0.015625,-0.34277344,0.0,0.15625,0.3125
549,549,1727820751899,-0.9824219,0.00390625,-0.34960938,0.34375,0.28125,0.21875
550,550,1727820751939,-0.984375,0.015625,-0.33789062,-0.375,-0.03125,0.03125
551,551,1727820751979,-0.9824219,0.01171875,-0.3515625,-0.5,-0.03125,-0.03125
552,552,1727820752019,-0.9794922,0.0087890625,-0.34375,-0.4375,-0.21875,0.09375
553,553,1727820752059,-0.9746094,0.015625,-0.3515625,-0.6875,-0.15625,0.03125
554,554,1727820752099,-0.97558594,0.00390625,-0.34179688,-0.125,-0.03125,0.15625
555,555,1727820752139,-0.98046875,0.0126953125,-0.328125,-0.25,0.03125,-0.03125
556,556,1727820752179,-0.97753906,0.017578125,-0.33984375,-0.5625,-0.03125,0.15625
557,557,1727820752219,-0.9765625,0.009765625,-0.34277344,-0.0625,0.09375,0.15625
558,558,1727820752259,-0.9814453,0.005859375,-0.33496094,-0.125,0.03125,0.09375
559,559,1727820752299,-0.97753906,0.009765625,-0.3408203,-0.375,-0.03125,0.03125
560,560,1727820752339,-0.9785156,0.0107421875,-0.34277344,-0.6875,-0.21875,0.03125
561,561,1727820752379,-0.9785156,0.015625,-0.3388672,-0.6875,-0.21875,-0.09375
562,562,1727820752419,-0.9794922,0.0087890625,-0.33984375,-0.5625,-0.28125,-0.15625
563,563,1727820752459,-0.97558594,0.01171875,-0.33984375,-0.125,0.03125,0.15625
564,564,1727820752499,-0.9785156,0.0107421875,-0.34765625,0.03125,0.21875,0.21875
565,565,1727820752539,-0.97753906,0.0078125,-0.33691406,0.15625,0.21875,0.28125
566,566,1727820752579,-0.9892578,0.0078125,-0.3408203,0.28125,0.40625,0.28125
567,567,1727820752619,-0.9814453,0.0107421875,-0.33398438,0.46875,0.28125,0.3125
568,568,1727820752659,-0.9873047,0.0009765625,-0.34179688,0.21875,0.09375,0.21875
569,569,1727820752699,-0.9785156,0.0107421875,-0.33007812,0.21875,0.21875,0.15625
570,570,1727820752739,-0.97753906,0.01953125,-0.35058594,0.34375,0.40625,0.375
571,571,1727820752779,-0.9736328,0.009765625,-0.35351562,0.03125,0.46875,0.28125
572,572,1727820752819,-0.9814453,0.0107421875,-0.3330078,-0.1875,0.21875,0.09375
573,573,1727820752859,-0.9863281,0.009765625,-0.34960938,-0.25,0.21875,0.09375
574,574,1727820752899,-0.9785156,0.016601562,-0.3544922,-0.1875,0.15625,0.09375
575,575,1727820752939,-0.98535156,0.01953125,-0.33496094,-0.5,0.15625,0.15625
576,576,1727820752979,-0.9814453,0.0107421875,-0.33203125,-0.375,0.28125,0.15625
577,577,1727820753019,-0.9892578,0.0107421875,-0.33007812,-0.4375,0.21875,0.21875
578,578,1727820753059,-0.9785156,0.0,-0.33984375,-0.25,-0.03125,0.15625
579,579,1727820753099,-0.98046875,0.016601562,-0.33789062,-0.6875,0.21875,0.09375
580,580,1727820753139,-0.9765625,0.0009765625,-0.32617188,0.09375,0.28125,0.5
581,581,1727820753179,-0.9785156,0.009765625,-0.35058594,0.28125,0.28125,0.3125
582,582,1727820753219,-0.984375,0.0078125,-0.34277344,0.46875,0.34375,0.21875
583,583,1727820753259,-0.97753906,0.013671875,-0.34179688,0.40625,0.15625,0.3125
584,584,1727820753299,-0.97265625,0.0048828125,-0.3515625,0.65625,0.15625,0.4375
585,585,1727820753339,-0.9716797,0.005859375,-0.34179688,0.09375,0.03125,0.21875
586,586,1727820753379,-0.9794922,0.009765625,-0.3408203,0.0,0.21875,0.375
587,587,1727820753419,-0.98828125,0.005859375,-0.33203125,0.0,0.15625,0.3125
588,588,1727820753459,-0.98046875,0.0087890625,-0.34570312,-0.3125,-0.15625,0.3125
589,589,1727820753499,-0.9794922,0.009765625,-0.3515625,-0.1875,0.15625,0.15625
590,590,1727820753539,-0.9736328,0.005859375,-0.34179688,-0.125,0.03125,0.28125
591,591,1727820753579,-0.984375,0.009765625,-0.34472656,0.0,0.21875,0.21875
592,592,1727820753619,-0.9863281,0.016601562,-0.33691406,0.0,0.28125,0.28125
593,593,1727820753659,-0.9824219,0.0087890625,-0.328125,0.0,0.15625,0.3125
594,594,1727820753699,-0.9794922,0.020507812,-0.33496094,-0.5,0.15625,0.09375
595,595,1727820753739,-0.97753906,0.0107421875,-0.33789062,-0.5,0.09375,0.03125
596,596,1727820753779,-0.98046875,0.0009765625,-0.34472656,-0.6875,-0.03125,0.09375
597,597,1727820753819,-0.9716797,0.0048828125,-0.33496094,-0.375,0.21875,0.15625
598,598,1727820753859,-0.9736328,0.01171875,-0.35839844,0.09375,0.03125,0.28125
599,599,1727820753899,-0.9941406,0.017578125,-0.34179688,-0.0625,0.15625,0.15625
600,600,1727820753939,-0.9736328,0.0068359375,-0.3359375,0.21875,0.15625,0.28125
601,601,1727820753979,-0.9814453,0.009765625,-0.35839844,0.0,0.15625,0.28125
602,602,1727820754019,-0.9736328,0.018554688,-0.34570312,-0.0625,0.15625,0.28125
603,603,1727820754059,-0.9863281,0.015625,-0.3408203,0.03125,0.21875,0.21875
604,604,1727820754099,-0.98046875,0.0078125,-0.3466797,-0.1875,0.09375,0.15625
605,605,1727820754139,-0.97558594,0.01171875,-0.34472656,-0.0625,0.09375,0.21875
606,606,1727820754179,-0.9716797,0.020507812,-0.35253906,-0.3125,0.21875,0.15625
607,607,1727820754219,-0.9794922,0.0126953125,-0.33496094,-0.25,0.15625,0.3125
608,608,1727820754259,-0.9794922,0.0107421875,-0.34570312,-0.375,0.21875,0.3125
609,609,1727820754299,-0.984375,0.0087890625,-0.35253906,-0.6875,0.21875,0.09375
610,610,1727820754339,-0.9892578,0.009765625,-0.34277344,-0.875,0.03125,-0.09375
611,611,1727820754379,-0.9736328,0.022460938,-0.34179688,-0.5625,0.21875,0.15625
612,612,1727820754419,-0.984375,0.00390625,-0.32910156,0.15625,0.46875,0.21875
613,613,1727820754459,-0.9785156,0.017578125,-0.3515625,-0.0625,0.28125,0.21875
614,614,1727820754499,-0.9824219,0.0146484375,-0.34765625,-0.3125,0.09375,0.09375
615,615,1727820754539,-0.9707031,0.01171875,-0.34375,-0.375,0.03125,0.21875
616,616,1727820754579,-0.9814453,0.0068359375,-0.34179688,-0.3125,0.21875,0.15625
617,617,1727820754619,-0.9785156,0.0126953125,-0.33984375,0.0,0.21875,0.21875
618,618,1727820754659,-0.9794922,0.0048828125,-0.35058594,0.65625,0.40625,0.3125
619,619,1727820754699,-0.97753906,0.024414062,-0.3515625,0.53125,0.28125,0.21875
620,620,1727820754739,-0.97558594,0.01171875,-0.3515625,0.46875,-0.03125,0.4375
621,621,1727820754779,-0.9765625,0.015625,-0.3486328,0.15625,0.03125,0.21875
622,622,1727820754819,-0.9863281,0.016601562,-0.35351562,0.09375,-0.09375,0.15625
623,623,1727820754859,-0.9716797,0.016601562,-0.35351562,-0.5625,-0.34375,0.03125
624,624,1727820754899,-0.9824219,0.0126953125,-0.33496094,-0.6875,-0.21875,-0.03125
625,625,1727820754939,-0.97265625,0.013671875,-0.3388672,-0.3125,-0.15625,0.09375
626,626,1727820754979,-0.9785156,0.0126953125,-0.34570312,-0.1875,-0.09375,0.21875
627,627,1727820755019,-0.9785156,0.0068359375,-0.34472656,0.21875,-0.03125,0.09375
628,628,1727820755059,-0.98339844,0.01953125,-0.32617188,-0.1875,-0.5,-0.21875
629,629,1727820755099,-0.98535156,0.01171875,-0.3203125,-0.375,-0.5625,-0.34375
630,630,1727820755139,-0.9814453,0.0146484375,-0.33496094,-0.625,-0.6875,-0.34375
631,631,1727820755179,-0.96972656,0.01171875,-0.3466797,-1.125,-0.28125,-0.34375
632,632,1727820755219,-0.9765625,0.0087890625,-0.3466797,-0.5,-0.34375,0.09375
633,633,1727820755259,-0.984375,0.0068359375,-0.34570312,-0.3125,0.03125,0.03125
634,634,1727820755299,-0.9863281,0.01171875,-0.3408203,-0.25,0.03125,0.21875
635,635,1727820755339,-0.9814453,0.0087890625,-0.35253906,-0.09375,-0.21875,-0.15625
636,636,1727820755379,-0.9667969,0.009765625,-0.34277344,-0.46875,-0.34375,-0.28125
637,637,1727820755419,-0.97753906,0.0029296875,-0.33789062,-0.15625,-0.09375,-0.09375
638,638,1727820755459,-0.97753906,0.0087890625,-0.34277344,0.40625,-0.09375,0.21875
639,639,1727820755499,-0.9824219,0.01953125,-0.33789062,-0.15625,0.40625,0.03125
640,640,1727820755539,-0.98046875,0.0078125,-0.33203125,0.5625,0.28125,0.46875
641,641,1727820755579,-0.98339844,0.015625,-0.3330078,0.875,0.5,0.46875
642,642,1727820755619,-0.98046875,0.015625,-0.34960938,0.9375,0.4375,0.28125
643,643,1727820755659,-0.97753906,0.015625,-0.34277344,0.875,0.15625,0.09375
644,644,1727820755699,-0.97558594,0.0087890625,-0.3359375,0.625,0.09375,0.03125
645,645,1727820755739,-0.9746094,0.017578125,-0.3564453,0.4375,0.15625,0.09375
646,646,1727820755779,-0.9794922,0.022460938,-0.3515625,0.6875,0.15625,0.28125
647,647,1727820755819,-0.984375,0.018554688,-0.328125,0.40625,0.28125,-0.03125
648,648,1727820755859,-0.98046875,0.016601562,-0.32421875,-0.03125,-0.03125,0.03125
649,649,1727820755899,-0.9863281,0.0146484375,-0.36621094,0.5,0.09375,-0.15625
650,650,1727820755939,-0.98535156,0.016601562,-0.3466797,0.03125,0.15625,-0.15625
651,651,1727820755979,-0.984375,0.0087890625,-0.34277344,0.03125,0.03125,-0.03125
652,652,1727820756019,-0.97558594,0.01171875,-0.35546875,-0.09375,0.03125,0.03125
653,653,1727820756059,-0.98828125,0.0087890625,-0.32910156,-0.40625,-0.21875,-0.28125
654,654,1727820756099,-0.9765625,0.0126953125,-0.35058594,-0.78125,-0.15625,-0.40625
655,655,1727820756139,-0.97558594,0.0146484375,-0.3466797,-0.09375,-0.15625,-0.09375
656,656,1727820756179,-0.9667969,0.016601562,-0.34277344,-0.34375,0.03125,-0.21875
657,657,1727820756219,-0.9794922,0.0078125,-0.33984375,0.15625,0.09375,0.03125
658,658,1727820756259,-0.97753906,0.0048828125,-0.3330078,0.5625,-0.15625,-0.09375
659,659,1727820756299,-0.9794922,0.00390625,-0.3564453,0.34375,-0.03125,-0.21875
660,660,1727820756339,-0.98046875,0.018554688,-0.34960938,0.6875,-0.03125,-0.15625
661,661,1727820756379,-0.9824219,0.0146484375,-0.34277344,0.5625,0.15625,-0.03125
662,662,1727820756419,-0.98046875,0.00390625,-0.3466797,0.5,0.03125,-0.03125
663,663,1727820756459,-0.97265625,0.0146484375,-0.3251953,0.34375,-0.09375,-0.09375
664,664,1727820756499,-0.9824219,0.0078125,-0.3515625,0.21875,-0.15625,-0.15625
665,665,1727820756539,-0.98535156,0.016601562,-0.3564453,0.03125,-0.15625,-0.34375
666,666,1727820756579,-0.9785156,0.0087890625,-0.34472656,0.09375,-0.40625,-0.09375
667,667,1727820756619,-0.97753906,0.0,-0.33691406,0.15625,-0.15625,-0.15625
668,668,1727820756659,-0.9794922,0.0048828125,-0.36035156,0.09375,-0.34375,-0.34375
669,669,1727820756699,-0.97265625,0.01171875,-0.3310547,-0.28125,-0.46875,-0.46875
670,670,1727820756739,-0.9746094,0.016601562,-0.35058594,-0.59375,-0.40625,-0.5625
671,671,1727820756779,-0.9814453,0.013671875,-0.3408203,-1.0,-0.28125,-0.40625
672,672,1727820756819,-0.9873047,0.0048828125,-0.3466797,-0.40625,0.09375,-0.21875
673,673,1727820756859,-0.9814453,0.0009765625,-0.32910156,0.03125,-0.15625,-0.15625
674,674,1727820756899,-0.98046875,0.001953125,-0.35253906,0.625,-0.40625,-0.03125
675,675,1727820756939,-0.9794922,0.0078125,-0.3408203,1.25,-0.34375,-0.21875
676,676,1727820756979,-0.9814453,0.01171875,-0.3359375,0.5,-0.28125,-0.46875
677,677,1727820757019,-0.9746094,0.0107421875,-0.34472656,0.09375,-0.28125,-0.5625
678,678,1727820757059,-0.97753906,0.0048828125,-0.35742188,-0.34375,-0.40625,-0.46875
679,679,1727820757099,-0.98535156,0.001953125,-0.3310547,-0.28125,-0.21875,-0.34375
680,680,1727820757139,-0.9873047,0.0087890625,-0.32714844,-0.09375,-0.28125,-0.46875
681,681,1727820757179,-0.98535156,0.00390625,-0.33007812,0.4375,-0.34375,-0.28125
682,682,1727820757219,-0.9765625,0.0087890625,-0.33203125,0.625,-0.09375,-0.34375
683,683,1727820757259,-0.97558594,0.0107421875,-0.3515625,0.6875,0.03125,-0.28125
684,684,1727820757299,-0.984375,0.0029296875,-0.33691406,0.75,0.15625,0.03125
685,685,1727820757339,-0.9873047,0.009765625,-0.33984375,0.15625,0.21875,-0.15625
686,686,1727820757379,-0.9892578,0.016601562,-0.34375,-0.21875,-0.59375,-0.46875
687,687,1727820757419,-0.98535156,0.0107421875,-0.34570312,-0.40625,-0.15625,-0.40625
688,688,1727820757459,-0.9824219,-0.00390625,-0.3330078,0.09375,-0.34375,-0.40625
689,689,1727820757499,-0.984375,0.009765625,-0.34179688,0.21875,0.03125,-0.28125
690,690,1727820757539,-0.97558594,0.013671875,-0.34570312,0.15625,0.21875,-0.28125
691,691,1727820757579,-0.9736328,0.0078125,-0.33789062,0.21875,0.21875,-0.21875
692,692,1727820757619,-0.98828125,0.0048828125,-0.33203125,0.15625,-0.15625,-0.03125
693,693,1727820757659,-0.97753906,0.0087890625,-0.3408203,0.15625,-0.09375,-0.15625
694,694,1727820757699,-0.9824219,0.0068359375,-0.34179688,0.28125,-0.21875,-0.34375
695,695,1727820757739,-0.97558594,0.009765625,-0.33398438,0.40625,-0.34375,-0.21875
696,696,1727820757779,-0.9716797,0.0009765625,-0.33984375,0.03125,-0.46875,-0.28125
697,697,1727820757819,-0.9707031,0.00390625,-0.34179688,-0.15625,-0.53125,-0.40625
698,698,1727820757859,-0.9873047,0.00390625,-0.3330078,-0.59375,0.03125,-0.40625
699,699,1727820757899,-0.9951172,0.005859375,-0.328125,-0.65625,-0.65625,-0.46875
700,700,1727820757939,-0.98339844,0.0029296875,-0.34277344,-1.1875,-0.40625,-0.625
701,701,1727820757979,-0.9824219,-0.0009765625,-0.3310547,-1.25,-0.46875,-0.5
702,702,1727820758019,-0.98046875,0.0068359375,-0.34277344,-0.90625,-0.09375,-0.40625
703,703,1727820758059,-0.984375,0.0009765625,-0.3310547,-0.28125,0.15625,-0.21875
704,704,1727820758099,-0.9873047,-0.0029296875,-0.32910156,-0.15625,-0.15625,-0.03125
705,705,1727820758139,-0.9892578,0.01171875,-0.3388672,0.09375,-0.09375,-0.21875
706,706,1727820758179,-0.9746094,0.00390625,-0.3466797,0.21875,-0.15625,-0.15625
707,707,1727820758219,-0.98046875,0.0048828125,-0.3310547,0.09375,-0.03125,-0.15625
708,708,1727820758259,-0.9873047,0.005859375,-0.3388672,0.03125,-0.09375,-0.03125
709,709,1727820758299,-0.97753906,0.0048828125,-0.33789062,0.09375,-0.15625,0.03125
710,710,1727820758339,-0.9873047,0.00390625,-0.33496094,0.34375,-0.03125,0.03125
711,711,1727820758379,-0.9824219,0.009765625,-0.34375,0.625,0.03125,0.15625
712,712,1727820758419,-0.9794922,0.001953125,-0.3330078,0.75,0.09375,0.21875
713,713,1727820758459,-0.97753906,0.01171875,-0.3408203,0.625,0.21875,0.09375
714,714,1727820758499,-0.9873047,0.0146484375,-0.33203125,0.8125,-0.03125,0.28125
715,715,1727820758539,-0.97558594,0.009765625,-0.3359375,0.4375,0.21875,0.09375
716,716,1727820758579,-0.98535156,0.0068359375,-0.3359375,0.5,0.28125,0.21875
717,717,1727820758619,-0.9873047,0.0009765625,-0.33789062,0.34375,0.15625,0.21875
718,718,1727820758659,-0.9873047,0.001953125,-0.3359375,-0.09375,0.03125,0.09375
719,719,1727820758699,-0.9824219,0.0048828125,-0.328125,-0.09375,0.09375,-0.28125
720,720,1727820758739,-0.9892578,0.0087890625,-0.32617188,-0.59375,-0.15625,-0.40625
721,721,1727820758779,-0.9746094,0.0048828125,-0.3310547,-0.9375,-0.34375,-0.46875
722,722,1727820758819,-0.97558594,0.0078125,-0.328125,-0.90625,0.15625,0.03125
723,723,1727820758859,-0.9873047,0.009765625,-0.33496094,-0.03125,0.5,0.28125
724,724,1727820758899,-0.9863281,-0.005859375,-0.3251953,0.5,0.625,0.34375
725,725,1727820758939,-0.98046875,-0.00390625,-0.34277344,0.34375,0.34375,0.15625
726,726,1727820758979,-0.98339844,0.0078125,-0.33984375,0.4375,0.15625,-0.03125
727,727,1727820759019,-0.9794922,0.001953125,-0.33691406,0.4375,0.28125,0.15625
728,728,1727820759059,-0.984375,0.0078125,-0.34179688,0.34375,0.34375,0.15625
729,729,1727820759099,-0.984375,0.0087890625,-0.34375,0.28125,0.4375,0.28125
730,730,1727820759139,-0.99121094,0.00390625,-0.34570312,0.28125,-0.03125,0.34375
731,731,1727820759179,-0.9814453,0.005859375,-0.33691406,0.4375,0.34375,0.21875
732,732,1727820759219,-0.9794922,0.001953125,-0.33984375,1.0,0.28125,0.53125
733,733,1727820759259,-0.9824219,0.009765625,-0.3359375,1.3125,0.34375,0.53125
734,734,1727820759299,-0.9785156,0.013671875,-0.328125,1.125,0.28125,0.40625
735,735,1727820759339,-0.98535156,0.0126953125,-0.34179688,0.9375,0.21875,0.21875
736,736,1727820759379,-0.98535156,0.0126953125,-0.34472656,0.5625,0.09375,0.03125
737,737,1727820759419,-0.9892578,0.025390625,-0.35839844,-0.34375,-0.09375,-0.34375
738,738,1727820759459,-0.97753906,0.0029296875,-0.34179688,0.21875,0.625,-0.03125
739,739,1727820759499,-0.97753906,0.009765625,-0.34375,0.34375,0.4375,0.28125
740,740,1727820759539,-0.9716797,0.0029296875,-0.34179688,0.34375,0.75,0.15625
741,741,1727820759579,-0.9902344,0.0107421875,-0.3359375,0.21875,0.4375,0.03125
742,742,1727820759619,-0.9765625,0.0087890625,-0.3359375,0.625,0.15625,0.09375
743,743,1727820759659,-0.9794922,0.016601562,-0.3359375,0.15625,0.34375,-0.15625
744,744,1727820759699,-0.98535156,0.01171875,-0.3515625,0.40625,0.40625,0.09375
745,745,1727820759739,-0.97753906,0.0126953125,-0.34277344,0.5625,0.09375,0.34375
746,746,1727820759779,-0.9746094,0.0107421875,-0.34179688,1.0625,0.15625,0.15625
747,747,1727820759819,-0.96972656,0.024414062,-0.34277344,0.5625,0.40625,-0.09375
748,748,1727820759859,-0.9814453,0.0126953125,-0.34375,0.9375,0.15625,0.15625
749,749,1727820759899,-0.98046875,0.015625,-0.33203125,0.28125,-0.03125,-0.15625
750,750,1727820759939,-0.9824219,0.0107421875,-0.33789062,0.40625,-0.03125,-0.21875
751,751,1727820759979,-0.9824219,0.015625,-0.34277344,0.40625,-0.21875,-0.28125
752,752,1727820760019,-0.98046875,0.013671875,-0.3466797,0.28125,-0.03125,-0.15625
753,753,1727820760059,-0.98535156,0.0029296875,-0.3330078,0.15625,-0.21875,-0.34375
754,754,1727820760099,-0.9785156,0.0068359375,-0.31835938,-0.34375,-0.40625,-0.46875
755,755,1727820760139,-0.97558594,0.01171875,-0.31933594,-0.09375,-0.46875,-0.46875
756,756,1727820760179,-0.97558594,0.020507812,-0.3466797,-0.71875,-0.03125,-0.5625
757,757,1727820760219,-0.98339844,0.005859375,-0.33984375,-0.15625,-0.46875,-0.5
758,758,1727820760259,-0.9794922,0.0107421875,-0.3486328,-0.65625,-0.65625,-0.75
759,759,1727820760299,-0.9765625,0.0107421875,-0.33496094,-0.84375,-0.53125,-0.8125
