,Unnamed: 0,timestamp,accel_x,accel_y,accel_z,gyro_x,gyro_y,gyro_z
0,0,1727018312941,-0.9951172,0.07714844,0.1171875,-0.65625,0.5625,0.34375
1,1,1727018312981,-1.0,0.076171875,0.103515625,-0.375,0.28125,0.28125
2,2,1727018313021,-1.0039062,0.08105469,0.09667969,-0.3125,0.34375,0.34375
3,3,1727018313061,-0.9980469,0.076171875,0.1171875,-0.25,0.34375,0.28125
4,4,1727018313101,-1.0,0.076171875,0.09082031,-0.0625,0.21875,-0.03125
5,5,1727018313141,-1.0048828,0.0859375,0.109375,0.5,0.09375,-0.09375
6,6,1727018313181,-1.0068359,0.078125,0.10644531,0.375,0.03125,-0.03125
7,7,1727018313221,-0.9980469,0.083984375,0.11621094,0.5625,0.34375,0.09375
8,8,1727018313261,-0.99902344,0.08691406,0.10253906,0.375,0.34375,0.28125
9,9,1727018313301,-0.9980469,0.091796875,0.107421875,0.25,0.15625,0.03125
10,10,1727018313341,-0.99902344,0.08300781,0.115234375,0.3125,-0.03125,0.03125
11,11,1727018313381,-0.9970703,0.080078125,0.10253906,0.125,0.15625,0.28125
12,12,1727018313421,-1.0,0.080078125,0.10644531,0.0,0.15625,0.28125
13,13,1727018313461,-0.99902344,0.09082031,0.09863281,-0.5,0.09375,0.46875
14,14,1727018313501,-1.0029297,0.08691406,0.111328125,-0.53125,-0.21875,0.65625
15,15,1727018313541,-0.99902344,0.087890625,0.09472656,-0.375,-0.28125,0.34375
16,16,1727018313581,-0.98828125,0.087890625,0.11328125,-0.90625,-0.15625,0.34375
17,17,1727018313621,-0.9951172,0.08886719,0.107421875,-0.4375,-0.15625,0.15625
18,18,1727018313661,-1.0087891,0.087890625,0.10058594,-0.53125,-0.28125,0.28125
19,19,1727018313701,-1.0048828,0.08691406,0.111328125,-0.125,-0.15625,0.21875
20,20,1727018313741,-0.99609375,0.09375,0.11621094,0.0625,-0.40625,0.15625
21,21,1727018313781,-0.99902344,0.07714844,0.103515625,-0.4375,-0.09375,0.40625
22,22,1727018313821,-1.0039062,0.08886719,0.10253906,-0.0625,-0.34375,0.21875
23,23,1727018313861,-1.0,0.087890625,0.107421875,-0.0625,-0.53125,-0.03125
24,24,1727018313901,-0.9980469,0.0859375,0.10546875,-0.3125,-0.71875,0.09375
25,25,1727018313941,-0.99121094,0.08105469,0.10839844,0.1875,-0.59375,0.46875
26,26,1727018313981,-1.0097656,0.0859375,0.123046875,-0.1875,-0.46875,0.59375
27,27,1727018314021,-0.9951172,0.09667969,0.103515625,0.0625,-0.59375,0.65625
28,28,1727018314061,-1.0029297,0.091796875,0.11425781,-0.125,-0.59375,0.53125
29,29,1727018314101,-1.0019531,0.07910156,0.103515625,-0.1875,-0.53125,0.40625
30,30,1727018314141,-1.0,0.07910156,0.11035156,0.125,-0.53125,0.28125
31,31,1727018314181,-1.0029297,0.08984375,0.13085938,-0.0625,-0.46875,0.28125
32,32,1727018314221,-0.9980469,0.08300781,0.107421875,-0.0625,-0.15625,-0.03125
33,33,1727018314261,-0.99316406,0.087890625,0.103515625,0.0625,-0.40625,0.21875
34,34,1727018314301,-1.0,0.08691406,0.111328125,0.3125,-0.28125,0.15625
35,35,1727018314341,-1.0029297,0.08691406,0.11328125,0.4375,-0.40625,0.28125
36,36,1727018314381,-0.99902344,0.095703125,0.107421875,0.3125,-0.40625,0.15625
37,37,1727018314421,-0.99121094,0.087890625,0.11035156,-0.4375,-0.34375,0.15625
38,38,1727018314461,-1.0087891,0.08984375,0.10253906,-0.125,-0.40625,-0.09375
39,39,1727018314501,-0.9902344,0.0859375,0.11035156,-0.3125,-0.21875,0.03125
40,40,1727018314541,-1.0009766,0.0859375,0.11230469,-0.0625,-0.15625,0.03125
41,41,1727018314581,-0.9902344,0.08886719,0.11328125,-0.375,-0.15625,0.03125
42,42,1727018314621,-0.99902344,0.09277344,0.12011719,0.0625,-0.15625,-0.15625
43,43,1727018314661,-0.99316406,0.09277344,0.103515625,0.0,-0.21875,-0.15625
44,44,1727018314701,-1.0009766,0.08691406,0.11230469,-0.125,-0.03125,0.09375
45,45,1727018314741,-0.9902344,0.08105469,0.10644531,0.0,0.21875,0.09375
46,46,1727018314781,-1.0039062,0.08691406,0.11035156,-0.0625,0.28125,0.40625
47,47,1727018314821,-1.0009766,0.08984375,0.103515625,-0.125,0.15625,0.09375
48,48,1727018314861,-0.99609375,0.09277344,0.09667969,-0.4375,0.15625,0.34375
49,49,1727018314901,-0.99121094,0.083984375,0.107421875,-0.90625,0.03125,0.46875
50,50,1727018314941,-1.0029297,0.087890625,0.10839844,-0.84375,0.28125,0.59375
51,51,1727018314981,-0.99316406,0.09082031,0.11816406,-1.46875,0.40625,0.59375
52,52,1727018315021,-1.0009766,0.08984375,0.107421875,-1.46875,0.03125,0.28125
53,53,1727018315061,-0.99902344,0.07910156,0.11230469,-1.09375,0.03125,0.21875
54,54,1727018315101,-0.9951172,0.08496094,0.09863281,-0.5,-0.21875,0.21875
55,55,1727018315141,-1.0039062,0.0859375,0.10253906,-0.53125,-0.15625,0.21875
56,56,1727018315181,-0.9970703,0.08203125,0.111328125,-0.3125,-0.09375,0.09375
57,57,1727018315221,-0.9980469,0.08691406,0.1171875,0.125,-0.15625,-0.34375
58,58,1727018315261,-0.9970703,0.08496094,0.09375,0.3125,-0.21875,-0.375
59,59,1727018315301,-0.9980469,0.08496094,0.12011719,0.75,-0.34375,-0.375
60,60,1727018315341,-1.0048828,0.08691406,0.11621094,0.5,-0.21875,-0.21875
61,61,1727018315381,-1.0019531,0.09667969,0.12207031,0.6875,-0.34375,-0.21875
62,62,1727018315421,-0.9980469,0.08886719,0.10058594,0.3125,-0.09375,-0.28125
63,63,1727018315461,-0.9951172,0.0859375,0.10058594,-0.0625,-0.15625,0.03125
64,64,1727018315501,-1.0058594,0.08886719,0.103515625,0.3125,-0.40625,0.09375
65,65,1727018315541,-0.9970703,0.09375,0.10058594,0.0625,-0.28125,-0.21875
66,66,1727018315581,-1.0009766,0.08886719,0.12011719,-0.125,-0.34375,-0.34375
67,67,1727018315621,-1.0009766,0.08691406,0.12109375,0.375,-0.46875,-0.09375
68,68,1727018315661,-0.9941406,0.083984375,0.12011719,0.0625,-0.28125,-0.15625
69,69,1727018315701,-1.0039062,0.08496094,0.103515625,-0.125,-0.03125,-0.21875
70,70,1727018315741,-0.99609375,0.08886719,0.11035156,0.25,-0.15625,-0.09375
71,71,1727018315781,-0.99609375,0.0859375,0.10839844,0.375,-0.15625,-0.28125
72,72,1727018315821,-1.0019531,0.08300781,0.099609375,0.5,-0.34375,-0.28125
73,73,1727018315861,-0.99902344,0.07714844,0.11230469,0.5625,-0.28125,-0.5
74,74,1727018315901,-1.0078125,0.0859375,0.111328125,0.4375,-0.28125,-0.4375
75,75,1727018315941,-0.99316406,0.09375,0.09277344,0.4375,-0.09375,-0.28125
76,76,1727018315981,-1.0009766,0.08984375,0.10253906,0.1875,-0.15625,-0.21875
77,77,1727018316021,-1.0,0.09375,0.10839844,0.25,-0.09375,-0.03125
78,78,1727018316061,-0.9941406,0.091796875,0.115234375,-0.125,0.03125,0.03125
79,79,1727018316101,-1.0,0.08203125,0.107421875,-0.3125,-0.03125,0.09375
80,80,1727018316141,-0.9970703,0.095703125,0.11621094,-0.125,-0.03125,0.09375
81,81,1727018316181,-1.0009766,0.08203125,0.10449219,-0.78125,0.03125,0.34375
82,82,1727018316221,-0.9980469,0.07910156,0.12011719,-0.125,0.09375,0.03125
83,83,1727018316261,-0.99902344,0.08203125,0.11230469,-0.4375,0.03125,0.15625
84,84,1727018316301,-1.0029297,0.087890625,0.10449219,-1.03125,0.03125,0.21875
85,85,1727018316341,-0.99609375,0.0859375,0.10546875,-0.90625,0.15625,0.21875
86,86,1727018316381,-1.0048828,0.08496094,0.10253906,-1.03125,0.28125,0.09375
87,87,1727018316421,-1.0039062,0.08496094,0.10839844,-0.4375,-0.03125,0.09375
88,88,1727018316461,-1.0039062,0.08691406,0.115234375,-0.3125,-0.09375,-0.03125
89,89,1727018316501,-0.9970703,0.080078125,0.10644531,-0.3125,0.15625,0.09375
90,90,1727018316541,-1.0029297,0.09863281,0.10839844,-0.125,0.03125,0.03125
91,91,1727018316581,-1.0117188,0.07519531,0.09765625,-0.65625,-0.03125,0.28125
92,92,1727018316621,-0.9951172,0.083984375,0.103515625,-0.5,0.09375,0.15625
93,93,1727018316661,-1.0009766,0.087890625,0.10449219,-0.1875,-0.21875,0.34375
94,94,1727018316701,-1.0009766,0.083984375,0.111328125,-0.125,0.15625,0.15625
95,95,1727018316741,-1.0097656,0.076171875,0.123046875,-0.96875,-0.46875,0.03125
96,96,1727018316781,-1.0019531,0.095703125,0.11621094,-0.65625,-0.59375,-0.21875
97,97,1727018316821,-0.99902344,0.08203125,0.12109375,-0.96875,-0.28125,0.03125
98,98,1727018316861,-1.0029297,0.08984375,0.12207031,-0.96875,-0.03125,0.09375
99,99,1727018316901,-1.0019531,0.08886719,0.107421875,-0.71875,0.28125,0.40625
100,100,1727018316941,-0.9980469,0.08691406,0.111328125,-0.84375,0.09375,0.40625
101,101,1727018316981,-0.9970703,0.0703125,0.10546875,-0.4375,0.4375,0.15625
102,102,1727018317021,-0.9951172,0.09375,0.11230469,0.8125,-0.15625,-0.03125
103,103,1727018317061,-1.0039062,0.0859375,0.11035156,1.21875,0.03125,-0.09375
104,104,1727018317101,-1.0097656,0.08203125,0.12597656,1.21875,-0.09375,-0.15625
105,105,1727018317141,-1.0058594,0.08496094,0.111328125,1.40625,0.03125,-0.15625
106,106,1727018317181,-1.0029297,0.08496094,0.11621094,0.96875,-0.09375,0.09375
107,107,1727018317221,-0.9980469,0.087890625,0.115234375,0.375,0.03125,0.28125
108,108,1727018317261,-1.0,0.09082031,0.111328125,0.125,-0.09375,0.46875
109,109,1727018317301,-1.0,0.08496094,0.11328125,-0.65625,0.21875,0.78125
110,110,1727018317341,-0.9980469,0.083984375,0.11425781,-0.78125,0.15625,1.0
111,111,1727018317381,-0.9951172,0.08691406,0.11816406,-0.84375,0.21875,1.0
112,112,1727018317421,-0.9970703,0.08105469,0.10546875,-0.375,0.09375,0.71875
113,113,1727018317461,-0.9980469,0.09667969,0.11621094,-0.125,-0.15625,0.40625
114,114,1727018317501,-0.99316406,0.10058594,0.11328125,-0.65625,-0.15625,0.46875
115,115,1727018317541,-0.9941406,0.0859375,0.11328125,-1.1875,0.1875,0.5625
116,116,1727018317581,-0.9970703,0.09082031,0.103515625,-0.9375,0.4375,0.4375
117,117,1727018317621,-0.9980469,0.08105469,0.09765625,-0.46875,0.5,0.34375
118,118,1727018317661,-1.0,0.08691406,0.10839844,-0.09375,0.25,0.09375
119,119,1727018317701,-0.9951172,0.09765625,0.10253906,0.46875,0.0625,0.03125
120,120,1727018317741,-0.99316406,0.095703125,0.10546875,0.09375,0.125,0.09375
121,121,1727018317781,-0.99609375,0.087890625,0.107421875,-0.28125,0.3125,0.21875
122,122,1727018317821,-1.0058594,0.095703125,0.11035156,-0.03125,0.125,0.15625
123,123,1727018317861,-0.9970703,0.087890625,0.09863281,-0.40625,0.0625,-0.09375
124,124,1727018317901,-0.9941406,0.0859375,0.109375,0.03125,0.125,0.15625
125,125,1727018317941,-0.9980469,0.09277344,0.11816406,0.03125,0.125,0.28125
126,126,1727018317981,-0.99121094,0.091796875,0.115234375,-0.28125,0.25,0.28125
127,127,1727018318021,-1.0039062,0.08496094,0.10253906,-0.78125,0.3125,0.34375
128,128,1727018318061,-0.9980469,0.09375,0.08984375,-0.34375,0.3125,0.4375
129,129,1727018318101,-1.0019531,0.08203125,0.10546875,-0.71875,0.375,-0.03125
130,130,1727018318141,-0.9970703,0.091796875,0.09863281,-0.15625,0.375,0.03125
131,131,1727018318181,-1.0039062,0.09667969,0.10546875,0.15625,0.0625,-0.09375
132,132,1727018318221,-1.0029297,0.095703125,0.11621094,0.34375,0.125,-0.21875
133,133,1727018318261,-0.99902344,0.09667969,0.109375,0.34375,-0.09375,-0.15625
134,134,1727018318301,-0.9980469,0.09082031,0.10058594,0.21875,-0.03125,-0.28125
135,135,1727018318341,-1.0048828,0.08300781,0.11035156,0.21875,-0.09375,-0.34375
136,136,1727018318381,-0.99609375,0.08984375,0.08886719,0.09375,-0.15625,-0.15625
137,137,1727018318421,-0.99902344,0.095703125,0.107421875,0.03125,0.0625,-0.21875
138,138,1727018318461,-1.0019531,0.095703125,0.107421875,-0.03125,-0.09375,-0.40625
139,139,1727018318501,-0.99609375,0.08984375,0.10546875,-0.34375,-0.15625,-0.40625
140,140,1727018318541,-0.99609375,0.08691406,0.0859375,-0.53125,-0.28125,-0.15625
141,141,1727018318581,-0.9951172,0.08886719,0.10253906,-0.71875,-0.03125,0.03125
142,142,1727018318621,-1.0039062,0.087890625,0.111328125,-0.65625,-0.09375,-0.34375
143,143,1727018318661,-1.0068359,0.08886719,0.09863281,-0.84375,-0.28125,-0.34375
144,144,1727018318701,-1.0,0.087890625,0.11328125,-0.59375,-0.40625,-0.53125
145,145,1727018318741,-1.0,0.09375,0.107421875,-0.9375,-0.21875,-0.46875
146,146,1727018318781,-1.0048828,0.09277344,0.10839844,-0.875,-0.15625,-0.28125
147,147,1727018318821,-0.9980469,0.078125,0.115234375,-0.875,-0.21875,-0.28125
148,148,1727018318861,-0.9980469,0.09375,0.11328125,-1.0625,-0.15625,-0.28125
149,149,1727018318901,-0.9941406,0.08496094,0.09863281,-0.78125,-0.34375,-0.34375
150,150,1727018318941,-1.0029297,0.08691406,0.10546875,-0.40625,-0.40625,-0.34375
151,151,1727018318981,-0.99609375,0.091796875,0.111328125,-0.28125,-0.34375,-0.53125
152,152,1727018319021,-1.0,0.09375,0.111328125,-0.71875,-0.34375,-0.59375
153,153,1727018319061,-1.0058594,0.091796875,0.10449219,-0.40625,-0.34375,-0.71875
154,154,1727018319101,-0.99609375,0.07910156,0.10449219,-0.53125,-0.34375,-0.59375
155,155,1727018319141,-1.0048828,0.080078125,0.10644531,-0.46875,-0.28125,-0.65625
156,156,1727018319181,-0.99902344,0.083984375,0.119140625,-0.40625,-0.34375,-0.53125
157,157,1727018319221,-0.9980469,0.08203125,0.103515625,-0.34375,-0.03125,-0.34375
158,158,1727018319261,-0.9902344,0.083984375,0.103515625,-0.34375,-0.03125,-0.34375
159,159,1727018319301,-0.99902344,0.08886719,0.11230469,-0.59375,-0.15625,-0.46875
160,160,1727018319341,-1.0029297,0.0859375,0.09667969,-0.71875,-0.28125,-0.15625
161,161,1727018319381,-1.0009766,0.07910156,0.10839844,-0.34375,-0.15625,-0.03125
162,162,1727018319421,-1.0029297,0.083984375,0.099609375,-0.65625,-0.21875,-0.40625
163,163,1727018319461,-1.0019531,0.083984375,0.11816406,-0.34375,-0.21875,-0.71875
164,164,1727018319501,-0.99609375,0.08300781,0.115234375,-0.03125,-0.46875,-0.71875
165,165,1727018319541,-0.9951172,0.078125,0.11230469,-0.21875,-0.09375,-0.59375
166,166,1727018319581,-1.0039062,0.08984375,0.103515625,-0.34375,-0.09375,-0.53125
167,167,1727018319621,-0.9970703,0.08203125,0.115234375,-0.34375,-0.09375,-0.40625
168,168,1727018319661,-1.0058594,0.08496094,0.107421875,-0.71875,0.0625,-0.21875
169,169,1727018319701,-1.0029297,0.08300781,0.10253906,-0.09375,0.0625,-0.15625
170,170,1727018319741,-1.0048828,0.087890625,0.109375,-0.03125,-0.09375,-0.34375
171,171,1727018319781,-1.0029297,0.083984375,0.11425781,-0.21875,-0.09375,-0.46875
172,172,1727018319821,-0.9980469,0.080078125,0.10839844,-0.34375,-0.03125,-0.53125
173,173,1727018319861,-1.0058594,0.07910156,0.11328125,-0.09375,-0.03125,-0.34375
174,174,1727018319901,-0.9941406,0.07910156,0.10839844,-0.09375,0.0,-0.40625
175,175,1727018319941,-0.9970703,0.078125,0.125,-0.15625,0.1875,-0.40625
176,176,1727018319981,-0.99902344,0.08203125,0.11230469,0.03125,0.125,-0.59375
177,177,1727018320021,-1.0,0.083984375,0.11816406,-0.40625,-0.03125,-0.53125
178,178,1727018320061,-1.0039062,0.083984375,0.109375,-1.5,0.125,-0.21875
179,179,1727018320101,-1.0029297,0.076171875,0.11621094,-2.0,0.125,-0.03125
180,180,1727018320141,-0.9980469,0.083984375,0.115234375,-1.75,0.0625,0.21875
181,181,1727018320181,-0.99609375,0.08496094,0.115234375,-1.125,0.1875,0.09375
182,182,1727018320221,-0.9892578,0.07714844,0.11328125,-0.21875,0.25,-0.15625
183,183,1727018320261,-1.0058594,0.07910156,0.10546875,0.15625,0.0,-0.40625
184,184,1727018320301,-0.99902344,0.07910156,0.12011719,0.46875,0.125,-0.53125
185,185,1727018320341,-0.9970703,0.080078125,0.10449219,0.75,0.125,-0.21875
186,186,1727018320381,-1.0058594,0.07421875,0.107421875,0.28125,0.25,-0.09375
187,187,1727018320421,-1.0058594,0.07714844,0.09863281,0.15625,0.3125,-0.09375
188,188,1727018320461,-0.9892578,0.080078125,0.11328125,0.21875,0.4375,-0.15625
189,189,1727018320501,-0.9980469,0.080078125,0.12695312,0.28125,0.625,-0.15625
190,190,1727018320541,-1.0029297,0.080078125,0.103515625,0.5,0.3125,-0.09375
191,191,1727018320581,-1.0029297,0.07714844,0.10644531,0.09375,0.4375,-0.21875
192,192,1727018320621,-1.0058594,0.07421875,0.10644531,-0.28125,0.5625,-0.15625
193,193,1727018320661,-1.0009766,0.07421875,0.10546875,-0.46875,0.4375,-0.09375
194,194,1727018320701,-0.99609375,0.076171875,0.09863281,-0.59375,0.25,-0.03125
195,195,1727018320741,-1.0068359,0.07910156,0.09082031,-0.71875,0.3125,0.03125
196,196,1727018320781,-1.0068359,0.08300781,0.11230469,-0.34375,0.3125,-0.03125
197,197,1727018320821,-0.99609375,0.080078125,0.119140625,-0.03125,0.3125,-0.15625
198,198,1727018320861,-1.0,0.080078125,0.12011719,0.09375,0.375,-0.28125
199,199,1727018320901,-1.0039062,0.08984375,0.1015625,0.21875,0.375,-0.09375
200,200,1727018320941,-1.0068359,0.09082031,0.10253906,0.09375,0.25,-0.15625
201,201,1727018320981,-1.0048828,0.08105469,0.11035156,-0.15625,0.3125,-0.09375
202,202,1727018321021,-0.9980469,0.078125,0.1015625,-0.03125,-0.03125,0.15625
203,203,1727018321061,-1.0029297,0.0859375,0.10839844,-0.40625,0.25,0.28125
204,204,1727018321101,-1.0068359,0.076171875,0.10546875,-0.28125,0.25,-0.21875
205,205,1727018321141,-1.0058594,0.08496094,0.10839844,-0.34375,0.25,-0.09375
206,206,1727018321181,-1.0029297,0.07910156,0.09375,-0.15625,0.0,-0.09375
207,207,1727018321221,-0.99902344,0.087890625,0.09765625,0.15625,0.1875,-0.03125
208,208,1727018321261,-0.98828125,0.0859375,0.10839844,-0.09375,0.25,-0.09375
209,209,1727018321301,-1.0078125,0.08691406,0.10839844,0.21875,0.125,0.09375
210,210,1727018321341,-0.99609375,0.078125,0.09765625,-0.15625,0.3125,0.03125
211,211,1727018321381,-0.9980469,0.08496094,0.10644531,0.09375,0.1875,-0.03125
212,212,1727018321421,-1.0019531,0.07910156,0.11621094,-0.09375,0.375,-0.21875
213,213,1727018321461,-1.0029297,0.08105469,0.10546875,0.28125,0.0,-0.28125
214,214,1727018321501,-1.0029297,0.0859375,0.11035156,0.40625,0.1875,-0.21875
215,215,1727018321541,-0.99316406,0.07910156,0.11621094,0.75,0.25,-0.34375
216,216,1727018321581,-1.0009766,0.080078125,0.111328125,1.0,0.1875,-0.46875
217,217,1727018321621,-1.0029297,0.080078125,0.11425781,0.8125,0.1875,-0.46875
218,218,1727018321661,-1.0,0.078125,0.10839844,1.0625,0.0,-0.59375
219,219,1727018321701,-0.9970703,0.07910156,0.10839844,0.9375,0.0625,-0.46875
220,220,1727018321741,-1.0039062,0.08496094,0.107421875,1.125,0.1875,-0.46875
221,221,1727018321781,-0.99902344,0.0703125,0.095703125,0.875,0.1875,-0.59375
222,222,1727018321821,-0.99902344,0.07910156,0.11230469,0.5,0.3125,-0.46875
223,223,1727018321861,-1.0009766,0.08203125,0.11230469,0.40625,0.0,-0.40625
224,224,1727018321901,-1.0097656,0.083984375,0.1171875,-0.15625,0.125,-0.15625
225,225,1727018321941,-0.99902344,0.078125,0.09667969,-0.15625,0.3125,0.21875
226,226,1727018321981,-0.99316406,0.08203125,0.09863281,-0.28125,0.375,0.03125
227,227,1727018322021,-0.9980469,0.076171875,0.11816406,-0.40625,0.25,-0.15625
228,228,1727018322061,-1.0029297,0.07519531,0.109375,-0.03125,0.125,-0.15625
229,229,1727018322101,-1.0029297,0.087890625,0.1015625,-0.21875,0.4375,-0.09375
230,230,1727018322141,-1.0029297,0.07714844,0.095703125,-0.40625,0.375,-0.03125
231,231,1727018322181,-1.0068359,0.08203125,0.1015625,-0.53125,0.375,0.03125
232,232,1727018322221,-1.0029297,0.080078125,0.08886719,-0.9375,0.375,0.15625
233,233,1727018322261,-0.9951172,0.08203125,0.109375,-0.71875,0.25,0.21875
234,234,1727018322301,-1.0087891,0.07910156,0.09375,-0.28125,0.25,0.03125
235,235,1727018322341,-1.0009766,0.08886719,0.09863281,-0.03125,0.1875,-0.03125
236,236,1727018322381,-1.0009766,0.08300781,0.091796875,-0.15625,0.0,-0.03125
237,237,1727018322421,-0.9980469,0.07421875,0.099609375,-0.28125,0.25,-0.15625
238,238,1727018322461,-1.0029297,0.0859375,0.09863281,-0.28125,0.125,-0.15625
239,239,1727018322501,-1.0,0.080078125,0.099609375,-0.34375,0.25,-0.09375
240,240,1727018322541,-1.0078125,0.068359375,0.10058594,-0.40625,0.0625,-0.03125
241,241,1727018322581,-1.0009766,0.07324219,0.119140625,-0.03125,0.25,-0.03125
242,242,1727018322621,-0.99902344,0.08105469,0.111328125,-0.28125,0.1875,-0.09375
243,243,1727018322661,-1.0,0.08300781,0.103515625,-0.46875,0.125,0.09375
244,244,1727018322701,-1.0019531,0.076171875,0.09863281,-0.53125,0.125,0.15625
245,245,1727018322741,-0.9980469,0.0859375,0.11035156,-0.71875,-0.28125,0.21875
246,246,1727018322781,-0.99609375,0.078125,0.11230469,-0.5,-0.34375,0.40625
247,247,1727018322821,-1.0078125,0.0859375,0.103515625,-0.5,-0.40625,0.28125
248,248,1727018322861,-0.99316406,0.08300781,0.107421875,-0.65625,-0.40625,0.53125
249,249,1727018322901,-1.0009766,0.080078125,0.10253906,-0.90625,-0.34375,0.84375
250,250,1727018322941,-0.9951172,0.083984375,0.099609375,-0.84375,-0.4375,0.34375
251,251,1727018322981,-1.0009766,0.07910156,0.115234375,-0.78125,-0.8125,0.21875
252,252,1727018323021,-1.0019531,0.07128906,0.095703125,-0.65625,-0.6875,0.09375
253,253,1727018323061,-1.0039062,0.078125,0.10839844,-0.375,-0.5,0.46875
254,254,1727018323101,-1.0029297,0.07324219,0.09863281,-0.3125,-0.40625,0.28125
255,255,1727018323141,-0.99902344,0.07714844,0.115234375,-0.375,-0.5625,0.28125
256,256,1727018323181,-1.0009766,0.078125,0.095703125,-0.3125,-0.4375,0.34375
257,257,1727018323221,-0.99902344,0.087890625,0.10253906,-0.5,-0.4375,0.21875
258,258,1727018323261,-1.0009766,0.07714844,0.111328125,-0.5625,-0.625,0.28125
259,259,1727018323301,-0.9980469,0.076171875,0.107421875,-0.375,-0.5,0.34375
260,260,1727018323341,-0.9980469,0.07910156,0.11425781,-0.5625,-0.625,0.21875
261,261,1727018323381,-1.0,0.080078125,0.103515625,-0.5,-0.75,0.15625
262,262,1727018323421,-1.0087891,0.072265625,0.10546875,-0.375,-0.5625,0.15625
263,263,1727018323461,-1.0009766,0.087890625,0.10644531,-0.25,-0.5,0.03125
264,264,1727018323501,-0.99609375,0.08300781,0.095703125,-0.375,-0.75,0.09375
265,265,1727018323541,-1.0039062,0.08203125,0.103515625,-0.4375,-0.75,0.03125
266,266,1727018323581,-0.9941406,0.08203125,0.10839844,-0.65625,-0.6875,0.03125
267,267,1727018323621,-0.99609375,0.07910156,0.11230469,-0.59375,-0.8125,0.03125
268,268,1727018323661,-1.0039062,0.07910156,0.10839844,-0.375,-0.625,0.09375
269,269,1727018323701,-1.0048828,0.07714844,0.125,-0.25,-0.875,-0.09375
270,270,1727018323741,-0.99609375,0.09082031,0.12109375,-0.0625,-1.0,0.15625
271,271,1727018323781,-0.9951172,0.07421875,0.12109375,0.0,-0.6875,0.28125
272,272,1727018323821,-0.9980469,0.08300781,0.11230469,0.25,-0.5,0.03125
273,273,1727018323861,-0.9970703,0.078125,0.10546875,0.0,-0.75,-0.21875
274,274,1727018323901,-0.9941406,0.07519531,0.1015625,0.1875,-0.625,-0.34375
275,275,1727018323941,-0.9941406,0.08300781,0.11425781,0.0625,-0.75,-0.34375
276,276,1727018323981,-1.0058594,0.076171875,0.10546875,-0.125,-0.6875,-0.4375
277,277,1727018324021,-0.9980469,0.08496094,0.11035156,-0.0625,-0.21875,-0.5
278,278,1727018324061,-1.0058594,0.08300781,0.115234375,0.1875,-0.15625,-0.40625
279,279,1727018324101,-1.0009766,0.076171875,0.12011719,0.6875,-0.09375,-0.625
280,280,1727018324141,-1.0019531,0.08300781,0.11816406,0.625,-0.15625,-0.15625
281,281,1727018324181,-0.9921875,0.078125,0.111328125,0.71875,-0.28125,-0.28125
282,282,1727018324221,-0.9980469,0.0859375,0.125,0.125,-0.34375,-0.28125
283,283,1727018324261,-0.9951172,0.087890625,0.12109375,-0.5,-0.28125,-0.21875
284,284,1727018324301,-0.99316406,0.07910156,0.1171875,-0.59375,-0.15625,-0.09375
285,285,1727018324341,-1.0009766,0.080078125,0.10839844,-0.84375,-0.15625,-0.15625
286,286,1727018324381,-1.0009766,0.08203125,0.10839844,-0.71875,-0.09375,-0.15625
287,287,1727018324421,-1.0146484,0.078125,0.11816406,-1.03125,-0.09375,-0.09375
288,288,1727018324461,-1.0039062,0.07910156,0.11328125,-1.21875,-0.21875,-0.15625
289,289,1727018324501,-0.9951172,0.07714844,0.125,-1.28125,-0.03125,-0.21875
290,290,1727018324541,-1.0039062,0.078125,0.111328125,-1.46875,0.03125,0.03125
291,291,1727018324581,-0.9951172,0.08105469,0.10839844,-1.71875,-0.28125,-0.09375
292,292,1727018324621,-1.0048828,0.07519531,0.107421875,-1.9375,-0.34375,0.09375
293,293,1727018324661,-1.0058594,0.07421875,0.115234375,-2.125,-0.34375,0.21875
294,294,1727018324701,-1.0039062,0.07714844,0.10644531,-2.0,-0.40625,-0.03125
295,295,1727018324741,-1.0039062,0.078125,0.10644531,-2.0,-0.28125,-0.34375
296,296,1727018324781,-0.99902344,0.064453125,0.11816406,-1.15625,-0.15625,-0.28125
297,297,1727018324821,-0.99609375,0.06933594,0.10644531,-0.5625,-0.28125,-0.34375
298,298,1727018324861,-1.0039062,0.080078125,0.115234375,-0.0625,-0.21875,-0.34375
299,299,1727018324901,-1.0,0.07910156,0.115234375,0.1875,-0.21875,-0.6875
300,300,1727018324941,-1.0009766,0.07421875,0.111328125,0.375,-0.15625,-0.5
301,301,1727018324981,-0.9951172,0.07324219,0.10253906,0.1875,-0.28125,-0.625
302,302,1727018325021,-1.0029297,0.07421875,0.107421875,0.4375,-0.28125,-0.4375
303,303,1727018325061,-0.9951172,0.08300781,0.12695312,0.125,-0.34375,-0.40625
304,304,1727018325101,-1.0048828,0.07910156,0.11230469,-0.125,-0.28125,-0.5625
305,305,1727018325141,-0.9970703,0.07324219,0.11230469,-0.4375,-0.34375,-0.40625
306,306,1727018325181,-0.99609375,0.08105469,0.10449219,-0.71875,-0.4375,-0.28125
307,307,1727018325221,-0.9970703,0.08300781,0.10839844,-0.90625,-0.40625,-0.34375
308,308,1727018325261,-1.0039062,0.078125,0.111328125,-1.28125,-0.34375,-0.28125
309,309,1727018325301,-1.0009766,0.07421875,0.1171875,-1.09375,-0.28125,-0.15625
310,310,1727018325341,-0.9980469,0.07421875,0.11621094,-0.96875,-0.28125,-0.28125
311,311,1727018325381,-1.0029297,0.06933594,0.107421875,-0.84375,-0.34375,-0.28125
312,312,1727018325421,-1.0078125,0.06542969,0.12011719,-0.59375,-0.4375,-0.34375
313,313,1727018325461,-0.99609375,0.07910156,0.12988281,-0.5625,-0.09375,-0.28125
314,314,1727018325501,-0.9970703,0.072265625,0.12695312,-0.65625,-0.03125,-0.09375
315,315,1727018325541,-0.99609375,0.07128906,0.11230469,-0.3125,-0.03125,-0.03125
316,316,1727018325581,-1.0009766,0.080078125,0.107421875,-0.25,-0.09375,-0.40625
317,317,1727018325621,-1.0019531,0.07519531,0.12109375,-0.3125,-0.40625,-0.625
318,318,1727018325661,-1.0078125,0.076171875,0.13574219,-0.125,-0.28125,-0.34375
319,319,1727018325701,-1.0029297,0.07910156,0.11328125,-0.1875,0.03125,-0.28125
320,320,1727018325741,-0.9970703,0.076171875,0.12011719,-0.59375,-0.09375,-0.09375
321,321,1727018325781,-0.9941406,0.07324219,0.12109375,-0.90625,0.15625,0.15625
322,322,1727018325821,-0.9970703,0.07910156,0.10253906,-0.71875,0.34375,0.03125
323,323,1727018325861,-1.0019531,0.08105469,0.11328125,-0.4375,0.09375,-0.03125
324,324,1727018325901,-0.9951172,0.07421875,0.12011719,-0.3125,0.09375,-0.09375
325,325,1727018325941,-1.0009766,0.078125,0.10253906,-0.375,0.40625,0.03125
326,326,1727018325981,-1.0029297,0.068359375,0.11621094,-0.3125,0.40625,0.03125
327,327,1727018326021,-0.9970703,0.078125,0.12207031,-0.3125,0.15625,0.03125
328,328,1727018326061,-0.99902344,0.07910156,0.11230469,-0.3125,0.03125,-0.09375
329,329,1727018326101,-1.0029297,0.07519531,0.10839844,-0.25,0.21875,-0.09375
330,330,1727018326141,-1.0,0.076171875,0.115234375,-0.1875,0.03125,-0.09375
331,331,1727018326181,-1.0078125,0.07421875,0.12207031,0.0,-0.03125,-0.34375
332,332,1727018326221,-0.9941406,0.07421875,0.11621094,-0.125,-0.03125,-0.28125
333,333,1727018326261,-0.99902344,0.076171875,0.10546875,-0.375,0.03125,-0.15625
334,334,1727018326301,-0.9892578,0.08105469,0.11230469,-0.65625,-0.03125,-0.15625
335,335,1727018326341,-1.0126953,0.08300781,0.091796875,-0.71875,-0.03125,0.21875
336,336,1727018326381,-0.99902344,0.07324219,0.12109375,-0.65625,0.03125,0.28125
337,337,1727018326421,-0.9941406,0.08886719,0.11816406,-0.375,0.09375,0.03125
338,338,1727018326461,-0.9980469,0.07519531,0.1015625,-0.5,-0.21875,0.21875
339,339,1727018326501,-1.0,0.07714844,0.12695312,-0.96875,-0.21875,0.15625
340,340,1727018326541,-1.0,0.07421875,0.11621094,-1.15625,0.15625,0.21875
341,341,1727018326581,-1.0039062,0.07910156,0.10449219,-1.34375,0.09375,0.15625
342,342,1727018326621,-0.99316406,0.072265625,0.11328125,-1.21875,-0.21875,0.03125
343,343,1727018326661,-1.0009766,0.07421875,0.115234375,-0.65625,-0.03125,-0.09375
344,344,1727018326701,-0.99902344,0.08203125,0.103515625,-0.5625,-0.03125,-0.03125
345,345,1727018326741,-1.0048828,0.068359375,0.1171875,-0.3125,-0.15625,-0.15625
346,346,1727018326781,-1.0078125,0.087890625,0.11621094,-0.375,-0.09375,-0.15625
347,347,1727018326821,-0.9941406,0.064453125,0.10546875,-0.3125,-0.09375,-0.21875
348,348,1727018326861,-1.0048828,0.07714844,0.11621094,-0.3125,0.09375,-0.15625
349,349,1727018326901,-0.99316406,0.07324219,0.1171875,-0.3125,0.21875,-0.03125
350,350,1727018326941,-1.0039062,0.07128906,0.11035156,-0.1875,-0.09375,-0.28125
351,351,1727018326981,-0.99902344,0.078125,0.11328125,-0.3125,0.15625,-0.21875
352,352,1727018327021,-0.99902344,0.08300781,0.10058594,-0.25,0.03125,-0.21875
353,353,1727018327061,-0.99609375,0.08496094,0.103515625,-0.3125,0.15625,-0.15625
354,354,1727018327101,-1.0048828,0.078125,0.10644531,-0.3125,0.15625,-0.15625
355,355,1727018327141,-0.9941406,0.07324219,0.11328125,-0.3125,-0.09375,-0.15625
356,356,1727018327181,-1.0,0.07421875,0.103515625,-0.3125,-0.09375,-0.03125
357,357,1727018327221,-1.0029297,0.07324219,0.123046875,-0.375,0.03125,-0.09375
358,358,1727018327261,-0.99121094,0.08105469,0.10839844,-0.3125,-0.09375,0.03125
359,359,1727018327301,-0.99316406,0.07421875,0.11328125,-0.59375,0.09375,0.21875
360,360,1727018327341,-1.0,0.076171875,0.10644531,-0.3125,0.15625,-0.03125
361,361,1727018327381,-1.0,0.07519531,0.109375,-0.1875,0.03125,-0.09375
362,362,1727018327421,-0.9921875,0.076171875,0.1171875,0.0625,-0.03125,-0.28125
363,363,1727018327461,-0.9951172,0.083984375,0.10058594,0.0,0.03125,-0.40625
364,364,1727018327501,-1.0039062,0.078125,0.107421875,-0.25,-0.03125,-0.21875
365,365,1727018327541,-1.0009766,0.07421875,0.115234375,-0.5625,0.03125,-0.03125
366,366,1727018327581,-0.99609375,0.08300781,0.099609375,-0.65625,0.03125,-0.15625
367,367,1727018327621,-1.0039062,0.07324219,0.10253906,-0.3125,0.03125,-0.09375
368,368,1727018327661,-1.0029297,0.07519531,0.103515625,-0.375,0.15625,-0.09375
369,369,1727018327701,-1.0068359,0.07714844,0.10058594,-0.375,0.09375,0.03125
370,370,1727018327741,-1.0048828,0.08203125,0.10546875,-0.5,-0.03125,-0.09375
371,371,1727018327781,-1.0039062,0.08105469,0.11035156,-0.4375,-0.15625,-0.09375
372,372,1727018327821,-0.9970703,0.078125,0.10253906,-0.5,-0.09375,-0.09375
373,373,1727018327861,-0.9951172,0.07714844,0.087890625,-0.59375,0.15625,0.09375
374,374,1727018327901,-1.0009766,0.091796875,0.11816406,-0.3125,0.15625,0.15625
375,375,1727018327941,-0.98828125,0.07128906,0.09277344,-0.5,0.03125,-0.03125
376,376,1727018327981,-1.0009766,0.07910156,0.10839844,-0.25,0.09375,0.15625
377,377,1727018328021,-1.0029297,0.07519531,0.10839844,-0.3125,0.03125,-0.15625
378,378,1727018328061,-1.0097656,0.072265625,0.10058594,-0.1875,0.15625,-0.03125
379,379,1727018328101,-1.0078125,0.078125,0.11230469,-0.125,0.03125,-0.03125
380,380,1727018328141,-0.9941406,0.0859375,0.10839844,-0.0625,-0.03125,-0.09375
381,381,1727018328181,-1.0,0.078125,0.09375,-0.125,0.03125,-0.03125
382,382,1727018328221,-0.9980469,0.07519531,0.10546875,-0.375,0.09375,0.21875
383,383,1727018328261,-0.9980469,0.07519531,0.095703125,-0.1875,0.21875,0.15625
384,384,1727018328301,-1.0,0.08691406,0.09863281,-0.1875,-0.15625,-0.09375
385,385,1727018328341,-1.0058594,0.083984375,0.109375,-0.125,-0.03125,-0.21875
386,386,1727018328381,-1.0029297,0.08984375,0.09277344,-0.3125,-0.09375,-0.03125
387,387,1727018328421,-0.99902344,0.08105469,0.095703125,-0.96875,-0.09375,-0.03125
388,388,1727018328461,-0.99609375,0.08300781,0.111328125,-1.03125,-0.03125,0.15625
389,389,1727018328501,-1.0,0.08496094,0.10644531,-1.15625,0.15625,0.03125
390,390,1727018328541,-1.0009766,0.078125,0.10058594,-0.65625,0.03125,0.15625
391,391,1727018328581,-0.99902344,0.08984375,0.103515625,-0.5,-0.09375,0.09375
392,392,1727018328621,-1.0048828,0.08496094,0.10253906,-0.375,-0.09375,0.03125
393,393,1727018328661,-1.0029297,0.07519531,0.107421875,-0.3125,-0.09375,-0.09375
394,394,1727018328701,-1.0029297,0.0859375,0.09667969,-0.1875,0.03125,-0.03125
395,395,1727018328741,-0.9980469,0.07910156,0.10839844,-0.3125,-0.34375,0.03125
396,396,1727018328781,-1.0029297,0.078125,0.09667969,-0.3125,-0.15625,-0.03125
397,397,1727018328821,-1.0009766,0.08496094,0.10546875,-0.3125,-0.15625,-0.03125
398,398,1727018328861,-1.0,0.0859375,0.10253906,-0.5625,-0.15625,0.15625
399,399,1727018328901,-0.99609375,0.076171875,0.10839844,-0.84375,-0.21875,0.15625
400,400,1727018328941,-1.0,0.08300781,0.08300781,-0.96875,0.09375,-0.03125
401,401,1727018328981,-1.0,0.083984375,0.10253906,-0.84375,-0.21875,0.03125
402,402,1727018329021,-0.9970703,0.083984375,0.10644531,-0.5,-0.15625,-0.09375
403,403,1727018329061,-0.9941406,0.07519531,0.107421875,-0.65625,-0.28125,-0.03125
404,404,1727018329101,-0.99609375,0.07714844,0.09472656,-0.4375,-0.09375,-0.03125
405,405,1727018329141,-1.0039062,0.080078125,0.09863281,-0.4375,-0.40625,0.09375
406,406,1727018329181,-0.99609375,0.08496094,0.109375,-0.5,-0.15625,0.09375
407,407,1727018329221,-1.0019531,0.07714844,0.10839844,-0.1875,-0.09375,-0.09375
408,408,1727018329261,-1.0029297,0.0859375,0.11328125,-0.3125,-0.28125,-0.34375
409,409,1727018329301,-0.99902344,0.08496094,0.10253906,-0.0625,-0.15625,-0.5
410,410,1727018329341,-0.99316406,0.08300781,0.09667969,0.0,-0.28125,-0.15625
411,411,1727018329381,-0.9980469,0.08886719,0.10839844,-0.5625,-0.28125,-0.34375
412,412,1727018329421,-1.0048828,0.083984375,0.10546875,-0.375,-0.28125,-0.09375
413,413,1727018329461,-0.9970703,0.08203125,0.11035156,-0.5,-0.09375,-0.15625
414,414,1727018329501,-1.0,0.0859375,0.107421875,-0.3125,-0.15625,-0.03125
415,415,1727018329541,-1.0048828,0.076171875,0.111328125,-0.65625,-0.34375,-0.15625
416,416,1727018329581,-1.0029297,0.07714844,0.09277344,-0.78125,-0.34375,-0.21875
417,417,1727018329621,-1.0039062,0.080078125,0.107421875,-0.71875,-0.21875,-0.15625
418,418,1727018329661,-1.0039062,0.08203125,0.10253906,-0.3125,-0.21875,-0.34375
419,419,1727018329701,-0.9970703,0.08300781,0.09765625,-0.1875,-0.15625,-0.28125
420,420,1727018329741,-1.0009766,0.08203125,0.107421875,-0.3125,-0.21875,-0.34375
421,421,1727018329781,-1.0078125,0.07714844,0.10449219,-0.5625,-0.15625,-0.34375
422,422,1727018329821,-1.0029297,0.08300781,0.1015625,-0.59375,-0.15625,-0.15625
423,423,1727018329861,-0.99609375,0.08203125,0.103515625,-0.71875,-0.15625,-0.09375
424,424,1727018329901,-0.99902344,0.078125,0.1015625,-0.71875,-0.09375,-0.09375
425,425,1727018329941,-0.99609375,0.08203125,0.09765625,-0.5,-0.40625,0.03125
426,426,1727018329981,-1.0,0.08496094,0.10839844,-0.5625,-0.40625,-0.03125
427,427,1727018330021,-0.99902344,0.083984375,0.10644531,-0.71875,-0.40625,0.03125
428,428,1727018330061,-1.0058594,0.08496094,0.1015625,-0.5,-0.28125,-0.21875
429,429,1727018330101,-0.99902344,0.07421875,0.09375,-0.59375,-0.15625,-0.34375
430,430,1727018330141,-0.9921875,0.076171875,0.099609375,-0.4375,-0.09375,0.21875
431,431,1727018330181,-0.99121094,0.083984375,0.103515625,-0.375,-0.03125,-0.28125
432,432,1727018330221,-0.99902344,0.076171875,0.10449219,-0.25,-0.28125,-0.40625
433,433,1727018330261,-1.0019531,0.07519531,0.10644531,0.5,-0.21875,-0.5
434,434,1727018330301,-1.0029297,0.08300781,0.103515625,-0.3125,-0.15625,-0.21875
435,435,1727018330341,-0.9980469,0.08203125,0.1015625,-0.65625,-0.21875,-0.28125
436,436,1727018330381,-0.99121094,0.083984375,0.11035156,-1.21875,-0.03125,0.03125
437,437,1727018330421,-0.99316406,0.083984375,0.10253906,-1.34375,0.03125,-0.09375
438,438,1727018330461,-1.0,0.07128906,0.10644531,-1.53125,0.03125,-0.15625
439,439,1727018330501,-0.9970703,0.083984375,0.11328125,-0.96875,-0.09375,-0.09375
440,440,1727018330541,-1.0019531,0.07519531,0.11230469,-0.90625,-0.09375,-0.34375
441,441,1727018330581,-1.0,0.076171875,0.10644531,-1.03125,-0.09375,-0.21875
442,442,1727018330621,-1.0009766,0.07324219,0.091796875,-0.5625,-0.09375,-0.40625
443,443,1727018330661,-1.0058594,0.07128906,0.10253906,-0.3125,-0.21875,-0.21875
444,444,1727018330701,-0.9941406,0.07910156,0.10546875,-0.25,-0.15625,-0.40625
445,445,1727018330741,-1.0009766,0.07714844,0.1015625,-0.1875,-0.28125,-0.34375
446,446,1727018330781,-0.9970703,0.07128906,0.091796875,-0.3125,-0.03125,-0.21875
447,447,1727018330821,-0.9980469,0.06542969,0.10058594,-0.0625,-0.15625,-0.4375
448,448,1727018330861,-1.0029297,0.08300781,0.103515625,-0.125,-0.34375,-0.21875
449,449,1727018330901,-1.0029297,0.080078125,0.11035156,-0.3125,-0.15625,-0.40625
450,450,1727018330941,-0.99609375,0.08105469,0.10839844,-0.5,-0.40625,-0.40625
451,451,1727018330981,-0.99902344,0.08300781,0.10546875,-0.71875,-0.4375,-0.09375
452,452,1727018331021,-1.0009766,0.07128906,0.10253906,-0.96875,-0.4375,0.15625
453,453,1727018331061,-0.9892578,0.076171875,0.10253906,-0.90625,-0.28125,0.09375
454,454,1727018331101,-1.0058594,0.08300781,0.11816406,-1.03125,-0.4375,-0.28125
455,455,1727018331141,-0.9970703,0.072265625,0.11035156,-0.71875,-0.625,-0.4375
456,456,1727018331181,-0.99316406,0.080078125,0.09277344,-0.3125,-0.5625,-0.4375
457,457,1727018331221,-1.0078125,0.07910156,0.09863281,-0.4375,-0.4375,-0.34375
458,458,1727018331261,-1.0,0.080078125,0.11621094,-0.65625,-0.4375,-0.21875
459,459,1727018331301,-0.99902344,0.07714844,0.109375,-0.71875,-0.4375,-0.28125
460,460,1727018331341,-0.99902344,0.087890625,0.109375,-0.84375,-0.34375,-0.09375
461,461,1727018331381,-1.0097656,0.06933594,0.12109375,-0.65625,-0.4375,-0.15625
462,462,1727018331421,-0.9970703,0.072265625,0.111328125,-0.5625,-0.40625,-0.34375
463,463,1727018331461,-1.0,0.06933594,0.11035156,-0.0625,-0.28125,-0.21875
464,464,1727018331501,-0.9980469,0.080078125,0.1171875,-0.3125,-0.5625,-0.28125
465,465,1727018331541,-1.0058594,0.07714844,0.10058594,-0.25,-0.4375,-0.40625
466,466,1727018331581,-0.9970703,0.076171875,0.111328125,-0.1875,-0.21875,-0.34375
467,467,1727018331621,-1.0087891,0.072265625,0.10253906,-0.375,-0.4375,-0.28125
468,468,1727018331661,-1.0,0.08105469,0.11230469,-0.5,-0.40625,-0.40625
469,469,1727018331701,-0.9970703,0.08203125,0.1171875,-0.375,-0.5,-0.4375
470,470,1727018331741,-1.0029297,0.083984375,0.11328125,-0.5,-0.4375,-0.34375
471,471,1727018331781,-1.0,0.08203125,0.10058594,-0.65625,-0.40625,-0.34375
472,472,1727018331821,-1.0078125,0.078125,0.12207031,-0.65625,-0.40625,-0.28125
473,473,1727018331861,-1.0,0.080078125,0.11035156,-0.59375,-0.34375,-0.15625
474,474,1727018331901,-1.0058594,0.07714844,0.115234375,-1.03125,-0.28125,-0.15625
475,475,1727018331941,-1.0,0.07324219,0.10546875,-0.78125,-0.28125,0.15625
476,476,1727018331981,-1.0078125,0.078125,0.10546875,-0.65625,-0.28125,-0.21875
477,477,1727018332021,-1.0,0.07128906,0.107421875,-0.5625,-0.15625,-0.28125
478,478,1727018332061,-1.0,0.076171875,0.11328125,0.125,-0.21875,-0.34375
479,479,1727018332101,-0.9921875,0.07714844,0.111328125,0.4375,-0.21875,-0.34375
480,480,1727018332141,-0.9921875,0.076171875,0.111328125,0.375,-0.21875,-0.34375
481,481,1727018332181,-1.0078125,0.07910156,0.11328125,0.0625,-0.4375,-0.40625
482,482,1727018332221,-1.0029297,0.0703125,0.13183594,-0.0625,0.34375,-0.5
483,483,1727018332261,-1.0009766,0.07519531,0.11816406,0.4375,0.34375,-0.34375
484,484,1727018332301,-1.0126953,0.06640625,0.115234375,0.78125,-0.15625,-0.5625
485,485,1727018332341,-1.0029297,0.064453125,0.12109375,1.03125,-0.15625,-0.5625
486,486,1727018332381,-0.9980469,0.080078125,0.10253906,1.15625,-0.03125,-0.4375
487,487,1727018332421,-0.9951172,0.07128906,0.111328125,0.6875,-0.15625,-0.40625
488,488,1727018332461,-1.0068359,0.07128906,0.103515625,0.0,-0.28125,-0.15625
489,489,1727018332501,-0.9970703,0.08300781,0.109375,-0.25,-0.4375,0.03125
490,490,1727018332541,-0.99609375,0.0625,0.11230469,-0.59375,-0.34375,0.09375
491,491,1727018332581,-1.0019531,0.07519531,0.12011719,-0.59375,-0.4375,-0.03125
492,492,1727018332621,-0.99902344,0.08496094,0.11328125,-0.65625,-0.40625,-0.09375
493,493,1727018332661,-0.99609375,0.07910156,0.1171875,-0.90625,-0.21875,0.03125
494,494,1727018332701,-1.0068359,0.07714844,0.11621094,-0.96875,-0.15625,0.15625
495,495,1727018332741,-1.0039062,0.080078125,0.11230469,-1.09375,-0.09375,0.09375
496,496,1727018332781,-1.0009766,0.076171875,0.11230469,-0.96875,-0.21875,0.03125
497,497,1727018332821,-1.0029297,0.07519531,0.11035156,-0.5625,-0.34375,0.15625
498,498,1727018332861,-0.9970703,0.06347656,0.10644531,-0.4375,-0.15625,-0.03125
499,499,1727018332901,-1.0117188,0.06640625,0.125,-0.125,-0.03125,-0.21875
500,500,1727018332941,-0.9970703,0.07128906,0.10058594,0.375,-0.28125,-0.34375
501,501,1727018332981,-1.0,0.07714844,0.11621094,0.5,-0.21875,-0.4375
502,502,1727018333021,-1.0,0.076171875,0.09863281,0.4375,-0.21875,-0.28125
503,503,1727018333061,-1.0039062,0.068359375,0.125,0.0,-0.21875,-0.34375
504,504,1727018333101,-0.9951172,0.07910156,0.10644531,-0.375,-0.34375,-0.28125
505,505,1727018333141,-1.0009766,0.06640625,0.11328125,-0.5,-0.28125,-0.21875
506,506,1727018333181,-1.0039062,0.076171875,0.10449219,-0.375,-0.5,-0.03125
507,507,1727018333221,-1.0029297,0.07421875,0.125,-0.375,-0.40625,-0.28125
508,508,1727018333261,-0.99902344,0.076171875,0.1015625,-0.5625,-0.40625,-0.09375
509,509,1727018333301,-0.9980469,0.08105469,0.125,-0.71875,-0.21875,-0.03125
510,510,1727018333341,-0.9941406,0.078125,0.11230469,-1.03125,-0.21875,0.03125
511,511,1727018333381,-1.0078125,0.06933594,0.10058594,-0.84375,-0.21875,-0.09375
512,512,1727018333421,-0.9970703,0.07421875,0.10839844,-0.84375,-0.34375,-0.21875
513,513,1727018333461,-1.0009766,0.072265625,0.12109375,-0.5625,-0.34375,-0.15625
514,514,1727018333501,-1.0029297,0.06738281,0.111328125,-0.125,-0.15625,-0.21875
515,515,1727018333541,-1.0039062,0.072265625,0.12207031,0.125,-0.28125,-0.34375
516,516,1727018333581,-1.0009766,0.07421875,0.1171875,-0.1875,-0.28125,-0.34375
517,517,1727018333621,-0.99609375,0.0859375,0.111328125,-0.3125,-0.15625,-0.40625
518,518,1727018333661,-1.0039062,0.07519531,0.1015625,-0.3125,-0.09375,-0.21875
519,519,1727018333701,-0.9970703,0.06640625,0.11230469,-0.3125,-0.28125,-0.28125
520,520,1727018333741,-1.0009766,0.08203125,0.1171875,-0.1875,-0.40625,0.03125
521,521,1727018333781,-0.99121094,0.07421875,0.11328125,-0.4375,-0.15625,0.03125
522,522,1727018333821,-0.9970703,0.07128906,0.11328125,-0.375,-0.40625,-0.28125
523,523,1727018333861,-0.99609375,0.06738281,0.111328125,-0.25,-0.4375,-0.34375
524,524,1727018333901,-1.0048828,0.07714844,0.111328125,-0.375,-0.4375,-0.34375
525,525,1727018333941,-0.9951172,0.078125,0.11621094,-0.1875,-0.40625,-0.21875
526,526,1727018333981,-1.0,0.076171875,0.119140625,-0.375,-0.4375,-0.15625
527,527,1727018334021,-0.99902344,0.080078125,0.12109375,-0.25,-0.15625,-0.03125
528,528,1727018334061,-1.0009766,0.07128906,0.1171875,-0.25,0.15625,-0.03125
529,529,1727018334101,-1.0,0.06933594,0.12988281,-0.3125,0.09375,-0.03125
530,530,1727018334141,-1.0009766,0.078125,0.10839844,0.1875,-0.09375,0.03125
531,531,1727018334181,-1.0019531,0.07714844,0.107421875,-0.125,-0.09375,-0.15625
532,532,1727018334221,-1.0009766,0.06933594,0.11230469,-0.375,-0.09375,-0.28125
533,533,1727018334261,-1.0019531,0.078125,0.11035156,-0.375,-0.03125,-0.03125
534,534,1727018334301,-1.0009766,0.0703125,0.11425781,-0.25,-0.03125,-0.09375
535,535,1727018334341,-0.9970703,0.0703125,0.09667969,-0.375,-0.03125,-0.09375
536,536,1727018334381,-0.99609375,0.07714844,0.12109375,-0.3125,-0.09375,-0.15625
537,537,1727018334421,-0.9941406,0.076171875,0.12207031,0.15625,0.21875,-0.125
538,538,1727018334461,-1.0058594,0.072265625,0.115234375,0.03125,0.09375,0.125
539,539,1727018334501,-0.9980469,0.06933594,0.10644531,0.03125,0.09375,0.0625
540,540,1727018334541,-1.0048828,0.07421875,0.09863281,0.03125,0.0,0.0625
541,541,1727018334581,-1.0029297,0.07421875,0.099609375,0.03125,0.15625,0.125
542,542,1727018334621,-0.9892578,0.080078125,0.10546875,0.09375,0.0625,0.0625
543,543,1727018334661,-1.0058594,0.076171875,0.11621094,0.40625,0.0625,0.21875
544,544,1727018334701,-0.9921875,0.06933594,0.11328125,0.5,0.09375,0.53125
545,545,1727018334741,-1.0009766,0.07519531,0.10644531,0.46875,0.15625,0.28125
546,546,1727018334781,-1.0068359,0.07324219,0.11621094,0.28125,0.09375,0.28125
547,547,1727018334821,-0.99316406,0.06738281,0.115234375,0.28125,0.0,0.21875
548,548,1727018334861,-0.9980469,0.06640625,0.10253906,0.28125,0.0,0.21875
549,549,1727018334901,-0.99609375,0.07324219,0.11230469,0.21875,0.0625,0.34375
550,550,1727018334941,-0.9951172,0.08105469,0.12207031,0.03125,0.0625,0.34375
551,551,1727018334981,-0.9951172,0.08203125,0.11621094,-0.28125,0.0,0.28125
552,552,1727018335021,-1.0048828,0.07519531,0.10058594,-0.28125,0.09375,0.40625
553,553,1727018335061,-0.99902344,0.083984375,0.10546875,-0.15625,0.09375,0.53125
554,554,1727018335101,-1.0029297,0.06738281,0.09863281,-0.15625,0.0,0.34375
555,555,1727018335141,-1.0068359,0.083984375,0.107421875,-0.15625,-0.0625,0.21875
556,556,1727018335181,-1.0039062,0.078125,0.11230469,0.03125,-0.125,0.15625
557,557,1727018335221,-1.0,0.078125,0.11230469,-0.03125,-0.0625,0.0
558,558,1727018335261,-1.0039062,0.07324219,0.10839844,0.09375,-0.125,0.0625
559,559,1727018335301,-0.9970703,0.076171875,0.10058594,0.09375,-0.0625,0.15625
560,560,1727018335341,-1.0058594,0.07421875,0.11035156,0.21875,0.0625,0.15625
561,561,1727018335381,-0.9951172,0.07519531,0.107421875,0.09375,0.09375,0.0625
562,562,1727018335421,-1.0009766,0.076171875,0.10546875,0.28125,-0.0625,0.125
563,563,1727018335461,-1.0058594,0.078125,0.107421875,-0.03125,-0.0625,0.125
564,564,1727018335501,-0.9970703,0.078125,0.10644531,-0.21875,-0.125,0.0625
565,565,1727018335541,-0.9970703,0.07324219,0.11035156,-0.09375,-0.1875,0.0
566,566,1727018335581,-1.0019531,0.07519531,0.10839844,-0.21875,-0.375,0.28125
567,567,1727018335621,-0.9951172,0.08300781,0.11621094,-0.34375,-0.125,0.21875
568,568,1727018335661,-0.99902344,0.08496094,0.11425781,-0.28125,0.15625,0.21875
569,569,1727018335701,-0.99902344,0.07324219,0.09375,-0.15625,0.0,-0.0625
570,570,1727018335741,-1.0009766,0.06640625,0.10839844,0.15625,-0.0625,-0.25
571,571,1727018335781,-0.9892578,0.076171875,0.10546875,0.28125,-0.0625,-0.1875
572,572,1727018335821,-1.0058594,0.076171875,0.115234375,0.15625,0.09375,0.0
573,573,1727018335861,-0.9980469,0.07714844,0.09375,-0.09375,0.0,0.15625
574,574,1727018335901,-0.99902344,0.07714844,0.099609375,-0.15625,0.15625,0.125
575,575,1727018335941,-0.9980469,0.07324219,0.09863281,-0.03125,0.0625,0.125
576,576,1727018335981,-1.0039062,0.076171875,0.09765625,0.09375,0.09375,0.0625
577,577,1727018336021,-1.0,0.072265625,0.10839844,0.09375,0.0625,0.0625
578,578,1727018336061,-1.0009766,0.07324219,0.111328125,-0.21875,0.0625,0.0625
579,579,1727018336101,-1.0078125,0.08203125,0.1015625,-0.28125,-0.125,-0.0625
580,580,1727018336141,-1.0009766,0.078125,0.10644531,-0.15625,-0.25,0.0
581,581,1727018336181,-1.0009766,0.072265625,0.12011719,-0.03125,-0.0625,-0.3125
582,582,1727018336221,-1.0039062,0.07714844,0.111328125,-0.21875,-0.375,-0.125
583,583,1727018336261,-0.9980469,0.083984375,0.10644531,-0.34375,-0.1875,-0.0625
584,584,1727018336301,-0.99609375,0.08203125,0.12402344,-0.40625,-0.1875,-0.1875
585,585,1727018336341,-0.99902344,0.07910156,0.12011719,-0.15625,-0.125,-0.125
586,586,1727018336381,-0.9980469,0.072265625,0.1171875,-0.15625,-0.125,0.0
587,587,1727018336421,-1.0068359,0.06738281,0.115234375,-0.09375,-0.25,-0.1875
588,588,1727018336461,-0.99609375,0.072265625,0.10644531,0.09375,0.0,-0.25
589,589,1727018336501,-1.0029297,0.068359375,0.125,-0.15625,-0.3125,0.0
590,590,1727018336541,-0.9951172,0.0703125,0.09863281,-0.09375,-0.1875,0.0
591,591,1727018336581,-1.0009766,0.076171875,0.119140625,-0.03125,-0.0625,-0.1875
592,592,1727018336621,-1.0039062,0.07128906,0.123046875,0.03125,-0.25,-0.25
593,593,1727018336661,-0.9980469,0.064453125,0.11035156,0.21875,-0.0625,-0.4375
594,594,1727018336701,-1.0039062,0.08203125,0.12011719,0.40625,0.0,-0.3125
595,595,1727018336741,-1.0009766,0.06933594,0.12109375,0.28125,-0.125,-0.125
596,596,1727018336781,-1.0087891,0.07421875,0.103515625,-0.09375,-0.0625,-0.1875
597,597,1727018336821,-0.9951172,0.07519531,0.12109375,-0.09375,-0.1875,-0.125
598,598,1727018336861,-0.9970703,0.07421875,0.11621094,-0.03125,-0.1875,0.0
599,599,1727018336901,-1.0058594,0.076171875,0.10644531,-0.15625,-0.3125,-0.1875
600,600,1727018336941,-1.0019531,0.07128906,0.11816406,-0.15625,-0.125,-0.0625
601,601,1727018336981,-1.0058594,0.07714844,0.11035156,-0.15625,-0.3125,-0.1875
602,602,1727018337021,-0.99902344,0.072265625,0.12597656,-0.15625,-0.1875,0.0
603,603,1727018337061,-0.9980469,0.076171875,0.11621094,-0.15625,0.0,0.0625
604,604,1727018337101,-0.99609375,0.06347656,0.111328125,-0.28125,-0.0625,-0.125
605,605,1727018337141,-0.99902344,0.068359375,0.12011719,-0.21875,-0.25,0.0
606,606,1727018337181,-1.0058594,0.072265625,0.1171875,0.09375,-0.0625,-0.125
607,607,1727018337221,-1.0136719,0.057617188,0.10839844,0.15625,0.15625,-0.125
608,608,1727018337261,-0.9970703,0.076171875,0.11035156,0.21875,0.15625,0.0
609,609,1727018337301,-0.9980469,0.07324219,0.11035156,-0.03125,0.09375,0.125
610,610,1727018337341,-0.99902344,0.07421875,0.111328125,-0.09375,-0.0625,0.0
611,611,1727018337381,-1.0058594,0.076171875,0.13964844,-0.09375,0.0625,0.0625
612,612,1727018337421,-1.0009766,0.068359375,0.12109375,-0.15625,0.09375,0.28125
613,613,1727018337461,-1.0,0.0625,0.12109375,-0.03125,0.15625,0.34375
614,614,1727018337501,-1.0087891,0.076171875,0.1171875,0.15625,0.15625,0.0
615,615,1727018337541,-0.9970703,0.07324219,0.12011719,0.28125,0.09375,-0.0625
616,616,1727018337581,-0.99609375,0.08203125,0.09082031,0.625,0.21875,0.0625
617,617,1727018337621,-0.9951172,0.06542969,0.11621094,0.6875,0.28125,0.21875
618,618,1727018337661,-1.0068359,0.07421875,0.11035156,0.46875,0.34375,0.15625
619,619,1727018337701,-0.99316406,0.07128906,0.11425781,0.15625,0.21875,0.15625
620,620,1727018337741,-0.9951172,0.07519531,0.123046875,0.09375,0.28125,-0.0625
621,621,1727018337781,-1.0029297,0.080078125,0.107421875,0.09375,0.34375,0.125
622,622,1727018337821,-0.99902344,0.08203125,0.09667969,0.03125,0.09375,0.21875
623,623,1727018337861,-1.0087891,0.07421875,0.11230469,-0.28125,0.0,0.0
624,624,1727018337901,-0.9951172,0.07910156,0.11035156,-0.40625,0.21875,0.125
625,625,1727018337941,-0.9951172,0.06738281,0.11230469,-0.28125,0.15625,0.15625
626,626,1727018337981,-0.9970703,0.06933594,0.10644531,-0.21875,0.15625,0.0625
627,627,1727018338021,-0.9970703,0.076171875,0.11816406,-0.03125,0.0625,0.0
628,628,1727018338061,-1.0097656,0.07421875,0.123046875,-0.15625,0.0625,-0.1875
629,629,1727018338101,-1.0029297,0.07714844,0.1015625,-0.03125,0.0625,-0.125
630,630,1727018338141,-0.99902344,0.07324219,0.107421875,0.09375,0.0625,0.0625
631,631,1727018338181,-1.0029297,0.072265625,0.09765625,0.34375,0.21875,-0.0625
632,632,1727018338221,-0.9892578,0.07519531,0.09082031,0.28125,0.0625,0.0
633,633,1727018338261,-0.9970703,0.07519531,0.10253906,0.28125,0.0625,-0.0625
634,634,1727018338301,-1.0019531,0.072265625,0.11816406,0.21875,-0.0625,0.125
635,635,1727018338341,-1.0029297,0.07128906,0.115234375,0.25,-0.125,0.0
636,636,1727018338381,-0.9951172,0.080078125,0.107421875,0.0,0.09375,0.1875
637,637,1727018338421,-0.9970703,0.07324219,0.109375,-0.375,-0.125,-0.0625
638,638,1727018338461,-0.99316406,0.078125,0.10058594,-0.53125,-0.25,-0.1875
639,639,1727018338501,-0.9941406,0.07128906,0.10839844,-0.3125,-0.0625,-0.1875
640,640,1727018338541,-0.9970703,0.07324219,0.10253906,-0.125,-0.125,0.0625
641,641,1727018338581,-1.0009766,0.07519531,0.10839844,-0.3125,-0.1875,0.125
642,642,1727018338621,-1.0019531,0.07714844,0.103515625,-0.1875,-0.25,0.0625
643,643,1727018338661,-1.0,0.07714844,0.10839844,0.0,0.0,-0.125
644,644,1727018338701,-1.0029297,0.08203125,0.11328125,0.1875,-0.0625,0.0
645,645,1727018338741,-0.99902344,0.07519531,0.11035156,-0.1875,-0.25,-0.0625
646,646,1727018338781,-0.9970703,0.07519531,0.11328125,-0.1875,-0.25,0.0
647,647,1727018338821,-0.9980469,0.07324219,0.10546875,0.125,-0.125,0.0
648,648,1727018338861,-0.9970703,0.078125,0.09863281,0.0,-0.0625,0.0625
649,649,1727018338901,-1.0009766,0.0703125,0.12011719,-0.125,-0.1875,0.0625
650,650,1727018338941,-0.99609375,0.072265625,0.099609375,-0.1875,-0.3125,-0.0625
651,651,1727018338981,-1.0009766,0.06640625,0.099609375,-0.3125,-0.25,0.125
652,652,1727018339021,-1.0,0.06933594,0.1171875,-0.1875,-0.3125,0.125
653,653,1727018339061,-0.9980469,0.0859375,0.103515625,-0.125,-0.25,0.25
654,654,1727018339101,-1.0087891,0.07714844,0.12695312,-0.5,0.0,0.375
655,655,1727018339141,-0.9970703,0.07324219,0.107421875,-0.125,0.0,0.375
656,656,1727018339181,-0.99902344,0.072265625,0.10546875,-0.3125,-0.25,0.25
657,657,1727018339221,-0.99902344,0.07421875,0.10644531,0.0,-0.25,0.125
658,658,1727018339261,-0.9951172,0.078125,0.109375,-0.1875,-0.3125,0.0625
659,659,1727018339301,-1.0029297,0.076171875,0.10546875,-0.1875,-0.1875,0.25
660,660,1727018339341,-0.9970703,0.07128906,0.1171875,-0.1875,-0.375,0.0
661,661,1727018339381,-0.99121094,0.07128906,0.1171875,-0.3125,-0.3125,0.0625
662,662,1727018339421,-0.99316406,0.07714844,0.12597656,-0.125,-0.125,0.125
663,663,1727018339461,-1.0019531,0.07421875,0.107421875,-0.3125,-0.1875,0.25
664,664,1727018339501,-0.9941406,0.07324219,0.11328125,-0.5,-0.1875,0.25
665,665,1727018339541,-0.9970703,0.078125,0.11035156,-0.5,-0.25,0.375
666,666,1727018339581,-0.99902344,0.08105469,0.12695312,-0.1875,-0.0625,0.25
667,667,1727018339621,-0.99902344,0.07421875,0.10644531,0.125,-0.125,0.0625
668,668,1727018339661,-1.0078125,0.0703125,0.10546875,0.5625,-0.3125,-0.25
669,669,1727018339701,-1.0009766,0.072265625,0.09667969,0.6875,-0.125,-0.125
670,670,1727018339741,-1.0087891,0.080078125,0.09375,0.375,-0.0625,-0.25
671,671,1727018339781,-1.0019531,0.07128906,0.12207031,-0.0625,-0.0625,-0.0625
672,672,1727018339821,-1.0039062,0.087890625,0.119140625,-0.125,-0.125,-0.125
673,673,1727018339861,-1.0009766,0.07714844,0.11230469,0.0,-0.125,0.0625
674,674,1727018339901,-1.0019531,0.0859375,0.107421875,-0.125,-0.25,-0.0625
675,675,1727018339941,-1.0,0.078125,0.12109375,-0.1875,-0.25,-0.1875
676,676,1727018339981,-1.0009766,0.07519531,0.11425781,-0.0625,-0.1875,-0.0625
677,677,1727018340021,-0.98828125,0.064453125,0.10253906,-0.125,-0.375,-0.3125
678,678,1727018340061,-1.0039062,0.07910156,0.13769531,-0.25,-0.5,-0.125
679,679,1727018340101,-1.0146484,0.0703125,0.111328125,-0.4375,-0.125,0.0625
680,680,1727018340141,-1.0029297,0.06933594,0.11230469,-0.25,-0.3125,0.125
681,681,1727018340181,-1.0,0.07324219,0.10644531,-0.0625,0.0,0.0625
682,682,1727018340221,-1.0,0.0703125,0.123046875,0.3125,-0.125,-0.25
683,683,1727018340261,-1.0,0.076171875,0.11035156,0.4375,-0.3125,-0.3125
684,684,1727018340301,-0.9941406,0.068359375,0.103515625,0.125,-0.3125,-0.375
685,685,1727018340341,-0.99609375,0.07910156,0.12011719,0.125,-0.25,-0.1875
686,686,1727018340381,-0.9951172,0.07910156,0.10253906,-0.25,-0.5,-0.125
687,687,1727018340421,-0.9980469,0.07910156,0.11816406,-0.1875,-0.3125,-0.125
688,688,1727018340461,-1.0068359,0.078125,0.10253906,-0.0625,-0.25,-0.0625
689,689,1727018340501,-1.0029297,0.0703125,0.11328125,0.125,-0.375,-0.1875
690,690,1727018340541,-0.9941406,0.07714844,0.12109375,0.0,-0.1875,-0.125
691,691,1727018340581,-0.9951172,0.07714844,0.11035156,-0.125,-0.3125,-0.3125
692,692,1727018340621,-0.9970703,0.09277344,0.11230469,-0.4375,-0.25,0.0
693,693,1727018340661,-1.0078125,0.078125,0.103515625,-0.4375,-0.3125,-0.125
694,694,1727018340701,-0.9951172,0.07324219,0.13671875,-0.4375,-0.125,-0.125
695,695,1727018340741,-0.9980469,0.07421875,0.09863281,-0.125,-0.25,-0.125
696,696,1727018340781,-1.0009766,0.07910156,0.1171875,0.125,-0.125,-0.125
697,697,1727018340821,-0.99902344,0.076171875,0.11328125,0.125,-0.3125,-0.1875
698,698,1727018340861,-1.0029297,0.08203125,0.111328125,0.1875,-0.1875,-0.1875
699,699,1727018340901,-1.0,0.078125,0.10253906,-0.125,-0.25,-0.125
700,700,1727018340941,-0.99902344,0.07519531,0.123046875,0.125,-0.125,-0.0625
701,701,1727018340981,-1.0,0.076171875,0.115234375,-0.0625,-0.0625,0.1875
702,702,1727018341021,-0.9863281,0.072265625,0.10546875,0.1875,-0.0625,0.1875
703,703,1727018341061,-1.0019531,0.07714844,0.109375,0.3125,0.0625,-0.1875
704,704,1727018341101,-1.0029297,0.0703125,0.10253906,-0.0625,-0.1875,-0.125
705,705,1727018341141,-1.0009766,0.07324219,0.11425781,0.0625,-0.125,-0.25
706,706,1727018341181,-0.9980469,0.07519531,0.10839844,0.3125,0.09375,-0.1875
707,707,1727018341221,-1.0029297,0.08984375,0.119140625,0.0625,-0.0625,-0.125
708,708,1727018341261,-0.9941406,0.078125,0.08886719,-0.0625,0.0625,-0.1875
709,709,1727018341301,-0.9980469,0.08691406,0.11035156,-0.25,0.09375,-0.125
710,710,1727018341341,-1.0029297,0.076171875,0.115234375,0.125,0.21875,0.0625
711,711,1727018341381,-1.0058594,0.08496094,0.10058594,0.0625,0.15625,-0.125
712,712,1727018341421,-0.99902344,0.0703125,0.111328125,-0.0625,0.09375,-0.25
713,713,1727018341461,-1.0029297,0.078125,0.11816406,0.0625,0.21875,-0.1875
714,714,1727018341501,-1.0,0.080078125,0.12011719,0.125,-0.125,-0.0625
715,715,1727018341541,-1.0068359,0.068359375,0.10546875,0.125,-0.25,-0.125
716,716,1727018341581,-0.99316406,0.072265625,0.10839844,0.0625,-0.0625,-0.4375
717,717,1727018341621,-0.9941406,0.07714844,0.12109375,0.125,0.0,-0.1875
718,718,1727018341661,-1.0029297,0.07910156,0.115234375,-0.125,-0.125,-0.1875
719,719,1727018341701,-1.0,0.08886719,0.11035156,-0.4375,-0.125,-0.3125
720,720,1727018341741,-0.9951172,0.07421875,0.10644531,-0.125,-0.1875,-0.125
721,721,1727018341781,-1.0097656,0.07519531,0.11230469,-0.1875,0.0,-0.125
722,722,1727018341821,-0.99902344,0.076171875,0.11621094,0.0,-0.125,-0.3125
723,723,1727018341861,-1.0029297,0.07714844,0.11621094,-0.125,-0.3125,-0.125
724,724,1727018341901,-1.0039062,0.06933594,0.111328125,0.0,-0.25,-0.4375
725,725,1727018341941,-1.0,0.078125,0.11035156,0.5,-0.25,-0.25
726,726,1727018341981,-1.0029297,0.08691406,0.12207031,0.25,-0.3125,-0.4375
727,727,1727018342021,-0.99609375,0.07910156,0.09277344,0.3125,-0.375,-0.3125
728,728,1727018342061,-1.0019531,0.07421875,0.09765625,-0.0625,-0.3125,-0.4375
729,729,1727018342101,-1.0,0.076171875,0.12597656,0.1875,-0.125,-0.1875
730,730,1727018342141,-1.0048828,0.08300781,0.11816406,0.25,-0.25,-0.0625
731,731,1727018342181,-0.9970703,0.080078125,0.107421875,0.0,-0.375,-0.125
732,732,1727018342221,-0.9951172,0.07910156,0.1328125,-0.0625,-0.25,-0.1875
733,733,1727018342261,-1.0029297,0.080078125,0.12109375,-0.25,-0.375,-0.25
734,734,1727018342301,-0.9970703,0.0703125,0.1328125,-0.1875,-0.375,0.0
735,735,1727018342341,-0.9980469,0.078125,0.11621094,-0.125,-0.25,-0.25
736,736,1727018342381,-1.0009766,0.078125,0.11230469,-0.125,-0.3125,-0.125
737,737,1727018342421,-1.0009766,0.0703125,0.09863281,-0.125,-0.3125,-0.1875
738,738,1727018342461,-0.9980469,0.07421875,0.1171875,-0.125,-0.3125,-0.0625
739,739,1727018342501,-1.0078125,0.076171875,0.11621094,-0.125,-0.1875,-0.0625
740,740,1727018342541,-0.9980469,0.06738281,0.11230469,0.0,-0.1875,-0.25
741,741,1727018342581,-0.99609375,0.076171875,0.09863281,0.125,-0.1875,-0.375
742,742,1727018342621,-0.9951172,0.076171875,0.11230469,0.3125,-0.25,-0.375
743,743,1727018342661,-1.0068359,0.078125,0.11621094,0.1875,-0.1875,-0.25
744,744,1727018342701,-0.9902344,0.08203125,0.119140625,0.0,-0.1875,-0.1875
745,745,1727018342741,-0.9941406,0.076171875,0.115234375,0.125,-0.25,-0.1875
746,746,1727018342781,-1.0029297,0.07714844,0.123046875,0.0,-0.4375,0.0625
747,747,1727018342821,-0.9951172,0.078125,0.10058594,-0.4375,-0.3125,0.125
748,748,1727018342861,-1.0009766,0.0703125,0.10449219,0.125,-0.125,-0.125
749,749,1727018342901,-1.0029297,0.072265625,0.12011719,0.6875,-0.4375,-0.375
750,750,1727018342941,-1.0019531,0.076171875,0.1171875,0.6875,-0.4375,-0.4375
751,751,1727018342981,-1.0,0.08496094,0.103515625,0.4375,-0.1875,-0.1875
752,752,1727018343021,-0.9980469,0.080078125,0.11425781,0.0,-0.0625,-0.0625
753,753,1727018343061,-0.99902344,0.07714844,0.1171875,-0.375,-0.25,-0.0625
754,754,1727018343101,-1.0,0.06542969,0.11328125,-0.375,-0.25,-0.125
755,755,1727018343141,-0.9980469,0.07128906,0.11035156,-0.0625,-0.25,-0.0625
756,756,1727018343181,-1.0019531,0.080078125,0.1171875,0.0625,-0.1875,-0.25
