,Unnamed: 0,timestamp,accel_x,accel_y,accel_z,gyro_x,gyro_y,gyro_z
0,0,1727345434014,-0.22265625,-0.6386719,0.73535156,0.0625,0.0,-0.03125
1,1,1727345434054,-0.20996094,-0.6357422,0.7363281,0.0625,0.25,0.03125
2,2,1727345434094,-0.22363281,-0.6484375,0.7324219,-0.0625,0.0,-0.09375
3,3,1727345434134,-0.22460938,-0.6435547,0.7441406,0.125,0.25,-0.03125
4,4,1727345434174,-0.22753906,-0.6298828,0.74121094,-0.125,0.0,-0.09375
5,5,1727345434214,-0.21582031,-0.6425781,0.7421875,0.15625,-0.3125,-0.21875
6,6,1727345434254,-0.21289062,-0.64453125,0.72558594,0.40625,-0.3125,-0.09375
7,7,1727345434294,-0.21777344,-0.63964844,0.7480469,0.21875,0.0,-0.15625
8,8,1727345434334,-0.22167969,-0.64160156,0.7363281,0.0625,0.1875,-0.09375
9,9,1727345434374,-0.21777344,-0.64160156,0.74902344,-0.0625,0.25,-0.34375
10,10,1727345434414,-0.22460938,-0.63964844,0.73046875,0.0625,-0.0625,-0.09375
11,11,1727345434454,-0.21777344,-0.64160156,0.72753906,0.0,-0.25,0.03125
12,12,1727345434494,-0.22460938,-0.6503906,0.72265625,-0.0625,-0.25,-0.03125
13,13,1727345434534,-0.22363281,-0.6347656,0.7324219,0.0625,0.0,-0.21875
14,14,1727345434574,-0.21777344,-0.6308594,0.7294922,0.125,0.3125,-0.21875
15,15,1727345434614,-0.22363281,-0.640625,0.734375,0.21875,0.1875,-0.15625
16,16,1727345434654,-0.21679688,-0.6308594,0.7324219,0.125,0.0,0.03125
17,17,1727345434694,-0.21875,-0.6347656,0.73535156,0.21875,0.0,0.03125
18,18,1727345434734,-0.22265625,-0.640625,0.7392578,-0.0625,0.0,-0.09375
19,19,1727345434774,-0.22070312,-0.63964844,0.73828125,0.125,0.125,-0.28125
20,20,1727345434814,-0.21972656,-0.6435547,0.7402344,-0.0625,-0.125,0.03125
21,21,1727345434854,-0.21875,-0.6425781,0.7402344,0.0625,-0.0625,0.15625
22,22,1727345434894,-0.21386719,-0.6376953,0.7265625,0.0625,-0.0625,0.03125
23,23,1727345434934,-0.20898438,-0.6376953,0.73828125,0.0625,-0.125,-0.21875
24,24,1727345434974,-0.20996094,-0.640625,0.7285156,0.15625,0.1875,-0.03125
25,25,1727345435014,-0.21777344,-0.640625,0.72753906,0.0625,-0.0625,-0.09375
26,26,1727345435054,-0.22460938,-0.6308594,0.7265625,0.125,0.1875,0.03125
27,27,1727345435094,-0.21679688,-0.63964844,0.734375,-0.125,0.0,-0.15625
28,28,1727345435134,-0.23046875,-0.6386719,0.7363281,0.0625,0.0,0.03125
29,29,1727345435174,-0.21191406,-0.6376953,0.74609375,-0.0625,-0.1875,-0.03125
30,30,1727345435214,-0.21679688,-0.6455078,0.7373047,0.0,-0.125,0.03125
31,31,1727345435254,-0.21289062,-0.6464844,0.7324219,0.125,0.0625,0.09375
32,32,1727345435294,-0.21289062,-0.6279297,0.7265625,0.21875,0.125,-0.03125
33,33,1727345435334,-0.20800781,-0.6386719,0.73339844,0.21875,0.125,0.09375
34,34,1727345435374,-0.21679688,-0.6484375,0.73535156,0.15625,0.0625,0.03125
35,35,1727345435414,-0.21289062,-0.63671875,0.7236328,0.125,-0.0625,-0.09375
36,36,1727345435454,-0.22167969,-0.6425781,0.7246094,0.125,0.0625,0.15625
37,37,1727345435494,-0.22558594,-0.6464844,0.734375,-0.0625,0.0,-0.03125
38,38,1727345435534,-0.21582031,-0.6357422,0.74316406,0.0625,0.0,0.03125
39,39,1727345435574,-0.22363281,-0.63964844,0.73828125,0.0625,-0.125,0.21875
40,40,1727345435614,-0.20703125,-0.6376953,0.73535156,0.15625,0.0625,0.15625
41,41,1727345435654,-0.22265625,-0.63183594,0.73828125,-0.0625,0.0,-0.21875
42,42,1727345435694,-0.22070312,-0.6386719,0.7373047,0.0625,0.0,-0.15625
43,43,1727345435734,-0.21679688,-0.64746094,0.7421875,0.0625,0.0,-0.15625
44,44,1727345435774,-0.21875,-0.6357422,0.7392578,0.21875,0.0625,-0.03125
45,45,1727345435814,-0.22460938,-0.6308594,0.73535156,0.21875,0.0625,-0.21875
46,46,1727345435854,-0.22070312,-0.6328125,0.73046875,0.15625,0.125,-0.40625
47,47,1727345435894,-0.21289062,-0.6386719,0.74609375,0.0,-0.3125,0.09375
48,48,1727345435934,-0.20996094,-0.6376953,0.73339844,-0.25,-0.0625,0.15625
49,49,1727345435974,-0.21972656,-0.6435547,0.7236328,-0.125,0.0,0.28125
50,50,1727345436014,-0.22460938,-0.6357422,0.7314453,0.0625,0.25,0.03125
51,51,1727345436054,-0.22265625,-0.640625,0.73828125,0.15625,0.0625,0.09375
52,52,1727345436094,-0.22070312,-0.64160156,0.73339844,0.21875,0.0625,0.09375
53,53,1727345436134,-0.22070312,-0.6376953,0.7285156,0.34375,0.125,-0.03125
54,54,1727345436174,-0.21679688,-0.63964844,0.7363281,0.0625,-0.1875,0.15625
55,55,1727345436214,-0.21386719,-0.640625,0.7314453,0.0625,-0.125,0.03125
56,56,1727345436254,-0.21191406,-0.640625,0.7392578,0.0,-0.125,0.09375
57,57,1727345436294,-0.21289062,-0.6357422,0.7373047,0.0625,-0.1875,0.09375
58,58,1727345436334,-0.203125,-0.64160156,0.7451172,-0.125,-0.0625,0.28125
59,59,1727345436374,-0.22558594,-0.6455078,0.7236328,0.0625,0.0,0.28125
60,60,1727345436414,-0.22363281,-0.64453125,0.7373047,0.15625,0.0625,0.09375
61,61,1727345436454,-0.22949219,-0.63671875,0.7392578,0.125,-0.0625,0.03125
62,62,1727345436494,-0.22070312,-0.6464844,0.73046875,0.0625,-0.125,0.21875
63,63,1727345436534,-0.21875,-0.63183594,0.734375,0.21875,0.0625,0.09375
64,64,1727345436574,-0.21386719,-0.6357422,0.7363281,0.0625,0.125,-0.09375
65,65,1727345436614,-0.22265625,-0.6435547,0.7373047,0.0625,-0.1875,0.03125
66,66,1727345436654,-0.21582031,-0.6386719,0.73828125,-0.0625,-0.25,0.03125
67,67,1727345436694,-0.22070312,-0.6308594,0.74121094,0.0625,-0.3125,0.03125
68,68,1727345436734,-0.20898438,-0.6464844,0.734375,0.15625,-0.1875,0.28125
69,69,1727345436774,-0.22070312,-0.6435547,0.7373047,0.0625,0.0,0.15625
70,70,1727345436814,-0.21582031,-0.6328125,0.7294922,0.28125,0.125,0.21875
71,71,1727345436854,-0.21191406,-0.64453125,0.7451172,0.125,0.0,0.125
72,72,1727345436894,-0.22167969,-0.6386719,0.7402344,-0.0625,0.0625,0.0625
73,73,1727345436934,-0.21777344,-0.6357422,0.7265625,-0.1875,-0.09375,-0.03125
74,74,1727345436974,-0.22265625,-0.6425781,0.7265625,-0.125,-0.15625,-0.28125
75,75,1727345437014,-0.20898438,-0.6376953,0.7441406,-0.0625,-0.09375,-0.15625
76,76,1727345437054,-0.22167969,-0.64746094,0.7324219,-0.21875,-0.15625,-0.09375
77,77,1727345437094,-0.21972656,-0.6484375,0.734375,0.0625,-0.03125,-0.03125
78,78,1727345437134,-0.22363281,-0.6435547,0.7363281,0.0625,0.125,-0.21875
79,79,1727345437174,-0.21386719,-0.6425781,0.73535156,0.125,0.125,-0.21875
80,80,1727345437214,-0.22070312,-0.63964844,0.734375,0.0,0.0,-0.09375
81,81,1727345437254,-0.22167969,-0.64453125,0.7363281,0.0,0.0625,-0.03125
82,82,1727345437294,-0.21289062,-0.6425781,0.7470703,0.0625,0.1875,-0.15625
83,83,1727345437334,-0.21777344,-0.6425781,0.734375,0.0,0.25,-0.09375
84,84,1727345437374,-0.2265625,-0.63671875,0.7451172,0.0625,-0.09375,-0.15625
85,85,1727345437414,-0.21679688,-0.64160156,0.73828125,-0.125,-0.15625,-0.09375
86,86,1727345437454,-0.20117188,-0.6386719,0.72265625,-0.1875,-0.09375,-0.21875
87,87,1727345437494,-0.21386719,-0.63671875,0.73535156,0.0,0.0,-0.21875
88,88,1727345437534,-0.21875,-0.6328125,0.73046875,0.1875,-0.09375,-0.03125
89,89,1727345437574,-0.21582031,-0.6376953,0.7392578,-0.0625,0.0625,0.03125
90,90,1727345437614,-0.21582031,-0.6386719,0.7363281,-0.0625,-0.03125,0.0625
91,91,1727345437654,-0.22460938,-0.6376953,0.7373047,0.125,0.1875,-0.09375
92,92,1727345437694,-0.22460938,-0.63183594,0.74121094,-0.0625,0.0625,-0.15625
93,93,1727345437734,-0.22265625,-0.6386719,0.7265625,-0.125,0.0,-0.21875
94,94,1727345437774,-0.22558594,-0.6376953,0.7294922,-0.21875,0.0,-0.28125
95,95,1727345437814,-0.21289062,-0.6464844,0.7324219,-0.0625,-0.03125,-0.09375
96,96,1727345437854,-0.21582031,-0.63964844,0.7402344,-0.1875,-0.03125,-0.15625
97,97,1727345437894,-0.22363281,-0.62890625,0.7324219,-0.125,-0.03125,-0.53125
98,98,1727345437934,-0.20898438,-0.6386719,0.7451172,0.0,0.0625,-0.15625
99,99,1727345437974,-0.21679688,-0.6425781,0.72558594,0.0,0.125,0.0625
100,100,1727345438014,-0.21582031,-0.63671875,0.73828125,0.0625,0.25,0.1875
101,101,1727345438054,-0.22265625,-0.6386719,0.734375,0.1875,0.125,-0.09375
102,102,1727345438094,-0.21777344,-0.6435547,0.74121094,0.0625,0.0625,-0.09375
103,103,1727345438134,-0.21289062,-0.6357422,0.7392578,0.0625,0.0,0.03125
104,104,1727345438174,-0.22167969,-0.6386719,0.73535156,0.0,0.0625,-0.03125
105,105,1727345438214,-0.21777344,-0.6484375,0.73535156,-0.0625,0.0625,-0.09375
106,106,1727345438254,-0.21191406,-0.6357422,0.7441406,0.0,0.0625,-0.21875
107,107,1727345438294,-0.22363281,-0.64160156,0.7363281,-0.0625,0.0625,-0.15625
108,108,1727345438334,-0.22167969,-0.64746094,0.7441406,-0.1875,0.0,-0.15625
109,109,1727345438374,-0.22558594,-0.6386719,0.7294922,0.125,-0.03125,-0.21875
110,110,1727345438414,-0.21777344,-0.64746094,0.7207031,-0.0625,0.0625,-0.15625
111,111,1727345438454,-0.21484375,-0.6357422,0.7363281,0.125,0.1875,-0.09375
112,112,1727345438494,-0.21386719,-0.6376953,0.72753906,0.0,0.0625,-0.03125
113,113,1727345438534,-0.22167969,-0.6513672,0.74121094,-0.0625,0.0,0.125
114,114,1727345438574,-0.21679688,-0.63183594,0.7246094,0.0,0.0,0.03125
115,115,1727345438614,-0.21679688,-0.6376953,0.7392578,0.0,0.0625,-0.15625
116,116,1727345438654,-0.22460938,-0.64746094,0.73535156,-0.0625,-0.03125,0.03125
117,117,1727345438694,-0.2109375,-0.6328125,0.7373047,0.0,0.125,-0.09375
118,118,1727345438734,-0.21679688,-0.6347656,0.7294922,0.0,0.1875,-0.15625
119,119,1727345438774,-0.21777344,-0.63964844,0.7363281,-0.0625,-0.03125,-0.09375
120,120,1727345438814,-0.21679688,-0.64746094,0.73046875,-0.0625,0.125,-0.15625
121,121,1727345438854,-0.21777344,-0.640625,0.734375,-0.0625,-0.03125,-0.15625
122,122,1727345438894,-0.20996094,-0.6455078,0.7265625,-0.0625,-0.15625,-0.03125
123,123,1727345438934,-0.22070312,-0.64160156,0.72558594,0.0,-0.03125,-0.09375
124,124,1727345438974,-0.21386719,-0.63671875,0.73828125,0.0,0.125,-0.03125
125,125,1727345439014,-0.21582031,-0.64160156,0.7324219,0.0,0.25,0.03125
126,126,1727345439054,-0.21679688,-0.640625,0.7285156,0.0,0.0625,-0.15625
127,127,1727345439094,-0.21582031,-0.63183594,0.74121094,0.0,0.0,-0.09375
128,128,1727345439134,-0.22265625,-0.6425781,0.7441406,-0.0625,0.0,0.03125
129,129,1727345439174,-0.21289062,-0.6328125,0.7402344,-0.125,0.1875,-0.09375
130,130,1727345439214,-0.21777344,-0.63378906,0.73535156,0.0,0.0625,-0.15625
131,131,1727345439254,-0.21679688,-0.6435547,0.7285156,-0.0625,-0.03125,-0.09375
132,132,1727345439294,-0.22363281,-0.6455078,0.7236328,0.0625,0.0,0.0625
133,133,1727345439334,-0.21582031,-0.6376953,0.7285156,0.0,0.0625,-0.15625
134,134,1727345439374,-0.21582031,-0.63671875,0.7373047,0.0,-0.03125,-0.15625
135,135,1727345439414,-0.21191406,-0.63671875,0.73046875,0.125,0.25,-0.15625
136,136,1727345439454,-0.21582031,-0.6386719,0.74121094,0.0,0.0625,0.03125
137,137,1727345439494,-0.21777344,-0.6455078,0.7285156,0.0,0.125,-0.21875
138,138,1727345439534,-0.21289062,-0.6376953,0.73828125,-0.0625,-0.03125,-0.21875
139,139,1727345439574,-0.21582031,-0.63671875,0.7236328,-0.125,-0.09375,0.03125
140,140,1727345439614,-0.22363281,-0.6376953,0.74121094,-0.0625,-0.15625,-0.15625
141,141,1727345439654,-0.22460938,-0.6503906,0.7392578,-0.0625,-0.03125,0.03125
142,142,1727345439694,-0.20996094,-0.6386719,0.7421875,0.0625,0.1875,-0.03125
143,143,1727345439734,-0.22460938,-0.6376953,0.73828125,0.0625,0.3125,0.03125
144,144,1727345439774,-0.20898438,-0.64160156,0.7392578,0.125,0.1875,-0.15625
145,145,1727345439814,-0.22070312,-0.64453125,0.73535156,0.0625,0.0,-0.09375
146,146,1727345439854,-0.21972656,-0.6357422,0.734375,0.0,0.0,-0.03125
147,147,1727345439894,-0.21875,-0.6357422,0.7363281,0.0,0.0625,0.03125
148,148,1727345439934,-0.22363281,-0.6386719,0.734375,-0.1875,0.125,-0.21875
149,149,1727345439974,-0.21972656,-0.64453125,0.7402344,0.0625,0.1875,-0.09375
150,150,1727345440014,-0.21484375,-0.63964844,0.74316406,0.0,-0.03125,0.03125
151,151,1727345440054,-0.2109375,-0.6386719,0.7402344,0.1875,0.125,0.125
152,152,1727345440094,-0.21679688,-0.6328125,0.73535156,0.0,0.0625,-0.28125
153,153,1727345440134,-0.21679688,-0.6386719,0.7441406,0.0,-0.09375,0.03125
154,154,1727345440174,-0.2109375,-0.63671875,0.74121094,0.0,0.0625,-0.09375
155,155,1727345440214,-0.22167969,-0.6455078,0.72558594,0.0,0.125,-0.09375
156,156,1727345440254,-0.21484375,-0.6425781,0.74121094,0.0,0.1875,-0.03125
157,157,1727345440294,-0.21777344,-0.63964844,0.73339844,-0.0625,0.0,-0.15625
158,158,1727345440334,-0.21484375,-0.63964844,0.73535156,-0.0625,-0.15625,-0.15625
159,159,1727345440374,-0.21777344,-0.6386719,0.7373047,-0.0625,-0.09375,0.03125
160,160,1727345440414,-0.21191406,-0.640625,0.73046875,-0.0625,0.0,0.03125
161,161,1727345440454,-0.21582031,-0.64160156,0.7392578,0.0,0.125,0.03125
162,162,1727345440494,-0.20996094,-0.640625,0.7421875,0.0,0.1875,-0.03125
163,163,1727345440534,-0.21777344,-0.64160156,0.7392578,0.0625,0.125,0.03125
164,164,1727345440574,-0.22167969,-0.6386719,0.73535156,0.0625,0.0,-0.03125
165,165,1727345440614,-0.21777344,-0.6455078,0.7363281,-0.0625,0.0,-0.15625
166,166,1727345440654,-0.21875,-0.6386719,0.73339844,-0.1875,-0.09375,0.0625
167,167,1727345440694,-0.21484375,-0.6328125,0.72558594,0.0,0.125,-0.03125
168,168,1727345440734,-0.21679688,-0.63964844,0.7236328,-0.0625,-0.03125,0.03125
169,169,1727345440774,-0.21679688,-0.6455078,0.7363281,0.0,0.0,0.0625
170,170,1727345440814,-0.20703125,-0.6464844,0.7265625,0.0,-0.0625,0.125
171,171,1727345440854,-0.2265625,-0.64746094,0.7285156,0.0,0.0,0.0625
172,172,1727345440894,-0.21679688,-0.6376953,0.7285156,-0.0625,-0.125,0.0
173,173,1727345440934,-0.2109375,-0.6328125,0.72753906,0.0625,0.0,0.0625
174,174,1727345440974,-0.21582031,-0.6376953,0.7421875,-0.125,0.0,0.0625
175,175,1727345441014,-0.21972656,-0.6386719,0.74316406,0.0625,0.1875,0.0625
176,176,1727345441054,-0.20898438,-0.6357422,0.734375,-0.125,-0.0625,-0.0625
177,177,1727345441094,-0.21875,-0.6357422,0.7421875,0.0625,-0.0625,-0.0625
178,178,1727345441134,-0.21289062,-0.640625,0.7392578,0.0,-0.1875,0.1875
179,179,1727345441174,-0.21972656,-0.6464844,0.73339844,-0.0625,-0.1875,0.125
180,180,1727345441214,-0.21289062,-0.63378906,0.7294922,0.0,0.1875,-0.125
181,181,1727345441254,-0.22167969,-0.6376953,0.7236328,0.0,0.125,-0.25
182,182,1727345441294,-0.22167969,-0.6376953,0.7392578,0.0,0.0625,-0.1875
183,183,1727345441334,-0.21679688,-0.6435547,0.74121094,-0.0625,-0.21875,-0.125
184,184,1727345441374,-0.21679688,-0.64160156,0.72753906,-0.0625,-0.1875,-0.0625
185,185,1727345441414,-0.22167969,-0.6376953,0.72753906,-0.0625,-0.125,-0.0625
186,186,1727345441454,-0.21191406,-0.64160156,0.734375,0.0,0.0,0.0
187,187,1727345441494,-0.21777344,-0.64453125,0.7402344,0.0625,0.125,-0.3125
188,188,1727345441534,-0.21289062,-0.64160156,0.73339844,-0.0625,-0.125,-0.125
189,189,1727345441574,-0.21484375,-0.6328125,0.7246094,0.1875,0.0625,0.125
190,190,1727345441614,-0.21875,-0.64160156,0.7441406,0.0,0.0,0.0
191,191,1727345441654,-0.21484375,-0.63378906,0.7294922,0.0,0.0625,-0.125
192,192,1727345441694,-0.21386719,-0.6386719,0.73339844,-0.0625,-0.0625,0.0
193,193,1727345441734,-0.22167969,-0.64160156,0.7363281,-0.0625,0.0,0.0
194,194,1727345441774,-0.20996094,-0.63964844,0.7363281,-0.125,0.0625,0.0
195,195,1727345441814,-0.21679688,-0.6435547,0.72753906,-0.0625,0.0,-0.1875
196,196,1727345441854,-0.21484375,-0.64160156,0.7392578,-0.0625,-0.1875,-0.0625
197,197,1727345441894,-0.20898438,-0.6386719,0.7294922,-0.125,-0.28125,0.0625
198,198,1727345441934,-0.21289062,-0.63964844,0.7294922,-0.0625,-0.0625,0.0
199,199,1727345441974,-0.21191406,-0.64160156,0.7373047,0.0,0.0625,0.0625
200,200,1727345442014,-0.21191406,-0.6328125,0.73339844,0.0625,0.0625,0.0
201,201,1727345442054,-0.21972656,-0.6464844,0.73339844,0.0,0.125,0.0
202,202,1727345442094,-0.21972656,-0.63964844,0.7324219,0.0,-0.0625,0.0625
203,203,1727345442134,-0.22070312,-0.64160156,0.7373047,-0.1875,-0.125,0.0
204,204,1727345442174,-0.21875,-0.640625,0.73828125,0.0625,0.0,-0.125
205,205,1727345442214,-0.21777344,-0.6328125,0.73828125,-0.1875,0.0625,0.0
206,206,1727345442254,-0.21679688,-0.640625,0.7451172,0.0,0.0,-0.125
207,207,1727345442294,-0.22167969,-0.6386719,0.7324219,-0.0625,-0.0625,-0.0625
208,208,1727345442334,-0.21972656,-0.6425781,0.734375,0.0,-0.125,0.125
209,209,1727345442374,-0.21777344,-0.63964844,0.7324219,0.125,0.0,0.0
210,210,1727345442414,-0.22167969,-0.640625,0.73339844,-0.0625,0.0,-0.0625
211,211,1727345442454,-0.21679688,-0.64160156,0.73339844,0.1875,0.0625,0.0
212,212,1727345442494,-0.21777344,-0.63671875,0.7421875,-0.0625,0.125,0.0625
213,213,1727345442534,-0.21386719,-0.64160156,0.7207031,0.0,0.0,-0.0625
214,214,1727345442574,-0.21875,-0.63671875,0.7402344,-0.0625,-0.0625,-0.125
215,215,1727345442614,-0.22070312,-0.6533203,0.73828125,-0.0625,-0.125,0.125
216,216,1727345442654,-0.2109375,-0.64453125,0.73339844,-0.0625,-0.28125,0.0625
217,217,1727345442694,-0.21484375,-0.64453125,0.7363281,0.125,-0.125,0.0
218,218,1727345442734,-0.21679688,-0.64160156,0.73339844,0.0625,0.125,-0.125
219,219,1727345442774,-0.21679688,-0.63964844,0.7480469,0.0625,0.1875,-0.1875
220,220,1727345442814,-0.21777344,-0.6357422,0.74316406,0.0,0.0625,0.0
221,221,1727345442854,-0.21972656,-0.62890625,0.734375,0.0,0.0625,0.125
222,222,1727345442894,-0.21972656,-0.63183594,0.7294922,0.0,-0.125,0.0
223,223,1727345442934,-0.21191406,-0.62890625,0.7373047,-0.0625,-0.0625,-0.0625
224,224,1727345442974,-0.2265625,-0.6376953,0.73535156,-0.0625,-0.125,-0.125
225,225,1727345443014,-0.21875,-0.6435547,0.7373047,-0.0625,0.0,-0.1875
226,226,1727345443054,-0.22460938,-0.63964844,0.7314453,-0.0625,-0.0625,-0.125
227,227,1727345443094,-0.21972656,-0.64453125,0.73339844,-0.0625,-0.21875,0.1875
228,228,1727345443134,-0.21777344,-0.64453125,0.7324219,0.1875,-0.0625,0.125
229,229,1727345443174,-0.20898438,-0.6386719,0.7421875,0.0,0.125,-0.25
230,230,1727345443214,-0.22070312,-0.640625,0.7314453,0.0,0.0625,-0.0625
231,231,1727345443254,-0.22265625,-0.6376953,0.7314453,-0.0625,0.0625,0.0
232,232,1727345443294,-0.21289062,-0.62890625,0.7363281,-0.0625,0.0625,-0.125
233,233,1727345443334,-0.22558594,-0.6435547,0.7363281,-0.25,-0.0625,-0.0625
234,234,1727345443374,-0.21289062,-0.6269531,0.734375,-0.0625,-0.125,-0.0625
235,235,1727345443414,-0.21777344,-0.6376953,0.7421875,-0.0625,-0.1875,0.125
236,236,1727345443454,-0.21191406,-0.6503906,0.7402344,0.0,-0.125,0.125
237,237,1727345443494,-0.21582031,-0.64453125,0.7363281,0.0,0.0625,0.125
238,238,1727345443534,-0.22167969,-0.6328125,0.73046875,0.125,0.1875,-0.03125
239,239,1727345443574,-0.21386719,-0.63671875,0.7363281,0.0625,0.125,-0.03125
240,240,1727345443614,-0.21289062,-0.6376953,0.74609375,0.0,0.0,0.0
241,241,1727345443654,-0.21484375,-0.6386719,0.74609375,-0.125,-0.1875,0.0625
242,242,1727345443694,-0.22265625,-0.64160156,0.7373047,-0.0625,-0.1875,-0.09375
243,243,1727345443734,-0.20996094,-0.63964844,0.73339844,-0.0625,-0.0625,-0.15625
244,244,1727345443774,-0.21582031,-0.6425781,0.72558594,-0.0625,0.0,-0.09375
245,245,1727345443814,-0.20898438,-0.63671875,0.7402344,-0.0625,-0.1875,0.0
246,246,1727345443854,-0.21777344,-0.6435547,0.7363281,0.125,-0.0625,0.0
247,247,1727345443894,-0.21289062,-0.6308594,0.7373047,0.125,-0.0625,0.1875
248,248,1727345443934,-0.20996094,-0.640625,0.74609375,0.0625,0.125,0.0
249,249,1727345443974,-0.21875,-0.63378906,0.7373047,-0.0625,-0.0625,-0.03125
250,250,1727345444014,-0.21875,-0.6386719,0.7285156,0.0,0.1875,-0.03125
251,251,1727345444054,-0.21191406,-0.6425781,0.73046875,0.0,0.125,-0.03125
252,252,1727345444094,-0.21679688,-0.6298828,0.7324219,-0.1875,0.0,0.0
253,253,1727345444134,-0.21582031,-0.6328125,0.7294922,-0.0625,-0.125,-0.03125
254,254,1727345444174,-0.21582031,-0.640625,0.7314453,-0.0625,-0.1875,0.0
255,255,1727345444214,-0.21679688,-0.6484375,0.7294922,0.0,-0.125,-0.03125
256,256,1727345444254,-0.21484375,-0.64746094,0.7324219,0.0625,0.25,-0.03125
257,257,1727345444294,-0.21972656,-0.640625,0.72753906,0.0625,0.125,0.0625
258,258,1727345444334,-0.21484375,-0.6376953,0.734375,0.0625,0.125,0.0
259,259,1727345444374,-0.21386719,-0.640625,0.75390625,-0.0625,-0.0625,0.0
260,260,1727345444414,-0.21386719,-0.64160156,0.7294922,-0.0625,-0.0625,0.0
261,261,1727345444454,-0.2109375,-0.640625,0.7294922,0.0,-0.0625,0.1875
262,262,1727345444494,-0.21777344,-0.64160156,0.7451172,-0.125,-0.125,-0.09375
263,263,1727345444534,-0.21289062,-0.6347656,0.734375,-0.125,0.0,-0.21875
264,264,1727345444574,-0.21875,-0.6308594,0.7402344,0.125,0.125,-0.15625
265,265,1727345444614,-0.22070312,-0.6435547,0.7363281,0.0,-0.1875,0.25
266,266,1727345444654,-0.21386719,-0.64160156,0.734375,0.1875,-0.0625,0.125
267,267,1727345444694,-0.22167969,-0.64160156,0.74316406,0.0625,0.125,0.0625
268,268,1727345444734,-0.21191406,-0.640625,0.71777344,0.125,0.125,0.125
269,269,1727345444774,-0.21777344,-0.6425781,0.73339844,0.0,0.0,-0.03125
270,270,1727345444814,-0.2109375,-0.6425781,0.7265625,-0.0625,-0.0625,-0.03125
271,271,1727345444854,-0.22167969,-0.6435547,0.73828125,-0.125,-0.21875,-0.09375
272,272,1727345444894,-0.22558594,-0.6435547,0.7392578,-0.0625,-0.1875,-0.09375
273,273,1727345444934,-0.20996094,-0.6484375,0.7285156,-0.125,-0.21875,-0.03125
274,274,1727345444974,-0.20996094,-0.63671875,0.73535156,-0.0625,-0.0625,0.0625
275,275,1727345445014,-0.22265625,-0.6328125,0.7294922,-0.1875,-0.0625,0.25
276,276,1727345445054,-0.21777344,-0.6386719,0.7314453,0.0625,0.125,0.125
277,277,1727345445094,-0.22167969,-0.6328125,0.73339844,0.0,0.0,-0.09375
278,278,1727345445134,-0.21582031,-0.6376953,0.73535156,-0.0625,-0.125,0.0
279,279,1727345445174,-0.21777344,-0.6376953,0.734375,0.0,-0.0625,0.0
280,280,1727345445214,-0.21972656,-0.6298828,0.7392578,-0.0625,-0.0625,-0.03125
281,281,1727345445254,-0.22070312,-0.6376953,0.73339844,-0.0625,0.0,-0.21875
282,282,1727345445294,-0.21484375,-0.64453125,0.73535156,-0.1875,-0.1875,-0.09375
283,283,1727345445334,-0.21386719,-0.6308594,0.73828125,-0.0625,-0.0625,-0.15625
284,284,1727345445374,-0.22265625,-0.6376953,0.734375,-0.0625,-0.125,0.0625
285,285,1727345445414,-0.21582031,-0.640625,0.7441406,0.1875,0.0,0.125
286,286,1727345445454,-0.21679688,-0.63964844,0.7392578,0.0625,-0.125,-0.03125
287,287,1727345445494,-0.21582031,-0.63964844,0.7314453,0.1875,0.0625,-0.09375
288,288,1727345445534,-0.21484375,-0.64160156,0.7363281,0.0625,0.0625,-0.09375
289,289,1727345445574,-0.22070312,-0.63183594,0.73828125,-0.1875,-0.125,-0.03125
290,290,1727345445614,-0.23046875,-0.6435547,0.7265625,-0.125,-0.125,0.0
291,291,1727345445654,-0.22265625,-0.63964844,0.74316406,-0.0625,-0.21875,-0.03125
292,292,1727345445694,-0.21289062,-0.6347656,0.73828125,-0.125,-0.34375,-0.03125
293,293,1727345445734,-0.20996094,-0.64746094,0.74316406,-0.0625,-0.1875,0.0625
294,294,1727345445774,-0.21777344,-0.6357422,0.7392578,0.0,0.0,0.0
295,295,1727345445814,-0.21972656,-0.65234375,0.7324219,0.0625,0.0625,0.0
296,296,1727345445854,-0.21386719,-0.6308594,0.72753906,-0.0625,-0.0625,0.0
297,297,1727345445894,-0.21679688,-0.6435547,0.7392578,-0.0625,-0.1875,0.0
298,298,1727345445934,-0.21484375,-0.640625,0.73535156,0.0,-0.1875,0.0
299,299,1727345445974,-0.21191406,-0.63964844,0.7285156,0.0,-0.125,0.125
300,300,1727345446014,-0.2109375,-0.6464844,0.72753906,-0.125,-0.0625,0.0
301,301,1727345446054,-0.21484375,-0.64453125,0.72265625,-0.09375,-0.03125,0.0
302,302,1727345446094,-0.22070312,-0.63378906,0.7363281,0.03125,0.15625,0.0
303,303,1727345446134,-0.21582031,-0.64160156,0.7324219,-0.03125,-0.03125,0.125
304,304,1727345446174,-0.22265625,-0.63964844,0.72753906,0.15625,-0.03125,0.0
305,305,1727345446214,-0.22460938,-0.6376953,0.7373047,-0.03125,0.03125,-0.0625
306,306,1727345446254,-0.21484375,-0.64160156,0.7470703,0.03125,-0.03125,-0.125
307,307,1727345446294,-0.21875,-0.6464844,0.74902344,0.15625,0.15625,0.0
308,308,1727345446334,-0.21386719,-0.64160156,0.73339844,0.03125,0.1875,-0.125
309,309,1727345446374,-0.22070312,-0.63183594,0.7451172,-0.09375,0.03125,-0.0625
310,310,1727345446414,-0.21289062,-0.63671875,0.72265625,-0.03125,-0.15625,-0.0625
311,311,1727345446454,-0.21679688,-0.64746094,0.72558594,-0.09375,-0.34375,0.0625
312,312,1727345446494,-0.21777344,-0.64746094,0.7373047,-0.03125,-0.09375,0.0625
313,313,1727345446534,-0.21289062,-0.63378906,0.73535156,-0.03125,0.09375,0.0
314,314,1727345446574,-0.21289062,-0.6328125,0.7285156,0.21875,0.3125,-0.0625
315,315,1727345446614,-0.21777344,-0.6357422,0.73828125,0.15625,0.09375,0.0625
316,316,1727345446654,-0.20996094,-0.63378906,0.7373047,0.15625,-0.09375,0.0
317,317,1727345446694,-0.22070312,-0.6386719,0.74121094,0.09375,-0.15625,0.0
318,318,1727345446734,-0.20800781,-0.63671875,0.7402344,-0.03125,-0.15625,0.0
319,319,1727345446774,-0.21875,-0.6386719,0.7421875,-0.03125,0.03125,0.0
320,320,1727345446814,-0.21386719,-0.6298828,0.7421875,-0.03125,-0.03125,-0.125
321,321,1727345446854,-0.21777344,-0.6455078,0.7363281,0.03125,0.09375,0.0625
322,322,1727345446894,-0.22265625,-0.640625,0.7373047,-0.03125,-0.09375,0.125
323,323,1727345446934,-0.22167969,-0.6347656,0.7402344,0.03125,-0.03125,0.125
324,324,1727345446974,-0.22167969,-0.6435547,0.734375,-0.09375,0.03125,0.0625
325,325,1727345447014,-0.21289062,-0.640625,0.7294922,0.03125,0.09375,0.0
326,326,1727345447054,-0.21679688,-0.6376953,0.73339844,-0.09375,0.03125,0.125
327,327,1727345447094,-0.21191406,-0.6376953,0.74609375,0.03125,0.15625,0.0625
328,328,1727345447134,-0.22070312,-0.63378906,0.7402344,-0.09375,0.03125,-0.0625
329,329,1727345447174,-0.22558594,-0.6425781,0.74902344,-0.03125,-0.21875,-0.125
330,330,1727345447214,-0.21875,-0.640625,0.7402344,0.09375,-0.21875,0.0
331,331,1727345447254,-0.21582031,-0.6386719,0.7294922,-0.03125,-0.09375,0.0625
332,332,1727345447294,-0.20898438,-0.6376953,0.7265625,0.15625,0.1875,-0.0625
333,333,1727345447334,-0.21484375,-0.6376953,0.7294922,0.03125,0.25,-0.125
334,334,1727345447374,-0.21777344,-0.6376953,0.7294922,-0.03125,-0.03125,-0.0625
335,335,1727345447414,-0.21484375,-0.63964844,0.73828125,-0.03125,-0.15625,0.0625
336,336,1727345447454,-0.21386719,-0.6347656,0.7402344,-0.09375,0.03125,0.0
337,337,1727345447494,-0.21289062,-0.6308594,0.7402344,-0.09375,0.03125,-0.0625
338,338,1727345447534,-0.21484375,-0.64160156,0.7363281,-0.09375,-0.15625,-0.1875
339,339,1727345447574,-0.21386719,-0.6357422,0.73046875,-0.03125,-0.03125,-0.125
340,340,1727345447614,-0.2265625,-0.63671875,0.72558594,-0.03125,-0.09375,0.125
341,341,1727345447654,-0.21777344,-0.64453125,0.73339844,0.21875,0.09375,0.125
342,342,1727345447694,-0.22167969,-0.6328125,0.7314453,-0.03125,-0.03125,-0.125
343,343,1727345447734,-0.21777344,-0.63378906,0.72753906,0.03125,0.09375,-0.125
344,344,1727345447774,-0.2109375,-0.640625,0.7451172,0.03125,0.09375,0.0
345,345,1727345447814,-0.21777344,-0.6279297,0.7392578,-0.15625,0.09375,-0.0625
346,346,1727345447854,-0.20898438,-0.63964844,0.7451172,-0.21875,0.15625,-0.1875
347,347,1727345447894,-0.21875,-0.6347656,0.7373047,-0.03125,0.09375,-0.0625
348,348,1727345447934,-0.21875,-0.64453125,0.7392578,-0.09375,-0.15625,0.0625
349,349,1727345447974,-0.21679688,-0.64160156,0.73828125,0.03125,-0.09375,0.1875
350,350,1727345448014,-0.21582031,-0.6464844,0.7421875,0.03125,-0.03125,0.0
351,351,1727345448054,-0.21484375,-0.63671875,0.73535156,0.09375,0.3125,-0.1875
352,352,1727345448094,-0.22265625,-0.63964844,0.7402344,0.09375,0.09375,-0.125
353,353,1727345448134,-0.21484375,-0.6357422,0.73535156,-0.09375,-0.03125,-0.0625
354,354,1727345448174,-0.22460938,-0.6455078,0.7324219,-0.03125,-0.15625,0.0625
355,355,1727345448214,-0.22460938,-0.63671875,0.7363281,-0.09375,0.03125,0.0625
356,356,1727345448254,-0.21875,-0.640625,0.7294922,0.03125,0.09375,-0.125
357,357,1727345448294,-0.21582031,-0.6425781,0.7294922,0.03125,0.09375,-0.1875
358,358,1727345448334,-0.21484375,-0.6484375,0.7314453,-0.03125,-0.09375,0.0625
359,359,1727345448374,-0.22167969,-0.6425781,0.7285156,0.09375,-0.03125,0.125
360,360,1727345448414,-0.21484375,-0.6376953,0.7324219,-0.03125,0.03125,0.0625
361,361,1727345448454,-0.21679688,-0.6376953,0.73339844,-0.03125,-0.15625,0.0625
362,362,1727345448494,-0.21386719,-0.62890625,0.7373047,0.09375,0.09375,0.0
363,363,1727345448534,-0.21582031,-0.6425781,0.72558594,-0.03125,0.03125,-0.125
364,364,1727345448574,-0.21582031,-0.6435547,0.7373047,-0.03125,0.15625,0.0
365,365,1727345448614,-0.21386719,-0.6464844,0.73339844,-0.15625,-0.03125,0.0
366,366,1727345448654,-0.20507812,-0.63671875,0.7392578,-0.03125,-0.28125,0.0625
367,367,1727345448694,-0.21191406,-0.64746094,0.7402344,-0.09375,-0.28125,0.125
368,368,1727345448734,-0.21582031,-0.6386719,0.7265625,-0.03125,-0.03125,0.0625
369,369,1727345448774,-0.21679688,-0.6376953,0.73828125,0.03125,0.09375,-0.0625
370,370,1727345448814,-0.21484375,-0.6435547,0.73339844,0.09375,0.1875,0.0625
371,371,1727345448854,-0.22167969,-0.6464844,0.7402344,-0.03125,-0.03125,-0.0625
372,372,1727345448894,-0.21875,-0.6376953,0.7285156,0.15625,0.09375,0.0
373,373,1727345448934,-0.22460938,-0.6425781,0.7285156,-0.03125,-0.03125,-0.0625
374,374,1727345448974,-0.21289062,-0.63964844,0.7314453,-0.09375,-0.03125,0.0625
375,375,1727345449014,-0.21289062,-0.6464844,0.7314453,-0.03125,0.15625,-0.125
376,376,1727345449054,-0.21875,-0.64453125,0.7373047,-0.03125,0.03125,-0.0625
377,377,1727345449094,-0.21777344,-0.6484375,0.73339844,-0.03125,-0.09375,0.0
378,378,1727345449134,-0.22070312,-0.6357422,0.734375,0.15625,0.03125,0.0625
379,379,1727345449174,-0.21484375,-0.63378906,0.7363281,-0.03125,0.03125,-0.1875
380,380,1727345449214,-0.21679688,-0.63964844,0.7285156,-0.03125,0.03125,-0.125
381,381,1727345449254,-0.21679688,-0.6425781,0.7314453,-0.03125,0.03125,-0.125
382,382,1727345449294,-0.20703125,-0.6455078,0.7373047,-0.09375,0.03125,-0.0625
383,383,1727345449334,-0.21386719,-0.6455078,0.7402344,-0.03125,0.09375,-0.1875
384,384,1727345449374,-0.22363281,-0.640625,0.73535156,-0.15625,-0.09375,0.0625
385,385,1727345449414,-0.22167969,-0.63183594,0.734375,-0.03125,-0.09375,0.0
386,386,1727345449454,-0.21777344,-0.6357422,0.7392578,-0.03125,-0.09375,0.125
387,387,1727345449494,-0.21777344,-0.6513672,0.73046875,-0.03125,0.03125,0.0625
388,388,1727345449534,-0.22265625,-0.64453125,0.7363281,0.09375,0.15625,0.0
389,389,1727345449574,-0.22167969,-0.64746094,0.73046875,0.03125,0.15625,-0.0625
390,390,1727345449614,-0.21972656,-0.6328125,0.7324219,0.03125,-0.03125,0.0
391,391,1727345449654,-0.22070312,-0.640625,0.7392578,-0.03125,-0.15625,-0.0625
392,392,1727345449694,-0.21386719,-0.63671875,0.7421875,-0.03125,-0.21875,0.0
393,393,1727345449734,-0.21679688,-0.6347656,0.73535156,-0.03125,-0.15625,-0.125
394,394,1727345449774,-0.21679688,-0.63378906,0.7392578,-0.15625,0.03125,-0.1875
395,395,1727345449814,-0.21582031,-0.63964844,0.7373047,0.03125,0.09375,-0.0625
396,396,1727345449854,-0.21582031,-0.64746094,0.7402344,0.03125,-0.21875,0.0625
397,397,1727345449894,-0.21582031,-0.6425781,0.73339844,0.15625,-0.03125,0.125
398,398,1727345449934,-0.21386719,-0.6376953,0.7285156,-0.03125,-0.03125,-0.0625
399,399,1727345449974,-0.20996094,-0.63964844,0.7402344,0.03125,-0.09375,0.0
400,400,1727345450014,-0.2109375,-0.6357422,0.7324219,0.09375,0.09375,-0.125
401,401,1727345450054,-0.21777344,-0.6435547,0.73046875,-0.03125,0.15625,0.0625
402,402,1727345450094,-0.22265625,-0.63964844,0.7480469,-0.03125,0.1875,-0.125
403,403,1727345450134,-0.22949219,-0.63378906,0.7363281,-0.15625,-0.03125,0.0
404,404,1727345450174,-0.21875,-0.6425781,0.74609375,-0.09375,-0.09375,-0.125
405,405,1727345450214,-0.21386719,-0.64160156,0.74609375,-0.09375,-0.40625,0.125
406,406,1727345450254,-0.2109375,-0.640625,0.7294922,0.09375,-0.28125,0.0
407,407,1727345450294,-0.21289062,-0.6484375,0.7441406,0.09375,0.15625,-0.0625
408,408,1727345450334,-0.21289062,-0.6328125,0.7314453,0.03125,0.25,-0.1875
409,409,1727345450374,-0.21386719,-0.64453125,0.7402344,0.03125,0.1875,-0.0625
410,410,1727345450414,-0.22070312,-0.6328125,0.7451172,-0.03125,-0.15625,0.0
411,411,1727345450454,-0.21484375,-0.63964844,0.7392578,0.09375,-0.09375,0.125
412,412,1727345450494,-0.21484375,-0.6425781,0.7441406,-0.03125,0.03125,0.0
413,413,1727345450534,-0.22167969,-0.63671875,0.7402344,-0.15625,0.1875,-0.1875
414,414,1727345450574,-0.21777344,-0.6542969,0.72753906,0.03125,0.03125,0.0
415,415,1727345450614,-0.22167969,-0.6435547,0.7246094,-0.03125,-0.09375,0.125
416,416,1727345450654,-0.21777344,-0.640625,0.7324219,0.09375,-0.09375,0.125
417,417,1727345450694,-0.21484375,-0.63964844,0.73535156,-0.03125,0.03125,0.0
418,418,1727345450734,-0.2265625,-0.6328125,0.74121094,0.03125,-0.03125,-0.0625
419,419,1727345450774,-0.21386719,-0.6455078,0.7441406,-0.03125,0.15625,0.0
420,420,1727345450814,-0.22070312,-0.63183594,0.7324219,-0.03125,0.03125,0.125
421,421,1727345450854,-0.20996094,-0.6308594,0.74316406,-0.15625,0.09375,0.0
422,422,1727345450894,-0.21777344,-0.6464844,0.74121094,-0.09375,-0.03125,-0.125
423,423,1727345450934,-0.21386719,-0.6435547,0.73339844,-0.03125,-0.03125,0.0625
424,424,1727345450974,-0.22265625,-0.640625,0.7294922,-0.03125,-0.15625,0.0625
425,425,1727345451014,-0.22558594,-0.6386719,0.7324219,0.03125,-0.03125,0.0625
426,426,1727345451054,-0.21386719,-0.63964844,0.7324219,-0.09375,0.1875,-0.0625
427,427,1727345451094,-0.21679688,-0.63671875,0.7392578,0.03125,0.09375,-0.0625
428,428,1727345451134,-0.21875,-0.6464844,0.7314453,0.03125,0.09375,0.0
429,429,1727345451174,-0.22167969,-0.63964844,0.7363281,0.03125,-0.09375,0.0625
430,430,1727345451214,-0.21679688,-0.63964844,0.734375,-0.03125,-0.03125,-0.0625
431,431,1727345451254,-0.21484375,-0.63671875,0.7246094,-0.03125,0.0,0.125
432,432,1727345451294,-0.22070312,-0.6425781,0.734375,-0.03125,0.1875,0.0
433,433,1727345451334,-0.21679688,-0.6376953,0.7294922,0.03125,-0.0625,0.0
434,434,1727345451374,-0.21972656,-0.64453125,0.7246094,-0.03125,-0.0625,0.125
435,435,1727345451414,-0.21386719,-0.6386719,0.73535156,0.09375,-0.0625,0.0
436,436,1727345451454,-0.21582031,-0.6455078,0.73828125,-0.03125,-0.1875,0.0
437,437,1727345451494,-0.20898438,-0.640625,0.7402344,-0.03125,-0.0625,-0.0625
438,438,1727345451534,-0.21777344,-0.63671875,0.7363281,0.03125,0.0625,-0.0625
439,439,1727345451574,-0.22167969,-0.6464844,0.73828125,-0.15625,-0.0625,-0.1875
440,440,1727345451614,-0.22363281,-0.6347656,0.7246094,-0.21875,0.125,-0.1875
441,441,1727345451654,-0.20996094,-0.6425781,0.7402344,-0.03125,-0.125,-0.125
442,442,1727345451694,-0.22460938,-0.6455078,0.7314453,-0.03125,-0.25,0.0625
443,443,1727345451734,-0.21191406,-0.6435547,0.7402344,-0.03125,-0.125,-0.0625
444,444,1727345451774,-0.21484375,-0.6425781,0.7363281,0.09375,0.0625,-0.125
445,445,1727345451814,-0.21777344,-0.640625,0.72753906,0.03125,0.1875,-0.0625
446,446,1727345451854,-0.21386719,-0.6308594,0.7363281,0.03125,0.0625,-0.0625
447,447,1727345451894,-0.22167969,-0.63964844,0.73828125,-0.03125,0.0,-0.125
448,448,1727345451934,-0.21582031,-0.6328125,0.73535156,-0.09375,-0.0625,-0.125
449,449,1727345451974,-0.21679688,-0.6464844,0.72753906,-0.09375,-0.125,0.0625
450,450,1727345452014,-0.21289062,-0.64453125,0.74121094,-0.03125,0.0,0.0
451,451,1727345452054,-0.22167969,-0.64160156,0.73339844,-0.15625,-0.0625,-0.0625
452,452,1727345452094,-0.21289062,-0.6435547,0.74316406,0.15625,0.125,-0.1875
453,453,1727345452134,-0.21875,-0.6503906,0.7324219,-0.03125,-0.125,0.0
454,454,1727345452174,-0.21289062,-0.63964844,0.73339844,0.03125,-0.0625,0.0625
455,455,1727345452214,-0.21484375,-0.63964844,0.73046875,0.03125,-0.0625,0.0
456,456,1727345452254,-0.21582031,-0.63964844,0.7246094,0.03125,0.0625,-0.0625
457,457,1727345452294,-0.2265625,-0.63671875,0.7402344,0.03125,0.1875,0.0625
458,458,1727345452334,-0.21679688,-0.63671875,0.7246094,-0.03125,0.0,-0.0625
459,459,1727345452374,-0.21777344,-0.63964844,0.73046875,-0.15625,0.0,-0.125
460,460,1727345452414,-0.21777344,-0.6386719,0.74316406,-0.09375,-0.1875,-0.1875
461,461,1727345452454,-0.22363281,-0.6279297,0.72753906,-0.03125,-0.3125,0.0625
462,462,1727345452494,-0.20800781,-0.640625,0.7392578,-0.03125,-0.1875,-0.0625
463,463,1727345452534,-0.21777344,-0.64160156,0.7363281,0.03125,0.0625,0.125
464,464,1727345452574,-0.21484375,-0.6386719,0.7392578,0.03125,0.0625,0.0
465,465,1727345452614,-0.21484375,-0.640625,0.72265625,0.09375,0.1875,-0.125
466,466,1727345452654,-0.21875,-0.6386719,0.7392578,0.03125,0.125,0.0
467,467,1727345452694,-0.21679688,-0.64453125,0.7294922,-0.03125,-0.0625,0.0
468,468,1727345452734,-0.21582031,-0.6435547,0.7314453,-0.15625,0.0,0.0
469,469,1727345452774,-0.21386719,-0.65234375,0.7402344,-0.21875,0.0,-0.125
470,470,1727345452814,-0.20996094,-0.6484375,0.74316406,-0.03125,0.125,-0.125
471,471,1727345452854,-0.22070312,-0.6484375,0.7314453,0.03125,0.125,0.0625
472,472,1727345452894,-0.21679688,-0.640625,0.7392578,0.09375,-0.0625,0.0625
473,473,1727345452934,-0.21582031,-0.63964844,0.7421875,0.15625,0.0625,0.125
474,474,1727345452974,-0.21582031,-0.640625,0.73828125,0.03125,-0.0625,-0.1875
475,475,1727345453014,-0.21582031,-0.6425781,0.7246094,-0.03125,0.0,-0.0625
476,476,1727345453054,-0.22363281,-0.63183594,0.7285156,-0.03125,0.1875,-0.125
477,477,1727345453094,-0.21679688,-0.6533203,0.7402344,0.03125,0.125,0.0
478,478,1727345453134,-0.22167969,-0.6386719,0.73535156,-0.15625,0.0625,-0.1875
479,479,1727345453174,-0.22167969,-0.640625,0.74121094,-0.09375,0.125,-0.1875
480,480,1727345453214,-0.21777344,-0.64160156,0.7402344,-0.03125,-0.0625,-0.125
481,481,1727345453254,-0.21191406,-0.6484375,0.7294922,0.03125,-0.0625,0.0
482,482,1727345453294,-0.21191406,-0.6455078,0.74121094,0.03125,0.0625,0.0625
483,483,1727345453334,-0.20898438,-0.63378906,0.734375,-0.03125,0.1875,-0.0625
484,484,1727345453374,-0.21777344,-0.6425781,0.734375,0.15625,0.375,-0.1875
485,485,1727345453414,-0.2109375,-0.6455078,0.7363281,0.03125,0.125,-0.0625
486,486,1727345453454,-0.21875,-0.6435547,0.71777344,0.03125,-0.0625,0.0
487,487,1727345453494,-0.21875,-0.63378906,0.7421875,-0.15625,-0.1875,0.0
488,488,1727345453534,-0.21582031,-0.63671875,0.73535156,-0.21875,0.0,0.0
489,489,1727345453574,-0.21386719,-0.6425781,0.73046875,-0.21875,0.0,0.0625
490,490,1727345453614,-0.22070312,-0.6386719,0.7324219,0.09375,0.0625,-0.0625
491,491,1727345453654,-0.22265625,-0.6464844,0.72753906,-0.09375,-0.125,0.0625
492,492,1727345453694,-0.22851562,-0.6386719,0.7236328,0.15625,0.0625,0.1875
493,493,1727345453734,-0.20703125,-0.63671875,0.74121094,-0.09375,-0.0625,0.0625
494,494,1727345453774,-0.21679688,-0.6328125,0.73535156,0.03125,0.125,0.0
495,495,1727345453814,-0.22167969,-0.63964844,0.74902344,0.03125,0.0,0.0625
496,496,1727345453854,-0.21386719,-0.6386719,0.7363281,-0.03125,0.0,0.1875
497,497,1727345453894,-0.22265625,-0.6464844,0.7421875,-0.03125,0.125,0.0
498,498,1727345453934,-0.22070312,-0.64160156,0.7451172,-0.28125,-0.0625,0.0625
499,499,1727345453974,-0.22265625,-0.6376953,0.7324219,-0.03125,-0.1875,0.0625
500,500,1727345454014,-0.21679688,-0.6464844,0.73828125,0.03125,-0.125,0.1875
501,501,1727345454054,-0.21679688,-0.6435547,0.73339844,0.03125,-0.125,0.125
502,502,1727345454094,-0.21972656,-0.64453125,0.74316406,0.15625,0.25,0.0625
503,503,1727345454134,-0.22167969,-0.640625,0.7421875,0.15625,0.125,0.0
504,504,1727345454174,-0.22265625,-0.63378906,0.7363281,0.03125,0.125,0.125
505,505,1727345454214,-0.21777344,-0.63671875,0.7392578,-0.03125,-0.125,0.125
506,506,1727345454254,-0.21484375,-0.6328125,0.73339844,-0.03125,0.0,0.21875
507,507,1727345454294,-0.22363281,-0.64746094,0.73828125,-0.09375,-0.1875,0.0625
508,508,1727345454334,-0.21484375,-0.64160156,0.7314453,0.03125,0.125,-0.0625
509,509,1727345454374,-0.21777344,-0.64160156,0.7441406,-0.15625,0.0625,-0.125
510,510,1727345454414,-0.21484375,-0.64453125,0.74609375,0.21875,-0.0625,0.0625
511,511,1727345454454,-0.21582031,-0.6328125,0.7324219,0.09375,0.0,0.0
512,512,1727345454494,-0.2109375,-0.6347656,0.75,0.03125,0.0,-0.125
513,513,1727345454534,-0.21582031,-0.63964844,0.7421875,0.03125,0.1875,-0.125
514,514,1727345454574,-0.21386719,-0.63671875,0.72753906,-0.03125,0.0625,-0.0625
515,515,1727345454614,-0.21289062,-0.6464844,0.7392578,-0.15625,0.0,-0.125
516,516,1727345454654,-0.22265625,-0.63964844,0.7558594,-0.15625,-0.0625,-0.1875
517,517,1727345454694,-0.21191406,-0.6484375,0.72265625,-0.03125,-0.125,0.0625
518,518,1727345454734,-0.20898438,-0.6386719,0.7373047,-0.03125,-0.0625,0.0625
519,519,1727345454774,-0.21679688,-0.6425781,0.734375,0.09375,0.125,0.0625
520,520,1727345454814,-0.21484375,-0.64453125,0.72558594,0.15625,0.25,-0.0625
521,521,1727345454854,-0.22363281,-0.6425781,0.7324219,0.09375,0.1875,-0.0625
522,522,1727345454894,-0.21777344,-0.6386719,0.7470703,0.09375,0.0625,-0.0625
523,523,1727345454934,-0.21582031,-0.640625,0.7392578,-0.03125,0.0,-0.0625
524,524,1727345454974,-0.21191406,-0.6328125,0.7470703,-0.03125,0.0,0.0
525,525,1727345455014,-0.21191406,-0.64746094,0.73339844,-0.28125,0.0,-0.0625
526,526,1727345455054,-0.22265625,-0.640625,0.72753906,0.03125,0.125,-0.125
527,527,1727345455094,-0.21777344,-0.64160156,0.72265625,-0.15625,0.0,0.0625
528,528,1727345455134,-0.21777344,-0.6376953,0.7402344,0.03125,0.0,-0.0625
529,529,1727345455174,-0.21191406,-0.6376953,0.7373047,0.03125,0.03125,-0.1875
530,530,1727345455214,-0.20703125,-0.6357422,0.73535156,0.09375,-0.09375,-0.125
531,531,1727345455254,-0.22753906,-0.6328125,0.74316406,0.03125,0.15625,0.0625
532,532,1727345455294,-0.21582031,-0.6484375,0.73535156,-0.03125,0.09375,-0.1875
533,533,1727345455334,-0.21289062,-0.6464844,0.7373047,0.03125,0.03125,-0.125
534,534,1727345455374,-0.21289062,-0.63964844,0.7441406,-0.09375,-0.03125,-0.0625
535,535,1727345455414,-0.20898438,-0.63378906,0.7285156,-0.03125,-0.21875,-0.0625
536,536,1727345455454,-0.21191406,-0.6435547,0.7402344,0.03125,0.03125,-0.0625
537,537,1727345455494,-0.21191406,-0.6484375,0.72753906,0.03125,0.09375,0.0
538,538,1727345455534,-0.21875,-0.64453125,0.73828125,0.15625,0.03125,-0.0625
539,539,1727345455574,-0.2265625,-0.6455078,0.7236328,-0.03125,0.09375,0.0625
540,540,1727345455614,-0.21875,-0.6503906,0.73828125,0.09375,0.09375,-0.0625
541,541,1727345455654,-0.21679688,-0.6376953,0.72265625,0.03125,0.03125,0.0
542,542,1727345455694,-0.21679688,-0.64160156,0.7294922,-0.03125,-0.03125,0.0
543,543,1727345455734,-0.21679688,-0.64160156,0.7373047,-0.15625,0.09375,-0.1875
544,544,1727345455774,-0.22167969,-0.64746094,0.7421875,0.03125,0.09375,-0.125
545,545,1727345455814,-0.20703125,-0.6435547,0.73535156,-0.03125,-0.09375,-0.125
546,546,1727345455854,-0.22851562,-0.6455078,0.7373047,-0.03125,-0.03125,0.15625
547,547,1727345455894,-0.21289062,-0.6347656,0.734375,-0.03125,-0.03125,0.0
548,548,1727345455934,-0.21679688,-0.6435547,0.73046875,0.09375,0.03125,-0.25
549,549,1727345455974,-0.21875,-0.64160156,0.73339844,0.09375,0.03125,-0.125
550,550,1727345456014,-0.21386719,-0.64160156,0.73828125,0.03125,0.03125,0.0625
551,551,1727345456054,-0.21484375,-0.6357422,0.7314453,0.09375,0.15625,-0.125
552,552,1727345456094,-0.21777344,-0.63964844,0.734375,-0.03125,0.03125,-0.125
553,553,1727345456134,-0.22265625,-0.6435547,0.7314453,-0.03125,-0.15625,0.0625
554,554,1727345456174,-0.21484375,-0.64453125,0.7324219,-0.09375,-0.21875,0.0
555,555,1727345456214,-0.21777344,-0.63964844,0.7314453,-0.03125,-0.09375,0.0
556,556,1727345456254,-0.22167969,-0.6455078,0.7265625,0.03125,0.03125,0.0
557,557,1727345456294,-0.21875,-0.63671875,0.7402344,0.09375,0.15625,-0.0625
558,558,1727345456334,-0.22265625,-0.64160156,0.73339844,0.03125,0.21875,0.0
559,559,1727345456374,-0.21386719,-0.6347656,0.734375,0.03125,-0.03125,-0.0625
560,560,1727345456414,-0.21875,-0.63671875,0.74316406,0.09375,0.03125,-0.125
561,561,1727345456454,-0.21777344,-0.6376953,0.75,-0.09375,-0.15625,0.0
562,562,1727345456494,-0.21875,-0.6357422,0.72753906,-0.03125,-0.03125,0.0
563,563,1727345456534,-0.21386719,-0.6435547,0.7294922,-0.09375,-0.03125,-0.0625
564,564,1727345456574,-0.22460938,-0.640625,0.73828125,0.03125,0.03125,0.0625
565,565,1727345456614,-0.21972656,-0.6425781,0.7324219,0.09375,0.09375,0.0
566,566,1727345456654,-0.20898438,-0.64453125,0.7363281,0.03125,0.03125,0.0
567,567,1727345456694,-0.21582031,-0.6435547,0.7402344,0.03125,0.21875,-0.0625
568,568,1727345456734,-0.21972656,-0.6376953,0.7314453,-0.03125,-0.03125,-0.0625
569,569,1727345456774,-0.21484375,-0.640625,0.7294922,-0.03125,0.15625,-0.25
570,570,1727345456814,-0.22558594,-0.63964844,0.71484375,-0.09375,0.09375,-0.0625
571,571,1727345456854,-0.22167969,-0.6376953,0.73535156,-0.03125,-0.09375,0.0
572,572,1727345456894,-0.21777344,-0.6425781,0.7285156,-0.03125,-0.15625,0.125
573,573,1727345456934,-0.20898438,-0.6464844,0.7363281,-0.09375,-0.09375,0.125
574,574,1727345456974,-0.21386719,-0.63964844,0.7421875,0.09375,0.21875,0.0625
575,575,1727345457014,-0.22070312,-0.6357422,0.7324219,0.03125,0.21875,0.0
576,576,1727345457054,-0.21777344,-0.63964844,0.72753906,0.03125,0.15625,0.0625
577,577,1727345457094,-0.22167969,-0.63671875,0.73339844,-0.03125,-0.09375,0.0625
578,578,1727345457134,-0.21386719,-0.6357422,0.73535156,0.09375,-0.09375,-0.125
579,579,1727345457174,-0.2109375,-0.6455078,0.74316406,0.03125,-0.03125,0.0
580,580,1727345457214,-0.21386719,-0.6455078,0.7402344,-0.09375,-0.03125,-0.0625
581,581,1727345457254,-0.20996094,-0.6435547,0.7265625,-0.03125,-0.03125,-0.0625
582,582,1727345457294,-0.22265625,-0.6328125,0.73535156,-0.09375,-0.15625,0.0625
583,583,1727345457334,-0.21582031,-0.6425781,0.7363281,0.03125,0.03125,0.0625
584,584,1727345457374,-0.20898438,-0.6435547,0.73339844,-0.03125,-0.09375,0.0
585,585,1727345457414,-0.20800781,-0.64160156,0.7373047,0.09375,-0.03125,0.0
586,586,1727345457454,-0.21484375,-0.64453125,0.72753906,0.09375,0.03125,-0.0625
587,587,1727345457494,-0.22558594,-0.6464844,0.7402344,-0.03125,0.09375,0.0
588,588,1727345457534,-0.21972656,-0.6376953,0.7373047,0.03125,0.09375,0.125
589,589,1727345457574,-0.22363281,-0.64160156,0.7363281,-0.09375,0.09375,-0.0625
590,590,1727345457614,-0.21582031,-0.64160156,0.7392578,-0.03125,-0.21875,0.0
591,591,1727345457654,-0.21484375,-0.6455078,0.7421875,-0.03125,-0.09375,0.125
592,592,1727345457694,-0.21484375,-0.6386719,0.7294922,0.03125,0.03125,0.0
593,593,1727345457734,-0.21679688,-0.64746094,0.7314453,0.03125,0.15625,0.15625
594,594,1727345457774,-0.21289062,-0.6435547,0.7441406,0.09375,0.15625,0.0
595,595,1727345457814,-0.22363281,-0.640625,0.7363281,0.0,0.125,0.03125
596,596,1727345457854,-0.20800781,-0.6425781,0.7451172,0.0625,-0.0625,-0.09375
597,597,1727345457894,-0.22167969,-0.6386719,0.73339844,-0.0625,-0.1875,0.03125
598,598,1727345457934,-0.21289062,-0.6386719,0.71972656,-0.0625,-0.0625,-0.03125
599,599,1727345457974,-0.21777344,-0.6464844,0.7373047,-0.0625,0.0,0.03125
600,600,1727345458014,-0.21289062,-0.6455078,0.71777344,0.0,0.0,-0.09375
601,601,1727345458054,-0.21875,-0.63671875,0.71777344,-0.0625,-0.125,0.03125
602,602,1727345458094,-0.21679688,-0.64160156,0.74121094,0.0625,0.0,-0.03125
603,603,1727345458134,-0.21191406,-0.6386719,0.7421875,0.0625,-0.1875,-0.03125
604,604,1727345458174,-0.203125,-0.640625,0.7265625,0.125,-0.0625,0.09375
605,605,1727345458214,-0.21582031,-0.6455078,0.74121094,0.0,0.0625,0.09375
606,606,1727345458254,-0.21972656,-0.64160156,0.7314453,-0.1875,0.0,-0.03125
607,607,1727345458294,-0.21484375,-0.64160156,0.74902344,-0.1875,-0.0625,-0.03125
608,608,1727345458334,-0.2265625,-0.6328125,0.73339844,-0.125,-0.125,0.09375
609,609,1727345458374,-0.20410156,-0.6357422,0.7373047,-0.0625,-0.1875,0.09375
610,610,1727345458414,-0.20410156,-0.64160156,0.73535156,-0.0625,-0.125,0.03125
611,611,1727345458454,-0.22167969,-0.6386719,0.7314453,0.0,0.21875,-0.09375
612,612,1727345458494,-0.21679688,-0.6425781,0.7265625,0.0625,0.0625,-0.15625
613,613,1727345458534,-0.22363281,-0.6376953,0.73046875,0.0,0.0625,-0.21875
614,614,1727345458574,-0.21484375,-0.640625,0.7314453,0.0,0.0,-0.03125
615,615,1727345458614,-0.20800781,-0.640625,0.7373047,-0.0625,-0.25,-0.03125
616,616,1727345458654,-0.22265625,-0.6347656,0.7314453,-0.125,-0.0625,-0.21875
617,617,1727345458694,-0.21289062,-0.6376953,0.74316406,-0.0625,0.0625,-0.15625
618,618,1727345458734,-0.20898438,-0.63964844,0.73828125,0.0,0.0,-0.09375
619,619,1727345458774,-0.21386719,-0.6513672,0.7294922,-0.125,-0.1875,0.03125
620,620,1727345458814,-0.22558594,-0.64160156,0.73339844,0.125,0.0625,0.21875
621,621,1727345458854,-0.22167969,-0.6347656,0.7363281,0.125,0.0,-0.21875
622,622,1727345458894,-0.21582031,-0.6386719,0.7402344,0.1875,0.0,-0.15625
623,623,1727345458934,-0.21875,-0.63671875,0.74902344,-0.0625,0.0625,-0.03125
624,624,1727345458974,-0.21679688,-0.64160156,0.7314453,-0.0625,0.125,-0.15625
625,625,1727345459014,-0.21582031,-0.63183594,0.73535156,-0.0625,0.1875,-0.03125
626,626,1727345459054,-0.22167969,-0.63378906,0.73046875,-0.125,-0.0625,-0.21875
627,627,1727345459094,-0.21679688,-0.63671875,0.734375,0.0,-0.1875,0.15625
628,628,1727345459134,-0.21679688,-0.63378906,0.7265625,-0.125,-0.0625,0.03125
629,629,1727345459174,-0.21484375,-0.6376953,0.7392578,0.0,0.0625,-0.03125
630,630,1727345459214,-0.21386719,-0.6376953,0.7451172,0.0,0.125,0.03125
631,631,1727345459254,-0.21191406,-0.6386719,0.7363281,0.0625,0.125,-0.09375
632,632,1727345459294,-0.21191406,-0.65234375,0.75097656,-0.0625,-0.0625,-0.09375
633,633,1727345459334,-0.22558594,-0.6298828,0.73339844,0.0,-0.125,-0.09375
634,634,1727345459374,-0.22167969,-0.63964844,0.7373047,0.0,0.0625,-0.09375
635,635,1727345459414,-0.21679688,-0.63964844,0.73535156,-0.1875,0.0,-0.21875
636,636,1727345459454,-0.22265625,-0.6464844,0.7402344,-0.125,-0.0625,-0.28125
637,637,1727345459494,-0.21289062,-0.63964844,0.74121094,-0.125,-0.125,-0.03125
638,638,1727345459534,-0.21191406,-0.64746094,0.7265625,0.0,0.125,-0.03125
639,639,1727345459574,-0.21484375,-0.63964844,0.7402344,-0.0625,-0.0625,-0.09375
640,640,1727345459614,-0.21582031,-0.6357422,0.73339844,0.0,0.0,-0.15625
641,641,1727345459654,-0.20996094,-0.64453125,0.7236328,0.0,0.0625,-0.15625
642,642,1727345459694,-0.21386719,-0.63671875,0.7363281,-0.1875,0.0625,-0.15625
643,643,1727345459734,-0.22558594,-0.6425781,0.7314453,-0.0625,0.1875,-0.28125
644,644,1727345459774,-0.22265625,-0.63964844,0.7373047,-0.0625,0.0,-0.15625
645,645,1727345459814,-0.21191406,-0.64160156,0.7314453,-0.0625,-0.25,0.03125
646,646,1727345459854,-0.21386719,-0.640625,0.734375,-0.125,-0.1875,-0.09375
647,647,1727345459894,-0.20996094,-0.64453125,0.7285156,0.0,0.0625,-0.09375
648,648,1727345459934,-0.21289062,-0.6308594,0.7363281,0.0,0.0,-0.03125
649,649,1727345459974,-0.21191406,-0.6464844,0.7363281,0.125,0.125,-0.15625
650,650,1727345460014,-0.2109375,-0.63964844,0.7558594,0.0625,0.1875,0.03125
651,651,1727345460054,-0.21191406,-0.6484375,0.7138672,-0.125,-0.0625,-0.09375
652,652,1727345460094,-0.22753906,-0.6298828,0.734375,0.0625,0.0,0.03125
653,653,1727345460134,-0.21582031,-0.64746094,0.7324219,-0.1875,0.0625,0.03125
654,654,1727345460174,-0.22167969,-0.640625,0.74316406,0.0,0.0,-0.03125
655,655,1727345460214,-0.22167969,-0.64453125,0.72753906,-0.125,-0.1875,-0.15625
656,656,1727345460254,-0.21972656,-0.64941406,0.7392578,-0.0625,-0.0625,0.03125
657,657,1727345460294,-0.21386719,-0.6357422,0.7314453,0.0,0.0,0.03125
658,658,1727345460334,-0.20117188,-0.6376953,0.7158203,0.0,-0.125,-0.09375
659,659,1727345460374,-0.21386719,-0.6357422,0.7363281,0.0,0.0625,-0.09375
660,660,1727345460414,-0.21777344,-0.6376953,0.7451172,0.0,0.0,-0.09375
661,661,1727345460454,-0.22070312,-0.64160156,0.72558594,0.03125,0.03125,-0.09375
662,662,1727345460494,-0.22363281,-0.6484375,0.7294922,-0.03125,-0.1875,-0.03125
663,663,1727345460534,-0.21386719,-0.640625,0.7324219,-0.03125,-0.25,-0.09375
664,664,1727345460574,-0.20898438,-0.64746094,0.72753906,-0.15625,-0.1875,0.03125
665,665,1727345460614,-0.21191406,-0.640625,0.73046875,-0.03125,-0.125,0.03125
666,666,1727345460654,-0.21289062,-0.64160156,0.7294922,0.15625,-0.125,-0.03125
667,667,1727345460694,-0.20996094,-0.6357422,0.7363281,0.15625,0.09375,-0.15625
668,668,1727345460734,-0.21582031,-0.63671875,0.72558594,0.09375,0.03125,0.03125
669,669,1727345460774,-0.21875,-0.640625,0.7373047,-0.03125,-0.0625,-0.03125
670,670,1727345460814,-0.21679688,-0.64160156,0.73535156,0.03125,-0.0625,0.03125
671,671,1727345460854,-0.22167969,-0.63964844,0.7294922,-0.03125,-0.375,-0.09375
672,672,1727345460894,-0.21679688,-0.6455078,0.71484375,-0.21875,-0.0625,-0.03125
673,673,1727345460934,-0.21679688,-0.63378906,0.7285156,-0.03125,-0.0625,-0.09375
674,674,1727345460974,-0.22363281,-0.63964844,0.73828125,-0.09375,-0.3125,0.15625
675,675,1727345461014,-0.22167969,-0.63671875,0.7314453,0.21875,-0.125,0.21875
676,676,1727345461054,-0.21484375,-0.63183594,0.7519531,-0.03125,-0.125,0.09375
677,677,1727345461094,-0.20996094,-0.64160156,0.7373047,0.09375,0.03125,0.15625
678,678,1727345461134,-0.2109375,-0.6308594,0.73339844,0.15625,0.03125,0.21875
679,679,1727345461174,-0.21875,-0.63671875,0.7285156,-0.03125,-0.0625,0.09375
680,680,1727345461214,-0.20800781,-0.6425781,0.74121094,-0.03125,-0.125,0.09375
681,681,1727345461254,-0.23046875,-0.6376953,0.7402344,-0.09375,-0.1875,-0.03125
682,682,1727345461294,-0.21289062,-0.6376953,0.7373047,-0.15625,-0.25,0.21875
683,683,1727345461334,-0.22167969,-0.6455078,0.7451172,-0.15625,-0.25,0.15625
684,684,1727345461374,-0.22363281,-0.63671875,0.72265625,-0.03125,-0.125,0.15625
685,685,1727345461414,-0.21582031,-0.6347656,0.73535156,0.03125,0.09375,0.09375
686,686,1727345461454,-0.21386719,-0.6386719,0.73828125,-0.03125,-0.0625,0.09375
687,687,1727345461494,-0.21484375,-0.6386719,0.7294922,0.09375,0.09375,0.09375
688,688,1727345461534,-0.20800781,-0.6357422,0.734375,-0.03125,-0.1875,0.21875
689,689,1727345461574,-0.21875,-0.640625,0.7421875,-0.09375,-0.1875,0.09375
690,690,1727345461614,-0.21484375,-0.6425781,0.7480469,-0.03125,-0.125,0.15625
691,691,1727345461654,-0.21972656,-0.6484375,0.73535156,-0.09375,-0.125,-0.09375
692,692,1727345461694,-0.21972656,-0.6464844,0.73046875,-0.09375,-0.0625,-0.03125
693,693,1727345461734,-0.22070312,-0.64160156,0.74121094,-0.03125,-0.0625,0.21875
694,694,1727345461774,-0.203125,-0.6347656,0.73046875,0.03125,-0.1875,0.15625
695,695,1727345461814,-0.21582031,-0.6386719,0.73535156,-0.03125,-0.125,0.09375
696,696,1727345461854,-0.21484375,-0.63183594,0.72753906,0.09375,-0.125,0.03125
697,697,1727345461894,-0.22070312,-0.6455078,0.75097656,0.03125,0.03125,0.09375
698,698,1727345461934,-0.21386719,-0.64453125,0.72265625,-0.03125,0.0,0.09375
699,699,1727345461974,-0.22070312,-0.63671875,0.73046875,-0.15625,-0.125,0.03125
700,700,1727345462014,-0.22070312,-0.6376953,0.74316406,-0.03125,-0.375,0.15625
701,701,1727345462054,-0.20996094,-0.6357422,0.7402344,0.15625,-0.3125,0.15625
702,702,1727345462094,-0.21191406,-0.6503906,0.73339844,0.09375,-0.125,0.21875
703,703,1727345462134,-0.22167969,-0.63378906,0.72753906,0.03125,0.03125,0.03125
704,704,1727345462174,-0.22167969,-0.6435547,0.73535156,0.03125,0.03125,-0.09375
705,705,1727345462214,-0.21972656,-0.6386719,0.73339844,0.09375,-0.125,-0.09375
706,706,1727345462254,-0.21582031,-0.64160156,0.7167969,-0.03125,-0.125,-0.09375
707,707,1727345462294,-0.22558594,-0.6328125,0.7363281,-0.28125,-0.125,-0.03125
708,708,1727345462334,-0.21191406,-0.6386719,0.7392578,-0.21875,-0.0625,-0.15625
709,709,1727345462374,-0.21582031,-0.63671875,0.75,0.03125,0.0,-0.21875
710,710,1727345462414,-0.22070312,-0.63378906,0.7480469,0.03125,0.0,-0.09375
711,711,1727345462454,-0.21386719,-0.63964844,0.73828125,0.03125,-0.125,0.03125
712,712,1727345462494,-0.20703125,-0.64160156,0.74121094,0.03125,0.0,-0.03125
713,713,1727345462534,-0.21679688,-0.63964844,0.7451172,-0.09375,-0.125,0.03125
714,714,1727345462574,-0.21289062,-0.63671875,0.7392578,0.03125,-0.0625,-0.03125
715,715,1727345462614,-0.20800781,-0.63964844,0.7373047,0.09375,0.0,-0.03125
716,716,1727345462654,-0.21386719,-0.6386719,0.7285156,-0.03125,0.0,-0.21875
717,717,1727345462694,-0.21484375,-0.6435547,0.74609375,-0.15625,-0.0625,-0.21875
718,718,1727345462734,-0.21484375,-0.64941406,0.7392578,-0.09375,-0.1875,-0.09375
719,719,1727345462774,-0.22070312,-0.63671875,0.73339844,-0.15625,-0.125,-0.03125
720,720,1727345462814,-0.21386719,-0.6455078,0.7363281,-0.15625,-0.1875,-0.03125
721,721,1727345462854,-0.21289062,-0.63671875,0.72753906,-0.09375,-0.0625,-0.09375
722,722,1727345462894,-0.22070312,-0.6386719,0.73046875,-0.03125,0.03125,-0.09375
723,723,1727345462934,-0.22070312,-0.64746094,0.72753906,0.09375,0.15625,-0.09375
724,724,1727345462974,-0.22070312,-0.6435547,0.7314453,0.09375,-0.125,-0.09375
725,725,1727345463014,-0.21875,-0.6376953,0.74121094,0.03125,-0.1875,-0.03125
726,726,1727345463054,-0.21484375,-0.63671875,0.7441406,0.03125,0.0,-0.09375
727,727,1727345463094,-0.21972656,-0.63671875,0.7392578,-0.15625,0.0,-0.09375
728,728,1727345463134,-0.21484375,-0.6484375,0.7236328,-0.03125,0.0,-0.21875
729,729,1727345463174,-0.21679688,-0.6435547,0.7373047,-0.03125,-0.25,0.09375
730,730,1727345463214,-0.21875,-0.63964844,0.73535156,-0.03125,-0.0625,0.15625
731,731,1727345463254,-0.21289062,-0.6435547,0.7265625,-0.15625,-0.1875,0.03125
732,732,1727345463294,-0.21777344,-0.6376953,0.7294922,0.03125,0.0,-0.09375
733,733,1727345463334,-0.22167969,-0.6269531,0.7324219,-0.09375,-0.0625,-0.09375
734,734,1727345463374,-0.21582031,-0.64746094,0.734375,0.09375,0.0,-0.03125
735,735,1727345463414,-0.22167969,-0.6357422,0.73535156,-0.15625,-0.125,-0.09375
736,736,1727345463454,-0.21679688,-0.6455078,0.7373047,-0.03125,-0.1875,0.03125
737,737,1727345463494,-0.21582031,-0.6435547,0.72753906,-0.15625,-0.3125,0.09375
738,738,1727345463534,-0.20996094,-0.640625,0.7363281,-0.03125,-0.3125,-0.03125
739,739,1727345463574,-0.22167969,-0.6542969,0.734375,0.03125,-0.1875,0.15625
740,740,1727345463614,-0.22265625,-0.64453125,0.74121094,0.03125,0.03125,0.09375
741,741,1727345463654,-0.21484375,-0.64453125,0.7451172,0.03125,0.0,-0.09375
742,742,1727345463694,-0.21191406,-0.6425781,0.73046875,-0.03125,0.0,0.09375
743,743,1727345463734,-0.21875,-0.63671875,0.7236328,0.03125,0.0,0.03125
744,744,1727345463774,-0.21289062,-0.63378906,0.75097656,-0.03125,-0.1875,-0.03125
745,745,1727345463814,-0.20898438,-0.640625,0.7392578,-0.21875,-0.125,0.03125
746,746,1727345463854,-0.21972656,-0.6464844,0.7363281,0.03125,0.0,-0.03125
747,747,1727345463894,-0.21875,-0.6425781,0.7294922,-0.03125,-0.1875,0.21875
748,748,1727345463934,-0.21875,-0.64453125,0.734375,0.21875,0.0,0.15625
749,749,1727345463974,-0.21679688,-0.63964844,0.7294922,0.09375,0.09375,-0.09375
750,750,1727345464014,-0.20996094,-0.640625,0.7373047,0.09375,0.0,-0.09375
751,751,1727345464054,-0.21777344,-0.6376953,0.7373047,0.15625,0.0,0.03125
752,752,1727345464094,-0.203125,-0.6357422,0.73046875,0.03125,0.0,-0.09375
753,753,1727345464134,-0.21679688,-0.6376953,0.74121094,-0.09375,-0.0625,-0.09375
754,754,1727345464174,-0.21972656,-0.64746094,0.73339844,-0.03125,-0.1875,0.09375
755,755,1727345464214,-0.21679688,-0.64453125,0.7451172,-0.03125,-0.25,0.15625
756,756,1727345464254,-0.21289062,-0.64453125,0.72753906,-0.03125,-0.125,-0.03125
757,757,1727345464294,-0.21582031,-0.6357422,0.7392578,-0.03125,-0.125,0.15625
758,758,1727345464334,-0.22460938,-0.64160156,0.72753906,0.09375,0.15625,0.03125
759,759,1727345464374,-0.21875,-0.6376953,0.734375,0.03125,0.0625,0.0625
