,timestamp,accel_x,accel_y,accel_z,gyro_x,gyro_y,gyro_z
0,1727184581190,-1.0107422,0.06542969,-0.18945312,0.90625,-0.34375,0.21875
1,1727184581230,-1.0078125,0.072265625,-0.16894531,0.40625,-0.03125,0.0
2,1727184581270,-1.0078125,0.06933594,-0.16796875,0.15625,0.15625,-0.0625
3,1727184581310,-1.0166016,0.07714844,-0.17089844,0.21875,-0.15625,0.0625
4,1727184581350,-1.0039062,0.061523438,-0.17285156,1.8125,-0.34375,0.21875
5,1727184581390,-1.0087891,0.07714844,-0.18359375,2.1875,-0.53125,0.46875
6,1727184581430,-1.0068359,0.072265625,-0.18066406,1.375,-0.65625,0.0625
7,1727184581470,-1.0048828,0.06933594,-0.18457031,0.78125,-0.65625,0.125
8,1727184581510,-1.0068359,0.08300781,-0.18066406,0.96875,0.15625,0.125
9,1727184581550,-1.0068359,0.072265625,-0.1796875,0.28125,0.28125,0.0625
10,1727184581590,-1.0126953,0.07128906,-0.17480469,-0.4375,0.40625,0.0
11,1727184581630,-1.0039062,0.07421875,-0.17382812,0.71875,1.0625,0.125
12,1727184581670,-1.0117188,0.068359375,-0.17285156,0.90625,1.1875,0.0
13,1727184581710,-1.0146484,0.08105469,-0.16699219,0.71875,0.28125,0.0
14,1727184581750,-1.0107422,0.07519531,-0.16503906,0.40625,-0.71875,0.0
15,1727184581790,-1.0097656,0.0703125,-0.18652344,1.375,-0.46875,0.125
16,1727184581830,-1.0058594,0.07519531,-0.16601562,0.65625,-0.90625,-0.125
17,1727184581870,-1.0078125,0.06347656,-0.1796875,0.40625,-1.25,-0.25
18,1727184581910,-1.0048828,0.07128906,-0.16699219,-0.3125,-1.0625,-0.4375
19,1727184581950,-1.0009766,0.07128906,-0.17382812,-0.1875,-1.0,-0.25
20,1727184581990,-1.0107422,0.06640625,-0.17285156,-0.875,-1.625,-0.25
21,1727184582030,-1.0,0.06738281,-0.15917969,-0.8125,-1.3125,-0.375
22,1727184582070,-1.0107422,0.08203125,-0.17773438,-1.25,-0.46875,-0.5
23,1727184582110,-1.0097656,0.072265625,-0.17382812,-1.59375,-0.21875,-0.5
24,1727184582150,-1.0019531,0.07519531,-0.17382812,-1.46875,-0.28125,-0.25
25,1727184582190,-1.0107422,0.072265625,-0.17089844,-1.46875,0.34375,-0.25
26,1727184582230,-1.0048828,0.07519531,-0.18652344,-1.3125,0.8125,-0.4375
27,1727184582270,-1.0039062,0.07324219,-0.16699219,-1.0625,0.4375,-0.25
28,1727184582310,-1.0048828,0.07519531,-0.17675781,-1.0,0.34375,-0.1875
29,1727184582350,-1.0097656,0.06640625,-0.18164062,-0.5,0.4375,0.0625
30,1727184582390,-1.0019531,0.068359375,-0.19726562,-1.40625,1.375,-0.125
31,1727184582430,-1.0078125,0.07519531,-0.1875,-3.125,1.125,-0.375
32,1727184582470,-1.0087891,0.08496094,-0.18945312,-4.84375,1.3125,-1.0
33,1727184582510,-1.0097656,0.07519531,-0.16503906,-4.78125,0.9375,-1.21875
34,1727184582550,-1.0107422,0.0703125,-0.16308594,-4.78125,-0.71875,-0.75
35,1727184582590,-1.0146484,0.064453125,-0.15039062,-3.5,-1.375,-0.375
36,1727184582630,-1.0097656,0.06640625,-0.16210938,-2.46875,-1.625,-0.5
37,1727184582670,-0.9980469,0.06640625,-0.15917969,-0.25,-1.5,0.0
38,1727184582710,-1.0126953,0.0625,-0.17285156,-0.09375,-1.75,0.0
39,1727184582750,-1.0097656,0.078125,-0.17773438,-0.5625,-1.0625,0.0
40,1727184582790,-1.0009766,0.076171875,-0.16601562,-1.125,-0.84375,-0.0625
41,1727184582830,-1.0107422,0.06933594,-0.171875,-1.1875,-0.53125,0.0625
42,1727184582870,-1.0087891,0.05859375,-0.16796875,-0.6875,-0.03125,0.15625
43,1727184582910,-1.0097656,0.0703125,-0.16894531,-0.125,0.34375,0.125
44,1727184582950,-1.0166016,0.072265625,-0.16601562,-0.5625,-0.21875,0.34375
45,1727184582990,-1.0136719,0.061523438,-0.16210938,1.03125,-0.15625,0.46875
46,1727184583030,-1.0087891,0.080078125,-0.17871094,-0.4375,0.21875,0.0625
47,1727184583070,-1.0117188,0.07128906,-0.17089844,1.09375,-0.90625,0.40625
48,1727184583110,-1.0214844,0.06933594,-0.1796875,2.0,0.15625,0.46875
49,1727184583150,-1.0048828,0.076171875,-0.17773438,0.96875,0.6875,0.15625
50,1727184583190,-0.9970703,0.06640625,-0.17871094,1.15625,0.4375,0.34375
51,1727184583230,-1.0048828,0.068359375,-0.16796875,1.5625,0.9375,0.46875
52,1727184583270,-1.0136719,0.06933594,-0.17578125,1.5625,1.5625,0.34375
53,1727184583310,-1.0136719,0.0703125,-0.18066406,1.625,1.4375,0.21875
54,1727184583350,-1.0185547,0.07128906,-0.171875,1.5625,0.875,0.46875
55,1727184583390,-1.0117188,0.064453125,-0.19238281,1.09375,0.34375,0.125
56,1727184583430,-1.0058594,0.07128906,-0.16992188,1.03125,-0.21875,-0.125
57,1727184583470,-1.0048828,0.07324219,-0.16992188,0.09375,-0.53125,-0.0625
58,1727184583510,-1.0058594,0.07324219,-0.17382812,0.53125,-0.09375,-0.0625
59,1727184583550,-1.0039062,0.0703125,-0.16699219,0.34375,0.34375,0.125
60,1727184583590,-1.0097656,0.06738281,-0.17675781,1.09375,0.5625,0.0625
61,1727184583630,-1.0117188,0.0703125,-0.1875,1.09375,0.875,0.28125
62,1727184583670,-1.0097656,0.08105469,-0.16699219,0.03125,0.6875,0.0
63,1727184583710,-1.0058594,0.072265625,-0.18261719,0.96875,-0.28125,0.46875
64,1727184583750,-1.0009766,0.06347656,-0.17285156,1.03125,0.03125,0.21875
65,1727184583790,-1.0078125,0.061523438,-0.18457031,0.03125,0.15625,0.125
66,1727184583830,-1.0068359,0.06347656,-0.17480469,0.53125,0.21875,0.0
67,1727184583870,-1.0048828,0.0703125,-0.18261719,0.34375,0.28125,0.0625
68,1727184583910,-1.0107422,0.07128906,-0.17773438,0.71875,0.5,0.21875
69,1727184583950,-1.0087891,0.078125,-0.18164062,0.03125,1.0625,-0.1875
70,1727184583990,-1.0136719,0.07519531,-0.1796875,-1.3125,-0.15625,-0.0625
71,1727184584030,-1.0078125,0.0625,-0.17675781,0.53125,-0.28125,0.46875
72,1727184584070,-1.0,0.068359375,-0.1875,-0.6875,0.5,0.0625
73,1727184584110,-1.0,0.059570312,-0.18164062,-0.5625,0.03125,0.0625
74,1727184584150,-1.0058594,0.061523438,-0.16992188,-0.6875,0.40625,0.0625
75,1727184584190,-1.0087891,0.0703125,-0.16894531,-0.375,0.4375,0.21875
76,1727184584230,-1.0039062,0.06347656,-0.171875,-0.5625,-0.09375,0.28125
77,1727184584270,-1.0136719,0.064453125,-0.18261719,-0.09375,-0.21875,0.28125
78,1727184584310,-1.0058594,0.072265625,-0.18945312,-0.4375,-0.15625,0.15625
79,1727184584350,-1.0029297,0.07128906,-0.1796875,-0.09375,-0.28125,0.0
80,1727184584390,-0.9980469,0.07519531,-0.18847656,-0.09375,-0.34375,0.34375
81,1727184584430,-1.0087891,0.06347656,-0.18457031,0.59375,-0.09375,0.53125
82,1727184584470,-1.0097656,0.080078125,-0.17871094,-0.03125,0.5,0.15625
83,1727184584510,-1.0117188,0.072265625,-0.19726562,-0.03125,0.21875,0.46875
84,1727184584550,-1.0058594,0.068359375,-0.18457031,-0.5,-0.15625,0.34375
85,1727184584590,-1.0048828,0.06933594,-0.17578125,-0.1875,-0.21875,0.34375
86,1727184584630,-1.0087891,0.076171875,-0.1953125,-0.625,-0.28125,0.0625
87,1727184584670,-1.0039062,0.07324219,-0.17675781,-0.9375,-0.78125,-0.0625
88,1727184584710,-1.0166016,0.076171875,-0.18652344,-1.375,-0.71875,-0.0625
89,1727184584750,-1.0029297,0.06640625,-0.18164062,-0.8125,-0.03125,-0.0625
90,1727184584790,-1.0,0.0703125,-0.18261719,-1.3125,-0.03125,-0.125
91,1727184584830,-1.0117188,0.0703125,-0.19140625,-0.4375,-0.40625,0.0625
92,1727184584870,-1.0019531,0.060546875,-0.17480469,-0.125,-0.21875,0.125
93,1727184584910,-1.0009766,0.07324219,-0.18261719,-0.5,-0.03125,-0.125
94,1727184584950,-0.99902344,0.07324219,-0.18261719,-0.5,-0.09375,0.0
95,1727184584990,-1.0029297,0.072265625,-0.1796875,-0.375,0.5,-0.125
96,1727184585030,-0.99902344,0.07421875,-0.18359375,-1.46875,0.5625,-0.125
97,1727184585070,-1.0146484,0.07324219,-0.1875,-0.9375,0.03125,-0.0625
98,1727184585110,-1.0068359,0.06640625,-0.18554688,-0.25,0.03125,0.0625
99,1727184585150,-1.0097656,0.0703125,-0.171875,-0.5625,-0.15625,-0.25
100,1727184585190,-1.0136719,0.07324219,-0.17480469,0.09375,-0.59375,-0.0625
101,1727184585230,-1.0058594,0.07421875,-0.17675781,0.46875,-0.53125,0.15625
102,1727184585270,-1.0078125,0.07421875,-0.19238281,0.59375,-0.21875,0.28125
103,1727184585310,-1.0087891,0.068359375,-0.17871094,0.40625,-0.21875,0.28125
104,1727184585350,-1.0048828,0.072265625,-0.17089844,0.53125,0.5,0.15625
105,1727184585390,-1.0136719,0.080078125,-0.18457031,0.21875,0.28125,0.0625
106,1727184585430,-1.0078125,0.06933594,-0.18457031,0.65625,-0.59375,0.28125
107,1727184585470,-1.0048828,0.06640625,-0.18847656,0.78125,-0.34375,0.21875
108,1727184585510,-1.0136719,0.068359375,-0.19335938,-0.03125,-0.15625,-0.0625
109,1727184585550,-1.0058594,0.06640625,-0.18066406,0.15625,-0.28125,0.21875
110,1727184585590,-1.0019531,0.07324219,-0.18066406,0.21875,-0.15625,0.21875
111,1727184585630,-1.0117188,0.07421875,-0.18457031,-0.25,0.21875,0.125
112,1727184585670,-1.0136719,0.0703125,-0.18554688,-0.03125,0.03125,0.15625
113,1727184585710,-1.0029297,0.06933594,-0.1796875,-0.03125,0.09375,0.21875
114,1727184585750,-1.0087891,0.06640625,-0.16113281,-0.09375,0.03125,0.125
115,1727184585790,-1.0097656,0.06542969,-0.18164062,-0.1875,-0.15625,0.21875
116,1727184585830,-1.0068359,0.07128906,-0.1640625,-0.625,0.03125,0.15625
117,1727184585870,-1.0126953,0.07421875,-0.1796875,-0.1875,0.21875,0.15625
118,1727184585910,-1.0126953,0.0703125,-0.17285156,-0.5,0.40625,-0.0625
119,1727184585950,-1.0146484,0.07421875,-0.18164062,-0.375,0.5,0.125
120,1727184585990,-1.0136719,0.078125,-0.18066406,-0.25,0.15625,0.21875
121,1727184586030,-1.0136719,0.064453125,-0.19335938,0.65625,-0.21875,0.40625
122,1727184586070,-1.0048828,0.072265625,-0.18652344,0.40625,0.15625,0.15625
123,1727184586110,-1.0,0.0703125,-0.17675781,0.09375,0.09375,0.125
124,1727184586150,-1.0048828,0.068359375,-0.17773438,0.28125,0.28125,0.15625
125,1727184586190,-1.015625,0.072265625,-0.18066406,-0.03125,0.5625,0.125
126,1727184586230,-1.0068359,0.06738281,-0.18554688,-0.4375,0.03125,0.15625
127,1727184586270,-1.0068359,0.07128906,-0.18164062,0.46875,0.09375,0.15625
128,1727184586310,-1.0029297,0.0703125,-0.18066406,0.03125,0.03125,0.0625
129,1727184586350,-1.0136719,0.07421875,-0.17578125,0.28125,-0.15625,0.21875
130,1727184586390,-1.0107422,0.06640625,-0.18945312,0.09375,-0.03125,0.15625
131,1727184586430,-1.0019531,0.06738281,-0.18945312,-0.25,-0.21875,-0.1875
132,1727184586470,-1.0107422,0.076171875,-0.18261719,-0.375,-0.53125,0.21875
133,1727184586510,-1.0048828,0.07519531,-0.17871094,-0.125,-0.28125,0.125
134,1727184586550,-1.0039062,0.07324219,-0.18554688,-0.375,0.09375,-0.125
135,1727184586590,-1.0136719,0.068359375,-0.18457031,-0.9375,-0.09375,-0.25
136,1727184586630,-1.0009766,0.0703125,-0.1875,-0.625,-0.53125,-0.25
137,1727184586670,-1.0126953,0.06542969,-0.16699219,-1.25,-1.0625,-0.1875
138,1727184586710,-1.0185547,0.06738281,-0.16015625,-0.3125,-1.75,-0.0625
139,1727184586750,-1.0117188,0.07128906,-0.17675781,-0.4375,-1.625,-0.0625
140,1727184586790,-1.0087891,0.06738281,-0.18554688,-0.09375,-1.1875,0.21875
141,1727184586830,-1.0078125,0.07324219,-0.18164062,0.40625,-0.90625,0.28125
142,1727184586870,-1.0058594,0.07910156,-0.18554688,-0.3125,-0.65625,0.0
143,1727184586910,-1.0068359,0.07128906,-0.17285156,-0.03125,0.09375,0.125
144,1727184586950,-1.0205078,0.07910156,-0.1796875,-0.8125,0.15625,0.0625
145,1727184586990,-1.0136719,0.06933594,-0.1953125,-0.625,0.09375,0.125
146,1727184587030,-1.0097656,0.0625,-0.17480469,-0.1875,0.15625,0.0
147,1727184587070,-1.0097656,0.06933594,-0.17382812,-0.375,-0.03125,0.125
148,1727184587110,-1.0107422,0.0703125,-0.18554688,-0.03125,0.28125,0.125
149,1727184587150,-1.0058594,0.07910156,-0.17285156,-0.625,1.0,0.15625
150,1727184587190,-1.0087891,0.06640625,-0.17480469,0.21875,1.4375,0.40625
151,1727184587230,-1.0117188,0.072265625,-0.16699219,0.59375,1.1875,0.34375
152,1727184587270,-1.0097656,0.064453125,-0.16894531,0.21875,0.9375,0.0625
153,1727184587310,-1.0117188,0.08300781,-0.18652344,0.34375,0.03125,0.28125
154,1727184587350,-1.0019531,0.068359375,-0.18652344,0.65625,-0.03125,0.21875
155,1727184587390,-1.0087891,0.06933594,-0.18554688,0.46875,0.34375,0.21875
156,1727184587430,-1.0039062,0.0703125,-0.17871094,0.03125,0.28125,0.0625
157,1727184587470,-1.0039062,0.07324219,-0.18847656,0.09375,0.4375,0.0625
158,1727184587510,-1.0078125,0.0703125,-0.17871094,0.15625,0.15625,0.125
159,1727184587550,-1.0078125,0.07128906,-0.17578125,0.21875,-0.28125,0.34375
160,1727184587590,-1.0009766,0.0703125,-0.18164062,-0.375,0.15625,0.0625
161,1727184587630,-1.0058594,0.06933594,-0.19238281,-0.03125,0.625,0.125
162,1727184587670,-1.0126953,0.068359375,-0.17871094,-0.1875,0.875,0.34375
163,1727184587710,-1.0107422,0.06738281,-0.17480469,-0.1875,0.5625,0.125
164,1727184587750,-1.0019531,0.07324219,-0.17773438,-0.75,0.09375,0.125
165,1727184587790,-1.0175781,0.06933594,-0.17871094,0.15625,0.09375,0.46875
166,1727184587830,-1.0068359,0.078125,-0.1875,-0.09375,0.03125,0.0625
167,1727184587870,-1.0136719,0.068359375,-0.17675781,-0.375,-0.78125,0.0
168,1727184587910,-1.0146484,0.07519531,-0.1796875,0.71875,-0.53125,0.34375
169,1727184587950,-1.015625,0.07910156,-0.18066406,0.09375,-0.09375,0.0625
170,1727184587990,-1.0107422,0.08300781,-0.18066406,0.34375,-0.59375,0.40625
171,1727184588030,-1.0097656,0.064453125,-0.19042969,0.71875,-0.28125,0.28125
172,1727184588070,-1.0078125,0.07714844,-0.19238281,-0.03125,0.21875,-0.0625
173,1727184588110,-1.0117188,0.068359375,-0.17773438,0.40625,0.03125,0.21875
174,1727184588150,-1.0078125,0.07421875,-0.18847656,0.40625,0.40625,0.15625
175,1727184588190,-1.0029297,0.080078125,-0.18457031,-0.03125,0.15625,0.125
176,1727184588230,-1.0136719,0.068359375,-0.1796875,0.40625,0.5,0.125
177,1727184588270,-1.0117188,0.06640625,-0.17675781,-0.375,0.03125,0.0
178,1727184588310,-1.0126953,0.07128906,-0.18652344,0.59375,0.28125,0.34375
179,1727184588350,-1.0048828,0.064453125,-0.1796875,-0.03125,0.34375,0.125
180,1727184588390,-1.0078125,0.080078125,-0.18359375,-0.03125,0.21875,0.21875
181,1727184588430,-1.0039062,0.07324219,-0.18261719,0.03125,0.34375,0.0625
182,1727184588470,-1.0087891,0.072265625,-0.19042969,0.46875,0.21875,0.15625
183,1727184588510,-1.0117188,0.0703125,-0.19042969,0.21875,0.03125,0.21875
184,1727184588550,-1.0087891,0.072265625,-0.19042969,0.09375,-0.21875,0.125
185,1727184588590,-0.9941406,0.072265625,-0.18359375,0.15625,0.21875,0.125
186,1727184588630,-1.0126953,0.072265625,-0.18066406,0.46875,0.21875,0.15625
187,1727184588670,-1.0107422,0.07519531,-0.18945312,-0.09375,0.15625,-0.0625
188,1727184588710,-1.0097656,0.072265625,-0.17675781,0.03125,0.03125,0.125
189,1727184588750,-1.0117188,0.068359375,-0.18261719,0.28125,0.03125,0.15625
190,1727184588790,-1.0107422,0.07421875,-0.19433594,0.03125,0.03125,0.0
191,1727184588830,-1.0097656,0.0703125,-0.17578125,-0.125,-0.28125,0.0625
192,1727184588870,-1.0,0.07324219,-0.18066406,0.40625,0.09375,0.15625
193,1727184588910,-1.0048828,0.07128906,-0.18164062,-0.1875,-0.03125,-0.0625
194,1727184588950,-1.0068359,0.07324219,-0.18164062,0.21875,-0.53125,0.21875
195,1727184588990,-1.0078125,0.072265625,-0.18847656,-0.09375,-0.40625,0.21875
196,1727184589030,-1.0078125,0.0703125,-0.19238281,0.21875,-0.09375,0.125
197,1727184589070,-1.0078125,0.06347656,-0.19042969,-0.09375,-0.09375,0.125
198,1727184589110,-1.0029297,0.07421875,-0.18554688,-0.3125,-0.40625,-0.125
199,1727184589150,-1.0087891,0.072265625,-0.18164062,-0.25,-0.34375,0.125
200,1727184589190,-1.0097656,0.0703125,-0.18261719,-0.4375,-0.40625,-0.0625
201,1727184589230,-0.9980469,0.06738281,-0.18066406,-0.5,-0.21875,0.0625
202,1727184589270,-1.0058594,0.06347656,-0.18554688,-0.09375,-0.03125,0.125
203,1727184589310,-1.0058594,0.07324219,-0.19433594,-0.3125,-0.09375,0.0
204,1727184589350,-1.0048828,0.07714844,-0.18066406,-0.1875,-0.28125,0.0625
205,1727184589390,-1.0087891,0.07324219,-0.17285156,-0.09375,-0.53125,0.15625
206,1727184589430,-1.0048828,0.06738281,-0.19042969,-0.75,-0.28125,-0.125
207,1727184589470,-1.0097656,0.06933594,-0.18261719,-0.6875,-0.40625,0.0
208,1727184589510,-1.0107422,0.06347656,-0.18847656,-0.09375,-0.40625,0.125
209,1727184589550,-1.0,0.07128906,-0.18066406,-0.5625,-0.46875,0.0
210,1727184589590,-1.0029297,0.072265625,-0.18945312,0.03125,-0.46875,0.21875
211,1727184589630,-1.0019531,0.078125,-0.18359375,-0.1875,-0.09375,0.0625
212,1727184589670,-1.0068359,0.06933594,-0.17285156,-0.1875,-0.09375,0.0
213,1727184589710,-1.0068359,0.076171875,-0.17773438,-0.625,-0.21875,0.0625
214,1727184589750,-1.0048828,0.07324219,-0.18847656,-0.09375,-0.28125,0.125
215,1727184589790,-1.0097656,0.080078125,-0.17675781,0.46875,-0.28125,0.0625
216,1727184589830,-1.0058594,0.076171875,-0.1796875,-0.09375,-0.15625,0.0625
217,1727184589870,-1.0087891,0.07519531,-0.18359375,0.34375,0.09375,0.0
218,1727184589910,-1.0107422,0.060546875,-0.19140625,0.46875,-0.03125,0.125
219,1727184589950,-0.99609375,0.06933594,-0.18164062,0.21875,0.03125,0.0625
220,1727184589990,-1.0048828,0.07519531,-0.18652344,0.15625,-0.15625,0.0
221,1727184590030,-1.0068359,0.072265625,-0.19140625,0.40625,-0.15625,0.15625
222,1727184590070,-1.0117188,0.07519531,-0.1796875,0.21875,-0.03125,0.0625
223,1727184590110,-1.0078125,0.07128906,-0.17382812,-0.1875,-0.28125,0.0625
224,1727184590150,-1.0117188,0.06738281,-0.18945312,-0.03125,0.03125,0.0625
225,1727184590190,-1.0087891,0.06738281,-0.18847656,-0.5625,-0.09375,-0.125
226,1727184590230,-1.0039062,0.07324219,-0.18164062,-0.6875,-0.34375,-0.0625
227,1727184590270,-1.0068359,0.06933594,-0.19433594,-0.125,-0.28125,0.125
228,1727184590310,-1.0039062,0.06933594,-0.18164062,-0.375,-0.15625,0.0625
229,1727184590350,-1.0166016,0.06933594,-0.17480469,0.21875,-0.09375,0.34375
230,1727184590390,-1.0146484,0.06933594,-0.17578125,-0.25,0.09375,0.0625
231,1727184590430,-1.0009766,0.07128906,-0.17382812,-0.3125,-0.34375,0.21875
232,1727184590470,-1.0107422,0.07128906,-0.18359375,0.15625,-0.46875,0.28125
233,1727184590510,-1.0048828,0.07519531,-0.19238281,-0.375,-0.09375,0.15625
234,1727184590550,-1.0107422,0.07714844,-0.18261719,-0.1875,-0.15625,0.15625
235,1727184590590,-1.0078125,0.078125,-0.17578125,-0.09375,-0.15625,0.21875
236,1727184590630,-1.0009766,0.07421875,-0.16894531,-0.125,0.28125,0.0625
237,1727184590670,-1.0068359,0.06347656,-0.17480469,0.15625,0.21875,0.15625
238,1727184590710,-1.0107422,0.080078125,-0.17773438,0.09375,0.625,-0.0625
239,1727184590750,-1.0009766,0.076171875,-0.17773438,-1.1875,0.5625,-0.1875
240,1727184590790,-1.0107422,0.07910156,-0.16992188,-0.75,-0.21875,0.15625
241,1727184590830,-1.0029297,0.07324219,-0.1796875,0.03125,0.15625,0.0625
242,1727184590870,-1.0107422,0.0625,-0.17480469,-0.9375,0.09375,-0.5
243,1727184590910,-1.0019531,0.0703125,-0.19042969,-0.03125,0.34375,-0.375
244,1727184590950,-1.0039062,0.078125,-0.19335938,0.21875,0.9375,-0.4375
245,1727184590990,-1.0097656,0.0859375,-0.18457031,-0.5,1.3125,-0.5
246,1727184591030,-1.0097656,0.06640625,-0.18652344,-0.5625,0.15625,-0.1875
247,1727184591070,-1.0097656,0.056640625,-0.1796875,0.03125,0.28125,-0.125
248,1727184591110,-1.0029297,0.06542969,-0.17871094,-0.875,0.40625,-0.625
249,1727184591150,-1.0136719,0.07421875,-0.18261719,0.34375,0.09375,-0.3125
250,1727184591190,-1.0097656,0.07421875,-0.19433594,0.71875,0.75,-0.3125
251,1727184591230,-1.0029297,0.072265625,-0.17578125,-0.25,1.1875,-0.75
252,1727184591270,-1.0126953,0.06542969,-0.17871094,-0.3125,-0.15625,-0.0625
253,1727184591310,-1.0146484,0.061523438,-0.1953125,0.84375,0.21875,0.15625
254,1727184591350,-1.0117188,0.06347656,-0.1875,-0.875,0.625,-0.5625
255,1727184591390,-1.0117188,0.06640625,-0.18847656,0.28125,-0.21875,-0.125
256,1727184591430,-1.0078125,0.059570312,-0.18066406,0.21875,0.15625,-0.125
257,1727184591470,-0.99609375,0.064453125,-0.1953125,0.21875,0.21875,-0.0625
258,1727184591510,-1.0117188,0.057617188,-0.1875,-0.125,-0.28125,-0.0625
259,1727184591550,-1.0039062,0.064453125,-0.1796875,0.59375,-0.09375,0.34375
260,1727184591590,-1.0009766,0.068359375,-0.18652344,0.03125,0.28125,0.0625
261,1727184591630,-1.0048828,0.0703125,-0.18554688,0.21875,-0.09375,0.15625
262,1727184591670,-1.0048828,0.06933594,-0.19824219,-0.09375,0.03125,0.21875
263,1727184591710,-1.0029297,0.06738281,-0.18554688,-0.03125,0.09375,0.15625
264,1727184591750,-1.0,0.060546875,-0.18945312,-0.5,-0.34375,0.21875
265,1727184591790,-1.0087891,0.06738281,-0.18359375,-0.1875,-0.46875,0.21875
266,1727184591830,-1.0068359,0.0703125,-0.1875,-0.09375,0.03125,0.0
267,1727184591870,-1.0029297,0.07421875,-0.17578125,-0.375,-0.28125,0.21875
268,1727184591910,-1.0068359,0.07128906,-0.19140625,0.34375,-0.21875,0.28125
269,1727184591950,-1.0097656,0.0703125,-0.17871094,-0.09375,0.03125,0.125
270,1727184591990,-1.0107422,0.07128906,-0.19042969,0.03125,-0.28125,0.21875
271,1727184592030,-1.0078125,0.072265625,-0.1796875,-0.1875,-0.34375,0.125
272,1727184592070,-1.0126953,0.07324219,-0.19433594,0.03125,-0.21875,0.0625
273,1727184592110,-0.99902344,0.08300781,-0.18457031,-0.125,-0.53125,-0.125
274,1727184592150,-1.0087891,0.08496094,-0.18164062,0.03125,-0.40625,-0.0625
275,1727184592190,-1.0029297,0.07324219,-0.18164062,-0.1875,-0.46875,0.125
276,1727184592230,-0.99902344,0.06640625,-0.19042969,-0.1875,-0.09375,0.0625
277,1727184592270,-1.0029297,0.06640625,-0.19433594,-0.375,0.34375,-0.0625
278,1727184592310,-1.0039062,0.07324219,-0.1796875,-0.75,0.40625,-0.1875
279,1727184592350,-1.0175781,0.07421875,-0.20019531,-0.09375,0.21875,0.125
280,1727184592390,-0.99902344,0.06640625,-0.1953125,-0.1875,0.28125,-0.125
281,1727184592430,-1.0126953,0.07421875,-0.18652344,-0.75,-0.53125,-0.1875
282,1727184592470,-1.0048828,0.06933594,-0.19140625,0.53125,-0.9375,0.15625
283,1727184592510,-1.0078125,0.06738281,-0.18945312,-0.4375,-0.53125,-0.25
284,1727184592550,-1.0039062,0.0625,-0.17675781,0.03125,-0.53125,-0.0625
285,1727184592590,-1.0078125,0.06640625,-0.17871094,0.90625,-0.28125,0.34375
286,1727184592630,-1.0166016,0.06933594,-0.1953125,0.59375,0.34375,0.0625
287,1727184592670,-1.0087891,0.07128906,-0.19042969,0.59375,-0.03125,0.0
288,1727184592710,-1.0097656,0.07128906,-0.19042969,0.84375,-0.28125,0.28125
289,1727184592750,-1.0126953,0.068359375,-0.20117188,0.59375,-0.34375,0.15625
290,1727184592790,-1.0068359,0.06542969,-0.16992188,0.28125,-0.15625,0.125
291,1727184592830,-1.0019531,0.0703125,-0.18847656,0.40625,-0.21875,0.15625
292,1727184592870,-1.0068359,0.07324219,-0.18261719,0.65625,-0.28125,0.15625
293,1727184592910,-1.0175781,0.064453125,-0.18066406,0.65625,-0.40625,0.125
294,1727184592950,-1.0029297,0.06933594,-0.19238281,0.40625,-0.40625,0.125
295,1727184592990,-1.0019531,0.07714844,-0.19335938,0.53125,-0.21875,0.21875
296,1727184593030,-1.0019531,0.072265625,-0.18359375,0.28125,-0.28125,0.21875
297,1727184593070,-1.0058594,0.06542969,-0.18359375,-0.125,-0.21875,0.15625
298,1727184593110,-1.0039062,0.06640625,-0.18945312,-0.25,-0.21875,0.0625
299,1727184593150,-1.0087891,0.068359375,-0.18652344,-0.125,-0.21875,-0.125
300,1727184593190,-1.0097656,0.07910156,-0.18945312,-0.75,-0.40625,-0.125
301,1727184593230,-1.0009766,0.07128906,-0.1953125,-0.125,-0.65625,0.0
302,1727184593270,-1.0068359,0.06347656,-0.19335938,-0.25,-0.21875,0.15625
303,1727184593310,-0.9951172,0.0703125,-0.17871094,-0.09375,-0.09375,0.0
304,1727184593350,-1.0029297,0.06933594,-0.18164062,-0.3125,0.09375,-0.0625
305,1727184593390,-1.0058594,0.068359375,-0.16992188,0.03125,-0.15625,0.0625
306,1727184593430,-1.0146484,0.068359375,-0.17578125,-0.09375,-0.53125,0.0625
307,1727184593470,-1.0009766,0.06738281,-0.18261719,0.03125,-0.28125,-0.0625
308,1727184593510,-1.0136719,0.06738281,-0.18652344,-0.1875,-0.21875,-0.125
309,1727184593550,-1.0107422,0.0703125,-0.19042969,0.15625,-0.34375,-0.0625
310,1727184593590,-1.015625,0.059570312,-0.17480469,0.03125,-0.21875,0.0625
311,1727184593630,-1.0078125,0.072265625,-0.18652344,-0.09375,-0.34375,-0.0625
312,1727184593670,-1.0078125,0.068359375,-0.17480469,-0.09375,-0.03125,-0.125
313,1727184593710,-1.0068359,0.06933594,-0.18359375,-0.09375,0.15625,0.0625
314,1727184593750,-1.0126953,0.06640625,-0.17480469,0.09375,0.15625,-0.0625
315,1727184593790,-0.99902344,0.06738281,-0.18945312,0.09375,-0.15625,0.0625
316,1727184593830,-1.0136719,0.06933594,-0.18652344,0.34375,-0.03125,0.125
317,1727184593870,-1.0078125,0.064453125,-0.171875,-0.09375,-0.09375,0.0
318,1727184593910,-1.0107422,0.06542969,-0.19824219,0.34375,-0.34375,0.125
319,1727184593950,-1.0029297,0.061523438,-0.18652344,0.03125,-0.15625,0.125
320,1727184593990,-1.0,0.06347656,-0.19140625,-0.03125,-0.53125,0.0625
321,1727184594030,-1.0009766,0.06738281,-0.18066406,-0.09375,-0.34375,-0.0625
322,1727184594070,-1.0029297,0.07128906,-0.17578125,-0.09375,-0.28125,0.0625
323,1727184594110,-1.0087891,0.0703125,-0.17675781,0.21875,-0.21875,0.28125
324,1727184594150,-1.0097656,0.06933594,-0.18457031,0.21875,-0.09375,0.21875
325,1727184594190,-1.0048828,0.07128906,-0.18847656,0.03125,-0.09375,0.0
326,1727184594230,-1.015625,0.07421875,-0.19335938,-0.03125,-0.09375,0.125
327,1727184594270,-1.0019531,0.068359375,-0.18554688,-0.09375,0.03125,0.0625
328,1727184594310,-1.0117188,0.076171875,-0.18652344,0.09375,-0.15625,0.15625
329,1727184594350,-1.0,0.068359375,-0.18359375,-0.5,0.09375,-0.0625
330,1727184594390,-1.0136719,0.068359375,-0.18066406,-0.1875,0.03125,-0.0625
331,1727184594430,-1.0039062,0.0703125,-0.16503906,-0.09375,-0.34375,0.125
332,1727184594470,-1.0146484,0.07128906,-0.17871094,0.15625,-0.46875,-0.0625
333,1727184594510,-1.0019531,0.076171875,-0.18847656,-0.03125,-0.28125,0.0
334,1727184594550,-1.0068359,0.06347656,-0.17382812,0.09375,0.09375,-0.0625
335,1727184594590,-1.0097656,0.0703125,-0.1796875,-0.09375,0.40625,0.0
336,1727184594630,-1.0048828,0.07128906,-0.18066406,-0.125,-0.09375,-0.0625
337,1727184594670,-1.0068359,0.068359375,-0.19335938,-0.09375,-0.09375,0.0
338,1727184594710,-1.0029297,0.07421875,-0.19824219,0.03125,0.21875,-0.0625
339,1727184594750,-1.0039062,0.0625,-0.18652344,0.09375,0.03125,-0.0625
340,1727184594790,-1.0029297,0.068359375,-0.1875,-0.09375,-0.34375,-0.0625
341,1727184594830,-1.0058594,0.059570312,-0.18261719,0.28125,-0.03125,0.0
342,1727184594870,-1.0039062,0.061523438,-0.18261719,-0.1875,-0.03125,-0.1875
343,1727184594910,-1.0146484,0.07324219,-0.19042969,-0.3125,-0.15625,0.0625
344,1727184594950,-1.0078125,0.07128906,-0.18652344,-0.09375,-0.03125,-0.125
345,1727184594990,-0.99609375,0.060546875,-0.18554688,-0.5,0.5,-0.1875
346,1727184595030,-1.0087891,0.07519531,-0.17578125,-1.0,0.5625,-0.125
347,1727184595070,-1.015625,0.06640625,-0.17382812,-0.8125,0.15625,-0.15625
348,1727184595110,-1.0117188,0.06933594,-0.16699219,-0.03125,-0.28125,0.03125
349,1727184595150,-1.0087891,0.07421875,-0.17871094,-0.3125,-0.53125,-0.03125
350,1727184595190,-1.0097656,0.072265625,-0.19042969,-0.03125,-0.46875,-0.03125
351,1727184595230,-1.0019531,0.06738281,-0.17675781,0.40625,0.15625,0.03125
352,1727184595270,-1.0087891,0.072265625,-0.19433594,-0.125,0.09375,0.09375
353,1727184595310,-1.0136719,0.07128906,-0.17285156,-0.09375,-0.15625,0.03125
354,1727184595350,-1.0078125,0.06738281,-0.19628906,0.03125,-0.03125,0.03125
355,1727184595390,-1.0087891,0.06738281,-0.19140625,0.15625,-0.03125,-0.03125
356,1727184595430,-1.0029297,0.07519531,-0.17871094,0.15625,-0.21875,0.03125
357,1727184595470,-0.99121094,0.061523438,-0.17382812,0.03125,0.09375,-0.03125
358,1727184595510,-1.0039062,0.06933594,-0.18066406,0.15625,0.25,0.03125
359,1727184595550,-1.0058594,0.0703125,-0.1875,0.03125,0.15625,0.03125
360,1727184595590,-1.0009766,0.07324219,-0.16699219,-0.3125,0.25,-0.21875
361,1727184595630,-1.0146484,0.06738281,-0.1875,-0.1875,0.25,-0.03125
362,1727184595670,-1.0175781,0.064453125,-0.18847656,0.28125,-0.15625,-0.09375
363,1727184595710,-1.0058594,0.07714844,-0.18457031,0.09375,-0.03125,0.03125
364,1727184595750,-1.0048828,0.06933594,-0.18457031,0.03125,0.03125,0.03125
365,1727184595790,-1.0136719,0.06933594,-0.18359375,-0.03125,-0.15625,-0.09375
366,1727184595830,-1.0146484,0.061523438,-0.19335938,0.15625,0.21875,0.09375
367,1727184595870,-1.0117188,0.06542969,-0.18847656,-0.125,0.5,-0.03125
368,1727184595910,-1.0097656,0.0703125,-0.17773438,-0.375,0.09375,-0.09375
369,1727184595950,-1.0117188,0.06347656,-0.17773438,-0.03125,-0.09375,0.03125
370,1727184595990,-1.0107422,0.07421875,-0.18457031,-0.03125,-0.28125,0.09375
371,1727184596030,-1.0078125,0.07421875,-0.18652344,0.03125,-0.15625,0.03125
372,1727184596070,-1.0097656,0.07128906,-0.18261719,-0.125,0.03125,-0.03125
373,1727184596110,-1.0078125,0.076171875,-0.19433594,0.09375,-0.03125,-0.09375
374,1727184596150,-1.0126953,0.06738281,-0.1796875,0.15625,0.03125,0.03125
375,1727184596190,-1.0009766,0.06933594,-0.18359375,-0.3125,0.09375,-0.09375
376,1727184596230,-1.0097656,0.06640625,-0.16796875,-0.1875,0.375,-0.03125
377,1727184596270,-1.0029297,0.06347656,-0.16601562,-0.03125,0.625,0.03125
378,1727184596310,-1.0107422,0.07519531,-0.17382812,-0.09375,0.03125,0.09375
379,1727184596350,-1.0068359,0.068359375,-0.18945312,-0.03125,-0.40625,0.09375
380,1727184596390,-1.0087891,0.064453125,-0.1875,0.21875,-0.15625,0.21875
381,1727184596430,-1.0097656,0.0625,-0.18652344,0.40625,-0.28125,0.09375
382,1727184596470,-1.0097656,0.06933594,-0.19824219,-0.125,-0.03125,-0.03125
383,1727184596510,-1.0029297,0.072265625,-0.18164062,0.34375,0.21875,0.03125
384,1727184596550,-1.0107422,0.06738281,-0.17773438,-0.09375,-0.28125,0.03125
385,1727184596590,-1.0117188,0.06542969,-0.18261719,0.34375,-0.03125,0.03125
386,1727184596630,-1.0136719,0.06640625,-0.18164062,-0.6875,-0.21875,-0.09375
387,1727184596670,-1.0107422,0.06542969,-0.18652344,0.34375,-0.40625,0.15625
388,1727184596710,-1.0078125,0.06542969,-0.19140625,0.03125,-0.09375,0.03125
389,1727184596750,-1.0078125,0.06542969,-0.17089844,0.03125,-0.15625,-0.09375
390,1727184596790,-1.0019531,0.0703125,-0.19433594,-0.09375,-0.65625,0.28125
391,1727184596830,-1.0039062,0.06542969,-0.19042969,0.09375,0.03125,0.03125
392,1727184596870,-1.0087891,0.064453125,-0.18945312,-0.125,0.15625,-0.03125
393,1727184596910,-1.0117188,0.08105469,-0.18847656,-0.375,-0.15625,-0.03125
394,1727184596950,-1.0078125,0.0703125,-0.19824219,0.34375,-0.21875,0.09375
395,1727184596990,-1.0068359,0.06933594,-0.18457031,0.46875,-0.03125,0.03125
396,1727184597030,-1.0107422,0.06933594,-0.19238281,0.28125,0.15625,-0.03125
397,1727184597070,-1.0078125,0.076171875,-0.1875,0.21875,0.21875,0.15625
398,1727184597110,-1.0126953,0.068359375,-0.17382812,0.28125,0.375,0.09375
399,1727184597150,-1.0068359,0.06933594,-0.1953125,-0.03125,-0.03125,-0.03125
400,1727184597190,-1.0058594,0.064453125,-0.18847656,0.28125,-0.21875,0.15625
401,1727184597230,-1.0097656,0.0625,-0.18261719,0.15625,0.03125,-0.03125
402,1727184597270,-1.0087891,0.06640625,-0.18066406,0.15625,-0.28125,-0.03125
403,1727184597310,-1.0097656,0.064453125,-0.19433594,0.15625,-0.21875,0.09375
404,1727184597350,-1.0029297,0.08300781,-0.18847656,0.71875,-0.03125,0.21875
405,1727184597390,-1.0048828,0.06933594,-0.1796875,0.09375,0.03125,-0.15625
406,1727184597430,-1.0107422,0.07324219,-0.19042969,-0.03125,0.03125,-0.03125
407,1727184597470,-0.9980469,0.06738281,-0.171875,0.15625,0.03125,0.09375
408,1727184597510,-1.0107422,0.06640625,-0.19824219,0.15625,-0.03125,-0.03125
409,1727184597550,-1.0,0.0703125,-0.18652344,-0.03125,-0.15625,0.09375
410,1727184597590,-1.0087891,0.078125,-0.19140625,-0.03125,-0.15625,-0.09375
411,1727184597630,-1.0,0.076171875,-0.18164062,0.09375,-0.15625,-0.03125
412,1727184597670,-1.0019531,0.068359375,-0.18652344,0.21875,-0.15625,0.09375
413,1727184597710,-1.0058594,0.06933594,-0.18652344,-0.03125,-0.09375,0.0
414,1727184597750,-0.9980469,0.072265625,-0.18945312,0.03125,-0.09375,0.0
415,1727184597790,-1.0097656,0.06933594,-0.17675781,-0.09375,-0.15625,-0.0625
416,1727184597830,-1.0029297,0.07714844,-0.1796875,-0.03125,-0.40625,-0.0625
417,1727184597870,-1.0009766,0.06347656,-0.18457031,0.03125,-0.53125,-0.125
418,1727184597910,-1.0068359,0.0703125,-0.19238281,0.03125,-0.15625,-0.125
419,1727184597950,-1.0078125,0.06347656,-0.18164062,-0.40625,-0.03125,-0.1875
420,1727184597990,-1.0126953,0.0703125,-0.17773438,-0.40625,-0.03125,-0.0625
421,1727184598030,-1.0058594,0.0625,-0.17382812,-0.09375,0.15625,0.0
422,1727184598070,-1.0029297,0.06933594,-0.17089844,-0.6875,-0.28125,-0.25
423,1727184598110,-1.0107422,0.06640625,-0.16601562,0.09375,-0.46875,0.09375
424,1727184598150,-1.0,0.068359375,-0.1796875,0.09375,-0.34375,-0.0625
425,1727184598190,-1.0058594,0.07519531,-0.18554688,-0.40625,-0.40625,-0.25
426,1727184598230,-1.0117188,0.068359375,-0.17382812,-0.28125,-0.15625,-0.125
427,1727184598270,-1.0136719,0.0703125,-0.17871094,-0.28125,-0.03125,-0.1875
428,1727184598310,-1.0068359,0.06640625,-0.18164062,-0.21875,-0.09375,-0.25
429,1727184598350,-1.0117188,0.06738281,-0.17871094,-0.21875,-0.21875,-0.1875
430,1727184598390,-1.0029297,0.07519531,-0.18261719,-0.28125,-0.09375,-0.125
431,1727184598430,-1.0039062,0.061523438,-0.17480469,-0.28125,-0.03125,-0.25
432,1727184598470,-1.0107422,0.072265625,-0.16992188,-0.34375,-0.09375,-0.1875
433,1727184598510,-1.0078125,0.06640625,-0.19140625,-0.21875,-0.03125,0.0
434,1727184598550,-1.0117188,0.064453125,-0.17285156,-0.09375,0.21875,-0.1875
435,1727184598590,-1.0019531,0.06542969,-0.18066406,-0.34375,0.40625,-0.1875
436,1727184598630,-1.0107422,0.05859375,-0.18164062,-0.09375,0.15625,-0.1875
437,1727184598670,-1.0029297,0.06347656,-0.17480469,-0.28125,-0.15625,0.0
438,1727184598710,-1.0136719,0.06933594,-0.18066406,-0.15625,-0.28125,0.0
439,1727184598750,-1.0068359,0.06738281,-0.18164062,0.40625,0.09375,0.03125
440,1727184598790,-1.0029297,0.072265625,-0.19433594,-0.03125,0.53125,-0.25
441,1727184598830,-1.0136719,0.07324219,-0.17285156,-0.4375,0.15625,-0.125
442,1727184598870,-1.0078125,0.072265625,-0.17773438,-0.28125,-0.15625,0.0
443,1727184598910,-1.0087891,0.06640625,-0.17480469,0.46875,0.09375,0.03125
444,1727184598950,-1.0058594,0.057617188,-0.19238281,-0.4375,0.03125,-0.125
445,1727184598990,-1.0107422,0.0625,-0.1796875,-0.28125,-0.46875,-0.0625
446,1727184599030,-1.0097656,0.068359375,-0.18847656,-0.21875,0.03125,-0.1875
447,1727184599070,-1.0117188,0.07128906,-0.1796875,-0.15625,-0.15625,0.0
448,1727184599110,-1.0019531,0.0625,-0.16992188,-0.625,0.03125,0.0
449,1727184599150,-1.0126953,0.07324219,-0.18554688,-0.34375,0.34375,0.0
450,1727184599190,-1.0097656,0.060546875,-0.17871094,-0.40625,0.28125,-0.0625
451,1727184599230,-1.0107422,0.06542969,-0.16796875,-0.5625,0.09375,-0.0625
452,1727184599270,-1.0117188,0.06542969,-0.17089844,0.03125,-0.09375,0.03125
453,1727184599310,-1.0136719,0.0625,-0.18261719,-0.28125,0.03125,-0.1875
454,1727184599350,-0.99902344,0.0703125,-0.17871094,-0.21875,0.09375,-0.125
455,1727184599390,-1.0126953,0.060546875,-0.17480469,-0.15625,0.15625,-0.0625
456,1727184599430,-1.0019531,0.06640625,-0.16894531,0.09375,0.21875,-0.0625
457,1727184599470,-1.0146484,0.068359375,-0.17382812,-0.09375,0.09375,-0.125
458,1727184599510,-1.0097656,0.07324219,-0.18164062,0.15625,-0.09375,0.09375
459,1727184599550,-1.0058594,0.06542969,-0.1640625,-0.15625,-0.34375,0.09375
460,1727184599590,-1.0107422,0.06640625,-0.17480469,0.03125,-0.40625,0.03125
461,1727184599630,-1.0009766,0.06347656,-0.18652344,-0.15625,-0.03125,-0.0625
462,1727184599670,-1.0078125,0.0703125,-0.18066406,-0.21875,-0.03125,0.0
463,1727184599710,-1.0087891,0.061523438,-0.17480469,-0.28125,0.15625,-0.0625
464,1727184599750,-1.0078125,0.06738281,-0.171875,-0.21875,0.34375,-0.1875
465,1727184599790,-1.0136719,0.07519531,-0.16894531,-0.15625,-0.21875,0.0
466,1727184599830,-1.0107422,0.06933594,-0.18554688,0.15625,-0.28125,-0.0625
467,1727184599870,-1.0019531,0.07421875,-0.18261719,-0.15625,-0.53125,-0.25
468,1727184599910,-1.0039062,0.06542969,-0.17675781,0.03125,-0.59375,-0.3125
469,1727184599950,-1.0048828,0.06738281,-0.1796875,-0.8125,-0.34375,-0.5
470,1727184599990,-1.0087891,0.07324219,-0.17285156,-0.5625,-0.09375,-0.4375
471,1727184600030,-1.0009766,0.060546875,-0.17871094,0.09375,0.03125,0.0
472,1727184600070,-1.0078125,0.06933594,-0.18066406,-0.28125,0.21875,-0.25
473,1727184600110,-1.0058594,0.076171875,-0.18261719,-0.34375,-0.03125,0.0
474,1727184600150,-0.99902344,0.07128906,-0.18261719,-0.15625,0.21875,-0.1875
475,1727184600190,-1.0009766,0.08105469,-0.171875,-0.21875,0.21875,0.03125
476,1727184600230,-1.0097656,0.07128906,-0.17382812,-1.3125,0.40625,-0.25
477,1727184600270,-1.0097656,0.06933594,-0.17871094,-0.75,-0.03125,-0.0625
478,1727184600310,-1.0078125,0.06640625,-0.17382812,-1.1875,0.21875,-0.375
479,1727184600350,-1.0166016,0.056640625,-0.17382812,-0.875,-0.09375,-0.1875
480,1727184600390,-1.0048828,0.059570312,-0.17285156,-0.28125,-0.28125,0.03125
481,1727184600430,-1.0117188,0.064453125,-0.17578125,-0.28125,-0.34375,-0.0625
482,1727184600470,-1.0078125,0.060546875,-0.16699219,-0.15625,-0.34375,-0.125
483,1727184600510,-1.0068359,0.07128906,-0.17285156,-0.34375,-0.46875,-0.0625
484,1727184600550,-1.0087891,0.06640625,-0.17382812,-0.625,-0.09375,-0.125
485,1727184600590,-1.0097656,0.076171875,-0.18164062,-0.21875,0.40625,-0.0625
486,1727184600630,-1.0097656,0.07324219,-0.16992188,-0.34375,0.65625,-0.25
487,1727184600670,-1.0126953,0.07714844,-0.17089844,-0.8125,0.34375,-0.0625
488,1727184600710,-1.0136719,0.0625,-0.16699219,0.21875,0.34375,0.09375
489,1727184600750,-1.0146484,0.060546875,-0.17578125,-0.9375,-0.03125,-0.25
490,1727184600790,-1.0107422,0.060546875,-0.18359375,0.09375,-0.53125,0.0
491,1727184600830,-1.0039062,0.06542969,-0.17578125,0.15625,0.09375,-0.0625
492,1727184600870,-1.0097656,0.06738281,-0.17480469,-0.09375,0.65625,-0.25
493,1727184600910,-1.0087891,0.07421875,-0.16992188,-0.15625,-0.28125,0.15625
494,1727184600950,-1.015625,0.06738281,-0.171875,0.65625,0.15625,0.03125
495,1727184600990,-1.0058594,0.064453125,-0.18261719,-0.4375,-0.15625,-0.1875
496,1727184601030,-1.0175781,0.06542969,-0.18066406,0.15625,-0.28125,0.03125
497,1727184601070,-1.0146484,0.053710938,-0.17675781,0.21875,0.34375,0.0
498,1727184601110,-1.0097656,0.06640625,-0.15917969,-0.21875,0.28125,-0.125
499,1727184601150,-1.0097656,0.07324219,-0.18359375,0.03125,0.28125,0.0
500,1727184601190,-1.0068359,0.055664062,-0.1484375,-0.03125,0.28125,0.0
501,1727184601230,-1.0087891,0.06640625,-0.16601562,-0.4375,0.03125,-0.1875
502,1727184601270,-1.0029297,0.0625,-0.17578125,-0.40625,-0.21875,-0.1875
503,1727184601310,-1.0087891,0.06347656,-0.17285156,-0.09375,0.15625,-0.125
504,1727184601350,-1.0048828,0.06738281,-0.17871094,-0.21875,0.03125,-0.125
505,1727184601390,-1.0048828,0.0625,-0.17675781,-0.09375,0.21875,-0.125
506,1727184601430,-1.0146484,0.06542969,-0.17480469,-0.4375,0.09375,-0.1875
507,1727184601470,-1.015625,0.06738281,-0.16796875,-0.09375,-0.21875,-0.125
508,1727184601510,-1.0068359,0.0625,-0.16796875,-0.21875,-0.09375,-0.0625
509,1727184601550,-0.9980469,0.07519531,-0.16992188,-0.09375,-0.28125,0.0
510,1727184601590,-1.0214844,0.06542969,-0.17089844,-0.15625,0.28125,-0.1875
511,1727184601630,-1.0048828,0.064453125,-0.16894531,-0.28125,0.34375,-0.1875
512,1727184601670,-1.0,0.068359375,-0.16894531,-0.21875,0.03125,-0.125
513,1727184601710,-1.0078125,0.0625,-0.171875,-0.5,-0.09375,-0.1875
514,1727184601750,-1.0087891,0.072265625,-0.17773438,-0.28125,-0.09375,-0.0625
515,1727184601790,-1.0175781,0.0625,-0.1640625,-0.40625,-0.03125,-0.0625
516,1727184601830,-1.0126953,0.072265625,-0.18066406,-0.5,0.03125,-0.0625
517,1727184601870,-1.0117188,0.07324219,-0.16796875,0.09375,0.03125,0.03125
518,1727184601910,-1.0087891,0.0625,-0.16796875,0.28125,-0.03125,0.21875
519,1727184601950,-1.015625,0.06738281,-0.17773438,0.34375,0.28125,0.09375
520,1727184601990,-1.0136719,0.06933594,-0.16503906,-0.09375,0.40625,0.03125
521,1727184602030,-1.0166016,0.072265625,-0.16308594,-0.5625,-0.03125,-0.1875
522,1727184602070,-1.0126953,0.0625,-0.15820312,-0.21875,-0.09375,0.09375
523,1727184602110,-1.0087891,0.0625,-0.17480469,0.15625,0.03125,0.15625
524,1727184602150,-1.0078125,0.07128906,-0.16992188,-0.09375,0.09375,0.15625
525,1727184602190,-1.0019531,0.055664062,-0.1640625,0.15625,0.15625,0.21875
526,1727184602230,-1.0136719,0.0703125,-0.17675781,0.34375,0.28125,0.09375
527,1727184602270,-1.0117188,0.0703125,-0.17285156,0.03125,-0.09375,0.09375
528,1727184602310,-1.0136719,0.068359375,-0.16699219,-0.09375,0.03125,0.0
529,1727184602350,-1.0117188,0.07519531,-0.16894531,-0.34375,0.09375,-0.0625
530,1727184602390,-1.0039062,0.07421875,-0.17382812,-0.75,-0.15625,-0.0625
531,1727184602430,-1.0068359,0.06933594,-0.1640625,-0.5,-0.09375,-0.125
532,1727184602470,-1.0058594,0.07128906,-0.16699219,-0.4375,0.09375,0.0
533,1727184602510,-1.0029297,0.0703125,-0.18261719,-0.5625,0.09375,-0.1875
534,1727184602550,-1.0126953,0.064453125,-0.18554688,-0.5625,0.21875,-0.125
535,1727184602590,-1.0175781,0.061523438,-0.18457031,-0.34375,0.15625,-0.0625
536,1727184602630,-1.0107422,0.06933594,-0.16796875,-0.5,0.09375,-0.25
537,1727184602670,-1.0087891,0.06933594,-0.17382812,-0.34375,-0.15625,-0.0625
538,1727184602710,-1.0146484,0.064453125,-0.17089844,0.09375,-0.09375,0.0
539,1727184602750,-1.0039062,0.06542969,-0.16503906,-0.09375,0.03125,-0.25
540,1727184602790,-1.0107422,0.06347656,-0.17089844,-0.09375,0.59375,-0.25
541,1727184602830,-1.0126953,0.06933594,-0.17480469,0.21875,0.15625,0.0
542,1727184602870,-1.0078125,0.06933594,-0.18066406,0.03125,0.03125,-0.0625
543,1727184602910,-1.0058594,0.06347656,-0.16796875,0.78125,0.53125,0.21875
544,1727184602950,-1.0117188,0.06347656,-0.17382812,0.84375,0.21875,-0.0625
545,1727184602990,-1.0087891,0.06640625,-0.16699219,-1.3125,0.15625,-0.5625
546,1727184603030,-1.0068359,0.07128906,-0.17089844,-1.625,-0.46875,-0.25
547,1727184603070,-1.0039062,0.064453125,-0.16210938,0.09375,-0.21875,0.15625
548,1727184603110,-0.99902344,0.0625,-0.17578125,-1.125,0.09375,-0.375
549,1727184603150,-1.0087891,0.072265625,-0.16992188,-1.6875,-0.21875,-0.5
550,1727184603190,-1.0048828,0.06933594,-0.16894531,-1.125,0.09375,-0.4375
551,1727184603230,-1.0058594,0.053710938,-0.16796875,0.03125,-0.8125,-0.0625
552,1727184603270,-0.99902344,0.048828125,-0.16601562,-1.25,-2.96875,-0.4375
553,1727184603310,-1.0107422,0.072265625,-0.16503906,-1.25,-1.90625,-0.75
554,1727184603350,-1.0048828,0.068359375,-0.17089844,2.84375,-3.875,0.53125
555,1727184603390,-1.0117188,0.061523438,-0.17773438,-0.09375,-1.6875,-0.6875
556,1727184603430,-1.0107422,0.078125,-0.16894531,5.46875,-6.4375,0.03125
557,1727184603470,-1.0185547,0.07714844,-0.1640625,16.8125,-7.15625,-0.0625
558,1727184603510,-1.0009766,0.078125,-0.13867188,16.875,-4.96875,0.40625
559,1727184603550,-1.0097656,0.07519531,-0.140625,6.9375,-14.6875,3.53125
560,1727184603590,-1.0136719,0.033203125,-0.12109375,5.59375,-2.40625,1.625
561,1727184603630,-1.0185547,0.07519531,-0.13378906,-8.75,-4.65625,-1.0625
562,1727184603670,-1.0195312,0.045898438,-0.12890625,-3.3125,1.875,-0.375
563,1727184603710,-1.015625,0.072265625,-0.12109375,-2.34375,1.1875,-0.875
564,1727184603750,-1.0117188,0.040039062,-0.13476562,-3.375,0.03125,-0.75
565,1727184603790,-1.0146484,0.076171875,-0.12597656,-1.84375,-2.59375,-0.25
566,1727184603830,-1.0214844,0.045898438,-0.099609375,3.75,-1.0,0.34375
567,1727184603870,-1.0009766,0.08105469,-0.12988281,-6.1875,-6.0,-0.125
568,1727184603910,-1.0117188,0.048828125,-0.1328125,3.5625,-1.1875,0.46875
569,1727184603950,-1.0107422,0.06542969,-0.11230469,1.8125,-1.3125,0.09375
570,1727184603990,-1.0136719,0.06640625,-0.13671875,1.125,-3.09375,0.71875
571,1727184604030,-1.0234375,0.059570312,-0.11328125,4.78125,-1.0625,0.96875
572,1727184604070,-1.0087891,0.06347656,-0.12890625,-0.15625,-3.9375,0.84375
573,1727184604110,-1.0214844,0.059570312,-0.11816406,3.6875,-1.8125,0.65625
574,1727184604150,-1.0146484,0.06933594,-0.10644531,2.1875,-1.96875,0.09375
575,1727184604190,-1.0078125,0.055664062,-0.11816406,0.71875,-1.25,0.59375
576,1727184604230,-1.0195312,0.07324219,-0.11035156,2.125,-0.09375,-0.3125
577,1727184604270,-1.0126953,0.05859375,-0.12011719,1.1875,-1.25,0.65625
578,1727184604310,-1.0166016,0.078125,-0.109375,1.3125,-0.75,0.21875
579,1727184604350,-1.0175781,0.06347656,-0.1171875,2.28125,-0.21875,0.65625
580,1727184604390,-1.0166016,0.072265625,-0.10253906,1.1875,0.09375,-0.125
581,1727184604430,-1.0253906,0.068359375,-0.095703125,3.21875,-0.875,0.84375
582,1727184604470,-1.0214844,0.064453125,-0.11328125,0.53125,-0.46875,0.21875
583,1727184604510,-1.0332031,0.0703125,-0.09667969,1.6875,-0.34375,0.09375
584,1727184604550,-1.0175781,0.07421875,-0.10058594,1.1875,-1.0,0.15625
585,1727184604590,-1.0107422,0.06933594,-0.11425781,1.3125,-1.5,0.34375
586,1727184604630,-1.0146484,0.06933594,-0.12011719,1.0,0.28125,0.03125
587,1727184604670,-1.015625,0.0703125,-0.11621094,0.15625,0.53125,0.09375
588,1727184604710,-1.0107422,0.07519531,-0.10839844,-0.21875,0.28125,0.28125
589,1727184604750,-1.0205078,0.056640625,-0.10644531,0.9375,0.40625,0.03125
590,1727184604790,-1.0195312,0.0703125,-0.11035156,-0.4375,0.40625,-0.125
591,1727184604830,-1.0263672,0.0625,-0.10253906,-0.15625,0.03125,0.34375
592,1727184604870,-1.0136719,0.068359375,-0.11816406,-1.0625,0.46875,-0.1875
593,1727184604910,-1.0244141,0.0703125,-0.09375,1.5,1.125,0.40625
594,1727184604950,-1.0126953,0.06542969,-0.123046875,-0.03125,0.9375,0.53125
595,1727184604990,-1.0224609,0.07324219,-0.08886719,1.0,0.9375,0.15625
596,1727184605030,-1.0224609,0.064453125,-0.111328125,-1.375,-0.75,0.59375
597,1727184605070,-1.0185547,0.059570312,-0.115234375,-2.21875,0.53125,-0.625
598,1727184605110,-1.0224609,0.07714844,-0.09082031,0.53125,-0.625,0.34375
599,1727184605150,-1.0107422,0.057617188,-0.12890625,-2.15625,-1.0,0.28125
600,1727184605190,-1.0166016,0.07324219,-0.12011719,0.34375,-0.15625,0.21875
601,1727184605230,-1.0146484,0.06640625,-0.1328125,-0.9375,-0.15625,0.46875
602,1727184605270,-1.0175781,0.06738281,-0.11035156,0.09375,0.53125,0.28125
603,1727184605310,-1.015625,0.07128906,-0.10449219,-0.5,0.53125,0.28125
604,1727184605350,-1.0126953,0.08203125,-0.099609375,-2.03125,-0.09375,0.09375
605,1727184605390,-1.0263672,0.048828125,-0.10058594,1.4375,0.59375,0.65625
606,1727184605430,-1.0146484,0.0703125,-0.12207031,-2.96875,0.09375,-0.375
607,1727184605470,-1.0175781,0.06542969,-0.12011719,1.0625,-0.15625,0.21875
608,1727184605510,-1.0244141,0.0859375,-0.09765625,-1.5,0.59375,0.09375
609,1727184605550,-1.0224609,0.07910156,-0.119140625,-0.6875,-0.28125,0.46875
610,1727184605590,-1.0253906,0.078125,-0.09375,-0.5,1.3125,0.09375
611,1727184605630,-1.0166016,0.076171875,-0.115234375,-1.5,0.09375,0.59375
612,1727184605670,-1.0097656,0.07421875,-0.09765625,-0.8125,1.375,-0.125
613,1727184605710,-1.0166016,0.07714844,-0.11230469,-0.03125,-0.28125,0.46875
614,1727184605750,-1.0185547,0.072265625,-0.099609375,-0.03125,0.40625,0.15625
615,1727184605790,-1.0195312,0.07324219,-0.12109375,-0.5,-0.625,0.40625
616,1727184605830,-1.0205078,0.06933594,-0.099609375,0.21875,-0.46875,0.59375
617,1727184605870,-1.0205078,0.080078125,-0.10546875,0.71875,-0.34375,0.34375
618,1727184605910,-1.0146484,0.060546875,-0.11621094,1.375,-1.4375,0.90625
619,1727184605950,-1.0126953,0.07324219,-0.12109375,-1.5,0.09375,-0.125
620,1727184605990,-1.0234375,0.064453125,-0.11230469,-0.40625,0.46875,0.46875
621,1727184606030,-1.0214844,0.076171875,-0.1171875,-0.9375,0.40625,-0.125
622,1727184606070,-1.015625,0.078125,-0.119140625,-0.09375,-0.09375,0.40625
623,1727184606110,-1.0292969,0.08984375,-0.09667969,-0.21875,0.09375,0.21875
624,1727184606150,-1.0107422,0.07714844,-0.10839844,0.09375,0.65625,0.90625
625,1727184606190,-1.0126953,0.072265625,-0.09277344,-1.0,1.5625,-0.125
626,1727184606230,-1.0166016,0.07324219,-0.10253906,-0.6875,-0.03125,0.59375
627,1727184606270,-1.0205078,0.083984375,-0.10644531,0.28125,0.71875,0.15625
628,1727184606310,-1.015625,0.07128906,-0.103515625,-0.5,-0.03125,0.03125
629,1727184606350,-1.0126953,0.083984375,-0.111328125,-2.15625,-0.875,-0.3125
630,1727184606390,-1.0146484,0.06933594,-0.119140625,-1.84375,-0.625,-0.0625
631,1727184606430,-1.015625,0.07910156,-0.11621094,-1.5625,0.65625,-0.4375
632,1727184606470,-1.0224609,0.08496094,-0.10253906,-1.375,0.15625,-0.0625
633,1727184606510,-1.0175781,0.0703125,-0.11816406,-0.09375,0.46875,0.21875
634,1727184606550,-1.015625,0.0859375,-0.091796875,-2.28125,0.65625,-0.5
635,1727184606590,-1.0195312,0.07910156,-0.12597656,1.5,-0.09375,0.71875
636,1727184606630,-1.0205078,0.08300781,-0.11328125,-0.5,0.03125,-0.1875
637,1727184606670,-1.0224609,0.08105469,-0.11425781,-1.5,0.34375,0.03125
638,1727184606710,-1.0224609,0.078125,-0.111328125,-1.1875,1.375,-0.0625
639,1727184606750,-1.0136719,0.08496094,-0.09082031,-0.8125,0.21875,0.0
640,1727184606790,-1.0136719,0.068359375,-0.119140625,-0.75,0.15625,0.21875
641,1727184606830,-1.0253906,0.083984375,-0.111328125,-0.9375,0.71875,-0.125
642,1727184606870,-1.0117188,0.07910156,-0.12207031,0.875,-1.125,0.65625
643,1727184606910,-1.015625,0.08300781,-0.11621094,-0.5,0.40625,-0.125
644,1727184606950,-1.0253906,0.0859375,-0.1171875,-0.4375,0.03125,0.03125
645,1727184606990,-1.015625,0.078125,-0.099609375,-0.40625,0.15625,-0.25
646,1727184607030,-1.0166016,0.07128906,-0.11816406,0.40625,0.21875,0.09375
647,1727184607070,-1.0126953,0.080078125,-0.12109375,-2.34375,0.03125,-0.1875
648,1727184607110,-1.0195312,0.072265625,-0.119140625,0.15625,-0.03125,-0.0625
649,1727184607150,-1.0117188,0.06933594,-0.09277344,0.28125,0.40625,-0.0625
650,1727184607190,-1.0146484,0.08300781,-0.125,0.28125,0.46875,0.28125
651,1727184607230,-1.0058594,0.08984375,-0.107421875,-1.5625,1.0,-0.4375
652,1727184607270,-1.0214844,0.07519531,-0.11230469,1.8125,1.4375,0.34375
653,1727184607310,-1.0166016,0.08203125,-0.099609375,-1.6875,1.0,-0.5625
654,1727184607350,-1.0195312,0.064453125,-0.119140625,-0.03125,-1.125,0.40625
655,1727184607390,-1.0185547,0.078125,-0.08691406,-1.6875,1.0625,-0.9375
656,1727184607430,-1.0117188,0.07714844,-0.1328125,0.03125,-0.40625,0.34375
657,1727184607470,-1.0253906,0.076171875,-0.11035156,-0.4375,1.0625,-0.5625
658,1727184607510,-1.0175781,0.08496094,-0.10253906,1.375,-0.75,0.46875
659,1727184607550,-1.0205078,0.06542969,-0.10253906,-1.5,0.09375,-0.5
660,1727184607590,-1.0175781,0.07519531,-0.0859375,1.4375,0.28125,0.09375
661,1727184607630,-1.0136719,0.08203125,-0.107421875,-1.6875,-1.875,-0.25
662,1727184607670,-1.0136719,0.0703125,-0.10546875,1.125,-1.6875,-0.0625
663,1727184607710,-1.0136719,0.08203125,-0.1171875,0.28125,-0.28125,-0.5625
664,1727184607750,-1.0126953,0.08300781,-0.12109375,-0.40625,-0.03125,-0.0625
665,1727184607790,-1.0214844,0.07714844,-0.10449219,-0.09375,1.875,-0.5
666,1727184607830,-1.0126953,0.08203125,-0.13085938,-3.03125,3.4375,-1.0625
667,1727184607870,-1.0117188,0.06738281,-0.10839844,-2.21875,3.8125,-1.0625
668,1727184607910,-1.0214844,0.07519531,-0.11328125,0.40625,2.34375,0.0
669,1727184607950,-1.0195312,0.07421875,-0.10058594,-1.71875,0.46875,-0.5625
670,1727184607990,-1.0166016,0.07324219,-0.07910156,3.28125,-0.8125,0.40625
671,1727184608030,-1.0117188,0.0625,-0.15429688,-2.46875,-0.75,-0.25
672,1727184608070,-1.015625,0.08691406,-0.109375,2.46875,0.71875,-0.3125
673,1727184608110,-1.0136719,0.07324219,-0.103515625,1.3125,0.21875,0.09375
674,1727184608150,-1.015625,0.09082031,-0.12011719,0.53125,-0.6875,0.21875
675,1727184608190,-1.0185547,0.0703125,-0.12109375,2.125,0.59375,0.0
676,1727184608230,-1.0058594,0.07910156,-0.12207031,-2.03125,1.0,-0.6875
677,1727184608270,-1.0195312,0.083984375,-0.11035156,0.34375,1.6875,-0.3125
678,1727184608310,-1.0126953,0.08691406,-0.12011719,1.375,-0.03125,0.46875
679,1727184608350,-1.0146484,0.07519531,-0.10058594,-0.5,0.21875,-0.1875
680,1727184608390,-1.0244141,0.080078125,-0.1015625,1.25,1.0,0.0
681,1727184608430,-1.0097656,0.061523438,-0.12695312,0.28125,0.28125,0.59375
682,1727184608470,-1.0283203,0.07324219,-0.115234375,0.09375,0.875,-0.1875
683,1727184608510,-1.0175781,0.07910156,-0.10058594,2.59375,-0.09375,0.78125
684,1727184608550,-1.0234375,0.08105469,-0.1171875,-0.5,0.75,0.0
685,1727184608590,-1.0126953,0.072265625,-0.12597656,0.59375,0.21875,0.53125
686,1727184608630,-1.0195312,0.07128906,-0.099609375,-1.0625,0.34375,-0.4375
687,1727184608670,-1.0195312,0.07519531,-0.10644531,0.53125,-1.5,0.53125
688,1727184608710,-1.0136719,0.060546875,-0.12597656,-1.625,1.0,-0.75
689,1727184608750,-1.0205078,0.09667969,-0.12792969,-1.84375,-1.1875,0.28125
690,1727184608790,-1.0244141,0.051757812,-0.103515625,1.0625,1.125,-0.0625
691,1727184608830,-1.0136719,0.099609375,-0.119140625,-2.84375,-0.6875,-0.5625
692,1727184608870,-1.0283203,0.060546875,-0.11328125,1.8125,-0.53125,0.53125
693,1727184608910,-1.015625,0.087890625,-0.12011719,-2.28125,0.71875,-1.0
694,1727184608950,-1.0166016,0.080078125,-0.11816406,1.0,0.8125,0.0
695,1727184608990,-1.0214844,0.08105469,-0.11230469,-0.09375,0.15625,0.15625
696,1727184609030,-1.0205078,0.06542969,-0.10839844,0.59375,0.21875,0.21875
697,1727184609070,-1.0146484,0.08984375,-0.119140625,-1.0,-0.21875,-0.125
698,1727184609110,-1.0205078,0.06933594,-0.10839844,0.46875,0.65625,0.0
699,1727184609150,-1.0205078,0.08984375,-0.111328125,-0.09375,0.21875,0.0
700,1727184609190,-1.0097656,0.06640625,-0.11035156,0.03125,0.46875,-0.0625
701,1727184609230,-1.0166016,0.095703125,-0.11816406,0.53125,-0.46875,0.15625
702,1727184609270,-1.0224609,0.064453125,-0.10253906,0.40625,0.46875,-0.125
703,1727184609310,-1.0175781,0.08886719,-0.12402344,-0.28125,-0.75,0.0
704,1727184609350,-1.0136719,0.064453125,-0.15039062,2.46875,0.09375,0.53125
705,1727184609390,-1.03125,0.08984375,-0.09082031,-0.5,0.53125,-0.75
706,1727184609430,-1.0205078,0.076171875,-0.10644531,2.78125,1.1875,0.28125
707,1727184609470,-1.0117188,0.08691406,-0.13476562,-0.4375,0.15625,-0.375
708,1727184609510,-1.0263672,0.060546875,-0.1015625,0.9375,0.09375,0.34375
709,1727184609550,-1.0214844,0.087890625,-0.09667969,-1.78125,-1.125,-0.375
710,1727184609590,-1.0107422,0.052734375,-0.13867188,2.1875,-0.9375,0.53125
711,1727184609630,-1.0166016,0.07910156,-0.10058594,-0.34375,0.65625,-0.9375
712,1727184609670,-1.015625,0.076171875,-0.12792969,-1.25,-0.8125,-0.0625
713,1727184609710,-1.0166016,0.07324219,-0.11621094,0.78125,1.75,-0.5
714,1727184609750,-1.0087891,0.072265625,-0.11328125,-0.15625,0.28125,0.09375
715,1727184609790,-1.0107422,0.078125,-0.12207031,-1.625,0.8125,-0.3125
716,1727184609830,-1.0205078,0.07910156,-0.109375,1.5625,0.34375,0.21875
717,1727184609870,-1.0058594,0.064453125,-0.13378906,-2.71875,0.15625,-0.3125
718,1727184609910,-1.0234375,0.07421875,-0.109375,0.34375,0.65625,-0.1875
719,1727184609950,-1.0205078,0.08105469,-0.10644531,-0.625,1.0,0.09375
720,1727184609990,-1.0205078,0.0703125,-0.111328125,1.125,0.21875,0.46875
721,1727184610030,-1.015625,0.07421875,-0.115234375,-0.9375,0.21875,-0.0625
722,1727184610070,-1.0136719,0.07324219,-0.09863281,1.0625,-0.53125,0.21875
723,1727184610110,-1.0205078,0.064453125,-0.12988281,-1.78125,-0.21875,0.21875
724,1727184610150,-1.0195312,0.0859375,-0.11816406,0.34375,0.9375,-0.25
725,1727184610190,-1.0166016,0.0703125,-0.111328125,2.46875,0.875,0.28125
726,1727184610230,-1.0166016,0.08203125,-0.12109375,-0.15625,-0.625,0.28125
727,1727184610270,-1.0175781,0.080078125,-0.12109375,-1.0625,-0.59375,0.09375
728,1727184610310,-1.0126953,0.080078125,-0.12109375,1.3125,-0.40625,0.59375
729,1727184610350,-1.015625,0.07714844,-0.12988281,-1.5,0.875,0.0
730,1727184610390,-1.0205078,0.07910156,-0.103515625,1.625,1.0625,0.40625
731,1727184610430,-1.0195312,0.080078125,-0.095703125,-1.6875,1.3125,-0.375
732,1727184610470,-1.0068359,0.06933594,-0.13183594,0.40625,-1.0,0.71875
733,1727184610510,-1.0107422,0.06640625,-0.12402344,-2.46875,0.09375,-0.5625
734,1727184610550,-1.0126953,0.087890625,-0.12597656,-1.0625,0.03125,0.03125
735,1727184610590,-1.0107422,0.08105469,-0.115234375,0.78125,1.5625,0.0
736,1727184610630,-1.0146484,0.07910156,-0.10644531,-0.09375,0.28125,0.15625
737,1727184610670,-1.0146484,0.07519531,-0.14453125,-0.34375,1.0,0.15625
738,1727184610710,-1.0146484,0.07519531,-0.12207031,0.21875,1.875,0.28125
739,1727184610750,-1.0117188,0.07910156,-0.1328125,0.53125,1.8125,0.15625
740,1727184610790,-1.0283203,0.091796875,-0.11621094,1.75,3.15625,-0.125
741,1727184610830,-1.015625,0.08105469,-0.119140625,-1.3125,2.59375,-0.3125
742,1727184610870,-1.015625,0.08496094,-0.1171875,2.90625,-0.53125,1.21875
743,1727184610910,-1.0136719,0.060546875,-0.13085938,1.5,2.21875,0.0
744,1727184610950,-1.015625,0.080078125,-0.12402344,-0.40625,2.65625,-0.3125
745,1727184610990,-1.0107422,0.083984375,-0.13964844,0.59375,0.03125,0.65625
746,1727184611030,-1.0283203,0.07128906,-0.11425781,1.4375,1.375,0.03125
747,1727184611070,-1.0263672,0.0703125,-0.125,0.15625,0.875,-0.1875
748,1727184611110,-1.0126953,0.078125,-0.13574219,-2.40625,0.59375,-0.6875
749,1727184611150,-1.0146484,0.0859375,-0.12695312,-1.0,-0.09375,-0.4375
