,Unnamed: 0,timestamp,accel_x,accel_y,accel_z,gyro_x,gyro_y,gyro_z
0,0,1727019654330,0.07910156,-0.5576172,0.82910156,0.1875,0.09375,-0.40625
1,1,1727019654358,0.08105469,-0.55859375,0.8232422,0.1875,0.15625,-0.34375
2,2,1727019654390,0.08496094,-0.5605469,0.8251953,0.0625,0.21875,-0.28125
3,3,1727019654451,0.07910156,-0.5566406,0.8300781,0.125,0.15625,-0.4375
4,4,1727019654481,0.0703125,-0.5605469,0.83203125,0.03125,0.21875,-0.4375
5,5,1727019654510,0.08203125,-0.5654297,0.82910156,0.25,0.09375,-0.40625
6,6,1727019654570,0.07421875,-0.5517578,0.82421875,0.1875,0.21875,-0.625
7,7,1727019654600,0.072265625,-0.5722656,0.81640625,0.3125,0.28125,-0.4375
8,8,1727019654631,0.08105469,-0.56347656,0.8339844,0.3125,0.40625,-0.5625
9,9,1727019654691,0.078125,-0.56347656,0.8457031,0.25,0.28125,-0.75
10,10,1727019654719,0.07128906,-0.5566406,0.8339844,0.5,-0.03125,-0.5625
11,11,1727019654750,0.07519531,-0.55859375,0.828125,0.25,0.09375,-0.8125
12,12,1727019654812,0.080078125,-0.5566406,0.82714844,0.375,0.28125,-0.5
13,13,1727019654841,0.072265625,-0.5625,0.83496094,0.25,0.15625,-0.5
14,14,1727019654873,0.07324219,-0.55566406,0.83984375,0.5,0.34375,-0.5
15,15,1727019654932,0.078125,-0.56640625,0.82421875,0.1875,0.21875,-0.75
16,16,1727019654960,0.078125,-0.56640625,0.82128906,0.375,0.40625,-0.6875
17,17,1727019654990,0.076171875,-0.57128906,0.8105469,0.4375,0.34375,-0.5625
18,18,1727019655052,0.072265625,-0.56347656,0.8300781,0.3125,0.15625,-0.5625
19,19,1727019655080,0.07519531,-0.55859375,0.8310547,0.4375,0.21875,-0.8125
20,20,1727019655110,0.08105469,-0.5644531,0.8300781,0.3125,0.28125,-0.6875
21,21,1727019655172,0.080078125,-0.56347656,0.8232422,0.3125,0.46875,-0.8125
22,22,1727019655199,0.07324219,-0.5654297,0.83691406,0.03125,0.40625,-0.875
23,23,1727019655230,0.07519531,-0.5566406,0.8330078,0.25,0.53125,-0.875
24,24,1727019655290,0.07324219,-0.56933594,0.84375,0.4375,0.34375,-0.5625
25,25,1727019655320,0.06933594,-0.5625,0.828125,0.3125,-0.09375,-0.5
26,26,1727019655349,0.076171875,-0.5595703,0.82714844,0.5,0.03125,-0.5625
27,27,1727019655411,0.07714844,-0.55371094,0.828125,0.4375,-0.03125,-0.5
28,28,1727019655440,0.08105469,-0.5566406,0.82421875,0.3125,0.03125,-0.5
29,29,1727019655470,0.078125,-0.5527344,0.8203125,0.4375,0.28125,-0.5
30,30,1727019655533,0.08691406,-0.5732422,0.8408203,0.3125,0.40625,-0.5625
31,31,1727019655559,0.07519531,-0.5605469,0.8388672,0.3125,0.34375,-0.625
32,32,1727019655590,0.07128906,-0.5683594,0.82421875,0.375,0.40625,-0.75
33,33,1727019655652,0.076171875,-0.5566406,0.82910156,0.3125,0.28125,-0.6875
34,34,1727019655680,0.0703125,-0.55371094,0.8251953,0.25,0.21875,-0.625
35,35,1727019655710,0.072265625,-0.56347656,0.828125,0.3125,0.28125,-0.5
36,36,1727019655772,0.07519531,-0.55859375,0.8203125,0.25,0.15625,-0.5625
37,37,1727019655800,0.076171875,-0.5625,0.82910156,0.3125,0.15625,-0.40625
38,38,1727019655830,0.07324219,-0.57421875,0.82910156,0.25,0.09375,-0.625
39,39,1727019655892,0.080078125,-0.55371094,0.82421875,0.03125,0.21875,-0.875
40,40,1727019655920,0.0703125,-0.5527344,0.82421875,0.5,0.09375,-0.5
41,41,1727019655951,0.068359375,-0.55566406,0.8300781,0.3125,0.15625,-0.6875
42,42,1727019656009,0.076171875,-0.5546875,0.8232422,0.625,0.40625,-0.5625
43,43,1727019656041,0.08105469,-0.5605469,0.8300781,0.4375,0.15625,-0.875
44,44,1727019656071,0.07910156,-0.56347656,0.8378906,0.3125,0.21875,-0.6875
45,45,1727019656132,0.080078125,-0.5527344,0.8251953,0.25,0.40625,-0.6875
46,46,1727019656160,0.072265625,-0.56347656,0.82421875,0.125,0.28125,-0.625
47,47,1727019656190,0.080078125,-0.5654297,0.8203125,0.25,0.21875,-0.625
48,48,1727019656252,0.08105469,-0.5576172,0.84277344,0.3125,0.21875,-0.40625
49,49,1727019656280,0.08105469,-0.5566406,0.8330078,0.25,0.03125,-0.4375
50,50,1727019656309,0.076171875,-0.5546875,0.81933594,0.25,0.09375,-0.4375
51,51,1727019656370,0.08496094,-0.5605469,0.82910156,0.375,0.15625,-0.4375
52,52,1727019656400,0.08984375,-0.5625,0.81933594,0.3125,0.15625,-0.40625
53,53,1727019656431,0.087890625,-0.55371094,0.8300781,0.25,0.28125,-0.4375
54,54,1727019656522,0.078125,-0.5654297,0.83496094,0.3125,0.21875,-0.40625
55,55,1727019656528,0.07910156,-0.5566406,0.83203125,0.25,0.09375,-0.5
56,56,1727019656551,0.080078125,-0.5566406,0.8261719,0.1875,0.15625,-0.5
57,57,1727019656611,0.076171875,-0.5595703,0.8261719,0.25,0.15625,-0.5
58,58,1727019656640,0.07324219,-0.56152344,0.82421875,0.0625,-0.21875,-0.40625
59,59,1727019656671,0.078125,-0.5517578,0.8339844,0.125,0.28125,-0.34375
60,60,1727019656737,0.08691406,-0.5654297,0.8310547,0.25,0.09375,-0.28125
61,61,1727019656760,0.080078125,-0.56640625,0.8339844,0.1875,0.21875,-0.40625
62,62,1727019656790,0.08300781,-0.5527344,0.8330078,0.25,0.15625,-0.28125
63,63,1727019656854,0.07519531,-0.5595703,0.83984375,0.1875,0.15625,-0.40625
64,64,1727019656882,0.072265625,-0.5673828,0.8359375,0.3125,0.21875,-0.28125
65,65,1727019656910,0.08203125,-0.55566406,0.82128906,-0.09375,0.34375,-0.6875
66,66,1727019656974,0.078125,-0.5576172,0.81933594,0.5,0.46875,-0.34375
67,67,1727019657000,0.076171875,-0.56347656,0.8232422,0.0625,0.09375,-0.4375
68,68,1727019657030,0.07421875,-0.5654297,0.8378906,0.3125,0.21875,-0.21875
69,69,1727019657092,0.08105469,-0.55566406,0.83203125,0.1875,0.03125,-0.4375
70,70,1727019657119,0.0859375,-0.5703125,0.8144531,0.25,0.21875,-0.5625
71,71,1727019657150,0.07324219,-0.5644531,0.828125,0.25,0.34375,-0.5
72,72,1727019657210,0.08105469,-0.55566406,0.8232422,0.03125,0.09375,-0.625
73,73,1727019657239,0.07421875,-0.5566406,0.83496094,0.3125,0.46875,-0.625
74,74,1727019657276,0.07421875,-0.5625,0.8261719,0.25,0.15625,-0.5
75,75,1727019657332,0.07324219,-0.5673828,0.81933594,0.25,0.15625,-0.4375
76,76,1727019657360,0.0703125,-0.56640625,0.8378906,0.625,-0.03125,-0.5625
77,77,1727019657392,0.076171875,-0.56933594,0.8408203,0.5,-0.09375,-0.5625
78,78,1727019657454,0.08203125,-0.56152344,0.82128906,0.5625,-0.09375,-0.6875
79,79,1727019657480,0.072265625,-0.55566406,0.8330078,0.5,0.15625,-0.75
80,80,1727019657510,0.07714844,-0.5605469,0.83203125,0.375,0.15625,-0.625
81,81,1727019657572,0.078125,-0.56347656,0.8222656,0.4375,0.34375,-0.625
82,82,1727019657603,0.072265625,-0.5644531,0.828125,0.4375,0.46875,-0.9375
83,83,1727019657630,0.072265625,-0.55566406,0.8388672,0.3125,0.53125,-0.75
84,84,1727019657692,0.07128906,-0.56152344,0.8261719,0.3125,0.40625,-1.0
85,85,1727019657720,0.078125,-0.5595703,0.82910156,0.375,0.28125,-0.75
86,86,1727019657751,0.07714844,-0.5595703,0.84472656,0.4375,0.40625,-0.6875
87,87,1727019657813,0.08105469,-0.5595703,0.8310547,0.25,0.09375,-0.4375
88,88,1727019657846,0.08105469,-0.5644531,0.8339844,-0.125,-0.0625,-0.0625
89,89,1727019657870,0.08300781,-0.5605469,0.8486328,0.0,-0.1875,0.0
90,90,1727019657932,0.078125,-0.5625,0.8232422,-0.1875,-0.0625,-0.0625
91,91,1727019657960,0.087890625,-0.5644531,0.8330078,0.0,0.125,-0.28125
92,92,1727019657997,0.076171875,-0.5576172,0.8251953,0.0,-0.0625,-0.21875
93,93,1727019658051,0.08105469,-0.5517578,0.83496094,-0.0625,-0.125,-0.0625
94,94,1727019658080,0.072265625,-0.5644531,0.82910156,0.0625,0.0625,-0.0625
95,95,1727019658110,0.07324219,-0.56152344,0.8300781,0.0625,0.0625,-0.40625
96,96,1727019658171,0.07128906,-0.55566406,0.8339844,0.0625,0.0625,-0.21875
97,97,1727019658200,0.076171875,-0.5703125,0.82714844,-0.1875,0.1875,-0.34375
98,98,1727019658234,0.07910156,-0.5595703,0.8330078,-0.125,0.1875,-0.15625
99,99,1727019658383,0.076171875,-0.5517578,0.82128906,0.0,0.0,0.0625
100,100,1727019658389,0.06933594,-0.5625,0.8173828,-0.0625,-0.125,0.25
101,101,1727019658391,0.06640625,-0.5576172,0.81640625,-0.0625,-0.375,0.0
102,102,1727019658411,0.078125,-0.56933594,0.8125,-0.0625,-0.0625,-0.0625
103,103,1727019658440,0.08203125,-0.5722656,0.80859375,-0.28125,-0.0625,0.0
104,104,1727019658469,0.078125,-0.5644531,0.8359375,0.0,0.0,0.0
105,105,1727019658532,0.07714844,-0.5595703,0.828125,0.0,0.125,0.0
106,106,1727019658560,0.076171875,-0.5654297,0.8359375,0.0,0.0625,-0.0625
107,107,1727019658590,0.078125,-0.5673828,0.828125,0.0625,0.25,-0.09375
108,108,1727019658652,0.07910156,-0.5605469,0.82910156,0.0,0.0,-0.09375
109,109,1727019658679,0.08203125,-0.56152344,0.82910156,0.0625,0.0625,-0.09375
110,110,1727019658709,0.076171875,-0.56152344,0.83691406,0.0,0.0,-0.0625
111,111,1727019658802,0.08300781,-0.56933594,0.8388672,-0.125,0.125,0.0
112,112,1727019658808,0.07910156,-0.5644531,0.81933594,-0.0625,-0.125,-0.09375
113,113,1727019658830,0.07519531,-0.55859375,0.8251953,-0.0625,-0.0625,0.0
114,114,1727019658892,0.07421875,-0.55371094,0.8173828,-0.0625,0.0,0.0625
115,115,1727019658920,0.068359375,-0.5605469,0.82910156,-0.125,-0.125,0.0625
116,116,1727019658949,0.08300781,-0.5546875,0.8183594,-0.125,-0.0625,0.125
117,117,1727019659012,0.08300781,-0.5683594,0.83496094,0.125,0.0,0.125
118,118,1727019659040,0.07910156,-0.56152344,0.8300781,-0.34375,0.0,-0.28125
119,119,1727019659070,0.07519531,-0.5595703,0.8261719,0.125,0.0,0.0
120,120,1727019659131,0.076171875,-0.55566406,0.8203125,0.0,-0.0625,0.0
121,121,1727019659160,0.072265625,-0.56640625,0.81933594,0.125,-0.3125,-0.0625
122,122,1727019659190,0.0859375,-0.5595703,0.8359375,0.125,-0.125,-0.0625
123,123,1727019659251,0.07519531,-0.56347656,0.8232422,0.0625,0.0625,-0.09375
124,124,1727019659279,0.08105469,-0.5605469,0.8232422,0.0,0.1875,-0.09375
125,125,1727019659310,0.08496094,-0.5605469,0.83496094,-0.25,0.0625,-0.15625
126,126,1727019659373,0.07910156,-0.5566406,0.8310547,0.0,0.1875,0.0
127,127,1727019659400,0.08496094,-0.55859375,0.8125,0.0625,0.0625,-0.0625
128,128,1727019659431,0.078125,-0.5625,0.8310547,0.125,0.0,0.1875
129,129,1727019659493,0.076171875,-0.5576172,0.83203125,0.0,0.0,0.125
130,130,1727019659519,0.076171875,-0.5517578,0.8203125,-0.0625,-0.0625,0.0
131,131,1727019659550,0.08886719,-0.5654297,0.81640625,0.0,-0.0625,0.125
132,132,1727019659612,0.08300781,-0.5625,0.8261719,0.0,0.0,0.125
133,133,1727019659644,0.08105469,-0.5683594,0.8300781,0.0,0.0625,0.125
134,134,1727019659669,0.07421875,-0.5644531,0.8339844,0.0,0.0,0.0625
135,135,1727019659732,0.08105469,-0.56152344,0.8261719,-0.1875,0.0625,0.125
136,136,1727019659759,0.072265625,-0.56152344,0.8310547,0.0,0.125,0.125
137,137,1727019659822,0.078125,-0.5595703,0.82128906,0.0,0.0625,0.0
138,138,1727019659850,0.07324219,-0.5527344,0.8261719,0.0,0.0625,0.1875
139,139,1727019659880,0.08203125,-0.5576172,0.83496094,0.0,0.0625,0.3125
140,140,1727019659910,0.076171875,-0.5625,0.8232422,-0.125,-0.125,0.25
141,141,1727019659940,0.076171875,-0.5605469,0.82714844,-0.1875,-0.125,0.3125
142,142,1727019660002,0.076171875,-0.5683594,0.8222656,-0.25,-0.125,0.1875
143,143,1727019660031,0.078125,-0.5673828,0.82421875,-0.1875,0.0625,0.125
144,144,1727019660061,0.080078125,-0.56152344,0.8310547,-0.34375,-0.0625,0.0625
145,145,1727019660122,0.07519531,-0.56933594,0.828125,-0.0625,-0.0625,0.3125
146,146,1727019660149,0.07324219,-0.55371094,0.828125,-0.25,-0.1875,0.125
147,147,1727019660180,0.07714844,-0.55566406,0.8105469,-0.125,0.0625,0.0625
148,148,1727019660242,0.07324219,-0.5683594,0.8144531,-0.125,-0.0625,0.0625
149,149,1727019660269,0.072265625,-0.55566406,0.8154297,-0.28125,-0.125,0.1875
150,150,1727019660329,0.07519531,-0.55371094,0.85253906,-0.125,-0.1875,0.1875
151,151,1727019660363,0.072265625,-0.56640625,0.81640625,-0.25,-0.0625,-0.09375
152,152,1727019660391,0.080078125,-0.5566406,0.8203125,0.0,0.125,0.0
153,153,1727019660421,0.06738281,-0.56347656,0.82714844,-0.25,0.0,0.0
154,154,1727019660483,0.076171875,-0.5527344,0.82910156,-0.25,0.25,-0.0625
155,155,1727019660509,0.078125,-0.55859375,0.8300781,-0.1875,0.0625,0.125
156,156,1727019660540,0.08203125,-0.5595703,0.8251953,-0.125,-0.1875,0.1875
157,157,1727019660602,0.076171875,-0.5595703,0.81640625,-0.0625,-0.1875,0.3125
158,158,1727019660630,0.076171875,-0.56347656,0.8173828,0.125,-0.125,0.0625
159,159,1727019660662,0.07421875,-0.5644531,0.81347656,0.0625,-0.1875,0.0625
160,160,1727019660723,0.07714844,-0.5683594,0.82910156,0.125,-0.1875,-0.0625
161,161,1727019660749,0.07519531,-0.55566406,0.828125,0.25,-0.3125,-0.0625
162,162,1727019660780,0.080078125,-0.5654297,0.8261719,0.125,0.0,-0.09375
163,163,1727019660842,0.078125,-0.56640625,0.8378906,0.125,-0.125,-0.15625
164,164,1727019660869,0.08105469,-0.56640625,0.8310547,0.0625,0.125,-0.28125
165,165,1727019660900,0.07714844,-0.5605469,0.8330078,0.0,0.0625,-0.21875
166,166,1727019660963,0.06738281,-0.55859375,0.8339844,0.0625,0.25,-0.21875
167,167,1727019660990,0.07910156,-0.56347656,0.8144531,0.0,0.1875,-0.15625
168,168,1727019661020,0.07910156,-0.55078125,0.8251953,0.0,0.125,-0.0625
169,169,1727019661082,0.078125,-0.5527344,0.8261719,-0.1875,-0.1875,-0.0625
170,170,1727019661110,0.08300781,-0.5605469,0.828125,-0.125,-0.125,-0.09375
171,171,1727019661141,0.07421875,-0.56152344,0.8330078,-0.0625,-0.125,0.0
172,172,1727019661202,0.072265625,-0.55371094,0.81933594,-0.1875,-0.125,-0.28125
173,173,1727019661230,0.08203125,-0.5566406,0.83691406,0.25,0.0625,-0.09375
174,174,1727019661260,0.07324219,-0.55566406,0.8300781,0.0,0.0,-0.15625
175,175,1727019661323,0.076171875,-0.5566406,0.83496094,0.0625,-0.0625,-0.09375
176,176,1727019661349,0.080078125,-0.5654297,0.82421875,0.125,0.0625,-0.21875
177,177,1727019661382,0.07714844,-0.56152344,0.82421875,0.0625,0.125,-0.34375
178,178,1727019661441,0.08984375,-0.56152344,0.828125,0.1875,0.25,-0.28125
179,179,1727019661470,0.076171875,-0.56152344,0.8261719,0.0,0.125,-0.40625
180,180,1727019661500,0.078125,-0.5576172,0.8203125,0.0625,0.0625,-0.0625
181,181,1727019661562,0.07519531,-0.5605469,0.828125,0.0,0.0625,-0.09375
182,182,1727019661590,0.07421875,-0.5546875,0.8300781,0.0,0.0,0.1875
183,183,1727019661620,0.078125,-0.5644531,0.8261719,0.0,-0.0625,0.0
184,184,1727019661682,0.08496094,-0.56640625,0.8183594,0.0,-0.0625,-0.09375
185,185,1727019661709,0.07910156,-0.55566406,0.8232422,0.1875,0.0625,0.0
186,186,1727019661740,0.083984375,-0.5605469,0.828125,-0.03125,-0.0625,0.09375
187,187,1727019661802,0.07714844,-0.5644531,0.8359375,-0.03125,0.0625,0.03125
188,188,1727019661830,0.07519531,-0.5546875,0.8310547,-0.09375,-0.125,0.09375
189,189,1727019661860,0.08496094,-0.5576172,0.83203125,-0.03125,0.0625,0.09375
190,190,1727019661922,0.0859375,-0.5576172,0.8183594,-0.03125,0.0,-0.09375
191,191,1727019661949,0.076171875,-0.56347656,0.81933594,-0.03125,0.125,-0.03125
192,192,1727019661981,0.080078125,-0.57128906,0.8183594,-0.09375,0.0625,0.15625
193,193,1727019662042,0.07714844,-0.56347656,0.82910156,-0.21875,-0.0625,0.09375
194,194,1727019662070,0.07128906,-0.5605469,0.8251953,0.0625,0.0,0.09375
195,195,1727019662132,0.07910156,-0.5546875,0.8408203,-0.21875,-0.0625,0.21875
196,196,1727019662159,0.08300781,-0.5576172,0.8378906,-0.21875,-0.1875,0.03125
197,197,1727019662191,0.07910156,-0.56152344,0.80859375,-0.09375,0.0625,0.09375
198,198,1727019662221,0.07519531,-0.5625,0.8251953,-0.21875,-0.125,0.15625
199,199,1727019662283,0.08105469,-0.5654297,0.828125,-0.28125,0.125,-0.09375
200,200,1727019662309,0.07324219,-0.56347656,0.8261719,0.1875,0.125,0.09375
201,201,1727019662339,0.07324219,-0.5644531,0.8232422,-0.03125,0.0,0.09375
202,202,1727019662401,0.080078125,-0.5595703,0.8408203,0.0625,0.0,0.21875
203,203,1727019662430,0.07324219,-0.55566406,0.8330078,0.125,-0.0625,-0.03125
204,204,1727019662461,0.078125,-0.55078125,0.8388672,-0.09375,0.0,-0.09375
205,205,1727019662522,0.06933594,-0.55566406,0.8105469,-0.03125,0.125,0.15625
206,206,1727019662550,0.072265625,-0.5576172,0.81347656,-0.15625,0.125,-0.09375
207,207,1727019662612,0.078125,-0.5605469,0.828125,-0.03125,0.1875,0.21875
208,208,1727019662641,0.08203125,-0.5546875,0.8339844,-0.15625,-0.0625,0.25
209,209,1727019662702,0.07714844,-0.5517578,0.828125,-0.15625,-0.125,0.3125
210,210,1727019662709,0.072265625,-0.5605469,0.81640625,-0.21875,-0.1875,0.4375
211,211,1727019662762,0.08105469,-0.5605469,0.83691406,-0.28125,0.0,0.3125
212,212,1727019662790,0.07128906,-0.5566406,0.8222656,-0.09375,-0.125,0.375
213,213,1727019662820,0.078125,-0.5576172,0.8310547,-0.15625,-0.0625,0.3125
214,214,1727019662882,0.08203125,-0.55859375,0.8222656,-0.03125,0.0625,0.3125
215,215,1727019662910,0.07324219,-0.5654297,0.8232422,-0.15625,-0.1875,0.3125
216,216,1727019662940,0.072265625,-0.5625,0.82128906,-0.09375,0.0625,0.15625
217,217,1727019663002,0.07714844,-0.56347656,0.82910156,-0.40625,-0.0625,0.15625
218,218,1727019663029,0.07128906,-0.5566406,0.8154297,-0.28125,0.0625,0.21875
219,219,1727019663061,0.06738281,-0.5722656,0.8359375,-0.21875,0.0625,0.21875
220,220,1727019663122,0.07324219,-0.5654297,0.8359375,-0.15625,0.0,0.4375
221,221,1727019663149,0.08203125,-0.5566406,0.8378906,-0.15625,0.0,0.25
222,222,1727019663180,0.08300781,-0.5683594,0.8251953,-0.15625,0.0,0.3125
223,223,1727019663242,0.08105469,-0.5595703,0.8310547,-0.28125,0.125,0.375
224,224,1727019663270,0.076171875,-0.5546875,0.8183594,-0.15625,-0.0625,0.25
225,225,1727019663300,0.08496094,-0.55371094,0.8310547,-0.28125,-0.125,0.25
226,226,1727019663362,0.080078125,-0.56347656,0.82910156,-0.28125,-0.125,0.4375
227,227,1727019663390,0.08886719,-0.5595703,0.8232422,-0.53125,-0.0625,0.15625
228,228,1727019663420,0.07324219,-0.55566406,0.83496094,-0.03125,0.0625,0.25
229,229,1727019663482,0.076171875,-0.56347656,0.8310547,-0.59375,-0.1875,0.3125
230,230,1727019663510,0.07324219,-0.5605469,0.8339844,-0.15625,-0.0625,0.25
231,231,1727019663540,0.07519531,-0.56347656,0.81640625,-0.03125,0.0,0.09375
232,232,1727019663602,0.06542969,-0.56640625,0.83496094,-0.03125,0.25,0.03125
233,233,1727019663629,0.07910156,-0.56152344,0.8125,-0.03125,0.0625,0.03125
234,234,1727019663660,0.07421875,-0.5644531,0.8173828,-0.03125,0.25,-0.15625
235,235,1727019663722,0.06738281,-0.5683594,0.8261719,0.0625,0.25,-0.15625
236,236,1727019663750,0.07910156,-0.5595703,0.8261719,-0.09375,0.0625,-0.09375
237,237,1727019663780,0.078125,-0.5644531,0.8310547,0.03125,-0.0625,-0.03125
238,238,1727019663842,0.06933594,-0.5654297,0.8203125,0.0625,-0.0625,-0.03125
239,239,1727019663870,0.076171875,-0.5605469,0.8203125,0.0625,0.0,0.03125
240,240,1727019663900,0.083984375,-0.5654297,0.8183594,0.1875,-0.125,-0.03125
241,241,1727019663962,0.08300781,-0.56152344,0.8310547,-0.03125,0.1875,-0.09375
242,242,1727019663990,0.07910156,-0.56347656,0.8330078,0.0625,0.1875,-0.15625
243,243,1727019664020,0.076171875,-0.56933594,0.8310547,0.125,0.1875,-0.15625
244,244,1727019664082,0.076171875,-0.5566406,0.82910156,-0.03125,0.125,-0.15625
245,245,1727019664110,0.07128906,-0.5576172,0.8330078,-0.03125,-0.0625,0.03125
246,246,1727019664143,0.07910156,-0.5644531,0.8300781,0.03125,0.0,0.09375
247,247,1727019664203,0.07519531,-0.5566406,0.8125,-0.03125,0.125,0.09375
248,248,1727019664230,0.07421875,-0.5625,0.8154297,-0.21875,0.0,0.09375
249,249,1727019664260,0.078125,-0.55566406,0.8173828,-0.09375,-0.125,0.03125
250,250,1727019664323,0.083984375,-0.5576172,0.83984375,-0.15625,-0.1875,-0.09375
251,251,1727019664350,0.08691406,-0.5546875,0.8203125,0.125,0.0,0.15625
252,252,1727019664380,0.080078125,-0.5566406,0.81640625,-0.15625,0.0,-0.09375
253,253,1727019664441,0.08203125,-0.5683594,0.8300781,0.1875,0.0625,-0.21875
254,254,1727019664472,0.078125,-0.5546875,0.81640625,0.0625,0.0,-0.21875
255,255,1727019664500,0.0703125,-0.5605469,0.8359375,-0.09375,-0.0625,-0.21875
256,256,1727019664562,0.07910156,-0.56933594,0.8251953,0.0625,0.0625,-0.15625
257,257,1727019664590,0.07421875,-0.56152344,0.8388672,-0.03125,0.0625,-0.21875
258,258,1727019664650,0.076171875,-0.56347656,0.8154297,0.0625,0.125,-0.09375
259,259,1727019664679,0.07128906,-0.5595703,0.8222656,0.03125,0.25,-0.03125
260,260,1727019664710,0.080078125,-0.56152344,0.8144531,-0.03125,0.1875,-0.15625
261,261,1727019664740,0.07910156,-0.56347656,0.81933594,0.1875,0.0625,-0.09375
262,262,1727019664802,0.078125,-0.5546875,0.81640625,-0.09375,-0.0625,0.3125
263,263,1727019664841,0.06738281,-0.55859375,0.8310547,-0.09375,-0.0625,0.09375
264,264,1727019664891,0.07324219,-0.56347656,0.8300781,-0.09375,-0.125,0.03125
265,265,1727019664920,0.07519531,-0.5605469,0.83203125,0.0625,0.0625,0.09375
266,266,1727019664950,0.07519531,-0.5595703,0.8261719,0.0625,-0.0625,0.09375
267,267,1727019664980,0.07910156,-0.5566406,0.8300781,0.0625,0.125,0.15625
268,268,1727019665042,0.07714844,-0.55078125,0.8144531,-0.03125,0.125,0.03125
269,269,1727019665070,0.07324219,-0.56347656,0.82714844,-0.03125,0.0,-0.03125
270,270,1727019665100,0.08886719,-0.5566406,0.8183594,-0.03125,0.125,-0.03125
271,271,1727019665162,0.08105469,-0.5546875,0.82910156,-0.09375,-0.0625,-0.03125
272,272,1727019665190,0.078125,-0.55371094,0.82910156,-0.09375,-0.0625,0.09375
273,273,1727019665224,0.08203125,-0.55566406,0.8330078,-0.09375,-0.125,0.15625
274,274,1727019665282,0.078125,-0.56347656,0.8173828,-0.28125,-0.0625,0.09375
275,275,1727019665310,0.08300781,-0.5546875,0.8339844,-0.21875,-0.125,0.09375
276,276,1727019665340,0.076171875,-0.5625,0.82910156,-0.21875,-0.0625,0.09375
277,277,1727019665406,0.083984375,-0.5654297,0.82714844,-0.03125,-0.0625,0.21875
278,278,1727019665431,0.0859375,-0.5595703,0.82128906,-0.34375,0.0,-0.09375
279,279,1727019665460,0.08105469,-0.5605469,0.8222656,-0.03125,-0.125,0.09375
280,280,1727019665522,0.08203125,-0.5625,0.8339844,-0.15625,-0.25,0.15625
281,281,1727019665552,0.07519531,-0.5625,0.8310547,-0.09375,-0.125,0.375
282,282,1727019665580,0.08105469,-0.5546875,0.82421875,0.03125,-0.125,0.25
283,283,1727019665641,0.08496094,-0.55859375,0.8300781,-0.09375,-0.3125,0.03125
284,284,1727019665670,0.08300781,-0.5576172,0.8310547,-0.15625,-0.0625,0.09375
285,285,1727019665701,0.07714844,-0.56347656,0.828125,-0.28125,0.0625,0.25
286,286,1727019665763,0.07421875,-0.5595703,0.82421875,-0.03125,0.0,0.25
287,287,1727019665790,0.07421875,-0.55566406,0.81640625,-0.09375,0.0,0.375
288,288,1727019665822,0.080078125,-0.56152344,0.8339844,-0.09375,-0.0625,0.4375
289,289,1727019665883,0.078125,-0.56152344,0.8310547,-0.34375,-0.1875,0.5
290,290,1727019665911,0.08203125,-0.56347656,0.82128906,-0.34375,-0.0625,0.3125
291,291,1727019665941,0.07421875,-0.5644531,0.828125,-0.21875,-0.1875,0.3125
292,292,1727019666002,0.06933594,-0.56152344,0.828125,-0.21875,-0.1875,0.4375
293,293,1727019666030,0.078125,-0.5703125,0.82421875,-0.15625,0.0,0.5625
294,294,1727019666059,0.076171875,-0.56347656,0.8330078,-0.28125,-0.0625,0.375
295,295,1727019666122,0.07421875,-0.5605469,0.8173828,-0.21875,0.125,0.21875
296,296,1727019666150,0.078125,-0.55566406,0.83496094,-0.34375,-0.0625,0.15625
297,297,1727019666179,0.078125,-0.56152344,0.8222656,-0.21875,-0.1875,0.25
298,298,1727019666242,0.08496094,-0.55859375,0.8330078,-0.21875,-0.125,0.375
299,299,1727019666269,0.07519531,-0.5527344,0.8310547,-0.09375,-0.3125,0.4375
300,300,1727019666300,0.08105469,-0.5625,0.8251953,-0.21875,-0.125,0.3125
301,301,1727019666455,0.07519531,-0.56347656,0.8232422,-0.15625,-0.1875,0.25
302,302,1727019666460,0.07910156,-0.56640625,0.8359375,-0.15625,0.0625,0.09375
303,303,1727019666462,0.06738281,-0.5703125,0.82910156,-0.21875,-0.0625,0.25
304,304,1727019666480,0.08203125,-0.5595703,0.82910156,-0.15625,0.0,0.03125
305,305,1727019666510,0.078125,-0.56347656,0.8222656,0.125,0.25,-0.15625
306,306,1727019666540,0.08105469,-0.56152344,0.8300781,-0.15625,-0.1875,0.03125
307,307,1727019666633,0.07714844,-0.5566406,0.84277344,0.1875,0.0,-0.03125
308,308,1727019666638,0.07910156,-0.56347656,0.8251953,0.125,0.0,-0.03125
309,309,1727019666660,0.0703125,-0.5576172,0.8378906,0.03125,0.0625,-0.09375
310,310,1727019666723,0.07324219,-0.56347656,0.828125,-0.09375,0.125,-0.09375
311,311,1727019666750,0.08105469,-0.5625,0.85253906,-0.21875,0.1875,-0.21875
312,312,1727019666780,0.07519531,-0.57128906,0.8310547,-0.03125,0.3125,-0.09375
313,313,1727019666842,0.076171875,-0.5576172,0.8125,-0.03125,0.125,0.09375
314,314,1727019666875,0.06347656,-0.56640625,0.83496094,-0.09375,-0.1875,0.21875
315,315,1727019666902,0.072265625,-0.56347656,0.81933594,-0.03125,-0.1875,0.09375
316,316,1727019666994,0.07421875,-0.55566406,0.8251953,0.03125,-0.09375,-0.0625
317,317,1727019667002,0.083984375,-0.57421875,0.8310547,0.21875,-0.03125,-0.125
318,318,1727019667019,0.078125,-0.5595703,0.8261719,0.09375,0.03125,-0.1875
319,319,1727019667082,0.072265625,-0.5644531,0.8330078,0.3125,0.15625,-0.125
320,320,1727019667110,0.07910156,-0.5625,0.8339844,0.09375,-0.03125,-0.0625
321,321,1727019667171,0.08300781,-0.5546875,0.8359375,0.09375,0.15625,-0.3125
322,322,1727019667200,0.076171875,-0.5546875,0.81933594,0.28125,0.15625,-0.375
323,323,1727019667230,0.068359375,-0.56152344,0.8378906,0.15625,-0.03125,-0.25
324,324,1727019667260,0.07714844,-0.55371094,0.8261719,0.03125,-0.09375,-0.0625
325,325,1727019667322,0.07421875,-0.5566406,0.8359375,0.09375,0.03125,-0.0625
326,326,1727019667350,0.07324219,-0.56347656,0.8232422,0.15625,-0.03125,0.0
327,327,1727019667380,0.07324219,-0.56933594,0.82128906,-0.03125,-0.09375,-0.0625
328,328,1727019667441,0.07910156,-0.5605469,0.8300781,-0.09375,0.09375,-0.375
329,329,1727019667472,0.07714844,-0.5595703,0.8330078,0.09375,-0.15625,-0.25
330,330,1727019667501,0.08886719,-0.55078125,0.8232422,0.09375,-0.15625,-0.1875
331,331,1727019667562,0.080078125,-0.5605469,0.82128906,0.28125,-0.28125,0.0
332,332,1727019667589,0.08105469,-0.5595703,0.8359375,0.09375,-0.21875,-0.3125
333,333,1727019667621,0.07421875,-0.5605469,0.8251953,0.09375,0.09375,-0.1875
334,334,1727019667682,0.07910156,-0.55859375,0.8339844,0.21875,0.15625,-0.25
335,335,1727019667709,0.08203125,-0.56347656,0.83984375,-0.03125,0.21875,-0.1875
336,336,1727019667739,0.07714844,-0.55566406,0.8183594,0.09375,0.25,-0.0625
337,337,1727019667802,0.07421875,-0.5644531,0.8388672,0.21875,0.03125,0.0625
338,338,1727019667830,0.07714844,-0.5566406,0.83496094,0.03125,-0.09375,0.125
339,339,1727019667860,0.07910156,-0.5595703,0.82421875,-0.15625,-0.21875,-0.0625
340,340,1727019667921,0.07324219,-0.5576172,0.8408203,-0.03125,-0.03125,-0.1875
341,341,1727019667950,0.08300781,-0.5527344,0.81933594,-0.03125,-0.03125,0.0625
342,342,1727019667980,0.08203125,-0.56152344,0.81933594,0.15625,0.09375,-0.125
343,343,1727019668043,0.076171875,-0.5566406,0.81933594,0.03125,0.03125,-0.125
344,344,1727019668072,0.083984375,-0.5605469,0.8378906,0.09375,0.03125,-0.125
345,345,1727019668099,0.08105469,-0.56152344,0.83984375,-0.03125,-0.03125,-0.125
346,346,1727019668163,0.076171875,-0.55078125,0.8261719,0.09375,0.15625,-0.1875
347,347,1727019668189,0.07421875,-0.5566406,0.8251953,-0.03125,-0.15625,0.0
348,348,1727019668221,0.068359375,-0.56347656,0.8339844,0.09375,-0.21875,0.125
349,349,1727019668250,0.08203125,-0.5703125,0.81933594,-0.03125,-0.09375,0.0625
350,350,1727019668313,0.07519531,-0.55566406,0.8300781,-0.03125,-0.09375,0.0625
351,351,1727019668339,0.08105469,-0.55566406,0.82421875,0.03125,0.03125,0.125
352,352,1727019668370,0.08300781,-0.5625,0.8310547,-0.09375,-0.21875,0.1875
353,353,1727019668432,0.07421875,-0.5576172,0.83496094,-0.03125,-0.28125,0.0625
354,354,1727019668460,0.0703125,-0.5566406,0.81640625,0.15625,-0.09375,0.375
355,355,1727019668491,0.072265625,-0.57128906,0.8330078,-0.21875,-0.15625,0.0625
356,356,1727019668553,0.0859375,-0.5595703,0.82910156,-0.28125,0.09375,-0.1875
357,357,1727019668580,0.083984375,-0.5576172,0.8203125,-0.03125,-0.15625,0.125
358,358,1727019668610,0.07128906,-0.55859375,0.8330078,-0.15625,-0.34375,0.25
359,359,1727019668672,0.076171875,-0.5595703,0.828125,0.09375,-0.09375,0.3125
360,360,1727019668700,0.07421875,-0.5654297,0.82421875,0.03125,-0.15625,-0.0625
361,361,1727019668730,0.083984375,-0.5654297,0.8330078,-0.03125,0.15625,-0.0625
362,362,1727019668792,0.07519531,-0.5654297,0.8261719,-0.03125,-0.03125,0.0625
363,363,1727019668822,0.07910156,-0.56152344,0.8232422,-0.21875,0.03125,0.0
364,364,1727019668850,0.072265625,-0.5527344,0.83496094,-0.28125,-0.09375,0.125
365,365,1727019668913,0.08203125,-0.5527344,0.8359375,-0.09375,-0.15625,0.125
366,366,1727019668939,0.07128906,-0.5625,0.828125,-0.15625,-0.09375,0.1875
367,367,1727019668972,0.07421875,-0.5644531,0.8251953,-0.21875,-0.15625,0.0625
368,368,1727019669032,0.080078125,-0.56640625,0.8300781,-0.03125,-0.21875,0.0625
369,369,1727019669060,0.08496094,-0.5625,0.83203125,-0.03125,-0.21875,0.0
370,370,1727019669089,0.06933594,-0.5625,0.81640625,-0.03125,-0.09375,0.125
371,371,1727019669152,0.0625,-0.5576172,0.8261719,0.03125,-0.21875,0.1875
372,372,1727019669180,0.07910156,-0.5673828,0.8125,0.03125,-0.09375,0.0625
373,373,1727019669211,0.0859375,-0.5625,0.8388672,0.03125,-0.09375,-0.125
374,374,1727019669272,0.0703125,-0.5605469,0.8330078,0.03125,0.03125,-0.25
375,375,1727019669300,0.068359375,-0.5595703,0.82128906,-0.03125,-0.03125,-0.1875
376,376,1727019669336,0.07324219,-0.56152344,0.8388672,0.03125,-0.15625,-0.25
377,377,1727019669391,0.07910156,-0.5644531,0.8261719,0.09375,-0.09375,-0.125
378,378,1727019669452,0.08300781,-0.5654297,0.82421875,0.15625,-0.15625,-0.25
379,379,1727019669458,0.07324219,-0.5576172,0.8222656,0.03125,-0.03125,-0.125
380,380,1727019669511,0.076171875,-0.5576172,0.8310547,0.03125,-0.09375,-0.25
381,381,1727019669540,0.08105469,-0.5644531,0.8261719,-0.09375,0.09375,-0.4375
382,382,1727019669570,0.07519531,-0.56640625,0.83496094,0.15625,0.0625,-0.03125
383,383,1727019669632,0.0703125,-0.5595703,0.82128906,-0.1875,0.0,-0.3125
384,384,1727019669660,0.078125,-0.5546875,0.8251953,0.28125,0.15625,-0.3125
385,385,1727019669690,0.07519531,-0.56152344,0.8339844,0.0625,-0.0625,-0.21875
386,386,1727019669752,0.076171875,-0.546875,0.8251953,0.0625,-0.0625,-0.25
387,387,1727019669780,0.08886719,-0.5595703,0.8232422,0.125,-0.0625,-0.21875
388,388,1727019669810,0.083984375,-0.5625,0.81640625,0.0,0.0625,-0.4375
389,389,1727019669872,0.0703125,-0.5566406,0.82128906,0.15625,0.15625,-0.4375
390,390,1727019669900,0.083984375,-0.56640625,0.8251953,0.0,0.21875,-0.375
391,391,1727019669930,0.07519531,-0.5605469,0.82714844,0.125,0.15625,-0.4375
392,392,1727019669991,0.08300781,-0.56152344,0.8300781,0.15625,0.21875,-0.25
393,393,1727019670019,0.07421875,-0.5654297,0.8203125,0.15625,0.125,-0.15625
394,394,1727019670050,0.07324219,-0.56152344,0.8378906,0.34375,0.125,-0.09375
395,395,1727019670112,0.068359375,-0.5566406,0.8310547,0.15625,-0.0625,-0.09375
396,396,1727019670139,0.08203125,-0.5605469,0.8378906,0.0625,0.0,-0.09375
397,397,1727019670201,0.08105469,-0.5576172,0.8339844,0.28125,-0.0625,-0.15625
398,398,1727019670230,0.07910156,-0.5517578,0.8183594,0.15625,0.15625,-0.09375
399,399,1727019670261,0.07519531,-0.5576172,0.8251953,0.21875,0.125,-0.25
400,400,1727019670290,0.07324219,-0.5644531,0.8300781,0.125,0.21875,-0.3125
401,401,1727019670352,0.07519531,-0.56640625,0.82714844,0.125,0.21875,-0.375
402,402,1727019670380,0.07324219,-0.5654297,0.82714844,0.0625,0.0625,-0.15625
403,403,1727019670409,0.07519531,-0.56152344,0.8183594,0.0625,0.15625,-0.21875
404,404,1727019670471,0.0703125,-0.56152344,0.8359375,-0.0625,0.0,-0.09375
405,405,1727019670501,0.07324219,-0.5605469,0.8251953,0.0,0.0625,-0.15625
406,406,1727019670531,0.08203125,-0.56152344,0.83496094,0.0625,-0.0625,-0.15625
407,407,1727019670593,0.07519531,-0.5605469,0.8310547,-0.0625,0.0625,-0.03125
408,408,1727019670619,0.0703125,-0.5654297,0.8388672,0.0,0.0,-0.15625
409,409,1727019670650,0.07421875,-0.5625,0.8408203,0.0,-0.0625,-0.15625
410,410,1727019670712,0.08691406,-0.55859375,0.8261719,0.15625,-0.0625,0.03125
411,411,1727019670739,0.078125,-0.5566406,0.8378906,-0.1875,0.0625,-0.25
412,412,1727019670772,0.07421875,-0.5595703,0.828125,0.0,0.15625,-0.25
413,413,1727019670832,0.076171875,-0.5644531,0.81933594,0.125,0.0,-0.21875
414,414,1727019670860,0.08203125,-0.5605469,0.8408203,0.34375,-0.1875,-0.09375
415,415,1727019670889,0.08691406,-0.5566406,0.8310547,0.28125,0.15625,-0.15625
416,416,1727019670982,0.0703125,-0.5605469,0.8261719,0.15625,0.0,-0.25
417,417,1727019670988,0.06933594,-0.5517578,0.8330078,0.125,0.15625,-0.15625
418,418,1727019671013,0.078125,-0.56152344,0.8261719,0.0,0.34375,-0.3125
419,419,1727019671071,0.068359375,-0.5566406,0.81933594,0.0625,0.15625,-0.15625
420,420,1727019671100,0.078125,-0.5605469,0.82714844,0.125,0.15625,-0.03125
421,421,1727019671131,0.07128906,-0.546875,0.83203125,0.0625,-0.125,0.15625
422,422,1727019671193,0.076171875,-0.56152344,0.8203125,-0.0625,-0.125,0.21875
423,423,1727019671219,0.07910156,-0.54785156,0.8359375,-0.125,-0.0625,0.21875
424,424,1727019671250,0.07714844,-0.5654297,0.83496094,0.0625,0.0625,0.09375
425,425,1727019671311,0.07519531,-0.5625,0.82421875,0.0625,0.0,0.03125
426,426,1727019671339,0.0703125,-0.5605469,0.82910156,0.0,0.0625,0.09375
427,427,1727019671371,0.07910156,-0.5576172,0.8232422,0.0,0.0625,0.09375
428,428,1727019671432,0.07910156,-0.5654297,0.82128906,0.0,-0.125,0.03125
429,429,1727019671461,0.078125,-0.56347656,0.8378906,0.0,0.0,-0.03125
430,430,1727019671490,0.076171875,-0.5605469,0.82421875,0.0,0.0625,0.15625
431,431,1727019671552,0.07519531,-0.5566406,0.82714844,-0.0625,0.0,0.09375
432,432,1727019671580,0.076171875,-0.5625,0.81933594,-0.0625,0.0,0.21875
433,433,1727019671610,0.06738281,-0.5576172,0.8251953,0.0,0.15625,0.09375
434,434,1727019671673,0.07128906,-0.5654297,0.8339844,-0.1875,0.0625,0.21875
435,435,1727019671732,0.07324219,-0.55566406,0.82421875,-0.1875,0.0625,-0.03125
436,436,1727019671737,0.08105469,-0.5625,0.8251953,0.0625,0.125,0.15625
437,437,1727019671791,0.076171875,-0.5576172,0.82421875,-0.25,0.125,-0.09375
438,438,1727019671820,0.07421875,-0.5546875,0.8339844,0.0,0.0625,0.03125
439,439,1727019671850,0.076171875,-0.5654297,0.8251953,-0.25,-0.1875,0.15625
440,440,1727019671913,0.07421875,-0.5605469,0.83496094,-0.0625,0.125,-0.03125
441,441,1727019671939,0.076171875,-0.57128906,0.8251953,0.0625,0.0625,-0.15625
442,442,1727019671969,0.076171875,-0.5566406,0.8261719,-0.125,-0.125,-0.03125
443,443,1727019672032,0.07324219,-0.5644531,0.8330078,0.125,0.0,-0.03125
444,444,1727019672060,0.07324219,-0.5605469,0.8144531,0.21875,-0.0625,-0.375
445,445,1727019672091,0.07324219,-0.55371094,0.8183594,0.21875,0.21875,-0.375
446,446,1727019672152,0.080078125,-0.5566406,0.8388672,0.125,0.15625,-0.375
447,447,1727019672180,0.07421875,-0.5546875,0.83496094,0.125,0.125,-0.3125
448,448,1727019672213,0.08105469,-0.5605469,0.84375,0.21875,0.0625,-0.09375
449,449,1727019672273,0.08496094,-0.55859375,0.8330078,0.15625,0.125,-0.15625
450,450,1727019672301,0.07421875,-0.5517578,0.81933594,0.0625,0.0,-0.09375
451,451,1727019672329,0.08105469,-0.5644531,0.8300781,0.125,0.0625,-0.21875
452,452,1727019672392,0.07519531,-0.56640625,0.8300781,0.125,-0.25,-0.4375
453,453,1727019672419,0.07714844,-0.5605469,0.82128906,0.15625,0.125,-0.21875
454,454,1727019672482,0.07421875,-0.5546875,0.8261719,0.15625,0.0625,-0.09375
455,455,1727019672516,0.072265625,-0.5566406,0.828125,0.125,0.0,-0.21875
456,456,1727019672540,0.080078125,-0.55371094,0.8183594,0.0625,0.125,-0.21875
457,457,1727019672569,0.078125,-0.5595703,0.82714844,0.125,0.125,-0.21875
458,458,1727019672632,0.07421875,-0.56152344,0.82714844,0.0625,0.125,-0.25
459,459,1727019672664,0.07324219,-0.54785156,0.8359375,0.0625,0.0625,-0.25
460,460,1727019672691,0.07324219,-0.56347656,0.8300781,0.125,0.0625,-0.15625
461,461,1727019672752,0.06933594,-0.55371094,0.83203125,0.0625,-0.0625,-0.15625
462,462,1727019672780,0.07519531,-0.5566406,0.8300781,0.125,0.125,-0.03125
463,463,1727019672812,0.06738281,-0.5595703,0.82128906,-0.0625,-0.125,-0.21875
464,464,1727019672873,0.08300781,-0.5546875,0.82421875,0.125,-0.1875,-0.15625
465,465,1727019672900,0.07128906,-0.56152344,0.8388672,0.0625,0.21875,-0.09375
466,466,1727019672931,0.080078125,-0.5625,0.8144531,-0.125,0.15625,-0.375
467,467,1727019672992,0.07714844,-0.56152344,0.83496094,0.21875,0.0,-0.3125
468,468,1727019673020,0.0703125,-0.55566406,0.8232422,0.125,-0.0625,-0.25
469,469,1727019673050,0.076171875,-0.5595703,0.82910156,0.34375,0.0,0.03125
470,470,1727019673111,0.08203125,-0.5546875,0.80859375,0.125,0.125,-0.25
471,471,1727019673141,0.076171875,-0.55566406,0.8203125,0.0625,0.125,-0.25
472,472,1727019673170,0.08496094,-0.56347656,0.8310547,0.125,0.125,-0.25
473,473,1727019673231,0.08203125,-0.5625,0.8359375,-0.125,0.125,-0.3125
474,474,1727019673260,0.07324219,-0.5703125,0.8330078,0.0,0.125,-0.21875
475,475,1727019673292,0.083984375,-0.5576172,0.8261719,0.0625,0.0625,-0.09375
476,476,1727019673352,0.07324219,-0.5566406,0.8339844,0.0625,0.0625,0.09375
477,477,1727019673383,0.0703125,-0.56152344,0.8261719,0.0625,0.0,-0.15625
478,478,1727019673411,0.0703125,-0.5566406,0.8300781,0.15625,0.125,-0.09375
479,479,1727019673470,0.08105469,-0.5576172,0.84277344,0.0625,0.0,-0.09375
480,480,1727019673499,0.07910156,-0.5566406,0.81152344,0.125,0.0,0.03125
481,481,1727019673530,0.0703125,-0.5605469,0.81347656,0.125,0.0,-0.09375
482,482,1727019673592,0.080078125,-0.55371094,0.81640625,0.0625,0.0,-0.09375
483,483,1727019673620,0.07421875,-0.55371094,0.8330078,0.125,0.21875,-0.15625
484,484,1727019673650,0.08203125,-0.5595703,0.8378906,-0.0625,0.0625,-0.09375
485,485,1727019673712,0.08886719,-0.5517578,0.82714844,0.125,0.15625,-0.03125
486,486,1727019673740,0.07910156,-0.56152344,0.8261719,0.0625,0.0,-0.03125
487,487,1727019673770,0.07324219,-0.55566406,0.8408203,0.0625,-0.1875,0.03125
488,488,1727019673832,0.07519531,-0.55371094,0.8300781,-0.125,-0.0625,-0.09375
489,489,1727019673859,0.07910156,-0.5527344,0.8203125,-0.125,0.0625,-0.09375
490,490,1727019673890,0.07910156,-0.5654297,0.82910156,-0.0625,-0.125,0.09375
491,491,1727019673953,0.076171875,-0.5576172,0.81933594,-0.3125,-0.0625,-0.03125
492,492,1727019674012,0.078125,-0.5546875,0.8154297,0.0625,0.0625,0.15625
493,493,1727019674018,0.072265625,-0.56152344,0.8251953,-0.1875,0.0,0.09375
494,494,1727019674071,0.08105469,-0.5625,0.83496094,-0.1875,0.0625,-0.15625
495,495,1727019674100,0.07421875,-0.5566406,0.82128906,0.21875,0.125,0.09375
496,496,1727019674131,0.08691406,-0.56152344,0.81640625,0.0,-0.3125,0.15625
497,497,1727019674192,0.076171875,-0.5625,0.8251953,0.125,0.0,0.28125
498,498,1727019674219,0.07324219,-0.5625,0.8388672,0.0,-0.0625,-0.03125
499,499,1727019674250,0.080078125,-0.5566406,0.80566406,-0.0625,0.125,-0.09375
500,500,1727019674312,0.08203125,-0.5625,0.828125,0.0,0.125,-0.03125
501,501,1727019674340,0.07324219,-0.56347656,0.8300781,-0.1875,0.0625,0.03125
502,502,1727019674369,0.07910156,-0.5527344,0.8251953,0.0,0.0,0.03125
503,503,1727019674432,0.076171875,-0.5576172,0.8310547,-0.0625,0.0625,0.09375
504,504,1727019674461,0.08203125,-0.5605469,0.8232422,-0.1875,-0.125,0.03125
505,505,1727019674495,0.076171875,-0.56347656,0.82421875,0.0625,-0.1875,-0.03125
506,506,1727019674551,0.07910156,-0.5576172,0.8183594,0.0625,-0.0625,-0.03125
507,507,1727019674579,0.07910156,-0.5576172,0.83496094,0.0625,-0.0625,-0.15625
508,508,1727019674610,0.07324219,-0.56347656,0.83203125,0.0625,-0.0625,-0.03125
509,509,1727019674703,0.076171875,-0.55859375,0.81640625,0.0625,0.125,-0.21875
510,510,1727019674709,0.07128906,-0.56933594,0.81933594,0.125,0.15625,-0.25
511,511,1727019674761,0.0703125,-0.5576172,0.82421875,0.125,0.125,-0.25
512,512,1727019674821,0.083984375,-0.55566406,0.8251953,0.125,-0.0625,-0.15625
513,513,1727019674826,0.078125,-0.56152344,0.8251953,0.125,0.0625,-0.09375
514,514,1727019674850,0.0859375,-0.5595703,0.8300781,0.21875,0.15625,-0.21875
515,515,1727019674912,0.076171875,-0.5566406,0.8261719,0.15625,0.21875,-0.25
516,516,1727019674940,0.083984375,-0.5546875,0.8310547,0.15625,0.28125,-0.15625
517,517,1727019674970,0.072265625,-0.5566406,0.8232422,0.0625,0.0,-0.3125
518,518,1727019675032,0.076171875,-0.5673828,0.8359375,0.0,0.125,-0.3125
519,519,1727019675060,0.07128906,-0.5644531,0.8105469,0.125,0.125,-0.15625
520,520,1727019675091,0.08203125,-0.5527344,0.8261719,-0.0625,0.0625,-0.375
521,521,1727019675152,0.07324219,-0.5576172,0.8359375,0.40625,-0.0625,-0.25
522,522,1727019675180,0.06542969,-0.5527344,0.82714844,-0.0625,-0.0625,-0.3125
523,523,1727019675211,0.08105469,-0.5546875,0.81933594,0.125,0.0,-0.03125
524,524,1727019675272,0.07910156,-0.5625,0.8330078,0.34375,-0.125,-0.25
525,525,1727019675299,0.080078125,-0.55566406,0.82128906,0.0,0.15625,-0.5625
526,526,1727019675330,0.08300781,-0.56640625,0.8300781,0.28125,0.28125,-0.25
527,527,1727019675392,0.08203125,-0.5625,0.8339844,-0.0625,0.28125,-0.4375
528,528,1727019675420,0.07714844,-0.5576172,0.8330078,0.125,0.21875,-0.15625
529,529,1727019675450,0.078125,-0.5605469,0.8232422,0.0625,0.0625,-0.09375
530,530,1727019675512,0.08300781,-0.56152344,0.8330078,0.125,-0.125,0.03125
531,531,1727019675540,0.072265625,-0.56152344,0.8251953,0.15625,0.0625,-0.09375
532,532,1727019675572,0.08203125,-0.5595703,0.8310547,0.0625,0.0625,-0.09375
533,533,1727019675633,0.08300781,-0.56640625,0.8222656,0.15625,0.15625,-0.21875
534,534,1727019675659,0.08203125,-0.5605469,0.8310547,0.0,0.0625,-0.21875
535,535,1727019675690,0.07421875,-0.56152344,0.8300781,0.125,0.21875,-0.21875
536,536,1727019675752,0.07519531,-0.56640625,0.8300781,0.0625,0.0625,-0.15625
537,537,1727019675780,0.07519531,-0.55859375,0.83496094,0.125,0.125,-0.15625
538,538,1727019675810,0.07421875,-0.5595703,0.83496094,0.15625,0.0625,-0.09375
539,539,1727019675870,0.080078125,-0.5644531,0.8261719,0.0625,0.125,-0.21875
540,540,1727019675900,0.07324219,-0.5566406,0.8183594,0.0625,0.0625,-0.09375
541,541,1727019675930,0.07910156,-0.56933594,0.8300781,-0.0625,0.0625,-0.03125
542,542,1727019675991,0.076171875,-0.5673828,0.82421875,0.0625,0.0625,-0.03125
543,543,1727019676020,0.07910156,-0.55859375,0.8251953,0.0625,-0.3125,-0.09375
544,544,1727019676049,0.08300781,-0.56152344,0.81347656,-0.0625,-0.03125,0.03125
545,545,1727019676111,0.07128906,-0.56347656,0.82128906,0.0625,0.03125,0.21875
546,546,1727019676140,0.080078125,-0.5595703,0.8203125,-0.4375,0.15625,-0.21875
547,547,1727019676173,0.07910156,-0.5605469,0.8339844,0.1875,0.09375,0.15625
548,548,1727019676233,0.07519531,-0.5595703,0.8154297,-0.0625,-0.03125,-0.03125
549,549,1727019676292,0.076171875,-0.5576172,0.8251953,0.125,0.09375,0.09375
550,550,1727019676297,0.078125,-0.5546875,0.82128906,0.0625,-0.09375,-0.03125
551,551,1727019676350,0.08105469,-0.56347656,0.8310547,-0.1875,0.15625,-0.03125
552,552,1727019676380,0.080078125,-0.56152344,0.8251953,-0.0625,0.21875,-0.03125
553,553,1727019676411,0.076171875,-0.5576172,0.8144531,-0.125,0.15625,0.09375
554,554,1727019676472,0.07519531,-0.5644531,0.8417969,0.0,0.21875,0.21875
555,555,1727019676500,0.07910156,-0.55078125,0.83496094,-0.125,-0.15625,0.34375
556,556,1727019676529,0.0859375,-0.5654297,0.8300781,-0.125,-0.21875,0.40625
557,557,1727019676560,0.072265625,-0.5576172,0.82910156,-0.3125,-0.28125,0.34375
558,558,1727019676622,0.07910156,-0.5517578,0.8261719,-0.1875,-0.15625,0.34375
559,559,1727019676652,0.076171875,-0.5576172,0.8261719,-0.125,-0.15625,0.21875
560,560,1727019676680,0.08691406,-0.5595703,0.8203125,-0.0625,-0.03125,0.34375
561,561,1727019676742,0.07421875,-0.5566406,0.83496094,-0.125,-0.09375,0.34375
562,562,1727019676776,0.07128906,-0.5576172,0.8105469,-0.1875,0.03125,0.21875
563,563,1727019676801,0.076171875,-0.5517578,0.8310547,-0.25,0.03125,0.15625
564,564,1727019676862,0.07714844,-0.5625,0.84472656,-0.1875,0.03125,0.09375
565,565,1727019676890,0.07421875,-0.55078125,0.8251953,-0.1875,-0.09375,0.21875
566,566,1727019676922,0.07714844,-0.5576172,0.82128906,-0.0625,-0.03125,0.28125
567,567,1727019676983,0.07324219,-0.5498047,0.8359375,-0.0625,-0.21875,0.40625
568,568,1727019677042,0.06933594,-0.56347656,0.8261719,-0.25,-0.15625,0.34375
569,569,1727019677047,0.07519531,-0.5644531,0.83496094,-0.25,-0.09375,0.21875
570,570,1727019677103,0.07128906,-0.5722656,0.8359375,-0.1875,0.03125,0.46875
571,571,1727019677130,0.08203125,-0.55566406,0.8251953,-0.5625,-0.03125,0.21875
572,572,1727019677160,0.08105469,-0.55078125,0.8183594,0.0625,0.09375,0.09375
573,573,1727019677224,0.07128906,-0.5625,0.828125,-0.3125,-0.21875,0.15625
574,574,1727019677250,0.0703125,-0.56640625,0.8261719,-0.0625,-0.21875,0.46875
575,575,1727019677280,0.07910156,-0.5683594,0.8261719,-0.0625,-0.15625,0.03125
576,576,1727019677342,0.0859375,-0.5576172,0.8261719,0.0,0.03125,-0.09375
577,577,1727019677370,0.08105469,-0.5644531,0.82714844,0.125,0.15625,-0.03125
578,578,1727019677401,0.07128906,-0.5654297,0.83691406,0.0,-0.15625,-0.34375
579,579,1727019677463,0.080078125,-0.5722656,0.8203125,0.0625,0.21875,-0.15625
580,580,1727019677490,0.06542969,-0.5605469,0.8378906,-0.0625,-0.03125,0.03125
581,581,1727019677521,0.08300781,-0.5605469,0.8183594,0.1875,-0.03125,0.09375
582,582,1727019677583,0.07910156,-0.5546875,0.8251953,0.0,-0.03125,0.03125
583,583,1727019677609,0.08300781,-0.5605469,0.8310547,0.125,0.09375,-0.09375
584,584,1727019677640,0.080078125,-0.5595703,0.82910156,0.0,0.09375,-0.15625
585,585,1727019677703,0.07910156,-0.5625,0.8261719,0.125,0.15625,-0.15625
586,586,1727019677731,0.07421875,-0.5644531,0.82421875,0.0625,0.15625,-0.21875
587,587,1727019677760,0.06738281,-0.5595703,0.81933594,0.0625,0.03125,-0.03125
588,588,1727019677822,0.07714844,-0.5683594,0.8232422,-0.0625,-0.03125,0.03125
589,589,1727019677850,0.06738281,-0.5673828,0.8261719,0.0625,0.03125,-0.09375
590,590,1727019677880,0.07421875,-0.5595703,0.82128906,0.0,0.09375,-0.15625
591,591,1727019677942,0.07421875,-0.5566406,0.828125,-0.0625,-0.09375,0.09375
592,592,1727019677970,0.07910156,-0.5517578,0.8105469,-0.0625,-0.15625,0.03125
593,593,1727019678000,0.08300781,-0.54785156,0.84472656,-0.125,-0.15625,-0.03125
594,594,1727019678063,0.07324219,-0.55859375,0.828125,-0.0625,-0.15625,0.15625
595,595,1727019678090,0.08203125,-0.5546875,0.828125,-0.3125,-0.09375,-0.34375
596,596,1727019678120,0.078125,-0.5654297,0.8125,0.1875,0.03125,-0.28125
597,597,1727019678183,0.0859375,-0.55566406,0.8222656,-0.0625,-0.15625,-0.21875
598,598,1727019678209,0.07714844,-0.56152344,0.82910156,0.25,-0.15625,0.03125
599,599,1727019678240,0.08105469,-0.56347656,0.82421875,0.1875,-0.09375,-0.03125
600,600,1727019678302,0.07519531,-0.5595703,0.83203125,0.0,0.21875,-0.28125
601,601,1727019678330,0.08691406,-0.55566406,0.83496094,0.0,0.03125,0.03125
602,602,1727019678364,0.08300781,-0.5595703,0.82128906,-0.1875,0.25,-0.21875
603,603,1727019678422,0.078125,-0.5566406,0.8203125,0.0,0.09375,-0.03125
604,604,1727019678450,0.078125,-0.5625,0.8261719,0.0,-0.03125,-0.03125
605,605,1727019678481,0.078125,-0.5576172,0.8330078,0.0,-0.03125,0.15625
606,606,1727019678573,0.076171875,-0.5644531,0.828125,-0.0625,-0.15625,0.15625
607,607,1727019678579,0.07128906,-0.5595703,0.83203125,-0.0625,-0.15625,0.03125
608,608,1727019678600,0.08691406,-0.5546875,0.82421875,0.0,-0.09375,0.03125
609,609,1727019678662,0.08886719,-0.5673828,0.8203125,0.0625,-0.21875,0.09375
610,610,1727019678689,0.06933594,-0.56347656,0.8359375,-0.0625,-0.03125,0.03125
611,611,1727019678720,0.083984375,-0.5576172,0.82910156,-0.0625,-0.03125,0.09375
612,612,1727019678782,0.07519531,-0.5566406,0.8183594,0.0,0.03125,-0.09375
613,613,1727019678810,0.08691406,-0.56152344,0.828125,-0.0625,-0.03125,-0.03125
614,614,1727019678840,0.08984375,-0.56347656,0.8251953,0.0,0.09375,0.15625
615,615,1727019678902,0.08105469,-0.55566406,0.83203125,0.0,0.15625,0.15625
616,616,1727019678930,0.07128906,-0.5546875,0.83203125,0.0,0.03125,0.21875
617,617,1727019678960,0.08105469,-0.5498047,0.828125,0.0,0.03125,0.34375
618,618,1727019679022,0.07519531,-0.5673828,0.8378906,-0.0625,-0.15625,0.15625
619,619,1727019679050,0.08105469,-0.56152344,0.83496094,-0.1875,-0.03125,0.15625
620,620,1727019679080,0.076171875,-0.5703125,0.83203125,0.0625,-0.03125,0.21875
621,621,1727019679140,0.07421875,-0.56152344,0.8144531,-0.3125,-0.09375,-0.03125
622,622,1727019679170,0.0859375,-0.5517578,0.8261719,-0.0625,-0.09375,0.09375
623,623,1727019679200,0.07714844,-0.56152344,0.8359375,0.0625,-0.09375,0.03125
624,624,1727019679263,0.08105469,-0.5644531,0.81640625,0.0,-0.03125,0.09375
625,625,1727019679322,0.08496094,-0.5517578,0.84277344,0.125,-0.15625,0.09375
626,626,1727019679327,0.07519531,-0.5576172,0.8359375,-0.0625,-0.03125,-0.21875
627,627,1727019679380,0.076171875,-0.5605469,0.8457031,0.0,0.15625,-0.03125
628,628,1727019679410,0.07128906,-0.5527344,0.82421875,-0.25,-0.15625,-0.03125
629,629,1727019679440,0.07128906,-0.5654297,0.83691406,-0.125,0.15625,0.28125
630,630,1727019679505,0.080078125,-0.55859375,0.82910156,-0.125,-0.09375,0.21875
631,631,1727019679530,0.08300781,-0.5576172,0.8154297,-0.0625,-0.21875,0.40625
632,632,1727019679560,0.06542969,-0.5605469,0.8300781,-0.1875,-0.03125,0.28125
633,633,1727019679620,0.07519531,-0.5644531,0.8310547,-0.0625,-0.21875,0.28125
634,634,1727019679650,0.08105469,-0.55078125,0.82128906,0.0,-0.21875,0.28125
635,635,1727019679680,0.08300781,-0.5605469,0.828125,-0.1875,-0.15625,0.34375
636,636,1727019679742,0.07714844,-0.5644531,0.8154297,-0.0625,-0.21875,0.34375
637,637,1727019679770,0.083984375,-0.56152344,0.828125,-0.25,-0.21875,0.34375
638,638,1727019679800,0.083984375,-0.5527344,0.82910156,-0.125,0.03125,0.15625
639,639,1727019679862,0.064453125,-0.5595703,0.83203125,-0.125,-0.03125,0.21875
640,640,1727019679890,0.08300781,-0.5595703,0.8251953,-0.125,-0.09375,0.34375
641,641,1727019679920,0.076171875,-0.56347656,0.83984375,-0.3125,-0.09375,0.21875
642,642,1727019679982,0.07519531,-0.55859375,0.81640625,-0.1875,-0.21875,0.28125
643,643,1727019680011,0.087890625,-0.56347656,0.82128906,-0.4375,-0.03125,0.28125
644,644,1727019680039,0.07128906,-0.5625,0.82910156,-0.25,-0.03125,0.34375
645,645,1727019680104,0.07421875,-0.54589844,0.8330078,-0.1875,0.09375,0.28125
646,646,1727019680130,0.07421875,-0.56152344,0.8378906,-0.125,-0.15625,0.28125
647,647,1727019680192,0.08300781,-0.5566406,0.83203125,-0.25,-0.21875,0.15625
648,648,1727019680220,0.07421875,-0.5625,0.83496094,-0.125,-0.15625,0.21875
649,649,1727019680252,0.07519531,-0.5566406,0.8232422,-0.375,-0.34375,0.09375
650,650,1727019680281,0.083984375,-0.5546875,0.8251953,0.1875,-0.15625,0.09375
651,651,1727019680342,0.076171875,-0.5595703,0.8330078,-0.125,-0.34375,-0.21875
652,652,1727019680370,0.0703125,-0.5625,0.8203125,0.125,-0.15625,0.21875
653,653,1727019680404,0.0703125,-0.5576172,0.8261719,0.25,-0.03125,-0.15625
654,654,1727019680463,0.07519531,-0.5566406,0.8173828,0.0,0.03125,-0.34375
655,655,1727019680490,0.07421875,-0.5576172,0.8125,0.0625,0.15625,-0.21875
656,656,1727019680520,0.07421875,-0.55566406,0.8310547,0.0,0.15625,-0.28125
657,657,1727019680583,0.087890625,-0.5595703,0.8183594,0.0,0.15625,-0.21875
658,658,1727019680610,0.078125,-0.5566406,0.8251953,0.0,0.15625,-0.09375
659,659,1727019680643,0.0703125,-0.5605469,0.8310547,0.0,0.15625,0.15625
660,660,1727019680702,0.072265625,-0.5576172,0.8261719,0.0625,-0.21875,0.03125
661,661,1727019680730,0.06933594,-0.5527344,0.8261719,-0.125,-0.15625,-0.03125
662,662,1727019680760,0.07714844,-0.55859375,0.8378906,0.0625,-0.15625,0.03125
663,663,1727019680852,0.07714844,-0.5605469,0.8251953,0.0,-0.15625,0.03125
664,664,1727019680858,0.07324219,-0.5595703,0.828125,0.0625,0.09375,0.09375
665,665,1727019680880,0.07519531,-0.56640625,0.8310547,0.0625,0.15625,0.03125
666,666,1727019680942,0.08300781,-0.55371094,0.82910156,0.125,0.09375,-0.03125
667,667,1727019680970,0.08300781,-0.5673828,0.84765625,0.125,0.09375,0.03125
668,668,1727019681002,0.07128906,-0.56152344,0.8339844,0.0625,-0.09375,0.03125
669,669,1727019681062,0.072265625,-0.55371094,0.8359375,0.125,0.03125,0.15625
670,670,1727019681089,0.076171875,-0.56152344,0.8125,0.125,0.03125,-0.03125
671,671,1727019681121,0.07128906,-0.5576172,0.8232422,0.125,0.03125,0.09375
672,672,1727019681182,0.07910156,-0.5595703,0.8203125,-0.0625,0.03125,0.03125
673,673,1727019681210,0.07421875,-0.5605469,0.8300781,0.0625,-0.09375,0.15625
674,674,1727019681240,0.08105469,-0.56347656,0.83496094,-0.125,-0.15625,0.09375
675,675,1727019681302,0.07910156,-0.5517578,0.8359375,-0.1875,0.03125,-0.21875
676,676,1727019681330,0.0703125,-0.56152344,0.82128906,0.25,0.03125,-0.09375
677,677,1727019681359,0.07910156,-0.5595703,0.82910156,0.0,-0.09375,-0.03125
678,678,1727019681422,0.07421875,-0.5625,0.84375,0.3125,-0.21875,0.09375
679,679,1727019681449,0.076171875,-0.5605469,0.83496094,0.25,-0.09375,-0.09375
680,680,1727019681482,0.080078125,-0.5546875,0.81933594,0.0,0.3125,-0.21875
681,681,1727019681540,0.06738281,-0.5703125,0.8173828,0.0625,0.15625,-0.09375
682,682,1727019681602,0.083984375,-0.5605469,0.83496094,0.0,0.21875,-0.21875
683,683,1727019681607,0.078125,-0.55566406,0.8310547,0.0,0.09375,-0.03125
684,684,1727019681661,0.07324219,-0.5546875,0.8378906,0.0,-0.03125,0.15625
685,685,1727019681691,0.07910156,-0.5605469,0.8359375,-0.0625,-0.09375,0.15625
686,686,1727019681752,0.072265625,-0.5527344,0.8330078,-0.125,-0.09375,0.09375
687,687,1727019681780,0.07910156,-0.5527344,0.83496094,0.0,0.03125,0.03125
688,688,1727019681810,0.08105469,-0.5576172,0.8330078,0.125,-0.03125,0.09375
689,689,1727019681840,0.07128906,-0.5625,0.82421875,0.1875,-0.03125,0.03125
690,690,1727019681902,0.08105469,-0.56152344,0.8300781,-0.0625,-0.09375,-0.03125
691,691,1727019681930,0.08984375,-0.5595703,0.8183594,0.125,0.03125,-0.03125
692,692,1727019681960,0.076171875,-0.5605469,0.83496094,0.0625,0.21875,0.09375
693,693,1727019682023,0.078125,-0.5654297,0.82910156,-0.125,0.03125,0.09375
694,694,1727019682050,0.07910156,-0.5498047,0.8261719,-0.0625,-0.09375,0.28125
695,695,1727019682082,0.078125,-0.5546875,0.8339844,-0.0625,-0.15625,0.28125
696,696,1727019682143,0.0703125,-0.55371094,0.82910156,-0.1875,-0.09375,0.28125
697,697,1727019682169,0.07714844,-0.55859375,0.8310547,-0.1875,-0.15625,0.28125
698,698,1727019682201,0.08496094,-0.56152344,0.81640625,-0.125,-0.09375,0.40625
699,699,1727019682262,0.06738281,-0.55859375,0.8300781,-0.0625,-0.28125,0.15625
700,700,1727019682289,0.080078125,-0.5566406,0.8300781,0.0,-0.34375,0.21875
701,701,1727019682320,0.07421875,-0.55566406,0.82910156,-0.0625,-0.15625,0.5
702,702,1727019682382,0.08300781,-0.5644531,0.8183594,-0.5,-0.15625,0.09375
703,703,1727019682411,0.068359375,-0.55566406,0.83203125,0.125,0.03125,0.21875
704,704,1727019682440,0.07910156,-0.55566406,0.8251953,-0.25,-0.28125,0.15625
705,705,1727019682502,0.07910156,-0.5595703,0.83496094,-0.125,-0.09375,0.46875
706,706,1727019682530,0.07421875,-0.5595703,0.83496094,-0.0625,-0.0625,0.09375
707,707,1727019682563,0.087890625,-0.5576172,0.8378906,-0.0625,0.125,-0.03125
708,708,1727019682620,0.076171875,-0.55371094,0.8330078,0.0,0.1875,0.09375
709,709,1727019682649,0.07324219,-0.5595703,0.8144531,-0.34375,0.1875,-0.03125
710,710,1727019682683,0.08105469,-0.5605469,0.828125,-0.1875,0.0,0.21875
711,711,1727019682745,0.072265625,-0.56347656,0.8203125,-0.1875,-0.0625,0.28125
712,712,1727019682769,0.06640625,-0.5566406,0.8300781,-0.1875,0.0,0.28125
713,713,1727019682800,0.08691406,-0.55566406,0.81640625,-0.125,-0.0625,0.03125
714,714,1727019682862,0.08105469,-0.5703125,0.8359375,0.0,0.0625,0.03125
715,715,1727019682891,0.07910156,-0.55078125,0.8232422,-0.0625,0.0,0.03125
716,716,1727019682919,0.07128906,-0.56347656,0.8203125,0.0,0.0,0.03125
717,717,1727019683012,0.06640625,-0.5546875,0.8339844,0.0625,0.0625,-0.21875
718,718,1727019683018,0.08203125,-0.5595703,0.8310547,0.1875,0.125,-0.21875
719,719,1727019683040,0.08105469,-0.5576172,0.83496094,0.125,0.1875,-0.34375
720,720,1727019683131,0.07421875,-0.56152344,0.8310547,0.1875,0.0625,-0.21875
721,721,1727019683137,0.07421875,-0.5576172,0.84277344,0.1875,0.0,-0.28125
722,722,1727019683159,0.07910156,-0.5625,0.82910156,0.1875,0.0625,-0.15625
723,723,1727019683221,0.076171875,-0.5566406,0.82128906,-0.125,0.0,-0.15625
724,724,1727019683250,0.076171875,-0.5566406,0.8203125,0.125,0.0625,-0.09375
725,725,1727019683281,0.07421875,-0.5576172,0.82421875,0.0,0.0625,-0.28125
726,726,1727019683342,0.07519531,-0.57421875,0.8359375,0.125,0.125,-0.09375
727,727,1727019683371,0.06933594,-0.5546875,0.8144531,-0.25,-0.125,-0.15625
728,728,1727019683400,0.07519531,-0.56640625,0.8183594,0.125,0.0,-0.21875
729,729,1727019683461,0.07324219,-0.5595703,0.82714844,0.125,0.0,-0.09375
730,730,1727019683490,0.080078125,-0.5576172,0.8183594,-0.0625,-0.0625,-0.03125
731,731,1727019683519,0.07519531,-0.5595703,0.8154297,0.125,0.0,-0.03125
732,732,1727019683582,0.07910156,-0.5625,0.8330078,0.1875,0.125,-0.40625
733,733,1727019683610,0.08105469,-0.5576172,0.8183594,0.0,0.1875,-0.34375
734,734,1727019683640,0.08203125,-0.5566406,0.8330078,0.0,0.125,-0.21875
735,735,1727019683700,0.07519531,-0.55371094,0.8388672,0.0,0.125,-0.40625
736,736,1727019683731,0.078125,-0.56640625,0.84375,0.1875,0.125,-0.15625
737,737,1727019683761,0.072265625,-0.5654297,0.83984375,0.1875,-0.125,0.09375
738,738,1727019683823,0.078125,-0.5644531,0.8251953,0.0625,-0.0625,0.03125
739,739,1727019683881,0.076171875,-0.55859375,0.8457031,0.0625,0.0,-0.15625
740,740,1727019683887,0.078125,-0.56152344,0.8125,-0.0625,-0.0625,-0.21875
741,741,1727019683940,0.07714844,-0.55078125,0.85253906,0.0625,0.0625,-0.09375
742,742,1727019683970,0.0703125,-0.55566406,0.8183594,0.0,0.0625,-0.09375
743,743,1727019684000,0.07324219,-0.5703125,0.8359375,0.0625,0.125,-0.09375
744,744,1727019684062,0.08203125,-0.5625,0.8154297,0.0,0.125,-0.09375
745,745,1727019684092,0.078125,-0.5605469,0.82421875,0.0625,-0.0625,-0.15625
746,746,1727019684120,0.08203125,-0.55859375,0.8232422,0.0,0.0625,-0.09375
747,747,1727019684182,0.07910156,-0.5546875,0.8359375,0.0625,0.0625,-0.09375
748,748,1727019684210,0.07714844,-0.56933594,0.8203125,-0.0625,0.0,0.09375
749,749,1727019684240,0.076171875,-0.5576172,0.8339844,0.0,0.0625,0.03125
750,750,1727019684302,0.07324219,-0.5595703,0.84472656,-0.125,-0.0625,0.09375
751,751,1727019684330,0.07519531,-0.5566406,0.81933594,-0.25,0.0,-0.21875
752,752,1727019684362,0.07910156,-0.55859375,0.85058594,0.125,0.0,0.03125
753,753,1727019684423,0.076171875,-0.5517578,0.8310547,-0.25,0.0,-0.21875
754,754,1727019684450,0.076171875,-0.5527344,0.82714844,0.125,0.25,-0.15625
755,755,1727019684481,0.078125,-0.5605469,0.82421875,0.0625,-0.125,0.03125
756,756,1727019684542,0.072265625,-0.56152344,0.82421875,-0.0625,-0.125,0.03125
757,757,1727019684570,0.07714844,-0.5595703,0.8535156,0.1875,0.0,0.03125
758,758,1727019684600,0.08105469,-0.55566406,0.82714844,0.0,-0.0625,-0.28125
759,759,1727019684662,0.07324219,-0.5576172,0.82910156,0.0,0.1875,-0.21875
760,760,1727019684691,0.08496094,-0.5546875,0.83203125,0.0,0.0625,-0.15625
761,761,1727019684720,0.072265625,-0.5566406,0.8388672,0.0,0.25,-0.03125
762,762,1727019684782,0.076171875,-0.5595703,0.8251953,-0.0625,-0.0625,-0.03125
763,763,1727019684810,0.080078125,-0.5625,0.83496094,0.1875,-0.375,0.21875
764,764,1727019684840,0.08203125,-0.5625,0.82910156,-0.0625,-0.0625,0.09375
765,765,1727019684870,0.078125,-0.56933594,0.8183594,-0.0625,-0.125,0.09375
766,766,1727019684932,0.07519531,-0.55859375,0.82421875,-0.0625,-0.0625,-0.03125
767,767,1727019684960,0.087890625,-0.5605469,0.8310547,0.0625,0.125,-0.03125
768,768,1727019684994,0.08105469,-0.5546875,0.84472656,-0.0625,-0.125,0.03125
769,769,1727019685054,0.07910156,-0.56152344,0.82714844,-0.0625,0.1875,-0.15625
770,770,1727019685080,0.07519531,-0.56347656,0.8232422,0.0625,0.125,-0.15625
771,771,1727019685113,0.07324219,-0.5576172,0.8261719,0.0,0.0625,-0.03125
772,772,1727019685173,0.08203125,-0.5625,0.828125,0.0,0.1875,-0.09375
773,773,1727019685200,0.07421875,-0.5595703,0.8144531,0.0,0.0625,-0.03125
774,774,1727019685229,0.07714844,-0.5576172,0.82714844,-0.125,-0.125,0.09375
