,timestamp,accel_x,accel_y,accel_z,gyro_x,gyro_y,gyro_z
0,1727444984006,-0.9814453,0.078125,-0.21972656,2.0625,0.78125,0.46875
1,1727444984046,-0.9863281,0.06542969,-0.18359375,0.96875,0.09375,0.0
2,1727444984086,-0.97265625,0.07324219,-0.20605469,0.71875,-0.1875,0.03125
3,1727444984126,-0.9785156,0.07519531,-0.18847656,0.40625,-0.25,0.09375
4,1727444984166,-0.9716797,0.07128906,-0.19335938,-0.625,-0.1875,-0.25
5,1727444984206,-0.97558594,0.0625,-0.19140625,1.28125,-1.0,-0.125
6,1727444984246,-0.98535156,0.09472656,-0.19238281,2.375,-0.125,0.28125
7,1727444984286,-0.97753906,0.0859375,-0.20800781,-3.1875,-0.875,0.0
8,1727444984326,-0.96972656,0.07421875,-0.1953125,0.78125,0.21875,0.53125
9,1727444984366,-0.98535156,0.06933594,-0.18066406,1.4375,0.0,0.15625
10,1727444984406,-0.9716797,0.06640625,-0.20898438,0.28125,0.40625,-0.375
11,1727444984446,-0.9716797,0.061523438,-0.20410156,-0.4375,0.09375,-0.5625
12,1727444984486,-0.97265625,0.06933594,-0.20410156,2.4375,0.65625,0.28125
13,1727444984526,-0.9824219,0.06738281,-0.18359375,2.84375,-1.96875,0.65625
14,1727444984566,-0.9716797,0.046875,-0.22070312,-1.34375,-0.75,-0.4375
15,1727444984606,-0.97753906,0.06933594,-0.20019531,2.25,0.03125,-0.75
16,1727444984646,-0.9921875,0.0546875,-0.17285156,-0.0625,-1.0625,-0.375
17,1727444984686,-0.9765625,0.059570312,-0.20507812,0.59375,-2.09375,0.09375
18,1727444984726,-0.9736328,0.048828125,-0.19921875,-0.4375,-0.875,-0.3125
19,1727444984766,-0.9814453,0.055664062,-0.20214844,3.34375,0.0,0.46875
20,1727444984806,-0.98339844,0.06933594,-0.1953125,1.6875,-1.0,0.28125
21,1727444984846,-0.9873047,0.059570312,-0.19921875,-2.09375,-0.875,-0.5625
22,1727444984886,-0.98339844,0.0625,-0.1953125,0.03125,-0.5,-0.3125
23,1727444984926,-0.9736328,0.07714844,-0.1953125,0.15625,-1.0,0.15625
24,1727444984966,-0.9746094,0.06542969,-0.1875,1.375,-0.4375,1.21875
25,1727444985006,-0.9814453,0.056640625,-0.18945312,-1.0625,-0.6875,0.84375
26,1727444985046,-0.98339844,0.0546875,-0.20214844,1.5,-0.1875,0.65625
27,1727444985086,-0.9824219,0.06933594,-0.1796875,0.34375,-1.1875,0.15625
28,1727444985126,-0.9785156,0.055664062,-0.20800781,0.03125,-0.9375,0.40625
29,1727444985166,-0.9892578,0.07128906,-0.18261719,-0.125,-1.0,0.0
30,1727444985206,-0.9667969,0.06542969,-0.1875,-4.34375,-2.46875,-1.0
31,1727444985246,-0.99121094,0.061523438,-0.19824219,0.03125,-0.9375,0.84375
32,1727444985286,-0.9873047,0.05859375,-0.1953125,1.21875,0.84375,1.03125
33,1727444985326,-0.984375,0.06542969,-0.1796875,-0.8125,0.0,0.21875
34,1727444985366,-0.96777344,0.061523438,-0.20800781,-0.1875,-0.0625,0.09375
35,1727444985406,-0.9892578,0.072265625,-0.17871094,1.09375,0.40625,1.09375
36,1727444985446,-0.984375,0.06347656,-0.19140625,0.65625,0.53125,0.65625
37,1727444985486,-0.9814453,0.0625,-0.19238281,-0.125,-0.4375,0.40625
38,1727444985526,-0.9746094,0.06738281,-0.19824219,1.3125,0.03125,0.28125
39,1727444985566,-0.99121094,0.072265625,-0.19140625,0.84375,-0.25,0.65625
40,1727444985606,-0.9814453,0.056640625,-0.19238281,0.34375,-0.125,0.65625
41,1727444985646,-0.9746094,0.061523438,-0.17675781,0.65625,-0.375,0.40625
42,1727444985686,-0.9716797,0.059570312,-0.18554688,1.5,-0.5,0.21875
43,1727444985726,-0.9863281,0.072265625,-0.19824219,0.65625,0.0,0.03125
44,1727444985766,-0.9863281,0.06640625,-0.17871094,1.3125,0.15625,0.28125
45,1727444985806,-0.98535156,0.068359375,-0.19238281,-0.0625,-0.8125,0.15625
46,1727444985846,-0.98046875,0.06640625,-0.19824219,-0.25,-0.375,0.09375
47,1727444985886,-0.98046875,0.06738281,-0.18945312,0.65625,0.0,0.21875
48,1727444985926,-0.9892578,0.064453125,-0.17871094,0.71875,0.21875,0.15625
49,1727444985966,-0.98046875,0.068359375,-0.18164062,-0.75,-0.8125,-0.1875
50,1727444986006,-0.9785156,0.064453125,-0.18554688,-1.0,-0.8125,0.0
51,1727444986046,-0.9814453,0.06542969,-0.20703125,-0.625,-0.25,-0.25
52,1727444986086,-0.9707031,0.05859375,-0.19335938,-0.0625,-0.625,-0.25
53,1727444986126,-0.97558594,0.0625,-0.20410156,0.78125,-0.5625,0.15625
54,1727444986166,-0.9765625,0.06933594,-0.1875,0.53125,0.0,0.40625
55,1727444986206,-0.9921875,0.055664062,-0.17675781,1.6875,-0.25,0.65625
56,1727444986246,-0.96777344,0.07324219,-0.20214844,-0.3125,-1.3125,0.21875
57,1727444986286,-0.98339844,0.060546875,-0.18359375,0.21875,0.21875,0.34375
58,1727444986326,-0.9746094,0.056640625,-0.18457031,0.34375,-0.5625,0.90625
59,1727444986366,-0.98046875,0.06542969,-0.203125,1.4375,-0.6875,1.4375
60,1727444986406,-0.98339844,0.051757812,-0.18847656,2.0,0.96875,0.84375
61,1727444986446,-0.9921875,0.068359375,-0.16015625,-2.03125,-1.46875,-0.125
62,1727444986486,-0.97753906,0.052734375,-0.21289062,-1.125,-0.8125,-0.125
63,1727444986526,-0.9716797,0.05859375,-0.1796875,0.53125,0.0,0.90625
64,1727444986566,-0.97265625,0.057617188,-0.18554688,1.4375,0.0,1.03125
65,1727444986606,-0.9746094,0.06542969,-0.18457031,2.96875,0.71875,1.375
66,1727444986646,-0.98046875,0.06933594,-0.171875,0.90625,0.0,0.65625
67,1727444986686,-0.98046875,0.056640625,-0.1953125,0.03125,0.15625,0.78125
68,1727444986726,-0.9785156,0.06933594,-0.18359375,2.125,-0.1875,1.03125
69,1727444986766,-0.98046875,0.08105469,-0.21484375,1.5,-0.125,1.09375
70,1727444986806,-0.98339844,0.056640625,-0.18945312,0.65625,0.0,0.84375
71,1727444986846,-0.97265625,0.07519531,-0.19726562,1.3125,-0.125,0.84375
72,1727444986886,-0.97265625,0.06542969,-0.17089844,2.71875,-0.5625,1.3125
73,1727444986926,-0.9863281,0.07421875,-0.20507812,1.09375,0.40625,1.03125
74,1727444986966,-0.9736328,0.0546875,-0.18164062,-0.125,-0.375,0.40625
75,1727444987006,-0.9980469,0.08691406,-0.19042969,1.4375,-0.6875,0.65625
76,1727444987046,-0.98046875,0.08886719,-0.19238281,-1.71875,-0.375,0.15625
77,1727444987086,-0.96972656,0.0859375,-0.18554688,-2.46875,-0.875,0.21875
78,1727444987126,-0.9746094,0.055664062,-0.21289062,-1.3125,-0.75,0.71875
79,1727444987166,-0.9785156,0.064453125,-0.18847656,-1.90625,0.59375,-0.1875
80,1727444987206,-0.9824219,0.07324219,-0.19726562,-2.53125,-0.5625,-0.1875
81,1727444987246,-0.9765625,0.051757812,-0.21289062,-1.125,-0.0625,0.0
82,1727444987286,-0.984375,0.06933594,-0.18652344,0.40625,0.34375,0.15625
83,1727444987326,-0.9824219,0.060546875,-0.19726562,0.28125,0.34375,0.40625
84,1727444987366,-0.9765625,0.06640625,-0.19433594,1.21875,0.34375,0.53125
85,1727444987406,-0.9814453,0.055664062,-0.20019531,0.09375,-0.125,0.21875
86,1727444987446,-0.9892578,0.0546875,-0.19335938,1.375,-0.4375,0.46875
87,1727444987486,-0.97753906,0.07421875,-0.19238281,0.71875,-0.375,0.0
88,1727444987526,-0.9716797,0.06933594,-0.19042969,-0.1875,-0.9375,0.09375
89,1727444987566,-0.984375,0.06640625,-0.20214844,1.5,-0.25,0.34375
90,1727444987606,-0.97558594,0.0859375,-0.18359375,0.90625,0.21875,0.0
91,1727444987646,-0.97265625,0.07421875,-0.203125,-1.0,-0.8125,0.0
92,1727444987686,-0.9873047,0.06738281,-0.20117188,0.09375,-1.0625,0.34375
93,1727444987726,-0.98339844,0.055664062,-0.18945312,-1.1875,-0.75,-0.25
94,1727444987766,-0.9736328,0.080078125,-0.203125,-0.25,-0.6875,0.0
95,1727444987806,-0.9736328,0.06933594,-0.20410156,0.09375,-0.5625,0.53125
96,1727444987846,-0.984375,0.060546875,-0.20800781,0.96875,-0.1875,0.53125
97,1727444987886,-0.99121094,0.06542969,-0.19921875,1.5625,-0.375,0.21875
98,1727444987926,-0.97753906,0.07519531,-0.20507812,0.96875,0.03125,-0.3125
99,1727444987966,-0.9873047,0.06640625,-0.18261719,1.4375,-0.25,-0.125
100,1727444988006,-0.9902344,0.07128906,-0.19628906,0.46875,-0.8125,-0.6875
101,1727444988046,-0.9707031,0.076171875,-0.18652344,-1.3125,-1.46875,-0.9375
102,1727444988086,-0.97558594,0.05078125,-0.20800781,0.0,-1.0625,-0.125
103,1727444988126,-0.9765625,0.06738281,-0.19238281,1.3125,-0.1875,-0.875
104,1727444988166,-0.9765625,0.076171875,-0.19238281,-1.59375,-0.5625,-1.40625
105,1727444988206,-0.9785156,0.06542969,-0.203125,-2.09375,-1.84375,-0.6875
106,1727444988246,-0.97558594,0.06347656,-0.21777344,-1.125,-1.46875,-0.375
107,1727444988286,-0.97753906,0.04296875,-0.19921875,-0.75,-1.25,-0.75
108,1727444988326,-0.98535156,0.07128906,-0.17285156,1.625,0.0,-0.9375
109,1727444988366,-0.98535156,0.0625,-0.16699219,0.09375,-1.78125,-0.6875
110,1727444988406,-0.984375,0.047851562,-0.19921875,1.5625,-1.78125,-0.25
111,1727444988446,-0.98046875,0.043945312,-0.1875,0.71875,-0.5625,-1.125
112,1727444988486,-0.9941406,0.059570312,-0.17578125,3.28125,-0.75,-0.75
113,1727444988526,-0.9736328,0.068359375,-0.18457031,0.59375,-2.28125,-0.625
114,1727444988566,-0.9863281,0.038085938,-0.19824219,0.03125,-1.3125,-0.375
115,1727444988606,-0.9765625,0.043945312,-0.18945312,-1.125,-1.46875,-0.625
116,1727444988646,-0.9824219,0.057617188,-0.17480469,3.28125,-0.8125,0.0
117,1727444988686,-0.99316406,0.051757812,-0.17382812,1.09375,-1.59375,-0.75
118,1727444988726,-0.97265625,0.0625,-0.17675781,1.6875,-1.1875,-0.125
119,1727444988766,-0.9785156,0.05859375,-0.17480469,1.9375,-0.8125,0.53125
120,1727444988806,-0.98535156,0.052734375,-0.17285156,1.9375,-0.375,0.46875
121,1727444988846,-0.98046875,0.060546875,-0.18261719,0.03125,-0.6875,0.34375
122,1727444988886,-0.9863281,0.040039062,-0.17382812,1.28125,-0.6875,0.65625
123,1727444988926,-0.98046875,0.043945312,-0.18652344,-0.75,-0.75,-0.25
124,1727444988966,-0.9863281,0.056640625,-0.18457031,0.21875,-0.625,0.15625
125,1727444989006,-0.97753906,0.052734375,-0.17871094,-0.5,0.15625,0.46875
126,1727444989046,-0.98535156,0.061523438,-0.16503906,-0.5625,-0.0625,0.09375
127,1727444989086,-0.98535156,0.047851562,-0.18457031,-0.875,-0.5,0.03125
128,1727444989126,-0.9785156,0.052734375,-0.19140625,0.03125,0.0,0.09375
129,1727444989166,-0.99121094,0.053710938,-0.171875,-0.4375,-1.0625,-0.1875
130,1727444989206,-0.9863281,0.04296875,-0.1875,-1.96875,-0.8125,-0.875
131,1727444989246,-0.9765625,0.051757812,-0.18554688,-1.78125,-0.375,-0.5625
132,1727444989286,-0.9746094,0.046875,-0.16894531,0.65625,0.65625,-0.1875
133,1727444989326,-0.98535156,0.0546875,-0.16601562,0.03125,-0.3125,0.15625
134,1727444989366,-0.9814453,0.047851562,-0.16992188,0.03125,-0.4375,0.15625
135,1727444989406,-0.9863281,0.044921875,-0.19042969,0.09375,0.46875,0.03125
136,1727444989446,-0.98046875,0.056640625,-0.171875,0.78125,0.0,0.28125
137,1727444989486,-0.9746094,0.043945312,-0.171875,1.75,-0.25,1.15625
138,1727444989526,-0.9824219,0.047851562,-0.19433594,1.3125,0.28125,0.65625
139,1727444989566,-0.9863281,0.05859375,-0.17382812,1.5,0.0,0.40625
140,1727444989606,-0.9746094,0.05859375,-0.1875,0.90625,-0.3125,0.21875
141,1727444989646,-0.98046875,0.061523438,-0.16699219,0.40625,-0.5,0.28125
142,1727444989686,-0.9814453,0.036132812,-0.18457031,-0.125,-0.5,0.15625
143,1727444989726,-0.98339844,0.049804688,-0.18164062,1.5,0.03125,0.15625
144,1727444989766,-0.97558594,0.048828125,-0.18261719,-0.25,-0.8125,0.21875
145,1727444989806,-0.9765625,0.0546875,-0.19140625,2.65625,0.46875,1.09375
146,1727444989846,-0.97265625,0.05078125,-0.19921875,2.0625,0.21875,0.78125
147,1727444989886,-0.9863281,0.049804688,-0.19335938,0.78125,-0.1875,0.40625
148,1727444989926,-0.9785156,0.052734375,-0.18847656,0.59375,-0.5625,0.71875
149,1727444989966,-0.9667969,0.051757812,-0.18457031,0.65625,-0.4375,0.0
150,1727444990006,-0.99121094,0.05078125,-0.16699219,1.75,-1.46875,0.40625
151,1727444990046,-0.97753906,0.041992188,-0.19726562,1.6875,-1.84375,1.03125
152,1727444990086,-0.97753906,0.041015625,-0.19921875,2.0,1.03125,0.78125
153,1727444990126,-0.99121094,0.056640625,-0.1640625,3.21875,1.3125,1.03125
154,1727444990166,-0.98339844,0.05859375,-0.18261719,0.78125,-0.25,0.90625
155,1727444990206,-0.9746094,0.04296875,-0.1875,0.03125,0.46875,0.96875
156,1727444990246,-0.9824219,0.053710938,-0.1796875,0.15625,0.96875,0.71875
157,1727444990286,-0.98046875,0.059570312,-0.18554688,0.40625,-0.125,0.96875
158,1727444990326,-0.9824219,0.0546875,-0.17382812,0.96875,0.28125,1.4375
159,1727444990366,-0.9746094,0.055664062,-0.20507812,-0.6875,0.34375,1.15625
160,1727444990406,-0.98046875,0.047851562,-0.18554688,-0.5625,0.96875,0.96875
161,1727444990446,-0.98046875,0.053710938,-0.17871094,-0.25,0.59375,0.84375
162,1727444990486,-0.9892578,0.05859375,-0.19628906,0.09375,0.0,1.21875
163,1727444990526,-0.9794922,0.059570312,-0.19921875,-0.125,0.90625,0.90625
164,1727444990566,-0.9921875,0.05859375,-0.17871094,0.65625,1.3125,0.84375
165,1727444990606,-0.984375,0.06347656,-0.20019531,-1.53125,-0.3125,0.65625
166,1727444990646,-0.98046875,0.057617188,-0.18945312,0.46875,0.84375,1.15625
167,1727444990686,-0.98535156,0.055664062,-0.1875,-0.5,0.59375,0.84375
168,1727444990726,-0.9892578,0.06640625,-0.19335938,-1.90625,-0.375,0.0
169,1727444990766,-0.9716797,0.05859375,-0.18359375,-1.0625,0.03125,0.40625
170,1727444990806,-0.98828125,0.072265625,-0.18066406,-1.90625,-0.25,0.40625
171,1727444990846,-0.9746094,0.055664062,-0.19628906,-1.25,-0.375,0.84375
172,1727444990886,-0.9863281,0.06542969,-0.18945312,-0.875,0.15625,0.21875
173,1727444990926,-0.984375,0.06933594,-0.20898438,-2.21875,-0.75,0.34375
174,1727444990966,-0.9794922,0.0546875,-0.18457031,-1.3125,-0.25,0.34375
175,1727444991006,-0.98339844,0.060546875,-0.18847656,-1.125,-0.625,0.28125
176,1727444991046,-0.9902344,0.056640625,-0.18652344,-1.125,-0.25,0.09375
177,1727444991086,-0.9873047,0.057617188,-0.18945312,-0.1875,-0.4375,0.03125
178,1727444991126,-0.9765625,0.057617188,-0.20605469,-0.875,-0.875,0.09375
179,1727444991166,-0.97753906,0.052734375,-0.18554688,0.21875,0.15625,0.46875
180,1727444991206,-0.9785156,0.05859375,-0.19726562,0.90625,0.09375,0.46875
181,1727444991246,-0.9941406,0.06347656,-0.18554688,0.53125,0.03125,0.65625
182,1727444991286,-0.9736328,0.06542969,-0.19628906,-0.5625,-0.4375,0.65625
183,1727444991326,-0.984375,0.044921875,-0.1875,0.71875,-0.125,0.71875
184,1727444991366,-0.98046875,0.057617188,-0.1953125,0.90625,0.21875,0.65625
185,1727444991406,-0.97558594,0.057617188,-0.20117188,0.21875,0.0,0.15625
186,1727444991446,-0.9746094,0.06347656,-0.19726562,-0.4375,-0.5625,0.0
187,1727444991486,-0.9785156,0.0625,-0.1875,-0.0625,-0.4375,0.03125
188,1727444991526,-0.9794922,0.05859375,-0.18652344,1.6875,-0.3125,0.71875
189,1727444991566,-0.9736328,0.057617188,-0.20019531,1.28125,-0.25,0.40625
190,1727444991606,-0.9736328,0.0625,-0.18945312,1.5,0.34375,0.34375
191,1727444991646,-0.9765625,0.05859375,-0.19140625,1.6875,-0.25,0.65625
192,1727444991686,-0.9814453,0.049804688,-0.203125,0.96875,-0.25,0.90625
193,1727444991726,-0.9863281,0.057617188,-0.18652344,1.5625,0.0,0.40625
194,1727444991766,-0.97558594,0.052734375,-0.20214844,-2.28125,-0.875,-0.5
195,1727444991806,-0.9794922,0.061523438,-0.203125,1.03125,-0.125,0.65625
196,1727444991846,-0.9863281,0.0703125,-0.18652344,0.84375,0.15625,0.65625
197,1727444991886,-0.99316406,0.07324219,-0.19238281,0.0,0.03125,0.65625
198,1727444991926,-0.97753906,0.0703125,-0.19824219,0.0,-0.625,0.65625
199,1727444991966,-0.9746094,0.064453125,-0.18847656,-2.75,-1.0,0.28125
200,1727444992006,-0.96777344,0.047851562,-0.20996094,-0.9375,0.46875,0.34375
201,1727444992046,-0.9873047,0.064453125,-0.18457031,-0.3125,-0.875,0.09375
202,1727444992086,-0.9794922,0.061523438,-0.203125,-1.65625,-0.3125,-0.1875
203,1727444992126,-0.97265625,0.053710938,-0.17871094,-1.3125,-0.3125,-0.25
204,1727444992166,-0.9892578,0.056640625,-0.18359375,-0.3125,-1.53125,0.46875
205,1727444992206,-0.97265625,0.0546875,-0.20117188,-0.8125,-0.6875,0.0
206,1727444992246,-0.98339844,0.057617188,-0.19042969,0.15625,-0.5625,-0.4375
207,1727444992286,-0.98046875,0.045898438,-0.203125,2.25,-0.5,0.15625
208,1727444992326,-0.97753906,0.064453125,-0.1953125,0.34375,-0.625,0.09375
209,1727444992366,-0.98046875,0.07128906,-0.19824219,1.15625,-0.125,0.78125
210,1727444992406,-0.9746094,0.053710938,-0.18261719,2.5625,0.40625,0.78125
211,1727444992446,-0.9794922,0.052734375,-0.18554688,0.09375,-0.5,0.28125
212,1727444992486,-0.96777344,0.052734375,-0.21484375,-0.0625,-0.3125,0.53125
213,1727444992526,-0.9824219,0.059570312,-0.19140625,1.21875,0.71875,0.46875
214,1727444992566,-0.9824219,0.06542969,-0.1796875,0.53125,0.0,0.65625
215,1727444992606,-0.98046875,0.0625,-0.18847656,0.15625,-0.1875,0.96875
216,1727444992646,-0.984375,0.047851562,-0.20214844,1.375,0.65625,1.03125
217,1727444992686,-0.99316406,0.05859375,-0.18359375,0.09375,0.34375,0.21875
218,1727444992726,-0.98535156,0.0546875,-0.203125,-0.75,-0.1875,0.21875
219,1727444992766,-0.9716797,0.07128906,-0.20898438,-0.1875,-0.3125,0.65625
220,1727444992806,-0.9746094,0.072265625,-0.1875,0.34375,0.71875,0.78125
221,1727444992846,-0.97558594,0.061523438,-0.20019531,0.53125,0.28125,1.09375
222,1727444992886,-0.9824219,0.047851562,-0.19433594,-0.875,0.09375,0.84375
223,1727444992926,-0.98046875,0.061523438,-0.19335938,-0.0625,0.15625,0.65625
224,1727444992966,-0.9785156,0.060546875,-0.20507812,-0.6875,0.03125,0.21875
225,1727444993006,-0.9824219,0.061523438,-0.20605469,1.375,0.46875,0.71875
226,1727444993046,-0.9785156,0.06542969,-0.19921875,1.4375,0.28125,0.78125
227,1727444993086,-0.98046875,0.0703125,-0.20410156,0.03125,0.40625,0.78125
228,1727444993126,-0.97753906,0.06542969,-0.20703125,0.53125,0.40625,0.84375
229,1727444993166,-0.98339844,0.076171875,-0.20800781,0.65625,0.96875,1.03125
230,1727444993206,-0.9824219,0.06640625,-0.19726562,-0.6875,0.09375,1.03125
231,1727444993246,-0.97265625,0.06347656,-0.20410156,-1.0,0.09375,0.78125
232,1727444993286,-0.97753906,0.04296875,-0.19726562,0.46875,0.46875,0.90625
233,1727444993326,-0.98339844,0.06542969,-0.21386719,0.53125,0.71875,0.84375
234,1727444993366,-0.98046875,0.06738281,-0.21289062,-0.3125,0.03125,0.40625
235,1727444993406,-0.98535156,0.07324219,-0.1953125,1.09375,0.53125,0.90625
236,1727444993446,-0.97753906,0.072265625,-0.20214844,0.53125,0.15625,0.90625
237,1727444993486,-0.96972656,0.06738281,-0.21386719,0.0,0.46875,0.65625
238,1727444993526,-0.9736328,0.068359375,-0.21972656,1.21875,0.53125,1.03125
239,1727444993566,-0.9814453,0.072265625,-0.21191406,1.15625,0.46875,0.71875
240,1727444993606,-0.9814453,0.06933594,-0.20507812,0.40625,0.0,0.40625
241,1727444993646,-0.96484375,0.07714844,-0.21289062,0.40625,-0.4375,0.65625
242,1727444993686,-0.97265625,0.057617188,-0.203125,0.84375,0.28125,0.96875
243,1727444993726,-0.9746094,0.072265625,-0.20507812,0.0,0.09375,0.09375
244,1727444993766,-0.9716797,0.06542969,-0.20996094,0.78125,-0.3125,0.53125
245,1727444993806,-0.98339844,0.06542969,-0.21289062,1.15625,0.03125,0.53125
246,1727444993846,-0.9824219,0.07324219,-0.20898438,-0.875,-0.5,0.46875
247,1727444993886,-0.9814453,0.056640625,-0.20996094,1.21875,0.09375,0.90625
248,1727444993926,-0.9814453,0.057617188,-0.20214844,0.46875,0.21875,0.28125
249,1727444993966,-0.9785156,0.06347656,-0.20800781,-0.25,-1.1875,0.46875
250,1727444994006,-0.9628906,0.06738281,-0.22558594,0.28125,0.0,0.15625
251,1727444994046,-0.9814453,0.07714844,-0.20703125,0.0,-0.6875,0.34375
252,1727444994086,-0.97265625,0.05859375,-0.21289062,0.96875,0.03125,0.65625
253,1727444994126,-0.9785156,0.0625,-0.21289062,0.96875,-0.125,0.46875
254,1727444994166,-0.9824219,0.0625,-0.21191406,0.34375,-0.625,0.46875
255,1727444994206,-0.9746094,0.068359375,-0.2109375,1.09375,0.03125,0.28125
256,1727444994246,-0.9736328,0.07128906,-0.19726562,-0.0625,-0.8125,0.15625
257,1727444994286,-0.98046875,0.068359375,-0.20898438,0.46875,-0.3125,0.34375
258,1727444994326,-0.98046875,0.08203125,-0.19628906,0.21875,-0.75,0.46875
259,1727444994366,-0.97558594,0.068359375,-0.22753906,0.59375,-0.1875,0.28125
260,1727444994406,-0.9746094,0.0703125,-0.18457031,-0.3125,-1.0,0.0
261,1727444994446,-0.98339844,0.076171875,-0.21679688,0.03125,-0.75,0.34375
262,1727444994486,-0.9736328,0.07128906,-0.20410156,-0.75,-0.625,0.03125
263,1727444994526,-0.9785156,0.059570312,-0.20996094,-0.5625,-0.6875,0.40625
264,1727444994566,-0.97265625,0.06640625,-0.2109375,0.71875,-0.625,0.34375
265,1727444994606,-0.97753906,0.05859375,-0.20410156,-0.3125,-0.8125,0.28125
266,1727444994646,-0.9794922,0.061523438,-0.2109375,0.03125,-0.4375,0.40625
267,1727444994686,-0.9892578,0.064453125,-0.1953125,0.0,-0.9375,0.03125
268,1727444994726,-0.97753906,0.0625,-0.20019531,0.59375,-0.6875,0.15625
269,1727444994766,-0.98339844,0.06542969,-0.20214844,1.28125,-1.25,0.21875
270,1727444994806,-0.9746094,0.07421875,-0.21777344,0.96875,-0.375,0.21875
271,1727444994846,-0.984375,0.06738281,-0.20507812,1.3125,-0.75,0.40625
272,1727444994886,-0.97265625,0.072265625,-0.20898438,-0.3125,-1.40625,0.09375
273,1727444994926,-0.97753906,0.07128906,-0.21582031,0.90625,-0.5625,0.40625
274,1727444994966,-0.97753906,0.06542969,-0.20898438,0.46875,-1.0625,0.03125
275,1727444995006,-0.98535156,0.07421875,-0.20019531,0.15625,-0.8125,0.0
276,1727444995046,-0.9765625,0.068359375,-0.20019531,0.21875,-1.3125,0.34375
277,1727444995086,-0.96777344,0.06640625,-0.20800781,-0.1875,-0.6875,0.0
278,1727444995126,-0.97558594,0.078125,-0.19335938,0.59375,-0.6875,0.09375
279,1727444995166,-0.9716797,0.068359375,-0.20117188,-0.9375,-1.53125,0.53125
280,1727444995206,-0.9765625,0.057617188,-0.20410156,-1.3125,-0.875,0.21875
281,1727444995246,-0.96875,0.05078125,-0.20605469,-0.25,-1.0,0.03125
282,1727444995286,-0.9873047,0.068359375,-0.19726562,-0.25,-0.3125,-0.25
283,1727444995326,-0.9765625,0.059570312,-0.18066406,0.09375,-1.1875,-0.125
284,1727444995366,-0.9863281,0.056640625,-0.20019531,0.40625,-0.875,0.0
285,1727444995406,-0.9814453,0.0703125,-0.20117188,0.46875,-0.5,-0.25
286,1727444995446,-0.96972656,0.06933594,-0.203125,1.75,-0.8125,0.03125
287,1727444995486,-0.97753906,0.0625,-0.19824219,2.1875,-0.6875,0.15625
288,1727444995526,-0.9970703,0.05859375,-0.19824219,1.4375,-0.375,0.03125
289,1727444995566,-0.984375,0.060546875,-0.20019531,0.71875,-1.3125,0.0
290,1727444995606,-0.9746094,0.07519531,-0.19921875,0.40625,-0.875,0.0
291,1727444995646,-0.98339844,0.06738281,-0.19042969,-0.0625,-0.6875,0.0
292,1727444995686,-0.97753906,0.06347656,-0.19335938,-0.3125,-1.59375,0.15625
293,1727444995726,-0.9814453,0.06640625,-0.20703125,-1.0625,-0.9375,-0.25
294,1727444995766,-0.984375,0.07421875,-0.20214844,-0.8125,-0.0625,-0.3125
295,1727444995806,-0.97753906,0.0703125,-0.18457031,0.03125,-1.125,0.03125
296,1727444995846,-0.97753906,0.056640625,-0.20117188,-0.4375,-1.0,0.0
297,1727444995886,-0.98339844,0.056640625,-0.18847656,-0.9375,-1.125,-0.5
298,1727444995926,-0.9814453,0.047851562,-0.16601562,-0.25,-0.9375,0.0
299,1727444995966,-0.98535156,0.059570312,-0.19140625,1.28125,-0.6875,0.09375
300,1727444996006,-0.9785156,0.056640625,-0.19824219,0.09375,-0.875,-0.375
301,1727444996046,-0.98046875,0.049804688,-0.19628906,1.9375,-0.3125,0.21875
302,1727444996086,-0.9863281,0.060546875,-0.20605469,0.78125,-0.875,0.03125
303,1727444996126,-0.97558594,0.0546875,-0.19238281,0.84375,-0.375,0.03125
304,1727444996166,-0.97753906,0.064453125,-0.19921875,1.28125,-0.75,0.03125
305,1727444996206,-0.9785156,0.053710938,-0.20898438,0.40625,-0.375,0.09375
306,1727444996246,-0.98535156,0.059570312,-0.19140625,1.28125,-0.375,0.21875
307,1727444996286,-0.9824219,0.048828125,-0.203125,0.15625,-0.5625,0.21875
308,1727444996326,-0.98535156,0.057617188,-0.19824219,0.84375,-0.375,0.40625
309,1727444996366,-0.9765625,0.055664062,-0.20019531,0.40625,-0.6875,0.15625
310,1727444996406,-0.9746094,0.0625,-0.18847656,0.28125,-0.375,0.15625
311,1727444996446,-0.9824219,0.068359375,-0.1875,0.21875,-0.625,0.0
312,1727444996486,-0.98339844,0.05078125,-0.18945312,0.0,-0.75,0.21875
313,1727444996526,-0.9785156,0.06640625,-0.20410156,-0.625,-0.75,-0.1875
314,1727444996566,-0.98535156,0.060546875,-0.21191406,-0.125,-0.6875,0.21875
315,1727444996606,-0.9765625,0.05859375,-0.19042969,-0.6875,-0.6875,0.21875
316,1727444996646,-0.9814453,0.06542969,-0.18457031,-0.3125,-0.375,0.15625
317,1727444996686,-0.9794922,0.052734375,-0.18652344,0.65625,-0.125,0.0
318,1727444996726,-0.9785156,0.051757812,-0.1953125,0.15625,-0.5,0.09375
319,1727444996766,-0.9716797,0.06347656,-0.18554688,0.59375,-0.3125,0.0
320,1727444996806,-0.9765625,0.064453125,-0.19726562,0.21875,-0.5625,0.0
321,1727444996846,-0.9892578,0.052734375,-0.18066406,0.65625,-0.4375,0.40625
322,1727444996886,-0.9921875,0.06347656,-0.19335938,0.21875,-0.1875,0.09375
323,1727444996926,-0.99121094,0.052734375,-0.18652344,0.34375,-0.5,0.15625
324,1727444996966,-0.97558594,0.052734375,-0.19824219,-0.75,-1.46875,0.09375
325,1727444997006,-0.9765625,0.055664062,-0.20410156,0.28125,-0.125,0.21875
326,1727444997046,-0.9765625,0.061523438,-0.18359375,2.375,0.71875,1.21875
327,1727444997086,-0.98535156,0.060546875,-0.18359375,1.375,0.0,0.96875
328,1727444997126,-0.9746094,0.057617188,-0.1953125,-0.0625,0.15625,0.53125
329,1727444997166,-0.9785156,0.055664062,-0.18554688,0.90625,0.28125,0.71875
330,1727444997206,-0.9765625,0.059570312,-0.19628906,0.90625,-0.3125,0.65625
331,1727444997246,-0.9951172,0.05078125,-0.16699219,0.40625,0.21875,0.34375
332,1727444997286,-0.9667969,0.06347656,-0.20898438,-1.53125,-0.75,-0.125
333,1727444997326,-0.9814453,0.064453125,-0.18457031,2.5,0.53125,1.3125
334,1727444997366,-0.97753906,0.049804688,-0.17773438,-0.375,-0.0625,0.65625
335,1727444997406,-0.9814453,0.06738281,-0.18164062,0.71875,0.03125,0.65625
336,1727444997446,-0.97753906,0.053710938,-0.20605469,1.03125,0.0,0.71875
337,1727444997486,-0.9824219,0.06640625,-0.1875,0.71875,0.21875,0.71875
338,1727444997526,-0.9746094,0.061523438,-0.19726562,0.78125,-0.3125,0.46875
339,1727444997566,-0.9785156,0.061523438,-0.19335938,0.46875,0.0,0.71875
340,1727444997606,-0.9746094,0.0625,-0.19238281,1.3125,0.09375,1.03125
341,1727444997646,-0.98046875,0.07128906,-0.19042969,0.40625,0.09375,0.34375
342,1727444997686,-0.98046875,0.072265625,-0.1796875,0.46875,0.0,0.65625
343,1727444997726,-0.97265625,0.0625,-0.19140625,0.34375,0.09375,0.71875
344,1727444997766,-0.97558594,0.061523438,-0.19238281,-0.8125,-0.0625,0.34375
345,1727444997806,-0.9785156,0.06640625,-0.19726562,0.34375,0.09375,0.28125
346,1727444997846,-0.98046875,0.061523438,-0.19335938,0.0,0.21875,0.09375
347,1727444997886,-0.97265625,0.06542969,-0.20410156,-0.1875,-0.25,0.21875
348,1727444997926,-0.9785156,0.064453125,-0.19433594,-0.0625,-0.4375,0.40625
349,1727444997966,-0.97753906,0.0625,-0.19921875,-0.875,0.0,0.28125
350,1727444998006,-0.98339844,0.048828125,-0.17285156,0.34375,-0.125,0.40625
351,1727444998046,-0.9785156,0.057617188,-0.203125,-0.125,-0.4375,0.21875
352,1727444998086,-0.97265625,0.06933594,-0.18847656,0.03125,0.15625,0.15625
353,1727444998126,-0.9736328,0.068359375,-0.20507812,0.0,-0.4375,0.09375
354,1727444998166,-0.9765625,0.05859375,-0.18457031,-0.0625,-0.125,0.28125
355,1727444998206,-0.98046875,0.056640625,-0.21191406,0.46875,0.0,0.40625
356,1727444998246,-0.98339844,0.0625,-0.1875,0.65625,0.03125,0.28125
357,1727444998286,-0.9824219,0.07128906,-0.19921875,1.09375,0.15625,0.40625
358,1727444998326,-0.9814453,0.0625,-0.20019531,-0.3125,-0.25,0.28125
359,1727444998366,-0.97753906,0.064453125,-0.18164062,-0.5,0.09375,0.09375
360,1727444998406,-0.9863281,0.059570312,-0.19628906,0.28125,-0.125,0.65625
361,1727444998446,-0.984375,0.056640625,-0.1953125,-0.9375,-0.0625,0.0
362,1727444998486,-0.97558594,0.056640625,-0.20117188,0.0,0.21875,0.0
363,1727444998526,-0.9785156,0.049804688,-0.19921875,-0.1875,-0.0625,0.03125
364,1727444998566,-0.9863281,0.059570312,-0.17578125,0.21875,0.46875,0.15625
365,1727444998606,-0.984375,0.059570312,-0.20507812,-0.0625,-0.375,0.53125
366,1727444998646,-0.9765625,0.0546875,-0.19042969,-0.3125,0.03125,0.34375
367,1727444998686,-0.9794922,0.056640625,-0.20117188,1.09375,0.21875,0.46875
368,1727444998726,-0.98828125,0.06933594,-0.20507812,0.65625,0.09375,0.09375
369,1727444998766,-0.984375,0.06347656,-0.20117188,0.90625,0.03125,0.65625
370,1727444998806,-0.9814453,0.06542969,-0.2109375,0.71875,0.15625,0.65625
371,1727444998846,-0.9814453,0.07324219,-0.18359375,0.28125,0.15625,0.28125
372,1727444998886,-0.98046875,0.0625,-0.21777344,0.40625,0.0,0.46875
373,1727444998926,-0.9716797,0.053710938,-0.19726562,0.34375,0.0,0.65625
374,1727444998966,-0.9785156,0.055664062,-0.2109375,-1.125,-0.5,0.09375
375,1727444999006,-0.97558594,0.06640625,-0.19140625,-0.6875,-0.3125,0.0
376,1727444999046,-0.9794922,0.0625,-0.20117188,-0.0625,-0.4375,0.15625
377,1727444999086,-0.9736328,0.0625,-0.19238281,0.0,-0.375,0.21875
378,1727444999126,-0.98046875,0.056640625,-0.20507812,0.28125,-0.25,0.34375
379,1727444999166,-0.984375,0.0625,-0.1953125,0.46875,-0.125,0.28125
380,1727444999206,-0.9765625,0.056640625,-0.19726562,0.59375,-0.625,0.34375
381,1727444999246,-0.97558594,0.061523438,-0.19726562,0.71875,-0.1875,0.40625
382,1727444999286,-0.9814453,0.060546875,-0.19921875,0.28125,-0.5,0.65625
383,1727444999326,-0.97558594,0.061523438,-0.20703125,0.78125,-0.4375,0.53125
384,1727444999366,-0.9785156,0.0625,-0.20214844,1.03125,-0.1875,0.34375
385,1727444999406,-0.9785156,0.06542969,-0.18847656,0.84375,-0.5,0.34375
386,1727444999446,-0.97753906,0.05859375,-0.20800781,0.71875,-0.875,0.28125
387,1727444999486,-0.97753906,0.06640625,-0.2109375,-0.25,-0.8125,0.21875
388,1727444999526,-0.9794922,0.068359375,-0.19921875,0.59375,-0.5625,0.53125
389,1727444999566,-0.97753906,0.061523438,-0.18945312,1.09375,-0.4375,0.53125
390,1727444999606,-0.9814453,0.0625,-0.21191406,0.40625,-0.625,0.28125
391,1727444999646,-0.984375,0.055664062,-0.19335938,0.28125,-0.8125,0.40625
392,1727444999686,-0.9824219,0.060546875,-0.20410156,0.28125,0.0,-0.125
393,1727444999726,-0.98535156,0.061523438,-0.19335938,-0.4375,-0.4375,-0.1875
394,1727444999766,-0.9824219,0.051757812,-0.19824219,-0.4375,-0.5,-0.0625
395,1727444999806,-0.9794922,0.057617188,-0.18652344,-0.625,-0.25,-0.125
396,1727444999846,-0.9873047,0.060546875,-0.19433594,0.46875,-0.5,-0.25
397,1727444999886,-0.9794922,0.053710938,-0.20605469,-0.375,-0.6875,-0.1875
398,1727444999926,-0.9814453,0.055664062,-0.19042969,0.0,-0.125,0.09375
399,1727444999966,-0.9902344,0.057617188,-0.18261719,-0.0625,-0.8125,0.03125
400,1727445000006,-0.9873047,0.046875,-0.19824219,0.84375,0.0,0.0
401,1727445000046,-0.9873047,0.072265625,-0.19140625,0.46875,-0.3125,-0.125
402,1727445000086,-0.97753906,0.0625,-0.19238281,-0.375,-0.6875,-0.25
403,1727445000126,-0.97558594,0.055664062,-0.20019531,0.28125,-0.5625,-0.1875
404,1727445000166,-0.98828125,0.060546875,-0.18652344,-0.6875,-0.5,-0.4375
405,1727445000206,-0.97265625,0.060546875,-0.18847656,-0.0625,-0.5625,-0.0625
406,1727445000246,-0.9814453,0.06347656,-0.1875,0.21875,-0.375,-0.0625
407,1727445000286,-0.98339844,0.060546875,-0.20117188,-0.375,-1.0,-0.3125
408,1727445000326,-0.9746094,0.064453125,-0.18261719,-0.375,-0.8125,-0.25
409,1727445000366,-0.97265625,0.05859375,-0.19140625,-0.125,-0.8125,0.0
410,1727445000406,-0.9746094,0.053710938,-0.19726562,0.15625,-0.5,0.0
411,1727445000446,-0.98046875,0.059570312,-0.19140625,0.28125,-0.1875,-0.0625
412,1727445000486,-0.984375,0.05859375,-0.17285156,-0.125,-0.875,-0.1875
413,1727445000526,-0.98535156,0.06347656,-0.20019531,0.15625,-0.6875,0.09375
414,1727445000566,-0.9824219,0.057617188,-0.18261719,-1.53125,-0.875,-0.1875
415,1727445000606,-0.9921875,0.05078125,-0.20117188,-0.625,-0.25,-0.125
416,1727445000646,-0.97753906,0.05859375,-0.16699219,0.59375,-0.5625,-0.25
417,1727445000686,-0.9736328,0.044921875,-0.19238281,-1.71875,-1.3125,-0.75
418,1727445000726,-0.9736328,0.0625,-0.1796875,-0.75,-0.3125,-0.6875
419,1727445000766,-0.9785156,0.0625,-0.20117188,-0.0625,-0.9375,-0.3125
420,1727445000806,-0.9814453,0.057617188,-0.1875,0.40625,-0.25,0.0
421,1727445000846,-0.984375,0.05859375,-0.18457031,0.90625,0.15625,0.21875
422,1727445000886,-0.98535156,0.055664062,-0.19628906,0.28125,-0.125,0.21875
423,1727445000926,-0.98046875,0.053710938,-0.1796875,0.15625,-0.5,0.0
424,1727445000966,-0.9814453,0.061523438,-0.18847656,-0.625,-0.4375,-0.0625
425,1727445001006,-0.98535156,0.061523438,-0.18847656,0.40625,0.03125,0.03125
426,1727445001046,-0.9824219,0.0546875,-0.19921875,0.15625,0.03125,0.09375
427,1727445001086,-0.97558594,0.057617188,-0.19628906,0.78125,0.0,0.03125
428,1727445001126,-0.98535156,0.06542969,-0.18847656,0.0,-0.0625,-0.0625
429,1727445001166,-0.9863281,0.061523438,-0.1875,0.40625,-0.0625,-0.0625
430,1727445001206,-0.98535156,0.061523438,-0.18261719,-0.25,0.0,-0.1875
431,1727445001246,-0.9814453,0.0546875,-0.18261719,0.84375,0.59375,-0.125
432,1727445001286,-0.97558594,0.0703125,-0.18457031,0.21875,0.28125,-0.1875
433,1727445001326,-0.9736328,0.05078125,-0.19921875,0.40625,0.34375,0.03125
434,1727445001366,-0.9863281,0.064453125,-0.18164062,1.3125,0.53125,-0.1875
435,1727445001406,-0.96972656,0.047851562,-0.19726562,-2.46875,-0.25,-0.8125
436,1727445001446,-0.96972656,0.06347656,-0.17675781,0.59375,0.15625,-0.0625
437,1727445001486,-0.99316406,0.046875,-0.20214844,1.09375,0.15625,0.15625
438,1727445001526,-0.98535156,0.053710938,-0.20507812,0.15625,0.84375,-0.375
439,1727445001566,-0.9814453,0.07519531,-0.17285156,-0.375,0.0,-0.5625
440,1727445001606,-0.98046875,0.041992188,-0.21191406,-0.625,-0.0625,0.0
441,1727445001646,-0.9765625,0.053710938,-0.19433594,0.46875,0.46875,-0.3125
442,1727445001686,-0.9892578,0.055664062,-0.18457031,-0.5,-0.3125,-0.25
443,1727445001726,-0.9707031,0.05078125,-0.20410156,-0.6875,-0.0625,-0.375
444,1727445001766,-0.9863281,0.06347656,-0.18847656,-0.0625,0.15625,-0.4375
445,1727445001806,-0.9785156,0.06347656,-0.203125,-0.75,-0.375,0.0
446,1727445001846,-0.9814453,0.045898438,-0.18652344,1.375,0.03125,0.59375
447,1727445001886,-0.97558594,0.038085938,-0.19824219,-0.75,0.09375,-0.3125
448,1727445001926,-0.9921875,0.05859375,-0.18457031,0.21875,0.28125,-0.4375
449,1727445001966,-0.9824219,0.06347656,-0.19042969,-0.125,-0.125,-0.125
450,1727445002006,-0.9785156,0.07128906,-0.1953125,-0.9375,0.15625,-0.375
451,1727445002046,-0.984375,0.060546875,-0.18261719,-1.25,0.34375,0.09375
452,1727445002086,-0.984375,0.048828125,-0.17773438,-0.4375,0.46875,-0.0625
453,1727445002126,-0.97753906,0.078125,-0.20019531,-1.34375,-0.75,0.03125
454,1727445002166,-0.984375,0.048828125,-0.1875,-1.0625,-0.5625,0.09375
455,1727445002206,-0.96972656,0.06347656,-0.20800781,-1.34375,0.09375,-0.25
456,1727445002246,-0.9902344,0.059570312,-0.17382812,0.0,-0.5,-0.0625
457,1727445002286,-0.97265625,0.045898438,-0.21191406,-1.0,-0.3125,0.0
458,1727445002326,-0.98046875,0.060546875,-0.18261719,0.40625,0.03125,0.03125
459,1727445002366,-0.9707031,0.046875,-0.18652344,-0.5,0.34375,-0.5
460,1727445002406,-0.98535156,0.07324219,-0.19140625,1.375,-0.6875,0.0
461,1727445002446,-0.97558594,0.048828125,-0.20898438,0.40625,-0.875,0.46875
462,1727445002486,-0.9716797,0.041992188,-0.203125,0.71875,0.40625,0.15625
463,1727445002526,-0.9863281,0.057617188,-0.17773438,0.78125,0.84375,-0.3125
464,1727445002566,-0.99121094,0.047851562,-0.19042969,0.34375,-0.1875,-0.375
465,1727445002606,-0.98535156,0.05859375,-0.18945312,1.28125,-0.4375,0.21875
466,1727445002646,-0.9746094,0.06542969,-0.19824219,-0.4375,-0.3125,0.0
467,1727445002686,-0.98046875,0.06640625,-0.19921875,1.28125,0.03125,0.0
468,1727445002726,-0.9785156,0.0546875,-0.18261719,0.28125,-0.4375,0.15625
469,1727445002766,-0.9785156,0.05859375,-0.19726562,-0.125,-0.5625,0.15625
470,1727445002806,-0.9765625,0.049804688,-0.1875,-0.5,-0.375,0.0
471,1727445002846,-0.9824219,0.052734375,-0.20214844,0.03125,-0.125,-0.125
472,1727445002886,-0.9814453,0.061523438,-0.19433594,-1.125,-0.8125,-0.5
473,1727445002926,-0.97558594,0.052734375,-0.20703125,-0.5,-0.4375,-0.25
474,1727445002966,-0.984375,0.052734375,-0.19238281,0.96875,0.0,0.0
475,1727445003006,-0.98046875,0.051757812,-0.20117188,0.0,-0.6875,-0.375
476,1727445003046,-0.9814453,0.052734375,-0.19140625,-0.375,-0.625,-0.3125
477,1727445003086,-0.98046875,0.055664062,-0.19335938,-0.1875,-0.5,-0.1875
478,1727445003126,-0.9785156,0.056640625,-0.18261719,-0.5625,-0.1875,-0.25
479,1727445003166,-0.9951172,0.043945312,-0.19433594,0.78125,0.0,-0.125
480,1727445003206,-0.9814453,0.056640625,-0.18554688,0.65625,-0.625,-0.125
481,1727445003246,-0.9863281,0.061523438,-0.19042969,-0.5625,-0.5,-0.3125
482,1727445003286,-0.98535156,0.064453125,-0.18261719,0.09375,-0.4375,-0.3125
483,1727445003326,-0.9746094,0.052734375,-0.18945312,0.09375,-0.875,-0.125
484,1727445003366,-0.9873047,0.048828125,-0.1875,0.03125,-0.0625,-0.1875
485,1727445003406,-0.984375,0.053710938,-0.19628906,0.03125,-0.25,-0.0625
486,1727445003446,-0.984375,0.055664062,-0.19726562,-0.25,-0.6875,-0.3125
487,1727445003486,-0.96777344,0.048828125,-0.18359375,-0.625,-0.875,-0.625
488,1727445003526,-0.9824219,0.061523438,-0.17871094,-0.25,-0.5625,-0.5
489,1727445003566,-0.98339844,0.04296875,-0.18164062,-0.25,-0.4375,-0.5625
490,1727445003606,-0.9863281,0.04296875,-0.19628906,-0.625,-0.75,-0.3125
491,1727445003646,-0.9736328,0.052734375,-0.18652344,0.21875,-0.0625,-0.0625
492,1727445003686,-0.9941406,0.04296875,-0.19238281,0.03125,0.21875,-0.125
493,1727445003726,-0.984375,0.0625,-0.17871094,-0.875,-0.25,-0.4375
494,1727445003766,-0.9785156,0.043945312,-0.18066406,-0.0625,-0.5,0.09375
495,1727445003806,-0.9892578,0.045898438,-0.1796875,0.90625,0.34375,-0.0625
496,1727445003846,-0.98339844,0.0546875,-0.17871094,-0.375,-0.125,-0.5625
497,1727445003886,-0.98339844,0.0546875,-0.18945312,-0.0625,-0.5,-0.625
498,1727445003926,-0.984375,0.055664062,-0.18945312,-0.3125,-0.8125,-0.375
499,1727445003966,-0.97558594,0.047851562,-0.18066406,-0.25,-0.4375,-0.375
500,1727445004006,-0.97753906,0.0546875,-0.18945312,0.84375,-0.1875,-0.0625
501,1727445004046,-0.9785156,0.051757812,-0.19042969,0.34375,-0.375,-0.3125
502,1727445004086,-0.98828125,0.047851562,-0.1875,-0.625,-0.1875,-0.5625
503,1727445004126,-0.9785156,0.055664062,-0.19433594,0.0,0.15625,-0.4375
504,1727445004166,-0.9824219,0.057617188,-0.1875,0.71875,-0.375,-0.0625
505,1727445004206,-0.9794922,0.057617188,-0.1953125,1.15625,-0.625,0.21875
506,1727445004246,-0.9785156,0.044921875,-0.18066406,0.15625,0.34375,-0.5
507,1727445004286,-0.9873047,0.060546875,-0.16601562,0.65625,-0.0625,-0.5625
508,1727445004326,-0.96875,0.043945312,-0.20117188,0.09375,-0.75,-0.25
509,1727445004366,-0.97558594,0.0546875,-0.1875,0.59375,-0.8125,-0.3125
510,1727445004406,-0.9824219,0.029296875,-0.19042969,0.21875,-0.6875,-0.125
511,1727445004446,-0.98535156,0.041015625,-0.19433594,1.5,-1.40625,-0.625
512,1727445004486,-0.984375,0.041992188,-0.18652344,-1.90625,-1.3125,-1.0
513,1727445004526,-0.9765625,0.043945312,-0.19433594,0.71875,0.03125,0.09375
514,1727445004566,-0.9824219,0.056640625,-0.17382812,2.90625,0.21875,0.46875
515,1727445004606,-0.98339844,0.043945312,-0.16992188,-2.03125,-0.1875,-0.5
516,1727445004646,-0.9863281,0.044921875,-0.18457031,0.28125,0.46875,-0.75
517,1727445004686,-0.9824219,0.044921875,-0.17675781,-0.5625,-0.375,-0.1875
518,1727445004726,-0.9863281,0.046875,-0.18359375,1.03125,-1.1875,0.0
519,1727445004766,-0.9794922,0.045898438,-0.19335938,-0.5625,-1.25,-0.625
520,1727445004806,-0.9824219,0.046875,-0.20703125,-0.9375,0.46875,-0.25
521,1727445004846,-0.9970703,0.05859375,-0.15625,2.25,0.53125,0.78125
522,1727445004886,-0.9863281,0.0390625,-0.19042969,-1.1875,-0.875,0.0
523,1727445004926,-0.98339844,0.034179688,-0.19140625,-1.46875,0.03125,-0.4375
524,1727445004966,-0.98828125,0.037109375,-0.17089844,-0.3125,0.03125,-0.625
525,1727445005006,-0.99316406,0.052734375,-0.16601562,-0.3125,-0.3125,-0.125
526,1727445005046,-0.97753906,0.047851562,-0.18066406,-0.625,-0.4375,-0.1875
527,1727445005086,-0.984375,0.032226562,-0.16992188,0.53125,0.53125,0.03125
528,1727445005126,-0.98339844,0.046875,-0.18457031,1.03125,0.53125,-0.0625
529,1727445005166,-0.9951172,0.044921875,-0.17089844,0.90625,0.65625,0.0
530,1727445005206,-0.98046875,0.048828125,-0.17089844,0.03125,-0.625,0.0
531,1727445005246,-0.9824219,0.04296875,-0.19335938,-0.625,0.21875,-0.4375
532,1727445005286,-0.98535156,0.057617188,-0.18261719,2.0,0.03125,0.15625
533,1727445005326,-0.9814453,0.044921875,-0.18652344,0.46875,-0.1875,-0.0625
534,1727445005366,-0.9746094,0.044921875,-0.17675781,-0.3125,-0.0625,-0.0625
535,1727445005406,-0.9794922,0.041015625,-0.17871094,0.71875,0.28125,0.09375
536,1727445005446,-0.98046875,0.040039062,-0.18847656,0.65625,0.03125,0.09375
537,1727445005486,-0.9873047,0.044921875,-0.17675781,0.59375,-0.125,0.15625
538,1727445005526,-0.9892578,0.047851562,-0.18359375,0.21875,-0.0625,-0.0625
539,1727445005566,-0.9824219,0.045898438,-0.17089844,0.15625,-0.375,0.0
540,1727445005606,-0.98339844,0.04296875,-0.18066406,-0.125,-0.875,-0.0625
541,1727445005646,-0.984375,0.036132812,-0.20019531,0.28125,0.15625,0.0
542,1727445005686,-0.9746094,0.047851562,-0.18261719,-0.5,0.03125,-0.0625
543,1727445005726,-0.9824219,0.037109375,-0.17578125,0.59375,-0.1875,0.28125
544,1727445005766,-0.9785156,0.046875,-0.18457031,0.40625,-0.1875,0.0
545,1727445005806,-0.98828125,0.043945312,-0.18554688,0.03125,0.09375,0.0
546,1727445005846,-0.984375,0.051757812,-0.18554688,0.59375,-0.1875,0.0
547,1727445005886,-0.97753906,0.0546875,-0.17382812,-0.875,-0.5625,-0.1875
548,1727445005926,-0.9814453,0.04296875,-0.17871094,0.40625,-0.1875,0.0
549,1727445005966,-0.98828125,0.048828125,-0.17871094,0.28125,-0.0625,0.0
550,1727445006006,-0.9941406,0.041015625,-0.17871094,-1.78125,-0.25,-0.9375
551,1727445006046,-0.9873047,0.05859375,-0.18847656,-1.25,-0.9375,-0.6875
552,1727445006086,-0.97558594,0.053710938,-0.18945312,-0.25,-0.625,-0.0625
553,1727445006126,-0.9785156,0.041992188,-0.17871094,0.53125,-0.1875,0.09375
554,1727445006166,-0.98828125,0.04296875,-0.17871094,0.03125,-0.625,-0.1875
555,1727445006206,-0.97558594,0.0390625,-0.18261719,-0.0625,-1.0625,-0.25
556,1727445006246,-0.98535156,0.029296875,-0.1875,0.0,-0.5625,-0.125
557,1727445006286,-0.97558594,0.045898438,-0.17382812,-0.375,-0.875,-0.375
558,1727445006326,-0.98828125,0.045898438,-0.17480469,-0.9375,-1.0,-0.5
559,1727445006366,-0.9765625,0.034179688,-0.18261719,-2.15625,-1.46875,-0.4375
560,1727445006406,-0.9921875,0.034179688,-0.16894531,2.71875,0.34375,-0.6875
561,1727445006446,-0.9892578,0.045898438,-0.17480469,0.15625,-1.1875,-0.6875
562,1727445006486,-0.97558594,0.041992188,-0.18164062,-0.1875,-1.65625,-0.4375
563,1727445006526,-0.97753906,0.04296875,-0.17089844,-0.4375,-0.3125,-0.3125
564,1727445006566,-0.9794922,0.038085938,-0.1796875,0.34375,0.0,0.0
565,1727445006606,-0.9824219,0.045898438,-0.1953125,0.90625,-0.25,0.0
566,1727445006646,-0.9863281,0.04296875,-0.16699219,-0.625,0.09375,0.0
567,1727445006686,-0.984375,0.036132812,-0.17675781,-0.5,-0.125,0.03125
568,1727445006726,-0.99121094,0.041015625,-0.18164062,1.625,-0.4375,0.46875
569,1727445006766,-0.9794922,0.034179688,-0.17675781,-0.875,-0.125,0.21875
570,1727445006806,-0.9892578,0.04296875,-0.18164062,0.0,1.03125,0.0
571,1727445006846,-0.984375,0.044921875,-0.17089844,0.59375,-0.125,0.40625
572,1727445006886,-0.9892578,0.044921875,-0.17285156,-0.5625,-0.375,0.0
573,1727445006926,-0.97265625,0.0390625,-0.17871094,-2.15625,-0.25,-0.25
574,1727445006966,-0.9824219,0.038085938,-0.18261719,-0.6875,0.0,0.09375
575,1727445007006,-0.98046875,0.03125,-0.17480469,0.21875,0.53125,0.40625
576,1727445007046,-0.99121094,0.044921875,-0.18847656,-1.96875,0.78125,-0.5
577,1727445007086,-0.98046875,0.043945312,-0.1796875,-0.0625,0.46875,0.0
578,1727445007126,-0.99121094,0.036132812,-0.17871094,-0.75,-0.6875,0.53125
579,1727445007166,-0.9794922,0.018554688,-0.1875,-0.6875,0.40625,-0.125
580,1727445007206,-0.9824219,0.0390625,-0.1640625,0.21875,0.09375,0.09375
581,1727445007246,-0.9824219,0.04296875,-0.1875,1.375,0.71875,0.65625
582,1727445007286,-0.98535156,0.048828125,-0.17480469,1.375,0.53125,0.28125
583,1727445007326,-0.984375,0.045898438,-0.16992188,-0.625,-0.1875,-0.0625
584,1727445007366,-0.984375,0.0390625,-0.19628906,0.34375,0.59375,0.03125
585,1727445007406,-0.9785156,0.041015625,-0.16699219,-0.4375,0.59375,0.09375
586,1727445007446,-0.9785156,0.049804688,-0.18164062,-0.8125,0.03125,0.03125
587,1727445007486,-0.9863281,0.053710938,-0.171875,0.59375,0.28125,0.46875
588,1727445007526,-0.9873047,0.040039062,-0.19824219,1.3125,0.34375,0.59375
589,1727445007566,-0.98535156,0.04296875,-0.18652344,0.03125,0.40625,0.28125
590,1727445007606,-0.9814453,0.045898438,-0.18945312,1.3125,0.59375,0.59375
591,1727445007646,-0.9873047,0.033203125,-0.18261719,0.84375,0.90625,0.21875
592,1727445007686,-0.9892578,0.04296875,-0.17675781,-2.15625,-0.4375,-0.375
593,1727445007726,-0.9746094,0.034179688,-0.18359375,-0.5,0.53125,-0.0625
594,1727445007766,-0.984375,0.05859375,-0.16894531,0.96875,0.40625,0.0
595,1727445007806,-0.9765625,0.046875,-0.19628906,0.34375,0.34375,0.40625
596,1727445007846,-0.984375,0.041015625,-0.18847656,1.09375,1.09375,0.03125
597,1727445007886,-0.9902344,0.052734375,-0.17089844,0.09375,-0.3125,0.59375
598,1727445007926,-0.98339844,0.036132812,-0.18945312,0.09375,0.46875,0.28125
599,1727445007966,-0.99121094,0.053710938,-0.19042969,0.53125,0.96875,-0.25
600,1727445008006,-0.97753906,0.046875,-0.18652344,-1.3125,-0.4375,0.09375
601,1727445008046,-0.9746094,0.047851562,-0.171875,0.03125,0.71875,-0.25
602,1727445008086,-0.9765625,0.043945312,-0.19335938,-0.25,-0.4375,0.03125
603,1727445008126,-0.9746094,0.037109375,-0.1796875,0.03125,0.53125,0.15625
604,1727445008166,-0.98535156,0.049804688,-0.17578125,1.09375,0.53125,0.03125
605,1727445008206,-0.9794922,0.04296875,-0.19238281,0.46875,-0.0625,0.65625
606,1727445008246,-0.9716797,0.033203125,-0.19921875,1.3125,0.03125,0.46875
607,1727445008286,-0.9785156,0.05078125,-0.19238281,1.15625,-0.125,0.09375
608,1727445008326,-0.9941406,0.0390625,-0.19726562,1.5,0.40625,0.21875
609,1727445008366,-0.98046875,0.047851562,-0.19726562,0.0,-0.4375,-0.0625
610,1727445008406,-0.98339844,0.037109375,-0.19628906,0.71875,0.84375,0.40625
611,1727445008446,-0.98046875,0.0390625,-0.18359375,-0.3125,0.59375,0.0
612,1727445008486,-0.99121094,0.037109375,-0.18652344,-0.6875,0.03125,-0.0625
613,1727445008526,-0.96972656,0.041015625,-0.18457031,-0.625,0.40625,0.0
614,1727445008566,-0.96875,0.045898438,-0.19726562,0.0,0.65625,0.15625
615,1727445008606,-0.98339844,0.059570312,-0.18457031,2.125,0.65625,0.71875
616,1727445008646,-0.9736328,0.036132812,-0.18359375,-1.34375,-0.9375,0.46875
617,1727445008686,-0.98339844,0.047851562,-0.21191406,0.71875,0.96875,0.46875
618,1727445008726,-0.98339844,0.04296875,-0.19042969,0.09375,0.09375,0.03125
619,1727445008766,-0.9873047,0.041015625,-0.20117188,1.875,0.34375,0.90625
620,1727445008806,-0.9794922,0.05078125,-0.19628906,0.65625,-0.125,0.53125
621,1727445008846,-0.9765625,0.041015625,-0.18652344,0.03125,0.46875,0.59375
622,1727445008886,-0.984375,0.036132812,-0.17773438,1.875,0.15625,0.59375
623,1727445008926,-0.984375,0.051757812,-0.19628906,-0.0625,-0.125,-0.125
624,1727445008966,-0.98339844,0.047851562,-0.19433594,-0.25,-0.5625,-0.0625
625,1727445009006,-0.984375,0.05859375,-0.18554688,-1.40625,-0.75,-0.3125
626,1727445009046,-0.96972656,0.052734375,-0.19335938,-1.1875,-0.6875,-0.0625
627,1727445009086,-0.97753906,0.045898438,-0.18652344,-0.625,-0.5625,0.0
628,1727445009126,-0.9794922,0.047851562,-0.19335938,-0.4375,-1.78125,0.34375
629,1727445009166,-0.98046875,0.044921875,-0.20214844,-2.40625,-1.34375,0.0
630,1727445009206,-0.9902344,0.040039062,-0.20117188,-1.65625,-0.125,-0.375
631,1727445009246,-0.98046875,0.047851562,-0.17773438,-0.0625,-0.75,0.09375
632,1727445009286,-0.9921875,0.046875,-0.19140625,-0.375,-0.5625,0.0
633,1727445009326,-0.9785156,0.053710938,-0.18554688,-0.4375,0.0,0.03125
634,1727445009366,-0.9638672,0.057617188,-0.18066406,-1.1875,-0.5625,0.0
635,1727445009406,-1.0,0.052734375,-0.18945312,1.9375,-1.40625,1.15625
636,1727445009446,-0.97265625,0.048828125,-0.21679688,-2.6875,-1.3125,0.46875
637,1727445009486,-0.9863281,0.041015625,-0.17578125,-1.96875,0.53125,-0.375
638,1727445009526,-0.98535156,0.038085938,-0.16015625,0.09375,0.28125,0.03125
639,1727445009566,-0.9785156,0.045898438,-0.18066406,-1.25,-1.1875,-0.1875
640,1727445009606,-0.9824219,0.04296875,-0.19726562,-1.90625,0.03125,-0.1875
641,1727445009646,-0.9814453,0.049804688,-0.17285156,-1.71875,-0.0625,-0.25
642,1727445009686,-0.97558594,0.057617188,-0.18066406,-1.78125,-0.375,-0.125
643,1727445009726,-0.97265625,0.055664062,-0.17773438,-0.5625,-0.375,0.03125
644,1727445009766,-0.98339844,0.057617188,-0.1796875,-1.0,-1.1875,0.46875
645,1727445009806,-0.9785156,0.036132812,-0.20703125,-1.34375,0.40625,0.15625
646,1727445009846,-0.97558594,0.059570312,-0.16992188,-0.875,0.28125,-0.625
647,1727445009886,-0.98828125,0.044921875,-0.18652344,1.09375,-1.0,0.78125
648,1727445009926,-0.9736328,0.047851562,-0.21679688,0.15625,0.28125,0.34375
649,1727445009966,-0.97753906,0.051757812,-0.17578125,-0.875,0.15625,-0.375
650,1727445010006,-0.98535156,0.053710938,-0.18847656,2.25,0.34375,0.34375
651,1727445010046,-0.98046875,0.059570312,-0.18261719,0.90625,-1.59375,0.65625
652,1727445010086,-0.98339844,0.040039062,-0.19824219,-0.5625,0.53125,0.40625
653,1727445010126,-0.984375,0.059570312,-0.15039062,2.3125,0.84375,-0.1875
654,1727445010166,-0.9892578,0.056640625,-0.19335938,0.28125,-0.0625,0.03125
655,1727445010206,-0.9814453,0.04296875,-0.18457031,0.34375,-0.0625,0.28125
656,1727445010246,-0.9873047,0.0546875,-0.19042969,-0.6875,0.34375,-0.25
657,1727445010286,-0.96875,0.048828125,-0.17675781,-0.5,-0.375,-0.375
658,1727445010326,-0.9824219,0.055664062,-0.18554688,1.21875,0.40625,0.40625
659,1727445010366,-0.984375,0.05078125,-0.19824219,-0.6875,-0.5,0.21875
660,1727445010406,-0.984375,0.045898438,-0.19140625,-0.1875,0.34375,-0.125
661,1727445010446,-0.98046875,0.06347656,-0.20117188,-0.0625,-0.6875,0.15625
662,1727445010486,-0.9785156,0.038085938,-0.19433594,-0.0625,-0.375,0.53125
663,1727445010526,-0.98535156,0.036132812,-0.17480469,-0.3125,0.90625,0.0
664,1727445010566,-0.9863281,0.061523438,-0.17773438,0.28125,0.09375,0.0
665,1727445010606,-0.984375,0.052734375,-0.18359375,0.53125,0.28125,0.40625
666,1727445010646,-0.98046875,0.047851562,-0.18457031,-0.25,0.15625,0.40625
667,1727445010686,-0.98339844,0.047851562,-0.18652344,-0.625,0.53125,0.03125
668,1727445010726,-0.97265625,0.051757812,-0.18457031,1.9375,0.78125,0.34375
669,1727445010766,-0.9824219,0.0625,-0.18652344,0.59375,0.03125,0.40625
670,1727445010806,-0.9824219,0.055664062,-0.19921875,0.53125,-0.3125,0.71875
671,1727445010846,-0.98535156,0.047851562,-0.19042969,-0.25,0.40625,0.21875
672,1727445010886,-0.9716797,0.06347656,-0.16796875,-0.875,0.28125,-0.0625
673,1727445010926,-0.98046875,0.057617188,-0.18945312,-0.1875,0.0,0.28125
674,1727445010966,-0.9736328,0.053710938,-0.1953125,-0.0625,0.40625,0.40625
675,1727445011006,-0.9765625,0.0625,-0.18945312,-0.875,0.09375,0.15625
676,1727445011046,-0.98046875,0.055664062,-0.18847656,-0.8125,0.09375,0.21875
677,1727445011086,-0.9794922,0.051757812,-0.19726562,-1.34375,0.09375,0.0
678,1727445011126,-0.9765625,0.056640625,-0.19433594,-1.1875,0.28125,0.03125
679,1727445011166,-0.9863281,0.041015625,-0.18261719,-0.8125,0.34375,0.28125
680,1727445011206,-0.9824219,0.044921875,-0.18652344,-0.9375,0.40625,0.03125
681,1727445011246,-0.98339844,0.053710938,-0.18066406,-0.5,0.03125,0.21875
682,1727445011286,-0.9707031,0.056640625,-0.19433594,-1.0625,0.28125,0.53125
683,1727445011326,-0.97558594,0.045898438,-0.19433594,0.71875,0.40625,0.78125
684,1727445011366,-0.98535156,0.034179688,-0.19921875,-0.1875,1.15625,0.28125
685,1727445011406,-0.9824219,0.064453125,-0.17871094,0.53125,0.53125,0.40625
686,1727445011446,-0.9785156,0.0546875,-0.20605469,-0.6875,-0.25,0.03125
687,1727445011486,-0.9814453,0.05859375,-0.19238281,0.0,0.46875,0.46875
688,1727445011526,-0.9746094,0.0546875,-0.18164062,0.34375,0.78125,0.34375
689,1727445011566,-0.9892578,0.061523438,-0.20507812,-0.125,0.28125,0.40625
690,1727445011606,-0.9863281,0.0546875,-0.18164062,0.65625,1.03125,0.34375
691,1727445011646,-0.98046875,0.056640625,-0.18554688,-0.4375,0.28125,0.21875
692,1727445011686,-0.9746094,0.064453125,-0.20019531,0.09375,0.09375,0.0
693,1727445011726,-0.9814453,0.06933594,-0.18554688,-0.5625,0.09375,0.34375
694,1727445011766,-0.9824219,0.064453125,-0.19921875,-0.4375,0.65625,0.28125
695,1727445011806,-0.97753906,0.052734375,-0.1953125,-1.0,0.40625,-0.0625
696,1727445011846,-0.9824219,0.0546875,-0.19140625,-1.125,-0.1875,0.09375
697,1727445011886,-0.96777344,0.056640625,-0.19921875,-2.53125,0.21875,-0.0625
698,1727445011926,-0.9863281,0.05078125,-0.17871094,-0.375,0.78125,0.09375
699,1727445011966,-0.9746094,0.051757812,-0.19042969,-0.8125,-0.0625,-0.0625
700,1727445012006,-0.984375,0.053710938,-0.19824219,0.90625,0.09375,0.40625
701,1727445012046,-0.97753906,0.059570312,-0.20019531,-0.75,0.46875,0.15625
702,1727445012086,-0.9746094,0.053710938,-0.18847656,0.28125,0.65625,-0.3125
703,1727445012126,-0.97753906,0.061523438,-0.19433594,1.28125,-0.375,0.53125
704,1727445012166,-0.9824219,0.05859375,-0.1953125,1.5625,0.78125,0.59375
705,1727445012206,-0.9794922,0.0625,-0.19628906,0.15625,0.46875,-0.25
706,1727445012246,-0.9716797,0.06542969,-0.19042969,1.28125,-0.0625,0.21875
707,1727445012286,-0.9951172,0.046875,-0.19140625,0.03125,0.15625,0.0
708,1727445012326,-0.984375,0.068359375,-0.20996094,-0.1875,0.28125,-0.0625
709,1727445012366,-0.9716797,0.0625,-0.20214844,1.625,0.28125,0.78125
710,1727445012406,-0.984375,0.06347656,-0.19042969,0.21875,0.28125,0.28125
711,1727445012446,-0.9716797,0.053710938,-0.20996094,-0.75,-0.3125,0.15625
712,1727445012486,-0.9892578,0.0625,-0.20117188,0.28125,0.71875,0.09375
713,1727445012526,-0.9814453,0.064453125,-0.19042969,-1.40625,-0.1875,0.03125
714,1727445012566,-0.9814453,0.05859375,-0.20410156,-0.5,-0.25,0.40625
715,1727445012606,-0.9824219,0.052734375,-0.19042969,-0.6875,0.53125,-0.0625
716,1727445012646,-0.9951172,0.06347656,-0.203125,-0.375,0.15625,0.0
717,1727445012686,-0.9746094,0.0625,-0.19824219,-1.0,-1.34375,-0.0625
718,1727445012726,-0.9609375,0.057617188,-0.21582031,-2.28125,-0.5625,0.09375
719,1727445012766,-0.9794922,0.056640625,-0.20703125,0.71875,0.78125,0.53125
720,1727445012806,-0.9824219,0.059570312,-0.17675781,0.53125,0.21875,0.40625
721,1727445012846,-0.97265625,0.055664062,-0.20898438,-0.6875,0.0,0.46875
722,1727445012886,-0.9824219,0.06640625,-0.20898438,0.0,0.03125,0.0
723,1727445012926,-0.9736328,0.06542969,-0.20996094,0.28125,-0.0625,0.21875
724,1727445012966,-0.97558594,0.059570312,-0.18554688,1.21875,0.28125,0.46875
725,1727445013006,-0.97265625,0.068359375,-0.20214844,0.0,-0.125,0.40625
726,1727445013046,-0.9716797,0.06640625,-0.19042969,0.53125,0.09375,0.46875
727,1727445013086,-0.9736328,0.072265625,-0.18847656,0.65625,0.28125,0.40625
728,1727445013126,-0.9785156,0.06738281,-0.2109375,-0.4375,-0.3125,0.28125
729,1727445013166,-0.98046875,0.057617188,-0.1796875,-0.25,-0.375,0.59375
730,1727445013206,-0.97753906,0.053710938,-0.19921875,0.34375,0.28125,0.21875
731,1727445013246,-0.97558594,0.07128906,-0.19433594,-0.75,-0.0625,-0.125
732,1727445013286,-0.9746094,0.06640625,-0.20410156,-0.1875,-0.0625,0.28125
733,1727445013326,-0.9716797,0.059570312,-0.203125,0.46875,-0.25,0.46875
734,1727445013366,-0.97558594,0.059570312,-0.1953125,0.65625,0.09375,0.53125
735,1727445013406,-0.96875,0.05859375,-0.20605469,1.15625,0.53125,0.40625
736,1727445013446,-0.9746094,0.061523438,-0.20507812,-0.0625,-0.25,0.40625
737,1727445013486,-0.9824219,0.059570312,-0.19238281,1.3125,0.28125,0.59375
738,1727445013526,-0.9746094,0.07128906,-0.20410156,0.21875,0.15625,0.34375
739,1727445013566,-0.98046875,0.06640625,-0.20800781,0.65625,0.21875,0.53125
740,1727445013606,-0.9765625,0.07128906,-0.2109375,0.21875,-0.5625,0.34375
741,1727445013646,-0.96875,0.07714844,-0.20703125,-1.0,-0.5625,0.03125
742,1727445013686,-0.9746094,0.07714844,-0.19433594,-0.5625,-0.5625,0.03125
743,1727445013726,-0.9765625,0.06640625,-0.21191406,-1.1875,-0.4375,0.53125
744,1727445013766,-0.9785156,0.07910156,-0.203125,-0.125,-0.0625,0.53125
745,1727445013806,-0.9814453,0.064453125,-0.1875,-1.96875,-0.6875,-0.0625
746,1727445013846,-0.98535156,0.061523438,-0.19628906,-0.625,-0.625,0.09375
747,1727445013886,-0.96972656,0.05859375,-0.19824219,-0.6875,-0.3125,0.21875
748,1727445013926,-0.98339844,0.0625,-0.20410156,-0.1875,0.09375,-0.0625
749,1727445013966,-0.9794922,0.07421875,-0.18554688,-0.1875,-0.6875,0.15625
750,1727445014006,-0.9873047,0.06542969,-0.20117188,0.21875,-0.375,-0.1875
