,Unnamed: 0,timestamp,accel_x,accel_y,accel_z,gyro_x,gyro_y,gyro_z
0,0,1727987321612,-0.08203125,-0.8339844,0.5732422,-0.03125,0.125,0.03125
1,1,1727987321652,-0.07714844,-0.83984375,0.5722656,-0.15625,-0.125,0.21875
2,2,1727987321692,-0.07421875,-0.828125,0.58984375,-0.15625,0.0625,0.34375
3,3,1727987321732,-0.07910156,-0.8339844,0.5605469,-0.03125,0.0,0.21875
4,4,1727987321772,-0.08203125,-0.8310547,0.5703125,0.15625,0.28125,-0.21875
5,5,1727987321812,-0.07519531,-0.8417969,0.57128906,0.21875,0.125,-0.09375
6,6,1727987321852,-0.083984375,-0.83203125,0.5595703,0.28125,-0.25,-0.09375
7,7,1727987321892,-0.07324219,-0.8330078,0.5644531,-0.03125,-0.1875,0.09375
8,8,1727987321932,-0.08496094,-0.8261719,0.5625,0.09375,0.0,-0.09375
9,9,1727987321972,-0.08203125,-0.8310547,0.56640625,-0.03125,0.21875,0.03125
10,10,1727987322012,-0.078125,-0.82714844,0.5703125,-0.15625,-0.0625,0.03125
11,11,1727987322052,-0.083984375,-0.84277344,0.5722656,0.15625,-0.1875,0.15625
12,12,1727987322092,-0.08105469,-0.8300781,0.56347656,-0.09375,-0.1875,0.09375
13,13,1727987322132,-0.08300781,-0.83203125,0.5703125,-0.03125,0.1875,0.03125
14,14,1727987322172,-0.0859375,-0.82714844,0.56347656,-0.09375,0.1875,-0.09375
15,15,1727987322212,-0.07324219,-0.828125,0.5595703,-0.03125,0.125,-0.09375
16,16,1727987322252,-0.08886719,-0.8310547,0.56347656,-0.09375,-0.125,0.03125
17,17,1727987322292,-0.08496094,-0.82421875,0.5644531,-0.09375,-0.0625,0.15625
18,18,1727987322332,-0.078125,-0.83203125,0.5703125,-0.03125,-0.0625,0.03125
19,19,1727987322372,-0.07421875,-0.82910156,0.5654297,-0.09375,0.0,0.09375
20,20,1727987322412,-0.07714844,-0.83203125,0.56640625,-0.03125,0.1875,-0.03125
21,21,1727987322452,-0.083984375,-0.8300781,0.5703125,0.09375,0.0625,-0.09375
22,22,1727987322492,-0.087890625,-0.8339844,0.5800781,0.09375,0.0625,0.03125
23,23,1727987322532,-0.068359375,-0.8330078,0.5800781,-0.40625,0.0,0.34375
24,24,1727987322572,-0.07714844,-0.8408203,0.5703125,-0.21875,-0.0625,0.21875
25,25,1727987322612,-0.08203125,-0.8251953,0.5605469,-0.15625,0.125,-0.21875
26,26,1727987322652,-0.07910156,-0.8359375,0.5673828,-0.03125,0.21875,-0.21875
27,27,1727987322692,-0.078125,-0.82421875,0.5654297,-0.09375,-0.1875,-0.21875
28,28,1727987322732,-0.08203125,-0.8339844,0.578125,-0.03125,-0.375,0.09375
29,29,1727987322772,-0.080078125,-0.8339844,0.5673828,-0.09375,-0.3125,0.09375
30,30,1727987322812,-0.07324219,-0.8330078,0.57421875,-0.03125,0.1875,-0.09375
31,31,1727987322852,-0.076171875,-0.8330078,0.56152344,-0.03125,0.21875,-0.09375
32,32,1727987322892,-0.08691406,-0.8378906,0.56347656,0.03125,0.21875,0.21875
33,33,1727987322932,-0.08105469,-0.8310547,0.5644531,-0.03125,-0.0625,0.15625
34,34,1727987322972,-0.083984375,-0.8378906,0.5644531,-0.09375,-0.1875,0.03125
35,35,1727987323012,-0.07714844,-0.828125,0.56933594,-0.21875,0.1875,-0.03125
36,36,1727987323052,-0.078125,-0.8222656,0.5644531,-0.03125,0.125,-0.34375
37,37,1727987323092,-0.08105469,-0.83496094,0.5732422,0.03125,0.0,-0.15625
38,38,1727987323132,-0.080078125,-0.82910156,0.57128906,-0.03125,-0.125,0.09375
39,39,1727987323172,-0.07519531,-0.83496094,0.5673828,-0.03125,-0.125,-0.03125
40,40,1727987323212,-0.07910156,-0.8417969,0.5654297,0.21875,0.0625,0.09375
41,41,1727987323252,-0.08300781,-0.83203125,0.5761719,-0.03125,0.21875,-0.09375
42,42,1727987323292,-0.08496094,-0.83496094,0.57128906,0.28125,0.125,-0.03125
43,43,1727987323332,-0.08105469,-0.82910156,0.56640625,-0.15625,0.0625,0.28125
44,44,1727987323372,-0.08203125,-0.8330078,0.5605469,-0.09375,-0.25,0.34375
45,45,1727987323412,-0.07421875,-0.828125,0.5605469,-0.03125,0.1875,-0.15625
46,46,1727987323452,-0.08300781,-0.83691406,0.58203125,-0.09375,0.34375,-0.15625
47,47,1727987323492,-0.083984375,-0.8251953,0.57421875,0.03125,0.125,-0.21875
48,48,1727987323532,-0.08203125,-0.83203125,0.5800781,-0.03125,-0.3125,-0.03125
49,49,1727987323572,-0.078125,-0.8408203,0.57128906,-0.09375,-0.1875,-0.03125
50,50,1727987323612,-0.076171875,-0.8388672,0.56152344,-0.09375,-0.0625,0.03125
51,51,1727987323652,-0.08105469,-0.82421875,0.56347656,-0.09375,0.28125,-0.15625
52,52,1727987323692,-0.08105469,-0.8310547,0.56933594,-0.03125,0.1875,0.09375
53,53,1727987323732,-0.07910156,-0.83203125,0.5703125,-0.09375,-0.125,-0.03125
54,54,1727987323772,-0.08105469,-0.8261719,0.5830078,-0.15625,-0.0625,0.03125
55,55,1727987323812,-0.083984375,-0.8310547,0.56933594,-0.15625,0.0625,-0.03125
56,56,1727987323852,-0.08300781,-0.82714844,0.5703125,-0.15625,0.28125,-0.09375
57,57,1727987323892,-0.08984375,-0.8330078,0.5673828,-0.15625,0.0625,-0.15625
58,58,1727987323932,-0.08203125,-0.82910156,0.57128906,-0.15625,-0.0625,-0.03125
59,59,1727987323972,-0.08105469,-0.83203125,0.5683594,-0.21875,0.0625,0.03125
60,60,1727987324012,-0.076171875,-0.82910156,0.5722656,-0.15625,0.125,0.03125
61,61,1727987324052,-0.07519531,-0.82910156,0.5517578,0.03125,0.125,-0.15625
62,62,1727987324092,-0.08496094,-0.8330078,0.5595703,0.28125,0.0625,-0.03125
63,63,1727987324132,-0.076171875,-0.8330078,0.58203125,0.09375,0.125,0.15625
64,64,1727987324172,-0.078125,-0.8261719,0.56152344,-0.21875,0.0625,0.09375
65,65,1727987324212,-0.0859375,-0.82714844,0.5703125,-0.03125,0.125,-0.09375
66,66,1727987324252,-0.080078125,-0.8339844,0.57128906,-0.09375,0.1875,-0.15625
67,67,1727987324292,-0.080078125,-0.83203125,0.56152344,-0.40625,-0.0625,-0.09375
68,68,1727987324332,-0.083984375,-0.8359375,0.5810547,-0.34375,-0.125,0.03125
69,69,1727987324372,-0.07421875,-0.8310547,0.5683594,-0.03125,0.125,0.03125
70,70,1727987324412,-0.07324219,-0.82714844,0.5605469,-0.09375,0.1875,-0.03125
71,71,1727987324452,-0.07910156,-0.828125,0.5576172,-0.03125,0.125,0.09375
72,72,1727987324492,-0.08300781,-0.8310547,0.5527344,0.21875,-0.0625,-0.03125
73,73,1727987324532,-0.078125,-0.8261719,0.5673828,0.03125,-0.125,0.09375
74,74,1727987324572,-0.080078125,-0.8261719,0.5644531,-0.03125,-0.0625,-0.09375
75,75,1727987324612,-0.08300781,-0.8310547,0.5810547,-0.03125,0.0625,-0.03125
76,76,1727987324652,-0.07714844,-0.8330078,0.5751953,0.03125,0.0625,-0.09375
77,77,1727987324692,-0.08496094,-0.8310547,0.5761719,-0.09375,0.0625,-0.15625
78,78,1727987324732,-0.080078125,-0.83691406,0.5703125,-0.09375,0.125,-0.09375
79,79,1727987324772,-0.09082031,-0.8339844,0.5703125,-0.15625,0.0625,-0.03125
80,80,1727987324812,-0.08300781,-0.8261719,0.5732422,-0.15625,0.125,0.03125
81,81,1727987324852,-0.078125,-0.82910156,0.57128906,0.03125,-0.125,-0.03125
82,82,1727987324892,-0.08105469,-0.83691406,0.578125,0.09375,-0.0625,0.15625
83,83,1727987324932,-0.08105469,-0.8330078,0.56640625,-0.03125,0.1875,0.09375
84,84,1727987324972,-0.083984375,-0.8251953,0.578125,-0.03125,0.0625,0.21875
85,85,1727987325012,-0.080078125,-0.82910156,0.5761719,0.09375,0.28125,-0.21875
86,86,1727987325052,-0.080078125,-0.8378906,0.5722656,-0.09375,0.125,-0.28125
87,87,1727987325092,-0.078125,-0.8310547,0.5732422,-0.15625,-0.1875,-0.09375
88,88,1727987325132,-0.076171875,-0.83203125,0.5830078,-0.15625,-0.25,0.03125
89,89,1727987325172,-0.080078125,-0.83203125,0.5830078,-0.21875,0.1875,-0.15625
90,90,1727987325212,-0.08300781,-0.8388672,0.578125,-0.21875,0.0625,-0.09375
91,91,1727987325252,-0.08691406,-0.82714844,0.56152344,-0.03125,0.0,-0.03125
92,92,1727987325292,-0.078125,-0.83984375,0.56640625,0.21875,-0.0625,0.03125
93,93,1727987325332,-0.08203125,-0.83691406,0.57714844,0.03125,-0.125,0.03125
94,94,1727987325372,-0.07421875,-0.8310547,0.58496094,0.09375,0.0625,0.03125
95,95,1727987325412,-0.078125,-0.83691406,0.5761719,-0.03125,0.0625,-0.03125
96,96,1727987325452,-0.08105469,-0.8261719,0.5654297,-0.03125,0.0625,-0.09375
97,97,1727987325492,-0.08105469,-0.8310547,0.5751953,-0.03125,0.125,-0.03125
98,98,1727987325532,-0.076171875,-0.8261719,0.578125,-0.15625,0.125,-0.03125
99,99,1727987325572,-0.08203125,-0.8261719,0.5654297,-0.28125,0.0,0.03125
100,100,1727987325612,-0.07910156,-0.83691406,0.5673828,-0.15625,0.0,0.03125
101,101,1727987325652,-0.07324219,-0.83691406,0.5722656,-0.03125,0.0625,-0.09375
102,102,1727987325692,-0.080078125,-0.82910156,0.56933594,0.28125,-0.125,-0.15625
103,103,1727987325732,-0.07128906,-0.82910156,0.58203125,-0.09375,-0.25,0.15625
104,104,1727987325772,-0.087890625,-0.83984375,0.5751953,-0.09375,0.0,0.09375
105,105,1727987325812,-0.08105469,-0.8330078,0.57421875,-0.03125,0.0625,-0.03125
106,106,1727987325852,-0.07910156,-0.8300781,0.5800781,-0.21875,0.1875,-0.28125
107,107,1727987325892,-0.08203125,-0.83203125,0.56640625,-0.21875,0.28125,-0.15625
108,108,1727987325932,-0.08203125,-0.83203125,0.5732422,-0.15625,-0.0625,-0.03125
109,109,1727987325972,-0.08496094,-0.8330078,0.56152344,-0.28125,-0.125,0.09375
110,110,1727987326012,-0.072265625,-0.83691406,0.57128906,-0.03125,0.1875,0.03125
111,111,1727987326052,-0.07519531,-0.83203125,0.5595703,0.03125,0.125,0.03125
112,112,1727987326092,-0.07910156,-0.8261719,0.56152344,0.15625,0.125,-0.15625
113,113,1727987326132,-0.08691406,-0.8359375,0.5751953,0.09375,-0.0625,0.15625
114,114,1727987326172,-0.08203125,-0.8310547,0.5605469,-0.09375,-0.125,0.15625
115,115,1727987326212,-0.08300781,-0.8330078,0.5810547,-0.15625,0.125,0.03125
116,116,1727987326252,-0.07421875,-0.82421875,0.5576172,-0.09375,0.0625,0.03125
117,117,1727987326292,-0.08496094,-0.8300781,0.56933594,-0.28125,-0.0625,-0.09375
118,118,1727987326332,-0.08496094,-0.82714844,0.5800781,-0.09375,-0.0625,-0.03125
119,119,1727987326372,-0.08105469,-0.8330078,0.5839844,-0.03125,0.0625,-0.15625
120,120,1727987326412,-0.072265625,-0.8330078,0.5703125,-0.09375,0.0,-0.09375
121,121,1727987326452,-0.08496094,-0.8408203,0.57128906,-0.09375,0.0,0.03125
122,122,1727987326492,-0.083984375,-0.8251953,0.578125,-0.03125,-0.03125,0.03125
123,123,1727987326532,-0.07910156,-0.8310547,0.5673828,0.1875,0.03125,-0.03125
124,124,1727987326572,-0.078125,-0.83203125,0.57128906,0.3125,-0.09375,0.09375
125,125,1727987326612,-0.076171875,-0.8339844,0.57910156,-0.28125,0.34375,0.28125
126,126,1727987326652,-0.08300781,-0.8251953,0.5800781,-0.21875,-0.09375,0.15625
127,127,1727987326692,-0.080078125,-0.8339844,0.57128906,-0.03125,0.15625,-0.15625
128,128,1727987326732,-0.08886719,-0.8251953,0.57128906,0.0,0.28125,-0.09375
129,129,1727987326772,-0.08203125,-0.8339844,0.5673828,-0.28125,-0.03125,-0.15625
130,130,1727987326812,-0.07421875,-0.8300781,0.5751953,-0.21875,-0.28125,0.09375
131,131,1727987326852,-0.08886719,-0.8232422,0.5644531,-0.03125,-0.21875,-0.03125
132,132,1727987326892,-0.08496094,-0.83203125,0.57128906,0.0,0.03125,-0.03125
133,133,1727987326932,-0.083984375,-0.8222656,0.5703125,-0.03125,0.03125,0.03125
134,134,1727987326972,-0.0859375,-0.8388672,0.5732422,0.125,0.03125,0.03125
135,135,1727987327012,-0.08496094,-0.8378906,0.5644531,0.0,-0.09375,0.09375
136,136,1727987327052,-0.08105469,-0.82714844,0.56640625,-0.03125,-0.15625,0.03125
137,137,1727987327092,-0.08203125,-0.8310547,0.57910156,-0.03125,-0.03125,0.09375
138,138,1727987327132,-0.07910156,-0.83984375,0.5605469,0.0,0.03125,-0.03125
139,139,1727987327172,-0.07128906,-0.8261719,0.57421875,0.0,0.09375,0.09375
140,140,1727987327212,-0.08300781,-0.828125,0.5673828,-0.03125,0.03125,0.03125
141,141,1727987327252,-0.07519531,-0.8408203,0.56152344,-0.09375,-0.09375,-0.09375
142,142,1727987327292,-0.07714844,-0.83496094,0.57910156,-0.09375,-0.03125,0.09375
143,143,1727987327332,-0.08203125,-0.8232422,0.5673828,-0.03125,-0.03125,-0.03125
144,144,1727987327372,-0.08496094,-0.8310547,0.56152344,0.125,0.09375,0.03125
145,145,1727987327412,-0.076171875,-0.8251953,0.56640625,0.125,-0.15625,-0.15625
146,146,1727987327452,-0.08105469,-0.83691406,0.5566406,0.1875,0.03125,0.09375
147,147,1727987327492,-0.08105469,-0.828125,0.5654297,-0.15625,0.03125,0.21875
148,148,1727987327532,-0.078125,-0.8300781,0.5751953,-0.09375,-0.03125,0.28125
149,149,1727987327572,-0.08105469,-0.82421875,0.5761719,-0.03125,0.28125,-0.09375
150,150,1727987327612,-0.08203125,-0.8310547,0.5761719,0.0625,0.21875,-0.21875
151,151,1727987327652,-0.07324219,-0.8330078,0.5703125,-0.09375,0.09375,-0.09375
152,152,1727987327692,-0.09082031,-0.82421875,0.5878906,-0.09375,-0.40625,0.09375
153,153,1727987327732,-0.08300781,-0.82421875,0.5683594,-0.09375,-0.09375,0.03125
154,154,1727987327772,-0.08105469,-0.8330078,0.5673828,0.0,0.03125,-0.03125
155,155,1727987327812,-0.080078125,-0.8408203,0.5732422,-0.03125,0.03125,-0.09375
156,156,1727987327852,-0.080078125,-0.828125,0.57128906,0.0,-0.09375,0.09375
157,157,1727987327892,-0.07421875,-0.83203125,0.55566406,0.125,-0.21875,0.15625
158,158,1727987327932,-0.072265625,-0.82714844,0.5683594,0.125,-0.15625,0.21875
159,159,1727987327972,-0.07421875,-0.8359375,0.5605469,-0.03125,0.03125,0.03125
160,160,1727987328012,-0.07324219,-0.8408203,0.5761719,0.0625,0.21875,-0.09375
161,161,1727987328052,-0.087890625,-0.83203125,0.5751953,-0.09375,-0.03125,-0.15625
162,162,1727987328092,-0.0859375,-0.83203125,0.5839844,-0.09375,0.03125,-0.03125
163,163,1727987328132,-0.07910156,-0.83496094,0.56347656,-0.09375,-0.03125,0.03125
164,164,1727987328172,-0.083984375,-0.83496094,0.57714844,-0.09375,-0.03125,0.15625
165,165,1727987328212,-0.08105469,-0.8339844,0.57128906,0.0625,0.09375,0.03125
166,166,1727987328252,-0.08203125,-0.82910156,0.57910156,0.0625,0.09375,-0.21875
167,167,1727987328292,-0.08496094,-0.8339844,0.5673828,0.0,-0.09375,0.09375
168,168,1727987328332,-0.07128906,-0.8339844,0.56640625,-0.03125,0.03125,0.21875
169,169,1727987328372,-0.06933594,-0.8359375,0.5595703,-0.09375,-0.09375,0.59375
170,170,1727987328412,-0.08203125,-0.82714844,0.5800781,0.0625,0.28125,-0.09375
171,171,1727987328452,-0.08886719,-0.83984375,0.5800781,0.0,0.40625,-0.21875
172,172,1727987328492,-0.08203125,-0.8261719,0.57128906,-0.28125,-0.09375,-0.15625
173,173,1727987328532,-0.07421875,-0.8330078,0.5722656,-0.03125,-0.40625,0.03125
174,174,1727987328572,-0.07421875,-0.8310547,0.5722656,-0.09375,-0.21875,0.15625
175,175,1727987328612,-0.07421875,-0.8408203,0.55566406,0.0625,0.09375,-0.09375
176,176,1727987328652,-0.08203125,-0.82421875,0.5722656,0.0,0.15625,-0.15625
177,177,1727987328692,-0.083984375,-0.8330078,0.57714844,0.1875,-0.03125,-0.15625
178,178,1727987328732,-0.08300781,-0.83496094,0.5810547,0.0625,-0.03125,-0.03125
179,179,1727987328772,-0.078125,-0.8417969,0.5605469,-0.03125,-0.03125,-0.03125
180,180,1727987328812,-0.08105469,-0.8378906,0.5644531,-0.03125,-0.03125,-0.09375
181,181,1727987328852,-0.08691406,-0.82910156,0.5703125,0.0,0.09375,-0.21875
182,182,1727987328892,-0.08300781,-0.83691406,0.56933594,-0.09375,0.15625,-0.28125
183,183,1727987328932,-0.07324219,-0.83203125,0.57910156,-0.03125,-0.15625,-0.21875
184,184,1727987328972,-0.07910156,-0.83496094,0.57128906,-0.15625,-0.15625,0.09375
185,185,1727987329012,-0.08203125,-0.828125,0.5654297,-0.15625,0.15625,-0.09375
186,186,1727987329052,-0.07519531,-0.8339844,0.5732422,0.1875,-0.03125,-0.03125
187,187,1727987329092,-0.080078125,-0.82910156,0.5683594,0.0,0.09375,-0.03125
188,188,1727987329132,-0.08300781,-0.83984375,0.578125,-0.03125,-0.21875,0.28125
189,189,1727987329172,-0.087890625,-0.82910156,0.56640625,0.125,0.09375,-0.03125
190,190,1727987329212,-0.07910156,-0.8232422,0.56640625,0.0625,0.21875,-0.21875
191,191,1727987329252,-0.08984375,-0.828125,0.5654297,0.0,0.03125,-0.28125
192,192,1727987329292,-0.07421875,-0.828125,0.578125,-0.03125,-0.21875,-0.15625
193,193,1727987329332,-0.07714844,-0.8261719,0.5732422,-0.03125,-0.15625,-0.03125
194,194,1727987329372,-0.07910156,-0.8378906,0.5810547,-0.28125,0.03125,-0.09375
195,195,1727987329412,-0.07910156,-0.82128906,0.5605469,-0.03125,0.15625,-0.03125
196,196,1727987329452,-0.08300781,-0.83496094,0.5800781,0.0,0.03125,0.03125
197,197,1727987329492,-0.07714844,-0.82910156,0.57421875,0.0,-0.15625,0.03125
198,198,1727987329532,-0.080078125,-0.82714844,0.56640625,-0.03125,-0.09375,0.03125
199,199,1727987329572,-0.08300781,-0.82910156,0.5722656,-0.03125,-0.03125,0.03125
200,200,1727987329612,-0.072265625,-0.82910156,0.5751953,0.0625,0.15625,-0.03125
201,201,1727987329652,-0.08105469,-0.8330078,0.58203125,0.0,0.15625,-0.21875
202,202,1727987329692,-0.072265625,-0.8330078,0.57714844,-0.15625,0.09375,-0.09375
203,203,1727987329732,-0.07324219,-0.8310547,0.578125,-0.15625,0.03125,-0.03125
204,204,1727987329772,-0.08300781,-0.8330078,0.5673828,-0.09375,0.09375,-0.03125
205,205,1727987329812,-0.08300781,-0.82910156,0.5722656,-0.15625,-0.03125,-0.15625
206,206,1727987329852,-0.08203125,-0.8388672,0.5751953,0.3125,-0.09375,-0.03125
207,207,1727987329892,-0.08105469,-0.8330078,0.5654297,0.0,-0.03125,0.09375
208,208,1727987329932,-0.07910156,-0.8261719,0.5751953,-0.03125,-0.15625,0.21875
209,209,1727987329972,-0.07714844,-0.8261719,0.5644531,-0.09375,0.03125,-0.21875
210,210,1727987330012,-0.08496094,-0.828125,0.5654297,0.0,0.03125,-0.09375
211,211,1727987330052,-0.07714844,-0.83691406,0.5722656,-0.09375,-0.03125,-0.15625
212,212,1727987330092,-0.07910156,-0.82910156,0.5605469,-0.28125,-0.21875,0.09375
213,213,1727987330132,-0.0859375,-0.8300781,0.5761719,-0.15625,-0.15625,-0.03125
214,214,1727987330172,-0.07714844,-0.83691406,0.5644531,-0.03125,0.15625,0.03125
215,215,1727987330212,-0.07519531,-0.83496094,0.56640625,0.0,0.09375,0.15625
216,216,1727987330252,-0.08203125,-0.8408203,0.56933594,0.0,-0.03125,0.03125
217,217,1727987330292,-0.078125,-0.83496094,0.5761719,0.0625,0.03125,0.15625
218,218,1727987330332,-0.08105469,-0.83203125,0.5839844,-0.03125,-0.09375,0.09375
219,219,1727987330372,-0.08105469,-0.8261719,0.5654297,0.0,0.03125,-0.03125
220,220,1727987330412,-0.08300781,-0.82128906,0.5722656,-0.03125,0.03125,-0.15625
221,221,1727987330452,-0.08300781,-0.83984375,0.56933594,-0.03125,-0.03125,0.03125
222,222,1727987330492,-0.078125,-0.84277344,0.5644531,-0.09375,-0.09375,-0.09375
223,223,1727987330532,-0.07421875,-0.82910156,0.5732422,-0.15625,-0.03125,0.09375
224,224,1727987330572,-0.078125,-0.82910156,0.5810547,0.0,0.03125,0.15625
225,225,1727987330612,-0.07421875,-0.83203125,0.5576172,-0.03125,-0.15625,-0.03125
226,226,1727987330652,-0.08300781,-0.83691406,0.57714844,0.375,-0.15625,0.09375
227,227,1727987330692,-0.07519531,-0.82910156,0.5751953,-0.09375,0.03125,0.21875
228,228,1727987330732,-0.07324219,-0.8339844,0.55566406,-0.09375,-0.15625,0.28125
229,229,1727987330772,-0.07910156,-0.8251953,0.5625,0.0625,0.09375,-0.15625
230,230,1727987330812,-0.09082031,-0.8388672,0.5673828,0.0,0.03125,-0.15625
231,231,1727987330852,-0.080078125,-0.8310547,0.5732422,-0.09375,-0.03125,-0.09375
232,232,1727987330892,-0.0859375,-0.82910156,0.57714844,-0.21875,-0.03125,-0.03125
233,233,1727987330932,-0.076171875,-0.8378906,0.5625,-0.09375,-0.21875,0.09375
234,234,1727987330972,-0.076171875,-0.828125,0.5751953,-0.03125,0.15625,-0.03125
235,235,1727987331012,-0.07910156,-0.8300781,0.5761719,-0.09375,0.21875,-0.03125
236,236,1727987331052,-0.08300781,-0.8330078,0.57421875,0.0625,-0.03125,0.09375
237,237,1727987331092,-0.080078125,-0.8330078,0.5673828,-0.03125,-0.15625,-0.03125
238,238,1727987331132,-0.076171875,-0.828125,0.5800781,-0.09375,-0.15625,0.03125
239,239,1727987331172,-0.07128906,-0.8378906,0.57714844,0.0,0.03125,0.03125
240,240,1727987331212,-0.08203125,-0.8330078,0.578125,-0.15625,-0.09375,0.03125
241,241,1727987331252,-0.080078125,-0.8339844,0.56152344,0.0,0.21875,-0.03125
242,242,1727987331292,-0.080078125,-0.828125,0.5751953,0.0,0.09375,-0.03125
243,243,1727987331332,-0.083984375,-0.82910156,0.5703125,0.125,0.03125,0.09375
244,244,1727987331372,-0.080078125,-0.8408203,0.5800781,0.0,0.09375,0.03125
245,245,1727987331412,-0.078125,-0.82910156,0.5761719,0.0,-0.03125,0.09375
246,246,1727987331452,-0.078125,-0.8378906,0.5703125,-0.03125,0.03125,0.09375
247,247,1727987331492,-0.078125,-0.8261719,0.5703125,0.3125,-0.09375,-0.09375
248,248,1727987331532,-0.0859375,-0.8378906,0.57714844,-0.03125,-0.03125,0.15625
249,249,1727987331572,-0.08203125,-0.82910156,0.56640625,-0.03125,-0.09375,0.28125
250,250,1727987331612,-0.07910156,-0.8300781,0.5673828,-0.21875,0.09375,0.21875
251,251,1727987331652,-0.07910156,-0.828125,0.56640625,0.0,0.28125,-0.09375
252,252,1727987331692,-0.07714844,-0.828125,0.56152344,-0.15625,0.03125,-0.09375
253,253,1727987331732,-0.07324219,-0.83496094,0.5654297,-0.03125,-0.03125,-0.03125
254,254,1727987331772,-0.07324219,-0.8359375,0.57714844,-0.03125,-0.28125,0.15625
255,255,1727987331812,-0.076171875,-0.82714844,0.57421875,-0.03125,-0.03125,0.09375
256,256,1727987331852,-0.076171875,-0.8408203,0.5654297,0.0625,0.09375,0.03125
257,257,1727987331892,-0.08300781,-0.8310547,0.56347656,0.0,0.15625,-0.03125
258,258,1727987331932,-0.08300781,-0.8222656,0.578125,0.1875,-0.15625,0.09375
259,259,1727987331972,-0.083984375,-0.83691406,0.56933594,-0.15625,-0.15625,0.21875
260,260,1727987332012,-0.08105469,-0.83203125,0.5751953,0.0,0.03125,-0.03125
261,261,1727987332052,-0.08496094,-0.8359375,0.5654297,-0.03125,0.03125,0.03125
262,262,1727987332092,-0.08105469,-0.8310547,0.5673828,0.0,0.09375,0.09375
263,263,1727987332132,-0.08691406,-0.8300781,0.57128906,-0.03125,-0.03125,0.21875
264,264,1727987332172,-0.07519531,-0.8251953,0.5800781,0.0,0.03125,0.21875
265,265,1727987332212,-0.08496094,-0.83496094,0.58203125,0.0,-0.09375,0.09375
266,266,1727987332252,-0.08300781,-0.83496094,0.5654297,0.0,0.03125,0.15625
267,267,1727987332292,-0.07421875,-0.8417969,0.5751953,-0.03125,-0.09375,0.21875
268,268,1727987332332,-0.08105469,-0.83203125,0.578125,0.0625,-0.15625,0.09375
269,269,1727987332372,-0.068359375,-0.8310547,0.57421875,0.0,0.09375,-0.03125
270,270,1727987332412,-0.076171875,-0.83984375,0.58203125,0.1875,-0.09375,0.09375
271,271,1727987332452,-0.0703125,-0.8222656,0.5800781,0.0,0.03125,0.28125
272,272,1727987332492,-0.08496094,-0.82910156,0.5732422,-0.03125,-0.09375,0.21875
273,273,1727987332532,-0.0859375,-0.82910156,0.5673828,0.0,0.15625,0.03125
274,274,1727987332572,-0.07714844,-0.8339844,0.5654297,0.0625,0.21875,-0.03125
275,275,1727987332612,-0.0859375,-0.8330078,0.56347656,-0.09375,-0.03125,-0.09375
276,276,1727987332652,-0.083984375,-0.828125,0.5703125,-0.21875,-0.21875,0.03125
277,277,1727987332692,-0.076171875,-0.8251953,0.56640625,-0.21875,-0.09375,0.15625
278,278,1727987332732,-0.080078125,-0.8378906,0.57421875,0.0,0.21875,0.03125
279,279,1727987332772,-0.08691406,-0.8339844,0.5830078,-0.03125,0.03125,0.15625
280,280,1727987332812,-0.08691406,-0.82714844,0.58203125,0.0,-0.09375,0.09375
281,281,1727987332852,-0.072265625,-0.8330078,0.56640625,0.0,-0.34375,0.09375
282,282,1727987332892,-0.076171875,-0.83496094,0.5761719,0.0625,-0.15625,0.03125
283,283,1727987332932,-0.08203125,-0.83496094,0.5722656,-0.15625,0.15625,0.03125
284,284,1727987332972,-0.08300781,-0.83496094,0.5683594,-0.09375,0.03125,-0.09375
285,285,1727987333012,-0.07910156,-0.8339844,0.57714844,-0.21875,-0.09375,0.03125
286,286,1727987333052,-0.083984375,-0.83984375,0.56933594,-0.21875,-0.03125,0.09375
287,287,1727987333092,-0.0859375,-0.8330078,0.5800781,0.0,0.03125,0.03125
288,288,1727987333132,-0.08496094,-0.82128906,0.57421875,0.25,0.09375,-0.03125
289,289,1727987333172,-0.083984375,-0.8359375,0.5673828,0.0,0.03125,0.15625
290,290,1727987333212,-0.080078125,-0.8251953,0.56152344,0.125,-0.03125,-0.09375
291,291,1727987333252,-0.07714844,-0.83496094,0.578125,0.3125,-0.09375,-0.15625
292,292,1727987333292,-0.07421875,-0.8300781,0.5595703,0.25,-0.21875,0.09375
293,293,1727987333332,-0.080078125,-0.828125,0.5908203,-0.15625,0.09375,0.15625
294,294,1727987333372,-0.08203125,-0.82714844,0.5644531,-0.21875,0.09375,0.21875
295,295,1727987333412,-0.08496094,-0.83203125,0.5683594,0.0,0.34375,-0.15625
296,296,1727987333452,-0.076171875,-0.8388672,0.578125,0.0,0.09375,-0.21875
297,297,1727987333492,-0.076171875,-0.83203125,0.5839844,-0.21875,-0.03125,-0.03125
298,298,1727987333532,-0.08300781,-0.83984375,0.56933594,-0.03125,-0.28125,-0.03125
299,299,1727987333572,-0.080078125,-0.83203125,0.5576172,0.0,0.09375,-0.03125
300,300,1727987333612,-0.083984375,-0.83496094,0.578125,0.0,0.09375,-0.15625
301,301,1727987333652,-0.07324219,-0.8261719,0.57128906,-0.15625,0.09375,-0.03125
302,302,1727987333692,-0.0859375,-0.8330078,0.5683594,0.0,0.03125,0.03125
303,303,1727987333732,-0.08886719,-0.8232422,0.57421875,0.0,-0.09375,0.03125
304,304,1727987333772,-0.07910156,-0.83691406,0.5654297,0.125,0.03125,0.03125
305,305,1727987333812,-0.07714844,-0.8359375,0.578125,-0.03125,0.09375,-0.09375
306,306,1727987333852,-0.07910156,-0.82421875,0.5722656,-0.03125,0.09375,-0.09375
307,307,1727987333892,-0.078125,-0.8310547,0.5683594,-0.09375,-0.15625,-0.15625
308,308,1727987333932,-0.07910156,-0.8300781,0.57421875,-0.03125,-0.09375,0.03125
309,309,1727987333972,-0.08300781,-0.83496094,0.56347656,0.0,0.03125,-0.21875
310,310,1727987334012,-0.08203125,-0.8388672,0.5800781,-0.09375,0.15625,-0.03125
311,311,1727987334052,-0.08300781,-0.8339844,0.578125,0.0625,0.09375,0.09375
312,312,1727987334092,-0.08203125,-0.828125,0.578125,0.0,0.03125,-0.03125
313,313,1727987334132,-0.080078125,-0.8300781,0.5673828,0.25,-0.15625,0.03125
314,314,1727987334172,-0.06933594,-0.8339844,0.5761719,0.0,-0.15625,0.15625
315,315,1727987334212,-0.078125,-0.84277344,0.57421875,0.0,-0.03125,0.15625
316,316,1727987334252,-0.076171875,-0.82128906,0.5830078,0.0,0.0625,0.09375
317,317,1727987334292,-0.08203125,-0.83496094,0.56347656,0.125,0.1875,-0.09375
318,318,1727987334332,-0.08203125,-0.83203125,0.57421875,-0.0625,0.0625,-0.21875
319,319,1727987334372,-0.080078125,-0.8359375,0.5703125,-0.3125,-0.125,-0.03125
320,320,1727987334412,-0.09375,-0.8330078,0.5576172,-0.375,-0.25,0.1875
321,321,1727987334452,-0.076171875,-0.8359375,0.56152344,-0.125,0.25,-0.09375
322,322,1727987334492,-0.080078125,-0.8310547,0.5732422,-0.125,0.125,0.03125
323,323,1727987334532,-0.08105469,-0.8222656,0.578125,-0.0625,-0.125,-0.15625
324,324,1727987334572,-0.07714844,-0.8359375,0.5703125,0.125,-0.3125,0.1875
325,325,1727987334612,-0.080078125,-0.8359375,0.5654297,0.0625,-0.1875,0.03125
326,326,1727987334652,-0.08105469,-0.8300781,0.57421875,0.0,0.0,-0.09375
327,327,1727987334692,-0.078125,-0.8330078,0.5722656,0.0625,0.125,-0.09375
328,328,1727987334732,-0.08203125,-0.8310547,0.5576172,0.0,0.0,0.15625
329,329,1727987334772,-0.08496094,-0.8330078,0.56640625,-0.1875,-0.1875,0.03125
330,330,1727987334812,-0.07910156,-0.8417969,0.57421875,0.125,0.0625,0.03125
331,331,1727987334852,-0.072265625,-0.8330078,0.5654297,-0.125,0.1875,0.03125
332,332,1727987334892,-0.08105469,-0.83691406,0.5654297,-0.25,0.125,0.09375
333,333,1727987334932,-0.08300781,-0.8388672,0.5722656,0.0,0.0625,0.15625
334,334,1727987334972,-0.07324219,-0.828125,0.5839844,-0.0625,-0.125,-0.09375
335,335,1727987335012,-0.08300781,-0.8378906,0.57714844,0.1875,-0.125,-0.03125
336,336,1727987335052,-0.08105469,-0.83203125,0.58203125,0.0,0.0,0.1875
337,337,1727987335092,-0.08496094,-0.83496094,0.5546875,-0.0625,-0.0625,0.09375
338,338,1727987335132,-0.07910156,-0.828125,0.5761719,0.0,0.125,-0.03125
339,339,1727987335172,-0.08496094,-0.8359375,0.578125,-0.0625,0.0625,-0.09375
340,340,1727987335212,-0.07910156,-0.828125,0.5761719,-0.3125,0.125,-0.15625
341,341,1727987335252,-0.08203125,-0.8378906,0.56933594,-0.25,-0.1875,0.15625
342,342,1727987335292,-0.07519531,-0.8330078,0.56933594,-0.25,-0.25,0.03125
343,343,1727987335332,-0.080078125,-0.83203125,0.5703125,-0.125,0.1875,-0.09375
344,344,1727987335372,-0.08300781,-0.83496094,0.57128906,0.0625,0.0625,0.03125
345,345,1727987335412,-0.076171875,-0.83691406,0.5703125,0.125,-0.125,0.09375
346,346,1727987335452,-0.078125,-0.8359375,0.56640625,0.0,-0.1875,0.15625
347,347,1727987335492,-0.080078125,-0.83691406,0.5732422,-0.0625,-0.125,0.03125
348,348,1727987335532,-0.08203125,-0.828125,0.5732422,0.0,0.0,0.03125
349,349,1727987335572,-0.083984375,-0.82421875,0.57421875,-0.1875,0.0625,-0.09375
350,350,1727987335612,-0.0703125,-0.82910156,0.5722656,-0.1875,-0.0625,0.03125
351,351,1727987335652,-0.08203125,-0.83203125,0.57714844,-0.0625,-0.0625,-0.09375
352,352,1727987335692,-0.080078125,-0.8300781,0.5732422,-0.1875,0.0625,0.09375
353,353,1727987335732,-0.083984375,-0.83691406,0.56640625,0.0,0.125,0.03125
354,354,1727987335772,-0.078125,-0.8232422,0.56640625,0.0625,0.0,0.15625
355,355,1727987335812,-0.083984375,-0.83691406,0.5703125,0.0,-0.1875,0.15625
356,356,1727987335852,-0.083984375,-0.82910156,0.58203125,0.0,-0.0625,-0.15625
357,357,1727987335892,-0.07421875,-0.8330078,0.57128906,0.1875,-0.1875,-0.03125
358,358,1727987335932,-0.07128906,-0.8251953,0.57128906,-0.0625,-0.0625,0.03125
359,359,1727987335972,-0.08496094,-0.8466797,0.57128906,-0.125,0.0,0.25
360,360,1727987336012,-0.080078125,-0.8359375,0.57128906,-0.25,0.0625,0.15625
361,361,1727987336052,-0.076171875,-0.83203125,0.57128906,-0.0625,0.125,0.03125
362,362,1727987336092,-0.07519531,-0.83203125,0.5605469,-0.125,0.1875,-0.15625
363,363,1727987336132,-0.07519531,-0.8339844,0.5595703,-0.1875,-0.125,0.03125
364,364,1727987336172,-0.080078125,-0.83496094,0.5839844,-0.1875,-0.1875,0.09375
365,365,1727987336212,-0.076171875,-0.8300781,0.5800781,-0.125,0.125,-0.03125
366,366,1727987336252,-0.080078125,-0.8359375,0.5673828,0.3125,0.0,0.03125
367,367,1727987336292,-0.080078125,-0.8222656,0.5830078,0.0625,0.125,0.09375
368,368,1727987336332,-0.06738281,-0.8300781,0.5703125,0.125,-0.25,0.15625
369,369,1727987336372,-0.07324219,-0.83691406,0.5722656,0.0,-0.125,0.09375
370,370,1727987336412,-0.07421875,-0.83691406,0.57421875,-0.0625,-0.125,0.09375
371,371,1727987336452,-0.078125,-0.82910156,0.5654297,0.0,0.0,-0.09375
372,372,1727987336492,-0.08105469,-0.8310547,0.5654297,-0.0625,-0.125,0.15625
373,373,1727987336532,-0.076171875,-0.8310547,0.57910156,-0.0625,-0.0625,0.03125
374,374,1727987336572,-0.07910156,-0.83691406,0.5673828,0.0,0.0625,0.15625
375,375,1727987336612,-0.076171875,-0.8310547,0.5654297,0.1875,0.0625,0.09375
376,376,1727987336652,-0.07910156,-0.83691406,0.5722656,0.0,0.0625,0.09375
377,377,1727987336692,-0.080078125,-0.83496094,0.56933594,0.0625,0.0,0.15625
378,378,1727987336732,-0.07519531,-0.8251953,0.5917969,-0.0625,-0.125,0.1875
379,379,1727987336772,-0.07519531,-0.83496094,0.56933594,0.375,-0.1875,0.09375
380,380,1727987336812,-0.07421875,-0.8330078,0.56933594,-0.125,-0.25,0.1875
381,381,1727987336852,-0.083984375,-0.8388672,0.57421875,-0.0625,-0.125,0.25
382,382,1727987336892,-0.068359375,-0.8232422,0.5751953,-0.125,0.0625,0.15625
383,383,1727987336932,-0.078125,-0.83496094,0.5800781,-0.125,0.0625,-0.03125
384,384,1727987336972,-0.0859375,-0.83203125,0.5654297,-0.25,0.0,-0.03125
385,385,1727987337012,-0.07421875,-0.8330078,0.5732422,-0.1875,-0.34375,0.03125
386,386,1727987337052,-0.07324219,-0.828125,0.5761719,-0.125,-0.25,0.25
387,387,1727987337092,-0.07128906,-0.83203125,0.57128906,0.0,0.0,0.03125
388,388,1727987337132,-0.07714844,-0.82910156,0.5644531,0.125,0.0,0.09375
389,389,1727987337172,-0.076171875,-0.8359375,0.5751953,0.25,-0.0625,0.09375
390,390,1727987337212,-0.08105469,-0.83203125,0.5859375,0.1875,-0.3125,0.09375
391,391,1727987337252,-0.07714844,-0.8359375,0.5800781,-0.0625,-0.0625,0.03125
392,392,1727987337292,-0.08300781,-0.8378906,0.5722656,-0.125,0.0,0.09375
393,393,1727987337332,-0.080078125,-0.82421875,0.5644531,-0.0625,0.0625,0.09375
394,394,1727987337372,-0.08105469,-0.8330078,0.58203125,-0.125,0.125,0.03125
395,395,1727987337412,-0.080078125,-0.82128906,0.56152344,-0.0625,0.0625,-0.03125
396,396,1727987337452,-0.08105469,-0.8330078,0.5673828,-0.0625,-0.125,0.03125
397,397,1727987337492,-0.08496094,-0.8378906,0.5673828,0.0,0.0,-0.03125
398,398,1727987337532,-0.08105469,-0.8378906,0.5732422,-0.0625,-0.125,0.15625
399,399,1727987337572,-0.080078125,-0.83984375,0.56640625,0.0625,0.0,-0.03125
400,400,1727987337612,-0.08105469,-0.8310547,0.58496094,0.0625,-0.125,-0.09375
401,401,1727987337652,-0.076171875,-0.82910156,0.56640625,0.1875,-0.1875,0.1875
402,402,1727987337692,-0.076171875,-0.83496094,0.59277344,0.0,-0.0625,0.1875
403,403,1727987337732,-0.08105469,-0.8330078,0.57421875,-0.0625,-0.125,0.3125
404,404,1727987337772,-0.07910156,-0.8310547,0.5673828,0.125,0.25,-0.15625
405,405,1727987337812,-0.076171875,-0.8330078,0.5722656,0.0,0.0,-0.15625
406,406,1727987337852,-0.07910156,-0.8330078,0.5722656,-0.1875,-0.125,-0.09375
407,407,1727987337892,-0.078125,-0.83496094,0.5810547,-0.125,-0.25,0.09375
408,408,1727987337932,-0.08203125,-0.82910156,0.5644531,0.0,0.0,0.09375
409,409,1727987337972,-0.078125,-0.8310547,0.58203125,-0.125,-0.0625,-0.09375
410,410,1727987338012,-0.08105469,-0.82910156,0.5703125,0.125,0.0625,-0.09375
411,411,1727987338052,-0.07421875,-0.8251953,0.5625,0.0625,-0.25,0.03125
412,412,1727987338092,-0.07324219,-0.8310547,0.57128906,0.0625,-0.1875,-0.03125
413,413,1727987338132,-0.087890625,-0.828125,0.5761719,-0.0625,-0.0625,-0.09375
414,414,1727987338172,-0.080078125,-0.8310547,0.5703125,0.0,0.125,-0.09375
415,415,1727987338212,-0.07128906,-0.8300781,0.57910156,-0.125,0.0,-0.03125
416,416,1727987338252,-0.08886719,-0.82910156,0.578125,-0.0625,-0.125,0.03125
417,417,1727987338292,-0.0859375,-0.8339844,0.5683594,-0.125,-0.1875,0.03125
418,418,1727987338332,-0.08886719,-0.8339844,0.5683594,0.0,0.0625,0.09375
419,419,1727987338372,-0.08691406,-0.82910156,0.5751953,-0.125,0.125,-0.15625
420,420,1727987338412,-0.08300781,-0.8339844,0.5761719,0.375,-0.25,-0.09375
421,421,1727987338452,-0.07519531,-0.828125,0.5654297,-0.0625,-0.125,0.09375
422,422,1727987338492,-0.078125,-0.83203125,0.5800781,0.0,-0.0625,0.15625
423,423,1727987338532,-0.07519531,-0.8261719,0.5673828,-0.25,-0.0625,-0.03125
424,424,1727987338572,-0.08496094,-0.8330078,0.56347656,0.0625,0.125,-0.46875
425,425,1727987338612,-0.08691406,-0.82714844,0.578125,-0.0625,0.0,-0.28125
426,426,1727987338652,-0.07910156,-0.828125,0.57714844,-0.125,-0.25,-0.09375
427,427,1727987338692,-0.078125,-0.8251953,0.5751953,-0.0625,-0.3125,0.03125
428,428,1727987338732,-0.07910156,-0.8378906,0.5800781,0.0,0.0,-0.09375
429,429,1727987338772,-0.083984375,-0.8359375,0.58984375,-0.25,0.0625,-0.21875
430,430,1727987338812,-0.08984375,-0.82714844,0.57421875,-0.125,0.125,-0.09375
431,431,1727987338852,-0.076171875,-0.8222656,0.5761719,-0.0625,-0.1875,0.03125
432,432,1727987338892,-0.08105469,-0.8300781,0.57910156,-0.0625,-0.1875,-0.03125
433,433,1727987338932,-0.07714844,-0.82714844,0.5800781,-0.1875,0.0625,-0.09375
434,434,1727987338972,-0.08300781,-0.8339844,0.56640625,-0.0625,0.125,-0.15625
435,435,1727987339012,-0.08105469,-0.82421875,0.56933594,0.0,0.0625,-0.21875
436,436,1727987339052,-0.080078125,-0.83496094,0.578125,0.0,-0.125,0.03125
437,437,1727987339092,-0.07714844,-0.8330078,0.5722656,-0.125,-0.1875,-0.09375
438,438,1727987339132,-0.078125,-0.83496094,0.57128906,-0.1875,-0.0625,0.03125
439,439,1727987339172,-0.07324219,-0.828125,0.5830078,-0.125,0.125,0.03125
440,440,1727987339212,-0.076171875,-0.83691406,0.57128906,0.25,-0.0625,0.03125
441,441,1727987339252,-0.072265625,-0.8261719,0.57910156,0.0,-0.125,-0.03125
442,442,1727987339292,-0.07714844,-0.8466797,0.5673828,0.0,-0.1875,0.25
443,443,1727987339332,-0.078125,-0.828125,0.5751953,-0.125,0.125,-0.15625
444,444,1727987339372,-0.078125,-0.8339844,0.57714844,0.0,0.0625,-0.21875
445,445,1727987339412,-0.076171875,-0.828125,0.57421875,-0.25,0.125,-0.28125
446,446,1727987339452,-0.06738281,-0.8261719,0.5673828,-0.0625,-0.21875,0.0
447,447,1727987339492,-0.08691406,-0.83496094,0.56640625,-0.125,-0.21875,0.0625
448,448,1727987339532,-0.07128906,-0.83496094,0.5722656,0.0,0.15625,-0.03125
449,449,1727987339572,-0.08496094,-0.8330078,0.56152344,0.0,0.15625,0.0625
450,450,1727987339612,-0.07519531,-0.8310547,0.57128906,0.15625,-0.03125,0.0
451,451,1727987339652,-0.08886719,-0.83496094,0.57421875,0.21875,-0.03125,0.0
452,452,1727987339692,-0.076171875,-0.83203125,0.578125,0.09375,-0.15625,0.0625
453,453,1727987339732,-0.07324219,-0.8310547,0.5722656,0.0,-0.03125,-0.03125
454,454,1727987339772,-0.076171875,-0.83984375,0.5839844,0.09375,0.09375,-0.09375
455,455,1727987339812,-0.080078125,-0.8330078,0.5800781,0.03125,0.09375,-0.03125
456,456,1727987339852,-0.080078125,-0.82714844,0.5800781,-0.0625,-0.28125,0.0
457,457,1727987339892,-0.07519531,-0.83496094,0.5644531,-0.0625,0.03125,0.0625
458,458,1727987339932,-0.08105469,-0.83691406,0.5761719,0.0,0.03125,0.0
459,459,1727987339972,-0.08691406,-0.83496094,0.5673828,0.0,-0.09375,-0.09375
460,460,1727987340012,-0.076171875,-0.8378906,0.5654297,0.28125,-0.09375,0.125
461,461,1727987340052,-0.08105469,-0.828125,0.5683594,0.15625,0.09375,0.125
462,462,1727987340092,-0.06738281,-0.8300781,0.57714844,0.0,-0.03125,0.25
463,463,1727987340132,-0.083984375,-0.828125,0.58691406,0.03125,0.21875,-0.15625
464,464,1727987340172,-0.08691406,-0.83691406,0.57714844,-0.0625,0.09375,-0.15625
465,465,1727987340212,-0.076171875,-0.8261719,0.5654297,-0.125,-0.09375,0.0
466,466,1727987340252,-0.08300781,-0.82421875,0.5722656,-0.1875,-0.15625,0.0
467,467,1727987340292,-0.07128906,-0.82910156,0.55859375,-0.3125,-0.09375,0.0
468,468,1727987340332,-0.072265625,-0.8408203,0.58496094,0.0,-0.09375,0.0
469,469,1727987340372,-0.07128906,-0.8339844,0.5810547,0.0,0.03125,0.1875
470,470,1727987340412,-0.08300781,-0.8261719,0.5683594,0.15625,-0.21875,0.0625
471,471,1727987340452,-0.076171875,-0.828125,0.5654297,0.15625,-0.09375,0.0625
472,472,1727987340492,-0.080078125,-0.8300781,0.56152344,0.15625,-0.09375,0.0625
473,473,1727987340532,-0.08203125,-0.8339844,0.58203125,0.0,0.09375,-0.03125
474,474,1727987340572,-0.080078125,-0.83203125,0.57714844,0.03125,0.21875,0.0
475,475,1727987340612,-0.08105469,-0.83203125,0.56933594,-0.125,-0.15625,-0.03125
476,476,1727987340652,-0.07910156,-0.83203125,0.5810547,0.0,0.03125,0.0625
477,477,1727987340692,-0.078125,-0.83203125,0.5732422,-0.0625,0.03125,-0.03125
478,478,1727987340732,-0.080078125,-0.828125,0.5683594,0.09375,0.03125,-0.09375
479,479,1727987340772,-0.07519531,-0.83691406,0.57714844,0.40625,-0.09375,0.0
480,480,1727987340812,-0.07421875,-0.82910156,0.58203125,-0.125,-0.03125,0.125
481,481,1727987340852,-0.07714844,-0.8359375,0.56933594,0.09375,-0.21875,0.3125
482,482,1727987340892,-0.080078125,-0.8173828,0.578125,0.03125,0.03125,-0.15625
483,483,1727987340932,-0.08105469,-0.8330078,0.5830078,0.0,0.09375,-0.03125
484,484,1727987340972,-0.07519531,-0.8310547,0.56640625,-0.125,0.09375,-0.09375
485,485,1727987341012,-0.07324219,-0.8408203,0.57714844,-0.125,-0.09375,0.0
486,486,1727987341052,-0.07421875,-0.82714844,0.5625,-0.1875,0.03125,-0.03125
487,487,1727987341092,-0.07128906,-0.8310547,0.58496094,-0.0625,-0.03125,0.0
488,488,1727987341132,-0.080078125,-0.8378906,0.5751953,0.03125,0.09375,0.1875
489,489,1727987341172,-0.07324219,-0.8222656,0.5751953,0.09375,-0.03125,0.125
490,490,1727987341212,-0.08496094,-0.84375,0.57128906,0.15625,-0.09375,0.1875
491,491,1727987341252,-0.080078125,-0.8310547,0.56640625,0.15625,0.03125,0.0
492,492,1727987341292,-0.07714844,-0.8232422,0.5654297,0.03125,-0.03125,0.0
493,493,1727987341332,-0.07421875,-0.8359375,0.56640625,0.0,0.03125,0.0
494,494,1727987341372,-0.080078125,-0.8300781,0.5625,-0.0625,0.09375,0.0
495,495,1727987341412,-0.078125,-0.8330078,0.58203125,-0.1875,0.15625,0.0625
496,496,1727987341452,-0.07519531,-0.8203125,0.56933594,-0.0625,-0.03125,0.0625
497,497,1727987341492,-0.072265625,-0.8300781,0.5761719,-0.125,0.03125,0.1875
498,498,1727987341532,-0.078125,-0.82421875,0.5830078,0.15625,-0.09375,0.0625
499,499,1727987341572,-0.06640625,-0.8330078,0.5703125,0.28125,-0.21875,0.125
500,500,1727987341612,-0.07324219,-0.83203125,0.5654297,0.09375,-0.09375,0.25
501,501,1727987341652,-0.07421875,-0.8300781,0.57128906,0.03125,0.09375,0.1875
502,502,1727987341692,-0.07324219,-0.8339844,0.5761719,0.21875,0.34375,-0.09375
503,503,1727987341732,-0.080078125,-0.82910156,0.5732422,-0.0625,-0.03125,0.0
504,504,1727987341772,-0.072265625,-0.8300781,0.5732422,-0.1875,-0.15625,0.0625
505,505,1727987341812,-0.08300781,-0.82421875,0.578125,-0.0625,-0.03125,0.0625
506,506,1727987341852,-0.07519531,-0.83203125,0.5683594,0.0,0.21875,-0.03125
507,507,1727987341892,-0.080078125,-0.83691406,0.5517578,0.03125,0.03125,0.125
508,508,1727987341932,-0.06933594,-0.8330078,0.5800781,0.15625,-0.03125,0.0625
509,509,1727987341972,-0.08496094,-0.8330078,0.58203125,0.21875,-0.21875,0.0625
510,510,1727987342012,-0.08984375,-0.83496094,0.5722656,0.28125,-0.09375,0.0
511,511,1727987342052,-0.08203125,-0.8310547,0.5722656,0.03125,-0.03125,0.0625
512,512,1727987342092,-0.07910156,-0.83496094,0.5732422,0.03125,0.09375,0.0625
513,513,1727987342132,-0.076171875,-0.82714844,0.5810547,-0.0625,-0.03125,0.125
514,514,1727987342172,-0.08300781,-0.8251953,0.5703125,0.03125,0.03125,0.0625
515,515,1727987342212,-0.07910156,-0.82910156,0.58203125,-0.1875,-0.03125,0.125
516,516,1727987342252,-0.07714844,-0.82714844,0.57128906,-0.125,-0.03125,0.0
517,517,1727987342292,-0.08105469,-0.8359375,0.578125,0.0,-0.03125,0.0
518,518,1727987342332,-0.07910156,-0.83984375,0.5761719,0.40625,0.03125,0.125
519,519,1727987342372,-0.07519531,-0.82421875,0.5800781,0.15625,0.09375,0.1875
520,520,1727987342412,-0.08300781,-0.8378906,0.5751953,0.03125,-0.09375,0.1875
521,521,1727987342452,-0.07519531,-0.8330078,0.56152344,0.15625,0.09375,-0.21875
522,522,1727987342492,-0.08300781,-0.8378906,0.5732422,0.03125,0.09375,-0.03125
523,523,1727987342532,-0.07519531,-0.8222656,0.5722656,-0.1875,0.09375,-0.09375
524,524,1727987342572,-0.08105469,-0.8339844,0.5654297,-0.0625,-0.21875,-0.03125
525,525,1727987342612,-0.08105469,-0.82910156,0.578125,-0.125,0.03125,-0.03125
526,526,1727987342652,-0.080078125,-0.8251953,0.55859375,-0.125,0.09375,0.0
527,527,1727987342692,-0.072265625,-0.82128906,0.56933594,-0.0625,-0.03125,-0.09375
528,528,1727987342732,-0.07714844,-0.83691406,0.56640625,0.03125,-0.15625,0.0625
529,529,1727987342772,-0.08105469,-0.8359375,0.5654297,0.03125,-0.21875,0.0
530,530,1727987342812,-0.08691406,-0.83203125,0.57421875,0.0,-0.09375,0.0
531,531,1727987342852,-0.07421875,-0.8310547,0.5625,0.03125,0.15625,-0.03125
532,532,1727987342892,-0.076171875,-0.82910156,0.56347656,0.03125,0.03125,0.0625
533,533,1727987342932,-0.08300781,-0.828125,0.56347656,0.0,-0.15625,0.125
534,534,1727987342972,-0.07128906,-0.82421875,0.5673828,0.0,-0.09375,0.125
535,535,1727987343012,-0.07910156,-0.83984375,0.56933594,0.03125,0.03125,0.0
536,536,1727987343052,-0.08300781,-0.82714844,0.56347656,0.03125,0.03125,-0.15625
537,537,1727987343092,-0.078125,-0.8359375,0.5732422,0.21875,-0.09375,-0.03125
538,538,1727987343132,-0.07519531,-0.8232422,0.58203125,0.03125,0.03125,0.25
539,539,1727987343172,-0.08300781,-0.83203125,0.57421875,-0.1875,-0.09375,0.1875
540,540,1727987343212,-0.07910156,-0.828125,0.5761719,0.0,0.09375,-0.15625
541,541,1727987343252,-0.0859375,-0.83691406,0.5761719,0.03125,0.15625,-0.15625
542,542,1727987343292,-0.0859375,-0.8251953,0.56933594,-0.0625,-0.03125,-0.09375
543,543,1727987343332,-0.078125,-0.82910156,0.5761719,0.0,-0.28125,0.0
544,544,1727987343372,-0.078125,-0.8310547,0.57714844,-0.09375,-0.09375,-0.125
545,545,1727987343412,-0.07421875,-0.84472656,0.56347656,0.03125,0.09375,-0.25
546,546,1727987343452,-0.0859375,-0.8388672,0.57128906,-0.15625,-0.03125,0.0
547,547,1727987343492,-0.072265625,-0.83691406,0.578125,0.03125,-0.09375,-0.0625
548,548,1727987343532,-0.07714844,-0.8359375,0.5732422,0.09375,-0.03125,0.0
549,549,1727987343572,-0.08203125,-0.8378906,0.5761719,-0.03125,0.03125,-0.0625
550,550,1727987343612,-0.08496094,-0.83984375,0.5673828,-0.15625,0.03125,-0.0625
551,551,1727987343652,-0.076171875,-0.8339844,0.57421875,0.21875,0.15625,0.03125
552,552,1727987343692,-0.07519531,-0.83496094,0.5810547,-0.15625,-0.09375,-0.1875
553,553,1727987343732,-0.0859375,-0.8300781,0.56152344,-0.09375,-0.03125,-0.0625
554,554,1727987343772,-0.080078125,-0.8300781,0.5654297,-0.28125,-0.03125,0.0
555,555,1727987343812,-0.080078125,-0.8261719,0.5751953,-0.15625,0.15625,0.03125
556,556,1727987343852,-0.072265625,-0.8330078,0.5761719,-0.03125,-0.03125,-0.125
557,557,1727987343892,-0.07910156,-0.8300781,0.5751953,0.28125,-0.09375,0.0
558,558,1727987343932,-0.0859375,-0.84375,0.5654297,0.09375,0.09375,0.15625
559,559,1727987343972,-0.072265625,-0.82128906,0.5654297,0.03125,0.09375,0.09375
560,560,1727987344012,-0.07910156,-0.83203125,0.5644531,0.28125,0.09375,-0.25
561,561,1727987344052,-0.08203125,-0.8339844,0.5654297,-0.03125,0.09375,-0.1875
562,562,1727987344092,-0.08203125,-0.82421875,0.5751953,-0.09375,-0.03125,-0.0625
563,563,1727987344132,-0.08105469,-0.828125,0.5722656,-0.03125,-0.21875,0.03125
564,564,1727987344172,-0.078125,-0.82128906,0.5830078,-0.03125,0.15625,-0.0625
565,565,1727987344212,-0.07519531,-0.8330078,0.5751953,0.03125,0.03125,-0.0625
566,566,1727987344252,-0.08300781,-0.8330078,0.56152344,-0.03125,-0.03125,-0.0625
567,567,1727987344292,-0.08300781,-0.8359375,0.5751953,0.21875,-0.09375,0.09375
568,568,1727987344332,-0.08886719,-0.8339844,0.5605469,0.03125,-0.03125,0.15625
569,569,1727987344372,-0.07128906,-0.828125,0.57128906,-0.03125,0.03125,0.0
570,570,1727987344412,-0.072265625,-0.82714844,0.5654297,-0.09375,0.03125,-0.125
571,571,1727987344452,-0.07714844,-0.83203125,0.578125,0.03125,0.03125,-0.125
572,572,1727987344492,-0.08105469,-0.8330078,0.55859375,-0.03125,-0.03125,-0.125
573,573,1727987344532,-0.083984375,-0.83496094,0.57128906,-0.03125,0.03125,-0.125
574,574,1727987344572,-0.07128906,-0.8330078,0.56640625,-0.09375,0.03125,0.0
575,575,1727987344612,-0.07910156,-0.8261719,0.5722656,-0.09375,-0.09375,0.09375
576,576,1727987344652,-0.07128906,-0.8330078,0.56933594,0.03125,0.03125,-0.0625
577,577,1727987344692,-0.08300781,-0.8251953,0.5703125,0.21875,-0.09375,0.0
578,578,1727987344732,-0.07910156,-0.8310547,0.56933594,-0.03125,-0.09375,0.15625
579,579,1727987344772,-0.07910156,-0.83984375,0.5732422,0.03125,-0.03125,0.15625
580,580,1727987344812,-0.07421875,-0.8251953,0.5732422,0.03125,0.03125,0.03125
581,581,1727987344852,-0.08203125,-0.8222656,0.58984375,0.03125,0.21875,-0.25
582,582,1727987344892,-0.078125,-0.83203125,0.5605469,-0.03125,0.09375,-0.125
583,583,1727987344932,-0.083984375,-0.828125,0.5761719,-0.21875,-0.09375,0.03125
584,584,1727987344972,-0.078125,-0.8330078,0.56347656,-0.21875,-0.09375,0.15625
585,585,1727987345012,-0.083984375,-0.8330078,0.58203125,-0.03125,0.21875,-0.125
586,586,1727987345052,-0.076171875,-0.8378906,0.5800781,0.03125,0.03125,0.03125
587,587,1727987345092,-0.07519531,-0.8232422,0.5722656,0.09375,-0.09375,0.0
588,588,1727987345132,-0.07519531,-0.83203125,0.57910156,0.09375,-0.15625,0.03125
589,589,1727987345172,-0.078125,-0.828125,0.5703125,0.03125,-0.09375,0.0
590,590,1727987345212,-0.080078125,-0.8378906,0.5703125,-0.03125,0.09375,0.0
591,591,1727987345252,-0.080078125,-0.82910156,0.5576172,-0.03125,0.15625,0.03125
592,592,1727987345292,-0.08105469,-0.8417969,0.57128906,-0.03125,0.03125,0.03125
593,593,1727987345332,-0.08496094,-0.8330078,0.5751953,0.03125,0.09375,0.03125
594,594,1727987345372,-0.07910156,-0.82910156,0.5761719,-0.03125,0.15625,0.09375
595,595,1727987345412,-0.080078125,-0.8378906,0.57128906,0.15625,0.09375,0.03125
596,596,1727987345452,-0.08496094,-0.8330078,0.56152344,-0.03125,-0.09375,0.15625
597,597,1727987345492,-0.087890625,-0.8310547,0.5830078,-0.03125,-0.09375,0.09375
598,598,1727987345532,-0.07421875,-0.8457031,0.5839844,0.15625,-0.21875,-0.0625
599,599,1727987345572,-0.08105469,-0.8339844,0.56347656,0.28125,-0.15625,0.09375
600,600,1727987345612,-0.08105469,-0.8359375,0.5732422,-0.03125,0.03125,0.15625
601,601,1727987345652,-0.080078125,-0.8261719,0.5673828,-0.03125,0.09375,0.03125
602,602,1727987345692,-0.07128906,-0.83496094,0.58203125,0.09375,0.34375,-0.1875
603,603,1727987345732,-0.08203125,-0.8378906,0.57128906,-0.09375,0.21875,0.0
604,604,1727987345772,-0.080078125,-0.8310547,0.58496094,-0.21875,0.03125,0.09375
605,605,1727987345812,-0.08105469,-0.828125,0.5703125,-0.03125,-0.15625,0.21875
606,606,1727987345852,-0.08691406,-0.8261719,0.5810547,0.09375,0.21875,0.03125
607,607,1727987345892,-0.08691406,-0.8330078,0.5703125,0.09375,0.15625,0.0
608,608,1727987345932,-0.08105469,-0.8261719,0.5732422,0.15625,0.09375,0.09375
609,609,1727987345972,-0.08300781,-0.83203125,0.5722656,0.40625,-0.21875,0.15625
610,610,1727987346012,-0.08691406,-0.8339844,0.5644531,0.0625,-0.25,0.15625
611,611,1727987346052,-0.08300781,-0.8359375,0.5839844,-0.0625,-0.125,0.0
612,612,1727987346092,-0.07910156,-0.83496094,0.5722656,-0.125,0.125,0.0
613,613,1727987346132,-0.07324219,-0.83203125,0.5722656,0.0,0.0,-0.0625
614,614,1727987346172,-0.0859375,-0.8310547,0.5703125,-0.25,-0.125,0.0
615,615,1727987346212,-0.083984375,-0.8330078,0.5732422,-0.0625,0.0625,-0.0625
616,616,1727987346252,-0.083984375,-0.83496094,0.57128906,0.0,0.0625,-0.0625
617,617,1727987346292,-0.07128906,-0.8310547,0.57128906,-0.125,-0.125,0.15625
618,618,1727987346332,-0.0859375,-0.82910156,0.5625,0.0,0.0,0.0
619,619,1727987346372,-0.076171875,-0.82421875,0.56933594,0.1875,-0.125,-0.25
620,620,1727987346412,-0.07910156,-0.8359375,0.5673828,0.28125,0.0,0.0
621,621,1727987346452,-0.083984375,-0.828125,0.5830078,-0.0625,-0.0625,0.15625
622,622,1727987346492,-0.078125,-0.8310547,0.5703125,-0.1875,0.0,0.28125
623,623,1727987346532,-0.068359375,-0.8417969,0.5810547,0.125,0.0625,0.0
624,624,1727987346572,-0.08691406,-0.828125,0.5830078,-0.0625,0.1875,-0.1875
625,625,1727987346612,-0.07421875,-0.8261719,0.57714844,-0.3125,-0.0625,-0.0625
626,626,1727987346652,-0.080078125,-0.8359375,0.57714844,-0.125,-0.375,0.09375
627,627,1727987346692,-0.08203125,-0.83496094,0.5673828,-0.125,-0.125,0.0
628,628,1727987346732,-0.08105469,-0.83203125,0.5722656,0.0,0.0625,-0.0625
629,629,1727987346772,-0.07421875,-0.8339844,0.5761719,-0.125,-0.0625,-0.1875
630,630,1727987346812,-0.0859375,-0.8339844,0.57421875,0.0,-0.125,0.09375
631,631,1727987346852,-0.08496094,-0.828125,0.5810547,0.0625,-0.125,0.09375
632,632,1727987346892,-0.08203125,-0.8339844,0.56152344,-0.125,-0.1875,0.0
633,633,1727987346932,-0.078125,-0.8261719,0.56640625,-0.1875,0.125,-0.125
634,634,1727987346972,-0.080078125,-0.83496094,0.5576172,-0.0625,0.125,0.0
635,635,1727987347012,-0.087890625,-0.8300781,0.55371094,-0.125,-0.125,-0.0625
636,636,1727987347052,-0.07519531,-0.8261719,0.5732422,0.0625,0.0,-0.0625
637,637,1727987347092,-0.08105469,-0.8378906,0.5839844,-0.125,-0.0625,0.0625
638,638,1727987347132,-0.0859375,-0.8251953,0.5751953,0.0625,0.125,0.0625
639,639,1727987347172,-0.08496094,-0.82714844,0.58203125,0.0,-0.0625,0.0
640,640,1727987347212,-0.08496094,-0.8261719,0.5673828,0.21875,-0.1875,-0.0625
641,641,1727987347252,-0.08691406,-0.8310547,0.5722656,0.0625,-0.1875,0.0625
642,642,1727987347292,-0.076171875,-0.8339844,0.5800781,0.0,0.125,0.21875
643,643,1727987347332,-0.07519531,-0.83691406,0.5703125,-0.25,0.0,0.09375
644,644,1727987347372,-0.068359375,-0.83496094,0.5673828,0.0625,0.1875,-0.25
645,645,1727987347412,-0.08496094,-0.8388672,0.55859375,-0.0625,0.125,-0.1875
646,646,1727987347452,-0.076171875,-0.81933594,0.5703125,-0.25,-0.125,0.0
647,647,1727987347492,-0.08105469,-0.83691406,0.57421875,-0.125,-0.25,0.0625
648,648,1727987347532,-0.07519531,-0.82421875,0.5644531,-0.0625,0.125,-0.0625
649,649,1727987347572,-0.07421875,-0.8339844,0.5683594,0.0,0.25,-0.125
650,650,1727987347612,-0.07519531,-0.8300781,0.5703125,0.0,0.0,-0.0625
651,651,1727987347652,-0.08496094,-0.8408203,0.5703125,0.125,-0.1875,-0.1875
652,652,1727987347692,-0.07128906,-0.8378906,0.5644531,0.0,-0.1875,0.0
653,653,1727987347732,-0.07421875,-0.8339844,0.57128906,-0.0625,0.0625,0.0
654,654,1727987347772,-0.08105469,-0.8359375,0.5654297,-0.1875,0.0625,-0.0625
655,655,1727987347812,-0.072265625,-0.82421875,0.5800781,-0.125,0.0,-0.125
656,656,1727987347852,-0.083984375,-0.8359375,0.56933594,-0.125,0.0,-0.0625
657,657,1727987347892,-0.083984375,-0.8330078,0.5722656,0.0,0.0,-0.125
658,658,1727987347932,-0.07421875,-0.8310547,0.5751953,-0.0625,0.125,0.0625
659,659,1727987347972,-0.07910156,-0.8339844,0.5654297,-0.0625,-0.0625,0.0625
660,660,1727987348012,-0.08105469,-0.8261719,0.5673828,-0.125,0.0,0.0
661,661,1727987348052,-0.078125,-0.8378906,0.56347656,0.28125,-0.125,-0.125
662,662,1727987348092,-0.07910156,-0.83496094,0.5732422,0.0,0.0,0.15625
663,663,1727987348132,-0.083984375,-0.82714844,0.5644531,0.125,0.0,0.0625
664,664,1727987348172,-0.083984375,-0.83203125,0.5673828,0.0,0.0,-0.0625
665,665,1727987348212,-0.07714844,-0.82910156,0.56152344,0.0,0.0625,-0.1875
666,666,1727987348252,-0.08105469,-0.82714844,0.56933594,-0.1875,0.125,-0.1875
667,667,1727987348292,-0.07421875,-0.83496094,0.5703125,-0.1875,-0.1875,0.0
668,668,1727987348332,-0.078125,-0.8359375,0.5732422,-0.3125,-0.0625,0.15625
669,669,1727987348372,-0.076171875,-0.8261719,0.5654297,-0.125,0.0,-0.0625
670,670,1727987348412,-0.07519531,-0.83984375,0.56347656,-0.0625,-0.0625,0.0
671,671,1727987348452,-0.083984375,-0.83496094,0.56933594,0.0625,-0.125,0.0625
672,672,1727987348492,-0.08203125,-0.83496094,0.5761719,0.125,-0.25,0.0
673,673,1727987348532,-0.08203125,-0.8310547,0.57421875,0.0625,-0.0625,0.0625
674,674,1727987348572,-0.080078125,-0.8261719,0.56347656,-0.125,0.0625,0.0
675,675,1727987348612,-0.07910156,-0.83496094,0.5722656,-0.125,0.125,-0.0625
676,676,1727987348652,-0.07910156,-0.83203125,0.5625,0.0,0.1875,0.0625
677,677,1727987348692,-0.07910156,-0.8330078,0.5703125,-0.125,-0.0625,0.0625
678,678,1727987348732,-0.0859375,-0.83691406,0.5722656,-0.0625,0.0,0.0625
679,679,1727987348772,-0.07324219,-0.82714844,0.57128906,-0.0625,0.0,0.0
680,680,1727987348812,-0.076171875,-0.83691406,0.5654297,0.0,0.0,0.0
681,681,1727987348852,-0.08105469,-0.8251953,0.56347656,-0.0625,-0.0625,0.0625
682,682,1727987348892,-0.072265625,-0.83203125,0.5800781,0.21875,-0.125,-0.125
683,683,1727987348932,-0.08300781,-0.8378906,0.56933594,0.21875,-0.1875,-0.0625
684,684,1727987348972,-0.08886719,-0.8330078,0.57421875,0.0,0.125,0.28125
685,685,1727987349012,-0.08105469,-0.82714844,0.56640625,-0.0625,0.0,0.0
686,686,1727987349052,-0.07421875,-0.83496094,0.5761719,0.0,0.125,-0.1875
687,687,1727987349092,-0.076171875,-0.8330078,0.57128906,-0.1875,0.0625,-0.0625
688,688,1727987349132,-0.07128906,-0.8359375,0.5732422,-0.3125,-0.125,-0.0625
689,689,1727987349172,-0.08105469,-0.82910156,0.57910156,-0.25,-0.125,0.09375
690,690,1727987349212,-0.07421875,-0.82910156,0.56933594,0.0625,0.0625,-0.25
691,691,1727987349252,-0.07421875,-0.8388672,0.5595703,0.0625,0.0,-0.125
692,692,1727987349292,-0.08496094,-0.83496094,0.578125,0.0,0.0,0.0625
693,693,1727987349332,-0.07421875,-0.82714844,0.57128906,0.21875,-0.125,0.15625
694,694,1727987349372,-0.0703125,-0.8330078,0.5751953,0.0,-0.1875,0.09375
695,695,1727987349412,-0.07910156,-0.8339844,0.5673828,0.0,0.125,-0.0625
696,696,1727987349452,-0.08300781,-0.83496094,0.5703125,-0.125,0.0,0.0
697,697,1727987349492,-0.076171875,-0.828125,0.58496094,0.0,0.0,0.0
698,698,1727987349532,-0.08300781,-0.8339844,0.5683594,-0.0625,-0.125,-0.125
699,699,1727987349572,-0.07910156,-0.83496094,0.5722656,-0.0625,0.0,0.09375
700,700,1727987349612,-0.07910156,-0.8300781,0.56933594,0.0625,0.0,0.0
701,701,1727987349652,-0.078125,-0.8339844,0.578125,-0.125,-0.0625,0.0
702,702,1727987349692,-0.083984375,-0.8339844,0.57128906,0.125,0.0,0.0
703,703,1727987349732,-0.07421875,-0.83496094,0.5673828,0.21875,-0.125,-0.125
704,704,1727987349772,-0.080078125,-0.83984375,0.57714844,0.34375,-0.1875,0.15625
705,705,1727987349812,-0.080078125,-0.8261719,0.5732422,-0.125,-0.0625,0.28125
706,706,1727987349852,-0.08300781,-0.82910156,0.58203125,-0.0625,-0.0625,0.21875
707,707,1727987349892,-0.07714844,-0.83691406,0.57421875,-0.0625,0.125,-0.0625
708,708,1727987349932,-0.08203125,-0.83203125,0.5644531,-0.0625,0.125,0.0
709,709,1727987349972,-0.07910156,-0.83203125,0.57128906,-0.25,0.0,0.0
710,710,1727987350012,-0.08203125,-0.83691406,0.5732422,-0.375,-0.3125,0.0625
711,711,1727987350052,-0.07519531,-0.83691406,0.5751953,-0.125,-0.25,0.0625
712,712,1727987350092,-0.07421875,-0.83496094,0.5625,-0.0625,0.125,0.0625
713,713,1727987350132,-0.078125,-0.83691406,0.57714844,0.0625,0.1875,0.15625
714,714,1727987350172,-0.07519531,-0.8339844,0.5644531,0.125,-0.0625,0.0625
715,715,1727987350212,-0.091796875,-0.82421875,0.5683594,0.28125,-0.375,0.34375
716,716,1727987350252,-0.072265625,-0.8310547,0.5654297,0.125,-0.0625,0.09375
717,717,1727987350292,-0.07128906,-0.8339844,0.5654297,0.0,0.0625,0.0
718,718,1727987350332,-0.07421875,-0.8222656,0.5722656,-0.125,0.0,-0.0625
719,719,1727987350372,-0.076171875,-0.8251953,0.56347656,-0.125,0.0,0.0
720,720,1727987350412,-0.07421875,-0.82910156,0.57421875,-0.0625,-0.0625,0.0625
721,721,1727987350452,-0.07128906,-0.8339844,0.5751953,-0.0625,-0.125,0.09375
722,722,1727987350492,-0.07128906,-0.8388672,0.56152344,-0.0625,-0.0625,0.0625
723,723,1727987350532,-0.080078125,-0.8339844,0.5673828,0.0625,-0.0625,0.0625
724,724,1727987350572,-0.07519531,-0.8251953,0.5595703,0.0625,0.0,0.0625
725,725,1727987350612,-0.08300781,-0.8330078,0.5917969,0.46875,-0.25,0.0
726,726,1727987350652,-0.0703125,-0.8300781,0.5683594,-0.125,-0.125,0.21875
727,727,1727987350692,-0.07324219,-0.8310547,0.578125,-0.0625,-0.25,0.28125
728,728,1727987350732,-0.06933594,-0.82128906,0.5722656,-0.0625,0.125,0.0
729,729,1727987350772,-0.08886719,-0.8330078,0.55859375,-0.0625,0.125,-0.125
730,730,1727987350812,-0.0703125,-0.8339844,0.5703125,-0.25,0.0,-0.25
731,731,1727987350852,-0.08496094,-0.828125,0.5703125,-0.3125,-0.25,0.0625
732,732,1727987350892,-0.07324219,-0.8330078,0.5644531,-0.3125,-0.25,0.0
733,733,1727987350932,-0.078125,-0.8339844,0.56152344,0.0,0.0625,-0.0625
734,734,1727987350972,-0.083984375,-0.82421875,0.56933594,0.0,0.25,0.0625
735,735,1727987351012,-0.078125,-0.8330078,0.57128906,0.0625,0.0625,0.0625
736,736,1727987351052,-0.07324219,-0.83496094,0.56347656,0.28125,-0.375,0.09375
737,737,1727987351092,-0.07910156,-0.8310547,0.5751953,0.0625,-0.125,0.0
738,738,1727987351132,-0.07421875,-0.8310547,0.57128906,0.0,0.0625,0.0625
739,739,1727987351172,-0.07519531,-0.82910156,0.57910156,0.0,0.0625,0.0625
740,740,1727987351212,-0.08496094,-0.8261719,0.578125,-0.125,-0.03125,-0.125
741,741,1727987351252,-0.07910156,-0.8339844,0.5703125,-0.0625,-0.03125,-0.0625
742,742,1727987351292,-0.076171875,-0.828125,0.56640625,-0.125,-0.03125,0.0
743,743,1727987351332,-0.08203125,-0.8310547,0.5722656,-0.125,0.09375,0.0625
744,744,1727987351372,-0.080078125,-0.82714844,0.5703125,-0.0625,-0.09375,0.0
745,745,1727987351412,-0.07421875,-0.82910156,0.58496094,0.1875,-0.1875,-0.1875
746,746,1727987351452,-0.0859375,-0.8339844,0.57128906,0.25,0.03125,0.0
747,747,1727987351492,-0.07910156,-0.8339844,0.5810547,0.0,0.15625,-0.0625
748,748,1727987351532,-0.072265625,-0.82714844,0.578125,-0.0625,-0.09375,0.0625
749,749,1727987351572,-0.078125,-0.8251953,0.57128906,0.0,0.09375,-0.25
