,Unnamed: 0,timestamp,accel_x,accel_y,accel_z,gyro_x,gyro_y,gyro_z
0,0,1728007765895,-0.8720703,-0.45507812,0.052734375,0.1875,0.21875,0.1875
1,1,1728007765935,-0.8701172,-0.45898438,0.045898438,-0.40625,-0.09375,0.1875
2,2,1728007765975,-0.87597656,-0.4609375,0.051757812,0.1875,0.375,-0.125
3,3,1728007766015,-0.87109375,-0.46484375,0.053710938,-0.125,0.21875,-0.3125
4,4,1728007766055,-0.87109375,-0.45898438,0.064453125,0.0625,0.03125,-0.125
5,5,1728007766095,-0.87890625,-0.45898438,0.045898438,0.125,0.21875,-0.125
6,6,1728007766135,-0.8691406,-0.4609375,0.06738281,-0.21875,0.03125,0.0
7,7,1728007766175,-0.8720703,-0.46875,0.052734375,-0.0625,0.5,0.0625
8,8,1728007766215,-0.87109375,-0.46972656,0.048828125,0.25,0.5,0.25
9,9,1728007766255,-0.8730469,-0.46484375,0.041992188,0.25,0.25,0.125
10,10,1728007766295,-0.87109375,-0.4609375,0.051757812,0.0,0.6875,0.125
11,11,1728007766335,-0.8691406,-0.453125,0.04296875,-0.1875,0.03125,0.1875
12,12,1728007766375,-0.8798828,-0.46777344,0.052734375,0.75,0.875,0.125
13,13,1728007766415,-0.8720703,-0.4609375,0.051757812,0.4375,0.3125,-0.125
14,14,1728007766455,-0.88671875,-0.44726562,0.037109375,-0.21875,0.21875,-0.25
15,15,1728007766495,-0.8769531,-0.45703125,0.041015625,0.1875,0.3125,0.0625
16,16,1728007766535,-0.8720703,-0.4560547,0.052734375,-0.1875,-0.15625,0.125
17,17,1728007766575,-0.87597656,-0.4638672,0.057617188,-0.1875,-0.53125,0.0
18,18,1728007766615,-0.8701172,-0.46289062,0.045898438,-0.125,-0.09375,-0.0625
19,19,1728007766655,-0.8779297,-0.46777344,0.056640625,-0.65625,-0.15625,-0.25
20,20,1728007766695,-0.87890625,-0.45898438,0.045898438,0.6875,0.09375,-0.125
21,21,1728007766735,-0.87597656,-0.46777344,0.04296875,-0.1875,-0.59375,-0.0625
22,22,1728007766775,-0.8701172,-0.47070312,0.036132812,-0.0625,-0.34375,-0.125
23,23,1728007766815,-0.87402344,-0.4658203,0.04296875,0.1875,-0.15625,-0.0625
24,24,1728007766855,-0.87402344,-0.4609375,0.0546875,0.6875,0.15625,-0.125
25,25,1728007766895,-0.8720703,-0.46289062,0.053710938,0.625,0.09375,-0.25
26,26,1728007766935,-0.87890625,-0.45898438,0.044921875,0.125,-0.28125,-0.25
27,27,1728007766975,-0.875,-0.46679688,0.0390625,0.1875,-0.15625,0.0
28,28,1728007767015,-0.87402344,-0.45898438,0.057617188,0.0625,-0.34375,0.0
29,29,1728007767055,-0.8779297,-0.46191406,0.044921875,-0.125,-0.28125,0.125
30,30,1728007767095,-0.8720703,-0.45898438,0.044921875,-0.53125,-0.40625,-0.0625
31,31,1728007767135,-0.8691406,-0.46484375,0.053710938,-0.28125,-0.46875,0.125
32,32,1728007767175,-0.8779297,-0.46289062,0.056640625,-0.53125,-0.40625,0.0625
33,33,1728007767215,-0.86328125,-0.4560547,0.045898438,-0.0625,-0.21875,0.0
34,34,1728007767255,-0.8828125,-0.45898438,0.059570312,0.3125,0.4375,-0.125
35,35,1728007767295,-0.8847656,-0.46191406,0.046875,0.125,0.21875,0.375
36,36,1728007767335,-0.87890625,-0.4638672,0.051757812,0.1875,-0.03125,0.5625
37,37,1728007767375,-0.8730469,-0.4609375,0.04296875,-0.125,0.09375,0.3125
38,38,1728007767415,-0.87890625,-0.46191406,0.032226562,0.0,0.03125,0.1875
39,39,1728007767455,-0.8720703,-0.46777344,0.05859375,-0.78125,-0.34375,0.5
40,40,1728007767495,-0.8769531,-0.46484375,0.055664062,-0.0625,-0.03125,0.5625
41,41,1728007767535,-0.87597656,-0.46289062,0.047851562,-0.28125,-0.46875,0.4375
42,42,1728007767575,-0.8691406,-0.4736328,0.052734375,0.25,-0.03125,0.0625
43,43,1728007767615,-0.8798828,-0.4580078,0.045898438,0.1875,0.03125,-0.1875
44,44,1728007767655,-0.87597656,-0.4580078,0.055664062,0.375,-0.03125,0.0625
45,45,1728007767695,-0.88183594,-0.4609375,0.046875,0.25,0.09375,-0.0625
46,46,1728007767735,-0.8769531,-0.45703125,0.044921875,0.4375,0.15625,-0.125
47,47,1728007767775,-0.87890625,-0.46972656,0.053710938,-0.1875,-0.21875,0.0625
48,48,1728007767815,-0.8720703,-0.4638672,0.038085938,0.3125,0.25,0.125
49,49,1728007767855,-0.8730469,-0.4609375,0.037109375,-0.40625,-0.40625,0.1875
50,50,1728007767895,-0.8730469,-0.4560547,0.052734375,-0.21875,-0.21875,-0.0625
51,51,1728007767935,-0.87597656,-0.46289062,0.044921875,-0.46875,-0.53125,-0.0625
52,52,1728007767975,-0.8720703,-0.4609375,0.068359375,-0.0625,-0.59375,0.0
53,53,1728007768015,-0.86621094,-0.4658203,0.047851562,0.3125,-0.34375,0.3125
54,54,1728007768055,-0.8623047,-0.45996094,0.041015625,0.0625,-0.65625,-0.1875
55,55,1728007768095,-0.8828125,-0.4580078,0.0546875,0.25,0.03125,-0.1875
56,56,1728007768135,-0.87890625,-0.4609375,0.049804688,0.0625,-0.71875,-0.125
57,57,1728007768175,-0.8613281,-0.46484375,0.045898438,0.25,-0.40625,0.0
58,58,1728007768215,-0.8730469,-0.45507812,0.060546875,-0.28125,-0.71875,-0.25
59,59,1728007768255,-0.8720703,-0.4658203,0.0546875,0.5,-0.34375,-0.25
60,60,1728007768295,-0.8691406,-0.45703125,0.037109375,0.375,-0.34375,-0.25
61,61,1728007768335,-0.8798828,-0.46484375,0.052734375,0.3125,-0.59375,-0.25
62,62,1728007768375,-0.8671875,-0.46679688,0.055664062,0.6875,-0.53125,-0.4375
63,63,1728007768415,-0.875,-0.45214844,0.060546875,-0.0625,-0.53125,-0.125
64,64,1728007768455,-0.8720703,-0.45898438,0.044921875,0.125,-0.34375,-0.0625
65,65,1728007768495,-0.87402344,-0.45996094,0.0703125,0.1875,-0.34375,-0.125
66,66,1728007768535,-0.875,-0.46191406,0.059570312,-0.1875,-0.40625,-0.1875
67,67,1728007768575,-0.8720703,-0.46875,0.045898438,-0.21875,-0.59375,-0.25
68,68,1728007768615,-0.8691406,-0.453125,0.051757812,0.0,-0.28125,-0.25
69,69,1728007768655,-0.87109375,-0.4609375,0.047851562,-0.34375,-0.90625,0.0
70,70,1728007768695,-0.8720703,-0.4638672,0.043945312,0.125,-0.21875,-0.0625
71,71,1728007768735,-0.875,-0.4638672,0.0546875,-0.28125,-0.40625,-0.25
72,72,1728007768775,-0.8779297,-0.45507812,0.059570312,-0.0625,-0.59375,0.0625
73,73,1728007768815,-0.8730469,-0.45996094,0.05859375,-0.0625,-0.46875,-0.0625
74,74,1728007768855,-0.8720703,-0.45703125,0.052734375,-0.0625,-0.46875,-0.625
75,75,1728007768895,-0.86621094,-0.45507812,0.051757812,0.3125,-0.15625,-0.5
76,76,1728007768935,-0.8798828,-0.4580078,0.051757812,0.375,-0.03125,-0.125
77,77,1728007768975,-0.87109375,-0.46777344,0.052734375,1.0,0.25,0.0625
78,78,1728007769015,-0.87402344,-0.4609375,0.056640625,1.125,0.5,-0.125
79,79,1728007769055,-0.875,-0.46191406,0.060546875,0.5,0.21875,-0.3125
80,80,1728007769095,-0.8730469,-0.44433594,0.072265625,0.5,-0.09375,-0.1875
81,81,1728007769135,-0.8691406,-0.4560547,0.06347656,-0.84375,-0.90625,-0.4375
82,82,1728007769175,-0.8613281,-0.45410156,0.045898438,-0.0625,-0.59375,-0.125
83,83,1728007769215,-0.8701172,-0.4658203,0.05859375,-0.59375,-0.21875,-0.375
84,84,1728007769255,-0.8769531,-0.4580078,0.068359375,0.0,0.3125,-0.0625
85,85,1728007769295,-0.87109375,-0.45996094,0.057617188,-0.34375,-0.40625,0.25
86,86,1728007769335,-0.875,-0.46875,0.06640625,-0.0625,-0.21875,0.0625
87,87,1728007769375,-0.8730469,-0.4658203,0.055664062,-0.71875,-0.59375,-0.1875
88,88,1728007769415,-0.8691406,-0.4609375,0.053710938,0.5625,0.03125,-0.1875
89,89,1728007769455,-0.8671875,-0.46191406,0.06347656,0.1875,0.15625,-0.25
90,90,1728007769495,-0.8730469,-0.4560547,0.049804688,0.09375,0.0625,-0.125
91,91,1728007769535,-0.8779297,-0.45117188,0.046875,0.0625,-0.46875,-0.125
92,92,1728007769575,-0.87109375,-0.4560547,0.055664062,-0.0625,-0.34375,-0.1875
93,93,1728007769615,-0.8779297,-0.46484375,0.05078125,-0.25,-0.71875,-0.3125
94,94,1728007769655,-0.8808594,-0.45703125,0.05859375,-0.1875,-0.59375,-0.53125
95,95,1728007769695,-0.8701172,-0.45898438,0.03125,-0.375,-0.65625,-0.53125
96,96,1728007769735,-0.87597656,-0.453125,0.05078125,-0.1875,-0.59375,-0.1875
97,97,1728007769775,-0.8798828,-0.45898438,0.055664062,-0.625,-0.65625,-0.1875
98,98,1728007769815,-0.87402344,-0.46484375,0.056640625,0.09375,-0.46875,-0.375
99,99,1728007769855,-0.875,-0.46191406,0.049804688,-0.3125,-0.59375,-0.3125
100,100,1728007769895,-0.87597656,-0.45703125,0.051757812,0.09375,-0.46875,-0.1875
101,101,1728007769935,-0.8779297,-0.45898438,0.05078125,0.28125,-0.21875,-0.3125
102,102,1728007769975,-0.87597656,-0.46484375,0.059570312,0.21875,-0.34375,-0.375
103,103,1728007770015,-0.87597656,-0.4638672,0.064453125,0.0625,-0.59375,-0.375
104,104,1728007770055,-0.8701172,-0.4609375,0.044921875,0.21875,-0.59375,-0.3125
105,105,1728007770095,-0.87597656,-0.46484375,0.05859375,0.21875,-0.21875,-0.25
106,106,1728007770135,-0.8769531,-0.46484375,0.051757812,-0.1875,-0.71875,-0.125
107,107,1728007770175,-0.875,-0.46679688,0.044921875,-0.375,-0.78125,0.0
108,108,1728007770215,-0.875,-0.46191406,0.0546875,0.0,-0.40625,-0.0625
109,109,1728007770255,-0.8652344,-0.4716797,0.041015625,-0.0625,-0.28125,-0.1875
110,110,1728007770295,-0.87597656,-0.4482422,0.0546875,-0.1875,-0.21875,-0.3125
111,111,1728007770335,-0.8779297,-0.4638672,0.041015625,-0.3125,-0.40625,0.0625
112,112,1728007770375,-0.87597656,-0.4609375,0.053710938,-0.375,-0.40625,-0.0625
113,113,1728007770415,-0.8730469,-0.4658203,0.048828125,-0.0625,-0.53125,-0.1875
114,114,1728007770455,-0.87597656,-0.45898438,0.047851562,-0.25,0.0,-0.25
115,115,1728007770495,-0.87890625,-0.453125,0.048828125,-0.25,-0.0625,0.0
116,116,1728007770535,-0.87402344,-0.453125,0.052734375,0.28125,-0.0625,0.25
117,117,1728007770575,-0.8808594,-0.46289062,0.041015625,-0.3125,-0.0625,-0.0625
118,118,1728007770615,-0.875,-0.46777344,0.06347656,0.0,-0.21875,-0.1875
119,119,1728007770655,-0.8730469,-0.45214844,0.05078125,-0.4375,-0.46875,-0.1875
120,120,1728007770695,-0.87402344,-0.45898438,0.046875,-0.0625,-0.34375,0.0
121,121,1728007770735,-0.8720703,-0.4638672,0.055664062,-0.1875,-0.15625,0.1875
122,122,1728007770775,-0.8798828,-0.46777344,0.051757812,0.0625,-0.15625,-0.0625
123,123,1728007770815,-0.8720703,-0.46679688,0.044921875,0.21875,0.125,-0.375
124,124,1728007770855,-0.875,-0.4638672,0.041992188,-0.25,-0.46875,-0.3125
125,125,1728007770895,-0.87109375,-0.4609375,0.044921875,0.40625,-0.0625,-0.0625
126,126,1728007770935,-0.8779297,-0.46972656,0.046875,-0.625,-0.65625,-0.25
127,127,1728007770975,-0.8769531,-0.453125,0.04296875,0.0,-0.15625,-0.4375
128,128,1728007771015,-0.8701172,-0.45507812,0.048828125,-0.5,-0.53125,-0.5
129,129,1728007771055,-0.8769531,-0.4560547,0.046875,0.09375,0.0,-0.0625
130,130,1728007771095,-0.8720703,-0.4638672,0.056640625,-0.4375,-0.46875,0.0625
131,131,1728007771135,-0.87597656,-0.4638672,0.045898438,-0.375,-0.40625,0.1875
132,132,1728007771175,-0.87402344,-0.46875,0.059570312,0.0,-0.09375,-0.53125
133,133,1728007771215,-0.8808594,-0.46191406,0.049804688,0.28125,-0.09375,-0.78125
134,134,1728007771255,-0.87402344,-0.46289062,0.060546875,-0.125,-0.59375,-0.3125
135,135,1728007771295,-0.8808594,-0.46289062,0.064453125,0.15625,-0.28125,-0.3125
136,136,1728007771335,-0.8701172,-0.4609375,0.0625,-0.125,-0.34375,-0.3125
137,137,1728007771375,-0.87402344,-0.46972656,0.048828125,0.0,-0.15625,-0.59375
138,138,1728007771415,-0.875,-0.47265625,0.0546875,0.0,-0.15625,-0.5
139,139,1728007771455,-0.87109375,-0.46484375,0.0390625,-0.8125,-0.59375,-0.71875
140,140,1728007771495,-0.8769531,-0.4609375,0.041992188,0.59375,0.125,-0.90625
141,141,1728007771535,-0.875,-0.45410156,0.03125,-0.3125,-0.21875,-0.65625
142,142,1728007771575,-0.8798828,-0.45507812,0.068359375,-0.4375,-0.71875,-0.1875
143,143,1728007771615,-0.87890625,-0.45996094,0.05859375,-0.5625,-0.71875,0.0625
144,144,1728007771655,-0.875,-0.4658203,0.04296875,-0.625,-0.90625,-0.375
145,145,1728007771695,-0.875,-0.46972656,0.06347656,0.15625,-0.09375,-0.5
146,146,1728007771735,-0.87402344,-0.46875,0.048828125,-0.1875,-0.53125,-0.4375
147,147,1728007771775,-0.87890625,-0.4609375,0.06738281,0.28125,-0.09375,-0.53125
148,148,1728007771815,-0.8730469,-0.46777344,0.046875,-0.0625,-0.46875,-0.375
149,149,1728007771855,-0.8769531,-0.46191406,0.052734375,0.34375,-0.21875,-0.125
150,150,1728007771895,-0.8730469,-0.46484375,0.061523438,-0.375,-0.46875,-0.25
151,151,1728007771935,-0.8652344,-0.4658203,0.05859375,0.53125,-0.15625,-0.53125
152,152,1728007771975,-0.87597656,-0.46777344,0.043945312,-0.1875,-0.46875,-0.375
153,153,1728007772015,-0.8720703,-0.4716797,0.056640625,-0.0625,-0.28125,-0.3125
154,154,1728007772055,-0.8701172,-0.4736328,0.057617188,-0.0625,-0.46875,-0.3125
155,155,1728007772095,-0.8730469,-0.46484375,0.064453125,0.28125,-0.40625,-0.59375
156,156,1728007772135,-0.8691406,-0.4638672,0.06542969,0.0625,-0.46875,-0.65625
157,157,1728007772175,-0.8652344,-0.46875,0.051757812,0.09375,-0.40625,-0.84375
158,158,1728007772215,-0.8720703,-0.4716797,0.057617188,0.21875,-0.09375,-0.78125
159,159,1728007772255,-0.87109375,-0.4658203,0.056640625,-0.25,-0.28125,-0.71875
160,160,1728007772295,-0.875,-0.46777344,0.037109375,0.28125,-0.0625,-0.3125
161,161,1728007772335,-0.8671875,-0.45996094,0.04296875,-0.375,-0.40625,-0.125
162,162,1728007772375,-0.8808594,-0.45898438,0.053710938,-0.3125,-0.34375,-0.3125
163,163,1728007772415,-0.8720703,-0.46289062,0.044921875,-1.0625,-0.34375,-0.78125
164,164,1728007772455,-0.87402344,-0.46875,0.060546875,-0.25,-0.59375,-0.78125
165,165,1728007772495,-0.86621094,-0.46191406,0.0546875,-0.375,-0.40625,-0.25
166,166,1728007772535,-0.8652344,-0.4638672,0.056640625,-0.375,-0.59375,-0.25
167,167,1728007772575,-0.86328125,-0.46191406,0.059570312,0.28125,0.125,-0.1875
168,168,1728007772615,-0.8720703,-0.47558594,0.049804688,0.09375,0.25,-0.1875
169,169,1728007772655,-0.8720703,-0.46777344,0.055664062,0.84375,0.75,-0.3125
170,170,1728007772695,-0.86621094,-0.47753906,0.052734375,-0.1875,0.0,0.0
171,171,1728007772735,-0.87109375,-0.4716797,0.048828125,-0.625,-0.34375,0.0
172,172,1728007772775,-0.8701172,-0.47558594,0.056640625,-1.46875,-0.96875,0.125
173,173,1728007772815,-0.8623047,-0.47265625,0.043945312,-0.4375,-0.34375,-0.375
174,174,1728007772855,-0.85839844,-0.4765625,0.052734375,-0.4375,-0.15625,-0.375
175,175,1728007772895,-0.8671875,-0.4716797,0.047851562,0.65625,0.3125,-0.125
176,176,1728007772935,-0.8691406,-0.47265625,0.0546875,0.0625,0.1875,0.375
177,177,1728007772975,-0.875,-0.46289062,0.032226562,0.65625,0.4375,0.625
178,178,1728007773015,-0.87402344,-0.46972656,0.052734375,-0.75,-0.09375,0.5
179,179,1728007773055,-0.875,-0.4814453,0.053710938,-0.0625,0.0,0.125
180,180,1728007773095,-0.8720703,-0.4638672,0.041992188,0.0,-0.0625,0.25
181,181,1728007773135,-0.8652344,-0.47070312,0.0625,-0.5,-0.21875,0.125
182,182,1728007773175,-0.8671875,-0.46777344,0.048828125,-0.125,0.0,0.5
183,183,1728007773215,-0.8808594,-0.4658203,0.052734375,-0.25,-0.0625,0.3125
184,184,1728007773255,-0.8613281,-0.46972656,0.052734375,-0.0625,0.0625,0.375
185,185,1728007773295,-0.8691406,-0.46972656,0.0625,0.0,0.0625,0.125
186,186,1728007773335,-0.8691406,-0.45996094,0.049804688,-0.25,-0.09375,0.1875
187,187,1728007773375,-0.87402344,-0.453125,0.0546875,0.28125,0.0625,0.375
188,188,1728007773415,-0.875,-0.46875,0.041015625,-0.25,-0.09375,0.5
189,189,1728007773455,-0.875,-0.46289062,0.041015625,0.0,0.0625,0.375
190,190,1728007773495,-0.875,-0.4580078,0.049804688,0.0625,-0.28125,0.3125
191,191,1728007773535,-0.8769531,-0.45703125,0.041015625,-1.0625,-0.84375,0.125
192,192,1728007773575,-0.87402344,-0.4658203,0.05859375,-0.0625,0.0625,0.375
193,193,1728007773615,-0.87890625,-0.4736328,0.0390625,-1.125,-0.34375,0.6875
194,194,1728007773655,-0.8779297,-0.4716797,0.060546875,0.0,0.0,0.8125
195,195,1728007773695,-0.8642578,-0.4638672,0.04296875,-0.1875,-0.0625,0.5625
196,196,1728007773735,-0.875,-0.4560547,0.051757812,0.0,0.625,0.25
197,197,1728007773775,-0.87597656,-0.46191406,0.044921875,0.0,0.25,0.5
198,198,1728007773815,-0.8857422,-0.46191406,0.053710938,0.34375,0.0625,0.5625
199,199,1728007773855,-0.875,-0.453125,0.041015625,-0.0625,-0.15625,0.1875
200,200,1728007773895,-0.8720703,-0.45214844,0.052734375,0.46875,0.1875,0.1875
201,201,1728007773935,-0.87890625,-0.4609375,0.046875,0.09375,0.1875,0.5
202,202,1728007773975,-0.8857422,-0.4580078,0.0390625,-0.4375,-0.34375,0.1875
203,203,1728007774015,-0.8691406,-0.45703125,0.041992188,-0.6875,-0.71875,0.0625
204,204,1728007774055,-0.87890625,-0.46777344,0.05859375,-0.5,-0.53125,-0.1875
205,205,1728007774095,-0.8730469,-0.45214844,0.05078125,-0.5625,-0.53125,-0.125
206,206,1728007774135,-0.87402344,-0.453125,0.037109375,-0.4375,-0.40625,0.125
207,207,1728007774175,-0.87402344,-0.46875,0.046875,-0.0625,-0.34375,-0.125
208,208,1728007774215,-0.8730469,-0.4638672,0.038085938,0.0625,-0.21875,-0.125
209,209,1728007774255,-0.87890625,-0.45898438,0.04296875,0.28125,0.0625,-0.3125
210,210,1728007774295,-0.8720703,-0.45703125,0.05859375,-0.375,-0.40625,0.1875
211,211,1728007774335,-0.87109375,-0.45410156,0.0390625,0.34375,-0.09375,-0.125
212,212,1728007774375,-0.87109375,-0.4658203,0.044921875,-0.125,-0.0625,-0.65625
213,213,1728007774415,-0.8730469,-0.45898438,0.033203125,0.0,-0.15625,-0.53125
214,214,1728007774455,-0.8720703,-0.46289062,0.059570312,0.0625,-0.34375,-0.5
215,215,1728007774495,-0.8701172,-0.4638672,0.043945312,0.0,-0.46875,-0.4375
216,216,1728007774535,-0.8720703,-0.46191406,0.041992188,0.34375,-0.21875,-0.5
217,217,1728007774575,-0.88183594,-0.47070312,0.047851562,-0.0625,-0.34375,-0.78125
218,218,1728007774615,-0.88183594,-0.45703125,0.053710938,0.0625,-0.90625,-0.65625
219,219,1728007774655,-0.8779297,-0.45996094,0.051757812,-0.0625,-1.09375,-0.4375
220,220,1728007774695,-0.8730469,-0.4638672,0.0546875,-0.125,-1.03125,-0.65625
221,221,1728007774735,-0.87402344,-0.45996094,0.052734375,-1.0625,-1.28125,-0.84375
222,222,1728007774775,-0.8642578,-0.4638672,0.064453125,-0.5625,-1.09375,-0.84375
223,223,1728007774815,-0.8652344,-0.46679688,0.046875,-0.3125,-0.84375,-0.65625
224,224,1728007774855,-0.8769531,-0.4638672,0.0390625,-0.0625,-0.78125,-0.53125
225,225,1728007774895,-0.8701172,-0.46777344,0.053710938,-0.125,-0.59375,-0.5
226,226,1728007774935,-0.87402344,-0.46484375,0.0546875,-0.0625,-0.78125,-0.5
227,227,1728007774975,-0.86816406,-0.46777344,0.053710938,0.71875,-0.09375,-0.53125
228,228,1728007775015,-0.87109375,-0.46484375,0.040039062,-0.0625,-0.53125,-0.78125
229,229,1728007775055,-0.87597656,-0.46777344,0.033203125,0.09375,-0.40625,-0.4375
230,230,1728007775095,-0.87402344,-0.46972656,0.049804688,-0.0625,-0.90625,-0.4375
231,231,1728007775135,-0.8671875,-0.46875,0.05859375,0.0625,-0.21875,-0.375
232,232,1728007775175,-0.8720703,-0.46484375,0.052734375,-0.0625,-0.40625,-0.375
233,233,1728007775215,-0.8779297,-0.45996094,0.051757812,0.28125,-0.15625,-0.53125
234,234,1728007775255,-0.87597656,-0.4609375,0.064453125,-0.1875,-0.71875,-0.4375
235,235,1728007775295,-0.8779297,-0.46777344,0.046875,0.0,-0.78125,-0.3125
236,236,1728007775335,-0.8720703,-0.4658203,0.053710938,-0.25,-1.21875,-0.53125
237,237,1728007775375,-0.8623047,-0.46972656,0.043945312,-0.0625,-1.03125,-0.53125
238,238,1728007775415,-0.8701172,-0.47460938,0.060546875,0.0625,-0.40625,-0.5
239,239,1728007775455,-0.8642578,-0.46679688,0.061523438,-0.0625,-0.53125,-0.4375
240,240,1728007775495,-0.8808594,-0.4658203,0.057617188,0.0,-0.21875,-0.1875
241,241,1728007775535,-0.87109375,-0.4638672,0.056640625,0.0625,-0.15625,-0.3125
242,242,1728007775575,-0.8671875,-0.45898438,0.056640625,-0.0625,-0.71875,-0.125
243,243,1728007775615,-0.8701172,-0.46972656,0.053710938,-0.0625,-0.40625,-0.4375
244,244,1728007775655,-0.86816406,-0.46484375,0.059570312,0.15625,-0.46875,-0.25
245,245,1728007775695,-0.8730469,-0.4638672,0.056640625,-0.375,-0.40625,-0.1875
246,246,1728007775735,-0.8720703,-0.4580078,0.053710938,0.34375,-0.21875,-0.1875
247,247,1728007775775,-0.87402344,-0.46289062,0.0546875,-0.8125,-0.84375,-0.0625
248,248,1728007775815,-0.87109375,-0.46777344,0.055664062,0.40625,-0.0625,-0.1875
249,249,1728007775855,-0.8652344,-0.46679688,0.057617188,0.0,-0.15625,-0.0625
250,250,1728007775895,-0.875,-0.4716797,0.060546875,-0.1875,-0.34375,-0.1875
251,251,1728007775935,-0.8769531,-0.46679688,0.07128906,-0.25,-0.65625,-0.1875
252,252,1728007775975,-0.87402344,-0.45996094,0.052734375,0.28125,-0.46875,-0.25
253,253,1728007776015,-0.8720703,-0.47265625,0.05859375,-0.125,-0.21875,-0.375
254,254,1728007776055,-0.86816406,-0.46191406,0.052734375,-0.0625,-0.53125,-0.25
255,255,1728007776095,-0.87402344,-0.46777344,0.053710938,-0.3125,-0.34375,-0.3125
256,256,1728007776135,-0.86621094,-0.4716797,0.051757812,0.0625,-0.53125,-0.125
257,257,1728007776175,-0.86816406,-0.4716797,0.05078125,-0.25,-0.40625,-0.1875
258,258,1728007776215,-0.87109375,-0.46191406,0.055664062,-0.125,-0.21875,-0.1875
259,259,1728007776255,-0.8720703,-0.46972656,0.060546875,-0.1875,-0.40625,-0.3125
260,260,1728007776295,-0.875,-0.4658203,0.05078125,0.0625,-0.53125,-0.4375
261,261,1728007776335,-0.86621094,-0.47460938,0.0546875,0.09375,-0.40625,-0.3125
262,262,1728007776375,-0.8730469,-0.46289062,0.046875,0.15625,-0.46875,-0.5
263,263,1728007776415,-0.8730469,-0.45898438,0.06542969,0.65625,-0.0625,-0.25
264,264,1728007776455,-0.8798828,-0.46875,0.061523438,0.09375,-0.34375,-0.3125
265,265,1728007776495,-0.8720703,-0.4658203,0.05859375,0.21875,-0.21875,-0.25
266,266,1728007776535,-0.87890625,-0.46777344,0.060546875,-0.375,-0.90625,-0.5
267,267,1728007776575,-0.86621094,-0.4609375,0.06933594,-0.0625,-0.71875,-0.5
268,268,1728007776615,-0.8691406,-0.4658203,0.076171875,-0.4375,-1.15625,-0.5
269,269,1728007776655,-0.8652344,-0.4736328,0.048828125,-0.0625,-0.78125,-0.5
270,270,1728007776695,-0.87402344,-0.4716797,0.051757812,-0.0625,-0.65625,-0.65625
271,271,1728007776735,-0.8642578,-0.47070312,0.041992188,-0.0625,-0.90625,-0.59375
272,272,1728007776775,-0.8808594,-0.46679688,0.05078125,-0.125,-0.96875,-0.375
273,273,1728007776815,-0.859375,-0.46484375,0.046875,0.0625,-0.46875,-0.375
274,274,1728007776855,-0.87109375,-0.46972656,0.046875,-0.0625,-0.71875,-0.5
275,275,1728007776895,-0.86816406,-0.4736328,0.06933594,0.09375,-0.21875,-0.53125
276,276,1728007776935,-0.86621094,-0.46777344,0.053710938,0.28125,-0.46875,-0.375
277,277,1728007776975,-0.8623047,-0.46777344,0.0625,0.09375,-0.90625,-0.3125
278,278,1728007777015,-0.8701172,-0.47265625,0.051757812,0.15625,-0.65625,-0.4375
279,279,1728007777055,-0.875,-0.45898438,0.046875,-0.1875,-0.90625,-0.59375
280,280,1728007777095,-0.8671875,-0.4716797,0.055664062,0.28125,-0.53125,-0.65625
281,281,1728007777135,-0.8730469,-0.46972656,0.051757812,0.40625,-0.59375,-0.5
282,282,1728007777175,-0.8623047,-0.46972656,0.05859375,0.40625,-0.71875,-0.59375
283,283,1728007777215,-0.86035156,-0.46777344,0.052734375,0.21875,-0.53125,-0.59375
284,284,1728007777255,-0.8642578,-0.4765625,0.055664062,0.3125,0.0625,-0.09375
285,285,1728007777295,-0.86621094,-0.4658203,0.060546875,0.53125,0.5,-0.03125
286,286,1728007777335,-0.86816406,-0.46191406,0.06347656,0.125,0.25,0.03125
287,287,1728007777375,-0.86621094,-0.47460938,0.064453125,-0.0625,0.25,0.03125
288,288,1728007777415,-0.86035156,-0.48046875,0.06347656,-0.25,0.0,0.21875
289,289,1728007777455,-0.87402344,-0.47265625,0.059570312,-0.375,-0.0625,0.34375
290,290,1728007777495,-0.87402344,-0.4765625,0.06542969,-0.125,-0.0625,0.15625
291,291,1728007777535,-0.87597656,-0.47753906,0.051757812,-0.96875,-0.15625,-0.40625
292,292,1728007777575,-0.87109375,-0.47851562,0.061523438,-0.1875,-0.15625,-0.21875
293,293,1728007777615,-0.86621094,-0.4658203,0.0625,-0.375,-0.59375,-0.21875
294,294,1728007777655,-0.8671875,-0.47265625,0.0625,-0.125,-0.15625,-0.09375
295,295,1728007777695,-0.8564453,-0.46777344,0.060546875,-0.125,0.125,0.03125
296,296,1728007777735,-0.8720703,-0.46191406,0.060546875,-0.25,-0.15625,-0.03125
297,297,1728007777775,-0.87402344,-0.46875,0.059570312,0.0625,0.125,0.15625
298,298,1728007777815,-0.8623047,-0.4814453,0.06933594,-0.5625,-0.28125,0.28125
299,299,1728007777855,-0.85839844,-0.46777344,0.060546875,0.0,0.1875,-0.03125
300,300,1728007777895,-0.8701172,-0.47753906,0.06347656,-0.125,0.0,-0.09375
301,301,1728007777935,-0.87109375,-0.46972656,0.07714844,0.0,0.125,-0.21875
302,302,1728007777975,-0.86621094,-0.46875,0.0546875,-0.5,-0.0625,0.03125
303,303,1728007778015,-0.8730469,-0.46679688,0.05859375,-0.125,0.0625,0.15625
304,304,1728007778055,-0.86816406,-0.46972656,0.05859375,-0.25,0.0,0.15625
305,305,1728007778095,-0.86816406,-0.46875,0.06640625,-0.125,0.0,-0.09375
306,306,1728007778135,-0.8671875,-0.47851562,0.0703125,0.0,0.1875,-0.03125
307,307,1728007778175,-0.87402344,-0.47265625,0.06640625,-0.25,-0.09375,0.03125
308,308,1728007778215,-0.8652344,-0.46777344,0.064453125,0.25,0.0,-0.09375
309,309,1728007778255,-0.8652344,-0.47851562,0.064453125,-0.125,-0.15625,-0.34375
310,310,1728007778295,-0.8671875,-0.46972656,0.059570312,0.59375,0.4375,-0.21875
311,311,1728007778335,-0.87109375,-0.4716797,0.06347656,-0.0625,0.125,-0.03125
312,312,1728007778375,-0.8730469,-0.4814453,0.055664062,0.3125,0.25,-0.15625
313,313,1728007778415,-0.8652344,-0.46972656,0.0625,-0.125,-0.0625,-0.03125
314,314,1728007778455,-0.8730469,-0.46972656,0.06933594,-0.1875,-0.09375,-0.15625
315,315,1728007778495,-0.8642578,-0.47753906,0.0625,-0.1875,-0.0625,-0.15625
316,316,1728007778535,-0.8671875,-0.484375,0.06542969,-0.5,0.0,-0.28125
317,317,1728007778575,-0.8652344,-0.4794922,0.0546875,-0.25,-0.0625,0.15625
318,318,1728007778615,-0.8730469,-0.46875,0.049804688,-0.125,0.125,0.09375
319,319,1728007778655,-0.87402344,-0.46289062,0.048828125,-0.4375,0.625,0.34375
320,320,1728007778695,-0.8720703,-0.46777344,0.059570312,0.125,0.625,0.46875
321,321,1728007778735,-0.86816406,-0.46875,0.056640625,-0.25,0.0625,0.15625
322,322,1728007778775,-0.87109375,-0.47070312,0.046875,0.0,0.4375,0.03125
323,323,1728007778815,-0.8730469,-0.47265625,0.044921875,-0.125,0.0,-0.09375
324,324,1728007778855,-0.86621094,-0.46875,0.056640625,-0.125,-0.0625,-0.09375
325,325,1728007778895,-0.8691406,-0.4609375,0.068359375,0.3125,0.5,0.09375
326,326,1728007778935,-0.8720703,-0.46777344,0.059570312,0.0625,0.5,0.03125
327,327,1728007778975,-0.88183594,-0.4736328,0.052734375,0.125,0.4375,-0.03125
328,328,1728007779015,-0.8720703,-0.4736328,0.05078125,-0.3125,0.0,0.21875
329,329,1728007779055,-0.87402344,-0.45898438,0.0546875,0.0625,0.125,0.21875
330,330,1728007779095,-0.8720703,-0.46972656,0.041992188,-0.625,0.125,0.21875
331,331,1728007779135,-0.87890625,-0.46679688,0.061523438,-0.3125,-0.28125,-0.09375
332,332,1728007779175,-0.8642578,-0.47558594,0.0703125,-0.25,-0.09375,0.03125
333,333,1728007779215,-0.86816406,-0.46875,0.048828125,-0.375,-0.15625,0.09375
334,334,1728007779255,-0.86816406,-0.4736328,0.049804688,0.125,0.4375,0.34375
335,335,1728007779295,-0.87109375,-0.46972656,0.059570312,-0.1875,0.125,0.09375
336,336,1728007779335,-0.8701172,-0.4638672,0.048828125,0.46875,0.4375,-0.15625
337,337,1728007779375,-0.8779297,-0.46875,0.07128906,-0.1875,-0.0625,-0.21875
338,338,1728007779415,-0.8671875,-0.4716797,0.047851562,-0.25,-0.0625,0.15625
339,339,1728007779455,-0.875,-0.46679688,0.055664062,-0.0625,0.125,0.03125
340,340,1728007779495,-0.8691406,-0.4814453,0.048828125,0.3125,0.3125,-0.15625
341,341,1728007779535,-0.86621094,-0.4716797,0.07910156,-0.25,-0.09375,-0.15625
342,342,1728007779575,-0.8701172,-0.46289062,0.052734375,-0.125,-0.21875,-0.03125
343,343,1728007779615,-0.87402344,-0.47460938,0.038085938,-0.5,-0.28125,0.09375
344,344,1728007779655,-0.8720703,-0.4716797,0.052734375,-0.5,-0.0625,-0.03125
345,345,1728007779695,-0.87402344,-0.46679688,0.05078125,-0.125,0.0,-0.09375
346,346,1728007779735,-0.8652344,-0.47070312,0.064453125,-0.1875,0.0625,0.03125
347,347,1728007779775,-0.8623047,-0.47265625,0.053710938,-0.0625,0.0625,0.21875
348,348,1728007779815,-0.8652344,-0.4716797,0.048828125,-0.125,0.25,0.03125
349,349,1728007779855,-0.8769531,-0.4716797,0.048828125,-0.0625,0.125,-0.21875
350,350,1728007779895,-0.8613281,-0.4658203,0.06347656,-0.125,0.0,-0.09375
351,351,1728007779935,-0.8769531,-0.46679688,0.059570312,-0.0625,0.0625,-0.09375
352,352,1728007779975,-0.8613281,-0.4794922,0.053710938,-0.125,0.1875,-0.03125
353,353,1728007780015,-0.8701172,-0.46972656,0.056640625,0.3125,0.1875,0.09375
354,354,1728007780055,-0.87597656,-0.46875,0.06933594,-0.0625,0.375,0.03125
355,355,1728007780095,-0.8720703,-0.46679688,0.053710938,-0.375,0.0,-0.03125
356,356,1728007780135,-0.8642578,-0.4765625,0.072265625,0.0625,0.125,0.03125
357,357,1728007780175,-0.8691406,-0.47265625,0.051757812,-0.25,-0.0625,-0.15625
358,358,1728007780215,-0.87109375,-0.46972656,0.07128906,0.0,0.0625,-0.28125
359,359,1728007780255,-0.8720703,-0.4716797,0.06542969,-0.0625,0.3125,-0.09375
360,360,1728007780295,-0.86621094,-0.46972656,0.041015625,-0.3125,0.125,0.09375
361,361,1728007780335,-0.86621094,-0.46289062,0.053710938,0.125,0.3125,0.15625
362,362,1728007780375,-0.8701172,-0.48535156,0.061523438,-0.0625,0.375,-0.09375
363,363,1728007780415,-0.87597656,-0.47558594,0.056640625,0.0,0.125,-0.34375
364,364,1728007780455,-0.8671875,-0.4638672,0.064453125,-0.375,0.0,-0.21875
365,365,1728007780495,-0.8623047,-0.48535156,0.072265625,0.25,0.1875,-0.21875
366,366,1728007780535,-0.86328125,-0.47265625,0.06542969,0.25,0.3125,-0.40625
367,367,1728007780575,-0.875,-0.46875,0.05078125,0.84375,0.25,-0.40625
368,368,1728007780615,-0.8652344,-0.46777344,0.046875,0.125,0.25,-0.5625
369,369,1728007780655,-0.8720703,-0.47265625,0.049804688,0.375,0.1875,-0.40625
370,370,1728007780695,-0.86328125,-0.47265625,0.056640625,0.375,0.0625,-0.34375
371,371,1728007780735,-0.8613281,-0.47753906,0.060546875,0.3125,0.5,-0.28125
372,372,1728007780775,-0.86816406,-0.46875,0.05078125,0.53125,0.4375,-0.15625
373,373,1728007780815,-0.87109375,-0.46777344,0.05859375,-0.4375,0.0625,-0.09375
374,374,1728007780855,-0.8720703,-0.47753906,0.060546875,-1.03125,-0.65625,0.21875
375,375,1728007780895,-0.8564453,-0.48046875,0.064453125,-1.28125,-0.90625,0.03125
376,376,1728007780935,-0.8652344,-0.4794922,0.0625,-0.84375,-0.40625,-0.09375
377,377,1728007780975,-0.8613281,-0.47558594,0.057617188,0.0625,-0.0625,-0.5
378,378,1728007781015,-0.8623047,-0.48339844,0.047851562,0.125,0.0625,-0.21875
379,379,1728007781055,-0.8623047,-0.46875,0.05859375,0.65625,0.5,-0.09375
380,380,1728007781095,-0.8613281,-0.4716797,0.059570312,0.46875,0.3125,0.15625
381,381,1728007781135,-0.8613281,-0.48046875,0.0390625,-0.125,0.3125,0.03125
382,382,1728007781175,-0.8671875,-0.47753906,0.0703125,-0.625,-0.40625,0.09375
383,383,1728007781215,-0.8798828,-0.47753906,0.061523438,-0.5,-0.53125,-0.09375
384,384,1728007781255,-0.8652344,-0.4794922,0.049804688,-1.46875,-0.90625,0.03125
385,385,1728007781295,-0.8652344,-0.47851562,0.07128906,-1.21875,-0.65625,0.03125
386,386,1728007781335,-0.8671875,-0.48242188,0.068359375,-1.28125,-0.78125,0.03125
387,387,1728007781375,-0.85839844,-0.49902344,0.072265625,-0.5625,-0.21875,0.09375
388,388,1728007781415,-0.8652344,-0.47265625,0.041992188,-0.0625,0.0625,0.28125
389,389,1728007781455,-0.86621094,-0.48339844,0.05859375,0.4375,0.4375,0.28125
390,390,1728007781495,-0.8642578,-0.48535156,0.057617188,0.46875,0.375,0.09375
391,391,1728007781535,-0.86621094,-0.46289062,0.053710938,0.125,0.1875,0.21875
392,392,1728007781575,-0.86621094,-0.4794922,0.057617188,0.0625,0.125,0.03125
393,393,1728007781615,-0.8623047,-0.4794922,0.061523438,0.0,0.1875,-0.03125
394,394,1728007781655,-0.86621094,-0.4736328,0.055664062,0.0625,0.25,0.21875
395,395,1728007781695,-0.8691406,-0.48046875,0.05859375,-0.0625,0.375,0.21875
396,396,1728007781735,-0.8671875,-0.48535156,0.064453125,-0.375,-0.0625,0.21875
397,397,1728007781775,-0.85839844,-0.4814453,0.061523438,-0.4375,-0.28125,0.34375
398,398,1728007781815,-0.859375,-0.48535156,0.048828125,-0.1875,0.0625,0.03125
399,399,1728007781855,-0.8613281,-0.4794922,0.060546875,-0.125,0.25,-0.03125
400,400,1728007781895,-0.86621094,-0.4794922,0.07128906,0.46875,0.75,-0.09375
401,401,1728007781935,-0.8642578,-0.47753906,0.0703125,0.53125,0.625,0.15625
402,402,1728007781975,-0.8701172,-0.47265625,0.06640625,1.03125,0.625,0.46875
403,403,1728007782015,-0.8642578,-0.47558594,0.052734375,0.4375,0.375,0.34375
404,404,1728007782055,-0.8730469,-0.47070312,0.0546875,0.25,0.25,0.09375
405,405,1728007782095,-0.86816406,-0.4658203,0.049804688,0.1875,0.25,0.21875
406,406,1728007782135,-0.8613281,-0.4765625,0.0546875,-0.3125,-0.15625,0.34375
407,407,1728007782175,-0.86621094,-0.47265625,0.07519531,-0.625,-0.21875,0.09375
408,408,1728007782215,-0.86035156,-0.48535156,0.068359375,-0.4375,-0.0625,0.40625
409,409,1728007782255,-0.8642578,-0.4814453,0.072265625,-0.5625,0.0625,0.28125
410,410,1728007782295,-0.85839844,-0.48339844,0.06738281,-0.4375,0.0625,0.46875
411,411,1728007782335,-0.87109375,-0.4814453,0.06542969,-0.1875,0.25,0.28125
412,412,1728007782375,-0.8564453,-0.4765625,0.06738281,0.0625,0.4375,0.03125
413,413,1728007782415,-0.8623047,-0.484375,0.06542969,-0.1875,0.125,0.15625
414,414,1728007782455,-0.86621094,-0.4794922,0.07128906,-0.125,0.3125,0.15625
415,415,1728007782495,-0.8691406,-0.4716797,0.0625,-0.125,0.1875,0.09375
416,416,1728007782535,-0.8623047,-0.48046875,0.07128906,-0.25,0.0625,0.09375
417,417,1728007782575,-0.86621094,-0.47558594,0.0703125,0.0625,0.5,-0.09375
418,418,1728007782615,-0.8720703,-0.47558594,0.053710938,-0.375,0.0625,-0.21875
419,419,1728007782655,-0.87109375,-0.46972656,0.06933594,0.0,0.0625,-0.09375
420,420,1728007782695,-0.87109375,-0.47558594,0.06347656,0.53125,0.625,-0.21875
421,421,1728007782735,-0.8623047,-0.48339844,0.060546875,0.125,0.3125,0.03125
422,422,1728007782775,-0.87402344,-0.47558594,0.055664062,0.1875,0.5625,-0.03125
423,423,1728007782815,-0.86621094,-0.47265625,0.064453125,0.0625,0.0625,0.09375
424,424,1728007782855,-0.8691406,-0.4794922,0.072265625,-0.3125,-0.0625,-0.28125
425,425,1728007782895,-0.8642578,-0.4814453,0.045898438,-0.625,-0.21875,-0.21875
426,426,1728007782935,-0.86621094,-0.4794922,0.059570312,-0.4375,-0.0625,-0.09375
427,427,1728007782975,-0.8671875,-0.4736328,0.0546875,-0.3125,-0.21875,-0.09375
428,428,1728007783015,-0.86816406,-0.47753906,0.051757812,0.0625,0.3125,-0.15625
429,429,1728007783055,-0.86035156,-0.4736328,0.07519531,-0.0625,0.125,0.03125
430,430,1728007783095,-0.8613281,-0.48339844,0.068359375,-0.0625,0.125,-0.15625
431,431,1728007783135,-0.859375,-0.48828125,0.078125,-0.125,0.125,-0.28125
432,432,1728007783175,-0.8691406,-0.484375,0.0703125,-0.125,-0.15625,-0.21875
433,433,1728007783215,-0.86621094,-0.48339844,0.06347656,-0.0625,-0.15625,-0.40625
434,434,1728007783255,-0.8671875,-0.48046875,0.06542969,-0.125,-0.46875,-0.46875
435,435,1728007783295,-0.87402344,-0.48535156,0.038085938,0.3125,-0.0625,-0.15625
436,436,1728007783335,-0.85546875,-0.484375,0.06933594,-0.3125,-0.34375,0.03125
437,437,1728007783375,-0.86816406,-0.47558594,0.06347656,-0.125,0.0,0.34375
438,438,1728007783415,-0.8720703,-0.484375,0.07910156,0.125,0.1875,0.65625
439,439,1728007783455,-0.87402344,-0.47460938,0.055664062,0.0,0.375,0.34375
440,440,1728007783495,-0.8691406,-0.47851562,0.051757812,-0.25,-0.0625,0.34375
441,441,1728007783535,-0.86621094,-0.48339844,0.05859375,-0.25,0.0,0.28125
442,442,1728007783575,-0.8535156,-0.48339844,0.059570312,-0.6875,-0.21875,0.46875
443,443,1728007783615,-0.8623047,-0.47558594,0.055664062,-0.375,0.125,0.46875
444,444,1728007783655,-0.86816406,-0.48632812,0.07324219,-0.0625,0.3125,0.40625
445,445,1728007783695,-0.8720703,-0.4765625,0.0625,-0.3125,0.0,0.46875
446,446,1728007783735,-0.8564453,-0.48828125,0.06933594,-0.0625,0.0625,0.53125
447,447,1728007783775,-0.8564453,-0.47851562,0.06542969,-0.0625,0.25,0.46875
448,448,1728007783815,-0.86621094,-0.48242188,0.07324219,-0.125,0.25,0.21875
449,449,1728007783855,-0.8574219,-0.47753906,0.057617188,0.46875,0.5,0.46875
450,450,1728007783895,-0.8652344,-0.47460938,0.061523438,-0.0625,0.375,0.34375
451,451,1728007783935,-0.8671875,-0.4794922,0.07421875,-0.4375,0.1875,0.53125
452,452,1728007783975,-0.8720703,-0.4716797,0.06542969,-0.375,0.125,0.53125
453,453,1728007784015,-0.8671875,-0.4794922,0.057617188,-0.90625,-0.15625,0.53125
454,454,1728007784055,-0.859375,-0.47851562,0.06933594,-0.4375,0.25,0.59375
455,455,1728007784095,-0.87402344,-0.48535156,0.07128906,-0.0625,0.625,0.65625
456,456,1728007784135,-0.8652344,-0.4794922,0.08300781,-0.3125,0.5,0.65625
457,457,1728007784175,-0.8623047,-0.46679688,0.05859375,0.0625,0.6875,0.78125
458,458,1728007784215,-0.86816406,-0.4794922,0.06542969,0.1875,0.9375,0.8125
459,459,1728007784255,-0.8691406,-0.46875,0.064453125,0.0625,0.75,0.59375
460,460,1728007784295,-0.875,-0.46972656,0.06933594,-0.0625,0.5625,0.59375
461,461,1728007784335,-0.8652344,-0.47460938,0.0625,-0.25,0.0,0.59375
462,462,1728007784375,-0.85839844,-0.47753906,0.061523438,-0.0625,0.3125,0.15625
463,463,1728007784415,-0.87109375,-0.4765625,0.06347656,-0.375,0.0625,0.09375
464,464,1728007784455,-0.8720703,-0.48535156,0.06933594,-0.25,0.1875,0.15625
465,465,1728007784495,-0.8652344,-0.48339844,0.07519531,-0.0625,0.4375,0.34375
466,466,1728007784535,-0.8613281,-0.47851562,0.05859375,-0.90625,0.125,0.28125
467,467,1728007784575,-0.87109375,-0.48339844,0.064453125,-0.5,0.0,0.53125
468,468,1728007784615,-0.8671875,-0.4794922,0.061523438,-0.625,0.0,0.46875
469,469,1728007784655,-0.86621094,-0.4814453,0.07421875,0.1875,0.625,0.21875
470,470,1728007784695,-0.8671875,-0.47265625,0.048828125,-0.4375,0.4375,0.03125
471,471,1728007784735,-0.8642578,-0.47265625,0.072265625,0.25,1.0625,0.28125
472,472,1728007784775,-0.8671875,-0.47070312,0.064453125,-0.5,0.5,1.0625
473,473,1728007784815,-0.8642578,-0.48242188,0.06933594,0.46875,1.46875,0.9375
474,474,1728007784855,-0.8691406,-0.46777344,0.068359375,0.375,1.28125,0.46875
475,475,1728007784895,-0.8652344,-0.4736328,0.076171875,0.65625,0.875,0.34375
476,476,1728007784935,-0.86816406,-0.4765625,0.07324219,-0.8125,0.0625,0.15625
477,477,1728007784975,-0.8623047,-0.4716797,0.053710938,0.1875,0.5625,0.09375
478,478,1728007785015,-0.8613281,-0.46875,0.06640625,0.1875,0.6875,0.15625
479,479,1728007785055,-0.8671875,-0.47558594,0.060546875,0.375,0.9375,0.21875
480,480,1728007785095,-0.87109375,-0.4736328,0.068359375,0.25,0.8125,0.46875
481,481,1728007785135,-0.8652344,-0.47558594,0.06640625,-0.1875,0.5,0.40625
482,482,1728007785175,-0.8613281,-0.48242188,0.061523438,0.25,0.8125,0.03125
483,483,1728007785215,-0.8701172,-0.47753906,0.059570312,-0.4375,0.125,-0.28125
484,484,1728007785255,-0.86621094,-0.48046875,0.059570312,-0.375,0.125,-0.03125
485,485,1728007785295,-0.8642578,-0.47558594,0.064453125,-0.1875,0.5,0.21875
486,486,1728007785335,-0.86621094,-0.4892578,0.052734375,-0.625,0.1875,0.34375
487,487,1728007785375,-0.8671875,-0.46972656,0.06640625,0.25,0.75,0.34375
488,488,1728007785415,-0.8691406,-0.47265625,0.0625,-0.25,0.375,0.59375
489,489,1728007785455,-0.8652344,-0.4765625,0.046875,0.3125,0.9375,0.28125
490,490,1728007785495,-0.8730469,-0.46875,0.05078125,-0.25,0.1875,0.09375
491,491,1728007785535,-0.8720703,-0.47265625,0.057617188,-0.0625,0.0625,0.34375
492,492,1728007785575,-0.8701172,-0.47851562,0.05859375,-0.0625,0.125,0.40625
493,493,1728007785615,-0.86621094,-0.47851562,0.06738281,0.0625,0.4375,0.46875
494,494,1728007785655,-0.859375,-0.46777344,0.055664062,-0.125,0.5625,0.15625
495,495,1728007785695,-0.86621094,-0.46875,0.0546875,-0.4375,0.25,0.09375
496,496,1728007785735,-0.8691406,-0.47460938,0.04296875,-0.125,0.0625,0.46875
497,497,1728007785775,-0.8671875,-0.4765625,0.055664062,-0.0625,0.125,0.28125
498,498,1728007785815,-0.87109375,-0.47070312,0.048828125,-0.0625,0.375,0.15625
499,499,1728007785855,-0.87402344,-0.4716797,0.055664062,-0.375,-0.09375,0.21875
500,500,1728007785895,-0.8691406,-0.46289062,0.046875,-0.5625,-0.28125,0.15625
501,501,1728007785935,-0.8642578,-0.46679688,0.05078125,-0.375,-0.21875,0.15625
502,502,1728007785975,-0.8642578,-0.4658203,0.057617188,-0.375,0.0625,-0.03125
503,503,1728007786015,-0.8642578,-0.46777344,0.072265625,-0.1875,-0.15625,0.34375
504,504,1728007786055,-0.86816406,-0.4765625,0.07128906,0.3125,0.125,0.28125
505,505,1728007786095,-0.8671875,-0.47558594,0.049804688,0.1875,0.0625,0.03125
506,506,1728007786135,-0.8671875,-0.46875,0.055664062,0.71875,0.1875,-0.03125
507,507,1728007786175,-0.85839844,-0.46289062,0.06347656,0.125,-0.28125,-0.21875
508,508,1728007786215,-0.86621094,-0.47851562,0.068359375,0.78125,-0.0625,-0.21875
509,509,1728007786255,-0.86621094,-0.47460938,0.07421875,0.53125,0.5,-0.34375
510,510,1728007786295,-0.8691406,-0.4736328,0.064453125,0.4375,0.5,-0.28125
511,511,1728007786335,-0.8720703,-0.4716797,0.072265625,0.90625,0.4375,-0.09375
512,512,1728007786375,-0.8623047,-0.46679688,0.0625,0.71875,0.3125,-0.03125
513,513,1728007786415,-0.8623047,-0.47265625,0.07324219,0.4375,0.25,0.03125
514,514,1728007786455,-0.87109375,-0.46777344,0.068359375,-0.5,0.0625,0.21875
515,515,1728007786495,-0.8730469,-0.46972656,0.053710938,-0.3125,-0.15625,0.34375
516,516,1728007786535,-0.8642578,-0.4814453,0.056640625,-0.625,-0.09375,0.46875
517,517,1728007786575,-0.8671875,-0.46875,0.06347656,-0.8125,-0.40625,0.34375
518,518,1728007786615,-0.85839844,-0.46484375,0.0546875,-0.5625,-0.09375,0.28125
519,519,1728007786655,-0.86621094,-0.4794922,0.052734375,-0.6875,0.0,0.09375
520,520,1728007786695,-0.8652344,-0.46484375,0.05078125,-0.4375,-0.0625,0.09375
521,521,1728007786735,-0.8671875,-0.47265625,0.07519531,-0.125,0.0625,0.09375
522,522,1728007786775,-0.8574219,-0.47070312,0.068359375,-0.6875,0.0,0.34375
523,523,1728007786815,-0.86816406,-0.46972656,0.056640625,0.0625,0.3125,0.34375
524,524,1728007786855,-0.859375,-0.48632812,0.0546875,-0.0625,0.25,0.40625
525,525,1728007786895,-0.8769531,-0.47265625,0.051757812,-0.0625,0.375,0.15625
526,526,1728007786935,-0.87109375,-0.4794922,0.0703125,-0.125,0.1875,0.21875
527,527,1728007786975,-0.8691406,-0.47753906,0.064453125,-0.5,0.25,0.15625
528,528,1728007787015,-0.87109375,-0.46875,0.0625,0.0,0.3125,0.15625
529,529,1728007787055,-0.87109375,-0.48046875,0.078125,-0.125,0.125,0.09375
530,530,1728007787095,-0.8691406,-0.47070312,0.06347656,0.125,0.5625,0.21875
531,531,1728007787135,-0.86621094,-0.47753906,0.06542969,0.125,0.625,0.28125
532,532,1728007787175,-0.86035156,-0.47851562,0.059570312,-0.0625,0.6875,0.40625
533,533,1728007787215,-0.86328125,-0.4658203,0.06640625,-0.0625,0.3125,0.21875
534,534,1728007787255,-0.8701172,-0.46777344,0.060546875,-0.25,0.125,0.03125
535,535,1728007787295,-0.8642578,-0.47070312,0.053710938,0.0,0.125,0.53125
536,536,1728007787335,-0.86816406,-0.4765625,0.048828125,-0.25,0.1875,0.28125
537,537,1728007787375,-0.8691406,-0.46875,0.056640625,0.375,0.6875,0.09375
538,538,1728007787415,-0.8691406,-0.4814453,0.06542969,0.125,0.625,0.28125
539,539,1728007787455,-0.875,-0.46972656,0.06347656,0.46875,0.75,0.34375
540,540,1728007787495,-0.8691406,-0.4716797,0.0625,-0.75,-0.0625,-0.03125
541,541,1728007787535,-0.86816406,-0.46972656,0.07324219,0.0625,0.25,0.03125
542,542,1728007787575,-0.859375,-0.47558594,0.07519531,-0.125,0.1875,0.28125
543,543,1728007787615,-0.86621094,-0.47753906,0.06542969,0.0625,0.9375,0.15625
544,544,1728007787655,-0.8691406,-0.46875,0.061523438,-0.3125,0.125,0.46875
545,545,1728007787695,-0.87109375,-0.4814453,0.045898438,-0.375,0.25,0.15625
546,546,1728007787735,-0.86035156,-0.46679688,0.057617188,-0.5625,0.0,0.40625
547,547,1728007787775,-0.8720703,-0.47851562,0.06640625,-0.125,0.3125,0.15625
548,548,1728007787815,-0.85839844,-0.4736328,0.059570312,-0.8125,0.1875,-0.03125
549,549,1728007787855,-0.8701172,-0.47460938,0.057617188,-0.0625,0.375,-0.03125
550,550,1728007787895,-0.8642578,-0.4736328,0.0625,-0.25,0.25,0.53125
551,551,1728007787935,-0.8730469,-0.48242188,0.05078125,-0.625,0.125,0.46875
552,552,1728007787975,-0.8652344,-0.48046875,0.06640625,0.125,0.625,0.28125
553,553,1728007788015,-0.8691406,-0.4765625,0.04296875,-0.3125,0.375,0.09375
554,554,1728007788055,-0.8671875,-0.4765625,0.053710938,-0.0625,0.5,0.15625
555,555,1728007788095,-0.8701172,-0.46875,0.06347656,-0.0625,0.4375,0.53125
556,556,1728007788135,-0.8671875,-0.4814453,0.0703125,-0.375,0.5,0.65625
557,557,1728007788175,-0.8769531,-0.46679688,0.047851562,0.0625,0.625,0.40625
558,558,1728007788215,-0.8671875,-0.4736328,0.06347656,-0.125,0.4375,0.21875
559,559,1728007788255,-0.8701172,-0.4716797,0.060546875,-0.25,0.4375,0.15625
560,560,1728007788295,-0.87109375,-0.46875,0.0546875,-0.125,0.4375,0.21875
561,561,1728007788335,-0.86816406,-0.4736328,0.057617188,-0.0625,0.375,0.46875
562,562,1728007788375,-0.8652344,-0.4794922,0.055664062,0.4375,0.75,0.21875
563,563,1728007788415,-0.8720703,-0.47265625,0.056640625,-0.0625,0.6875,-0.03125
564,564,1728007788455,-0.86328125,-0.46875,0.04296875,0.25,0.75,0.03125
565,565,1728007788495,-0.8574219,-0.47851562,0.057617188,0.1875,0.5,0.09375
566,566,1728007788535,-0.8691406,-0.46289062,0.0546875,-0.0625,0.25,-0.09375
567,567,1728007788575,-0.87109375,-0.46777344,0.05859375,0.25,0.5,0.28125
568,568,1728007788615,-0.8613281,-0.4736328,0.061523438,-0.25,0.3125,0.09375
569,569,1728007788655,-0.8574219,-0.4716797,0.06542969,-0.4375,-0.0625,0.15625
570,570,1728007788695,-0.8701172,-0.47851562,0.061523438,0.46875,0.625,0.28125
571,571,1728007788735,-0.8652344,-0.46679688,0.061523438,-0.6875,0.25,0.34375
572,572,1728007788775,-0.87402344,-0.4716797,0.0625,-0.0625,0.4375,0.21875
573,573,1728007788815,-0.8642578,-0.4794922,0.06542969,-0.5,-0.15625,0.15625
574,574,1728007788855,-0.8642578,-0.4814453,0.06347656,0.125,0.375,-0.15625
575,575,1728007788895,-0.85546875,-0.4736328,0.06542969,0.125,0.25,0.09375
576,576,1728007788935,-0.8623047,-0.47265625,0.06640625,0.25,0.5,0.03125
577,577,1728007788975,-0.8730469,-0.47558594,0.060546875,0.46875,0.625,-0.03125
578,578,1728007789015,-0.8720703,-0.47558594,0.064453125,0.0625,0.375,0.15625
579,579,1728007789055,-0.8613281,-0.47753906,0.0546875,-0.25,0.0,-0.03125
580,580,1728007789095,-0.8652344,-0.4765625,0.0546875,0.25,0.25,0.09375
581,581,1728007789135,-0.87109375,-0.4716797,0.059570312,-0.0625,0.25,0.15625
582,582,1728007789175,-0.875,-0.47460938,0.05859375,0.375,0.875,0.09375
583,583,1728007789215,-0.86328125,-0.47460938,0.060546875,0.4375,0.5,0.46875
584,584,1728007789255,-0.8642578,-0.46972656,0.056640625,-0.125,0.375,0.40625
585,585,1728007789295,-0.86035156,-0.47265625,0.06933594,-0.4375,0.0625,0.59375
586,586,1728007789335,-0.87402344,-0.47753906,0.057617188,-0.4375,0.1875,0.40625
587,587,1728007789375,-0.87402344,-0.4716797,0.06347656,-1.21875,-0.40625,0.40625
588,588,1728007789415,-0.86328125,-0.47753906,0.06738281,-0.625,0.3125,0.53125
589,589,1728007789455,-0.8720703,-0.4814453,0.061523438,-0.0625,0.4375,0.46875
590,590,1728007789495,-0.8701172,-0.4814453,0.064453125,0.0,1.0,0.53125
591,591,1728007789535,-0.8691406,-0.4716797,0.061523438,0.25,0.875,0.53125
592,592,1728007789575,-0.8730469,-0.46777344,0.060546875,0.1875,0.5,0.59375
593,593,1728007789615,-0.86621094,-0.47851562,0.06542969,0.125,0.75,0.34375
594,594,1728007789655,-0.8652344,-0.4609375,0.05078125,0.3125,0.625,0.40625
595,595,1728007789695,-0.8701172,-0.4765625,0.060546875,0.125,0.875,0.40625
596,596,1728007789735,-0.8691406,-0.4736328,0.052734375,0.0625,0.625,0.40625
597,597,1728007789775,-0.8769531,-0.4609375,0.072265625,0.0625,1.0,0.46875
598,598,1728007789815,-0.8671875,-0.47753906,0.068359375,-0.375,0.25,0.59375
599,599,1728007789855,-0.8730469,-0.48046875,0.052734375,-0.1875,0.625,0.40625
600,600,1728007789895,-0.87109375,-0.46777344,0.051757812,-0.0625,0.875,0.34375
601,601,1728007789935,-0.8779297,-0.46972656,0.053710938,-0.1875,0.6875,0.15625
602,602,1728007789975,-0.86621094,-0.47265625,0.051757812,-0.3125,0.375,0.40625
603,603,1728007790015,-0.87109375,-0.4638672,0.049804688,0.0,0.6875,0.53125
604,604,1728007790055,-0.86621094,-0.47753906,0.047851562,-0.4375,0.625,0.71875
605,605,1728007790095,-0.87890625,-0.47070312,0.056640625,0.1875,0.75,0.21875
606,606,1728007790135,-0.87402344,-0.46875,0.060546875,-0.0625,0.4375,-0.03125
607,607,1728007790175,-0.86035156,-0.47265625,0.05859375,-0.5625,0.0,-0.09375
608,608,1728007790215,-0.8691406,-0.4638672,0.057617188,1.15625,1.0625,0.15625
609,609,1728007790255,-0.87402344,-0.46777344,0.05859375,-0.5,0.375,0.40625
610,610,1728007790295,-0.87109375,-0.4658203,0.07128906,0.4375,0.9375,0.09375
611,611,1728007790335,-0.87890625,-0.46972656,0.056640625,0.1875,0.75,0.03125
612,612,1728007790375,-0.8730469,-0.46484375,0.053710938,0.0625,0.25,0.28125
613,613,1728007790415,-0.8671875,-0.4765625,0.047851562,0.125,0.75,0.28125
614,614,1728007790455,-0.87109375,-0.48242188,0.05078125,-0.3125,0.5,0.09375
615,615,1728007790495,-0.875,-0.4736328,0.053710938,-0.0625,0.4375,0.03125
616,616,1728007790535,-0.87109375,-0.46972656,0.056640625,-0.3125,0.1875,0.21875
617,617,1728007790575,-0.8671875,-0.47070312,0.041015625,-0.25,0.3125,-0.03125
618,618,1728007790615,-0.8642578,-0.47070312,0.047851562,0.84375,1.0,-0.03125
619,619,1728007790655,-0.8720703,-0.4765625,0.041015625,-0.25,0.4375,-0.15625
620,620,1728007790695,-0.8730469,-0.4716797,0.043945312,0.53125,0.5625,-0.15625
621,621,1728007790735,-0.8613281,-0.4658203,0.056640625,-0.375,0.125,-0.03125
622,622,1728007790775,-0.8623047,-0.4765625,0.055664062,0.3125,0.4375,-0.09375
623,623,1728007790815,-0.8613281,-0.4736328,0.06542969,0.25,0.375,-0.09375
624,624,1728007790855,-0.8671875,-0.4658203,0.052734375,-0.125,0.3125,-0.09375
625,625,1728007790895,-0.8691406,-0.4736328,0.05078125,-0.375,0.0,0.34375
626,626,1728007790935,-0.8642578,-0.4794922,0.046875,-0.4375,-0.0625,0.34375
627,627,1728007790975,-0.86816406,-0.47558594,0.05859375,-0.5,0.0625,-0.03125
628,628,1728007791015,-0.8701172,-0.48046875,0.055664062,-0.25,0.125,-0.03125
629,629,1728007791055,-0.8671875,-0.47265625,0.0625,0.4375,0.6875,0.21875
630,630,1728007791095,-0.87402344,-0.46777344,0.053710938,0.0,0.375,0.34375
631,631,1728007791135,-0.8701172,-0.4716797,0.048828125,0.125,0.5,0.46875
632,632,1728007791175,-0.8671875,-0.46972656,0.06640625,-0.5625,0.125,0.53125
633,633,1728007791215,-0.87109375,-0.484375,0.05859375,-0.3125,0.25,0.15625
634,634,1728007791255,-0.8652344,-0.47460938,0.0625,-0.6875,-0.28125,0.09375
635,635,1728007791295,-0.87109375,-0.47851562,0.060546875,-0.25,0.0,0.03125
636,636,1728007791335,-0.8730469,-0.4736328,0.045898438,0.0,0.375,0.40625
637,637,1728007791375,-0.86816406,-0.4794922,0.060546875,0.1875,0.4375,0.40625
638,638,1728007791415,-0.8613281,-0.47851562,0.060546875,0.4375,0.875,0.34375
639,639,1728007791455,-0.8720703,-0.47265625,0.051757812,0.25,0.625,0.21875
640,640,1728007791495,-0.87402344,-0.46972656,0.07324219,0.59375,0.6875,0.34375
641,641,1728007791535,-0.8691406,-0.4638672,0.060546875,0.0625,0.125,0.28125
642,642,1728007791575,-0.8691406,-0.46972656,0.053710938,0.0625,0.375,0.28125
643,643,1728007791615,-0.8652344,-0.47265625,0.07128906,-0.125,0.3125,0.03125
644,644,1728007791655,-0.8642578,-0.46875,0.061523438,-0.125,0.3125,-0.03125
645,645,1728007791695,-0.8671875,-0.47753906,0.046875,-0.1875,0.125,0.15625
646,646,1728007791735,-0.87402344,-0.4716797,0.045898438,0.25,0.5,-0.03125
647,647,1728007791775,-0.8691406,-0.46777344,0.061523438,-0.25,0.125,0.40625
648,648,1728007791815,-0.8691406,-0.4638672,0.048828125,-0.125,0.1875,0.09375
649,649,1728007791855,-0.8613281,-0.4794922,0.041992188,0.46875,0.5625,0.21875
650,650,1728007791895,-0.859375,-0.4638672,0.045898438,-0.375,0.0,0.09375
651,651,1728007791935,-0.8652344,-0.46875,0.07519531,0.0625,0.3125,0.09375
652,652,1728007791975,-0.8642578,-0.46679688,0.045898438,-0.125,0.4375,0.21875
653,653,1728007792015,-0.875,-0.46875,0.043945312,0.0,0.375,0.21875
654,654,1728007792055,-0.8720703,-0.46679688,0.044921875,-0.4375,0.25,0.15625
655,655,1728007792095,-0.8769531,-0.47070312,0.048828125,-0.0625,0.125,0.15625
656,656,1728007792135,-0.86816406,-0.4765625,0.072265625,-0.25,0.25,0.28125
657,657,1728007792175,-0.8623047,-0.47753906,0.038085938,-0.1875,0.1875,0.28125
658,658,1728007792215,-0.8691406,-0.47265625,0.064453125,-0.5,0.25,0.03125
659,659,1728007792255,-0.8623047,-0.4794922,0.04296875,-0.125,0.3125,0.28125
660,660,1728007792295,-0.875,-0.47070312,0.05859375,-0.125,0.1875,0.15625
661,661,1728007792335,-0.86621094,-0.46972656,0.0546875,-0.125,0.1875,0.09375
662,662,1728007792375,-0.8623047,-0.46777344,0.04296875,0.1875,0.4375,0.09375
663,663,1728007792415,-0.87402344,-0.47265625,0.061523438,0.0625,0.375,0.21875
664,664,1728007792455,-0.8623047,-0.46777344,0.056640625,0.3125,0.4375,0.03125
665,665,1728007792495,-0.8720703,-0.47753906,0.051757812,-0.0625,0.1875,-0.03125
666,666,1728007792535,-0.8623047,-0.47070312,0.07421875,0.0,0.25,0.03125
667,667,1728007792575,-0.8701172,-0.47851562,0.05078125,-0.125,0.0,-0.15625
668,668,1728007792615,-0.8779297,-0.46777344,0.05859375,0.375,0.625,0.15625
669,669,1728007792655,-0.8652344,-0.47851562,0.05078125,-0.0625,0.1875,0.15625
670,670,1728007792695,-0.8701172,-0.47558594,0.053710938,0.4375,0.6875,0.15625
671,671,1728007792735,-0.8701172,-0.46875,0.05859375,-0.5,-0.21875,-0.03125
672,672,1728007792775,-0.87109375,-0.47753906,0.05859375,-0.5625,-0.28125,-0.09375
673,673,1728007792815,-0.8701172,-0.4736328,0.041015625,-0.6875,-0.34375,0.03125
674,674,1728007792855,-0.86621094,-0.48242188,0.064453125,-0.1875,0.0625,-0.15625
675,675,1728007792895,-0.8671875,-0.47851562,0.0546875,-0.25,0.1875,0.09375
676,676,1728007792935,-0.8730469,-0.47753906,0.0625,0.0,0.3125,0.21875
677,677,1728007792975,-0.8720703,-0.4794922,0.059570312,0.125,0.4375,0.21875
678,678,1728007793015,-0.8691406,-0.4892578,0.041992188,0.375,0.4375,0.28125
679,679,1728007793055,-0.86621094,-0.4716797,0.05859375,0.0,0.3125,0.15625
680,680,1728007793095,-0.8691406,-0.4765625,0.052734375,0.125,0.0,0.15625
681,681,1728007793135,-0.86328125,-0.47753906,0.056640625,-0.25,-0.15625,-0.03125
682,682,1728007793175,-0.87109375,-0.4716797,0.041992188,0.53125,-0.09375,-0.15625
683,683,1728007793215,-0.8642578,-0.4873047,0.060546875,0.0,0.0,0.03125
684,684,1728007793255,-0.86621094,-0.47851562,0.06347656,0.53125,0.125,0.03125
685,685,1728007793295,-0.859375,-0.47753906,0.080078125,0.0625,0.3125,-0.09375
686,686,1728007793335,-0.8701172,-0.48242188,0.0625,-0.0625,-0.0625,-0.21875
687,687,1728007793375,-0.859375,-0.47851562,0.053710938,-0.125,-0.34375,-0.15625
688,688,1728007793415,-0.8515625,-0.47070312,0.06640625,-0.375,-0.21875,-0.03125
689,689,1728007793455,-0.86816406,-0.49804688,0.06640625,0.1875,0.25,-0.03125
690,690,1728007793495,-0.8720703,-0.46679688,0.0625,0.4375,0.1875,-0.15625
691,691,1728007793535,-0.8652344,-0.4794922,0.0625,0.1875,-0.09375,-0.28125
692,692,1728007793575,-0.8623047,-0.47265625,0.0546875,-0.125,-0.28125,-0.21875
693,693,1728007793615,-0.8535156,-0.4765625,0.059570312,0.0625,-0.09375,-0.15625
694,694,1728007793655,-0.87109375,-0.47558594,0.068359375,0.25,0.3125,-0.03125
695,695,1728007793695,-0.8701172,-0.48046875,0.061523438,0.71875,0.625,0.15625
696,696,1728007793735,-0.8691406,-0.4765625,0.057617188,-0.5625,-0.34375,0.34375
697,697,1728007793775,-0.8671875,-0.47753906,0.06542969,-0.375,-0.46875,-0.03125
698,698,1728007793815,-0.86816406,-0.4892578,0.06640625,-0.4375,-0.59375,-0.09375
699,699,1728007793855,-0.859375,-0.47265625,0.0703125,0.0,0.0625,-0.34375
700,700,1728007793895,-0.86816406,-0.48632812,0.068359375,-0.125,0.0,-0.28125
701,701,1728007793935,-0.8691406,-0.46484375,0.064453125,-0.4375,-0.21875,0.46875
702,702,1728007793975,-0.8623047,-0.4794922,0.0625,0.25,0.125,0.46875
703,703,1728007794015,-0.8642578,-0.4814453,0.06542969,-0.25,0.125,0.21875
704,704,1728007794055,-0.8671875,-0.4814453,0.078125,0.0625,0.25,-0.09375
705,705,1728007794095,-0.8691406,-0.4736328,0.08300781,-0.125,-0.28125,0.21875
706,706,1728007794135,-0.8613281,-0.47851562,0.0703125,-0.0625,-0.15625,0.09375
707,707,1728007794175,-0.8652344,-0.4892578,0.060546875,0.0,0.125,0.15625
708,708,1728007794215,-0.8623047,-0.4560547,0.068359375,0.15625,-0.375,-0.375
709,709,1728007794255,-0.8779297,-0.46875,0.059570312,0.28125,-0.25,-0.3125
710,710,1728007794295,-0.8720703,-0.47070312,0.051757812,0.0,-0.71875,-0.375
711,711,1728007794335,-0.87597656,-0.46289062,0.047851562,-0.1875,-0.78125,-0.625
712,712,1728007794375,-0.86816406,-0.4658203,0.061523438,-0.375,-0.59375,-0.5
713,713,1728007794415,-0.86816406,-0.47070312,0.045898438,-0.125,-0.71875,-0.375
714,714,1728007794455,-0.8720703,-0.46289062,0.046875,0.21875,0.125,-0.4375
715,715,1728007794495,-0.8691406,-0.46875,0.046875,-0.3125,-0.53125,-0.09375
716,716,1728007794535,-0.8701172,-0.46484375,0.05859375,0.03125,-0.3125,-0.125
717,717,1728007794575,-0.86816406,-0.48046875,0.059570312,-0.375,-0.59375,-0.3125
718,718,1728007794615,-0.8701172,-0.46972656,0.0546875,0.09375,-0.78125,-0.75
719,719,1728007794655,-0.875,-0.47070312,0.053710938,-0.0625,-0.46875,-0.8125
720,720,1728007794695,-0.8691406,-0.4716797,0.061523438,-0.4375,-1.09375,-0.625
721,721,1728007794735,-0.87890625,-0.46679688,0.05859375,-0.1875,-0.65625,-0.625
722,722,1728007794775,-0.87109375,-0.4794922,0.041015625,-0.125,-0.65625,-0.3125
723,723,1728007794815,-0.8642578,-0.47558594,0.05859375,-0.3125,-0.65625,-0.5625
724,724,1728007794855,-0.8720703,-0.4658203,0.064453125,-0.0625,-0.71875,-0.3125
725,725,1728007794895,-0.8720703,-0.4658203,0.05859375,-0.3125,-0.96875,-0.125
726,726,1728007794935,-0.8701172,-0.4638672,0.055664062,0.0,-0.46875,-0.375
727,727,1728007794975,-0.8730469,-0.47558594,0.038085938,-0.5625,-0.96875,-0.625
728,728,1728007795015,-0.87109375,-0.4765625,0.059570312,0.03125,-0.53125,-0.5
729,729,1728007795055,-0.8691406,-0.46972656,0.053710938,0.0,-0.65625,-0.1875
730,730,1728007795095,-0.87402344,-0.46875,0.061523438,0.0,-0.53125,-0.4375
731,731,1728007795135,-0.8720703,-0.46484375,0.061523438,-0.3125,-0.84375,-0.1875
732,732,1728007795175,-0.86816406,-0.4658203,0.07519531,-0.25,-0.71875,-0.25
733,733,1728007795215,-0.86816406,-0.4716797,0.055664062,0.28125,-0.4375,-0.25
734,734,1728007795255,-0.8720703,-0.46777344,0.060546875,-0.0625,-0.78125,-0.3125
735,735,1728007795295,-0.859375,-0.46777344,0.053710938,0.53125,-0.375,-0.1875
736,736,1728007795335,-0.88183594,-0.4716797,0.057617188,0.46875,-0.3125,-0.3125
737,737,1728007795375,-0.87597656,-0.46777344,0.060546875,0.78125,0.0625,-0.125
738,738,1728007795415,-0.8730469,-0.47558594,0.0625,0.53125,-0.25,0.09375
739,739,1728007795455,-0.87402344,-0.46875,0.057617188,0.59375,-0.0625,-0.09375
740,740,1728007795495,-0.8701172,-0.46679688,0.051757812,-0.0625,-0.65625,-0.03125
741,741,1728007795535,-0.8652344,-0.4638672,0.06542969,0.0,-0.59375,0.09375
742,742,1728007795575,-0.8701172,-0.47265625,0.056640625,0.09375,-0.3125,-0.1875
743,743,1728007795615,-0.86816406,-0.4716797,0.046875,0.34375,-0.0625,-0.25
744,744,1728007795655,-0.87597656,-0.46679688,0.05859375,-0.0625,-0.46875,-0.09375
745,745,1728007795695,-0.86035156,-0.46777344,0.059570312,0.46875,-0.375,-0.03125
746,746,1728007795735,-0.8691406,-0.4765625,0.06347656,0.21875,-0.1875,-0.25
747,747,1728007795775,-0.8720703,-0.47070312,0.06347656,0.09375,-0.375,-0.09375
748,748,1728007795815,-0.87890625,-0.4658203,0.052734375,-0.0625,-0.65625,0.28125
749,749,1728007795855,-0.86621094,-0.49023438,0.06347656,0.03125,-0.375,0.03125
750,750,1728007795895,-0.87890625,-0.46679688,0.05078125,0.09375,-0.3125,-0.1875
751,751,1728007795935,-0.8730469,-0.47070312,0.055664062,-0.25,-0.78125,-0.125
752,752,1728007795975,-0.8730469,-0.46777344,0.05078125,0.03125,-0.53125,-0.1875
753,753,1728007796015,-0.8623047,-0.45996094,0.060546875,0.28125,-0.1875,-0.1875
754,754,1728007796055,-0.8691406,-0.47070312,0.0625,0.21875,-0.125,-0.1875
755,755,1728007796095,-0.8652344,-0.4609375,0.07324219,0.21875,-0.3125,-0.1875
756,756,1728007796135,-0.8652344,-0.45996094,0.052734375,-0.3125,-0.71875,-0.375
757,757,1728007796175,-0.8730469,-0.46972656,0.06738281,-0.5,-0.53125,-0.375
758,758,1728007796215,-0.875,-0.4736328,0.068359375,-0.125,-0.53125,-0.4375
759,759,1728007796255,-0.87109375,-0.4736328,0.07421875,-0.25,-0.59375,-0.4375
760,760,1728007796295,-0.8701172,-0.45996094,0.061523438,0.09375,-0.3125,-0.25
761,761,1728007796335,-0.86816406,-0.46484375,0.060546875,0.09375,-0.25,-0.5
