,Unnamed: 0,timestamp,accel_x,accel_y,accel_z,gyro_x,gyro_y,gyro_z
0,0,1727965705231,-1.0205078,0.11328125,-0.01953125,2.3125,-0.28125,1.4375
1,1,1727965705271,-1.0087891,0.13183594,-0.0234375,-0.03125,0.03125,0.84375
2,2,1727965705311,-1.0078125,0.10058594,-0.032226562,-0.21875,-0.875,2.0
3,3,1727965705351,-1.0078125,0.099609375,-0.01953125,-2.28125,0.75,0.09375
4,4,1727965705391,-1.0,0.12109375,-0.029296875,-0.625,1.5,-0.625
5,5,1727965705431,-1.0166016,0.12597656,-0.029296875,-1.0,1.0625,0.40625
6,6,1727965705471,-1.0136719,0.115234375,-0.022460938,-2.15625,0.15625,1.03125
7,7,1727965705511,-1.0048828,0.10253906,-0.01953125,-0.4375,0.875,0.71875
8,8,1727965705551,-1.0126953,0.12207031,-0.028320312,-0.6875,0.53125,0.34375
9,9,1727965705591,-1.0039062,0.115234375,-0.0146484375,-2.53125,0.875,0.78125
10,10,1727965705631,-1.0234375,0.09082031,-0.018554688,-1.96875,0.875,-0.09375
11,11,1727965705671,-1.0097656,0.12695312,-0.0087890625,0.78125,1.5625,0.34375
12,12,1727965705711,-1.0009766,0.10546875,-0.022460938,-2.53125,-0.03125,1.03125
13,13,1727965705751,-1.0107422,0.10253906,-0.0087890625,-3.0625,1.625,0.21875
14,14,1727965705791,-1.0068359,0.10839844,-0.016601562,0.34375,0.65625,0.09375
15,15,1727965705831,-1.0224609,0.11035156,-0.0234375,0.59375,0.75,0.03125
16,16,1727965705871,-1.0068359,0.12207031,-0.0107421875,1.03125,0.875,-0.15625
17,17,1727965705911,-1.0136719,0.107421875,-0.041992188,-0.25,0.875,0.46875
18,18,1727965705951,-1.0175781,0.111328125,-0.040039062,1.375,0.9375,0.15625
19,19,1727965705991,-1.0087891,0.1171875,-0.03125,0.09375,0.875,0.28125
20,20,1727965706031,-1.0136719,0.09375,-0.026367188,0.65625,0.34375,0.28125
21,21,1727965706071,-1.0126953,0.111328125,-0.041015625,3.34375,0.40625,-0.5
22,22,1727965706111,-1.0195312,0.12207031,-0.0107421875,2.125,0.21875,-0.3125
23,23,1727965706151,-1.0048828,0.1171875,-0.03515625,-1.78125,1.125,-0.1875
24,24,1727965706191,-1.0039062,0.10644531,-0.03125,-1.71875,0.03125,0.34375
25,25,1727965706231,-1.0097656,0.10644531,-0.037109375,-0.5625,0.53125,0.21875
26,26,1727965706271,-1.0185547,0.10253906,-0.03125,-0.4375,0.15625,-0.25
27,27,1727965706311,-1.015625,0.11035156,-0.018554688,-0.15625,0.40625,0.21875
28,28,1727965706351,-1.0146484,0.11035156,-0.017578125,-0.8125,0.71875,0.21875
29,29,1727965706391,-1.0146484,0.09472656,-0.03515625,-1.1875,0.21875,-0.25
30,30,1727965706431,-1.015625,0.107421875,-0.046875,0.40625,-0.03125,-0.1875
31,31,1727965706471,-1.0039062,0.11230469,-0.01953125,0.84375,-0.40625,0.15625
32,32,1727965706511,-1.0136719,0.115234375,-0.020507812,0.21875,-1.4375,-0.03125
33,33,1727965706551,-1.0117188,0.099609375,-0.0078125,1.1875,-0.625,0.09375
34,34,1727965706591,-1.0097656,0.099609375,-0.037109375,-0.75,-1.4375,-0.8125
35,35,1727965706631,-1.0166016,0.10839844,-0.03125,1.25,0.75,-1.0
36,36,1727965706671,-1.0117188,0.09472656,-0.025390625,2.90625,0.09375,-0.25
37,37,1727965706711,-1.0175781,0.10839844,-0.0048828125,5.40625,-0.53125,-0.375
38,38,1727965706751,-1.0087891,0.12109375,-0.021484375,3.59375,-1.875,0.15625
39,39,1727965706791,-1.0048828,0.109375,-0.0146484375,1.03125,-0.46875,0.46875
40,40,1727965706831,-1.0078125,0.09277344,-0.022460938,-1.125,0.09375,0.46875
41,41,1727965706871,-1.0195312,0.10253906,-0.018554688,1.875,0.75,-0.375
42,42,1727965706911,-1.0126953,0.111328125,-0.013671875,1.75,-0.03125,-0.5625
43,43,1727965706951,-1.0234375,0.12011719,-0.0087890625,0.90625,0.71875,-0.3125
44,44,1727965706991,-1.0126953,0.09375,-0.032226562,-0.25,-0.09375,0.65625
45,45,1727965707031,-1.0078125,0.09667969,-0.028320312,1.625,0.53125,0.46875
46,46,1727965707071,-1.0166016,0.091796875,-0.01171875,0.96875,0.46875,0.21875
47,47,1727965707111,-1.0126953,0.119140625,-0.037109375,0.65625,-0.28125,0.84375
48,48,1727965707151,-1.0097656,0.1015625,-0.015625,-0.25,1.125,0.71875
49,49,1727965707191,-1.015625,0.107421875,-0.030273438,0.09375,0.59375,0.53125
50,50,1727965707231,-1.0117188,0.10058594,-0.034179688,-2.15625,0.40625,0.71875
51,51,1727965707271,-1.015625,0.103515625,-0.028320312,-1.3125,1.25,0.53125
52,52,1727965707311,-1.0126953,0.09765625,-0.028320312,-1.0,2.34375,0.34375
53,53,1727965707351,-1.0107422,0.1015625,-0.015625,-2.40625,1.125,0.34375
54,54,1727965707391,-1.0136719,0.10058594,-0.033203125,-1.4375,0.8125,0.84375
55,55,1727965707431,-1.0078125,0.09863281,-0.02734375,-0.6875,1.0,0.34375
56,56,1727965707471,-1.0136719,0.115234375,-0.041992188,-0.5,0.75,0.34375
57,57,1727965707511,-1.0097656,0.09472656,-0.01953125,-0.3125,1.0,0.84375
58,58,1727965707551,-1.0107422,0.10253906,-0.05078125,0.46875,0.09375,0.65625
59,59,1727965707591,-1.015625,0.09472656,-0.02734375,2.25,1.4375,0.78125
60,60,1727965707631,-1.0234375,0.10058594,-0.047851562,0.71875,0.65625,0.28125
61,61,1727965707671,-1.0214844,0.1171875,-0.03125,0.59375,0.28125,0.34375
62,62,1727965707711,-1.0117188,0.11230469,-0.022460938,0.40625,-0.09375,0.59375
63,63,1727965707751,-1.0078125,0.11230469,-0.0390625,0.03125,-0.28125,0.59375
64,64,1727965707791,-1.0107422,0.109375,-0.015625,-0.625,0.59375,0.59375
65,65,1727965707831,-1.0175781,0.10253906,-0.040039062,-2.71875,-0.8125,0.28125
66,66,1727965707871,-1.0185547,0.11621094,-0.032226562,1.1875,-0.28125,0.46875
67,67,1727965707911,-1.0039062,0.11230469,-0.028320312,-0.21875,0.21875,1.3125
68,68,1727965707951,-1.0195312,0.10253906,-0.015625,-0.875,0.59375,0.53125
69,69,1727965707991,-1.0126953,0.10058594,-0.04296875,-0.75,0.09375,0.53125
70,70,1727965708031,-1.015625,0.12011719,-0.036132812,-0.21875,0.09375,0.53125
71,71,1727965708071,-1.0087891,0.109375,-0.017578125,-1.78125,0.21875,0.65625
72,72,1727965708111,-1.0166016,0.09765625,-0.030273438,0.28125,0.53125,0.65625
73,73,1727965708151,-1.0107422,0.109375,-0.01953125,0.84375,0.46875,0.28125
74,74,1727965708191,-1.0078125,0.11328125,-0.025390625,-1.125,-0.6875,0.21875
75,75,1727965708231,-1.0195312,0.107421875,-0.036132812,0.46875,-0.09375,0.40625
76,76,1727965708271,-1.0166016,0.10058594,-0.034179688,1.03125,-0.09375,0.09375
77,77,1727965708311,-1.0068359,0.1171875,-0.021484375,0.84375,0.40625,-0.3125
78,78,1727965708351,-1.015625,0.11328125,-0.024414062,1.3125,0.09375,0.40625
79,79,1727965708391,-1.0205078,0.11328125,-0.028320312,1.875,-0.6875,0.59375
80,80,1727965708431,-1.0087891,0.107421875,-0.029296875,1.25,0.28125,0.65625
81,81,1727965708471,-1.0126953,0.11328125,-0.02734375,-0.8125,0.8125,0.21875
82,82,1727965708511,-1.0107422,0.119140625,-0.02734375,-0.25,1.3125,-0.3125
83,83,1727965708551,-1.0205078,0.10449219,-0.017578125,2.0,0.875,0.46875
84,84,1727965708591,-1.0068359,0.115234375,-0.030273438,-0.21875,0.03125,0.21875
85,85,1727965708631,-1.0,0.10449219,-0.024414062,0.78125,-0.03125,0.71875
86,86,1727965708671,-1.0097656,0.10644531,-0.041992188,0.09375,-0.03125,0.34375
87,87,1727965708711,-1.0244141,0.11035156,-0.025390625,-0.5,0.75,0.28125
88,88,1727965708751,-1.0195312,0.10058594,-0.0234375,0.96875,-0.15625,-0.3125
89,89,1727965708791,-1.0126953,0.11425781,-0.026367188,0.84375,-1.0,-0.09375
90,90,1727965708831,-0.99316406,0.11230469,-0.028320312,1.03125,-1.125,1.375
91,91,1727965708871,-1.015625,0.09765625,-0.025390625,-2.28125,0.09375,1.5
92,92,1727965708911,-1.015625,0.115234375,-0.034179688,-1.78125,0.03125,1.125
93,93,1727965708951,-1.0048828,0.10644531,-0.022460938,-3.25,-0.59375,0.59375
94,94,1727965708991,-1.0117188,0.103515625,-0.02734375,-1.78125,0.59375,0.09375
95,95,1727965709031,-1.0097656,0.111328125,-0.0068359375,-2.03125,-0.8125,1.125
96,96,1727965709071,-1.015625,0.1015625,-0.026367188,-1.1875,-0.46875,0.53125
97,97,1727965709111,-1.0117188,0.11328125,-0.005859375,1.8125,0.34375,0.28125
98,98,1727965709151,-1.0009766,0.10839844,-0.0087890625,0.59375,-0.46875,0.71875
99,99,1727965709191,-1.0107422,0.119140625,-0.032226562,1.25,-0.09375,0.40625
100,100,1727965709231,-1.0175781,0.11035156,-0.02734375,0.59375,0.09375,0.78125
101,101,1727965709271,-1.0097656,0.10644531,-0.024414062,0.09375,0.65625,0.46875
102,102,1727965709311,-1.0117188,0.11230469,-0.005859375,0.03125,0.75,-0.09375
103,103,1727965709351,-1.0185547,0.10449219,-0.025390625,1.875,0.75,0.71875
104,104,1727965709391,-1.0185547,0.09472656,-0.020507812,2.25,0.09375,0.09375
105,105,1727965709431,-1.0078125,0.11621094,-0.0234375,1.3125,0.09375,-0.5
106,106,1727965709471,-1.0117188,0.115234375,-0.041992188,2.96875,0.59375,0.21875
107,107,1727965709511,-1.0019531,0.11328125,-0.025390625,1.25,0.8125,0.53125
108,108,1727965709551,-1.0166016,0.11621094,-0.026367188,-0.6875,-0.21875,0.09375
109,109,1727965709591,-1.0185547,0.107421875,-0.033203125,-0.25,0.03125,0.21875
110,110,1727965709631,-1.0107422,0.11328125,-0.020507812,0.96875,0.40625,-0.09375
111,111,1727965709671,-1.015625,0.12207031,-0.025390625,0.46875,0.9375,0.28125
112,112,1727965709711,-1.015625,0.10449219,-0.016601562,0.28125,0.65625,0.53125
113,113,1727965709751,-1.0195312,0.11230469,-0.029296875,-0.4375,-0.03125,0.34375
114,114,1727965709791,-1.0146484,0.11230469,-0.028320312,0.46875,0.53125,0.65625
115,115,1727965709831,-1.0117188,0.109375,-0.033203125,-1.96875,-0.21875,0.34375
116,116,1727965709871,-1.0097656,0.10253906,-0.032226562,-0.21875,0.34375,0.96875
117,117,1727965709911,-1.0058594,0.11621094,-0.030273438,-1.90625,-0.34375,0.46875
118,118,1727965709951,-1.0185547,0.10839844,-0.018554688,-0.8125,0.8125,0.78125
119,119,1727965709991,-1.0019531,0.10644531,-0.0234375,-0.25,-0.03125,0.96875
120,120,1727965710031,-1.0126953,0.11230469,-0.016601562,1.03125,0.21875,0.53125
121,121,1727965710071,-1.0205078,0.099609375,-0.030273438,-0.25,0.03125,0.21875
122,122,1727965710111,-1.0136719,0.1171875,-0.025390625,2.3125,-0.03125,0.09375
123,123,1727965710151,-1.0136719,0.09667969,-0.016601562,1.1875,0.34375,0.28125
124,124,1727965710191,-1.0058594,0.119140625,-0.0234375,-1.25,0.03125,-0.375
125,125,1727965710231,-1.0039062,0.111328125,-0.024414062,0.21875,0.46875,0.65625
126,126,1727965710271,-1.0214844,0.103515625,-0.026367188,-1.5625,-0.28125,0.53125
127,127,1727965710311,-1.0097656,0.10644531,-0.028320312,-0.09375,-0.53125,-0.03125
128,128,1727965710351,-1.0166016,0.111328125,-0.032226562,0.78125,-0.15625,0.28125
129,129,1727965710391,-1.0019531,0.1015625,-0.029296875,-0.75,0.21875,0.09375
130,130,1727965710431,-1.015625,0.11035156,-0.0126953125,-2.03125,-0.03125,0.03125
131,131,1727965710471,-1.0087891,0.111328125,-0.020507812,-1.59375,-0.28125,0.40625
132,132,1727965710511,-1.0146484,0.091796875,-0.021484375,-0.3125,-0.03125,0.28125
133,133,1727965710551,-1.0175781,0.11621094,-0.013671875,0.71875,0.40625,-0.09375
134,134,1727965710591,-1.0107422,0.10449219,-0.0009765625,0.15625,1.0,0.15625
135,135,1727965710631,-1.0166016,0.109375,-0.02734375,0.84375,0.40625,0.03125
136,136,1727965710671,-1.0166016,0.10644531,-0.024414062,1.3125,-0.21875,-0.1875
137,137,1727965710711,-1.0039062,0.10449219,-0.024414062,1.625,0.15625,-0.3125
138,138,1727965710751,-1.0107422,0.10546875,-0.017578125,2.125,0.53125,-0.4375
139,139,1727965710791,-1.0097656,0.12695312,-0.040039062,1.4375,-0.03125,0.03125
140,140,1727965710831,-1.0146484,0.11035156,-0.0234375,0.46875,-0.40625,0.15625
141,141,1727965710871,-1.0166016,0.10839844,-0.025390625,-0.875,-0.53125,-0.375
142,142,1727965710911,-1.0126953,0.10449219,-0.0234375,-2.09375,0.09375,-0.09375
143,143,1727965710951,-1.0126953,0.10253906,-0.045898438,0.59375,-1.4375,0.21875
144,144,1727965710991,-1.0175781,0.11816406,-0.0048828125,0.03125,1.0,0.09375
145,145,1727965711031,-1.0039062,0.09472656,-0.045898438,-4.21875,-2.15625,0.78125
146,146,1727965711071,-1.015625,0.111328125,-0.016601562,0.15625,1.1875,0.03125
147,147,1727965711111,-1.0136719,0.103515625,-0.015625,-2.40625,-1.25,0.53125
148,148,1727965711151,-1.0126953,0.08496094,-0.01953125,0.84375,0.28125,0.53125
149,149,1727965711191,-1.0136719,0.111328125,-0.032226562,-0.5625,-0.09375,-1.0
150,150,1727965711231,-1.0146484,0.12109375,-0.033203125,2.3125,0.28125,0.65625
151,151,1727965711271,-1.0126953,0.099609375,-0.030273438,-0.375,0.53125,0.28125
152,152,1727965711311,-1.0058594,0.115234375,-0.0087890625,0.03125,0.59375,0.21875
153,153,1727965711351,-1.0205078,0.091796875,-0.018554688,-0.5625,0.09375,0.71875
154,154,1727965711391,-1.015625,0.10546875,-0.0234375,-0.5,0.09375,0.09375
155,155,1727965711431,-1.0126953,0.103515625,-0.0390625,0.09375,-0.21875,0.46875
156,156,1727965711471,-1.0117188,0.11425781,-0.0107421875,-0.15625,-0.03125,0.46875
157,157,1727965711511,-1.0107422,0.09667969,-0.030273438,0.53125,0.71875,0.65625
158,158,1727965711551,-1.0097656,0.09765625,-0.025390625,0.78125,1.375,0.40625
159,159,1727965711591,-1.0097656,0.10449219,-0.0126953125,-0.6875,0.53125,-0.03125
160,160,1727965711631,-1.0107422,0.109375,-0.009765625,0.59375,0.71875,0.53125
161,161,1727965711671,-1.0166016,0.09765625,-0.041015625,0.78125,0.15625,1.03125
162,162,1727965711711,-1.0175781,0.109375,-0.0107421875,1.75,1.5625,0.09375
163,163,1727965711751,-1.0126953,0.103515625,-0.028320312,-0.15625,0.28125,0.03125
164,164,1727965711791,-1.0097656,0.10546875,0.0,0.03125,-0.03125,0.46875
165,165,1727965711831,-1.0136719,0.11328125,-0.020507812,1.5625,-0.625,0.78125
166,166,1727965711871,-1.0166016,0.09667969,-0.0146484375,2.0625,0.40625,0.03125
167,167,1727965711911,-1.0126953,0.12207031,-0.032226562,0.46875,0.71875,-0.25
168,168,1727965711951,-1.0048828,0.115234375,-0.0390625,0.09375,1.25,1.03125
169,169,1727965711991,-1.0136719,0.10546875,-0.032226562,-1.84375,0.59375,0.53125
170,170,1727965712031,-1.0195312,0.107421875,-0.040039062,-0.03125,-0.40625,0.90625
171,171,1727965712071,-1.0175781,0.1015625,-0.025390625,0.90625,0.09375,0.71875
172,172,1727965712111,-1.0039062,0.11425781,-0.02734375,-0.9375,-0.03125,0.34375
173,173,1727965712151,-1.0097656,0.11230469,-0.01953125,-0.4375,0.40625,0.84375
174,174,1727965712191,-1.0126953,0.10644531,-0.028320312,-0.21875,0.34375,0.59375
175,175,1727965712231,-1.0097656,0.10058594,-0.03125,-0.625,0.15625,0.78125
176,176,1727965712271,-1.0166016,0.1171875,-0.02734375,-1.71875,0.09375,0.40625
177,177,1727965712311,-0.99902344,0.111328125,-0.029296875,1.875,0.875,1.125
178,178,1727965712351,-1.0126953,0.09765625,-0.017578125,-1.0625,0.46875,0.09375
179,179,1727965712391,-1.0175781,0.10058594,-0.029296875,-0.25,-0.09375,0.34375
180,180,1727965712431,-1.0126953,0.111328125,-0.02734375,-0.8125,-0.21875,-0.3125
181,181,1727965712471,-1.0126953,0.10253906,-0.0234375,2.1875,0.75,0.46875
182,182,1727965712511,-1.0029297,0.10839844,-0.0078125,-2.09375,0.03125,-0.1875
183,183,1727965712551,-1.0029297,0.115234375,-0.026367188,-0.75,0.09375,0.09375
184,184,1727965712591,-1.0117188,0.10253906,-0.025390625,1.5625,-0.46875,0.96875
185,185,1727965712631,-1.0,0.1015625,-0.037109375,-2.78125,-1.875,0.46875
186,186,1727965712671,-1.0175781,0.10449219,-0.013671875,-1.96875,-0.40625,0.40625
187,187,1727965712711,-1.015625,0.1015625,-0.021484375,0.09375,-0.75,0.40625
188,188,1727965712751,-1.0205078,0.09277344,-0.01171875,0.65625,-0.46875,0.53125
189,189,1727965712791,-1.0058594,0.109375,-0.020507812,-1.1875,-0.75,0.40625
190,190,1727965712831,-1.0078125,0.10644531,-0.0068359375,-1.125,-0.28125,0.78125
191,191,1727965712871,-1.015625,0.12011719,-0.01953125,-1.90625,-1.125,0.53125
192,192,1727965712911,-1.015625,0.10058594,-0.015625,-0.6875,-0.53125,0.78125
193,193,1727965712951,-1.0136719,0.1015625,-0.0009765625,-0.75,-0.59375,0.34375
194,194,1727965712991,-1.0253906,0.10449219,-0.015625,0.53125,-0.03125,0.03125
195,195,1727965713031,-1.0078125,0.10644531,-0.025390625,1.4375,-0.40625,0.40625
196,196,1727965713071,-1.0136719,0.11425781,-0.0087890625,-0.4375,0.8125,0.15625
197,197,1727965713111,-1.015625,0.109375,-0.01171875,-1.5625,-0.40625,0.46875
198,198,1727965713151,-1.0097656,0.10253906,0.001953125,1.0625,-0.8125,0.71875
199,199,1727965713191,-1.0175781,0.09765625,-0.026367188,0.78125,-0.28125,-0.03125
200,200,1727965713231,-1.0107422,0.12011719,0.013671875,0.46875,-0.21875,-0.5
201,201,1727965713271,-1.0087891,0.115234375,-0.009765625,-0.8125,0.03125,0.40625
202,202,1727965713311,-1.0126953,0.10449219,-0.0146484375,1.03125,-0.8125,0.71875
203,203,1727965713351,-1.0117188,0.11230469,-0.0048828125,0.09375,-0.15625,0.15625
204,204,1727965713391,-1.015625,0.10839844,-0.0107421875,-1.71875,-1.0,-0.25
205,205,1727965713431,-1.0117188,0.10644531,-0.005859375,0.09375,0.28125,0.03125
206,206,1727965713471,-1.0205078,0.11230469,-0.0068359375,-2.09375,-0.6875,0.03125
207,207,1727965713511,-1.0048828,0.09472656,-0.0068359375,-1.0,-0.15625,0.21875
208,208,1727965713551,-1.0146484,0.10253906,-0.009765625,-1.25,0.21875,-0.1875
209,209,1727965713591,-1.0175781,0.109375,-0.015625,-1.71875,0.03125,0.03125
210,210,1727965713631,-1.0126953,0.08886719,-0.0126953125,-0.25,-0.21875,0.59375
211,211,1727965713671,-1.0136719,0.111328125,-0.0146484375,-0.15625,0.34375,0.09375
212,212,1727965713711,-1.0136719,0.115234375,-0.020507812,0.78125,-0.34375,0.40625
213,213,1727965713751,-1.0175781,0.10546875,0.0,-1.1875,0.46875,0.65625
214,214,1727965713791,-1.0058594,0.09082031,-0.01953125,-0.5,-0.21875,0.15625
215,215,1727965713831,-1.0097656,0.10644531,-0.00390625,1.625,-0.03125,0.09375
216,216,1727965713871,-1.0107422,0.09472656,0.0,1.03125,0.28125,0.28125
217,217,1727965713911,-1.0175781,0.119140625,-0.0126953125,1.1875,-0.21875,0.46875
218,218,1727965713951,-1.0166016,0.1015625,-0.0107421875,1.75,-0.09375,0.59375
219,219,1727965713991,-1.015625,0.09375,-0.0126953125,-0.3125,-0.03125,0.21875
220,220,1727965714031,-1.0175781,0.10644531,-0.0029296875,1.1875,0.34375,-0.03125
221,221,1727965714071,-1.0205078,0.115234375,-0.0107421875,0.71875,0.28125,0.15625
222,222,1727965714111,-1.0087891,0.10449219,-0.0146484375,1.25,0.40625,0.59375
223,223,1727965714151,-1.0107422,0.11621094,-0.015625,-0.03125,0.40625,-0.4375
224,224,1727965714191,-1.0097656,0.109375,-0.01953125,0.96875,-0.09375,0.65625
225,225,1727965714231,-1.0136719,0.09375,-0.0068359375,1.6875,0.9375,0.65625
226,226,1727965714271,-1.015625,0.095703125,0.0009765625,0.46875,0.65625,-0.375
227,227,1727965714311,-1.0068359,0.10449219,-0.0009765625,0.53125,0.28125,0.40625
228,228,1727965714351,-1.0107422,0.091796875,-0.016601562,0.71875,0.65625,0.34375
229,229,1727965714391,-1.0117188,0.10644531,-0.015625,0.34375,0.9375,0.15625
230,230,1727965714431,-1.0048828,0.11230469,-0.0087890625,0.34375,0.46875,0.03125
231,231,1727965714471,-1.0078125,0.09765625,-0.0009765625,0.96875,0.40625,0.34375
232,232,1727965714511,-1.0126953,0.08496094,-0.016601562,1.25,0.75,0.65625
233,233,1727965714551,-1.0097656,0.09863281,-0.01171875,0.84375,0.28125,0.03125
234,234,1727965714591,-1.0097656,0.111328125,-0.015625,1.0625,-0.28125,0.65625
235,235,1727965714631,-1.0107422,0.09375,-0.0048828125,1.125,0.8125,0.46875
236,236,1727965714671,-1.015625,0.10449219,-0.017578125,1.0625,0.21875,0.40625
237,237,1727965714711,-1.0048828,0.10058594,-0.001953125,2.0625,0.46875,0.21875
238,238,1727965714751,-1.0166016,0.10546875,-0.018554688,2.78125,-0.625,0.15625
239,239,1727965714791,-1.0136719,0.11328125,-0.0126953125,2.78125,0.03125,-0.03125
240,240,1727965714831,-1.0126953,0.11230469,-0.030273438,1.5,-1.0625,1.03125
241,241,1727965714871,-1.0117188,0.11035156,-0.015625,-0.3125,0.28125,0.21875
242,242,1727965714911,-1.0019531,0.119140625,-0.0078125,-0.15625,0.09375,0.90625
243,243,1727965714951,-1.0244141,0.08984375,-0.001953125,-1.78125,0.15625,1.03125
244,244,1727965714991,-1.0136719,0.10644531,-0.0146484375,-1.1875,-0.53125,0.15625
245,245,1727965715031,-1.0087891,0.1015625,-0.0009765625,0.15625,0.09375,0.90625
246,246,1727965715071,-1.0019531,0.10644531,-0.001953125,-1.59375,-0.46875,0.46875
247,247,1727965715111,-1.0136719,0.10058594,-0.001953125,0.09375,0.9375,0.78125
248,248,1727965715151,-1.0107422,0.099609375,-0.0029296875,-2.78125,0.28125,0.34375
249,249,1727965715191,-1.0146484,0.09765625,-0.0126953125,-0.15625,0.53125,0.65625
250,250,1727965715231,-1.0175781,0.09472656,0.0107421875,-0.6875,0.03125,0.28125
251,251,1727965715271,-1.0087891,0.10546875,-0.0009765625,1.5625,0.71875,0.15625
252,252,1727965715311,-1.0166016,0.10449219,-0.0048828125,1.1875,0.8125,0.96875
253,253,1727965715351,-1.0175781,0.111328125,-0.0107421875,-0.3125,0.8125,0.03125
254,254,1727965715391,-1.0166016,0.11230469,-0.005859375,0.84375,0.28125,0.78125
255,255,1727965715431,-1.0078125,0.103515625,-0.021484375,0.71875,-0.09375,0.53125
256,256,1727965715471,-1.0175781,0.115234375,0.001953125,0.71875,0.53125,0.71875
257,257,1727965715511,-1.0107422,0.10058594,-0.016601562,-0.15625,0.34375,0.59375
258,258,1727965715551,-1.0117188,0.115234375,-0.017578125,1.5,0.71875,0.40625
259,259,1727965715591,-1.0224609,0.111328125,-0.01171875,0.90625,0.8125,0.71875
260,260,1727965715631,-1.0234375,0.09082031,-0.024414062,-1.125,0.21875,0.46875
261,261,1727965715671,-1.0039062,0.107421875,-0.0146484375,1.1875,0.9375,0.59375
262,262,1727965715711,-1.0166016,0.109375,-0.009765625,-0.5625,0.28125,0.59375
263,263,1727965715751,-1.0107422,0.10253906,-0.01171875,-0.4375,0.875,0.46875
264,264,1727965715791,-1.0175781,0.11230469,-0.0087890625,0.59375,0.65625,0.40625
265,265,1727965715831,-1.0097656,0.111328125,-0.018554688,0.78125,0.46875,0.71875
266,266,1727965715871,-1.0126953,0.099609375,-0.0107421875,0.40625,0.8125,0.65625
267,267,1727965715911,-1.0117188,0.11328125,-0.01953125,0.34375,0.59375,0.46875
268,268,1727965715951,-0.9970703,0.09667969,-0.0126953125,1.25,0.34375,0.53125
269,269,1727965715991,-1.0185547,0.115234375,-0.021484375,0.46875,0.34375,0.15625
270,270,1727965716031,-1.0048828,0.12597656,-0.00390625,1.03125,-0.03125,0.59375
271,271,1727965716071,-1.0078125,0.10644531,-0.01953125,0.21875,0.65625,0.53125
272,272,1727965716111,-1.0234375,0.11328125,-0.015625,0.09375,0.46875,0.21875
273,273,1727965716151,-1.0195312,0.109375,-0.017578125,0.65625,0.8125,-0.09375
274,274,1727965716191,-1.0087891,0.099609375,-0.02734375,-0.5625,-0.46875,0.40625
275,275,1727965716231,-1.0126953,0.111328125,-0.0146484375,0.78125,0.28125,0.03125
276,276,1727965716271,-1.0146484,0.11425781,-0.013671875,-0.09375,0.75,0.21875
277,277,1727965716311,-1.0107422,0.09472656,-0.0234375,-0.25,0.09375,0.34375
278,278,1727965716351,-1.0097656,0.11328125,-0.01171875,0.84375,1.5,-0.25
279,279,1727965716391,-1.015625,0.10644531,-0.0126953125,-1.1875,0.15625,0.09375
280,280,1727965716431,-1.0126953,0.09765625,-0.01171875,-0.03125,0.40625,0.34375
281,281,1727965716471,-1.0107422,0.109375,-0.018554688,-0.5,-0.03125,-0.09375
282,282,1727965716511,-1.0205078,0.103515625,-0.030273438,-0.15625,-0.09375,0.03125
283,283,1727965716551,-1.0117188,0.09667969,-0.017578125,1.1875,0.875,-0.09375
284,284,1727965716591,-1.0136719,0.11328125,-0.018554688,-0.15625,1.0,-0.3125
285,285,1727965716631,-1.0117188,0.11621094,-0.0087890625,0.03125,1.0625,0.40625
286,286,1727965716671,-1.0185547,0.103515625,-0.013671875,-0.875,-0.40625,0.53125
287,287,1727965716711,-1.0214844,0.10449219,-0.029296875,0.09375,-1.0625,0.34375
288,288,1727965716751,-1.0166016,0.10449219,-0.0146484375,0.84375,-0.21875,0.40625
289,289,1727965716791,-1.0087891,0.109375,-0.036132812,-1.1875,0.59375,0.09375
290,290,1727965716831,-1.0195312,0.11035156,-0.005859375,0.40625,1.3125,0.28125
291,291,1727965716871,-1.0224609,0.109375,-0.0146484375,-1.0625,-1.125,0.59375
292,292,1727965716911,-1.0126953,0.09667969,-0.009765625,0.78125,-0.625,0.71875
293,293,1727965716951,-1.0195312,0.115234375,-0.032226562,-1.25,-1.96875,0.53125
294,294,1727965716991,-1.0029297,0.107421875,-0.0146484375,0.71875,-0.40625,1.03125
295,295,1727965717031,-1.0087891,0.10546875,-0.005859375,-1.5,-0.03125,0.59375
296,296,1727965717071,-1.0273438,0.109375,-0.001953125,-0.6875,-0.09375,0.34375
297,297,1727965717111,-1.0117188,0.09082031,-0.0087890625,-0.5625,0.34375,0.46875
298,298,1727965717151,-1.0136719,0.09667969,-0.024414062,-2.09375,-1.125,-0.03125
299,299,1727965717191,-1.0039062,0.12011719,-0.029296875,-1.96875,0.03125,-0.03125
300,300,1727965717231,-1.0234375,0.091796875,-0.0048828125,-3.1875,0.34375,0.03125
301,301,1727965717271,-1.0136719,0.12011719,-0.00390625,-1.84375,-0.6875,-0.09375
302,302,1727965717311,-1.0097656,0.09765625,-0.00390625,-1.5625,-0.34375,0.15625
303,303,1727965717351,-1.0166016,0.08886719,-0.017578125,-2.59375,-0.28125,-0.625
304,304,1727965717391,-1.0087891,0.111328125,-0.01171875,-0.375,0.75,-0.9375
305,305,1727965717431,-1.0058594,0.10546875,-0.0009765625,0.15625,0.59375,-0.09375
306,306,1727965717471,-1.0087891,0.083984375,0.0009765625,0.65625,0.71875,-0.1875
307,307,1727965717511,-1.0117188,0.09667969,-0.0078125,1.1875,0.75,-0.625
308,308,1727965717551,-1.0205078,0.11230469,-0.016601562,2.0,0.46875,-0.1875
309,309,1727965717591,-1.0019531,0.11035156,-0.0126953125,1.625,0.8125,0.03125
310,310,1727965717631,-1.0166016,0.095703125,-0.018554688,0.96875,0.8125,-0.3125
311,311,1727965717671,-1.0097656,0.10058594,0.0029296875,1.9375,0.03125,-0.15625
312,312,1727965717711,-1.0195312,0.091796875,-0.013671875,2.40625,0.34375,0.40625
313,313,1727965717751,-1.0078125,0.09765625,-0.018554688,1.5625,0.40625,-0.15625
314,314,1727965717791,-1.0205078,0.103515625,-0.0048828125,3.28125,1.0,0.59375
315,315,1727965717831,-1.0126953,0.10449219,-0.00390625,0.65625,0.59375,0.21875
316,316,1727965717871,-1.0234375,0.1015625,-0.0087890625,0.84375,1.0,0.78125
317,317,1727965717911,-1.0097656,0.09472656,-0.01953125,1.0625,-0.28125,0.84375
318,318,1727965717951,-1.0117188,0.09082031,-0.017578125,1.375,-0.28125,1.1875
319,319,1727965717991,-1.0136719,0.109375,-0.017578125,0.34375,0.53125,0.90625
320,320,1727965718031,-1.0126953,0.099609375,-0.01953125,0.59375,0.9375,1.3125
321,321,1727965718071,-1.0224609,0.099609375,-0.0068359375,0.40625,1.875,0.65625
322,322,1727965718111,-1.0136719,0.10058594,-0.009765625,-0.6875,0.59375,0.96875
323,323,1727965718151,-1.0117188,0.103515625,-0.0107421875,0.78125,1.0625,0.78125
324,324,1727965718191,-1.0087891,0.1015625,-0.032226562,-0.09375,1.1875,0.46875
325,325,1727965718231,-1.0244141,0.099609375,-0.0009765625,0.03125,1.9375,0.09375
326,326,1727965718271,-1.0078125,0.11035156,-0.015625,0.59375,0.46875,0.28125
327,327,1727965718311,-1.0087891,0.115234375,-0.0087890625,2.3125,0.9375,0.65625
328,328,1727965718351,-1.0166016,0.10449219,-0.03125,2.59375,0.71875,0.59375
329,329,1727965718391,-1.0078125,0.10253906,-0.0146484375,1.375,1.0,0.34375
330,330,1727965718431,-1.0087891,0.10839844,-0.0087890625,1.03125,1.25,0.28125
331,331,1727965718471,-1.0175781,0.10644531,-0.020507812,1.5,0.59375,0.59375
332,332,1727965718511,-1.0087891,0.09277344,-0.0126953125,2.125,0.65625,0.65625
333,333,1727965718551,-1.0087891,0.10058594,-0.022460938,2.65625,1.0,0.03125
334,334,1727965718591,-1.0048828,0.103515625,-0.025390625,3.46875,0.71875,0.53125
335,335,1727965718631,-1.0107422,0.095703125,-0.018554688,2.46875,0.53125,0.40625
336,336,1727965718671,-1.0292969,0.09472656,-0.02734375,3.59375,0.59375,0.21875
337,337,1727965718711,-1.0097656,0.095703125,-0.013671875,3.46875,-0.09375,-0.4375
338,338,1727965718751,-1.0009766,0.11621094,-0.03515625,1.6875,0.28125,-0.625
339,339,1727965718791,-1.0175781,0.103515625,-0.024414062,1.25,1.5,0.40625
340,340,1727965718831,-1.0283203,0.10449219,-0.016601562,1.03125,1.75,0.59375
341,341,1727965718871,-1.015625,0.10449219,-0.026367188,0.59375,0.40625,0.28125
342,342,1727965718911,-1.0117188,0.10644531,-0.028320312,2.59375,1.1875,0.03125
343,343,1727965718951,-1.0039062,0.09765625,-0.026367188,2.46875,1.0,0.53125
344,344,1727965718991,-1.0185547,0.09472656,-0.0234375,-0.21875,0.46875,0.59375
345,345,1727965719031,-1.0175781,0.109375,-0.028320312,0.53125,0.65625,-0.1875
346,346,1727965719071,-1.0175781,0.11425781,-0.026367188,1.1875,1.125,0.21875
347,347,1727965719111,-1.0107422,0.103515625,-0.033203125,0.59375,0.28125,0.46875
348,348,1727965719151,-1.0195312,0.10546875,-0.034179688,0.28125,0.8125,0.34375
349,349,1727965719191,-1.015625,0.09765625,-0.02734375,1.8125,0.9375,0.59375
350,350,1727965719231,-1.0117188,0.11328125,-0.048828125,1.875,1.6875,0.46875
351,351,1727965719271,-1.0185547,0.11621094,-0.033203125,-1.125,0.21875,0.96875
352,352,1727965719311,-1.0039062,0.10253906,-0.029296875,0.65625,1.1875,0.90625
353,353,1727965719351,-1.0078125,0.09472656,-0.037109375,2.25,0.75,0.78125
354,354,1727965719391,-1.0234375,0.109375,-0.024414062,0.78125,1.0625,0.34375
355,355,1727965719431,-1.0068359,0.09375,-0.044921875,1.03125,1.125,0.21875
356,356,1727965719471,-1.0185547,0.103515625,-0.03515625,1.9375,1.3125,0.15625
357,357,1727965719511,-1.0126953,0.107421875,-0.036132812,1.6875,1.0,0.53125
358,358,1727965719551,-1.0087891,0.09082031,-0.03515625,2.0625,2.09375,0.40625
359,359,1727965719591,-1.0126953,0.10546875,-0.028320312,3.15625,2.78125,-0.3125
360,360,1727965719631,-1.0234375,0.10839844,-0.024414062,2.84375,2.03125,-0.375
361,361,1727965719671,-1.0136719,0.10839844,-0.033203125,3.09375,1.1875,0.28125
362,362,1727965719711,-1.0097656,0.10839844,-0.055664062,2.59375,1.75,0.59375
363,363,1727965719751,-1.0039062,0.10449219,-0.0546875,0.15625,2.03125,0.46875
364,364,1727965719791,-1.0068359,0.11621094,-0.02734375,-1.3125,1.3125,0.59375
365,365,1727965719831,-1.0175781,0.099609375,-0.064453125,-2.09375,0.8125,1.125
366,366,1727965719871,-1.0097656,0.08984375,-0.051757812,-1.1875,1.3125,0.65625
367,367,1727965719911,-1.0048828,0.10253906,-0.0390625,0.34375,2.03125,0.28125
368,368,1727965719951,-1.0205078,0.109375,-0.0390625,-0.4375,2.03125,0.40625
369,369,1727965719991,-1.0117188,0.107421875,-0.051757812,-0.75,0.46875,0.59375
370,370,1727965720031,-1.0019531,0.107421875,-0.046875,0.21875,1.6875,0.71875
371,371,1727965720071,-1.0136719,0.10449219,-0.053710938,-1.71875,0.65625,0.34375
372,372,1727965720111,-1.0087891,0.103515625,-0.043945312,0.59375,1.5625,1.03125
373,373,1727965720151,-1.0166016,0.107421875,-0.044921875,-1.0,0.03125,0.71875
374,374,1727965720191,-1.0019531,0.10449219,-0.048828125,0.46875,0.8125,0.71875
375,375,1727965720231,-1.0126953,0.103515625,-0.047851562,0.28125,0.59375,0.71875
376,376,1727965720271,-1.0126953,0.09765625,-0.044921875,2.0,0.71875,0.65625
377,377,1727965720311,-1.0097656,0.11621094,-0.049804688,0.71875,0.65625,0.34375
378,378,1727965720351,-1.0068359,0.103515625,-0.068359375,0.46875,1.0,0.84375
379,379,1727965720391,-1.0058594,0.11425781,-0.045898438,-0.5,1.8125,0.59375
380,380,1727965720431,-1.0068359,0.10644531,-0.032226562,-2.875,1.0625,0.90625
381,381,1727965720471,-1.0058594,0.099609375,-0.05078125,-0.5,0.875,1.03125
382,382,1727965720511,-1.0009766,0.09667969,-0.057617188,1.625,0.59375,1.3125
383,383,1727965720551,-1.0087891,0.103515625,-0.044921875,-0.15625,0.875,0.21875
384,384,1727965720591,-1.0185547,0.10449219,-0.052734375,-0.09375,1.125,0.90625
385,385,1727965720631,-1.0097656,0.11425781,-0.04296875,0.59375,1.5,0.65625
386,386,1727965720671,-1.0175781,0.103515625,-0.047851562,0.03125,0.28125,1.3125
387,387,1727965720711,-1.0097656,0.09667969,-0.057617188,0.34375,-0.28125,1.09375
388,388,1727965720751,-1.0136719,0.1171875,-0.055664062,1.6875,0.875,-0.09375
389,389,1727965720791,-1.0087891,0.12109375,-0.060546875,1.375,0.15625,0.78125
390,390,1727965720831,-1.015625,0.11328125,-0.072265625,-0.03125,-0.53125,1.125
391,391,1727965720871,-1.0107422,0.107421875,-0.056640625,0.09375,1.5,0.96875
392,392,1727965720911,-1.0068359,0.11035156,-0.057617188,0.09375,0.8125,0.28125
393,393,1727965720951,-1.0009766,0.10644531,-0.061523438,-0.03125,-0.59375,-0.3125
394,394,1727965720991,-1.0009766,0.115234375,-0.0625,2.59375,0.21875,-0.03125
395,395,1727965721031,-1.0087891,0.119140625,-0.07324219,3.875,0.15625,0.59375
396,396,1727965721071,-1.0029297,0.08496094,-0.055664062,2.59375,1.125,0.40625
397,397,1727965721111,-1.0166016,0.12890625,-0.052734375,3.03125,1.25,-0.5
398,398,1727965721151,-1.0136719,0.12597656,-0.057617188,2.0,0.46875,0.84375
399,399,1727965721191,-1.0117188,0.11035156,-0.064453125,2.34375,-0.34375,1.1875
400,400,1727965721231,-1.0048828,0.10253906,-0.0625,1.125,1.375,0.21875
401,401,1727965721271,-1.0107422,0.10644531,-0.07519531,2.96875,0.8125,0.09375
402,402,1727965721311,-1.0136719,0.11816406,-0.055664062,1.375,1.125,0.34375
403,403,1727965721351,-1.0107422,0.13183594,-0.056640625,0.96875,1.1875,0.34375
404,404,1727965721391,-1.0107422,0.09765625,-0.061523438,0.78125,1.5,0.84375
405,405,1727965721431,-1.0078125,0.107421875,-0.06933594,0.65625,0.75,0.03125
406,406,1727965721471,-1.0078125,0.09863281,-0.045898438,1.1875,2.09375,0.28125
407,407,1727965721511,-1.0117188,0.11230469,-0.0625,2.34375,0.59375,-0.15625
408,408,1727965721551,-1.0087891,0.11035156,-0.044921875,1.375,0.59375,0.78125
409,409,1727965721591,-1.0136719,0.103515625,-0.06738281,2.34375,-0.875,0.78125
410,410,1727965721631,-0.99609375,0.10449219,-0.07519531,3.8125,0.09375,0.59375
411,411,1727965721671,-1.0166016,0.09667969,-0.07324219,5.34375,1.5,0.15625
412,412,1727965721711,-1.0136719,0.1171875,-0.072265625,4.0,0.46875,0.09375
413,413,1727965721751,-1.0097656,0.11816406,-0.07128906,4.125,1.125,0.53125
414,414,1727965721791,-0.9951172,0.09765625,-0.087890625,7.25,1.9375,1.03125
415,415,1727965721831,-1.0029297,0.10253906,-0.08886719,6.15625,3.625,0.15625
416,416,1727965721871,-1.0126953,0.11816406,-0.072265625,3.53125,5.03125,-0.875
417,417,1727965721911,-1.0175781,0.13085938,-0.078125,2.53125,2.65625,0.28125
418,418,1727965721951,-1.0205078,0.107421875,-0.07910156,0.28125,0.65625,1.375
419,419,1727965721991,-1.0107422,0.10058594,-0.10058594,1.125,-0.09375,0.78125
420,420,1727965722031,-1.0029297,0.099609375,-0.07128906,1.875,1.9375,0.34375
421,421,1727965722071,-1.0058594,0.095703125,-0.09082031,-0.75,2.0,-0.625
422,422,1727965722111,-1.0058594,0.119140625,-0.09375,1.25,2.71875,-0.5
423,423,1727965722151,-1.0136719,0.11816406,-0.08496094,-0.25,0.71875,1.03125
424,424,1727965722191,-0.9970703,0.087890625,-0.091796875,-2.34375,0.09375,1.1875
425,425,1727965722231,-1.0195312,0.10449219,-0.087890625,-0.4375,0.75,0.09375
426,426,1727965722271,-1.0117188,0.11230469,-0.07714844,0.96875,0.9375,0.21875
427,427,1727965722311,-1.0136719,0.1015625,-0.09375,-1.96875,0.8125,0.28125
428,428,1727965722351,-1.0107422,0.12792969,-0.083984375,-0.21875,0.9375,0.34375
429,429,1727965722391,-0.9970703,0.08886719,-0.08496094,-0.3125,-0.34375,1.625
430,430,1727965722431,-1.0097656,0.09667969,-0.078125,-1.78125,1.1875,-0.1875
431,431,1727965722471,-1.0166016,0.1171875,-0.080078125,1.6875,0.9375,0.28125
432,432,1727965722511,-0.9970703,0.109375,-0.09375,0.71875,0.875,0.78125
433,433,1727965722551,-1.0058594,0.10253906,-0.09667969,0.21875,1.4375,0.53125
434,434,1727965722591,-1.0039062,0.11621094,-0.072265625,0.59375,1.4375,0.15625
435,435,1727965722631,-1.0166016,0.11328125,-0.08496094,-2.40625,0.53125,0.53125
436,436,1727965722671,-1.0126953,0.09667969,-0.087890625,0.15625,0.40625,0.65625
437,437,1727965722711,-1.0078125,0.10253906,-0.0625,0.53125,1.0,0.65625
438,438,1727965722751,-1.0107422,0.125,-0.09863281,-0.75,-0.46875,0.40625
439,439,1727965722791,-0.9941406,0.103515625,-0.099609375,1.3125,1.3125,0.65625
440,440,1727965722831,-1.0048828,0.12792969,-0.07421875,-2.59375,1.3125,0.21875
441,441,1727965722871,-1.0009766,0.103515625,-0.07519531,-2.71875,-0.34375,1.3125
442,442,1727965722911,-1.0107422,0.11035156,-0.09472656,-2.28125,-0.09375,0.09375
443,443,1727965722951,-1.0058594,0.11230469,-0.091796875,0.34375,-0.09375,0.84375
444,444,1727965722991,-1.0009766,0.10546875,-0.10058594,-0.3125,-0.03125,0.34375
445,445,1727965723031,-0.99902344,0.12109375,-0.10644531,-0.5,0.21875,0.34375
446,446,1727965723071,-1.0097656,0.11816406,-0.08203125,-2.21875,0.59375,0.90625
447,447,1727965723111,-1.0136719,0.09863281,-0.09667969,-1.375,0.15625,0.84375
448,448,1727965723151,-1.0029297,0.107421875,-0.08300781,0.15625,0.34375,0.34375
449,449,1727965723191,-0.99609375,0.119140625,-0.087890625,0.28125,0.09375,0.65625
450,450,1727965723231,-1.0048828,0.12402344,-0.08300781,-0.25,0.15625,0.59375
451,451,1727965723271,-1.0048828,0.103515625,-0.078125,0.09375,0.8125,0.65625
452,452,1727965723311,-1.0117188,0.10839844,-0.091796875,0.15625,-0.09375,0.59375
453,453,1727965723351,-1.0009766,0.107421875,-0.08496094,1.1875,0.46875,0.71875
454,454,1727965723391,-1.015625,0.111328125,-0.087890625,1.6875,0.28125,-0.03125
455,455,1727965723431,-1.0107422,0.119140625,-0.08105469,-0.09375,0.53125,0.09375
456,456,1727965723471,-1.0126953,0.123046875,-0.08496094,-0.09375,0.59375,0.71875
457,457,1727965723511,-1.0029297,0.09472656,-0.095703125,-0.15625,-0.53125,1.03125
458,458,1727965723551,-1.0087891,0.115234375,-0.1015625,-0.15625,0.40625,0.03125
459,459,1727965723591,-1.0039062,0.12402344,-0.1015625,0.96875,0.21875,0.46875
460,460,1727965723631,-1.0087891,0.11328125,-0.076171875,-0.625,0.21875,0.53125
461,461,1727965723671,-1.0087891,0.11230469,-0.0859375,-0.875,-0.15625,0.71875
462,462,1727965723711,-1.0058594,0.10449219,-0.08105469,0.78125,-0.46875,0.40625
463,463,1727965723751,-1.0019531,0.119140625,-0.09277344,0.40625,-0.34375,-0.3125
464,464,1727965723791,-1.0107422,0.12792969,-0.08886719,1.25,0.65625,0.28125
465,465,1727965723831,-1.0097656,0.115234375,-0.0859375,0.28125,-0.53125,1.09375
466,466,1727965723871,-1.0078125,0.10449219,-0.095703125,-1.0,-0.21875,0.09375
467,467,1727965723911,-1.015625,0.123046875,-0.08984375,0.90625,0.03125,0.15625
468,468,1727965723951,-0.99609375,0.10839844,-0.08300781,-1.5,-0.625,0.59375
469,469,1727965723991,-1.0009766,0.11035156,-0.0859375,0.34375,-0.21875,0.15625
470,470,1727965724031,-1.0126953,0.13085938,-0.0859375,-0.3125,-0.40625,0.15625
471,471,1727965724071,-1.0048828,0.10449219,-0.07421875,-1.5,-0.15625,0.53125
472,472,1727965724111,-1.0097656,0.103515625,-0.083984375,0.59375,0.03125,-0.09375
473,473,1727965724151,-1.0078125,0.12109375,-0.08496094,-0.5625,-0.53125,-0.25
474,474,1727965724191,-1.0097656,0.11230469,-0.08203125,0.40625,-0.40625,0.40625
475,475,1727965724231,-1.0107422,0.11425781,-0.087890625,0.46875,0.28125,0.21875
476,476,1727965724271,-1.0078125,0.10058594,-0.087890625,0.34375,-0.59375,0.15625
477,477,1727965724311,-1.0039062,0.1171875,-0.07421875,0.71875,0.40625,-0.03125
478,478,1727965724351,-1.0146484,0.119140625,-0.08691406,0.71875,-0.03125,0.28125
479,479,1727965724391,-1.0058594,0.103515625,-0.07910156,0.65625,0.03125,0.59375
480,480,1727965724431,-1.0117188,0.11230469,-0.08984375,-0.8125,-0.21875,-0.15625
481,481,1727965724471,-1.0039062,0.11816406,-0.06933594,0.09375,0.46875,0.03125
482,482,1727965724511,-1.0185547,0.10839844,-0.08984375,0.03125,-0.625,0.71875
483,483,1727965724551,-1.0019531,0.10644531,-0.072265625,-0.03125,0.28125,-0.25
484,484,1727965724591,-1.0048828,0.11621094,-0.08105469,-0.375,-0.03125,0.09375
485,485,1727965724631,-1.0039062,0.119140625,-0.08886719,0.28125,0.15625,0.21875
486,486,1727965724671,-1.015625,0.09277344,-0.08203125,-0.625,0.03125,0.28125
487,487,1727965724711,-1.0175781,0.123046875,-0.07324219,-0.6875,0.28125,-0.1875
488,488,1727965724751,-1.0126953,0.115234375,-0.080078125,0.21875,-0.15625,0.90625
489,489,1727965724791,-1.0175781,0.103515625,-0.09082031,-0.21875,0.46875,0.09375
490,490,1727965724831,-1.0117188,0.107421875,-0.0859375,-0.21875,0.59375,-0.15625
491,491,1727965724871,-1.0097656,0.111328125,-0.07421875,-1.0,-0.21875,0.09375
492,492,1727965724911,-1.0048828,0.10253906,-0.07519531,0.03125,0.15625,0.71875
493,493,1727965724951,-1.0078125,0.1015625,-0.07714844,1.3125,0.28125,0.34375
494,494,1727965724991,-1.015625,0.12207031,-0.08886719,0.09375,0.21875,-0.15625
495,495,1727965725031,-1.0205078,0.12207031,-0.08203125,0.90625,0.34375,0.65625
496,496,1727965725071,-1.0009766,0.103515625,-0.10449219,-0.75,0.34375,0.46875
497,497,1727965725111,-1.0107422,0.11035156,-0.06640625,0.09375,0.15625,0.21875
498,498,1727965725151,-1.0039062,0.11328125,-0.080078125,0.15625,0.65625,0.21875
499,499,1727965725191,-1.0048828,0.09472656,-0.061523438,-0.4375,-0.09375,0.59375
500,500,1727965725231,-1.0166016,0.111328125,-0.095703125,0.96875,0.46875,0.09375
501,501,1727965725271,-1.0058594,0.12109375,-0.083984375,-2.34375,-0.28125,0.59375
502,502,1727965725311,-1.0087891,0.12109375,-0.08886719,0.71875,0.53125,0.53125
503,503,1727965725351,-1.0039062,0.10839844,-0.06738281,-1.4375,0.28125,0.40625
504,504,1727965725391,-1.0166016,0.11816406,-0.09375,-1.375,0.21875,0.46875
505,505,1727965725431,-1.0039062,0.11035156,-0.07324219,-1.0625,0.75,0.28125
506,506,1727965725471,-1.0019531,0.11328125,-0.091796875,-2.15625,0.75,0.65625
507,507,1727965725511,-1.0087891,0.109375,-0.078125,-0.4375,0.09375,0.90625
508,508,1727965725551,-1.0107422,0.10644531,-0.09277344,-0.03125,0.59375,0.65625
509,509,1727965725591,-0.9980469,0.11425781,-0.08300781,-1.3125,0.03125,0.40625
510,510,1727965725631,-1.0078125,0.11621094,-0.059570312,-0.25,-0.15625,0.78125
511,511,1727965725671,-1.0039062,0.119140625,-0.091796875,-0.3125,-0.40625,0.78125
512,512,1727965725711,-1.0029297,0.08496094,-0.095703125,1.875,0.09375,1.09375
513,513,1727965725751,-1.0029297,0.11816406,-0.07128906,0.59375,0.75,-0.8125
514,514,1727965725791,-1.0029297,0.13183594,-0.072265625,2.1875,0.28125,1.125
515,515,1727965725831,-1.0175781,0.10839844,-0.072265625,0.46875,0.46875,0.46875
516,516,1727965725871,-1.0019531,0.12011719,-0.07128906,1.1875,0.28125,0.21875
517,517,1727965725911,-0.99902344,0.10839844,-0.09667969,1.0625,-0.34375,0.46875
518,518,1727965725951,-1.0136719,0.13476562,-0.076171875,1.125,0.59375,-0.03125
519,519,1727965725991,-1.0087891,0.119140625,-0.09472656,-1.5,0.34375,0.65625
520,520,1727965726031,-1.0136719,0.10546875,-0.078125,0.15625,0.40625,0.15625
521,521,1727965726071,-1.0048828,0.12597656,-0.08105469,-1.59375,0.15625,-0.03125
522,522,1727965726111,-1.0097656,0.09765625,-0.099609375,0.78125,-0.21875,0.53125
523,523,1727965726151,-1.0107422,0.12695312,-0.059570312,-0.375,0.46875,-0.15625
524,524,1727965726191,-1.0058594,0.1171875,-0.07421875,-1.5,0.875,0.53125
525,525,1727965726231,-1.0126953,0.11328125,-0.091796875,0.03125,-0.09375,0.28125
526,526,1727965726271,-1.0136719,0.099609375,-0.07421875,0.21875,1.0,0.40625
527,527,1727965726311,-1.0107422,0.11621094,-0.08300781,-1.25,0.40625,-0.3125
528,528,1727965726351,-1.0019531,0.115234375,-0.07421875,2.71875,0.8125,0.90625
529,529,1727965726391,-1.0068359,0.10449219,-0.10058594,-0.625,-0.40625,0.34375
530,530,1727965726431,-1.0107422,0.109375,-0.08984375,2.0,0.34375,-0.03125
531,531,1727965726471,-1.0097656,0.115234375,-0.087890625,1.25,0.21875,0.09375
532,532,1727965726511,-1.0097656,0.11621094,-0.09082031,-0.21875,0.53125,0.28125
533,533,1727965726551,-1.0058594,0.13769531,-0.08300781,0.03125,0.03125,0.59375
534,534,1727965726591,-1.0029297,0.11328125,-0.09082031,0.15625,0.40625,0.96875
535,535,1727965726631,-1.0087891,0.107421875,-0.08105469,-0.8125,0.28125,0.15625
536,536,1727965726671,-1.0078125,0.10253906,-0.083984375,-0.09375,0.65625,0.40625
537,537,1727965726711,-1.0136719,0.125,-0.08984375,0.34375,0.21875,0.46875
538,538,1727965726751,-1.0068359,0.11035156,-0.076171875,0.09375,0.65625,0.84375
539,539,1727965726791,-1.0214844,0.109375,-0.107421875,-1.1875,-0.15625,0.03125
540,540,1727965726831,-1.015625,0.10839844,-0.07714844,1.75,0.53125,0.84375
541,541,1727965726871,-1.0039062,0.115234375,-0.099609375,-0.4375,0.09375,0.09375
542,542,1727965726911,-1.0078125,0.1171875,-0.080078125,0.46875,0.71875,0.59375
543,543,1727965726951,-1.0078125,0.109375,-0.08984375,0.78125,0.28125,0.65625
544,544,1727965726991,-1.0185547,0.111328125,-0.08691406,0.71875,0.09375,0.40625
545,545,1727965727031,-1.0019531,0.123046875,-0.087890625,0.46875,0.34375,-0.03125
546,546,1727965727071,-1.0029297,0.12695312,-0.09472656,0.46875,0.09375,0.65625
547,547,1727965727111,-0.9970703,0.1171875,-0.08300781,-0.625,0.46875,0.46875
548,548,1727965727151,-1.0097656,0.11230469,-0.08203125,0.78125,0.21875,-0.03125
549,549,1727965727191,-1.0136719,0.12109375,-0.08984375,0.40625,-0.40625,0.21875
550,550,1727965727231,-1.0058594,0.1171875,-0.06933594,-0.09375,0.53125,0.28125
551,551,1727965727271,-1.0078125,0.12011719,-0.08984375,-1.0625,-0.21875,0.15625
552,552,1727965727311,-1.0078125,0.11425781,-0.08203125,0.21875,-0.15625,0.46875
553,553,1727965727351,-1.0117188,0.115234375,-0.06933594,-0.9375,0.09375,0.28125
554,554,1727965727391,-1.0097656,0.10839844,-0.07714844,-0.3125,0.34375,0.46875
555,555,1727965727431,-1.0058594,0.12597656,-0.0859375,0.40625,-0.28125,0.03125
556,556,1727965727471,-1.0039062,0.10546875,-0.06933594,0.71875,-0.03125,0.90625
557,557,1727965727511,-1.0078125,0.10839844,-0.09667969,0.71875,0.15625,-0.03125
558,558,1727965727551,-1.0136719,0.125,-0.080078125,0.65625,0.03125,0.15625
559,559,1727965727591,-1.0009766,0.099609375,-0.09472656,1.625,-0.40625,0.65625
560,560,1727965727631,-1.0078125,0.12109375,-0.07519531,0.09375,-0.21875,-0.3125
561,561,1727965727671,-1.0097656,0.11328125,-0.08984375,-0.15625,-0.625,0.40625
562,562,1727965727711,-1.0048828,0.115234375,-0.08300781,1.03125,-0.59375,0.40625
563,563,1727965727751,-1.0078125,0.11035156,-0.083984375,-2.03125,-0.34375,-0.09375
564,564,1727965727791,-1.0048828,0.12695312,-0.09082031,-0.625,-0.53125,-0.15625
565,565,1727965727831,-1.0126953,0.1171875,-0.08496094,0.03125,-0.53125,0.78125
566,566,1727965727871,-1.0087891,0.103515625,-0.07324219,-2.40625,0.03125,-0.03125
567,567,1727965727911,-1.0166016,0.11816406,-0.07421875,0.09375,-0.46875,-0.03125
568,568,1727965727951,-1.0087891,0.11328125,-0.095703125,0.28125,-0.40625,0.21875
569,569,1727965727991,-1.0029297,0.11328125,-0.068359375,-1.5625,0.40625,-0.09375
570,570,1727965728031,-1.0078125,0.11328125,-0.08300781,0.09375,0.28125,0.09375
571,571,1727965728071,-1.0058594,0.1171875,-0.09082031,-1.25,-0.34375,0.15625
572,572,1727965728111,-1.0107422,0.111328125,-0.0859375,1.03125,-0.03125,0.15625
573,573,1727965728151,-1.0087891,0.11035156,-0.09082031,0.65625,-0.21875,0.21875
574,574,1727965728191,-1.0039062,0.11230469,-0.07519531,-0.6875,0.75,0.09375
575,575,1727965728231,-1.0136719,0.111328125,-0.087890625,0.46875,-0.34375,0.53125
576,576,1727965728271,-1.0048828,0.10839844,-0.076171875,-0.21875,0.34375,0.09375
577,577,1727965728311,-1.0078125,0.12695312,-0.07421875,-0.6875,0.40625,-0.15625
578,578,1727965728351,-0.99902344,0.099609375,-0.076171875,-1.25,-0.6875,0.71875
579,579,1727965728391,-1.0058594,0.119140625,-0.07421875,0.09375,1.0,0.09375
580,580,1727965728431,-1.0078125,0.1171875,-0.07421875,-1.0,0.34375,0.21875
581,581,1727965728471,-1.0097656,0.11621094,-0.080078125,-0.8125,-0.15625,0.40625
582,582,1727965728511,-1.0009766,0.10839844,-0.078125,-0.6875,0.46875,0.28125
583,583,1727965728551,-1.0126953,0.11230469,-0.07421875,-0.25,0.34375,0.28125
584,584,1727965728591,-1.0117188,0.11816406,-0.07421875,-0.875,1.125,0.09375
585,585,1727965728631,-1.0078125,0.10449219,-0.08203125,-0.875,-0.03125,0.28125
586,586,1727965728671,-1.0097656,0.109375,-0.06933594,0.09375,0.46875,0.28125
587,587,1727965728711,-1.0097656,0.125,-0.08105469,-0.9375,0.34375,0.40625
588,588,1727965728751,-1.0048828,0.115234375,-0.099609375,-0.5625,0.28125,0.53125
589,589,1727965728791,-1.0175781,0.111328125,-0.07714844,0.84375,0.53125,0.34375
590,590,1727965728831,-1.015625,0.115234375,-0.06542969,-0.875,0.21875,0.15625
591,591,1727965728871,-1.0126953,0.10449219,-0.09082031,-0.9375,-0.03125,0.15625
592,592,1727965728911,-1.0058594,0.10644531,-0.08496094,0.90625,-0.15625,0.53125
593,593,1727965728951,-1.0117188,0.115234375,-0.08203125,-0.15625,-0.40625,0.03125
594,594,1727965728991,-1.0078125,0.109375,-0.078125,0.09375,0.53125,-0.03125
595,595,1727965729031,-1.0097656,0.115234375,-0.072265625,0.15625,-0.28125,0.28125
596,596,1727965729071,-1.0136719,0.11035156,-0.08984375,0.09375,0.46875,0.34375
597,597,1727965729111,-1.0078125,0.109375,-0.07714844,0.40625,0.09375,-0.09375
598,598,1727965729151,-0.99609375,0.12109375,-0.07519531,-0.375,-0.21875,-0.4375
599,599,1727965729191,-1.0107422,0.125,-0.08496094,-0.625,0.46875,-0.375
600,600,1727965729231,-1.0029297,0.1015625,-0.07324219,0.59375,-0.03125,0.65625
601,601,1727965729271,-1.0175781,0.10839844,-0.087890625,0.65625,0.21875,-0.375
602,602,1727965729311,-1.0107422,0.11328125,-0.07128906,-0.21875,0.46875,-0.03125
603,603,1727965729351,-1.0087891,0.115234375,-0.08105469,0.15625,-0.03125,0.15625
604,604,1727965729391,-1.0058594,0.09863281,-0.08203125,-1.125,0.34375,-0.25
605,605,1727965729431,-1.015625,0.1171875,-0.08203125,-0.03125,-0.03125,-0.3125
606,606,1727965729471,-0.9980469,0.12011719,-0.09082031,0.59375,0.15625,0.46875
607,607,1727965729511,-1.0,0.11621094,-0.055664062,-1.3125,0.75,-0.03125
608,608,1727965729551,-1.0107422,0.10253906,-0.08203125,-0.8125,0.09375,0.21875
609,609,1727965729591,-1.0009766,0.119140625,-0.078125,-0.8125,-0.15625,0.21875
610,610,1727965729631,-1.0117188,0.115234375,-0.0859375,-0.5625,-0.21875,0.34375
611,611,1727965729671,-1.0195312,0.10644531,-0.078125,-0.625,0.28125,0.28125
612,612,1727965729711,-1.0058594,0.119140625,-0.083984375,0.03125,0.15625,0.15625
613,613,1727965729751,-1.0126953,0.11328125,-0.059570312,0.59375,-0.03125,0.40625
614,614,1727965729791,-1.0058594,0.103515625,-0.076171875,-1.59375,0.65625,-0.375
615,615,1727965729831,-1.0126953,0.11621094,-0.06542969,-1.71875,0.21875,-0.15625
616,616,1727965729871,-1.0087891,0.10644531,-0.091796875,-0.25,-0.09375,0.71875
617,617,1727965729911,-1.0087891,0.10546875,-0.07324219,-0.15625,0.75,-0.03125
618,618,1727965729951,-1.0,0.12011719,-0.076171875,-2.15625,0.40625,-0.375
619,619,1727965729991,-1.0107422,0.11328125,-0.08886719,-0.625,0.53125,0.03125
620,620,1727965730031,-1.0029297,0.107421875,-0.06933594,-1.25,-0.28125,0.21875
621,621,1727965730071,-1.0039062,0.10839844,-0.08105469,-1.96875,0.28125,0.09375
622,622,1727965730111,-1.015625,0.09375,-0.083984375,-0.8125,0.34375,-0.1875
623,623,1727965730151,-1.0039062,0.11230469,-0.083984375,-1.0625,0.21875,-0.5
624,624,1727965730191,-1.0097656,0.11621094,-0.06640625,-0.09375,0.34375,0.28125
625,625,1727965730231,-1.0048828,0.111328125,-0.08496094,-0.21875,0.03125,-0.09375
626,626,1727965730271,-1.0058594,0.09667969,-0.07421875,-0.625,0.28125,-0.03125
627,627,1727965730311,-1.0039062,0.11035156,-0.064453125,0.40625,0.75,-0.03125
628,628,1727965730351,-1.0078125,0.099609375,-0.08203125,1.25,-0.15625,0.09375
629,629,1727965730391,-1.0078125,0.107421875,-0.07128906,1.75,0.15625,-0.15625
630,630,1727965730431,-1.0146484,0.091796875,-0.09082031,0.84375,-0.34375,0.03125
631,631,1727965730471,-1.0029297,0.103515625,-0.07714844,1.0625,0.15625,-0.1875
632,632,1727965730511,-1.0058594,0.1015625,-0.072265625,2.0625,0.71875,0.40625
633,633,1727965730551,-1.0175781,0.10546875,-0.07128906,0.90625,0.8125,0.28125
634,634,1727965730591,-1.0068359,0.109375,-0.09375,1.0625,-0.03125,0.46875
635,635,1727965730631,-1.0117188,0.107421875,-0.080078125,1.8125,-0.03125,1.03125
636,636,1727965730671,-1.0097656,0.10644531,-0.09375,0.46875,-0.03125,-0.03125
637,637,1727965730711,-1.0048828,0.11621094,-0.08203125,0.34375,0.15625,0.15625
638,638,1727965730751,-1.0136719,0.10058594,-0.064453125,-0.15625,0.03125,0.90625
639,639,1727965730791,-1.0146484,0.10449219,-0.0703125,-1.25,-0.28125,0.21875
640,640,1727965730831,-1.0117188,0.109375,-0.08203125,-0.21875,-0.28125,0.59375
641,641,1727965730871,-1.0058594,0.115234375,-0.083984375,0.28125,0.46875,0.21875
642,642,1727965730911,-1.0107422,0.10644531,-0.060546875,-1.1875,-0.15625,0.84375
643,643,1727965730951,-1.015625,0.09667969,-0.080078125,-0.3125,0.09375,0.84375
644,644,1727965730991,-1.0107422,0.111328125,-0.080078125,-0.21875,-0.15625,0.46875
645,645,1727965731031,-1.0097656,0.095703125,-0.07714844,-0.375,-0.21875,0.84375
646,646,1727965731071,-0.99902344,0.10546875,-0.08105469,-1.125,0.15625,0.34375
647,647,1727965731111,-1.0058594,0.111328125,-0.07910156,0.40625,-0.40625,0.53125
648,648,1727965731151,-1.0146484,0.11328125,-0.08691406,0.59375,-0.40625,0.78125
649,649,1727965731191,-1.0029297,0.09863281,-0.09277344,-0.21875,-0.09375,0.71875
650,650,1727965731231,-1.0126953,0.109375,-0.060546875,0.15625,-0.03125,0.59375
651,651,1727965731271,-1.0214844,0.107421875,-0.07324219,1.3125,-0.03125,0.78125
652,652,1727965731311,-1.0136719,0.12207031,-0.07324219,-0.5625,-0.53125,0.46875
653,653,1727965731351,-0.9941406,0.10058594,-0.080078125,0.40625,-0.40625,0.84375
654,654,1727965731391,-1.0107422,0.11425781,-0.07910156,0.03125,-0.03125,0.15625
655,655,1727965731431,-1.0117188,0.10253906,-0.076171875,0.34375,-0.09375,0.90625
656,656,1727965731471,-1.0048828,0.10253906,-0.06933594,0.46875,-0.40625,0.59375
657,657,1727965731511,-1.0117188,0.10253906,-0.06738281,0.90625,-0.09375,0.28125
658,658,1727965731551,-1.0087891,0.10253906,-0.07910156,0.65625,-0.875,0.90625
659,659,1727965731591,-1.0126953,0.109375,-0.08105469,0.15625,-0.34375,0.53125
660,660,1727965731631,-1.015625,0.12207031,-0.0625,-0.03125,0.21875,0.34375
661,661,1727965731671,-1.0205078,0.109375,-0.08691406,0.21875,-0.8125,0.71875
662,662,1727965731711,-1.0058594,0.107421875,-0.072265625,0.53125,0.03125,0.59375
663,663,1727965731751,-1.0029297,0.11621094,-0.07910156,-0.03125,-0.6875,0.21875
664,664,1727965731791,-1.0048828,0.11621094,-0.0859375,0.03125,-0.875,0.59375
665,665,1727965731831,-1.0087891,0.119140625,-0.08300781,0.71875,-0.21875,0.65625
666,666,1727965731871,-1.0107422,0.087890625,-0.06933594,-0.625,-0.34375,0.28125
667,667,1727965731911,-1.0029297,0.103515625,-0.068359375,0.28125,-0.53125,0.03125
668,668,1727965731951,-1.0097656,0.111328125,-0.07519531,1.0625,-0.6875,-0.03125
669,669,1727965731991,-1.0126953,0.10546875,-0.055664062,0.90625,-0.9375,0.53125
670,670,1727965732031,-1.0117188,0.1015625,-0.08203125,0.21875,-0.53125,0.40625
671,671,1727965732071,-1.0107422,0.111328125,-0.06738281,-0.15625,-0.53125,0.28125
672,672,1727965732111,-1.0136719,0.09765625,-0.0625,1.0625,-0.53125,0.59375
673,673,1727965732151,-1.0195312,0.10253906,-0.06347656,0.09375,-0.59375,-0.375
674,674,1727965732191,-1.015625,0.10449219,-0.064453125,1.125,-1.0625,0.53125
675,675,1727965732231,-1.0166016,0.10253906,-0.08203125,1.4375,-1.1875,0.40625
676,676,1727965732271,-1.0048828,0.09765625,-0.07128906,3.03125,-0.8125,0.34375
677,677,1727965732311,-1.0058594,0.09667969,-0.052734375,1.9375,-1.125,-0.1875
678,678,1727965732351,-1.0107422,0.11621094,-0.05078125,0.40625,-0.9375,0.15625
679,679,1727965732391,-1.0068359,0.10449219,-0.078125,2.3125,-1.5,0.84375
680,680,1727965732431,-1.0117188,0.103515625,-0.07519531,1.3125,-0.9375,0.46875
681,681,1727965732471,-1.0126953,0.12011719,-0.06542969,1.125,0.40625,-0.1875
682,682,1727965732511,-1.0058594,0.08105469,-0.10546875,3.59375,-2.34375,1.09375
683,683,1727965732551,-1.015625,0.1328125,-0.028320312,-2.28125,4.3125,-2.46875
684,684,1727965732591,-0.9970703,0.12988281,-0.08105469,-0.4375,-1.4375,1.03125
685,685,1727965732631,-1.0322266,0.08300781,-0.053710938,0.78125,0.875,1.9375
686,686,1727965732671,-1.0117188,0.083984375,-0.08496094,-3.125,-1.6875,0.03125
687,687,1727965732711,-1.0058594,0.10449219,-0.0546875,2.125,-1.5625,-0.15625
688,688,1727965732751,-1.0126953,0.11621094,-0.034179688,1.5,0.15625,-0.03125
689,689,1727965732791,-1.0097656,0.10644531,-0.061523438,0.03125,-0.53125,0.59375
690,690,1727965732831,-1.0214844,0.087890625,-0.06347656,0.90625,0.03125,0.40625
691,691,1727965732871,-1.0087891,0.11035156,-0.060546875,0.03125,0.21875,0.15625
692,692,1727965732911,-1.0078125,0.10449219,-0.08691406,0.53125,-0.34375,-0.03125
693,693,1727965732951,-1.0097656,0.09863281,-0.057617188,0.09375,-0.21875,0.65625
694,694,1727965732991,-1.0087891,0.10839844,-0.072265625,-0.3125,-0.75,1.03125
695,695,1727965733031,-1.0107422,0.099609375,-0.07324219,0.59375,-0.03125,0.53125
696,696,1727965733071,-1.0136719,0.11328125,-0.047851562,0.03125,0.03125,0.34375
697,697,1727965733111,-1.015625,0.095703125,-0.06640625,0.46875,-0.46875,0.65625
698,698,1727965733151,-1.0068359,0.125,-0.06738281,0.53125,-0.15625,-0.15625
699,699,1727965733191,-1.0039062,0.109375,-0.047851562,0.59375,-0.59375,0.84375
700,700,1727965733231,-1.0097656,0.09472656,-0.07324219,-0.9375,-0.28125,0.28125
701,701,1727965733271,-1.0107422,0.11035156,-0.05859375,-0.4375,-0.9375,0.28125
702,702,1727965733311,-1.0117188,0.115234375,-0.049804688,-1.375,0.15625,0.34375
703,703,1727965733351,-1.0019531,0.10839844,-0.078125,-0.5625,-1.125,0.90625
704,704,1727965733391,-1.0175781,0.09277344,-0.061523438,0.40625,-0.34375,0.46875
705,705,1727965733431,-1.0107422,0.109375,-0.040039062,-1.4375,-0.28125,0.09375
706,706,1727965733471,-1.0107422,0.099609375,-0.080078125,-0.21875,-1.6875,0.90625
707,707,1727965733511,-1.0087891,0.099609375,-0.040039062,0.84375,-0.15625,0.28125
708,708,1727965733551,-1.0185547,0.11230469,-0.059570312,-1.3125,-1.875,0.65625
709,709,1727965733591,-1.0009766,0.087890625,-0.060546875,0.84375,0.09375,0.46875
710,710,1727965733631,-1.0029297,0.103515625,-0.07519531,-0.25,-1.125,0.65625
711,711,1727965733671,-1.0214844,0.11328125,-0.048828125,0.03125,0.15625,0.59375
712,712,1727965733711,-1.0087891,0.09277344,-0.06738281,-0.3125,-1.1875,1.25
713,713,1727965733751,-1.0107422,0.09375,-0.037109375,0.59375,-0.40625,0.59375
714,714,1727965733791,-1.0097656,0.115234375,-0.043945312,0.09375,-0.15625,0.59375
715,715,1727965733831,-1.0078125,0.10839844,-0.076171875,0.90625,-2.65625,0.90625
716,716,1727965733871,-1.0166016,0.103515625,-0.0390625,3.15625,-0.59375,0.78125
717,717,1727965733911,-1.0117188,0.09863281,-0.051757812,-1.1875,-1.0,0.09375
718,718,1727965733951,-1.0097656,0.12011719,-0.0546875,1.625,-0.9375,0.40625
719,719,1727965733991,-1.0029297,0.11328125,-0.048828125,0.15625,-0.6875,0.71875
720,720,1727965734031,-1.0078125,0.1171875,-0.07714844,-0.625,-1.5,0.46875
721,721,1727965734071,-1.0097656,0.11621094,-0.034179688,0.59375,0.65625,0.09375
722,722,1727965734111,-1.0146484,0.103515625,-0.0625,-1.5625,-1.625,0.34375
723,723,1727965734151,-1.0185547,0.1015625,-0.059570312,-0.8125,-1.0,0.53125
724,724,1727965734191,-1.0039062,0.11328125,-0.0390625,-1.1875,-0.53125,0.28125
725,725,1727965734231,-1.015625,0.08886719,-0.045898438,-1.25,-0.46875,0.40625
726,726,1727965734271,-1.0166016,0.111328125,-0.055664062,-0.6875,-0.625,-0.875
727,727,1727965734311,-1.0019531,0.09277344,-0.056640625,0.40625,-1.0,0.09375
728,728,1727965734351,-1.015625,0.10839844,-0.05078125,-2.03125,0.15625,-0.8125
729,729,1727965734391,-1.0136719,0.12011719,-0.052734375,-1.96875,-0.6875,0.28125
730,730,1727965734431,-1.0175781,0.10253906,-0.037109375,-0.4375,-1.125,0.78125
731,731,1727965734471,-1.0195312,0.10449219,-0.041015625,-1.84375,0.09375,-0.3125
732,732,1727965734511,-1.0068359,0.10058594,-0.038085938,-1.375,-0.59375,0.28125
733,733,1727965734551,-1.0166016,0.10449219,-0.049804688,-1.0,-1.8125,0.59375
734,734,1727965734591,-1.0234375,0.099609375,-0.036132812,0.09375,-0.15625,0.59375
735,735,1727965734631,-1.0078125,0.099609375,-0.052734375,-0.75,-1.1875,0.28125
736,736,1727965734671,-1.0009766,0.10253906,-0.02734375,-0.875,-0.09375,0.09375
737,737,1727965734711,-1.0166016,0.107421875,-0.043945312,-0.15625,-1.625,0.46875
738,738,1727965734751,-1.0107422,0.11328125,-0.026367188,0.78125,0.75,0.34375
739,739,1727965734791,-1.0136719,0.08886719,-0.052734375,-0.3125,-1.375,0.84375
740,740,1727965734831,-1.0214844,0.103515625,-0.03125,0.84375,-0.21875,0.28125
741,741,1727965734871,-1.0009766,0.099609375,-0.046875,0.96875,-0.46875,0.90625
742,742,1727965734911,-1.0009766,0.099609375,-0.034179688,-0.5,-1.25,0.34375
743,743,1727965734951,-0.9941406,0.11328125,-0.041015625,0.59375,-0.75,0.65625
744,744,1727965734991,-1.0166016,0.10839844,-0.045898438,0.40625,-0.625,0.71875
745,745,1727965735031,-1.0185547,0.10644531,-0.0390625,-0.5625,0.09375,0.34375
746,746,1727965735071,-1.0078125,0.09375,-0.033203125,1.0625,-0.21875,1.03125
747,747,1727965735111,-1.0244141,0.10449219,-0.026367188,0.15625,0.40625,0.40625
748,748,1727965735151,-1.0048828,0.10644531,-0.051757812,-0.5625,-1.6875,0.78125
749,749,1727965735191,-1.0068359,0.10449219,-0.025390625,1.0625,0.65625,0.65625
750,750,1727965735231,-1.015625,0.10253906,-0.03125,-1.0,-0.46875,0.53125
751,751,1727965735271,-1.0185547,0.099609375,-0.026367188,0.65625,1.125,0.40625
752,752,1727965735311,-1.0195312,0.111328125,-0.05078125,-0.375,-1.5,0.34375
753,753,1727965735351,-1.0048828,0.099609375,-0.0234375,0.96875,0.9375,0.65625
754,754,1727965735391,-1.0166016,0.11328125,-0.026367188,-1.5625,0.03125,-0.15625
755,755,1727965735431,-1.0097656,0.09667969,-0.04296875,1.875,0.34375,0.84375
756,756,1727965735471,-1.0126953,0.09667969,-0.03125,0.34375,-0.28125,-0.03125
757,757,1727965735511,-1.0185547,0.11816406,-0.034179688,2.53125,-1.3125,0.71875
758,758,1727965735551,-1.0097656,0.1015625,-0.045898438,1.8125,-0.625,1.1875
759,759,1727965735591,-1.0205078,0.115234375,-0.043945312,0.65625,-0.28125,0.28125
