,Unnamed: 0,timestamp,accel_x,accel_y,accel_z,gyro_x,gyro_y,gyro_z
0,0,1727965562704,0.31445312,0.24902344,0.9189453,0.125,-0.03125,1.46875
1,1,1727965562744,0.31445312,0.24902344,0.9316406,0.25,-0.21875,1.03125
2,2,1727965562784,0.31054688,0.24023438,0.9238281,0.1875,-0.46875,0.0625
3,3,1727965562824,0.31347656,0.2529297,0.9404297,0.125,0.09375,-0.53125
4,4,1727965562864,0.31152344,0.24902344,0.92578125,0.5,-0.40625,-1.21875
5,5,1727965562904,0.3125,0.25390625,0.9345703,-0.15625,0.03125,-1.15625
6,6,1727965562944,0.30664062,0.25683594,0.9375,-0.46875,-0.5,-1.09375
7,7,1727965562984,0.3173828,0.26171875,0.9355469,-1.875,-0.21875,-0.90625
8,8,1727965563024,0.3125,0.25195312,0.93652344,-0.96875,-1.25,0.0
9,9,1727965563064,0.328125,0.2548828,0.9296875,-1.4375,-0.40625,0.5
10,10,1727965563104,0.32617188,0.25878906,0.9248047,0.375,-0.21875,0.4375
11,11,1727965563144,0.32226562,0.25390625,0.9267578,0.1875,0.78125,1.09375
12,12,1727965563184,0.31152344,0.25390625,0.9355469,1.0,0.46875,1.71875
13,13,1727965563224,0.31835938,0.24511719,0.9238281,-0.21875,-0.09375,1.40625
14,14,1727965563264,0.3046875,0.24023438,0.93652344,-0.28125,0.53125,1.21875
15,15,1727965563304,0.32128906,0.2529297,0.9326172,0.5625,0.21875,1.0
16,16,1727965563344,0.3173828,0.25097656,0.92871094,-0.03125,0.21875,0.875
17,17,1727965563384,0.3154297,0.24414062,0.92285156,-0.09375,-0.09375,0.5
18,18,1727965563424,0.3125,0.2529297,0.9267578,-0.03125,-0.03125,0.25
19,19,1727965563464,0.31152344,0.25,0.91796875,0.03125,0.09375,0.25
20,20,1727965563504,0.30859375,0.24316406,0.9355469,-0.21875,-0.03125,0.375
21,21,1727965563544,0.31835938,0.24316406,0.9326172,-0.46875,0.09375,0.3125
22,22,1727965563584,0.31152344,0.2421875,0.93359375,0.125,0.34375,-0.25
23,23,1727965563624,0.3095703,0.2529297,0.92285156,-0.21875,-0.09375,-0.1875
24,24,1727965563664,0.30664062,0.26171875,0.9394531,-0.40625,-0.5625,0.375
25,25,1727965563704,0.32226562,0.24316406,0.92871094,-0.15625,0.28125,0.5
26,26,1727965563744,0.3203125,0.24121094,0.92871094,0.125,0.15625,0.6875
27,27,1727965563784,0.3095703,0.24902344,0.9316406,0.4375,0.53125,0.4375
28,28,1727965563824,0.3095703,0.25097656,0.93066406,-0.15625,-0.09375,-0.1875
29,29,1727965563864,0.30273438,0.24902344,0.9404297,-0.03125,-0.46875,-0.28125
30,30,1727965563904,0.30566406,0.24804688,0.9316406,-3.34375,-2.03125,-1.40625
31,31,1727965563944,0.31933594,0.24804688,0.9326172,-2.65625,-0.5625,-1.15625
32,32,1727965563984,0.3232422,0.24121094,0.9277344,-0.65625,-1.4375,-1.5625
33,33,1727965564024,0.31445312,0.234375,0.93359375,-1.4375,-0.09375,-0.65625
34,34,1727965564064,0.31933594,0.24804688,0.9199219,0.25,-0.21875,-0.78125
35,35,1727965564104,0.32128906,0.2529297,0.9316406,-0.59375,-0.03125,-0.59375
36,36,1727965564144,0.31054688,0.2529297,0.921875,0.3125,1.0,-0.25
37,37,1727965564184,0.30566406,0.24316406,0.9345703,1.3125,0.21875,1.15625
38,38,1727965564224,0.31835938,0.25097656,0.9316406,2.6875,2.40625,0.5
39,39,1727965564264,0.3017578,0.24902344,0.9355469,2.59375,3.21875,0.5625
40,40,1727965564304,0.30371094,0.2548828,0.9345703,0.5,-0.03125,0.875
41,41,1727965564344,0.3154297,0.24707031,0.93066406,0.375,0.03125,1.34375
42,42,1727965564384,0.3154297,0.25097656,0.9238281,0.1875,-0.21875,0.5625
43,43,1727965564424,0.30078125,0.24414062,0.921875,0.0625,-0.5625,0.5
44,44,1727965564464,0.3125,0.2578125,0.9345703,-0.59375,-1.125,-0.0625
45,45,1727965564504,0.31445312,0.24316406,0.9277344,-1.9375,-2.71875,-0.0625
46,46,1727965564544,0.31933594,0.25097656,0.9296875,-1.6875,-2.09375,0.25
47,47,1727965564584,0.3232422,0.25683594,0.93847656,-0.46875,-1.4375,0.5625
48,48,1727965564624,0.31933594,0.24121094,0.9267578,-0.40625,-0.40625,0.75
49,49,1727965564664,0.31054688,0.24121094,0.9433594,-0.40625,-0.15625,0.875
50,50,1727965564704,0.32226562,0.2421875,0.92285156,0.03125,-0.21875,0.0625
51,51,1727965564744,0.3232422,0.25195312,0.9326172,-0.28125,-0.625,0.3125
52,52,1727965564784,0.32226562,0.24511719,0.921875,-0.34375,-0.15625,0.0625
53,53,1727965564824,0.31640625,0.24902344,0.9326172,-0.71875,-0.28125,-0.40625
54,54,1727965564864,0.31347656,0.2421875,0.9140625,-0.40625,-0.5,-0.65625
55,55,1727965564904,0.31445312,0.24414062,0.93066406,-0.96875,-0.34375,-0.25
56,56,1727965564944,0.3173828,0.24316406,0.93359375,-0.78125,-1.0,0.0
57,57,1727965564984,0.32226562,0.24121094,0.92871094,-0.53125,-0.34375,0.5625
58,58,1727965565024,0.32714844,0.23730469,0.9404297,0.03125,0.03125,0.1875
59,59,1727965565064,0.3203125,0.23242188,0.93652344,0.25,0.15625,0.5625
60,60,1727965565104,0.32226562,0.24316406,0.9238281,0.5625,0.21875,0.25
61,61,1727965565144,0.31445312,0.24316406,0.91503906,0.0625,0.28125,0.125
62,62,1727965565184,0.3232422,0.24121094,0.91503906,0.375,-0.03125,0.3125
63,63,1727965565224,0.3154297,0.23828125,0.9238281,0.03125,0.28125,0.1875
64,64,1727965565264,0.31152344,0.24902344,0.9326172,0.3125,0.15625,0.0
65,65,1727965565304,0.32617188,0.24902344,0.91015625,0.3125,0.21875,0.375
66,66,1727965565344,0.32128906,0.24707031,0.92578125,0.0625,0.21875,0.4375
67,67,1727965565384,0.3251953,0.24414062,0.93847656,0.1875,0.40625,0.1875
68,68,1727965565424,0.31933594,0.24414062,0.92285156,0.0625,0.15625,0.1875
69,69,1727965565464,0.3232422,0.24707031,0.9355469,0.03125,-0.03125,-0.125
70,70,1727965565504,0.31835938,0.23828125,0.9277344,0.0625,0.34375,0.1875
71,71,1727965565544,0.3203125,0.24414062,0.9277344,0.4375,0.09375,0.1875
72,72,1727965565584,0.32617188,0.25097656,0.9277344,0.375,0.34375,0.3125
73,73,1727965565624,0.32226562,0.24511719,0.9355469,0.3125,-0.03125,0.25
74,74,1727965565664,0.3251953,0.23535156,0.9423828,0.03125,0.21875,0.875
75,75,1727965565704,0.3203125,0.24707031,0.9238281,0.4375,0.46875,0.1875
76,76,1727965565744,0.31933594,0.25097656,0.92871094,0.0625,0.28125,0.25
77,77,1727965565784,0.32617188,0.24707031,0.921875,0.3125,0.21875,0.375
78,78,1727965565824,0.31445312,0.23632812,0.9267578,0.03125,0.28125,-0.125
79,79,1727965565864,0.31445312,0.24804688,0.93066406,0.1875,-0.03125,-0.46875
80,80,1727965565904,0.31640625,0.24707031,0.921875,0.375,0.34375,-0.46875
81,81,1727965565944,0.3173828,0.23925781,0.93359375,0.625,0.15625,0.3125
82,82,1727965565984,0.32714844,0.2529297,0.9248047,0.25,-0.21875,0.9375
83,83,1727965566024,0.31640625,0.24707031,0.9316406,0.6875,-0.09375,0.9375
84,84,1727965566064,0.31445312,0.24023438,0.9355469,0.125,0.03125,0.125
85,85,1727965566104,0.31347656,0.25,0.9404297,0.4375,0.34375,0.5
86,86,1727965566144,0.31640625,0.23828125,0.9296875,0.375,0.03125,0.375
87,87,1727965566184,0.31640625,0.24414062,0.9199219,0.375,0.34375,-0.0625
88,88,1727965566224,0.3125,0.24707031,0.9394531,0.375,0.15625,0.375
89,89,1727965566264,0.31933594,0.23730469,0.9238281,0.0625,0.09375,0.1875
90,90,1727965566304,0.3154297,0.24902344,0.9355469,0.0625,-0.03125,0.0
91,91,1727965566344,0.33496094,0.25585938,0.93652344,-0.28125,-0.21875,-0.1875
92,92,1727965566384,0.32910156,0.2421875,0.93066406,0.125,0.34375,-0.0625
93,93,1727965566424,0.32226562,0.25683594,0.92285156,0.3125,0.53125,0.0625
94,94,1727965566464,0.31933594,0.24609375,0.9296875,0.375,0.21875,0.375
95,95,1727965566504,0.32128906,0.24707031,0.92089844,0.25,-0.21875,0.375
96,96,1727965566544,0.31054688,0.25878906,0.9238281,0.3125,-0.28125,0.625
97,97,1727965566584,0.31640625,0.25097656,0.9472656,0.4375,-0.21875,0.9375
98,98,1727965566624,0.32226562,0.24511719,0.9472656,0.3125,0.15625,0.4375
99,99,1727965566664,0.31835938,0.25195312,0.9394531,0.03125,-0.15625,0.4375
100,100,1727965566704,0.32128906,0.24609375,0.92871094,0.03125,-0.15625,0.1875
101,101,1727965566744,0.3125,0.25195312,0.9345703,-0.15625,0.15625,0.125
102,102,1727965566784,0.32128906,0.25097656,0.9316406,-0.34375,0.40625,0.125
103,103,1727965566824,0.31347656,0.25195312,0.9394531,-0.59375,-0.34375,0.0625
104,104,1727965566864,0.32128906,0.23828125,0.9326172,-0.40625,-0.625,0.0
105,105,1727965566904,0.3251953,0.24511719,0.9296875,-0.34375,-0.8125,0.4375
106,106,1727965566944,0.3251953,0.24511719,0.92285156,-0.09375,-1.1875,0.75
107,107,1727965566984,0.3251953,0.24902344,0.9169922,-0.78125,-1.375,0.9375
108,108,1727965567024,0.3232422,0.24707031,0.9267578,-0.59375,-1.125,1.28125
109,109,1727965567064,0.32128906,0.24804688,0.93847656,-0.09375,-0.15625,0.8125
110,110,1727965567104,0.31933594,0.23730469,0.9267578,0.03125,0.09375,0.125
111,111,1727965567144,0.3154297,0.23828125,0.91796875,0.0625,0.78125,-0.125
112,112,1727965567184,0.32617188,0.23535156,0.92285156,-0.09375,0.15625,-0.28125
113,113,1727965567224,0.3251953,0.23925781,0.9296875,0.03125,-0.03125,-0.28125
114,114,1727965567264,0.3203125,0.25097656,0.9316406,0.5625,-0.03125,0.25
115,115,1727965567304,0.32128906,0.2548828,0.9189453,-0.03125,-0.09375,-0.25
116,116,1727965567344,0.3173828,0.2529297,0.9121094,-0.21875,-0.09375,0.0625
117,117,1727965567384,0.3232422,0.2421875,0.9238281,-0.65625,-0.03125,0.0625
118,118,1727965567424,0.31835938,0.23925781,0.92871094,0.1875,0.28125,0.0625
119,119,1727965567464,0.32128906,0.25683594,0.9482422,0.0625,0.46875,0.0625
120,120,1727965567504,0.31152344,0.23828125,0.9267578,0.3125,0.53125,0.1875
121,121,1727965567544,0.3232422,0.24511719,0.9296875,0.3125,0.53125,-0.53125
122,122,1727965567584,0.31933594,0.23925781,0.9375,0.4375,0.09375,-0.1875
123,123,1727965567624,0.328125,0.25,0.9238281,0.03125,0.03125,-0.125
124,124,1727965567664,0.31152344,0.25,0.9296875,0.6875,0.03125,0.0
125,125,1727965567704,0.32714844,0.24414062,0.92285156,0.5625,0.40625,0.0
126,126,1727965567744,0.31640625,0.2578125,0.9394531,1.375,0.8125,-0.1875
127,127,1727965567784,0.31152344,0.25097656,0.9238281,0.3125,0.21875,0.5625
128,128,1727965567824,0.32617188,0.24902344,0.93652344,-0.34375,-0.03125,0.75
129,129,1727965567864,0.31933594,0.24511719,0.91796875,-0.40625,-0.40625,0.25
130,130,1727965567904,0.31640625,0.24804688,0.9296875,-0.40625,-0.34375,0.375
131,131,1727965567944,0.32714844,0.24804688,0.9345703,-0.84375,-0.03125,0.875
132,132,1727965567984,0.32617188,0.25390625,0.92871094,-0.46875,-0.625,0.5
133,133,1727965568024,0.3232422,0.23242188,0.9482422,-0.59375,-0.09375,0.4375
134,134,1727965568064,0.3203125,0.23632812,0.92089844,-0.46875,-0.09375,-0.0625
135,135,1727965568104,0.32421875,0.24414062,0.93066406,-0.28125,-0.09375,-0.1875
136,136,1727965568144,0.32714844,0.2529297,0.91796875,-0.28125,-0.21875,0.25
137,137,1727965568184,0.3232422,0.24414062,0.9111328,-0.46875,0.09375,0.5625
138,138,1727965568224,0.3154297,0.24121094,0.9355469,-0.15625,-0.28125,0.625
139,139,1727965568264,0.3173828,0.24707031,0.9316406,-0.03125,-0.15625,-0.125
140,140,1727965568304,0.31933594,0.24414062,0.94140625,-0.96875,-0.40625,-0.90625
141,141,1727965568344,0.32910156,0.2421875,0.92578125,-0.65625,-0.46875,-0.34375
142,142,1727965568384,0.31933594,0.23925781,0.921875,-0.96875,-0.09375,0.8125
143,143,1727965568424,0.31054688,0.24511719,0.93066406,0.3125,0.03125,0.0
144,144,1727965568464,0.3232422,0.24707031,0.9238281,-0.28125,0.21875,0.125
145,145,1727965568504,0.32421875,0.23535156,0.9189453,0.03125,-0.28125,0.5
146,146,1727965568544,0.32421875,0.24121094,0.9121094,-0.53125,-0.09375,-0.0625
147,147,1727965568584,0.31640625,0.24023438,0.94921875,0.125,-0.5,0.0
148,148,1727965568624,0.32128906,0.24121094,0.9316406,-0.09375,0.09375,0.25
149,149,1727965568664,0.32128906,0.24902344,0.91308594,0.375,0.15625,0.25
150,150,1727965568704,0.3154297,0.24511719,0.9267578,0.03125,-0.03125,0.5625
151,151,1727965568744,0.31933594,0.23730469,0.9423828,0.0625,0.09375,0.4375
152,152,1727965568784,0.3173828,0.23535156,0.9326172,-0.09375,-0.09375,0.25
153,153,1727965568824,0.32226562,0.24414062,0.9355469,1.0,0.59375,-0.71875
154,154,1727965568864,0.31347656,0.23925781,0.9169922,-0.28125,0.03125,0.1875
155,155,1727965568904,0.32617188,0.23535156,0.9238281,0.1875,-0.21875,1.0
156,156,1727965568944,0.32128906,0.24707031,0.9238281,0.5,0.21875,0.8125
157,157,1727965568984,0.3232422,0.24609375,0.92285156,0.0625,0.03125,1.03125
158,158,1727965569024,0.3203125,0.24414062,0.9160156,0.25,0.28125,0.0
159,159,1727965569064,0.31347656,0.24707031,0.91796875,-0.46875,-0.15625,0.0625
160,160,1727965569104,0.3232422,0.24804688,0.9394531,0.6875,0.59375,0.5
161,161,1727965569144,0.3203125,0.2421875,0.92089844,0.4375,0.59375,0.5625
162,162,1727965569184,0.32128906,0.24414062,0.92285156,-0.28125,0.40625,0.6875
163,163,1727965569224,0.32226562,0.2265625,0.9326172,0.03125,-0.21875,0.125
164,164,1727965569264,0.32226562,0.24121094,0.9345703,-0.53125,-0.03125,0.125
165,165,1727965569304,0.30664062,0.24023438,0.92871094,0.3125,-0.09375,0.1875
166,166,1727965569344,0.31835938,0.24609375,0.92285156,-0.21875,0.21875,0.375
167,167,1727965569384,0.32421875,0.234375,0.9296875,0.4375,-0.09375,0.375
168,168,1727965569424,0.31933594,0.24023438,0.9423828,0.03125,-0.09375,0.4375
169,169,1727965569464,0.3125,0.22949219,0.9277344,0.25,0.09375,0.375
170,170,1727965569504,0.31347656,0.23535156,0.9189453,0.3125,0.28125,0.0
171,171,1727965569544,0.3203125,0.24121094,0.9316406,0.125,-0.15625,0.0625
172,172,1727965569584,0.3251953,0.23339844,0.9277344,-0.09375,-0.03125,0.25
173,173,1727965569624,0.328125,0.24511719,0.9316406,0.0625,-0.03125,0.0
174,174,1727965569664,0.3154297,0.23925781,0.9375,0.0625,0.09375,0.25
175,175,1727965569704,0.3173828,0.24121094,0.92285156,-0.09375,-0.15625,0.4375
176,176,1727965569744,0.3251953,0.24023438,0.9296875,-0.09375,0.09375,0.5625
177,177,1727965569784,0.31933594,0.24511719,0.9169922,0.0625,0.40625,0.25
178,178,1727965569824,0.32714844,0.2421875,0.93652344,1.0,0.28125,-0.125
179,179,1727965569864,0.32128906,0.24511719,0.93066406,0.0625,0.21875,0.1875
180,180,1727965569904,0.32226562,0.23144531,0.93652344,0.0625,0.09375,0.0625
181,181,1727965569944,0.31640625,0.24121094,0.93066406,-0.09375,-0.09375,-0.1875
182,182,1727965569984,0.32617188,0.24511719,0.93652344,-0.15625,-0.15625,-0.34375
183,183,1727965570024,0.31835938,0.24511719,0.9326172,-0.96875,-0.8125,-0.78125
184,184,1727965570064,0.32128906,0.24511719,0.9169922,-0.84375,-0.5,0.0625
185,185,1727965570104,0.3125,0.25976562,0.9453125,0.03125,-0.21875,1.0
186,186,1727965570144,0.3330078,0.23535156,0.9169922,0.1875,0.03125,0.625
187,187,1727965570184,0.3232422,0.23535156,0.9248047,0.1875,-0.15625,1.03125
188,188,1727965570224,0.32617188,0.23730469,0.9277344,0.5625,0.15625,0.375
189,189,1727965570264,0.32128906,0.23242188,0.9248047,0.0625,0.15625,0.25
190,190,1727965570304,0.32226562,0.24707031,0.9345703,0.4375,-0.03125,-0.28125
191,191,1727965570344,0.31933594,0.2421875,0.92578125,0.0625,0.53125,-0.0625
192,192,1727965570384,0.3232422,0.2421875,0.93359375,0.03125,-0.03125,-0.1875
193,193,1727965570424,0.3203125,0.24414062,0.92578125,0.0625,0.28125,0.4375
194,194,1727965570464,0.3203125,0.24316406,0.9248047,0.125,-0.03125,0.5
195,195,1727965570504,0.3232422,0.24023438,0.93066406,-0.40625,-0.34375,-0.1875
196,196,1727965570544,0.3232422,0.24511719,0.9345703,-1.03125,-0.6875,-0.96875
197,197,1727965570584,0.30371094,0.25683594,0.9375,-0.28125,0.15625,-1.875
198,198,1727965570624,0.32226562,0.25097656,0.9345703,-0.34375,-0.8125,-0.25
199,199,1727965570664,0.3251953,0.24804688,0.92578125,-0.21875,-0.34375,0.125
200,200,1727965570704,0.31933594,0.23730469,0.93847656,0.03125,0.21875,0.0
201,201,1727965570744,0.31933594,0.23925781,0.9199219,0.6875,0.09375,0.8125
202,202,1727965570784,0.3310547,0.24511719,0.9267578,-0.21875,0.15625,0.25
203,203,1727965570824,0.31054688,0.23535156,0.93066406,-0.09375,-0.28125,0.125
204,204,1727965570864,0.32421875,0.23535156,0.9238281,-0.59375,-0.5625,0.4375
205,205,1727965570904,0.3330078,0.24707031,0.9111328,-0.40625,-0.15625,0.25
206,206,1727965570944,0.32617188,0.24023438,0.92089844,-0.34375,-0.09375,1.15625
207,207,1727965570984,0.32910156,0.24121094,0.9042969,-0.03125,0.40625,0.6875
208,208,1727965571024,0.31933594,0.23828125,0.9277344,-0.09375,0.09375,0.5
209,209,1727965571064,0.31933594,0.234375,0.9111328,0.03125,0.09375,0.1875
210,210,1727965571104,0.31347656,0.23828125,0.9248047,-0.28125,-0.28125,0.1875
211,211,1727965571144,0.32421875,0.24121094,0.9345703,-0.53125,-0.15625,0.125
212,212,1727965571184,0.31933594,0.23632812,0.9238281,-0.03125,-0.09375,0.5625
213,213,1727965571224,0.32226562,0.23925781,0.92285156,-0.03125,0.03125,0.375
214,214,1727965571264,0.32617188,0.23925781,0.92089844,-0.21875,0.40625,0.5625
215,215,1727965571304,0.31640625,0.24121094,0.9472656,0.1875,0.21875,0.4375
216,216,1727965571344,0.3154297,0.234375,0.9296875,0.0625,0.15625,0.375
217,217,1727965571384,0.3359375,0.23730469,0.93652344,0.25,-0.03125,0.4375
218,218,1727965571424,0.31933594,0.24023438,0.9453125,0.0625,0.09375,0.125
219,219,1727965571464,0.3232422,0.23144531,0.9345703,0.03125,0.03125,0.125
220,220,1727965571504,0.32226562,0.23828125,0.9199219,0.125,0.09375,-0.1875
221,221,1727965571544,0.33007812,0.24316406,0.94628906,-0.21875,-0.09375,0.1875
222,222,1727965571584,0.328125,0.24121094,0.9248047,0.03125,-0.15625,0.125
223,223,1727965571624,0.33007812,0.23535156,0.9355469,-0.28125,0.34375,0.375
224,224,1727965571664,0.32128906,0.2421875,0.91796875,0.375,0.15625,-0.25
225,225,1727965571704,0.3232422,0.24902344,0.9238281,0.0625,0.28125,0.3125
226,226,1727965571744,0.3251953,0.24121094,0.9345703,-0.15625,0.09375,0.25
227,227,1727965571784,0.32226562,0.23339844,0.92871094,0.03125,0.15625,0.125
228,228,1727965571824,0.32714844,0.22949219,0.92871094,0.125,0.03125,0.5
229,229,1727965571864,0.31445312,0.23144531,0.9375,0.3125,0.28125,0.4375
230,230,1727965571904,0.32226562,0.23046875,0.93066406,0.1875,-0.03125,0.125
231,231,1727965571944,0.32910156,0.23242188,0.9345703,0.0625,0.09375,0.0625
232,232,1727965571984,0.32714844,0.24511719,0.92871094,0.625,0.21875,0.1875
233,233,1727965572024,0.3173828,0.23632812,0.9267578,0.5625,0.34375,0.25
234,234,1727965572064,0.32226562,0.24707031,0.94140625,0.5,0.28125,0.25
235,235,1727965572104,0.31933594,0.23925781,0.9267578,0.4375,0.53125,0.3125
236,236,1727965572144,0.32226562,0.24121094,0.9316406,1.46875,0.875,0.25
237,237,1727965572184,0.3154297,0.23828125,0.9199219,4.78125,2.65625,1.34375
238,238,1727965572224,0.31152344,0.24511719,0.9375,3.3125,2.40625,0.625
239,239,1727965572264,0.32421875,0.25390625,0.9189453,-0.03125,1.5,-0.25
240,240,1727965572304,0.3154297,0.24121094,0.9394531,-0.09375,1.0625,0.5
241,241,1727965572344,0.3251953,0.24804688,0.9394531,0.125,0.09375,-0.1875
242,242,1727965572384,0.31445312,0.2421875,0.9277344,0.375,0.34375,0.125
243,243,1727965572424,0.31445312,0.2421875,0.9169922,0.03125,0.03125,0.3125
244,244,1727965572464,0.3095703,0.24414062,0.9296875,0.75,0.15625,0.3125
245,245,1727965572504,0.31347656,0.24902344,0.9453125,0.625,-0.625,0.3125
246,246,1727965572544,0.3203125,0.2529297,0.91308594,-0.15625,0.09375,0.1875
247,247,1727965572584,0.31933594,0.24121094,0.9277344,-0.03125,-0.625,0.5
248,248,1727965572624,0.32617188,0.24121094,0.9482422,-0.90625,-0.40625,0.0
249,249,1727965572664,0.32128906,0.2421875,0.93359375,-0.34375,-0.46875,0.0
250,250,1727965572704,0.3251953,0.2421875,0.93066406,0.03125,0.03125,0.25
251,251,1727965572744,0.31933594,0.24316406,0.93359375,0.5,0.09375,0.125
252,252,1727965572784,0.31933594,0.24023438,0.92285156,0.25,-0.34375,0.625
253,253,1727965572824,0.32910156,0.25,0.93359375,0.0625,0.15625,0.1875
254,254,1727965572864,0.31640625,0.24414062,0.91308594,-0.21875,-0.03125,0.4375
255,255,1727965572904,0.31835938,0.24609375,0.92089844,-0.03125,0.03125,0.0
256,256,1727965572944,0.3203125,0.24414062,0.92578125,-0.03125,-0.15625,-0.34375
257,257,1727965572984,0.31152344,0.25390625,0.92871094,-0.34375,-0.34375,-0.1875
258,258,1727965573024,0.3095703,0.2421875,0.9296875,0.4375,-0.46875,-0.34375
259,259,1727965573064,0.31152344,0.24707031,0.9238281,0.1875,-0.15625,-0.125
260,260,1727965573104,0.3251953,0.24804688,0.93066406,0.3125,-1.375,0.4375
261,261,1727965573144,0.31835938,0.24609375,0.92285156,0.03125,-0.15625,0.3125
262,262,1727965573184,0.32226562,0.24902344,0.9189453,-0.03125,-0.15625,-0.125
263,263,1727965573224,0.3203125,0.24023438,0.9199219,0.5625,0.28125,0.125
264,264,1727965573264,0.3232422,0.24023438,0.9277344,0.0625,0.09375,0.1875
265,265,1727965573304,0.3154297,0.24707031,0.92285156,0.03125,0.09375,-0.0625
266,266,1727965573344,0.3203125,0.24609375,0.94628906,0.25,-0.09375,-0.0625
267,267,1727965573384,0.31835938,0.24707031,0.91503906,-0.65625,-0.03125,0.6875
268,268,1727965573424,0.31835938,0.2578125,0.9375,0.1875,0.03125,0.75
269,269,1727965573464,0.3154297,0.24804688,0.92871094,-0.15625,-0.09375,0.5625
270,270,1727965573504,0.3173828,0.24316406,0.9248047,-0.28125,-0.09375,0.4375
271,271,1727965573544,0.3125,0.23144531,0.92578125,0.03125,-0.15625,0.1875
272,272,1727965573584,0.31933594,0.234375,0.9238281,-0.03125,-0.15625,0.0
273,273,1727965573624,0.3125,0.25097656,0.9316406,0.03125,-0.15625,-0.53125
274,274,1727965573664,0.3203125,0.24609375,0.92871094,-0.90625,-0.34375,0.0
275,275,1727965573704,0.3232422,0.23632812,0.9277344,0.25,0.46875,0.1875
276,276,1727965573744,0.31445312,0.25390625,0.93066406,0.5625,-0.03125,0.3125
277,277,1727965573784,0.31835938,0.2421875,0.9326172,-0.15625,0.15625,0.3125
278,278,1727965573824,0.3173828,0.24121094,0.9345703,0.0625,-0.09375,-0.1875
279,279,1727965573864,0.31933594,0.24804688,0.9169922,0.3125,0.03125,-0.25
280,280,1727965573904,0.31835938,0.24414062,0.9453125,0.75,0.21875,0.125
281,281,1727965573944,0.3232422,0.24804688,0.9316406,0.5625,-0.03125,0.1875
282,282,1727965573984,0.328125,0.23730469,0.9238281,0.375,0.28125,-0.125
283,283,1727965574024,0.31835938,0.24023438,0.9248047,0.03125,-0.15625,-0.1875
284,284,1727965574064,0.31445312,0.24316406,0.92871094,0.0625,-0.15625,-0.34375
285,285,1727965574104,0.3251953,0.24414062,0.95214844,0.03125,0.03125,-0.1875
286,286,1727965574144,0.31445312,0.25683594,0.93652344,0.1875,0.28125,0.3125
287,287,1727965574184,0.31835938,0.24511719,0.9355469,-0.34375,0.03125,0.5625
288,288,1727965574224,0.32226562,0.23828125,0.93359375,0.03125,-0.28125,0.25
289,289,1727965574264,0.3173828,0.24414062,0.92089844,-0.21875,-0.34375,0.5625
290,290,1727965574304,0.32226562,0.25390625,0.9238281,-0.34375,-0.21875,0.625
291,291,1727965574344,0.3330078,0.24511719,0.9355469,-0.59375,-0.34375,0.3125
292,292,1727965574384,0.3125,0.24804688,0.9277344,-0.40625,0.28125,-0.125
293,293,1727965574424,0.32617188,0.24902344,0.93847656,-0.09375,0.09375,0.0625
294,294,1727965574464,0.32617188,0.25195312,0.93359375,-0.28125,0.03125,-0.125
295,295,1727965574504,0.31347656,0.24023438,0.921875,-0.46875,-0.15625,-0.5
296,296,1727965574544,0.32421875,0.2421875,0.9326172,-0.40625,-0.09375,-0.1875
297,297,1727965574584,0.31933594,0.25097656,0.93359375,-0.21875,-0.03125,0.25
298,298,1727965574624,0.32421875,0.24804688,0.93066406,0.09375,0.03125,0.1875
299,299,1727965574664,0.31933594,0.2421875,0.9248047,0.03125,0.40625,0.125
300,300,1727965574704,0.31152344,0.24707031,0.9248047,-0.21875,-0.09375,0.1875
301,301,1727965574744,0.3173828,0.24511719,0.92578125,-0.03125,-0.09375,0.5625
302,302,1727965574784,0.328125,0.24902344,0.9316406,0.09375,0.21875,0.5625
303,303,1727965574824,0.31152344,0.25097656,0.9277344,0.03125,0.34375,0.375
304,304,1727965574864,0.33398438,0.24511719,0.9267578,0.21875,0.53125,0.4375
305,305,1727965574904,0.3232422,0.24023438,0.92285156,-0.28125,0.34375,0.3125
306,306,1727965574944,0.3232422,0.25097656,0.9248047,-0.34375,-0.03125,-0.4375
307,307,1727965574984,0.31933594,0.24609375,0.9345703,-0.21875,-0.28125,-0.3125
308,308,1727965575024,0.31640625,0.23535156,0.93066406,-0.46875,0.28125,-0.5625
309,309,1727965575064,0.31347656,0.24707031,0.9345703,0.03125,0.21875,-0.65625
310,310,1727965575104,0.3154297,0.24121094,0.921875,-0.03125,0.09375,0.0
311,311,1727965575144,0.3251953,0.24023438,0.92285156,-0.03125,-0.03125,0.3125
312,312,1727965575184,0.3154297,0.24511719,0.921875,0.15625,0.15625,0.125
313,313,1727965575224,0.31933594,0.25585938,0.9248047,-0.03125,0.03125,0.375
314,314,1727965575264,0.32421875,0.24414062,0.92285156,0.03125,0.28125,0.375
315,315,1727965575304,0.31933594,0.25,0.9355469,0.09375,-0.09375,0.5
316,316,1727965575344,0.3232422,0.24414062,0.93066406,-0.15625,0.15625,0.3125
317,317,1727965575384,0.30664062,0.2421875,0.93652344,-0.21875,0.03125,-0.0625
318,318,1727965575424,0.3251953,0.24707031,0.9355469,-0.21875,-0.28125,-0.5
319,319,1727965575464,0.3203125,0.2421875,0.9394531,-0.28125,-0.09375,-0.4375
320,320,1727965575504,0.32128906,0.23046875,0.92578125,-0.40625,-0.03125,-0.3125
321,321,1727965575544,0.31152344,0.2421875,0.9296875,0.46875,0.34375,-0.375
322,322,1727965575584,0.3251953,0.24414062,0.93847656,-0.03125,0.15625,-0.125
323,323,1727965575624,0.3251953,0.24316406,0.9326172,-0.03125,-0.09375,0.0625
324,324,1727965575664,0.3203125,0.24511719,0.93066406,-0.46875,0.28125,0.25
325,325,1727965575704,0.31152344,0.2421875,0.94140625,0.21875,-0.03125,0.0625
326,326,1727965575744,0.31933594,0.24023438,0.9199219,0.28125,0.15625,0.125
327,327,1727965575784,0.3173828,0.24023438,0.9238281,-0.03125,0.03125,0.1875
328,328,1727965575824,0.3251953,0.24902344,0.92578125,-0.15625,-0.15625,-0.71875
329,329,1727965575864,0.32421875,0.24511719,0.9296875,-0.34375,-0.03125,-0.84375
330,330,1727965575904,0.3203125,0.2421875,0.9267578,0.28125,0.53125,-0.3125
331,331,1727965575944,0.31835938,0.25097656,0.9267578,0.15625,0.9375,0.1875
332,332,1727965575984,0.31640625,0.24121094,0.91796875,0.53125,0.59375,0.125
333,333,1727965576024,0.31933594,0.24023438,0.9316406,0.28125,0.09375,0.5625
334,334,1727965576064,0.31054688,0.24511719,0.9423828,0.75,0.75,0.3125
335,335,1727965576104,0.31933594,0.25390625,0.93847656,0.40625,0.40625,0.125
336,336,1727965576144,0.3251953,0.23828125,0.93066406,0.21875,0.28125,0.625
337,337,1727965576184,0.32910156,0.24511719,0.9169922,-0.8125,-0.8125,1.65625
338,338,1727965576224,0.3173828,0.234375,0.9238281,-0.875,-0.8125,1.40625
339,339,1727965576264,0.31445312,0.23730469,0.91308594,-0.9375,-2.15625,0.96875
340,340,1727965576304,0.33007812,0.23632812,0.9248047,-1.25,-1.5625,-0.125
341,341,1727965576344,0.32714844,0.23828125,0.92871094,-1.0,-1.1875,-0.3125
342,342,1727965576384,0.32128906,0.23144531,0.92285156,-1.0625,-2.34375,-0.375
343,343,1727965576424,0.328125,0.24023438,0.92871094,-1.875,-2.15625,-0.5625
344,344,1727965576464,0.31835938,0.23632812,0.9326172,-1.25,-2.09375,-0.5
345,345,1727965576504,0.32617188,0.23339844,0.92285156,0.625,1.0625,-0.5
346,346,1727965576544,0.32128906,0.23632812,0.9248047,0.53125,1.4375,-0.3125
347,347,1727965576584,0.3330078,0.24511719,0.9355469,0.59375,0.59375,-0.0625
348,348,1727965576624,0.3359375,0.234375,0.921875,0.09375,0.53125,-0.125
349,349,1727965576664,0.328125,0.23144531,0.92578125,0.28125,0.21875,-0.0625
350,350,1727965576704,0.3232422,0.24023438,0.92578125,0.40625,0.53125,-0.25
351,351,1727965576744,0.328125,0.24023438,0.9423828,0.46875,0.46875,-0.5
352,352,1727965576784,0.3330078,0.23828125,0.9238281,0.15625,0.21875,0.0625
353,353,1727965576824,0.31640625,0.24121094,0.9345703,0.21875,0.21875,0.125
354,354,1727965576864,0.3251953,0.24414062,0.921875,0.15625,0.40625,-0.0625
355,355,1727965576904,0.31640625,0.24023438,0.9160156,0.28125,0.53125,0.4375
356,356,1727965576944,0.32128906,0.23925781,0.9199219,-0.40625,-0.03125,-0.125
357,357,1727965576984,0.3310547,0.24414062,0.94433594,-0.09375,0.21875,0.25
358,358,1727965577024,0.32128906,0.23828125,0.9423828,0.09375,0.40625,-0.375
359,359,1727965577064,0.33007812,0.24414062,0.9160156,-0.21875,0.28125,-0.3125
360,360,1727965577104,0.32617188,0.24316406,0.9189453,-0.03125,0.03125,-0.3125
361,361,1727965577144,0.32128906,0.23339844,0.9404297,-0.28125,0.03125,-0.3125
362,362,1727965577184,0.32421875,0.23242188,0.9238281,0.46875,0.8125,-0.0625
363,363,1727965577224,0.32617188,0.24511719,0.9267578,0.21875,0.8125,-0.1875
364,364,1727965577264,0.3173828,0.24511719,0.9238281,-0.09375,-0.15625,0.0
365,365,1727965577304,0.31933594,0.2421875,0.92089844,-0.03125,0.53125,0.1875
366,366,1727965577344,0.328125,0.24707031,0.921875,0.15625,0.28125,0.125
367,367,1727965577384,0.33007812,0.23828125,0.94628906,0.03125,0.40625,0.0625
368,368,1727965577424,0.32226562,0.23730469,0.92578125,-0.03125,0.03125,-0.125
369,369,1727965577464,0.32421875,0.23535156,0.93359375,-0.03125,0.15625,-0.125
370,370,1727965577504,0.31933594,0.24023438,0.921875,-0.28125,0.28125,-0.1875
371,371,1727965577544,0.3095703,0.23828125,0.9248047,-0.34375,-0.21875,-0.1875
372,372,1727965577584,0.32714844,0.234375,0.9453125,-0.15625,0.09375,0.125
373,373,1727965577624,0.32714844,0.23925781,0.9316406,-0.21875,-0.15625,0.1875
374,374,1727965577664,0.32617188,0.234375,0.93652344,0.03125,0.71875,0.125
375,375,1727965577704,0.31445312,0.23632812,0.9267578,0.40625,0.28125,-0.125
376,376,1727965577744,0.31835938,0.24023438,0.9238281,-0.46875,0.21875,0.1875
377,377,1727965577784,0.3125,0.23925781,0.92871094,-0.15625,0.28125,-0.3125
378,378,1727965577824,0.31445312,0.23242188,0.9394531,-0.40625,-0.28125,0.0625
379,379,1727965577864,0.32714844,0.23632812,0.93847656,-0.28125,-0.21875,0.71875
380,380,1727965577904,0.3310547,0.23144531,0.9326172,0.03125,0.15625,0.125
381,381,1727965577944,0.32226562,0.23339844,0.92578125,-0.21875,0.15625,0.0625
382,382,1727965577984,0.328125,0.22949219,0.9267578,0.03125,0.40625,0.0
383,383,1727965578024,0.32714844,0.23339844,0.9345703,0.40625,0.71875,-0.5
384,384,1727965578064,0.3154297,0.24316406,0.92089844,0.625,0.21875,-0.625
385,385,1727965578104,0.3203125,0.24316406,0.93652344,0.15625,0.09375,0.125
386,386,1727965578144,0.31347656,0.24414062,0.9140625,-0.03125,0.15625,0.4375
387,387,1727965578184,0.32128906,0.24316406,0.9423828,-0.28125,-0.21875,0.3125
388,388,1727965578224,0.31933594,0.2421875,0.92871094,-0.15625,0.21875,0.125
389,389,1727965578264,0.32617188,0.23046875,0.93066406,0.03125,0.40625,-0.375
390,390,1727965578304,0.31445312,0.24804688,0.9296875,-0.21875,-0.03125,-0.3125
391,391,1727965578344,0.32617188,0.24414062,0.9296875,-0.21875,0.34375,0.25
392,392,1727965578384,0.32714844,0.23828125,0.92285156,0.03125,0.21875,0.25
393,393,1727965578424,0.32226562,0.24804688,0.9394531,0.03125,-0.03125,0.0625
394,394,1727965578464,0.3125,0.23046875,0.9355469,-0.34375,0.03125,0.1875
395,395,1727965578504,0.31835938,0.23925781,0.9189453,-0.34375,-0.09375,-0.25
396,396,1727965578544,0.31933594,0.24414062,0.9453125,-0.21875,-0.03125,0.0
397,397,1727965578584,0.32226562,0.23242188,0.9404297,-0.40625,-0.40625,-0.1875
398,398,1727965578624,0.32128906,0.23828125,0.92578125,-0.28125,0.09375,-0.0625
399,399,1727965578664,0.3173828,0.23828125,0.94140625,-0.21875,-0.03125,0.0625
400,400,1727965578704,0.32617188,0.24414062,0.93359375,-0.03125,0.03125,0.125
401,401,1727965578744,0.32421875,0.24511719,0.9394531,-0.34375,-0.8125,0.4375
402,402,1727965578784,0.31835938,0.23242188,0.93359375,-1.0,-0.875,0.25
403,403,1727965578824,0.3251953,0.23339844,0.9277344,-0.59375,-0.8125,0.125
404,404,1727965578864,0.3310547,0.23535156,0.92089844,-0.21875,-0.15625,-0.4375
405,405,1727965578904,0.3251953,0.23144531,0.93652344,-0.03125,-0.34375,-0.625
406,406,1727965578944,0.3232422,0.234375,0.9267578,0.09375,0.40625,-0.90625
407,407,1727965578984,0.31445312,0.23535156,0.9355469,0.53125,0.21875,-0.3125
408,408,1727965579024,0.32226562,0.23046875,0.9082031,0.15625,0.03125,-0.125
409,409,1727965579064,0.32128906,0.23632812,0.93066406,0.21875,0.46875,0.625
410,410,1727965579104,0.32226562,0.23535156,0.93652344,0.40625,0.46875,0.1875
411,411,1727965579144,0.32714844,0.23339844,0.92578125,0.46875,0.21875,0.3125
412,412,1727965579184,0.3173828,0.23828125,0.91503906,0.625,0.53125,0.125
413,413,1727965579224,0.32128906,0.23242188,0.9238281,0.03125,-0.15625,-0.3125
414,414,1727965579264,0.31445312,0.24023438,0.9326172,0.09375,-0.15625,-0.3125
415,415,1727965579304,0.32617188,0.22949219,0.93652344,-0.15625,-0.03125,-0.0625
416,416,1727965579344,0.32910156,0.24316406,0.92871094,0.21875,0.15625,-0.5625
417,417,1727965579384,0.32128906,0.23925781,0.9296875,0.03125,0.28125,-0.25
418,418,1727965579424,0.32714844,0.23632812,0.93066406,0.09375,0.03125,-0.125
419,419,1727965579464,0.3154297,0.2265625,0.92285156,0.40625,0.15625,0.125
420,420,1727965579504,0.31933594,0.24511719,0.921875,0.28125,-0.03125,0.4375
421,421,1727965579544,0.3310547,0.23828125,0.9169922,-0.03125,0.03125,0.5625
422,422,1727965579584,0.32226562,0.23828125,0.92871094,0.09375,0.28125,-0.0625
423,423,1727965579624,0.32910156,0.23632812,0.921875,-0.21875,-0.03125,-0.1875
424,424,1727965579664,0.3232422,0.23339844,0.9375,-0.03125,0.03125,-0.1875
425,425,1727965579704,0.32421875,0.23730469,0.93066406,0.03125,-0.09375,-0.25
426,426,1727965579744,0.31445312,0.2421875,0.92871094,-0.03125,-0.03125,-0.4375
427,427,1727965579784,0.32128906,0.24121094,0.92871094,-0.40625,-0.21875,0.125
428,428,1727965579824,0.32421875,0.23144531,0.93066406,-0.03125,0.03125,0.0
429,429,1727965579864,0.31445312,0.24316406,0.92871094,0.21875,0.34375,-0.1875
430,430,1727965579904,0.3251953,0.24316406,0.9199219,-0.03125,-0.15625,-0.125
431,431,1727965579944,0.3232422,0.23632812,0.91796875,-0.28125,-0.21875,-0.4375
432,432,1727965579984,0.32714844,0.24609375,0.9248047,-0.03125,-0.21875,-0.1875
433,433,1727965580024,0.33398438,0.24121094,0.9472656,-0.09375,0.15625,0.3125
434,434,1727965580064,0.3203125,0.24414062,0.9277344,-0.09375,-0.03125,-0.0625
435,435,1727965580104,0.32226562,0.24414062,0.93652344,0.09375,0.09375,-0.0625
436,436,1727965580144,0.32226562,0.23632812,0.9248047,-0.09375,-0.21875,-0.125
437,437,1727965580184,0.31445312,0.23828125,0.93359375,0.09375,0.03125,-0.0625
438,438,1727965580224,0.3251953,0.2421875,0.9189453,0.03125,0.03125,0.0625
439,439,1727965580264,0.3310547,0.23925781,0.9433594,0.03125,0.34375,0.125
440,440,1727965580304,0.32617188,0.23144531,0.9267578,0.15625,0.09375,0.125
441,441,1727965580344,0.3203125,0.23730469,0.9433594,-0.03125,0.21875,-0.0625
442,442,1727965580384,0.3154297,0.234375,0.93359375,0.15625,0.09375,-0.0625
443,443,1727965580424,0.32617188,0.2421875,0.9238281,-0.03125,0.03125,0.0625
444,444,1727965580464,0.3203125,0.2421875,0.9140625,-0.28125,-0.09375,-0.125
445,445,1727965580504,0.32617188,0.24511719,0.9248047,-0.28125,-0.09375,0.5
446,446,1727965580544,0.31933594,0.23242188,0.9121094,0.15625,0.46875,0.0625
447,447,1727965580584,0.32226562,0.23632812,0.9277344,-0.15625,0.03125,0.0625
448,448,1727965580624,0.32617188,0.23144531,0.91308594,0.03125,0.34375,-0.1875
449,449,1727965580664,0.32714844,0.24121094,0.93847656,-0.09375,-0.09375,-0.375
450,450,1727965580704,0.33007812,0.24511719,0.9316406,-0.09375,-0.21875,0.0625
451,451,1727965580744,0.3173828,0.24121094,0.92089844,-0.15625,0.09375,0.4375
452,452,1727965580784,0.31835938,0.24316406,0.9326172,0.03125,0.09375,0.125
453,453,1727965580824,0.32128906,0.23242188,0.9121094,-0.03125,0.15625,0.0
454,454,1727965580864,0.33007812,0.234375,0.92089844,-0.28125,0.09375,0.125
455,455,1727965580904,0.32226562,0.234375,0.9394531,0.15625,0.21875,0.125
456,456,1727965580944,0.32617188,0.23144531,0.93359375,0.03125,0.15625,0.0625
457,457,1727965580984,0.3251953,0.23339844,0.93359375,-0.15625,-0.28125,0.1875
458,458,1727965581024,0.32128906,0.23339844,0.9111328,-0.21875,0.03125,0.0625
459,459,1727965581064,0.3330078,0.24121094,0.9472656,-0.46875,0.09375,-0.1875
460,460,1727965581104,0.31835938,0.23535156,0.92871094,-0.03125,0.21875,-0.1875
461,461,1727965581144,0.3251953,0.23339844,0.93652344,0.03125,0.09375,-0.0625
462,462,1727965581184,0.32226562,0.23730469,0.92578125,-0.09375,-0.21875,-0.125
463,463,1727965581224,0.32617188,0.23144531,0.9375,-0.09375,0.28125,0.5
464,464,1727965581264,0.328125,0.24023438,0.9199219,0.03125,0.15625,0.0
465,465,1727965581304,0.32910156,0.23632812,0.93359375,0.03125,0.21875,0.1875
466,466,1727965581344,0.3203125,0.23144531,0.9267578,0.09375,0.09375,-0.0625
467,467,1727965581384,0.3203125,0.22460938,0.92578125,-0.28125,0.15625,-0.3125
468,468,1727965581424,0.3154297,0.24023438,0.9267578,-0.03125,-0.21875,-0.125
469,469,1727965581464,0.3203125,0.23535156,0.9296875,-0.03125,-0.21875,0.4375
470,470,1727965581504,0.31933594,0.23925781,0.9326172,0.09375,0.15625,0.1875
471,471,1727965581544,0.3232422,0.23242188,0.9199219,0.03125,0.15625,0.25
472,472,1727965581584,0.3154297,0.2421875,0.9326172,-0.03125,0.09375,0.25
473,473,1727965581624,0.3173828,0.23339844,0.93847656,0.21875,0.21875,-0.25
474,474,1727965581664,0.31933594,0.23632812,0.94140625,0.09375,0.03125,-0.1875
475,475,1727965581704,0.32714844,0.24414062,0.9326172,-0.03125,0.21875,-0.125
476,476,1727965581744,0.31835938,0.24316406,0.9248047,0.21875,0.28125,-0.3125
477,477,1727965581784,0.32617188,0.23925781,0.9140625,0.03125,0.28125,-0.3125
478,478,1727965581824,0.3251953,0.24804688,0.9277344,-0.03125,-0.09375,-0.0625
479,479,1727965581864,0.3232422,0.23925781,0.93847656,0.15625,-0.03125,0.0625
480,480,1727965581904,0.32617188,0.23632812,0.921875,-0.15625,-0.03125,0.5625
481,481,1727965581944,0.32128906,0.23242188,0.9345703,0.21875,0.21875,0.1875
482,482,1727965581984,0.32128906,0.24316406,0.9355469,0.21875,0.28125,-0.0625
483,483,1727965582024,0.3173828,0.23925781,0.92578125,0.15625,0.09375,0.25
484,484,1727965582064,0.31152344,0.2421875,0.92089844,0.34375,0.15625,-0.125
485,485,1727965582104,0.32128906,0.24511719,0.9375,0.09375,-0.03125,0.0625
486,486,1727965582144,0.31835938,0.2421875,0.9423828,-0.21875,-0.03125,0.125
487,487,1727965582184,0.32421875,0.22949219,0.92871094,-0.09375,-0.21875,-0.125
488,488,1727965582224,0.32910156,0.23828125,0.93359375,0.03125,0.21875,-0.0625
489,489,1727965582264,0.3173828,0.23242188,0.9453125,0.34375,0.21875,0.0625
490,490,1727965582304,0.3173828,0.234375,0.9326172,0.40625,0.34375,-0.0625
491,491,1727965582344,0.32421875,0.234375,0.92089844,0.34375,0.09375,0.0625
492,492,1727965582384,0.3203125,0.22949219,0.93847656,-0.03125,-0.09375,0.125
493,493,1727965582424,0.328125,0.24707031,0.94433594,0.40625,0.15625,-0.25
494,494,1727965582464,0.32226562,0.24023438,0.92089844,-0.03125,-0.09375,0.125
495,495,1727965582504,0.3203125,0.23730469,0.92871094,0.15625,0.03125,-0.125
496,496,1727965582544,0.32128906,0.24414062,0.9453125,0.03125,-0.21875,-0.25
497,497,1727965582584,0.3125,0.23730469,0.9326172,-0.21875,-0.09375,0.0
498,498,1727965582624,0.32714844,0.2265625,0.9375,0.09375,0.15625,-0.125
499,499,1727965582664,0.31933594,0.24121094,0.93066406,-0.03125,-0.15625,-0.375
500,500,1727965582704,0.32128906,0.24121094,0.9169922,0.15625,0.21875,-0.0625
501,501,1727965582744,0.32617188,0.23632812,0.9355469,-0.03125,-0.15625,0.0625
502,502,1727965582784,0.3125,0.2421875,0.9238281,0.09375,0.03125,-0.0625
503,503,1727965582824,0.31835938,0.24023438,0.9267578,-0.21875,0.03125,-0.4375
504,504,1727965582864,0.3203125,0.2421875,0.93359375,-0.21875,-0.15625,-0.3125
505,505,1727965582904,0.3232422,0.24023438,0.9189453,-0.03125,-0.15625,0.1875
506,506,1727965582944,0.32226562,0.2421875,0.9296875,-0.21875,0.09375,0.65625
507,507,1727965582984,0.31835938,0.22851562,0.92285156,0.28125,0.28125,0.5
508,508,1727965583024,0.32617188,0.2421875,0.92871094,0.03125,0.15625,0.375
509,509,1727965583064,0.3232422,0.234375,0.9394531,0.46875,0.40625,-0.5
510,510,1727965583104,0.32128906,0.24707031,0.92089844,0.03125,0.15625,-0.125
511,511,1727965583144,0.32226562,0.23339844,0.9355469,-0.03125,-0.21875,0.4375
512,512,1727965583184,0.328125,0.22851562,0.9355469,-0.15625,0.03125,0.71875
513,513,1727965583224,0.3251953,0.23535156,0.9296875,-0.03125,-0.09375,0.78125
514,514,1727965583264,0.3330078,0.23925781,0.9277344,-0.09375,0.28125,0.4375
515,515,1727965583304,0.3125,0.23828125,0.93066406,0.03125,0.28125,-0.84375
516,516,1727965583344,0.31445312,0.24511719,0.9404297,-0.34375,-0.03125,-0.1875
517,517,1727965583384,0.328125,0.24023438,0.9296875,-0.125,0.03125,-0.34375
518,518,1727965583424,0.31835938,0.24023438,0.92578125,-0.4375,-0.28125,-0.09375
519,519,1727965583464,0.3359375,0.23730469,0.92871094,-0.125,-0.65625,0.28125
520,520,1727965583504,0.32128906,0.24023438,0.92089844,-0.3125,0.21875,0.09375
521,521,1727965583544,0.32714844,0.23535156,0.9189453,0.0,-0.34375,-0.28125
522,522,1727965583584,0.32910156,0.23242188,0.9277344,-0.0625,0.21875,0.09375
523,523,1727965583624,0.31835938,0.24511719,0.9277344,-0.0625,0.03125,0.34375
524,524,1727965583664,0.3330078,0.23925781,0.9248047,-0.125,0.09375,0.28125
525,525,1727965583704,0.3232422,0.2421875,0.9296875,-0.0625,-0.21875,-0.03125
526,526,1727965583744,0.32714844,0.2421875,0.9267578,-0.25,-0.09375,-0.21875
527,527,1727965583784,0.32226562,0.23730469,0.93359375,-0.375,0.28125,-0.6875
528,528,1727965583824,0.32421875,0.234375,0.9355469,0.0625,0.15625,-0.40625
529,529,1727965583864,0.32714844,0.2421875,0.92871094,-0.0625,-0.09375,0.03125
530,530,1727965583904,0.31835938,0.23535156,0.94140625,0.0,0.21875,-0.28125
531,531,1727965583944,0.32226562,0.23828125,0.92089844,0.0,-0.09375,0.15625
532,532,1727965583984,0.3251953,0.22949219,0.92285156,-0.3125,0.21875,0.40625
533,533,1727965584024,0.3232422,0.24121094,0.9277344,0.40625,0.46875,0.15625
534,534,1727965584064,0.32617188,0.2421875,0.9277344,0.0,0.15625,0.15625
535,535,1727965584104,0.31933594,0.24023438,0.9345703,-0.0625,0.03125,-0.46875
536,536,1727965584144,0.32910156,0.24511719,0.9267578,-0.3125,-0.21875,-0.46875
537,537,1727965584184,0.3251953,0.2421875,0.9316406,-0.1875,-0.03125,-0.28125
538,538,1727965584224,0.3232422,0.24511719,0.94628906,-0.1875,0.03125,-0.15625
539,539,1727965584264,0.32226562,0.23632812,0.9277344,-0.0625,-0.15625,0.21875
540,540,1727965584304,0.32226562,0.234375,0.9404297,0.0,0.21875,-0.09375
541,541,1727965584344,0.3232422,0.23242188,0.92578125,0.0,0.09375,0.15625
542,542,1727965584384,0.31152344,0.23828125,0.9316406,-0.1875,0.03125,0.28125
543,543,1727965584424,0.3203125,0.2421875,0.93359375,-0.1875,-0.34375,-0.15625
544,544,1727965584464,0.32714844,0.24121094,0.9355469,-0.375,0.03125,-0.09375
545,545,1727965584504,0.31835938,0.23632812,0.9326172,-0.5625,-0.28125,-0.28125
546,546,1727965584544,0.3310547,0.24316406,0.9296875,0.0,0.15625,-0.46875
547,547,1727965584584,0.3251953,0.24511719,0.9277344,0.0625,0.28125,-0.46875
548,548,1727965584624,0.31445312,0.23339844,0.92871094,-0.0625,0.09375,-0.09375
549,549,1727965584664,0.32714844,0.2421875,0.9267578,0.15625,0.3125,0.09375
550,550,1727965584704,0.31933594,0.24023438,0.9316406,0.09375,0.0625,0.28125
551,551,1727965584744,0.32226562,0.22753906,0.9345703,0.21875,0.375,0.03125
552,552,1727965584784,0.3203125,0.23535156,0.92871094,0.21875,0.375,-0.09375
553,553,1727965584824,0.31640625,0.24023438,0.9248047,0.03125,-0.125,0.09375
554,554,1727965584864,0.32128906,0.23925781,0.93652344,-0.03125,-0.3125,0.03125
555,555,1727965584904,0.3125,0.23535156,0.93066406,0.03125,-0.1875,-0.21875
556,556,1727965584944,0.32128906,0.24707031,0.9238281,-0.15625,-0.125,0.09375
557,557,1727965584984,0.31933594,0.24121094,0.9189453,-0.03125,0.25,-0.21875
558,558,1727965585024,0.32128906,0.23730469,0.9296875,0.09375,-0.0625,-0.09375
559,559,1727965585064,0.32226562,0.23730469,0.9238281,0.15625,0.125,0.21875
560,560,1727965585104,0.32226562,0.23339844,0.92578125,-0.09375,-0.0625,-0.03125
561,561,1727965585144,0.31835938,0.23730469,0.93359375,-0.03125,-0.25,-0.09375
562,562,1727965585184,0.32617188,0.24511719,0.9345703,0.03125,-0.1875,-0.09375
563,563,1727965585224,0.3251953,0.24023438,0.91503906,0.34375,0.125,0.03125
564,564,1727965585264,0.31445312,0.24121094,0.93652344,0.34375,0.0625,0.21875
565,565,1727965585304,0.3203125,0.23632812,0.93066406,0.03125,-0.1875,0.03125
566,566,1727965585344,0.3154297,0.23535156,0.9316406,0.09375,-0.0625,-0.21875
567,567,1727965585384,0.33007812,0.23925781,0.93066406,0.03125,-0.1875,0.09375
568,568,1727965585424,0.31445312,0.23828125,0.921875,0.28125,-0.1875,0.21875
569,569,1727965585464,0.32421875,0.24023438,0.9248047,-0.03125,-0.0625,0.625
570,570,1727965585504,0.31445312,0.22949219,0.9199219,-0.03125,-0.25,0.03125
571,571,1727965585544,0.31835938,0.24121094,0.92871094,0.03125,-0.1875,0.09375
572,572,1727965585584,0.31640625,0.23730469,0.93652344,0.03125,0.0,-0.15625
573,573,1727965585624,0.31933594,0.24023438,0.92578125,-0.21875,-0.5625,-0.09375
574,574,1727965585664,0.3251953,0.24316406,0.9375,-0.5,-0.4375,0.5
575,575,1727965585704,0.32910156,0.23339844,0.9326172,-0.5,-0.25,0.21875
576,576,1727965585744,0.32617188,0.234375,0.93652344,-0.34375,-0.0625,0.21875
577,577,1727965585784,0.32128906,0.22851562,0.92578125,-0.5625,-0.75,0.625
578,578,1727965585824,0.32714844,0.23925781,0.92578125,-0.28125,-0.375,0.28125
579,579,1727965585864,0.3310547,0.24316406,0.9248047,-0.15625,-0.125,-0.15625
580,580,1727965585904,0.33496094,0.24023438,0.9404297,-1.0625,-0.90625,0.875
581,581,1727965585944,0.3251953,0.22851562,0.9316406,-1.34375,-0.65625,0.4375
582,582,1727965585984,0.3251953,0.24804688,0.92089844,-0.5,-0.59375,0.1875
583,583,1727965586024,0.32617188,0.23828125,0.92871094,-1.46875,-0.71875,0.4375
584,584,1727965586064,0.3251953,0.22363281,0.9296875,0.3125,0.625,-0.09375
585,585,1727965586104,0.328125,0.234375,0.93359375,0.1875,-0.03125,-0.34375
586,586,1727965586144,0.32421875,0.234375,0.9355469,0.90625,-0.84375,0.25
587,587,1727965586184,0.32226562,0.2265625,0.9189453,0.375,-0.40625,0.1875
588,588,1727965586224,0.33007812,0.22753906,0.9453125,0.5,-0.03125,0.0625
589,589,1727965586264,0.3232422,0.23046875,0.9316406,0.78125,-0.21875,-0.34375
590,590,1727965586304,0.33007812,0.2265625,0.9316406,0.375,0.46875,-0.15625
591,591,1727965586344,0.3310547,0.23144531,0.9316406,0.4375,-0.09375,-0.34375
592,592,1727965586384,0.3330078,0.23144531,0.91503906,0.375,-0.28125,-0.71875
593,593,1727965586424,0.328125,0.23535156,0.9277344,0.78125,0.40625,-0.34375
594,594,1727965586464,0.32128906,0.23046875,0.9248047,1.59375,-0.53125,0.375
595,595,1727965586504,0.3310547,0.22363281,0.93066406,1.28125,0.46875,0.125
596,596,1727965586544,0.33007812,0.234375,0.9248047,2.25,0.9375,-0.53125
597,597,1727965586584,0.33984375,0.25195312,0.9140625,0.5,-0.34375,0.0
598,598,1727965586624,0.3203125,0.23046875,0.9326172,0.4375,0.15625,0.375
599,599,1727965586664,0.32128906,0.23730469,0.91015625,0.5,-0.28125,-0.34375
600,600,1727965586704,0.3251953,0.2421875,0.9248047,0.6875,0.21875,0.0625
601,601,1727965586744,0.3203125,0.24316406,0.9326172,0.5,-0.46875,0.0
602,602,1727965586784,0.3232422,0.234375,0.9296875,0.0625,0.21875,0.0625
603,603,1727965586824,0.3173828,0.23144531,0.92089844,0.5625,0.625,-0.34375
604,604,1727965586864,0.34570312,0.2421875,0.9189453,0.125,-0.28125,-0.21875
605,605,1727965586904,0.3232422,0.23242188,0.91308594,-0.4375,-0.46875,1.1875
606,606,1727965586944,0.3359375,0.23632812,0.91796875,-0.5,-0.34375,0.5625
607,607,1727965586984,0.33691406,0.24511719,0.93847656,0.0625,-1.75,1.0
608,608,1727965587024,0.3359375,0.24414062,0.9238281,-0.78125,-2.28125,2.875
609,609,1727965587064,0.3359375,0.23242188,0.9199219,-0.3125,-1.6875,1.59375
610,610,1727965587104,0.34570312,0.23730469,0.9189453,0.3125,-3.6875,3.25
611,611,1727965587144,0.3388672,0.22460938,0.9169922,0.25,-2.125,0.75
612,612,1727965587184,0.33984375,0.23339844,0.91796875,0.25,-0.78125,0.0
613,613,1727965587224,0.33789062,0.23535156,0.9160156,0.90625,-1.25,-0.65625
614,614,1727965587264,0.34179688,0.23925781,0.9169922,0.5625,-0.875,-0.53125
615,615,1727965587304,0.33984375,0.2421875,0.9316406,1.65625,-1.75,0.125
616,616,1727965587344,0.33789062,0.21875,0.9082031,2.0625,-3.40625,0.875
617,617,1727965587384,0.3564453,0.25195312,0.92089844,0.6875,0.15625,0.375
618,618,1727965587424,0.3408203,0.23535156,0.91503906,0.4375,-0.84375,-0.0625
619,619,1727965587464,0.3515625,0.23339844,0.92089844,0.1875,-0.03125,-0.40625
620,620,1727965587504,0.35058594,0.23535156,0.91796875,0.125,0.03125,-0.28125
621,621,1727965587544,0.3466797,0.24316406,0.9248047,0.0625,0.03125,-0.21875
622,622,1727965587584,0.34375,0.24609375,0.9169922,0.125,-0.34375,-0.09375
623,623,1727965587624,0.34570312,0.23242188,0.91796875,0.3125,-0.46875,-0.59375
624,624,1727965587664,0.35742188,0.23828125,0.92285156,0.375,-0.03125,-0.65625
625,625,1727965587704,0.34375,0.23242188,0.91796875,0.5625,0.28125,0.0
626,626,1727965587744,0.34375,0.2421875,0.9111328,0.25,-0.15625,0.6875
627,627,1727965587784,0.3564453,0.23632812,0.9326172,0.6875,0.15625,1.0625
628,628,1727965587824,0.34277344,0.23242188,0.9248047,0.3125,0.03125,0.625
629,629,1727965587864,0.34375,0.23828125,0.93066406,0.5,0.34375,0.0625
630,630,1727965587904,0.35253906,0.23925781,0.9169922,0.375,0.21875,-1.03125
631,631,1727965587944,0.34765625,0.24316406,0.9121094,0.0,-0.46875,-1.15625
632,632,1727965587984,0.3466797,0.24511719,0.9189453,0.125,0.28125,-0.90625
633,633,1727965588024,0.3466797,0.24902344,0.9326172,0.5,-0.28125,0.1875
634,634,1727965588064,0.35742188,0.24316406,0.91015625,0.1875,0.6875,0.4375
635,635,1727965588104,0.35058594,0.24023438,0.91796875,0.4375,0.09375,1.0625
636,636,1727965588144,0.35058594,0.23144531,0.9111328,0.375,0.40625,1.0625
637,637,1727965588184,0.34765625,0.22949219,0.92871094,0.5625,-0.15625,1.46875
638,638,1727965588224,0.3466797,0.24023438,0.91015625,0.0625,-0.34375,-0.15625
639,639,1727965588264,0.3486328,0.24316406,0.9140625,0.1875,0.21875,-0.78125
640,640,1727965588304,0.34179688,0.23730469,0.9169922,-0.4375,-0.53125,-1.28125
641,641,1727965588344,0.35742188,0.24902344,0.9248047,0.3125,0.46875,-1.03125
642,642,1727965588384,0.34765625,0.2421875,0.91308594,0.4375,-0.40625,0.5
643,643,1727965588424,0.3486328,0.23925781,0.92871094,0.1875,0.28125,0.625
644,644,1727965588464,0.34277344,0.2421875,0.91503906,0.1875,-0.21875,0.4375
645,645,1727965588504,0.35253906,0.24316406,0.93652344,-0.0625,-0.15625,0.375
646,646,1727965588544,0.34765625,0.22949219,0.9189453,0.1875,0.28125,-0.0625
647,647,1727965588584,0.3486328,0.24023438,0.90527344,0.625,0.34375,-0.21875
648,648,1727965588624,0.3466797,0.24121094,0.90527344,0.84375,0.5,0.5
649,649,1727965588664,0.34570312,0.23925781,0.91308594,0.71875,-0.09375,0.9375
650,650,1727965588704,0.35253906,0.2421875,0.9296875,0.25,0.09375,0.4375
651,651,1727965588744,0.36132812,0.25976562,0.91503906,0.1875,0.5625,-1.03125
652,652,1727965588784,0.34765625,0.23828125,0.9033203,-0.78125,-0.59375,-1.4375
653,653,1727965588824,0.34765625,0.24023438,0.9277344,-0.4375,-0.09375,-1.09375
654,654,1727965588864,0.3486328,0.23925781,0.9248047,0.125,-0.28125,0.1875
655,655,1727965588904,0.3466797,0.24316406,0.92578125,-0.125,-0.15625,0.9375
656,656,1727965588944,0.34472656,0.24023438,0.90625,-0.0625,-0.65625,1.28125
657,657,1727965588984,0.3466797,0.24121094,0.92089844,-0.1875,-0.03125,0.6875
658,658,1727965589024,0.3486328,0.234375,0.9316406,0.6875,-0.28125,0.8125
659,659,1727965589064,0.35058594,0.22851562,0.9140625,0.5625,0.34375,0.0625
660,660,1727965589104,0.3515625,0.234375,0.9140625,0.625,0.5,-0.40625
661,661,1727965589144,0.35351562,0.24316406,0.9140625,0.1875,0.21875,-0.71875
662,662,1727965589184,0.35351562,0.24316406,0.9140625,-0.125,-0.15625,-0.78125
663,663,1727965589224,0.34375,0.2421875,0.9091797,-0.3125,-0.03125,-0.71875
664,664,1727965589264,0.3515625,0.24804688,0.92089844,-0.1875,0.21875,-0.09375
665,665,1727965589304,0.35742188,0.24023438,0.90527344,-0.3125,-0.21875,0.25
666,666,1727965589344,0.35546875,0.23925781,0.9248047,-0.125,-0.59375,0.5625
667,667,1727965589384,0.34960938,0.23535156,0.9267578,0.0,-0.15625,0.25
668,668,1727965589424,0.35546875,0.23925781,0.9248047,0.25,0.21875,0.125
669,669,1727965589464,0.34960938,0.22851562,0.91796875,0.375,0.03125,0.0
670,670,1727965589504,0.3564453,0.23535156,0.92871094,0.125,0.5625,-0.65625
671,671,1727965589544,0.359375,0.2421875,0.9140625,0.1875,0.15625,-0.40625
672,672,1727965589584,0.34960938,0.22949219,0.9042969,-0.1875,0.21875,-0.40625
673,673,1727965589624,0.35253906,0.23730469,0.92285156,0.125,0.15625,-0.46875
674,674,1727965589664,0.3515625,0.23339844,0.90527344,-0.25,-0.28125,-0.0625
675,675,1727965589704,0.35546875,0.24316406,0.92578125,0.0625,0.15625,0.0
676,676,1727965589744,0.35839844,0.23242188,0.9189453,0.125,-0.03125,0.375
677,677,1727965589784,0.3544922,0.234375,0.9296875,0.1875,0.8125,0.1875
678,678,1727965589824,0.35546875,0.2265625,0.9238281,0.375,-0.09375,0.0625
679,679,1727965589864,0.35253906,0.2421875,0.9199219,0.0,0.15625,-0.46875
680,680,1727965589904,0.33984375,0.2421875,0.90625,-0.1875,-0.21875,-0.90625
681,681,1727965589944,0.34765625,0.24609375,0.9160156,0.0,0.15625,-0.34375
682,682,1727965589984,0.35546875,0.23925781,0.9169922,0.375,0.28125,-0.0625
683,683,1727965590024,0.34375,0.2421875,0.91308594,0.375,0.5625,0.0625
684,684,1727965590064,0.35058594,0.23925781,0.90722656,0.0625,-0.46875,0.0625
685,685,1727965590104,0.35546875,0.24023438,0.9267578,-0.0625,0.34375,-0.40625
686,686,1727965590144,0.3486328,0.23242188,0.9345703,0.125,-0.15625,-0.28125
687,687,1727965590184,0.36328125,0.23925781,0.921875,0.0,0.40625,-0.40625
688,688,1727965590224,0.35351562,0.23339844,0.92285156,0.78125,-0.09375,0.0
689,689,1727965590264,0.34179688,0.24121094,0.91796875,0.125,0.625,-0.28125
690,690,1727965590304,0.34960938,0.24023438,0.9111328,0.0625,-0.03125,-0.28125
691,691,1727965590344,0.35839844,0.25390625,0.89453125,0.0,-0.21875,0.0
692,692,1727965590384,0.35742188,0.23632812,0.9111328,0.125,0.21875,-0.0625
693,693,1727965590424,0.3544922,0.24414062,0.91503906,0.125,-0.15625,0.125
694,694,1727965590464,0.34765625,0.24511719,0.91503906,0.125,-0.21875,0.0
695,695,1727965590504,0.3515625,0.24023438,0.9160156,0.0,-0.09375,0.0
696,696,1727965590544,0.3544922,0.24121094,0.9140625,0.1875,0.15625,0.125
697,697,1727965590584,0.35253906,0.23339844,0.92871094,0.5,0.625,-0.21875
698,698,1727965590624,0.3515625,0.23828125,0.9238281,0.4375,-0.03125,0.0
699,699,1727965590664,0.34375,0.2421875,0.9248047,0.3125,0.28125,-0.59375
700,700,1727965590704,0.3515625,0.24121094,0.91308594,0.5625,-0.40625,0.0625
701,701,1727965590744,0.35351562,0.24707031,0.91796875,0.1875,0.6875,0.375
702,702,1727965590784,0.35546875,0.24414062,0.9169922,0.0,0.09375,0.4375
703,703,1727965590824,0.3544922,0.22949219,0.921875,0.5625,0.15625,0.125
704,704,1727965590864,0.3544922,0.23535156,0.90625,-0.25,-0.03125,-0.46875
705,705,1727965590904,0.34765625,0.23242188,0.9248047,0.5,-0.21875,-0.46875
706,706,1727965590944,0.36132812,0.24511719,0.9140625,0.0,0.28125,-0.28125
707,707,1727965590984,0.34960938,0.23535156,0.9199219,1.03125,-0.03125,0.8125
708,708,1727965591024,0.34765625,0.23144531,0.9160156,0.71875,0.75,0.3125
709,709,1727965591064,0.35351562,0.24023438,0.92871094,0.6875,0.21875,-0.21875
710,710,1727965591104,0.35839844,0.23828125,0.90625,0.71875,0.40625,-0.71875
711,711,1727965591144,0.3466797,0.24511719,0.9091797,0.0,-0.09375,-0.46875
712,712,1727965591184,0.35546875,0.24316406,0.9121094,0.0625,-0.21875,-0.15625
713,713,1727965591224,0.35546875,0.24902344,0.91796875,0.4375,0.34375,0.5
714,714,1727965591264,0.34960938,0.23144531,0.91015625,0.125,-0.09375,0.25
715,715,1727965591304,0.35546875,0.24511719,0.91015625,0.1875,0.28125,-0.34375
716,716,1727965591344,0.35742188,0.24414062,0.9111328,0.0625,-0.65625,0.625
717,717,1727965591384,0.34570312,0.23339844,0.92089844,0.125,-0.40625,1.125
718,718,1727965591424,0.35351562,0.23144531,0.9277344,-0.0625,-0.15625,0.25
719,719,1727965591464,0.35546875,0.23730469,0.9277344,0.125,0.09375,-0.40625
720,720,1727965591504,0.3544922,0.24316406,0.9238281,-0.1875,-0.03125,-0.65625
721,721,1727965591544,0.3544922,0.25,0.9082031,-0.5,0.09375,-0.96875
722,722,1727965591584,0.35253906,0.23339844,0.9140625,0.0625,-0.53125,-0.28125
723,723,1727965591624,0.3515625,0.24414062,0.921875,-0.1875,0.03125,0.0625
724,724,1727965591664,0.3515625,0.24316406,0.9111328,0.25,-0.59375,0.125
725,725,1727965591704,0.35546875,0.23925781,0.921875,0.0,0.40625,-0.21875
726,726,1727965591744,0.35253906,0.25097656,0.92285156,0.125,-0.40625,0.1875
727,727,1727965591784,0.36328125,0.24414062,0.9160156,0.0,0.15625,-0.09375
728,728,1727965591824,0.35253906,0.24121094,0.9111328,0.3125,0.15625,0.0625
729,729,1727965591864,0.3515625,0.22753906,0.9169922,0.125,-0.40625,-0.09375
730,730,1727965591904,0.35839844,0.24121094,0.9199219,0.1875,0.5625,-0.90625
731,731,1727965591944,0.34960938,0.23730469,0.9160156,0.0,-0.15625,-0.53125
732,732,1727965591984,0.35058594,0.24023438,0.9091797,0.4375,1.0,-0.53125
733,733,1727965592024,0.34375,0.234375,0.90527344,0.3125,0.21875,0.0
734,734,1727965592064,0.35546875,0.23828125,0.9160156,-0.375,-0.03125,-0.09375
735,735,1727965592104,0.3544922,0.23925781,0.92578125,0.375,-0.21875,-0.0625
736,736,1727965592144,0.35253906,0.24414062,0.91796875,-0.3125,0.03125,0.0
737,737,1727965592184,0.35253906,0.2421875,0.9189453,0.0,0.15625,-0.09375
738,738,1727965592224,0.34960938,0.23535156,0.921875,-0.125,-0.09375,0.0625
739,739,1727965592264,0.3486328,0.2421875,0.9091797,0.0,-0.09375,-0.40625
740,740,1727965592304,0.34570312,0.234375,0.9121094,0.0625,0.15625,-0.59375
741,741,1727965592344,0.3544922,0.23632812,0.9121094,0.0,0.15625,-0.15625
742,742,1727965592384,0.34960938,0.24121094,0.921875,0.1875,0.09375,0.0
743,743,1727965592424,0.35546875,0.24902344,0.9121094,0.0625,0.40625,-0.53125
744,744,1727965592464,0.3564453,0.23632812,0.9248047,-0.1875,-0.03125,-0.28125
745,745,1727965592504,0.34765625,0.23242188,0.9140625,0.125,0.15625,-0.0625
746,746,1727965592544,0.35253906,0.23046875,0.9355469,0.1875,0.34375,-0.21875
747,747,1727965592584,0.35742188,0.24121094,0.92089844,0.1875,0.15625,0.125
748,748,1727965592624,0.36328125,0.23925781,0.9296875,0.0625,0.5,-0.65625
749,749,1727965592664,0.35351562,0.24511719,0.9238281,0.125,0.21875,-0.96875
750,750,1727965592704,0.34765625,0.24121094,0.9345703,0.125,0.15625,-0.09375
751,751,1727965592744,0.3515625,0.24707031,0.91308594,-0.1875,0.28125,-0.53125
752,752,1727965592784,0.34375,0.24414062,0.9189453,0.25,-0.28125,-0.59375
753,753,1727965592824,0.35351562,0.22851562,0.9189453,0.0625,-0.15625,-0.15625
754,754,1727965592864,0.3466797,0.234375,0.9267578,0.84375,-0.15625,-0.21875
755,755,1727965592904,0.3564453,0.23632812,0.9160156,0.1875,0.46875,-1.21875
756,756,1727965592944,0.35253906,0.24316406,0.9267578,0.375,-0.03125,-1.28125
757,757,1727965592984,0.3486328,0.24414062,0.9082031,0.125,0.03125,-0.65625
758,758,1727965593024,0.3515625,0.23925781,0.9248047,0.5625,0.46875,-0.40625
759,759,1727965593064,0.35839844,0.24121094,0.93652344,0.90625,-0.84375,-0.28125
