,Unnamed: 0,timestamp,accel_x,accel_y,accel_z,gyro_x,gyro_y,gyro_z
0,0,1729519923299,-0.8886719,-0.4970703,-0.03515625,2.125,2.5,-0.125
1,1,1729519923339,-0.88964844,-0.4921875,-0.038085938,1.3125,1.3125,-0.75
2,2,1729519923379,-0.8955078,-0.4873047,-0.040039062,0.65625,0.78125,-1.125
3,3,1729519923419,-0.8935547,-0.484375,-0.041992188,1.3125,0.96875,-0.875
4,4,1729519923459,-0.89160156,-0.48242188,-0.044921875,1.3125,1.4375,-0.8125
5,5,1729519923499,-0.8955078,-0.4814453,-0.045898438,1.6875,1.875,-1.125
6,6,1729519923539,-0.890625,-0.47851562,-0.055664062,-0.125,0.21875,-1.0625
7,7,1729519923579,-0.8925781,-0.4921875,-0.028320312,0.0,0.21875,-0.875
8,8,1729519923619,-0.88183594,-0.49121094,-0.02734375,1.6875,1.5,-0.6875
9,9,1729519923659,-0.8876953,-0.49414062,-0.032226562,2.0,2.0625,-1.0625
10,10,1729519923699,-0.9013672,-0.48242188,-0.045898438,2.4375,1.875,-1.3125
11,11,1729519923739,-0.89746094,-0.48339844,-0.038085938,2.375,1.75,-0.9375
12,12,1729519923779,-0.88183594,-0.4892578,-0.030273438,2.0,2.1875,-1.0625
13,13,1729519923819,-0.89160156,-0.48828125,-0.048828125,1.5,1.8125,-1.1875
14,14,1729519923859,-0.8876953,-0.4794922,-0.041992188,0.46875,0.46875,-1.0625
15,15,1729519923899,-0.8828125,-0.4921875,-0.038085938,1.15625,1.375,-0.75
16,16,1729519923939,-0.89160156,-0.4970703,-0.034179688,1.21875,1.5625,-0.625
17,17,1729519923979,-0.88964844,-0.4892578,-0.025390625,1.15625,1.375,-1.0
18,18,1729519924019,-0.9003906,-0.4921875,-0.033203125,2.0625,1.6875,-1.59375
19,19,1729519924059,-0.89160156,-0.48632812,-0.045898438,2.0625,1.3125,-1.0
20,20,1729519924099,-0.8886719,-0.49316406,-0.0390625,2.5,1.375,-1.0625
21,21,1729519924139,-0.9042969,-0.49121094,-0.0390625,2.0625,1.875,-1.0625
22,22,1729519924179,-0.88378906,-0.48535156,-0.025390625,1.3125,1.3125,-1.125
23,23,1729519924219,-0.8886719,-0.49023438,-0.0390625,1.6875,1.03125,-0.875
24,24,1729519924259,-0.8964844,-0.49316406,-0.040039062,1.875,1.625,-1.0
25,25,1729519924299,-0.88671875,-0.49023438,-0.037109375,2.65625,1.8125,-1.125
26,26,1729519924339,-0.88964844,-0.4892578,-0.04296875,2.0,1.5625,-1.0625
27,27,1729519924379,-0.8925781,-0.48242188,-0.030273438,1.15625,1.03125,-0.625
28,28,1729519924419,-0.8857422,-0.4951172,-0.032226562,1.5625,1.15625,-0.625
29,29,1729519924459,-0.8857422,-0.5,-0.029296875,1.5625,1.5,-1.0625
30,30,1729519924499,-0.890625,-0.4921875,-0.034179688,1.3125,0.90625,-1.125
31,31,1729519924539,-0.88671875,-0.4814453,-0.03125,1.4375,0.71875,-0.75
32,32,1729519924579,-0.8876953,-0.50097656,-0.03125,2.65625,1.875,-0.875
33,33,1729519924619,-0.8925781,-0.48535156,-0.03515625,1.625,1.6875,-0.875
34,34,1729519924659,-0.88964844,-0.48632812,-0.020507812,2.25,1.625,-0.8125
35,35,1729519924699,-0.88964844,-0.48828125,-0.036132812,2.5625,2.125,-0.75
36,36,1729519924739,-0.8925781,-0.49316406,-0.02734375,2.4375,2.65625,-0.9375
37,37,1729519924779,-0.8876953,-0.49121094,-0.030273438,2.96875,1.75,-0.8125
38,38,1729519924819,-0.890625,-0.4892578,-0.026367188,2.4375,2.1875,-1.0
39,39,1729519924859,-0.8964844,-0.49023438,-0.021484375,2.5,2.3125,-1.25
40,40,1729519924899,-0.89160156,-0.4794922,-0.049804688,2.4375,1.75,-1.1875
41,41,1729519924939,-0.8925781,-0.49121094,-0.037109375,1.21875,2.0,-1.3125
42,42,1729519924979,-0.89746094,-0.4814453,-0.033203125,1.3125,2.0625,-1.0625
43,43,1729519925019,-0.89160156,-0.4873047,-0.045898438,1.625,1.3125,-0.6875
44,44,1729519925059,-0.88671875,-0.49121094,-0.025390625,1.09375,1.5625,-0.6875
45,45,1729519925099,-0.88378906,-0.51171875,-0.037109375,1.625,1.75,-0.5625
46,46,1729519925139,-0.8847656,-0.4873047,-0.033203125,1.875,1.5,-1.125
47,47,1729519925179,-0.890625,-0.49609375,-0.029296875,1.21875,1.21875,-0.875
48,48,1729519925219,-0.87890625,-0.49316406,-0.03125,1.75,0.90625,-0.625
49,49,1729519925259,-0.88964844,-0.4921875,-0.049804688,0.28125,0.96875,-0.9375
50,50,1729519925299,-0.8925781,-0.49609375,-0.03515625,-0.5625,0.78125,-1.0625
51,51,1729519925339,-0.8886719,-0.4951172,-0.038085938,-0.6875,0.28125,-0.75
52,52,1729519925379,-0.8925781,-0.49902344,-0.01953125,-0.4375,0.78125,-0.6875
53,53,1729519925419,-0.89160156,-0.5029297,-0.030273438,1.5625,1.21875,-0.75
54,54,1729519925459,-0.8847656,-0.50390625,-0.01171875,2.5,2.0,-0.625
55,55,1729519925499,-0.88964844,-0.4892578,-0.053710938,3.34375,2.84375,-0.625
56,56,1729519925539,-0.8984375,-0.49316406,-0.041015625,3.46875,3.09375,-0.5625
57,57,1729519925579,-0.89453125,-0.48339844,-0.04296875,2.90625,2.65625,-0.75
58,58,1729519925619,-0.8955078,-0.4873047,-0.041992188,1.8125,2.25,-0.5
59,59,1729519925659,-0.8935547,-0.48535156,-0.03515625,1.5,1.5,-0.4375
60,60,1729519925699,-0.8955078,-0.49414062,-0.048828125,1.75,1.8125,-0.4375
61,61,1729519925739,-0.88671875,-0.49414062,-0.037109375,1.8125,2.0,-0.4375
62,62,1729519925779,-0.8808594,-0.4892578,-0.028320312,2.4375,1.75,-0.5
63,63,1729519925819,-0.8925781,-0.4921875,-0.02734375,1.4375,2.3125,-0.9375
64,64,1729519925859,-0.89160156,-0.484375,-0.032226562,1.75,1.5,-0.625
65,65,1729519925899,-0.8847656,-0.4873047,-0.046875,2.5625,1.8125,-0.5625
66,66,1729519925939,-0.8925781,-0.48632812,-0.037109375,2.125,2.3125,-0.1875
67,67,1729519925979,-0.8935547,-0.4794922,-0.0390625,2.0,2.25,-0.4375
68,68,1729519926019,-0.8798828,-0.484375,-0.03515625,2.125,2.125,-0.4375
69,69,1729519926059,-0.88964844,-0.48632812,-0.032226562,1.75,2.125,-0.5
70,70,1729519926099,-0.88964844,-0.48242188,-0.05859375,2.5,2.0,-0.625
71,71,1729519926139,-0.9033203,-0.4794922,-0.04296875,2.0625,2.3125,-0.8125
72,72,1729519926179,-0.90234375,-0.484375,-0.025390625,1.625,1.875,-0.5
73,73,1729519926219,-0.88964844,-0.4921875,-0.03125,1.4375,1.5625,-0.4375
74,74,1729519926259,-0.8828125,-0.4892578,-0.048828125,1.625,0.46875,-0.875
75,75,1729519926299,-0.8857422,-0.48828125,-0.041992188,1.3125,0.96875,-1.3125
76,76,1729519926339,-0.88671875,-0.49316406,-0.029296875,0.65625,1.4375,-1.0625
77,77,1729519926379,-0.890625,-0.48242188,-0.03515625,1.3125,1.21875,-1.1875
78,78,1729519926419,-0.89160156,-0.49414062,-0.036132812,1.3125,0.40625,-1.125
79,79,1729519926459,-0.8828125,-0.49414062,-0.038085938,1.8125,1.375,-0.75
80,80,1729519926499,-0.890625,-0.4951172,-0.034179688,2.25,2.5,-1.0625
81,81,1729519926539,-0.8779297,-0.49609375,-0.022460938,2.5,2.0,-0.375
82,82,1729519926579,-0.88671875,-0.48242188,-0.0390625,3.90625,3.03125,-0.4375
83,83,1729519926619,-0.89453125,-0.484375,-0.034179688,3.03125,2.78125,-0.875
84,84,1729519926659,-0.9033203,-0.48339844,-0.043945312,3.78125,2.5625,-1.0
85,85,1729519926699,-0.89746094,-0.47851562,-0.041992188,3.90625,2.78125,-0.8125
86,86,1729519926739,-0.890625,-0.4765625,-0.026367188,2.65625,2.0,-0.8125
87,87,1729519926779,-0.88964844,-0.49121094,-0.041992188,2.375,2.0,-1.0625
88,88,1729519926819,-0.8876953,-0.48339844,-0.034179688,2.1875,1.5,-1.25
89,89,1729519926859,-0.88671875,-0.49121094,-0.043945312,2.25,2.0,-1.0625
90,90,1729519926899,-0.88964844,-0.48828125,-0.03515625,2.5,1.8125,-1.0625
91,91,1729519926939,-0.890625,-0.484375,-0.030273438,2.0,1.3125,-1.1875
92,92,1729519926979,-0.89746094,-0.48632812,-0.032226562,2.125,1.875,-1.25
93,93,1729519927019,-0.88183594,-0.4794922,-0.0390625,2.65625,2.375,-1.0
94,94,1729519927059,-0.8984375,-0.4892578,-0.0390625,2.1875,2.0625,-1.0625
95,95,1729519927099,-0.8876953,-0.48339844,-0.034179688,1.6875,0.71875,-1.53125
96,96,1729519927139,-0.8847656,-0.48535156,-0.041992188,1.5625,1.375,-1.46875
97,97,1729519927179,-0.890625,-0.4873047,-0.043945312,0.90625,1.21875,-1.1875
98,98,1729519927219,-0.8876953,-0.48046875,-0.046875,0.78125,1.21875,-0.375
99,99,1729519927259,-0.88671875,-0.4970703,-0.037109375,0.65625,0.96875,-0.4375
100,100,1729519927299,-0.890625,-0.4892578,-0.040039062,1.5,1.6875,-0.625
101,101,1729519927339,-0.8886719,-0.49316406,-0.045898438,1.8125,1.15625,-1.25
102,102,1729519927379,-0.89453125,-0.49316406,-0.029296875,1.5625,0.65625,-1.3125
103,103,1729519927419,-0.88964844,-0.49609375,-0.041015625,2.0625,2.0,-0.875
104,104,1729519927459,-0.88183594,-0.48535156,-0.05078125,2.71875,2.0625,-0.75
105,105,1729519927499,-0.89746094,-0.4873047,-0.049804688,2.0,1.6875,-0.875
106,106,1729519927539,-0.88964844,-0.4970703,-0.032226562,1.375,1.3125,-1.0
107,107,1729519927579,-0.88671875,-0.484375,-0.041992188,2.0625,1.375,-1.125
108,108,1729519927619,-0.8808594,-0.49414062,-0.0390625,1.21875,0.78125,-1.3125
109,109,1729519927659,-0.89746094,-0.4892578,-0.024414062,1.375,1.3125,-1.0625
110,110,1729519927699,-0.88183594,-0.49023438,-0.029296875,2.90625,1.03125,-0.875
111,111,1729519927739,-0.8886719,-0.48828125,-0.04296875,2.375,1.8125,-1.125
112,112,1729519927779,-0.890625,-0.48339844,-0.02734375,2.4375,1.75,-1.125
113,113,1729519927819,-0.8876953,-0.48242188,-0.0390625,2.25,1.6875,-0.875
114,114,1729519927859,-0.8857422,-0.49414062,-0.03515625,1.875,1.75,-0.75
115,115,1729519927899,-0.88964844,-0.49023438,-0.03125,1.8125,1.5625,-0.8125
116,116,1729519927939,-0.8857422,-0.4970703,-0.032226562,1.4375,1.09375,-0.8125
117,117,1729519927979,-0.8955078,-0.49902344,-0.032226562,2.1875,1.5,-0.9375
118,118,1729519928019,-0.890625,-0.49121094,-0.032226562,2.0,1.3125,-0.875
119,119,1729519928059,-0.8808594,-0.48632812,-0.032226562,1.75,1.5625,-0.875
120,120,1729519928099,-0.8925781,-0.49316406,-0.026367188,1.625,1.75,-0.875
121,121,1729519928139,-0.8769531,-0.49414062,-0.041992188,1.5625,1.375,-0.6875
122,122,1729519928179,-0.890625,-0.49121094,-0.04296875,2.375,1.875,-0.875
123,123,1729519928219,-0.8964844,-0.4873047,-0.037109375,1.375,1.5625,-1.1875
124,124,1729519928259,-0.8798828,-0.4892578,-0.02734375,2.5,1.5625,-0.875
125,125,1729519928299,-0.89160156,-0.49804688,-0.033203125,2.0,2.3125,-0.4375
126,126,1729519928339,-0.89160156,-0.49804688,-0.037109375,2.375,2.65625,-0.375
127,127,1729519928379,-0.89941406,-0.49902344,-0.025390625,2.78125,2.65625,-0.6875
128,128,1729519928419,-0.890625,-0.49414062,-0.036132812,2.25,2.0,-0.75
129,129,1729519928459,-0.8847656,-0.48828125,-0.037109375,3.03125,2.5,-0.875
130,130,1729519928499,-0.8876953,-0.49121094,-0.046875,3.03125,2.65625,-0.875
131,131,1729519928539,-0.8935547,-0.48242188,-0.026367188,2.1875,2.3125,-0.75
132,132,1729519928579,-0.8857422,-0.49121094,-0.0390625,2.5,1.6875,-0.75
133,133,1729519928619,-0.89160156,-0.49023438,-0.051757812,1.5625,1.6875,-0.875
134,134,1729519928659,-0.8925781,-0.49316406,-0.04296875,1.4375,1.875,-0.75
135,135,1729519928699,-0.890625,-0.4951172,-0.02734375,1.625,1.375,-0.75
136,136,1729519928739,-0.88964844,-0.49414062,-0.055664062,2.0,1.6875,-0.9375
137,137,1729519928779,-0.88964844,-0.49902344,-0.036132812,2.0,1.625,-1.1875
138,138,1729519928819,-0.890625,-0.4873047,-0.025390625,2.0625,1.5,-0.875
139,139,1729519928859,-0.8847656,-0.4892578,-0.029296875,2.125,2.0,-0.875
140,140,1729519928899,-0.8955078,-0.48046875,-0.036132812,2.0,1.4375,-1.125
141,141,1729519928939,-0.89160156,-0.49609375,-0.04296875,1.4375,0.84375,-1.0
142,142,1729519928979,-0.8828125,-0.48828125,-0.029296875,1.3125,1.09375,-1.1875
143,143,1729519929019,-0.8886719,-0.4873047,-0.038085938,1.09375,1.03125,-1.40625
144,144,1729519929059,-0.89160156,-0.4892578,-0.01953125,0.90625,0.84375,-1.3125
145,145,1729519929099,-0.89160156,-0.49023438,-0.032226562,0.40625,0.28125,-1.125
146,146,1729519929139,-0.88964844,-0.4873047,-0.037109375,1.4375,0.96875,-1.0625
147,147,1729519929179,-0.8925781,-0.48339844,-0.022460938,1.15625,1.625,-1.1875
148,148,1729519929219,-0.8876953,-0.49609375,-0.033203125,1.15625,0.71875,-0.9375
149,149,1729519929259,-0.8876953,-0.4951172,-0.041992188,2.65625,1.5,-0.875
150,150,1729519929299,-0.8857422,-0.48632812,-0.036132812,1.4375,1.8125,-1.25
151,151,1729519929339,-0.8925781,-0.50390625,-0.032226562,2.71875,1.8125,-1.0
152,152,1729519929379,-0.88964844,-0.49121094,-0.03125,2.65625,1.625,-1.125
153,153,1729519929419,-0.88671875,-0.4892578,-0.040039062,2.0625,1.5,-1.3125
154,154,1729519929459,-0.8925781,-0.4970703,-0.036132812,2.375,2.0,-1.0625
155,155,1729519929499,-0.88671875,-0.49804688,-0.041015625,2.78125,2.1875,-0.875
156,156,1729519929539,-0.8886719,-0.49609375,-0.037109375,2.3125,1.625,-1.0625
157,157,1729519929579,-0.89160156,-0.4892578,-0.024414062,2.0,1.21875,-1.25
158,158,1729519929619,-0.8925781,-0.49609375,-0.024414062,1.5625,1.4375,-1.25
159,159,1729519929659,-0.8876953,-0.49023438,-0.038085938,2.125,1.09375,-1.1875
160,160,1729519929699,-0.88183594,-0.4921875,-0.04296875,1.21875,0.46875,-1.34375
161,161,1729519929739,-0.8857422,-0.4892578,-0.028320312,1.3125,1.09375,-1.40625
162,162,1729519929779,-0.88378906,-0.49121094,-0.047851562,2.0,1.15625,-1.125
163,163,1729519929819,-0.8769531,-0.49609375,-0.029296875,2.0,0.84375,-1.125
164,164,1729519929859,-0.88671875,-0.49316406,-0.0234375,2.0625,1.875,-0.6875
165,165,1729519929899,-0.8847656,-0.5019531,-0.0390625,2.78125,1.75,-1.25
166,166,1729519929939,-0.8984375,-0.4892578,-0.036132812,1.875,1.15625,-1.59375
167,167,1729519929979,-0.8886719,-0.49804688,-0.030273438,1.03125,0.53125,-1.125
168,168,1729519930019,-0.8886719,-0.4873047,-0.043945312,1.8125,1.09375,-1.25
169,169,1729519930059,-0.8925781,-0.49804688,-0.025390625,1.4375,0.90625,-1.125
170,170,1729519930099,-0.87890625,-0.5,-0.026367188,1.375,0.71875,-1.25
171,171,1729519930139,-0.88964844,-0.4951172,-0.028320312,2.0,1.21875,-1.1875
172,172,1729519930179,-0.88183594,-0.5029297,-0.034179688,2.5,1.5625,-1.1875
173,173,1729519930219,-0.9003906,-0.50390625,-0.025390625,2.375,1.3125,-1.40625
174,174,1729519930259,-0.8847656,-0.48632812,-0.043945312,1.625,0.96875,-1.1875
175,175,1729519930299,-0.87890625,-0.5,-0.015625,1.625,1.21875,-1.125
176,176,1729519930339,-0.87890625,-0.49609375,-0.0146484375,1.5625,1.03125,-1.46875
177,177,1729519930379,-0.87890625,-0.5078125,-0.022460938,1.5,0.34375,-1.65625
178,178,1729519930419,-0.8925781,-0.48828125,-0.033203125,1.6875,0.96875,-1.84375
179,179,1729519930459,-0.8876953,-0.49609375,-0.022460938,1.875,0.96875,-1.46875
180,180,1729519930499,-0.87597656,-0.5019531,-0.020507812,1.21875,0.65625,-1.46875
181,181,1729519930539,-0.8847656,-0.4921875,-0.01953125,0.84375,0.46875,-1.40625
182,182,1729519930579,-0.87890625,-0.50878906,-0.009765625,1.375,1.6875,-0.9375
183,183,1729519930619,-0.8857422,-0.5078125,-0.017578125,1.6875,2.0625,-0.75
184,184,1729519930659,-0.8857422,-0.4951172,-0.026367188,1.5,1.625,-0.8125
185,185,1729519930699,-0.8828125,-0.50390625,-0.018554688,1.6875,2.0,-0.6875
186,186,1729519930739,-0.8730469,-0.49804688,-0.01953125,1.625,1.8125,-0.75
187,187,1729519930779,-0.8857422,-0.49609375,-0.036132812,1.75,1.5625,-0.5625
188,188,1729519930819,-0.87890625,-0.50390625,-0.022460938,1.375,2.3125,-0.5
189,189,1729519930859,-0.8886719,-0.5048828,-0.021484375,1.625,2.0,-0.75
190,190,1729519930899,-0.8847656,-0.50683594,-0.021484375,2.0625,1.875,-0.625
191,191,1729519930939,-0.8876953,-0.5107422,-0.04296875,2.3125,2.0625,-0.75
192,192,1729519930979,-0.8828125,-0.5029297,-0.017578125,2.78125,2.3125,-1.0
193,193,1729519931019,-0.8808594,-0.49414062,-0.020507812,3.34375,2.71875,-0.625
194,194,1729519931059,-0.88378906,-0.4921875,-0.038085938,3.03125,2.78125,-0.4375
195,195,1729519931099,-0.8828125,-0.5029297,-0.030273438,2.125,2.65625,-0.75
196,196,1729519931139,-0.8886719,-0.4921875,-0.0078125,2.0,1.5625,-0.6875
197,197,1729519931179,-0.8798828,-0.4970703,-0.029296875,1.5,1.5625,-0.8125
198,198,1729519931219,-0.88964844,-0.49902344,-0.015625,1.4375,1.8125,-0.875
199,199,1729519931259,-0.8828125,-0.49316406,-0.038085938,1.15625,1.5625,-0.8125
200,200,1729519931299,-0.8828125,-0.49414062,-0.025390625,1.4375,1.625,-0.5625
201,201,1729519931339,-0.8955078,-0.49902344,-0.026367188,1.09375,1.6875,-0.5625
202,202,1729519931379,-0.8964844,-0.49902344,-0.028320312,1.3125,1.75,-0.6875
203,203,1729519931419,-0.8876953,-0.4921875,-0.022460938,1.3125,1.625,-0.75
204,204,1729519931459,-0.88964844,-0.5029297,-0.025390625,1.5625,1.5625,-0.6875
205,205,1729519931499,-0.88378906,-0.50390625,-0.0234375,1.21875,1.625,-0.8125
206,206,1729519931539,-0.8828125,-0.48828125,-0.041015625,2.0,1.875,-0.5625
207,207,1729519931579,-0.88378906,-0.49804688,-0.028320312,1.875,2.25,-0.25
208,208,1729519931619,-0.88183594,-0.5029297,-0.026367188,2.3125,2.5625,-0.5
209,209,1729519931659,-0.8984375,-0.4892578,-0.036132812,2.3125,2.375,-0.8125
210,210,1729519931699,-0.8876953,-0.49316406,-0.022460938,1.6875,2.0,-0.5
211,211,1729519931739,-0.8808594,-0.49902344,-0.040039062,2.125,1.8125,-0.375
212,212,1729519931779,-0.88378906,-0.49804688,-0.0390625,1.4375,2.4375,-0.6875
213,213,1729519931819,-0.8925781,-0.49414062,-0.028320312,1.5625,1.8125,-0.5
214,214,1729519931859,-0.8876953,-0.48535156,-0.047851562,2.5,2.3125,-0.1875
215,215,1729519931899,-0.8876953,-0.5,-0.040039062,1.375,2.125,-0.375
216,216,1729519931939,-0.8808594,-0.49609375,-0.022460938,1.8125,1.5625,-0.625
217,217,1729519931979,-0.8886719,-0.49023438,-0.033203125,2.125,2.0,-0.4375
218,218,1729519932019,-0.8808594,-0.5019531,-0.02734375,1.5,1.6875,-0.75
219,219,1729519932059,-0.88378906,-0.49121094,-0.033203125,2.0625,1.625,-0.6875
220,220,1729519932099,-0.8876953,-0.4951172,-0.02734375,1.75,2.1875,-0.4375
221,221,1729519932139,-0.8964844,-0.4970703,-0.030273438,2.375,2.0625,-0.5
222,222,1729519932179,-0.8876953,-0.49023438,-0.032226562,2.78125,2.125,-0.3125
223,223,1729519932219,-0.8828125,-0.4873047,-0.033203125,2.0625,2.125,-0.625
224,224,1729519932259,-0.8955078,-0.5019531,-0.036132812,2.1875,1.8125,-0.625
225,225,1729519932299,-0.88964844,-0.4970703,-0.038085938,2.1875,1.5,-0.5
226,226,1729519932339,-0.8925781,-0.48242188,-0.041015625,1.5,1.8125,-0.875
227,227,1729519932379,-0.88183594,-0.48632812,-0.026367188,1.09375,1.375,-0.75
228,228,1729519932419,-0.8876953,-0.4970703,-0.029296875,0.96875,1.15625,-0.3125
229,229,1729519932459,-0.8798828,-0.5126953,-0.038085938,1.4375,1.3125,-0.5625
230,230,1729519932499,-0.88671875,-0.49609375,-0.029296875,1.75,1.8125,-0.8125
231,231,1729519932539,-0.8847656,-0.49121094,-0.01171875,1.6875,1.4375,-0.6875
232,232,1729519932579,-0.88378906,-0.5078125,-0.024414062,2.3125,1.8125,-0.5
233,233,1729519932619,-0.8886719,-0.49121094,-0.029296875,2.65625,1.75,-0.4375
234,234,1729519932659,-0.8857422,-0.48828125,-0.01953125,0.65625,1.15625,-1.125
235,235,1729519932699,-0.8857422,-0.4951172,-0.036132812,1.3125,0.96875,-0.625
236,236,1729519932739,-0.8876953,-0.48828125,-0.026367188,1.3125,1.09375,-0.5625
237,237,1729519932779,-0.8857422,-0.49804688,-0.02734375,0.34375,1.09375,-0.8125
238,238,1729519932819,-0.8935547,-0.48828125,-0.036132812,1.375,1.21875,-0.9375
239,239,1729519932859,-0.88183594,-0.4873047,-0.03515625,1.3125,1.21875,-0.875
240,240,1729519932899,-0.9003906,-0.49316406,-0.038085938,0.84375,1.15625,-0.9375
241,241,1729519932939,-0.8886719,-0.49023438,-0.040039062,1.625,1.03125,-0.875
242,242,1729519932979,-0.8886719,-0.5,-0.025390625,1.5625,1.5,-0.4375
243,243,1729519933019,-0.8886719,-0.5019531,-0.03515625,2.375,2.125,-0.75
244,244,1729519933059,-0.88964844,-0.49414062,-0.029296875,0.59375,0.53125,0.21875
245,245,1729519933099,-0.88964844,-0.48535156,-0.04296875,0.84375,0.40625,0.15625
246,246,1729519933139,-0.8798828,-0.50097656,-0.025390625,0.46875,-0.0625,0.0
247,247,1729519933179,-0.89746094,-0.4892578,-0.03125,0.84375,0.28125,-0.3125
248,248,1729519933219,-0.8876953,-0.484375,-0.021484375,0.53125,0.40625,-0.25
249,249,1729519933259,-0.8955078,-0.49023438,-0.032226562,1.09375,0.21875,0.21875
250,250,1729519933299,-0.8955078,-0.5019531,-0.041015625,0.65625,0.03125,-0.25
251,251,1729519933339,-0.88964844,-0.48535156,-0.033203125,0.15625,-0.3125,-0.4375
252,252,1729519933379,-0.890625,-0.49316406,-0.03515625,0.59375,0.21875,-0.125
253,253,1729519933419,-0.88964844,-0.5,-0.033203125,0.40625,-0.0625,-0.1875
254,254,1729519933459,-0.8828125,-0.4921875,-0.0390625,0.09375,-0.5625,-0.4375
255,255,1729519933499,-0.88183594,-0.49414062,-0.025390625,-0.125,-0.5,-0.1875
256,256,1729519933539,-0.8876953,-0.49902344,-0.033203125,-0.1875,-0.1875,-0.25
257,257,1729519933579,-0.89160156,-0.5,-0.03125,-0.0625,-0.5625,-0.4375
258,258,1729519933619,-0.8857422,-0.49023438,-0.033203125,-0.125,-0.5625,-0.625
259,259,1729519933659,-0.89160156,-0.49121094,-0.029296875,-0.3125,-0.5,-0.9375
260,260,1729519933699,-0.8984375,-0.48535156,-0.015625,-0.625,-0.8125,-0.5625
261,261,1729519933739,-0.88964844,-0.49316406,-0.0078125,-1.25,-1.0,-0.375
262,262,1729519933779,-0.8828125,-0.5048828,-0.028320312,-0.25,-0.9375,-0.1875
263,263,1729519933819,-0.88183594,-0.49316406,-0.040039062,-0.125,0.21875,-0.8125
264,264,1729519933859,-0.88671875,-0.49804688,-0.025390625,0.0,-0.0625,-0.5625
265,265,1729519933899,-0.8886719,-0.49804688,-0.03515625,-0.0625,-0.125,-0.1875
266,266,1729519933939,-0.88671875,-0.50097656,-0.01953125,0.09375,0.53125,-0.625
267,267,1729519933979,-0.8847656,-0.5,-0.026367188,-0.25,0.15625,-0.4375
268,268,1729519934019,-0.8886719,-0.49316406,-0.021484375,-0.0625,0.03125,-0.1875
269,269,1729519934059,-0.8857422,-0.49902344,-0.029296875,0.34375,-0.1875,-0.125
270,270,1729519934099,-0.88378906,-0.49804688,-0.028320312,0.53125,0.46875,-0.4375
271,271,1729519934139,-0.88671875,-0.5,-0.022460938,0.65625,1.09375,-0.1875
272,272,1729519934179,-0.8808594,-0.5019531,-0.038085938,1.09375,0.59375,-0.0625
273,273,1729519934219,-0.8886719,-0.5029297,-0.03125,0.84375,0.59375,-0.125
274,274,1729519934259,-0.8828125,-0.49609375,-0.032226562,1.3125,0.59375,-0.375
275,275,1729519934299,-0.89160156,-0.49023438,-0.034179688,0.71875,0.21875,-0.3125
276,276,1729519934339,-0.8769531,-0.49804688,-0.043945312,0.71875,0.40625,-0.1875
277,277,1729519934379,-0.8886719,-0.50390625,-0.034179688,0.53125,0.78125,-0.125
278,278,1729519934419,-0.8955078,-0.4970703,-0.021484375,0.21875,0.46875,-0.0625
279,279,1729519934459,-0.8886719,-0.48535156,-0.0390625,0.0,0.03125,-0.0625
280,280,1729519934499,-0.8808594,-0.4892578,-0.024414062,-0.4375,-0.125,-0.125
281,281,1729519934539,-0.8828125,-0.5048828,-0.034179688,0.0,0.09375,-0.25
282,282,1729519934579,-0.88671875,-0.50390625,-0.022460938,-0.3125,-0.4375,-0.125
283,283,1729519934619,-0.875,-0.49902344,-0.02734375,-0.4375,-0.6875,-0.25
284,284,1729519934659,-0.8847656,-0.5019531,-0.026367188,-0.5625,-0.1875,-0.125
285,285,1729519934699,-0.890625,-0.49316406,-0.029296875,-0.375,-0.4375,0.09375
286,286,1729519934739,-0.8847656,-0.5058594,-0.021484375,-0.5,-0.5625,0.0
287,287,1729519934779,-0.88378906,-0.49023438,-0.036132812,-0.375,-0.3125,-0.1875
288,288,1729519934819,-0.88378906,-0.4951172,-0.036132812,0.59375,0.09375,-0.25
289,289,1729519934859,-0.8886719,-0.4951172,-0.034179688,-0.0625,-0.1875,-0.1875
290,290,1729519934899,-0.8847656,-0.49414062,-0.032226562,0.28125,0.03125,-0.25
291,291,1729519934939,-0.8857422,-0.5,-0.021484375,0.34375,0.03125,-0.0625
292,292,1729519934979,-0.8808594,-0.4951172,-0.05078125,0.09375,0.15625,-0.125
293,293,1729519935019,-0.8955078,-0.5078125,-0.033203125,-0.0625,-0.3125,-0.1875
294,294,1729519935059,-0.8925781,-0.5029297,-0.022460938,0.40625,0.28125,0.0
295,295,1729519935099,-0.87597656,-0.49902344,-0.026367188,0.46875,0.21875,-0.0625
296,296,1729519935139,-0.8847656,-0.49414062,-0.025390625,0.09375,-0.125,-0.125
297,297,1729519935179,-0.890625,-0.50097656,-0.038085938,0.40625,0.21875,0.09375
298,298,1729519935219,-0.89160156,-0.49902344,-0.0234375,0.03125,0.21875,0.03125
299,299,1729519935259,-0.88964844,-0.49804688,-0.020507812,-0.1875,-0.25,0.03125
300,300,1729519935299,-0.8808594,-0.5,-0.033203125,0.28125,0.28125,-0.0625
301,301,1729519935339,-0.8935547,-0.49804688,-0.030273438,-0.1875,0.03125,-0.1875
302,302,1729519935379,-0.8769531,-0.49414062,-0.026367188,0.34375,0.03125,0.03125
303,303,1729519935419,-0.9013672,-0.4921875,-0.041992188,0.40625,0.40625,-0.0625
304,304,1729519935459,-0.88964844,-0.49316406,-0.01953125,-0.375,-0.0625,0.09375
305,305,1729519935499,-0.8857422,-0.4873047,-0.032226562,0.34375,0.40625,0.09375
306,306,1729519935539,-0.88671875,-0.49414062,-0.038085938,0.03125,0.03125,0.09375
307,307,1729519935579,-0.8876953,-0.5,-0.034179688,-0.625,-0.3125,-0.0625
308,308,1729519935619,-0.890625,-0.50390625,-0.036132812,-0.0625,0.21875,-0.1875
309,309,1729519935659,-0.8876953,-0.5,-0.020507812,0.09375,0.0,0.21875
310,310,1729519935699,-0.8886719,-0.49804688,-0.032226562,-0.1875,0.21875,0.0
311,311,1729519935739,-0.88183594,-0.48632812,-0.043945312,-0.4375,-0.25,0.21875
312,312,1729519935779,-0.8886719,-0.49609375,-0.043945312,-0.1875,0.0,0.15625
313,313,1729519935819,-0.8798828,-0.4970703,-0.02734375,-0.3125,-0.25,0.0
314,314,1729519935859,-0.8847656,-0.49414062,-0.041015625,-0.0625,-0.125,0.15625
315,315,1729519935899,-0.8847656,-0.49804688,-0.022460938,0.40625,0.65625,0.0
316,316,1729519935939,-0.8857422,-0.4970703,-0.024414062,0.28125,0.21875,-0.125
317,317,1729519935979,-0.88671875,-0.49316406,-0.041015625,0.40625,0.21875,0.09375
318,318,1729519936019,-0.88671875,-0.49609375,-0.026367188,0.53125,0.40625,0.34375
319,319,1729519936059,-0.8847656,-0.4921875,-0.028320312,0.65625,0.40625,0.0
320,320,1729519936099,-0.8847656,-0.49121094,-0.03515625,0.28125,0.28125,-0.125
321,321,1729519936139,-0.8955078,-0.49414062,-0.034179688,0.15625,-0.1875,-0.75
322,322,1729519936179,-0.8828125,-0.5029297,-0.037109375,0.84375,-0.5625,-0.9375
323,323,1729519936219,-0.8955078,-0.5,-0.021484375,-1.34375,-1.96875,-1.53125
324,324,1729519936259,-0.87890625,-0.5078125,-0.033203125,-1.3125,-2.9375,-1.3125
325,325,1729519936299,-0.8828125,-0.4970703,-0.033203125,1.3125,-0.3125,-0.5
326,326,1729519936339,-0.8808594,-0.49316406,-0.049804688,0.96875,0.65625,-0.3125
327,327,1729519936379,-0.8935547,-0.49121094,-0.029296875,-0.0625,-0.3125,0.0
328,328,1729519936419,-0.8857422,-0.5029297,-0.038085938,0.0,-0.0625,0.21875
329,329,1729519936459,-0.8808594,-0.49902344,-0.033203125,0.0,0.09375,0.21875
330,330,1729519936499,-0.8955078,-0.49609375,-0.03515625,-0.5,-0.375,-0.3125
331,331,1729519936539,-0.8847656,-0.49902344,-0.030273438,-0.9375,-1.125,-0.1875
332,332,1729519936579,-0.8798828,-0.4970703,-0.037109375,0.28125,-0.3125,0.21875
333,333,1729519936619,-0.8828125,-0.49902344,-0.024414062,0.28125,0.28125,0.21875
334,334,1729519936659,-0.88378906,-0.49609375,-0.0234375,-0.375,0.03125,0.0
335,335,1729519936699,-0.8925781,-0.49414062,-0.049804688,0.34375,-0.125,0.21875
336,336,1729519936739,-0.87890625,-0.5029297,-0.015625,0.03125,-0.3125,0.09375
337,337,1729519936779,-0.89160156,-0.5107422,-0.025390625,-0.1875,0.21875,-0.0625
338,338,1729519936819,-0.8808594,-0.5,-0.025390625,0.53125,0.15625,0.09375
339,339,1729519936859,-0.88378906,-0.5019531,-0.036132812,-0.0625,0.0,0.03125
340,340,1729519936899,-0.8857422,-0.4970703,-0.034179688,0.21875,-0.4375,0.21875
341,341,1729519936939,-0.8701172,-0.49414062,-0.020507812,0.15625,0.46875,0.40625
342,342,1729519936979,-0.89160156,-0.48535156,-0.022460938,0.40625,0.59375,0.09375
343,343,1729519937019,-0.8886719,-0.48828125,-0.028320312,0.34375,0.15625,0.03125
344,344,1729519937059,-0.8886719,-0.49316406,-0.020507812,0.0,0.21875,0.03125
345,345,1729519937099,-0.88964844,-0.48828125,-0.018554688,0.40625,0.28125,-0.0625
346,346,1729519937139,-0.8808594,-0.4951172,-0.03515625,0.78125,0.59375,0.28125
347,347,1729519937179,-0.8828125,-0.49316406,-0.033203125,0.34375,0.65625,0.40625
348,348,1729519937219,-0.88964844,-0.5078125,-0.04296875,0.78125,0.40625,0.46875
349,349,1729519937259,-0.890625,-0.4970703,-0.048828125,0.46875,0.84375,-0.125
350,350,1729519937299,-0.8886719,-0.48828125,-0.04296875,0.65625,0.28125,-0.0625
351,351,1729519937339,-0.89160156,-0.49023438,-0.03515625,0.0,-0.25,-0.125
352,352,1729519937379,-0.88378906,-0.48632812,-0.026367188,0.28125,-0.375,-0.0625
353,353,1729519937419,-0.890625,-0.49121094,-0.036132812,-0.4375,-0.1875,-0.0625
354,354,1729519937459,-0.8925781,-0.48828125,-0.0078125,-0.5,-0.25,-0.0625
355,355,1729519937499,-0.890625,-0.4921875,-0.028320312,-0.1875,-0.8125,0.0
356,356,1729519937539,-0.87890625,-0.49316406,-0.030273438,-0.75,-0.5,-0.25
357,357,1729519937579,-0.890625,-0.49902344,-0.025390625,-0.25,-0.25,-0.0625
358,358,1729519937619,-0.8828125,-0.50097656,-0.030273438,-0.125,-0.0625,0.21875
359,359,1729519937659,-0.8847656,-0.50878906,-0.03125,-0.0625,-0.4375,-0.25
360,360,1729519937699,-0.8935547,-0.49804688,-0.03515625,0.59375,-0.375,-0.4375
361,361,1729519937739,-0.88671875,-0.49414062,-0.02734375,0.28125,0.40625,-0.3125
362,362,1729519937779,-0.8925781,-0.49902344,-0.01953125,0.34375,-0.125,-0.0625
363,363,1729519937819,-0.87890625,-0.49902344,-0.040039062,0.15625,-0.5625,-0.3125
364,364,1729519937859,-0.8808594,-0.5,-0.0234375,-0.0625,-0.125,-0.25
365,365,1729519937899,-0.8935547,-0.49121094,-0.0390625,0.03125,-0.125,-0.4375
366,366,1729519937939,-0.8779297,-0.49804688,-0.03125,0.09375,-0.5625,-0.4375
367,367,1729519937979,-0.8847656,-0.49804688,-0.030273438,0.0,-0.875,-0.1875
368,368,1729519938019,-0.8798828,-0.5019531,-0.0390625,1.28125,0.46875,-0.3125
369,369,1729519938059,-0.8886719,-0.49414062,-0.037109375,0.53125,0.15625,-0.4375
370,370,1729519938099,-0.8925781,-0.4892578,-0.036132812,-0.0625,-0.4375,-0.4375
371,371,1729519938139,-0.89160156,-0.49609375,-0.021484375,0.34375,-0.0625,-0.125
372,372,1729519938179,-0.8808594,-0.49414062,-0.025390625,0.40625,-0.0625,0.03125
373,373,1729519938219,-0.89453125,-0.49609375,-0.046875,-0.25,-0.75,-0.8125
374,374,1729519938259,-0.87597656,-0.4892578,-0.0107421875,-0.5,-1.1875,-0.625
375,375,1729519938299,-0.88671875,-0.49316406,-0.021484375,0.34375,-0.125,0.0
376,376,1729519938339,-0.88671875,-0.49609375,-0.0234375,0.40625,0.78125,0.09375
377,377,1729519938379,-0.88183594,-0.49414062,-0.0068359375,-0.75,0.34375,0.15625
378,378,1729519938419,-0.88964844,-0.50878906,-0.022460938,-0.25,-0.25,-0.0625
379,379,1729519938459,-0.88378906,-0.5058594,-0.024414062,-0.5,-1.40625,-0.25
380,380,1729519938499,-0.8857422,-0.49902344,-0.03515625,-0.0625,-0.625,-1.125
381,381,1729519938539,-0.8808594,-0.4892578,-0.0234375,0.0,0.59375,-0.5625
382,382,1729519938579,-0.8808594,-0.4892578,-0.022460938,0.53125,0.28125,-0.0625
383,383,1729519938619,-0.8779297,-0.5048828,-0.040039062,0.03125,0.0,-0.1875
384,384,1729519938659,-0.8808594,-0.4951172,-0.024414062,-1.25,-0.6875,-0.375
385,385,1729519938699,-0.8876953,-0.5029297,-0.0234375,0.71875,0.34375,-0.375
386,386,1729519938739,-0.8769531,-0.4951172,-0.029296875,0.03125,0.0,-0.25
387,387,1729519938779,-0.8808594,-0.49609375,-0.034179688,-0.0625,-0.3125,-0.625
388,388,1729519938819,-0.8798828,-0.4951172,-0.02734375,0.34375,0.59375,-0.125
389,389,1729519938859,-0.8798828,-0.49609375,-0.036132812,1.03125,0.65625,-0.375
390,390,1729519938899,-0.8955078,-0.48632812,-0.0234375,0.78125,0.03125,-0.0625
391,391,1729519938939,-0.8886719,-0.49804688,-0.028320312,-0.625,-0.5625,-0.1875
392,392,1729519938979,-0.88671875,-0.4921875,-0.034179688,0.15625,0.21875,-0.4375
393,393,1729519939019,-0.8847656,-0.50097656,-0.022460938,-0.375,-0.1875,-0.375
394,394,1729519939059,-0.8808594,-0.49609375,-0.037109375,-0.4375,-0.375,0.03125
395,395,1729519939099,-0.875,-0.50878906,-0.030273438,0.53125,-0.25,0.21875
396,396,1729519939139,-0.8779297,-0.49609375,-0.046875,0.0,0.0,-0.25
397,397,1729519939179,-0.8847656,-0.4951172,-0.0078125,-0.0625,0.40625,-0.1875
398,398,1729519939219,-0.8876953,-0.49316406,-0.028320312,0.03125,0.03125,0.40625
399,399,1729519939259,-0.8808594,-0.5126953,-0.017578125,-0.0625,-0.4375,0.40625
400,400,1729519939299,-0.88671875,-0.5019531,-0.022460938,-0.5,0.21875,-0.0625
401,401,1729519939339,-0.88671875,-0.5,-0.029296875,-0.3125,-0.125,0.15625
402,402,1729519939379,-0.8876953,-0.5078125,-0.029296875,0.09375,-0.0625,0.28125
403,403,1729519939419,-0.87597656,-0.48632812,-0.03515625,0.53125,0.90625,-0.1875
404,404,1729519939459,-0.8925781,-0.49804688,-0.028320312,-0.0625,0.15625,0.09375
405,405,1729519939499,-0.8847656,-0.5058594,-0.025390625,0.65625,-0.0625,0.59375
406,406,1729519939539,-0.8886719,-0.5,-0.034179688,0.46875,0.46875,0.53125
407,407,1729519939579,-0.87890625,-0.4970703,-0.024414062,0.03125,0.78125,0.09375
408,408,1729519939619,-0.8857422,-0.4892578,-0.036132812,0.34375,0.03125,0.21875
409,409,1729519939659,-0.8779297,-0.5,-0.037109375,0.46875,0.15625,0.59375
410,410,1729519939699,-0.8769531,-0.49902344,-0.0390625,0.21875,0.90625,0.0
411,411,1729519939739,-0.89453125,-0.49902344,-0.03515625,0.03125,-0.0625,0.03125
412,412,1729519939779,-0.87890625,-0.5,-0.032226562,0.34375,0.46875,0.71875
413,413,1729519939819,-0.8808594,-0.49804688,-0.020507812,0.65625,0.65625,0.40625
414,414,1729519939859,-0.8935547,-0.49316406,-0.024414062,-0.4375,0.21875,-0.0625
415,415,1729519939899,-0.88671875,-0.49902344,-0.024414062,-0.0625,0.09375,0.40625
416,416,1729519939939,-0.88671875,-0.5019531,-0.0234375,0.34375,0.03125,0.09375
417,417,1729519939979,-0.8955078,-0.49023438,-0.02734375,0.09375,0.46875,0.09375
418,418,1729519940019,-0.8808594,-0.49023438,-0.036132812,0.21875,0.53125,0.46875
419,419,1729519940059,-0.8876953,-0.48632812,-0.033203125,0.15625,0.28125,0.34375
420,420,1729519940099,-0.8828125,-0.49023438,-0.034179688,0.21875,0.40625,0.21875
421,421,1729519940139,-0.8847656,-0.49316406,-0.030273438,-0.3125,0.15625,0.15625
422,422,1729519940179,-0.8876953,-0.49902344,-0.0234375,0.03125,0.28125,0.28125
423,423,1729519940219,-0.88671875,-0.49609375,-0.043945312,0.28125,0.34375,0.21875
424,424,1729519940259,-0.8857422,-0.4970703,-0.029296875,-0.25,0.21875,0.0
425,425,1729519940299,-0.88378906,-0.49316406,-0.034179688,-0.1875,-0.125,0.28125
426,426,1729519940339,-0.89160156,-0.5,-0.041992188,-0.4375,-0.125,0.15625
427,427,1729519940379,-0.89160156,-0.49609375,-0.017578125,-0.8125,-0.5625,0.0
428,428,1729519940419,-0.8857422,-0.48828125,-0.028320312,-0.0625,-0.25,0.15625
429,429,1729519940459,-0.8935547,-0.49609375,-0.043945312,-0.1875,0.09375,-0.3125
430,430,1729519940499,-0.8808594,-0.4970703,-0.020507812,-0.125,-0.0625,0.0
431,431,1729519940539,-0.8798828,-0.49609375,-0.028320312,0.03125,0.09375,0.03125
432,432,1729519940579,-0.89160156,-0.50097656,-0.034179688,-0.4375,0.03125,-0.3125
433,433,1729519940619,-0.8886719,-0.49804688,-0.025390625,-0.25,0.15625,0.0
434,434,1729519940659,-0.88671875,-0.49414062,-0.041992188,0.0,0.09375,0.09375
435,435,1729519940699,-0.8955078,-0.50097656,-0.028320312,-0.5,-0.0625,0.0
436,436,1729519940739,-0.88183594,-0.5048828,-0.025390625,0.21875,0.15625,-0.0625
437,437,1729519940779,-0.88183594,-0.49414062,-0.040039062,0.09375,0.59375,-0.0625
438,438,1729519940819,-0.8847656,-0.49121094,-0.03515625,0.15625,0.34375,0.09375
439,439,1729519940859,-0.8886719,-0.4970703,-0.041015625,0.84375,0.53125,0.15625
440,440,1729519940899,-0.8925781,-0.49121094,-0.029296875,-0.0625,0.65625,-0.1875
441,441,1729519940939,-0.8857422,-0.49804688,-0.021484375,0.78125,0.53125,0.15625
442,442,1729519940979,-0.88671875,-0.4892578,-0.04296875,0.71875,0.65625,0.0
443,443,1729519941019,-0.88378906,-0.49023438,-0.02734375,0.0,0.21875,-0.125
444,444,1729519941059,-0.8935547,-0.4951172,-0.024414062,1.375,0.53125,-0.125
445,445,1729519941099,-0.89160156,-0.48828125,-0.041015625,1.09375,0.90625,0.03125
446,446,1729519941139,-0.88671875,-0.49121094,-0.041015625,1.3125,1.03125,-0.1875
447,447,1729519941179,-0.8955078,-0.484375,-0.046875,1.15625,0.78125,0.03125
448,448,1729519941219,-0.8925781,-0.4873047,-0.033203125,0.21875,0.59375,-0.125
449,449,1729519941259,-0.8847656,-0.48632812,-0.048828125,0.90625,0.40625,-0.3125
450,450,1729519941299,-0.8886719,-0.4873047,-0.034179688,0.40625,0.15625,-0.375
451,451,1729519941339,-0.8876953,-0.4892578,-0.034179688,0.34375,0.46875,-0.5625
452,452,1729519941379,-0.89746094,-0.49316406,-0.03515625,0.03125,-0.25,-0.5
453,453,1729519941419,-0.89160156,-0.48632812,-0.041992188,-0.5625,-0.625,-0.125
454,454,1729519941459,-0.8925781,-0.49804688,-0.034179688,0.34375,0.09375,-0.3125
455,455,1729519941499,-0.8886719,-0.4951172,-0.017578125,0.40625,0.28125,-0.125
456,456,1729519941539,-0.89160156,-0.48632812,-0.02734375,0.21875,-0.1875,-0.4375
457,457,1729519941579,-0.8857422,-0.49902344,-0.038085938,0.34375,-0.5,-0.5625
458,458,1729519941619,-0.8828125,-0.4921875,-0.038085938,1.21875,0.40625,-0.75
459,459,1729519941659,-0.89160156,-0.48632812,-0.02734375,0.03125,0.0,-0.5
460,460,1729519941699,-0.8935547,-0.5048828,-0.016601562,-0.0625,0.0,-0.0625
461,461,1729519941739,-0.8847656,-0.5019531,-0.037109375,0.53125,-0.5625,-0.5625
462,462,1729519941779,-0.8847656,-0.49609375,-0.034179688,-0.125,-1.1875,-0.875
463,463,1729519941819,-0.8886719,-0.4892578,-0.03515625,0.09375,0.03125,-0.75
464,464,1729519941859,-0.8828125,-0.49609375,-0.028320312,1.28125,0.28125,-0.1875
465,465,1729519941899,-0.8886719,-0.49804688,-0.03125,0.0,0.03125,-0.25
466,466,1729519941939,-0.8886719,-0.49902344,-0.037109375,-0.1875,-0.5,-0.375
467,467,1729519941979,-0.8876953,-0.49316406,-0.018554688,-0.5,-0.875,-0.3125
468,468,1729519942019,-0.8876953,-0.50390625,-0.029296875,-0.0625,-0.375,-0.6875
469,469,1729519942059,-0.88964844,-0.49902344,-0.026367188,-1.0625,-0.6875,-0.625
470,470,1729519942099,-0.8798828,-0.5019531,-0.04296875,-0.625,-1.0,-0.6875
471,471,1729519942139,-0.8808594,-0.49316406,-0.033203125,-0.5625,-0.8125,-0.5625
472,472,1729519942179,-0.8847656,-0.5029297,-0.032226562,-0.75,-0.6875,-0.4375
473,473,1729519942219,-0.88183594,-0.50683594,-0.03515625,-0.25,-0.3125,0.0
474,474,1729519942259,-0.8886719,-0.4970703,-0.036132812,-0.3125,-0.125,-0.125
475,475,1729519942299,-0.8857422,-0.49414062,-0.026367188,-0.4375,-0.375,-0.125
476,476,1729519942339,-0.8808594,-0.5078125,-0.030273438,-0.1875,-0.25,0.53125
477,477,1729519942379,-0.89453125,-0.5,-0.02734375,-0.3125,-0.0625,-0.125
478,478,1729519942419,-0.8935547,-0.49414062,-0.048828125,-1.0,-0.5,-0.1875
479,479,1729519942459,-0.8828125,-0.49023438,-0.032226562,-0.3125,-0.25,0.34375
480,480,1729519942499,-0.88183594,-0.4970703,-0.043945312,-0.1875,0.34375,0.21875
481,481,1729519942539,-0.8857422,-0.49902344,-0.021484375,-0.75,-0.0625,0.21875
482,482,1729519942579,-0.8798828,-0.50390625,-0.046875,0.78125,0.53125,0.09375
483,483,1729519942619,-0.890625,-0.48828125,-0.033203125,0.46875,0.84375,0.09375
484,484,1729519942659,-0.8828125,-0.49609375,-0.03125,0.28125,0.09375,0.0
485,485,1729519942699,-0.8857422,-0.48535156,-0.036132812,0.28125,0.59375,0.28125
486,486,1729519942739,-0.8925781,-0.5,-0.0390625,-0.5,0.40625,0.40625
487,487,1729519942779,-0.8876953,-0.49804688,-0.029296875,0.71875,0.40625,0.46875
488,488,1729519942819,-0.890625,-0.4970703,-0.036132812,0.09375,0.96875,0.28125
489,489,1729519942859,-0.88964844,-0.49414062,-0.0390625,-0.125,0.09375,0.03125
490,490,1729519942899,-0.8955078,-0.49414062,-0.03515625,0.65625,0.34375,0.46875
491,491,1729519942939,-0.8876953,-0.49609375,-0.033203125,0.03125,1.15625,0.34375
492,492,1729519942979,-0.8935547,-0.484375,-0.03515625,0.0,0.71875,0.34375
493,493,1729519943019,-0.88964844,-0.4892578,-0.033203125,0.15625,0.0,0.40625
494,494,1729519943059,-0.8847656,-0.5019531,-0.046875,-0.6875,-0.0625,0.21875
495,495,1729519943099,-0.8808594,-0.4970703,-0.025390625,-0.5,0.15625,0.15625
496,496,1729519943139,-0.89160156,-0.4970703,-0.041992188,-0.1875,0.09375,0.28125
497,497,1729519943179,-0.8847656,-0.4951172,-0.053710938,-0.1875,-0.6875,-0.25
498,498,1729519943219,-0.8886719,-0.49023438,-0.030273438,0.15625,0.28125,0.28125
499,499,1729519943259,-0.8847656,-0.49121094,-0.034179688,0.15625,-0.3125,0.03125
500,500,1729519943299,-0.8828125,-0.49316406,-0.029296875,0.0,-0.75,-0.4375
501,501,1729519943339,-0.8857422,-0.48828125,-0.04296875,0.46875,0.28125,-0.4375
502,502,1729519943379,-0.9003906,-0.49414062,-0.034179688,0.78125,0.34375,0.0
503,503,1729519943419,-0.88964844,-0.4892578,-0.046875,0.53125,0.09375,-0.0625
504,504,1729519943459,-0.8857422,-0.49316406,-0.041015625,-0.3125,0.0,-0.1875
505,505,1729519943499,-0.8876953,-0.4921875,-0.041015625,0.46875,-0.125,0.09375
506,506,1729519943539,-0.8935547,-0.49609375,-0.03515625,0.59375,1.03125,0.09375
507,507,1729519943579,-0.88964844,-0.49023438,-0.045898438,0.40625,0.03125,-0.0625
508,508,1729519943619,-0.8886719,-0.49316406,-0.029296875,-0.0625,-0.125,0.0
509,509,1729519943659,-0.8857422,-0.50390625,-0.043945312,0.15625,-0.4375,-0.1875
510,510,1729519943699,-0.8828125,-0.49121094,-0.0390625,0.34375,0.21875,-0.375
511,511,1729519943739,-0.8935547,-0.49414062,-0.03515625,-0.3125,-0.1875,-0.4375
512,512,1729519943779,-0.8876953,-0.4892578,-0.038085938,0.46875,-0.6875,-0.375
513,513,1729519943819,-0.8847656,-0.4873047,-0.036132812,0.03125,0.03125,-0.4375
514,514,1729519943859,-0.88671875,-0.49609375,-0.028320312,-0.0625,-0.5625,-0.4375
515,515,1729519943899,-0.8964844,-0.4892578,-0.041992188,0.15625,-0.125,-0.375
516,516,1729519943939,-0.88671875,-0.5029297,-0.036132812,-0.5,-0.4375,-0.25
517,517,1729519943979,-0.8857422,-0.49609375,-0.032226562,-0.5,-0.6875,-0.375
518,518,1729519944019,-0.8886719,-0.49804688,-0.033203125,-1.25,-1.25,-0.25
519,519,1729519944059,-0.88964844,-0.5,-0.043945312,0.21875,-0.125,-0.125
520,520,1729519944099,-0.8828125,-0.5048828,-0.025390625,0.0,0.28125,-0.375
521,521,1729519944139,-0.8808594,-0.4921875,-0.034179688,-0.0625,-0.375,-0.0625
522,522,1729519944179,-0.88964844,-0.4970703,-0.029296875,0.09375,0.09375,0.09375
523,523,1729519944219,-0.8857422,-0.50390625,-0.032226562,0.59375,0.15625,0.03125
524,524,1729519944259,-0.89160156,-0.4892578,-0.055664062,0.15625,0.03125,-0.375
525,525,1729519944299,-0.8828125,-0.49902344,-0.03515625,0.03125,-0.25,0.0
526,526,1729519944339,-0.8847656,-0.5,-0.040039062,1.28125,0.40625,0.0
527,527,1729519944379,-0.89160156,-0.50097656,-0.04296875,0.40625,0.09375,-0.1875
528,528,1729519944419,-0.8857422,-0.4892578,-0.026367188,0.46875,0.40625,0.03125
529,529,1729519944459,-0.8857422,-0.49609375,-0.02734375,0.71875,0.40625,-0.0625
530,530,1729519944499,-0.88964844,-0.4892578,-0.026367188,0.59375,0.03125,0.03125
531,531,1729519944539,-0.88964844,-0.48632812,-0.040039062,-0.0625,-0.3125,-0.125
532,532,1729519944579,-0.88671875,-0.48828125,-0.0234375,-0.3125,-0.1875,-0.25
533,533,1729519944619,-0.8828125,-0.49609375,-0.038085938,0.34375,0.03125,0.34375
534,534,1729519944659,-0.88183594,-0.49804688,-0.037109375,-0.3125,-0.1875,0.09375
535,535,1729519944699,-0.890625,-0.49121094,-0.033203125,0.84375,0.15625,0.03125
536,536,1729519944739,-0.8925781,-0.4951172,-0.033203125,-0.375,-0.125,-0.0625
537,537,1729519944779,-0.8935547,-0.49804688,-0.02734375,0.28125,-0.6875,-0.3125
538,538,1729519944819,-0.8808594,-0.5,-0.038085938,-0.3125,-0.4375,0.03125
539,539,1729519944859,-0.8935547,-0.48632812,-0.0234375,-0.5,-1.0,-0.25
540,540,1729519944899,-0.8935547,-0.4970703,-0.034179688,-0.125,-0.75,-0.3125
541,541,1729519944939,-0.8857422,-0.5,-0.02734375,-0.25,-0.875,0.03125
542,542,1729519944979,-0.8828125,-0.50683594,-0.034179688,-0.0625,-0.0625,-0.375
543,543,1729519945019,-0.8808594,-0.49121094,-0.043945312,0.40625,0.34375,-0.4375
544,544,1729519945059,-0.8847656,-0.49121094,-0.029296875,0.34375,-0.3125,-0.375
545,545,1729519945099,-0.8857422,-0.48828125,-0.026367188,-0.5,-0.875,-0.3125
546,546,1729519945139,-0.8876953,-0.49121094,-0.024414062,-0.8125,-0.25,-0.4375
547,547,1729519945179,-0.89160156,-0.49609375,-0.038085938,-0.5625,-1.125,-0.0625
548,548,1729519945219,-0.88671875,-0.4892578,-0.034179688,-0.875,-0.8125,-0.25
549,549,1729519945259,-0.88378906,-0.49609375,-0.045898438,-0.875,-1.25,-0.1875
550,550,1729519945299,-0.8828125,-0.5048828,-0.028320312,-0.375,-0.25,-0.0625
551,551,1729519945339,-0.88964844,-0.49414062,-0.033203125,-0.0625,-0.25,-0.375
552,552,1729519945379,-0.8886719,-0.49609375,-0.036132812,-0.1875,-0.25,0.09375
553,553,1729519945419,-0.8886719,-0.49414062,-0.026367188,0.03125,0.59375,-0.0625
554,554,1729519945459,-0.89160156,-0.49121094,-0.029296875,0.71875,-0.1875,-0.3125
555,555,1729519945499,-0.8769531,-0.5019531,-0.045898438,0.28125,-0.3125,-0.0625
556,556,1729519945539,-0.87597656,-0.5,-0.029296875,0.78125,0.90625,-0.125
557,557,1729519945579,-0.8964844,-0.50878906,-0.040039062,0.90625,0.15625,-0.125
558,558,1729519945619,-0.8808594,-0.49316406,-0.024414062,-0.0625,-0.25,0.03125
559,559,1729519945659,-0.8876953,-0.49902344,-0.03125,0.03125,0.71875,-0.1875
560,560,1729519945699,-0.8876953,-0.49414062,-0.01953125,-0.0625,-0.3125,-0.125
561,561,1729519945739,-0.8857422,-0.50390625,-0.044921875,0.15625,-0.125,-0.125
562,562,1729519945779,-0.8828125,-0.4873047,-0.034179688,-0.6875,-0.25,-0.3125
563,563,1729519945819,-0.88183594,-0.49804688,-0.032226562,-0.0625,-0.25,0.34375
564,564,1729519945859,-0.8798828,-0.49804688,-0.034179688,-0.9375,0.15625,0.15625
565,565,1729519945899,-0.8955078,-0.4951172,-0.026367188,-1.40625,-0.3125,-0.375
566,566,1729519945939,-0.8847656,-0.49414062,-0.025390625,-1.0,-0.6875,0.15625
567,567,1729519945979,-0.8798828,-0.51171875,-0.044921875,-0.6875,-0.375,-0.125
568,568,1729519946019,-0.88671875,-0.49902344,-0.033203125,0.0,0.40625,-0.3125
569,569,1729519946059,-0.8798828,-0.50097656,-0.037109375,0.28125,0.34375,0.03125
570,570,1729519946099,-0.8798828,-0.49023438,-0.04296875,0.03125,0.34375,0.15625
571,571,1729519946139,-0.87890625,-0.49316406,-0.030273438,-0.375,0.46875,0.28125
572,572,1729519946179,-0.8828125,-0.49609375,-0.026367188,0.0,0.34375,0.46875
573,573,1729519946219,-0.8886719,-0.49414062,-0.024414062,-1.25,-0.625,0.0
574,574,1729519946259,-0.8876953,-0.50390625,-0.03515625,-1.84375,-1.0625,0.09375
575,575,1729519946299,-0.88671875,-0.49902344,-0.046875,0.90625,0.53125,0.0
576,576,1729519946339,-0.88671875,-0.5078125,-0.024414062,0.0,0.34375,-0.1875
577,577,1729519946379,-0.87597656,-0.4892578,-0.034179688,0.65625,-0.125,0.15625
578,578,1729519946419,-0.88671875,-0.49316406,-0.032226562,0.0,0.40625,0.15625
579,579,1729519946459,-0.8955078,-0.5,-0.036132812,0.65625,1.28125,0.15625
580,580,1729519946499,-0.88964844,-0.4921875,-0.029296875,0.34375,0.09375,0.40625
581,581,1729519946539,-0.89160156,-0.50097656,-0.028320312,-0.25,-0.5,-0.125
582,582,1729519946579,-0.8857422,-0.49316406,-0.041992188,0.71875,0.65625,-0.25
583,583,1729519946619,-0.8876953,-0.4921875,-0.041992188,0.46875,0.53125,0.09375
584,584,1729519946659,-0.8964844,-0.4970703,-0.033203125,-0.125,-0.125,0.03125
585,585,1729519946699,-0.88378906,-0.49316406,-0.04296875,-0.25,0.0,0.03125
586,586,1729519946739,-0.8925781,-0.49023438,-0.041015625,0.21875,-0.125,-0.0625
587,587,1729519946779,-0.88671875,-0.4951172,-0.0390625,-0.5625,-0.0625,0.0
588,588,1729519946819,-0.88964844,-0.49316406,-0.041015625,-0.9375,-0.3125,-0.0625
589,589,1729519946859,-0.8876953,-0.49023438,-0.051757812,-0.0625,-0.3125,0.0
590,590,1729519946899,-0.8886719,-0.4921875,-0.032226562,-1.0625,-0.25,0.03125
591,591,1729519946939,-0.8847656,-0.5,-0.022460938,-0.4375,-0.5625,-0.0625
592,592,1729519946979,-0.8857422,-0.49609375,-0.043945312,-0.4375,-0.8125,-0.3125
593,593,1729519947019,-0.8857422,-0.4970703,-0.03515625,0.03125,0.0,-0.375
594,594,1729519947059,-0.890625,-0.48535156,-0.034179688,0.0,0.03125,-0.1875
595,595,1729519947099,-0.88183594,-0.50683594,-0.033203125,0.0,-0.1875,0.09375
596,596,1729519947139,-0.88671875,-0.5058594,-0.03125,0.53125,0.59375,-0.125
597,597,1729519947179,-0.8964844,-0.5029297,-0.024414062,0.96875,0.78125,-0.125
598,598,1729519947219,-0.8857422,-0.4970703,-0.047851562,0.09375,0.28125,-0.1875
599,599,1729519947259,-0.8847656,-0.49023438,-0.034179688,0.15625,-0.1875,0.0
600,600,1729519947299,-0.8857422,-0.49609375,-0.029296875,-0.5625,-0.3125,-0.0625
601,601,1729519947339,-0.88671875,-0.5097656,-0.041015625,-0.1875,-0.5,0.09375
602,602,1729519947379,-0.8876953,-0.49902344,-0.038085938,-0.625,-0.1875,-0.125
603,603,1729519947419,-0.8935547,-0.50097656,-0.026367188,-0.0625,-0.25,-0.0625
604,604,1729519947459,-0.875,-0.5048828,-0.061523438,0.28125,-0.3125,0.09375
605,605,1729519947499,-0.890625,-0.49902344,-0.048828125,-0.375,0.21875,0.0
606,606,1729519947539,-0.8847656,-0.49023438,-0.025390625,0.03125,-0.0625,0.40625
607,607,1729519947579,-0.8798828,-0.5097656,-0.036132812,-0.125,-0.5625,0.34375
608,608,1729519947619,-0.88671875,-0.4970703,-0.028320312,0.09375,0.03125,-0.25
609,609,1729519947659,-0.8886719,-0.4951172,-0.024414062,0.28125,0.0,-0.25
610,610,1729519947699,-0.8876953,-0.4921875,-0.034179688,0.59375,0.28125,0.09375
611,611,1729519947739,-0.8808594,-0.4970703,-0.037109375,0.59375,0.21875,0.09375
612,612,1729519947779,-0.88671875,-0.4951172,-0.04296875,0.0,0.40625,0.0
613,613,1729519947819,-0.890625,-0.49316406,-0.026367188,0.0,-0.125,0.0
614,614,1729519947859,-0.8779297,-0.50878906,-0.055664062,0.28125,-0.8125,-0.0625
615,615,1729519947899,-0.88378906,-0.5,-0.043945312,0.28125,0.09375,-0.5625
616,616,1729519947939,-0.8828125,-0.48828125,-0.029296875,0.21875,-0.0625,0.0
617,617,1729519947979,-0.890625,-0.48828125,-0.048828125,0.53125,0.03125,0.03125
618,618,1729519948019,-0.88964844,-0.49804688,-0.018554688,-0.5,-0.375,-0.125
619,619,1729519948059,-0.890625,-0.49804688,-0.038085938,-0.125,-0.375,-0.25
620,620,1729519948099,-0.8876953,-0.49609375,-0.030273438,-0.375,-0.8125,-0.0625
621,621,1729519948139,-0.88183594,-0.5,-0.026367188,-0.625,-0.875,-0.3125
622,622,1729519948179,-0.87597656,-0.49316406,-0.02734375,-0.25,-0.375,-0.1875
623,623,1729519948219,-0.8828125,-0.4892578,-0.034179688,-0.4375,-0.375,-0.125
624,624,1729519948259,-0.8935547,-0.49414062,-0.030273438,-0.0625,-0.25,-0.25
625,625,1729519948299,-0.8828125,-0.49414062,-0.037109375,0.0,-0.4375,-0.0625
626,626,1729519948339,-0.8769531,-0.50097656,-0.026367188,0.09375,-0.4375,-0.3125
627,627,1729519948379,-0.8828125,-0.4921875,-0.038085938,0.21875,-0.4375,-0.3125
628,628,1729519948419,-0.87890625,-0.5058594,-0.041015625,0.0,0.09375,-0.25
629,629,1729519948459,-0.88671875,-0.50683594,-0.01953125,0.71875,0.15625,0.0
630,630,1729519948499,-0.8886719,-0.4951172,-0.040039062,-0.3125,-0.4375,-0.0625
631,631,1729519948539,-0.89160156,-0.49609375,-0.028320312,-0.0625,-0.1875,-0.125
632,632,1729519948579,-0.8828125,-0.5,-0.029296875,-0.0625,-0.5,0.03125
633,633,1729519948619,-0.88671875,-0.5058594,-0.024414062,-0.0625,-0.1875,0.15625
634,634,1729519948659,-0.87597656,-0.49316406,-0.0390625,0.65625,0.28125,0.03125
635,635,1729519948699,-0.8828125,-0.49316406,-0.0234375,-0.25,0.03125,0.03125
636,636,1729519948739,-0.890625,-0.49902344,-0.03515625,0.21875,-0.0625,0.21875
637,637,1729519948779,-0.8876953,-0.49609375,-0.037109375,-0.125,-0.3125,0.09375
638,638,1729519948819,-0.8857422,-0.50097656,-0.029296875,-0.125,-0.125,-0.3125
639,639,1729519948859,-0.8857422,-0.49023438,-0.025390625,0.40625,0.0,0.0
640,640,1729519948899,-0.8847656,-0.4951172,-0.048828125,-0.1875,0.0,0.21875
641,641,1729519948939,-0.8779297,-0.49414062,-0.038085938,-0.0625,0.09375,0.21875
642,642,1729519948979,-0.8857422,-0.5019531,-0.020507812,-0.375,0.0,0.0
643,643,1729519949019,-0.88183594,-0.4970703,-0.045898438,-0.5625,-0.25,0.09375
644,644,1729519949059,-0.8730469,-0.5019531,-0.0234375,-0.3125,-0.0625,-0.0625
645,645,1729519949099,-0.8847656,-0.49121094,-0.038085938,0.0,-0.375,0.21875
646,646,1729519949139,-0.88964844,-0.4951172,-0.032226562,-0.375,0.34375,-0.125
647,647,1729519949179,-0.890625,-0.49609375,-0.01953125,-0.5,0.09375,0.21875
648,648,1729519949219,-0.88183594,-0.49902344,-0.040039062,0.15625,0.03125,0.53125
649,649,1729519949259,-0.88378906,-0.49804688,-0.028320312,-1.0625,0.0,0.03125
650,650,1729519949299,-0.88183594,-0.5,-0.024414062,-0.3125,0.0,0.21875
651,651,1729519949339,-0.8847656,-0.49609375,-0.034179688,0.40625,0.59375,0.40625
652,652,1729519949379,-0.8886719,-0.49414062,-0.026367188,0.03125,0.21875,0.0
653,653,1729519949419,-0.8808594,-0.49609375,-0.038085938,0.59375,0.59375,-0.0625
654,654,1729519949459,-0.8886719,-0.49023438,-0.040039062,0.40625,0.46875,0.28125
655,655,1729519949499,-0.890625,-0.49316406,-0.026367188,-0.0625,0.21875,0.34375
656,656,1729519949539,-0.8847656,-0.5029297,-0.036132812,0.03125,0.15625,0.0
657,657,1729519949579,-0.8808594,-0.48828125,-0.034179688,0.09375,0.15625,0.09375
658,658,1729519949619,-0.8828125,-0.49316406,-0.026367188,-0.1875,0.34375,0.03125
659,659,1729519949659,-0.88183594,-0.49414062,-0.044921875,0.28125,0.09375,0.15625
660,660,1729519949699,-0.890625,-0.49414062,-0.02734375,0.0,0.21875,0.34375
661,661,1729519949739,-0.89160156,-0.49414062,-0.028320312,-0.0625,0.21875,-0.0625
662,662,1729519949779,-0.88671875,-0.49121094,-0.041992188,-0.75,-1.0,0.21875
663,663,1729519949819,-0.8808594,-0.49414062,-0.037109375,-0.1875,0.0,0.09375
664,664,1729519949859,-0.890625,-0.49023438,-0.03515625,-0.3125,-0.125,0.0
665,665,1729519949899,-0.8847656,-0.49316406,-0.043945312,-0.3125,-0.5625,-0.0625
666,666,1729519949939,-0.8925781,-0.49121094,-0.01953125,-0.4375,-0.125,-0.3125
667,667,1729519949979,-0.8876953,-0.49609375,-0.041015625,0.40625,0.15625,0.03125
668,668,1729519950019,-0.88671875,-0.50097656,-0.033203125,0.03125,0.21875,0.0
669,669,1729519950059,-0.8808594,-0.49023438,-0.041992188,-0.375,-0.625,-0.1875
670,670,1729519950099,-0.88964844,-0.4921875,-0.037109375,-0.0625,-0.3125,0.03125
671,671,1729519950139,-0.8847656,-0.49414062,-0.047851562,0.40625,0.15625,0.15625
672,672,1729519950179,-0.8828125,-0.49414062,-0.03515625,-0.625,0.03125,-0.25
673,673,1729519950219,-0.88964844,-0.50390625,-0.025390625,-0.375,-0.5625,0.0
674,674,1729519950259,-0.8779297,-0.5,-0.026367188,-0.0625,-1.1875,0.03125
675,675,1729519950299,-0.8876953,-0.49023438,-0.061523438,0.15625,-0.0625,-0.1875
676,676,1729519950339,-0.8847656,-0.4951172,-0.029296875,-0.8125,-0.125,-0.0625
677,677,1729519950379,-0.8935547,-0.5029297,-0.03515625,0.40625,-0.1875,0.28125
678,678,1729519950419,-0.8808594,-0.49902344,-0.036132812,-0.25,-0.4375,0.21875
679,679,1729519950459,-0.88964844,-0.4951172,-0.02734375,0.21875,0.03125,-0.375
680,680,1729519950499,-0.890625,-0.48828125,-0.034179688,1.03125,0.0,-0.125
681,681,1729519950539,-0.88671875,-0.4921875,-0.0390625,0.09375,-0.5,-0.0625
682,682,1729519950579,-0.8876953,-0.48535156,-0.0390625,0.46875,0.28125,0.09375
683,683,1729519950619,-0.88671875,-0.49316406,-0.0234375,0.34375,0.28125,0.03125
684,684,1729519950659,-0.890625,-0.48632812,-0.018554688,0.09375,-0.5,-0.125
685,685,1729519950699,-0.88378906,-0.5019531,-0.033203125,-0.0625,-0.4375,0.0
686,686,1729519950739,-0.8886719,-0.48339844,-0.0146484375,-0.125,-0.375,0.0
687,687,1729519950779,-0.89160156,-0.484375,-0.041015625,-0.25,-0.25,-0.1875
688,688,1729519950819,-0.8857422,-0.48535156,-0.022460938,-2.34375,-2.03125,-0.1875
689,689,1729519950859,-0.8876953,-0.4921875,-0.028320312,-1.0,-1.65625,0.0
690,690,1729519950899,-0.88964844,-0.5,-0.024414062,-0.5625,-0.0625,0.0
691,691,1729519950939,-0.8886719,-0.49609375,-0.013671875,-1.90625,-0.6875,-0.25
692,692,1729519950979,-0.87402344,-0.5029297,-0.0126953125,-0.625,-1.40625,-0.125
693,693,1729519951019,-0.8847656,-0.5019531,-0.036132812,-0.1875,-0.6875,-0.625
694,694,1729519951059,-0.8925781,-0.48828125,-0.037109375,-0.8125,-0.375,-0.25
695,695,1729519951099,-0.88378906,-0.4814453,-0.0234375,-0.125,-0.25,0.28125
696,696,1729519951139,-0.8828125,-0.49316406,-0.038085938,-0.0625,0.03125,0.28125
697,697,1729519951179,-0.8935547,-0.4951172,-0.02734375,-0.75,-0.5,-0.0625
698,698,1729519951219,-0.8857422,-0.5,-0.029296875,-0.4375,-0.5625,-0.0625
699,699,1729519951259,-0.8886719,-0.49316406,-0.024414062,-0.25,0.03125,-0.125
700,700,1729519951299,-0.890625,-0.50390625,-0.022460938,-0.1875,-0.0625,0.03125
701,701,1729519951339,-0.8847656,-0.50097656,-0.047851562,-0.75,-0.125,0.09375
702,702,1729519951379,-0.8964844,-0.49316406,-0.034179688,-0.1875,-0.1875,0.15625
703,703,1729519951419,-0.88671875,-0.50097656,-0.036132812,0.0,0.40625,0.21875
704,704,1729519951459,-0.8876953,-0.49804688,-0.022460938,0.21875,0.21875,0.21875
705,705,1729519951499,-0.8808594,-0.5019531,-0.032226562,0.40625,0.78125,0.46875
706,706,1729519951539,-0.890625,-0.4921875,-0.024414062,0.96875,1.15625,0.15625
707,707,1729519951579,-0.89160156,-0.4921875,-0.032226562,0.34375,0.0,-0.0625
708,708,1729519951619,-0.8876953,-0.4921875,-0.043945312,-0.1875,-0.5,0.03125
709,709,1729519951659,-0.8828125,-0.50097656,-0.030273438,0.90625,1.03125,0.09375
710,710,1729519951699,-0.8857422,-0.49023438,-0.022460938,0.15625,0.59375,0.03125
711,711,1729519951739,-0.88378906,-0.49609375,-0.041992188,0.21875,0.28125,0.0
712,712,1729519951779,-0.8857422,-0.50097656,-0.038085938,-0.125,0.0,0.03125
713,713,1729519951819,-0.8857422,-0.49902344,-0.037109375,0.03125,-0.125,-0.0625
714,714,1729519951859,-0.8935547,-0.49023438,-0.038085938,-0.25,0.40625,-0.1875
715,715,1729519951899,-0.88964844,-0.4873047,-0.036132812,-0.625,-0.3125,-0.1875
716,716,1729519951939,-0.88671875,-0.4970703,-0.028320312,-0.8125,-0.4375,0.15625
717,717,1729519951979,-0.8876953,-0.49414062,-0.028320312,-1.0625,-0.6875,0.0
718,718,1729519952019,-0.88183594,-0.49902344,-0.018554688,-0.1875,0.15625,-0.0625
719,719,1729519952059,-0.89746094,-0.4921875,-0.022460938,0.09375,0.46875,-0.3125
720,720,1729519952099,-0.87597656,-0.4921875,-0.024414062,-0.5625,-0.6875,0.0
721,721,1729519952139,-0.8847656,-0.5029297,-0.022460938,1.21875,0.71875,0.03125
722,722,1729519952179,-0.8964844,-0.49023438,-0.043945312,0.46875,0.90625,-0.3125
723,723,1729519952219,-0.88671875,-0.4892578,-0.024414062,-0.25,0.0,0.0
724,724,1729519952259,-0.875,-0.5029297,-0.030273438,0.84375,0.03125,0.0
725,725,1729519952299,-0.87890625,-0.48632812,-0.032226562,-0.0625,0.15625,-0.1875
726,726,1729519952339,-0.88964844,-0.49316406,-0.016601562,-0.5625,0.21875,-0.375
727,727,1729519952379,-0.8886719,-0.49023438,-0.032226562,0.03125,-0.6875,0.09375
728,728,1729519952419,-0.87402344,-0.50097656,-0.038085938,0.0,0.15625,-0.0625
729,729,1729519952459,-0.8847656,-0.48535156,-0.03515625,0.53125,0.40625,-0.1875
730,730,1729519952499,-0.890625,-0.4921875,-0.030273438,-0.3125,-0.125,0.0
731,731,1729519952539,-0.88183594,-0.4921875,-0.025390625,0.40625,0.28125,0.34375
732,732,1729519952579,-0.8828125,-0.49609375,-0.036132812,0.15625,0.15625,0.34375
733,733,1729519952619,-0.87597656,-0.5,-0.030273438,-0.4375,0.0,0.0
734,734,1729519952659,-0.890625,-0.49316406,-0.025390625,0.65625,0.59375,-0.125
735,735,1729519952699,-0.89746094,-0.4892578,-0.025390625,0.84375,0.84375,-0.1875
736,736,1729519952739,-0.88964844,-0.4951172,-0.045898438,0.84375,0.71875,-0.1875
737,737,1729519952779,-0.8828125,-0.49609375,-0.017578125,0.53125,0.46875,-0.4375
738,738,1729519952819,-0.8857422,-0.49902344,-0.033203125,0.78125,-0.25,-0.5
739,739,1729519952859,-0.890625,-0.48046875,-0.038085938,1.09375,0.15625,-1.0
740,740,1729519952899,-0.88671875,-0.4873047,-0.0390625,-0.25,-0.125,-0.8125
741,741,1729519952939,-0.8876953,-0.4970703,-0.041015625,0.0,0.34375,-0.0625
742,742,1729519952979,-0.8886719,-0.49609375,-0.03125,0.28125,0.15625,0.03125
743,743,1729519953019,-0.8808594,-0.48828125,-0.030273438,-0.375,0.21875,0.0
744,744,1729519953059,-0.88964844,-0.4921875,-0.032226562,-0.5,0.09375,0.03125
745,745,1729519953099,-0.88671875,-0.4970703,-0.03515625,0.0,0.09375,-0.0625
746,746,1729519953139,-0.8847656,-0.48828125,-0.040039062,-0.25,0.0,-0.25
747,747,1729519953179,-0.8876953,-0.50878906,-0.0390625,0.09375,0.21875,-0.25
748,748,1729519953219,-0.88964844,-0.49316406,-0.02734375,0.15625,0.15625,-0.375
749,749,1729519953259,-0.8935547,-0.49023438,-0.041015625,0.34375,0.65625,0.0
750,750,1729519953299,-0.875,-0.4970703,-0.033203125,0.21875,0.84375,-0.0625
751,751,1729519953339,-0.8828125,-0.4970703,-0.040039062,0.0,0.0,-0.1875
752,752,1729519953379,-0.8886719,-0.49316406,-0.043945312,0.21875,0.21875,0.0
753,753,1729519953419,-0.8808594,-0.4970703,-0.028320312,0.21875,1.03125,-0.125
754,754,1729519953459,-0.89746094,-0.49316406,-0.046875,0.0,0.03125,-0.0625
755,755,1729519953499,-0.8808594,-0.50097656,-0.041015625,0.03125,-0.0625,0.0
756,756,1729519953539,-0.8886719,-0.49804688,-0.041015625,0.21875,0.59375,-0.1875
757,757,1729519953579,-0.8886719,-0.49609375,-0.043945312,-0.1875,0.09375,-0.25
758,758,1729519953619,-0.8769531,-0.50097656,-0.029296875,0.53125,0.28125,0.0
759,759,1729519953659,-0.89160156,-0.5078125,-0.032226562,0.28125,0.46875,-0.125
