,Unnamed: 0,timestamp,accel_x,accel_y,accel_z,gyro_x,gyro_y,gyro_z
0,0,1727973116707,-0.18261719,-0.10058594,0.9892578,-0.09375,0.625,-0.1875
1,1,1727973116747,-0.18164062,-0.08984375,1.0039062,-0.09375,-0.15625,-0.0625
2,2,1727973116787,-0.17871094,-0.11035156,0.99902344,0.0,-0.15625,-0.0625
3,3,1727973116827,-0.18554688,-0.103515625,1.0029297,-0.09375,-0.21875,-0.0625
4,4,1727973116867,-0.17285156,-0.107421875,0.9941406,0.25,0.09375,-0.125
5,5,1727973116907,-0.1796875,-0.099609375,0.9921875,0.0625,-0.09375,-0.1875
6,6,1727973116947,-0.18359375,-0.09863281,1.0,-0.0625,-0.03125,0.0625
7,7,1727973116987,-0.1796875,-0.103515625,1.0029297,-0.0625,-0.15625,0.0
8,8,1727973117027,-0.17871094,-0.11035156,0.99902344,0.0625,-0.03125,-0.0625
9,9,1727973117067,-0.17871094,-0.099609375,0.9921875,0.0,0.03125,0.0625
10,10,1727973117107,-0.18261719,-0.09667969,1.0009766,-0.0625,-0.09375,-0.125
11,11,1727973117147,-0.17578125,-0.10253906,1.0087891,0.0,0.03125,0.125
12,12,1727973117187,-0.17871094,-0.103515625,0.9873047,0.0625,0.21875,-0.1875
13,13,1727973117227,-0.17578125,-0.10449219,1.0087891,0.0,0.40625,-0.4375
14,14,1727973117267,-0.18164062,-0.10253906,1.0019531,0.0,0.21875,-0.0625
15,15,1727973117307,-0.17871094,-0.10253906,1.0009766,0.125,0.09375,0.0625
16,16,1727973117347,-0.17382812,-0.10449219,1.0048828,0.3125,0.15625,0.0625
17,17,1727973117387,-0.18164062,-0.10449219,1.0107422,-0.21875,0.09375,-0.125
18,18,1727973117427,-0.18945312,-0.08984375,1.0078125,-0.15625,-0.21875,-0.0625
19,19,1727973117467,-0.17480469,-0.11816406,1.0029297,-0.15625,-0.03125,-0.3125
20,20,1727973117507,-0.1875,-0.11621094,0.9980469,-0.28125,0.03125,-0.3125
21,21,1727973117547,-0.17480469,-0.10839844,1.0019531,0.25,0.03125,-0.0625
22,22,1727973117587,-0.18359375,-0.10253906,0.99121094,0.125,0.03125,0.0
23,23,1727973117627,-0.17578125,-0.10058594,1.0009766,0.125,-0.03125,0.0625
24,24,1727973117667,-0.19042969,-0.10449219,0.9951172,-0.0625,-0.09375,0.0625
25,25,1727973117707,-0.17871094,-0.107421875,0.9951172,0.0625,0.03125,0.0
26,26,1727973117747,-0.17871094,-0.1015625,1.0029297,0.0,0.15625,0.1875
27,27,1727973117787,-0.17871094,-0.09765625,0.9970703,0.125,0.09375,0.0
28,28,1727973117827,-0.1796875,-0.099609375,0.99609375,-0.09375,0.09375,0.0
29,29,1727973117867,-0.18066406,-0.103515625,1.0107422,0.0625,0.03125,-0.125
30,30,1727973117907,-0.17480469,-0.10546875,1.0029297,0.0,0.15625,-0.25
31,31,1727973117947,-0.18945312,-0.10546875,0.99316406,-0.0625,-0.09375,-0.0625
32,32,1727973117987,-0.17382812,-0.10644531,0.99121094,0.125,-0.03125,-0.0625
33,33,1727973118027,-0.18457031,-0.10449219,1.0019531,0.0,0.03125,-0.0625
34,34,1727973118067,-0.17578125,-0.09863281,0.9970703,-0.0625,-0.09375,0.0
35,35,1727973118107,-0.17871094,-0.111328125,1.0,-0.0625,-0.09375,0.0
36,36,1727973118147,-0.18261719,-0.107421875,0.9951172,-0.0625,-0.03125,0.0
37,37,1727973118187,-0.18164062,-0.10058594,0.99316406,-0.0625,-0.15625,0.0625
38,38,1727973118227,-0.18457031,-0.11035156,1.0029297,0.25,0.03125,-0.0625
39,39,1727973118267,-0.18554688,-0.103515625,0.99609375,0.1875,0.03125,0.0
40,40,1727973118307,-0.18261719,-0.10253906,1.0019531,0.125,-0.03125,0.0
41,41,1727973118347,-0.18554688,-0.10839844,1.0039062,0.0625,0.03125,-0.0625
42,42,1727973118387,-0.18652344,-0.10449219,0.99902344,-0.34375,-0.03125,0.1875
43,43,1727973118427,-0.18652344,-0.103515625,1.0058594,-0.28125,-0.15625,-0.0625
44,44,1727973118467,-0.18652344,-0.103515625,0.9941406,-0.09375,-0.15625,0.0
45,45,1727973118507,-0.18554688,-0.09863281,0.9980469,-0.21875,-0.03125,0.0
46,46,1727973118547,-0.18066406,-0.1015625,1.0029297,0.0,-0.09375,-0.0625
47,47,1727973118587,-0.1796875,-0.09765625,1.0058594,-0.0625,0.03125,-0.125
48,48,1727973118627,-0.17578125,-0.111328125,1.0029297,-0.0625,-0.15625,-0.125
49,49,1727973118667,-0.18261719,-0.091796875,0.99121094,0.125,0.03125,0.125
50,50,1727973118707,-0.18359375,-0.11328125,1.0019531,0.0,0.09375,0.0625
51,51,1727973118747,-0.1796875,-0.11035156,1.0097656,-0.0625,-0.21875,0.125
52,52,1727973118787,-0.18261719,-0.10644531,0.9980469,-0.0625,0.03125,-0.1875
53,53,1727973118827,-0.18261719,-0.095703125,1.0078125,0.0,0.03125,-0.0625
54,54,1727973118867,-0.1796875,-0.09667969,1.0068359,0.0,0.03125,0.0
55,55,1727973118907,-0.17382812,-0.09472656,0.9980469,0.1875,-0.21875,0.125
56,56,1727973118947,-0.18261719,-0.103515625,1.0,-0.15625,-0.03125,-0.0625
57,57,1727973118987,-0.18554688,-0.103515625,0.9814453,0.0,-0.09375,-0.0625
58,58,1727973119027,-0.18945312,-0.11035156,1.0068359,-0.0625,-0.15625,0.0
59,59,1727973119067,-0.18164062,-0.11035156,0.97753906,0.0,0.15625,-0.1875
60,60,1727973119107,-0.18457031,-0.09667969,0.9970703,0.0,0.34375,-0.0625
61,61,1727973119147,-0.17675781,-0.103515625,0.9980469,0.125,-0.03125,0.0625
62,62,1727973119187,-0.18457031,-0.099609375,0.9921875,0.0625,0.28125,0.0
63,63,1727973119227,-0.18066406,-0.10449219,0.9921875,-0.21875,0.21875,-0.0625
64,64,1727973119267,-0.18652344,-0.10058594,0.9951172,0.25,-0.09375,0.125
65,65,1727973119307,-0.18554688,-0.10058594,0.984375,-0.09375,-0.09375,-0.0625
66,66,1727973119347,-0.18457031,-0.10253906,0.98339844,-0.0625,-0.03125,-0.0625
67,67,1727973119387,-0.1875,-0.111328125,1.0058594,0.1875,-0.28125,-0.0625
68,68,1727973119427,-0.17675781,-0.10058594,1.0136719,0.0,0.03125,-0.0625
69,69,1727973119467,-0.17480469,-0.09277344,0.99902344,0.0625,0.03125,-0.1875
70,70,1727973119507,-0.17871094,-0.10644531,1.0048828,0.125,0.21875,0.0
71,71,1727973119547,-0.20019531,-0.091796875,1.0058594,0.0,-0.15625,0.0625
72,72,1727973119587,-0.1796875,-0.103515625,1.0068359,-0.0625,-0.03125,0.0625
73,73,1727973119627,-0.1796875,-0.1015625,1.0058594,-0.21875,0.09375,0.125
74,74,1727973119667,-0.18261719,-0.09667969,0.9873047,0.0,-0.15625,-0.125
75,75,1727973119707,-0.18457031,-0.103515625,1.0087891,0.0,0.09375,-0.25
76,76,1727973119747,-0.18652344,-0.10644531,0.99316406,0.0,0.03125,-0.0625
77,77,1727973119787,-0.18652344,-0.11035156,0.9941406,0.1875,-0.09375,0.0625
78,78,1727973119827,-0.18457031,-0.103515625,0.9951172,0.125,0.21875,0.0
79,79,1727973119867,-0.18945312,-0.09863281,1.0214844,0.25,0.03125,0.0
80,80,1727973119907,-0.18945312,-0.09472656,1.0048828,0.0,0.03125,-0.0625
81,81,1727973119947,-0.18652344,-0.10839844,1.0,-0.15625,-0.03125,0.0625
82,82,1727973119987,-0.19140625,-0.107421875,0.99121094,-0.21875,-0.21875,-0.1875
83,83,1727973120027,-0.18359375,-0.11035156,1.0039062,-0.0625,-0.21875,0.0625
84,84,1727973120067,-0.18457031,-0.103515625,0.9980469,-0.09375,-0.09375,0.0625
85,85,1727973120107,-0.18457031,-0.1015625,1.0078125,0.0,-0.03125,-0.0625
86,86,1727973120147,-0.17675781,-0.09863281,1.0078125,0.1875,0.03125,-0.1875
87,87,1727973120187,-0.18164062,-0.10449219,1.015625,-0.21875,-0.03125,-0.125
88,88,1727973120227,-0.18457031,-0.103515625,1.0078125,0.3125,0.03125,-0.125
89,89,1727973120267,-0.18359375,-0.10449219,0.9873047,0.0,-0.03125,0.125
90,90,1727973120307,-0.1875,-0.09863281,1.0,0.1875,0.09375,0.28125
91,91,1727973120347,-0.1875,-0.103515625,0.9980469,0.125,0.03125,0.125
92,92,1727973120387,-0.17382812,-0.09863281,1.0,-0.0625,0.09375,-0.125
93,93,1727973120427,-0.18261719,-0.103515625,0.9941406,0.0625,0.15625,0.0625
94,94,1727973120467,-0.18359375,-0.10449219,0.9941406,-0.09375,0.03125,-0.375
95,95,1727973120507,-0.1796875,-0.109375,0.99121094,0.1875,0.09375,-0.0625
96,96,1727973120547,-0.18554688,-0.10644531,1.0078125,0.0625,0.03125,0.125
97,97,1727973120587,-0.19042969,-0.099609375,1.0058594,-0.09375,-0.03125,-0.0625
98,98,1727973120627,-0.18457031,-0.10253906,0.9970703,-0.09375,-0.03125,-0.125
99,99,1727973120667,-0.18261719,-0.10644531,1.0048828,0.1875,0.15625,0.125
100,100,1727973120707,-0.18164062,-0.107421875,0.99902344,0.125,0.09375,0.125
101,101,1727973120747,-0.18554688,-0.095703125,0.9863281,-0.15625,0.21875,0.125
102,102,1727973120787,-0.18457031,-0.103515625,1.0097656,0.0625,0.15625,0.1875
103,103,1727973120827,-0.1796875,-0.10058594,1.0097656,-0.09375,0.15625,-0.25
104,104,1727973120867,-0.19824219,-0.109375,1.0078125,0.125,0.21875,-0.0625
105,105,1727973120907,-0.1875,-0.10839844,1.0078125,-0.34375,-0.03125,-0.125
106,106,1727973120947,-0.1796875,-0.10644531,1.0039062,0.0,0.15625,0.21875
107,107,1727973120987,-0.18554688,-0.10449219,0.9970703,-0.09375,0.03125,0.1875
108,108,1727973121027,-0.17578125,-0.1015625,1.0019531,-0.15625,-0.03125,0.0625
109,109,1727973121067,-0.18847656,-0.103515625,1.0029297,-0.09375,-0.03125,-0.3125
110,110,1727973121107,-0.19042969,-0.099609375,1.0009766,-0.15625,0.15625,-0.25
111,111,1727973121147,-0.18261719,-0.11230469,1.0039062,0.0,0.15625,-0.0625
112,112,1727973121187,-0.17871094,-0.1015625,0.9980469,-0.15625,0.28125,-0.1875
113,113,1727973121227,-0.18847656,-0.109375,0.98535156,0.0,0.09375,-0.0625
114,114,1727973121267,-0.18847656,-0.10449219,1.0078125,0.4375,0.34375,0.21875
115,115,1727973121307,-0.1796875,-0.11328125,0.9921875,0.0,0.15625,0.125
116,116,1727973121347,-0.1875,-0.09863281,0.9970703,0.0625,0.03125,-0.0625
117,117,1727973121387,-0.18164062,-0.10449219,1.0009766,0.0625,-0.03125,0.0
118,118,1727973121427,-0.17773438,-0.10546875,0.9980469,-0.0625,0.15625,0.125
119,119,1727973121467,-0.18554688,-0.1015625,0.9941406,0.0625,0.15625,-0.125
120,120,1727973121507,-0.18164062,-0.10449219,0.9941406,-0.0625,0.21875,-0.0625
121,121,1727973121547,-0.19335938,-0.10253906,1.0117188,-0.09375,0.625,0.0
122,122,1727973121587,-0.18457031,-0.09765625,1.0009766,-0.0625,-0.09375,-0.4375
123,123,1727973121627,-0.19140625,-0.10644531,0.9951172,0.0625,0.09375,-0.1875
124,124,1727973121667,-0.1875,-0.11425781,0.9980469,0.125,-0.15625,-0.0625
125,125,1727973121707,-0.1796875,-0.10839844,1.0058594,0.0,0.15625,-0.0625
126,126,1727973121747,-0.1796875,-0.095703125,0.99609375,0.25,0.03125,0.125
127,127,1727973121787,-0.18359375,-0.1015625,1.0009766,0.25,0.03125,0.125
128,128,1727973121827,-0.17871094,-0.10253906,1.0117188,-0.34375,0.09375,0.0
129,129,1727973121867,-0.18652344,-0.10253906,0.99902344,-0.28125,-0.15625,-0.375
130,130,1727973121907,-0.18847656,-0.10839844,0.99121094,0.3125,0.03125,-0.1875
131,131,1727973121947,-0.19140625,-0.109375,1.0029297,0.0625,0.03125,0.0625
132,132,1727973121987,-0.19042969,-0.11035156,1.0058594,0.0,-0.21875,0.0
133,133,1727973122027,-0.19042969,-0.10058594,1.0019531,-0.0625,-0.28125,-0.1875
134,134,1727973122067,-0.18652344,-0.10253906,1.0039062,-0.0625,-0.21875,-0.0625
135,135,1727973122107,-0.18847656,-0.09765625,1.0078125,-0.09375,-0.15625,0.0625
136,136,1727973122147,-0.18652344,-0.10546875,1.0039062,-0.09375,-0.09375,0.0625
137,137,1727973122187,-0.19042969,-0.107421875,0.9970703,-0.0625,-0.03125,-0.0625
138,138,1727973122227,-0.18359375,-0.10839844,1.0126953,0.0625,-0.09375,0.0
139,139,1727973122267,-0.18554688,-0.10253906,1.0048828,-0.15625,-0.15625,0.125
140,140,1727973122307,-0.18652344,-0.10253906,1.0078125,0.0,-0.15625,-0.0625
141,141,1727973122347,-0.1875,-0.10253906,0.9970703,-0.0625,-0.28125,-0.1875
142,142,1727973122387,-0.18164062,-0.103515625,0.98828125,-0.0625,-0.15625,-0.125
143,143,1727973122427,-0.19433594,-0.1015625,0.9892578,-0.0625,-0.09375,-0.125
144,144,1727973122467,-0.17675781,-0.10449219,0.99902344,0.0,-0.15625,0.0
145,145,1727973122507,-0.18847656,-0.09765625,0.99902344,-0.09375,-0.09375,0.0625
146,146,1727973122547,-0.1875,-0.10546875,1.0029297,0.0625,0.03125,-0.125
147,147,1727973122587,-0.19042969,-0.107421875,0.99121094,-0.0625,-0.09375,-0.125
148,148,1727973122627,-0.19140625,-0.10839844,0.99609375,-0.09375,-0.15625,0.0
149,149,1727973122667,-0.18554688,-0.11035156,1.0048828,-0.09375,-0.15625,-0.125
150,150,1727973122707,-0.1875,-0.109375,0.9951172,-0.09375,-0.21875,-0.125
151,151,1727973122747,-0.1875,-0.10644531,1.0019531,-0.0625,-0.15625,-0.0625
152,152,1727973122787,-0.18359375,-0.11035156,1.0039062,-0.09375,-0.09375,-0.1875
153,153,1727973122827,-0.18457031,-0.099609375,1.0068359,0.1875,0.09375,-0.0625
154,154,1727973122867,-0.18164062,-0.111328125,0.9921875,0.0625,0.03125,0.0
155,155,1727973122907,-0.1875,-0.10839844,0.9863281,0.25,-0.03125,0.21875
156,156,1727973122947,-0.19335938,-0.109375,0.99902344,0.1875,-0.09375,0.1875
157,157,1727973122987,-0.18554688,-0.09375,1.0029297,-0.28125,-0.28125,-0.1875
158,158,1727973123027,-0.17871094,-0.10449219,0.99902344,0.0,-0.15625,-0.1875
159,159,1727973123067,-0.18847656,-0.10839844,0.9921875,-0.21875,-0.03125,-0.125
160,160,1727973123107,-0.1875,-0.11328125,1.0068359,0.0,-0.15625,-0.25
161,161,1727973123147,-0.18066406,-0.09667969,0.9921875,-0.09375,-0.21875,-0.3125
162,162,1727973123187,-0.1875,-0.10839844,1.0029297,-0.0625,-0.15625,0.0
163,163,1727973123227,-0.18261719,-0.11816406,0.99902344,0.0,-0.03125,0.125
164,164,1727973123267,-0.18847656,-0.109375,0.9921875,-0.21875,-0.15625,0.0625
165,165,1727973123307,-0.18164062,-0.10644531,1.0039062,0.0625,-0.03125,0.0
166,166,1727973123347,-0.18164062,-0.10546875,1.0019531,-0.0625,-0.09375,0.0
167,167,1727973123387,-0.18652344,-0.10839844,0.9863281,-0.09375,-0.21875,-0.125
168,168,1727973123427,-0.1875,-0.107421875,1.0009766,0.125,0.03125,-0.0625
169,169,1727973123467,-0.18261719,-0.10449219,1.0029297,-0.0625,-0.03125,-0.0625
170,170,1727973123507,-0.18554688,-0.09765625,0.9980469,-0.0625,-0.15625,0.0625
171,171,1727973123547,-0.18359375,-0.10839844,0.9892578,-0.0625,-0.03125,0.0625
172,172,1727973123587,-0.18359375,-0.10839844,0.99902344,0.0,-0.15625,-0.0625
173,173,1727973123627,-0.18164062,-0.095703125,1.0019531,0.125,-0.09375,-0.0625
174,174,1727973123667,-0.18359375,-0.10449219,0.99902344,0.0,0.09375,-0.0625
175,175,1727973123707,-0.18652344,-0.09863281,1.0087891,0.0,-0.09375,0.0
176,176,1727973123747,-0.17578125,-0.107421875,1.0009766,0.0,-0.09375,-0.125
177,177,1727973123787,-0.19140625,-0.08691406,0.99902344,-0.0625,-0.15625,-0.1875
178,178,1727973123827,-0.18554688,-0.10839844,0.9921875,0.0,-0.15625,-0.1875
179,179,1727973123867,-0.18359375,-0.11328125,1.0058594,-0.0625,-0.09375,0.0
180,180,1727973123907,-0.17871094,-0.10253906,1.0078125,-0.0625,-0.03125,0.0625
181,181,1727973123947,-0.19042969,-0.10253906,0.99609375,0.0625,-0.15625,-0.0625
182,182,1727973123987,-0.17773438,-0.103515625,1.0019531,0.0625,-0.21875,-0.0625
183,183,1727973124027,-0.18847656,-0.109375,1.0048828,0.125,0.09375,-0.1875
184,184,1727973124067,-0.18457031,-0.1015625,0.9941406,-0.09375,0.09375,-0.0625
185,185,1727973124107,-0.18261719,-0.10546875,0.99902344,0.125,-0.21875,-0.125
186,186,1727973124147,-0.18359375,-0.109375,0.9941406,-0.0625,-0.09375,-0.125
187,187,1727973124187,-0.18554688,-0.09863281,1.0039062,-0.15625,-0.28125,0.0625
188,188,1727973124227,-0.18164062,-0.111328125,0.9941406,-0.0625,0.09375,-0.1875
189,189,1727973124267,-0.18652344,-0.10644531,1.0029297,-0.0625,-0.34375,0.0
190,190,1727973124307,-0.18261719,-0.11035156,1.0107422,-0.0625,-0.03125,-0.125
191,191,1727973124347,-0.18847656,-0.095703125,1.0117188,-0.0625,-0.21875,0.0
192,192,1727973124387,-0.18554688,-0.099609375,0.99316406,0.125,0.09375,0.0625
193,193,1727973124427,-0.18164062,-0.103515625,0.9941406,0.125,0.03125,-0.1875
194,194,1727973124467,-0.18554688,-0.10546875,0.9892578,-0.0625,-0.15625,-0.0625
195,195,1727973124507,-0.19335938,-0.09667969,1.0029297,0.125,-0.09375,0.0
196,196,1727973124547,-0.17675781,-0.107421875,0.9970703,0.0625,0.03125,0.0
197,197,1727973124587,-0.18359375,-0.10253906,0.9921875,0.0,-0.03125,0.0625
198,198,1727973124627,-0.18945312,-0.099609375,0.9980469,0.0,0.03125,-0.25
199,199,1727973124667,-0.18164062,-0.11035156,0.99121094,0.3125,0.03125,-0.125
200,200,1727973124707,-0.18554688,-0.10546875,0.9824219,0.0,-0.03125,-0.125
201,201,1727973124747,-0.17382812,-0.1015625,1.0,0.0625,-0.15625,-0.0625
202,202,1727973124787,-0.18066406,-0.103515625,0.9892578,-0.0625,-0.09375,-0.1875
203,203,1727973124827,-0.18164062,-0.107421875,0.9970703,-0.0625,-0.09375,0.0625
204,204,1727973124867,-0.18652344,-0.109375,0.9980469,-0.03125,-0.09375,0.0625
205,205,1727973124907,-0.18066406,-0.107421875,0.9902344,-0.09375,-0.03125,-0.0625
206,206,1727973124947,-0.19140625,-0.11230469,1.0117188,0.03125,0.09375,0.0
207,207,1727973124987,-0.18652344,-0.103515625,1.0117188,0.15625,0.21875,-0.25
208,208,1727973125027,-0.19042969,-0.1015625,0.9951172,0.09375,0.15625,-0.375
209,209,1727973125067,-0.18554688,-0.109375,0.9951172,0.21875,-0.28125,-0.125
210,210,1727973125107,-0.18554688,-0.09765625,1.0039062,0.15625,-0.28125,0.0
211,211,1727973125147,-0.17675781,-0.09765625,0.9941406,0.15625,-0.03125,0.25
212,212,1727973125187,-0.18359375,-0.09082031,0.99121094,-0.21875,0.03125,0.0
213,213,1727973125227,-0.19140625,-0.099609375,0.9941406,0.21875,0.21875,-0.25
214,214,1727973125267,-0.18457031,-0.111328125,1.0019531,-0.40625,0.03125,-0.25
215,215,1727973125307,-0.18457031,-0.10449219,1.0097656,-0.21875,-0.03125,0.0625
216,216,1727973125347,-0.18554688,-0.103515625,0.99609375,-0.15625,-0.15625,-0.125
217,217,1727973125387,-0.18359375,-0.10546875,1.0107422,-0.03125,-0.03125,-0.0625
218,218,1727973125427,-0.18554688,-0.10058594,1.0029297,-0.03125,-0.09375,-0.1875
219,219,1727973125467,-0.18457031,-0.107421875,1.0029297,-0.03125,0.09375,0.0
220,220,1727973125507,-0.18945312,-0.09277344,1.0058594,-0.03125,0.09375,0.125
221,221,1727973125547,-0.18457031,-0.10058594,1.0039062,-0.09375,0.09375,-0.25
222,222,1727973125587,-0.1875,-0.10449219,0.9980469,0.03125,-0.15625,0.0625
223,223,1727973125627,-0.1875,-0.1015625,1.0019531,-0.09375,-0.15625,0.0625
224,224,1727973125667,-0.18164062,-0.103515625,0.98535156,0.03125,0.09375,-0.0625
225,225,1727973125707,-0.18554688,-0.109375,0.99121094,-0.21875,-0.09375,-0.0625
226,226,1727973125747,-0.18554688,-0.10253906,0.9921875,-0.03125,-0.03125,-0.0625
227,227,1727973125787,-0.18847656,-0.10058594,1.0039062,0.09375,0.03125,0.0
228,228,1727973125827,-0.18554688,-0.10253906,1.0009766,-0.09375,-0.03125,-0.125
229,229,1727973125867,-0.17675781,-0.1015625,1.0107422,-0.03125,-0.15625,0.0625
230,230,1727973125907,-0.18945312,-0.11230469,0.9863281,-0.03125,-0.03125,0.125
231,231,1727973125947,-0.19433594,-0.10644531,0.9951172,-0.21875,0.03125,0.0625
232,232,1727973125987,-0.19140625,-0.09765625,1.0,-0.03125,0.03125,0.0
233,233,1727973126027,-0.1796875,-0.099609375,1.0039062,0.03125,0.15625,0.0
234,234,1727973126067,-0.19824219,-0.091796875,1.0009766,-0.03125,-0.09375,0.0
235,235,1727973126107,-0.18652344,-0.11230469,1.0,0.03125,0.09375,0.0625
236,236,1727973126147,-0.18652344,-0.10546875,0.9863281,-0.15625,0.03125,-0.0625
237,237,1727973126187,-0.18554688,-0.10253906,1.0029297,-0.09375,-0.03125,-0.0625
238,238,1727973126227,-0.17675781,-0.09863281,1.0078125,0.03125,-0.09375,-0.125
239,239,1727973126267,-0.1875,-0.103515625,0.98535156,-0.4375,-0.03125,0.0
240,240,1727973126307,-0.18457031,-0.099609375,1.0019531,-0.09375,-0.15625,-0.1875
241,241,1727973126347,-0.18457031,-0.103515625,1.0039062,-0.09375,-0.09375,0.0625
242,242,1727973126387,-0.18847656,-0.10644531,0.9892578,-0.03125,-0.09375,-0.125
243,243,1727973126427,-0.19140625,-0.109375,0.9941406,0.09375,-0.09375,0.0
244,244,1727973126467,-0.18847656,-0.109375,1.0,-0.09375,0.03125,0.125
245,245,1727973126507,-0.1875,-0.09765625,1.0009766,-0.09375,0.03125,0.0
246,246,1727973126547,-0.18554688,-0.10839844,1.0078125,0.03125,0.09375,-0.25
247,247,1727973126587,-0.19140625,-0.09765625,1.0029297,-0.09375,-0.09375,-0.0625
248,248,1727973126627,-0.18652344,-0.10644531,1.0,-0.09375,-0.09375,0.0625
249,249,1727973126667,-0.19042969,-0.111328125,1.0058594,-0.15625,0.03125,0.125
250,250,1727973126707,-0.18652344,-0.103515625,0.9951172,-0.09375,-0.09375,0.0
251,251,1727973126747,-0.18554688,-0.10546875,0.99902344,-0.03125,-0.09375,-0.0625
252,252,1727973126787,-0.18164062,-0.10449219,1.0136719,0.21875,-0.15625,-0.0625
253,253,1727973126827,-0.18066406,-0.10546875,0.9970703,-0.03125,-0.09375,0.0
254,254,1727973126867,-0.19238281,-0.103515625,1.0019531,-0.21875,-0.03125,-0.0625
255,255,1727973126907,-0.1875,-0.10546875,1.0009766,0.03125,-0.03125,0.0
256,256,1727973126947,-0.17285156,-0.107421875,1.0009766,-0.28125,0.03125,0.125
257,257,1727973126987,-0.18652344,-0.10253906,0.99609375,0.03125,0.09375,0.0625
258,258,1727973127027,-0.18261719,-0.109375,1.0039062,0.09375,-0.09375,-0.0625
259,259,1727973127067,-0.1796875,-0.11035156,1.0078125,-0.09375,0.03125,-0.125
260,260,1727973127107,-0.18652344,-0.10449219,1.0039062,-0.09375,0.03125,0.0
261,261,1727973127147,-0.18457031,-0.10253906,0.9785156,-0.03125,-0.03125,-0.1875
262,262,1727973127187,-0.18554688,-0.10449219,0.99609375,0.09375,0.03125,-0.1875
263,263,1727973127227,-0.17871094,-0.10644531,1.0009766,-0.03125,-0.15625,0.0625
264,264,1727973127267,-0.18652344,-0.10546875,1.0078125,-0.34375,-0.03125,-0.0625
265,265,1727973127307,-0.18359375,-0.1015625,1.0029297,-0.15625,-0.21875,-0.0625
266,266,1727973127347,-0.18359375,-0.099609375,0.9980469,0.09375,0.03125,0.125
267,267,1727973127387,-0.18261719,-0.10546875,1.0039062,-0.21875,-0.03125,-0.125
268,268,1727973127427,-0.18164062,-0.1015625,1.0126953,-0.09375,0.03125,0.0
269,269,1727973127467,-0.1796875,-0.10546875,0.99902344,0.15625,0.09375,-0.0625
270,270,1727973127507,-0.18261719,-0.107421875,0.99316406,-0.03125,0.0625,0.0
271,271,1727973127547,-0.19042969,-0.10644531,0.9980469,0.03125,-0.0625,0.125
272,272,1727973127587,-0.18164062,-0.10839844,1.0009766,-0.03125,0.0625,-0.0625
273,273,1727973127627,-0.18554688,-0.1015625,1.0039062,-0.03125,0.0,-0.0625
274,274,1727973127667,-0.18554688,-0.10644531,0.9970703,-0.03125,0.0625,-0.0625
275,275,1727973127707,-0.17871094,-0.10839844,0.98828125,0.03125,0.0,-0.09375
276,276,1727973127747,-0.1875,-0.10449219,1.0019531,-0.03125,0.0625,0.0
277,277,1727973127787,-0.18945312,-0.11035156,1.0039062,0.03125,-0.0625,0.125
278,278,1727973127827,-0.19140625,-0.10644531,1.0068359,0.03125,0.0,0.0
279,279,1727973127867,-0.18847656,-0.103515625,0.9970703,-0.03125,-0.125,0.125
280,280,1727973127907,-0.18359375,-0.10546875,1.0039062,0.09375,-0.0625,0.0
281,281,1727973127947,-0.18554688,-0.1015625,0.9970703,-0.09375,0.0,0.0
282,282,1727973127987,-0.18652344,-0.109375,1.0048828,0.03125,0.15625,-0.09375
283,283,1727973128027,-0.18652344,-0.103515625,1.0097656,0.15625,0.125,0.0625
284,284,1727973128067,-0.17480469,-0.10546875,1.0009766,-0.09375,0.0625,0.0625
285,285,1727973128107,-0.1875,-0.10839844,0.9941406,0.15625,0.21875,0.0
286,286,1727973128147,-0.19042969,-0.103515625,1.0048828,0.03125,0.0,0.0
287,287,1727973128187,-0.18261719,-0.10644531,0.9921875,-0.03125,0.0625,-0.0625
288,288,1727973128227,-0.18554688,-0.111328125,0.99609375,-0.03125,0.0,0.0
289,289,1727973128267,-0.18457031,-0.107421875,1.0068359,0.03125,0.0625,0.0625
290,290,1727973128307,-0.1875,-0.1015625,1.0019531,-0.21875,0.0,-0.09375
291,291,1727973128347,-0.18261719,-0.11328125,1.0019531,0.3125,0.125,0.0
292,292,1727973128387,-0.18945312,-0.10449219,1.0058594,-0.03125,0.15625,-0.15625
293,293,1727973128427,-0.19042969,-0.10546875,0.9951172,-0.03125,-0.125,0.125
294,294,1727973128467,-0.19140625,-0.103515625,0.9873047,0.03125,0.0,0.0625
295,295,1727973128507,-0.1796875,-0.11035156,0.9941406,-0.15625,-0.125,-0.09375
296,296,1727973128547,-0.17871094,-0.103515625,1.0039062,0.15625,0.125,-0.0625
297,297,1727973128587,-0.18261719,-0.10839844,1.0048828,-0.03125,0.0,0.0
298,298,1727973128627,-0.18847656,-0.10644531,0.9794922,-0.03125,0.0625,-0.0625
299,299,1727973128667,-0.18554688,-0.10058594,0.98339844,0.03125,0.15625,0.0625
300,300,1727973128707,-0.18261719,-0.09472656,0.9951172,0.15625,-0.0625,0.0
301,301,1727973128747,-0.19238281,-0.09863281,0.99121094,-0.03125,0.0625,0.0
302,302,1727973128787,-0.18652344,-0.10839844,0.99121094,-0.0625,0.0,0.0
303,303,1727973128827,-0.19238281,-0.10546875,0.99609375,-0.125,-0.0625,0.125
304,304,1727973128867,-0.18164062,-0.10546875,0.9921875,0.0,-0.125,0.0
305,305,1727973128907,-0.18652344,-0.10253906,1.0019531,-0.0625,-0.1875,-0.0625
306,306,1727973128947,-0.19042969,-0.10253906,1.0097656,0.0,-0.0625,0.0
307,307,1727973128987,-0.18457031,-0.099609375,0.984375,-0.0625,0.0,0.0
308,308,1727973129027,-0.18457031,-0.103515625,0.9921875,0.0625,0.0,0.0
309,309,1727973129067,-0.18847656,-0.103515625,1.0009766,0.125,0.125,0.125
310,310,1727973129107,-0.19042969,-0.10546875,1.0039062,0.0,-0.0625,0.0
311,311,1727973129147,-0.1875,-0.099609375,1.0107422,-0.0625,-0.125,-0.0625
312,312,1727973129187,-0.1875,-0.109375,1.0019531,0.0625,-0.0625,-0.0625
313,313,1727973129227,-0.18457031,-0.09667969,1.0029297,-0.0625,0.0625,0.0
314,314,1727973129267,-0.18652344,-0.09765625,0.99609375,0.0625,-0.0625,-0.0625
315,315,1727973129307,-0.19140625,-0.09863281,1.0048828,0.0,0.0625,-0.125
316,316,1727973129347,-0.18457031,-0.09667969,1.0126953,-0.25,-0.125,0.0
317,317,1727973129387,-0.1875,-0.099609375,1.0009766,0.0,0.0625,0.0
318,318,1727973129427,-0.18847656,-0.103515625,1.0078125,-0.1875,0.0,0.125
319,319,1727973129467,-0.18457031,-0.103515625,0.9980469,0.0625,0.125,-0.0625
320,320,1727973129507,-0.18945312,-0.099609375,0.9951172,0.0625,-0.0625,0.0625
321,321,1727973129547,-0.18554688,-0.10546875,1.0058594,-0.1875,-0.0625,0.1875
322,322,1727973129587,-0.17871094,-0.109375,1.0136719,-0.125,-0.1875,-0.0625
323,323,1727973129627,-0.1875,-0.103515625,0.99609375,-0.125,-0.0625,0.0625
324,324,1727973129667,-0.18554688,-0.10546875,0.99902344,0.0,0.0625,0.0625
325,325,1727973129707,-0.18652344,-0.103515625,0.99902344,0.0,0.0625,0.0
326,326,1727973129747,-0.1875,-0.08984375,0.99316406,-0.25,0.0,0.0
327,327,1727973129787,-0.18554688,-0.10253906,1.0126953,0.125,0.1875,0.0
328,328,1727973129827,-0.18066406,-0.10644531,1.0146484,-0.0625,-0.125,0.0625
329,329,1727973129867,-0.19628906,-0.10839844,0.9970703,-0.0625,0.0,0.125
330,330,1727973129907,-0.19238281,-0.107421875,0.9951172,-0.0625,-0.0625,0.0625
331,331,1727973129947,-0.18457031,-0.10839844,1.0048828,-0.0625,-0.125,0.0625
332,332,1727973129987,-0.19140625,-0.10449219,0.99316406,0.0,0.0625,0.0625
333,333,1727973130027,-0.19042969,-0.1015625,1.0029297,-0.0625,-0.0625,0.0625
334,334,1727973130067,-0.18945312,-0.10546875,1.0087891,-0.09375,0.0625,-0.03125
335,335,1727973130107,-0.18945312,-0.10253906,1.0039062,0.03125,0.1875,0.03125
336,336,1727973130147,-0.17382812,-0.10644531,0.99902344,0.09375,0.0625,0.09375
337,337,1727973130187,-0.17773438,-0.107421875,1.0029297,0.03125,0.0625,0.21875
338,338,1727973130227,-0.19042969,-0.10253906,0.99316406,-0.21875,0.0,0.15625
339,339,1727973130267,-0.18945312,-0.10058594,0.9863281,0.15625,0.0625,0.09375
340,340,1727973130307,-0.19042969,-0.1015625,0.9941406,-0.15625,0.0,-0.15625
341,341,1727973130347,-0.18359375,-0.10449219,1.0058594,0.03125,0.0625,-0.09375
342,342,1727973130387,-0.18652344,-0.107421875,1.0039062,-0.09375,-0.25,-0.09375
343,343,1727973130427,-0.18652344,-0.10839844,0.9951172,-0.09375,-0.0625,-0.03125
344,344,1727973130467,-0.18164062,-0.10058594,1.0087891,-0.09375,-0.0625,0.15625
345,345,1727973130507,-0.18164062,-0.1015625,1.0019531,0.03125,0.125,0.09375
346,346,1727973130547,-0.1875,-0.09863281,0.9873047,0.03125,0.125,-0.09375
347,347,1727973130587,-0.18457031,-0.107421875,1.0078125,0.15625,0.125,0.03125
348,348,1727973130627,-0.1796875,-0.09765625,1.0097656,-0.09375,0.0,-0.03125
349,349,1727973130667,-0.19238281,-0.10644531,1.0068359,-0.15625,-0.0625,-0.03125
350,350,1727973130707,-0.18261719,-0.107421875,0.9970703,-0.15625,-0.0625,0.03125
351,351,1727973130747,-0.18164062,-0.10839844,0.9902344,-0.03125,0.0,-0.03125
352,352,1727973130787,-0.18847656,-0.11328125,0.9980469,-0.09375,0.0625,-0.03125
353,353,1727973130827,-0.18554688,-0.107421875,1.0039062,0.03125,0.0,-0.09375
354,354,1727973130867,-0.18945312,-0.107421875,0.9902344,0.03125,0.0625,-0.03125
355,355,1727973130907,-0.19140625,-0.1015625,0.9921875,0.03125,0.0625,-0.03125
356,356,1727973130947,-0.18457031,-0.107421875,0.99609375,-0.03125,-0.0625,0.03125
357,357,1727973130987,-0.18554688,-0.10839844,1.0117188,-0.03125,-0.0625,-0.03125
358,358,1727973131027,-0.1796875,-0.10253906,0.9951172,-0.21875,0.0,-0.03125
359,359,1727973131067,-0.18261719,-0.10058594,0.9941406,0.03125,0.0,0.09375
360,360,1727973131107,-0.18847656,-0.10644531,0.99609375,-0.09375,0.125,-0.03125
361,361,1727973131147,-0.17773438,-0.10058594,0.9921875,-0.03125,0.0,0.03125
362,362,1727973131187,-0.18066406,-0.103515625,0.9980469,-0.03125,0.0,-0.03125
363,363,1727973131227,-0.17480469,-0.107421875,1.0,-0.03125,0.0,0.15625
364,364,1727973131267,-0.1875,-0.107421875,0.99316406,-0.03125,0.0,0.03125
365,365,1727973131307,-0.18457031,-0.103515625,0.9980469,-0.15625,-0.0625,-0.03125
366,366,1727973131347,-0.18554688,-0.099609375,0.9980469,0.09375,0.03125,0.0625
367,367,1727973131387,-0.1875,-0.10449219,1.0,0.0625,0.09375,-0.25
368,368,1727973131427,-0.18164062,-0.10449219,1.0078125,0.0625,0.15625,-0.0625
369,369,1727973131467,-0.18652344,-0.10449219,0.9980469,0.0,-0.15625,0.125
370,370,1727973131507,-0.18359375,-0.10839844,1.0058594,-0.125,-0.15625,0.0
371,371,1727973131547,-0.17675781,-0.107421875,1.0009766,0.0625,-0.09375,0.0625
372,372,1727973131587,-0.1875,-0.10058594,1.0117188,-0.25,0.09375,-0.0625
373,373,1727973131627,-0.1875,-0.10253906,0.9951172,0.15625,0.03125,-0.0625
374,374,1727973131667,-0.18945312,-0.103515625,1.0019531,0.0625,0.09375,0.125
375,375,1727973131707,-0.18164062,-0.099609375,0.99316406,0.0,-0.15625,0.0
376,376,1727973131747,-0.18359375,-0.10546875,1.0048828,-0.0625,-0.09375,-0.0625
377,377,1727973131787,-0.1875,-0.10546875,0.99316406,-0.0625,-0.09375,-0.0625
378,378,1727973131827,-0.18945312,-0.10449219,0.9970703,0.15625,-0.09375,0.0
379,379,1727973131867,-0.18066406,-0.111328125,1.0039062,-0.1875,-0.03125,-0.0625
380,380,1727973131907,-0.18554688,-0.09863281,0.9951172,0.0,-0.03125,0.0
381,381,1727973131947,-0.18164062,-0.1015625,1.0078125,0.09375,0.15625,0.125
382,382,1727973131987,-0.18164062,-0.10449219,0.9941406,0.0625,0.03125,0.0
383,383,1727973132027,-0.1875,-0.11230469,0.99121094,-0.0625,-0.15625,0.0625
384,384,1727973132067,-0.18554688,-0.10449219,0.984375,0.0625,0.09375,-0.0625
385,385,1727973132107,-0.19042969,-0.11035156,1.0,-0.0625,-0.03125,-0.0625
386,386,1727973132147,-0.18261719,-0.103515625,1.0068359,0.0,-0.09375,0.0
387,387,1727973132187,-0.17773438,-0.10058594,0.9980469,0.0,-0.09375,0.125
388,388,1727973132227,-0.18457031,-0.09863281,0.9921875,0.0,-0.03125,0.0
389,389,1727973132267,-0.19042969,-0.095703125,0.9970703,0.15625,-0.03125,0.0
390,390,1727973132307,-0.1875,-0.103515625,0.99121094,-0.125,-0.09375,-0.125
391,391,1727973132347,-0.18164062,-0.10644531,0.9941406,0.15625,0.03125,-0.125
392,392,1727973132387,-0.18847656,-0.10644531,1.015625,0.0625,0.03125,-0.0625
393,393,1727973132427,-0.18554688,-0.10644531,1.0039062,0.09375,0.03125,-0.0625
394,394,1727973132467,-0.18457031,-0.11328125,0.98535156,0.0625,0.03125,0.0
395,395,1727973132507,-0.18847656,-0.10839844,1.0058594,0.0,0.09375,-0.0625
396,396,1727973132547,-0.1875,-0.10253906,1.0068359,-0.0625,0.15625,-0.1875
397,397,1727973132587,-0.1875,-0.10546875,1.0068359,0.0625,0.03125,-0.25
398,398,1727973132627,-0.18945312,-0.109375,1.0058594,0.21875,0.09375,0.0625
399,399,1727973132667,-0.18945312,-0.09277344,0.9980469,-0.15625,-0.03125,0.0
400,400,1727973132707,-0.18945312,-0.10449219,0.9941406,0.25,0.03125,0.125
401,401,1727973132747,-0.18652344,-0.107421875,1.0039062,-0.09375,-0.03125,-0.0625
402,402,1727973132787,-0.19140625,-0.111328125,0.9951172,-0.15625,-0.03125,-0.09375
403,403,1727973132827,-0.1875,-0.111328125,0.9892578,-0.21875,-0.03125,0.0625
404,404,1727973132867,-0.18652344,-0.111328125,0.9814453,0.09375,0.03125,-0.0625
405,405,1727973132907,-0.18945312,-0.10058594,0.99316406,0.03125,0.09375,0.1875
406,406,1727973132947,-0.19042969,-0.109375,0.9921875,-0.03125,-0.03125,-0.0625
407,407,1727973132987,-0.18359375,-0.10644531,1.0087891,-0.03125,-0.03125,-0.0625
408,408,1727973133027,-0.18457031,-0.10449219,1.0009766,-0.03125,0.03125,0.0625
409,409,1727973133067,-0.17773438,-0.1015625,0.99902344,0.15625,-0.03125,-0.0625
410,410,1727973133107,-0.19238281,-0.10253906,1.0146484,-0.03125,-0.09375,0.0625
411,411,1727973133147,-0.18261719,-0.09765625,0.9892578,-0.21875,-0.09375,0.0625
412,412,1727973133187,-0.1796875,-0.1015625,0.9980469,0.03125,-0.15625,0.0625
413,413,1727973133227,-0.19238281,-0.10449219,0.98535156,-0.03125,0.03125,-0.09375
414,414,1727973133267,-0.18847656,-0.11035156,1.0087891,-0.09375,-0.09375,-0.09375
415,415,1727973133307,-0.19042969,-0.10253906,0.9873047,-0.09375,-0.15625,0.0
416,416,1727973133347,-0.1875,-0.10253906,0.9892578,0.03125,0.03125,-0.0625
417,417,1727973133387,-0.18066406,-0.11328125,1.0039062,-0.09375,-0.09375,-0.0625
418,418,1727973133427,-0.1875,-0.099609375,1.0107422,-0.03125,-0.09375,0.0625
419,419,1727973133467,-0.18164062,-0.109375,0.9873047,-0.03125,-0.03125,0.0625
420,420,1727973133507,-0.18847656,-0.103515625,0.98339844,-0.15625,-0.15625,-0.0625
421,421,1727973133547,-0.19140625,-0.091796875,1.0185547,-0.09375,-0.09375,-0.0625
422,422,1727973133587,-0.18359375,-0.11425781,1.0009766,0.03125,0.03125,0.0
423,423,1727973133627,-0.18164062,-0.09765625,1.0107422,-0.03125,0.03125,-0.28125
424,424,1727973133667,-0.19042969,-0.1015625,1.0019531,0.15625,0.03125,-0.0625
425,425,1727973133707,-0.1875,-0.109375,0.99121094,0.03125,0.09375,-0.0625
426,426,1727973133747,-0.18457031,-0.11035156,0.99902344,-0.34375,-0.15625,-0.21875
427,427,1727973133787,-0.18554688,-0.10839844,1.0019531,0.03125,-0.15625,-0.0625
428,428,1727973133827,-0.1875,-0.10058594,1.0087891,0.03125,-0.09375,0.125
429,429,1727973133867,-0.18945312,-0.10546875,1.0019531,-0.21875,0.03125,-0.09375
430,430,1727973133907,-0.1875,-0.10546875,1.0,-0.03125,-0.09375,0.0625
431,431,1727973133947,-0.18652344,-0.099609375,1.0087891,0.09375,0.03125,-0.09375
432,432,1727973133987,-0.1796875,-0.103515625,1.0097656,0.03125,-0.03125,-0.0625
433,433,1727973134027,-0.18457031,-0.109375,0.99902344,-0.03125,-0.03125,0.0625
434,434,1727973134067,-0.19140625,-0.09863281,0.9941406,0.03125,0.09375,0.1875
435,435,1727973134107,-0.18554688,-0.09277344,0.98828125,-0.28125,-0.15625,0.0625
436,436,1727973134147,-0.18652344,-0.09863281,1.0078125,0.03125,-0.15625,0.0
437,437,1727973134187,-0.18261719,-0.10546875,0.99609375,-0.03125,-0.28125,-0.0625
438,438,1727973134227,-0.18457031,-0.1015625,0.9970703,-0.03125,0.09375,0.0625
439,439,1727973134267,-0.18261719,-0.1015625,1.0019531,-0.03125,-0.09375,0.0
440,440,1727973134307,-0.17773438,-0.099609375,1.0029297,0.03125,0.03125,-0.0625
441,441,1727973134347,-0.18652344,-0.10839844,0.99316406,-0.28125,-0.03125,-0.0625
442,442,1727973134387,-0.18554688,-0.107421875,1.0136719,0.09375,-0.03125,0.0625
443,443,1727973134427,-0.1875,-0.111328125,1.0009766,0.09375,0.03125,0.1875
444,444,1727973134467,-0.18554688,-0.099609375,1.0039062,-0.15625,0.09375,0.0625
445,445,1727973134507,-0.18359375,-0.109375,1.0029297,-0.03125,-0.09375,-0.15625
446,446,1727973134547,-0.18261719,-0.09277344,1.0019531,0.09375,0.03125,-0.0625
447,447,1727973134587,-0.18945312,-0.095703125,0.984375,-0.03125,-0.03125,0.125
448,448,1727973134627,-0.18457031,-0.103515625,0.9941406,-0.03125,-0.21875,0.0
449,449,1727973134667,-0.17871094,-0.10449219,0.99609375,0.03125,-0.03125,0.0
450,450,1727973134707,-0.19140625,-0.09863281,1.0039062,-0.09375,-0.15625,-0.09375
451,451,1727973134747,-0.18164062,-0.103515625,1.0117188,-0.21875,-0.03125,0.0
452,452,1727973134787,-0.1875,-0.111328125,1.0019531,-0.03125,0.03125,0.0
453,453,1727973134827,-0.18945312,-0.107421875,1.0126953,0.03125,0.09375,0.125
454,454,1727973134867,-0.19824219,-0.09375,1.0048828,-0.03125,-0.03125,0.0
455,455,1727973134907,-0.18359375,-0.1015625,0.9970703,0.15625,-0.15625,0.125
456,456,1727973134947,-0.18457031,-0.10449219,0.9951172,-0.03125,0.03125,-0.0625
457,457,1727973134987,-0.18457031,-0.109375,0.99902344,0.03125,-0.03125,0.0
458,458,1727973135027,-0.1796875,-0.10546875,1.0097656,-0.09375,-0.09375,0.0
459,459,1727973135067,-0.18164062,-0.11621094,0.98828125,-0.03125,-0.03125,0.0
460,460,1727973135107,-0.18261719,-0.10546875,0.99609375,-0.03125,0.03125,0.125
461,461,1727973135147,-0.1875,-0.10546875,1.0117188,0.03125,-0.09375,0.0625
462,462,1727973135187,-0.18554688,-0.111328125,1.0039062,-0.09375,-0.09375,0.125
463,463,1727973135227,-0.19042969,-0.10546875,0.9980469,-0.09375,0.03125,0.125
464,464,1727973135267,-0.18847656,-0.10839844,1.0039062,-0.09375,-0.21875,0.0625
465,465,1727973135307,-0.18652344,-0.103515625,1.0087891,-0.15625,-0.03125,0.0
466,466,1727973135347,-0.19238281,-0.11328125,1.0019531,0.03125,0.15625,-0.0625
467,467,1727973135387,-0.18652344,-0.10253906,1.0117188,-0.03125,0.03125,-0.09375
468,468,1727973135427,-0.18847656,-0.10546875,0.98046875,0.03125,0.03125,0.125
469,469,1727973135467,-0.1875,-0.10449219,0.99902344,-0.03125,-0.15625,-0.09375
470,470,1727973135507,-0.18554688,-0.11230469,0.9863281,0.03125,0.03125,0.0
471,471,1727973135547,-0.18847656,-0.10839844,1.0,-0.03125,-0.09375,-0.0625
472,472,1727973135587,-0.18164062,-0.111328125,1.0078125,0.15625,0.09375,0.0
473,473,1727973135627,-0.18554688,-0.111328125,1.0019531,-0.09375,-0.03125,0.0
474,474,1727973135667,-0.1875,-0.1015625,0.9892578,0.09375,0.03125,-0.15625
475,475,1727973135707,-0.18945312,-0.095703125,0.9970703,0.03125,-0.03125,0.125
476,476,1727973135747,-0.18261719,-0.10253906,1.0097656,-0.03125,-0.03125,0.0625
477,477,1727973135787,-0.18554688,-0.10644531,0.9921875,-0.03125,-0.15625,0.0
478,478,1727973135827,-0.18457031,-0.09375,0.99316406,-0.21875,-0.09375,-0.15625
479,479,1727973135867,-0.18261719,-0.11425781,1.0097656,0.25,-0.09375,0.0625
480,480,1727973135907,-0.18261719,-0.099609375,0.99316406,0.03125,0.15625,-0.0625
481,481,1727973135947,-0.18554688,-0.107421875,1.0,-0.21875,-0.09375,0.0
482,482,1727973135987,-0.18066406,-0.1015625,0.9980469,0.03125,-0.09375,0.125
483,483,1727973136027,-0.1796875,-0.10449219,1.0009766,-0.09375,0.03125,-0.09375
484,484,1727973136067,-0.18945312,-0.11035156,0.99121094,0.09375,0.03125,0.0625
485,485,1727973136107,-0.18554688,-0.10449219,1.0136719,0.03125,0.03125,0.0625
486,486,1727973136147,-0.18457031,-0.109375,1.0117188,-0.03125,0.09375,0.0625
487,487,1727973136187,-0.18164062,-0.111328125,1.0029297,-0.03125,-0.15625,0.125
488,488,1727973136227,-0.18164062,-0.10253906,1.0,-0.03125,-0.15625,-0.0625
489,489,1727973136267,-0.17773438,-0.10644531,0.9892578,-0.15625,-0.15625,-0.09375
490,490,1727973136307,-0.18652344,-0.095703125,0.9951172,-0.21875,-0.03125,0.0
491,491,1727973136347,-0.18847656,-0.10546875,0.99902344,0.09375,0.09375,-0.0625
492,492,1727973136387,-0.17773438,-0.10546875,0.9970703,-0.09375,0.03125,0.0
493,493,1727973136427,-0.18261719,-0.103515625,1.0039062,0.15625,0.15625,0.0625
494,494,1727973136467,-0.19238281,-0.10058594,1.0029297,-0.09375,0.03125,0.0
495,495,1727973136507,-0.19335938,-0.1015625,1.0117188,0.15625,0.03125,0.0
496,496,1727973136547,-0.18652344,-0.10839844,1.0039062,0.03125,0.03125,-0.0625
497,497,1727973136587,-0.18945312,-0.09863281,1.0,-0.03125,0.03125,-0.125
498,498,1727973136627,-0.18457031,-0.107421875,0.99902344,0.03125,0.03125,0.0625
499,499,1727973136667,-0.1796875,-0.09472656,1.0029297,0.09375,0.09375,0.125
500,500,1727973136707,-0.19335938,-0.109375,1.0068359,-0.28125,-0.15625,-0.125
501,501,1727973136747,-0.19140625,-0.11230469,0.9951172,0.15625,0.03125,0.0625
502,502,1727973136787,-0.18554688,-0.10449219,1.0097656,-0.03125,0.09375,0.0
503,503,1727973136827,-0.17578125,-0.107421875,1.0078125,0.03125,0.21875,-0.1875
504,504,1727973136867,-0.18554688,-0.10546875,1.0019531,0.03125,0.09375,-0.125
505,505,1727973136907,-0.18847656,-0.10449219,1.0029297,-0.21875,-0.03125,0.0625
506,506,1727973136947,-0.18847656,-0.111328125,0.9921875,-0.09375,-0.15625,0.0
507,507,1727973136987,-0.17871094,-0.11230469,0.9921875,0.09375,-0.15625,-0.0625
508,508,1727973137027,-0.18554688,-0.099609375,1.0039062,-0.03125,-0.15625,-0.0625
509,509,1727973137067,-0.1875,-0.10253906,0.9941406,-0.03125,0.03125,0.1875
510,510,1727973137107,-0.18457031,-0.10839844,1.0117188,-0.09375,-0.21875,0.0
511,511,1727973137147,-0.18945312,-0.1015625,0.9941406,0.03125,0.15625,-0.125
512,512,1727973137187,-0.18554688,-0.10449219,0.9921875,0.15625,0.21875,0.1875
513,513,1727973137227,-0.18554688,-0.10839844,1.0039062,0.15625,-0.09375,0.125
514,514,1727973137267,-0.18457031,-0.1015625,0.9892578,-0.09375,-0.03125,0.0
515,515,1727973137307,-0.18847656,-0.10644531,1.0107422,-0.03125,0.09375,-0.0625
516,516,1727973137347,-0.18359375,-0.10839844,1.0117188,0.09375,-0.09375,-0.125
517,517,1727973137387,-0.18945312,-0.10253906,1.0029297,-0.03125,-0.03125,0.125
518,518,1727973137427,-0.1875,-0.10058594,0.9863281,-0.21875,-0.03125,0.0
519,519,1727973137467,-0.18847656,-0.10644531,1.0019531,-0.09375,0.03125,0.0625
520,520,1727973137507,-0.18652344,-0.109375,1.0009766,-0.03125,-0.09375,0.125
521,521,1727973137547,-0.19140625,-0.107421875,1.0039062,-0.03125,0.03125,-0.25
522,522,1727973137587,-0.18261719,-0.103515625,1.0,0.15625,-0.03125,-0.0625
523,523,1727973137627,-0.19140625,-0.10449219,0.9951172,-0.03125,-0.03125,-0.0625
524,524,1727973137667,-0.18554688,-0.10546875,0.9863281,-0.09375,0.09375,0.0
525,525,1727973137707,-0.18945312,-0.09863281,1.015625,0.09375,-0.09375,0.0
526,526,1727973137747,-0.18945312,-0.11035156,0.9970703,-0.09375,-0.03125,-0.0625
527,527,1727973137787,-0.18554688,-0.111328125,0.9980469,0.03125,0.03125,0.0
528,528,1727973137827,-0.18359375,-0.10546875,1.0039062,0.09375,0.03125,-0.1875
529,529,1727973137867,-0.1796875,-0.1015625,1.0078125,-0.03125,-0.03125,-0.1875
530,530,1727973137907,-0.18652344,-0.10449219,0.9921875,-0.15625,0.15625,0.0
531,531,1727973137947,-0.18847656,-0.10449219,1.0087891,-0.09375,-0.15625,-0.0625
532,532,1727973137987,-0.18261719,-0.111328125,0.9902344,-0.03125,-0.15625,0.0625
533,533,1727973138027,-0.19238281,-0.107421875,1.0029297,-0.03125,-0.09375,-0.0625
534,534,1727973138067,-0.19140625,-0.103515625,1.0019531,-0.03125,-0.09375,0.0
535,535,1727973138107,-0.18359375,-0.107421875,0.9970703,-0.15625,-0.09375,0.0
536,536,1727973138147,-0.18359375,-0.10546875,1.0009766,-0.09375,0.03125,-0.25
537,537,1727973138187,-0.18164062,-0.10253906,1.0,0.03125,-0.09375,0.0
538,538,1727973138227,-0.18261719,-0.103515625,1.0146484,0.03125,0.03125,0.0625
539,539,1727973138267,-0.19140625,-0.10058594,1.0029297,-0.15625,-0.03125,0.0625
540,540,1727973138307,-0.18847656,-0.103515625,1.0009766,-0.09375,-0.15625,0.0625
541,541,1727973138347,-0.18554688,-0.103515625,0.99902344,-0.03125,-0.15625,0.0625
542,542,1727973138387,-0.18457031,-0.10449219,0.984375,-0.21875,-0.21875,-0.0625
543,543,1727973138427,-0.18554688,-0.1171875,0.9921875,-0.03125,-0.15625,-0.0625
544,544,1727973138467,-0.18457031,-0.10449219,1.0146484,-0.03125,-0.09375,-0.0625
545,545,1727973138507,-0.18652344,-0.10546875,0.99316406,0.03125,0.03125,0.0
546,546,1727973138547,-0.18945312,-0.103515625,1.0009766,-0.03125,-0.03125,0.0
547,547,1727973138587,-0.17675781,-0.111328125,1.0029297,-0.09375,-0.34375,-0.1875
548,548,1727973138627,-0.18164062,-0.109375,0.99609375,0.15625,0.03125,0.0
549,549,1727973138667,-0.18457031,-0.11230469,0.99609375,-0.09375,0.03125,0.0625
550,550,1727973138707,-0.1875,-0.10449219,0.99902344,-0.15625,-0.03125,-0.125
551,551,1727973138747,-0.17675781,-0.10546875,0.9980469,0.03125,-0.03125,0.0
552,552,1727973138787,-0.18359375,-0.099609375,1.0009766,-0.21875,-0.03125,0.0
553,553,1727973138827,-0.18164062,-0.10058594,0.9921875,-0.15625,-0.09375,0.0
554,554,1727973138867,-0.19140625,-0.10546875,1.0078125,-0.03125,-0.09375,0.0
555,555,1727973138907,-0.19042969,-0.11035156,1.0058594,0.15625,0.03125,0.0625
556,556,1727973138947,-0.18945312,-0.107421875,1.0019531,-0.15625,-0.03125,-0.0625
557,557,1727973138987,-0.18457031,-0.10546875,1.0019531,-0.03125,-0.03125,0.1875
558,558,1727973139027,-0.18945312,-0.10644531,1.0078125,0.03125,0.03125,0.0
559,559,1727973139067,-0.19824219,-0.11035156,0.9980469,-0.09375,0.03125,0.0625
560,560,1727973139107,-0.18457031,-0.095703125,0.9921875,-0.03125,-0.03125,0.0
561,561,1727973139147,-0.1875,-0.10546875,1.0029297,0.03125,0.09375,0.0
562,562,1727973139187,-0.18652344,-0.107421875,0.9951172,-0.0625,0.0,0.0
563,563,1727973139227,-0.18261719,-0.10546875,0.9980469,-0.125,-0.0625,0.0
564,564,1727973139267,-0.19433594,-0.10644531,1.0009766,-0.1875,0.0,-0.0625
565,565,1727973139307,-0.19335938,-0.10449219,1.0175781,0.0,-0.09375,0.0
566,566,1727973139347,-0.1953125,-0.099609375,0.99609375,0.0,0.0625,-0.0625
567,567,1727973139387,-0.1875,-0.09472656,1.0068359,0.0,0.0,0.0
568,568,1727973139427,-0.18847656,-0.111328125,1.0,0.125,0.0625,0.0625
569,569,1727973139467,-0.18457031,-0.109375,0.9980469,-0.0625,-0.0625,-0.125
570,570,1727973139507,-0.18554688,-0.10644531,0.9951172,0.0625,0.25,0.0
571,571,1727973139547,-0.18945312,-0.10546875,0.99121094,0.0,0.0,0.125
572,572,1727973139587,-0.18261719,-0.1015625,0.99609375,0.125,0.0,0.0
573,573,1727973139627,-0.18847656,-0.10644531,0.9980469,0.0,0.125,-0.125
574,574,1727973139667,-0.17773438,-0.109375,0.9951172,0.0,0.0625,-0.125
575,575,1727973139707,-0.17871094,-0.09765625,0.99316406,0.0625,-0.0625,-0.125
576,576,1727973139747,-0.18359375,-0.10058594,1.0068359,0.0625,0.125,0.0
577,577,1727973139787,-0.18164062,-0.09863281,1.0009766,0.0,0.0,-0.0625
578,578,1727973139827,-0.1953125,-0.10839844,0.99316406,0.0625,0.1875,-0.1875
579,579,1727973139867,-0.1875,-0.10644531,0.99609375,-0.125,0.0,0.0625
580,580,1727973139907,-0.18164062,-0.107421875,0.9970703,-0.125,-0.0625,0.0
581,581,1727973139947,-0.17871094,-0.10058594,1.0048828,-0.125,-0.15625,0.0625
582,582,1727973139987,-0.18847656,-0.10839844,0.9873047,0.0625,0.125,-0.1875
583,583,1727973140027,-0.18359375,-0.10644531,0.9941406,0.0625,0.0625,0.0
584,584,1727973140067,-0.19238281,-0.10253906,1.0117188,0.0625,0.0,-0.0625
585,585,1727973140107,-0.18652344,-0.10449219,1.0039062,-0.1875,0.125,-0.0625
586,586,1727973140147,-0.18164062,-0.109375,0.9902344,0.0,-0.0625,0.125
587,587,1727973140187,-0.18164062,-0.09765625,0.99609375,0.0,0.0,0.125
588,588,1727973140227,-0.18066406,-0.09863281,0.99902344,0.0625,0.125,0.0
589,589,1727973140267,-0.1953125,-0.099609375,0.99902344,-0.0625,0.0,0.0625
590,590,1727973140307,-0.19140625,-0.10839844,1.0039062,0.0,-0.09375,0.0
591,591,1727973140347,-0.18652344,-0.1015625,0.9941406,0.0,0.0625,-0.125
592,592,1727973140387,-0.1953125,-0.1015625,0.9951172,0.0,-0.0625,0.0
593,593,1727973140427,-0.19238281,-0.111328125,0.9921875,0.0625,0.125,0.0
594,594,1727973140467,-0.1796875,-0.09863281,1.0146484,0.0625,0.125,-0.0625
595,595,1727973140507,-0.19238281,-0.107421875,1.0058594,0.0625,0.0625,0.1875
596,596,1727973140547,-0.1796875,-0.09375,0.9873047,0.0,-0.09375,0.125
597,597,1727973140587,-0.18261719,-0.103515625,1.0,0.0625,0.125,-0.1875
598,598,1727973140627,-0.19042969,-0.10449219,1.0039062,0.0,-0.0625,-0.125
599,599,1727973140667,-0.1796875,-0.109375,0.99609375,0.0,0.0,0.0
600,600,1727973140707,-0.18359375,-0.10449219,1.0019531,0.1875,0.125,0.0
601,601,1727973140747,-0.18457031,-0.10253906,1.0136719,-0.0625,0.0625,-0.125
602,602,1727973140787,-0.18847656,-0.103515625,1.0009766,0.25,0.125,-0.1875
603,603,1727973140827,-0.18652344,-0.099609375,1.0175781,0.0625,0.0625,-0.0625
604,604,1727973140867,-0.18457031,-0.1015625,1.0068359,-0.125,0.0,0.0625
605,605,1727973140907,-0.18945312,-0.107421875,0.9941406,0.0,-0.0625,-0.125
606,606,1727973140947,-0.18359375,-0.10644531,0.99316406,0.0,-0.15625,-0.0625
607,607,1727973140987,-0.18457031,-0.109375,1.0107422,0.0,0.0,-0.0625
608,608,1727973141027,-0.18652344,-0.103515625,0.9902344,-0.125,0.0,-0.125
609,609,1727973141067,-0.18652344,-0.10839844,1.0068359,0.0625,0.0625,-0.0625
610,610,1727973141107,-0.18945312,-0.10644531,1.0,-0.1875,0.0625,0.0
611,611,1727973141147,-0.18847656,-0.10546875,0.99902344,0.0625,0.0,0.0
612,612,1727973141187,-0.18945312,-0.10644531,1.0029297,-0.25,-0.0625,0.0625
613,613,1727973141227,-0.1953125,-0.091796875,0.9941406,0.0625,0.0625,0.125
614,614,1727973141267,-0.19238281,-0.10644531,1.0,0.0,-0.0625,-0.125
615,615,1727973141307,-0.18066406,-0.099609375,0.9951172,0.0,0.0625,-0.125
616,616,1727973141347,-0.18164062,-0.10058594,0.9941406,0.0,0.0625,-0.0625
617,617,1727973141387,-0.1875,-0.09863281,0.9941406,0.125,0.125,0.125
618,618,1727973141427,-0.1875,-0.10058594,0.99609375,0.0625,0.0625,0.0
619,619,1727973141467,-0.1796875,-0.10839844,1.0087891,0.0625,0.0625,-0.0625
620,620,1727973141507,-0.18652344,-0.10546875,0.99121094,-0.0625,-0.0625,-0.0625
621,621,1727973141547,-0.17773438,-0.10449219,0.9902344,0.0,-0.09375,0.125
622,622,1727973141587,-0.18164062,-0.09765625,1.0019531,-0.0625,-0.09375,-0.0625
623,623,1727973141627,-0.1875,-0.11230469,0.99902344,0.0625,0.0,-0.0625
624,624,1727973141667,-0.17773438,-0.10546875,0.9941406,0.0625,0.0625,0.0
625,625,1727973141707,-0.1796875,-0.1015625,0.99121094,-0.0625,-0.09375,-0.125
626,626,1727973141747,-0.19335938,-0.107421875,1.0048828,0.125,0.0,-0.0625
627,627,1727973141787,-0.18652344,-0.10449219,1.0,-0.0625,-0.0625,-0.0625
628,628,1727973141827,-0.18457031,-0.09765625,1.0087891,-0.1875,-0.09375,-0.25
629,629,1727973141867,-0.18066406,-0.10253906,0.99121094,0.0,0.0625,-0.0625
630,630,1727973141907,-0.19042969,-0.10253906,1.0058594,-0.125,-0.0625,0.0625
631,631,1727973141947,-0.19140625,-0.10644531,0.9980469,0.0,0.0,0.0625
632,632,1727973141987,-0.18359375,-0.107421875,1.0029297,-0.1875,-0.0625,-0.0625
633,633,1727973142027,-0.18652344,-0.111328125,0.9941406,0.0625,0.0,-0.125
634,634,1727973142067,-0.17675781,-0.11230469,0.9970703,-0.125,-0.0625,-0.0625
635,635,1727973142107,-0.18652344,-0.09375,1.0048828,0.0625,0.0,0.0
636,636,1727973142147,-0.18847656,-0.10839844,0.99121094,0.0,-0.09375,-0.0625
637,637,1727973142187,-0.17578125,-0.10253906,0.9980469,0.0,0.125,0.0
638,638,1727973142227,-0.17675781,-0.107421875,1.0039062,0.0625,-0.0625,-0.0625
639,639,1727973142267,-0.19628906,-0.10546875,1.0019531,-0.0625,-0.09375,0.0
640,640,1727973142307,-0.18457031,-0.11035156,1.0107422,-0.25,-0.0625,-0.0625
641,641,1727973142347,-0.18554688,-0.111328125,1.0117188,0.0,0.0,0.0625
642,642,1727973142387,-0.1953125,-0.103515625,0.98828125,0.0,0.0,-0.0625
643,643,1727973142427,-0.17773438,-0.10546875,1.0078125,-0.125,0.0,-0.125
644,644,1727973142467,-0.18652344,-0.10449219,0.9941406,0.125,0.0,0.125
645,645,1727973142507,-0.18066406,-0.10253906,0.9970703,0.0,0.0,0.0625
646,646,1727973142547,-0.17871094,-0.10546875,0.99316406,-0.0625,0.0,-0.0625
647,647,1727973142587,-0.18847656,-0.10253906,0.9941406,0.0625,0.125,-0.0625
648,648,1727973142627,-0.1875,-0.11230469,1.0009766,0.0625,0.125,-0.1875
649,649,1727973142667,-0.18164062,-0.10449219,1.0136719,0.25,-0.15625,-0.0625
650,650,1727973142707,-0.18066406,-0.10449219,0.9863281,0.0625,0.0625,0.0
651,651,1727973142747,-0.18457031,-0.11328125,0.99316406,-0.125,0.0,0.0
652,652,1727973142787,-0.18066406,-0.099609375,0.9902344,-0.125,-0.0625,-0.0625
653,653,1727973142827,-0.18847656,-0.1015625,0.9951172,0.25,-0.09375,0.0
654,654,1727973142867,-0.19726562,-0.099609375,1.0039062,-0.125,-0.09375,0.0
655,655,1727973142907,-0.18359375,-0.111328125,1.015625,0.0,0.0,0.0
656,656,1727973142947,-0.18359375,-0.107421875,1.0,0.0625,0.125,0.0
657,657,1727973142987,-0.18652344,-0.103515625,1.0058594,0.0625,0.0625,-0.0625
658,658,1727973143027,-0.18945312,-0.1015625,0.99609375,0.125,0.0,0.125
659,659,1727973143067,-0.18164062,-0.10644531,1.0029297,0.0,0.0,0.125
660,660,1727973143107,-0.18847656,-0.10058594,1.0058594,-0.125,-0.09375,-0.0625
661,661,1727973143147,-0.19238281,-0.11035156,0.9892578,0.1875,0.0,0.0625
662,662,1727973143187,-0.18261719,-0.107421875,1.0039062,-0.25,-0.09375,0.0625
663,663,1727973143227,-0.18945312,-0.10839844,1.0009766,0.0625,0.0625,-0.125
664,664,1727973143267,-0.18652344,-0.09765625,1.0029297,0.0625,0.0,-0.1875
665,665,1727973143307,-0.18652344,-0.1015625,0.9941406,-0.0625,-0.0625,-0.0625
666,666,1727973143347,-0.18945312,-0.11230469,1.0029297,0.0,0.0,0.0625
667,667,1727973143387,-0.18261719,-0.111328125,1.0009766,0.125,0.0625,0.0625
668,668,1727973143427,-0.18261719,-0.10449219,0.9951172,0.0,0.0,-0.0625
669,669,1727973143467,-0.1796875,-0.109375,1.0175781,0.0,-0.0625,-0.125
670,670,1727973143507,-0.1796875,-0.10644531,0.98828125,-0.0625,0.1875,0.0
671,671,1727973143547,-0.18359375,-0.10839844,1.0126953,0.0625,0.125,0.0
672,672,1727973143587,-0.18457031,-0.099609375,0.9921875,0.0625,0.125,-0.0625
673,673,1727973143627,-0.18261719,-0.11035156,1.0019531,0.125,0.0,0.0
674,674,1727973143667,-0.18359375,-0.111328125,1.0136719,0.0625,0.125,-0.0625
675,675,1727973143707,-0.18164062,-0.10058594,0.99316406,-0.125,-0.0625,-0.125
676,676,1727973143747,-0.18457031,-0.11035156,0.9951172,0.375,0.125,0.0
677,677,1727973143787,-0.19335938,-0.10253906,1.0078125,0.125,0.125,-0.0625
678,678,1727973143827,-0.19042969,-0.09667969,0.9980469,0.0625,0.0625,0.0
679,679,1727973143867,-0.18457031,-0.107421875,1.0029297,0.0625,0.0625,-0.0625
680,680,1727973143907,-0.18457031,-0.109375,1.0,-0.0625,-0.09375,-0.0625
681,681,1727973143947,-0.18652344,-0.11328125,1.0068359,-0.0625,-0.15625,-0.0625
682,682,1727973143987,-0.18261719,-0.10546875,0.99121094,0.0625,0.0625,0.0625
683,683,1727973144027,-0.18261719,-0.10644531,1.0048828,0.0625,0.0,0.1875
684,684,1727973144067,-0.18554688,-0.099609375,1.0068359,0.0625,0.0625,-0.25
685,685,1727973144107,-0.18457031,-0.09667969,0.99902344,0.0625,0.1875,0.125
686,686,1727973144147,-0.18847656,-0.10644531,0.99121094,0.125,-0.0625,0.0625
687,687,1727973144187,-0.18261719,-0.109375,1.0029297,-0.0625,0.0,0.0625
688,688,1727973144227,-0.17675781,-0.11425781,1.0039062,0.0625,0.1875,-0.0625
689,689,1727973144267,-0.18847656,-0.10839844,0.99316406,0.0625,0.0,-0.1875
690,690,1727973144307,-0.18261719,-0.10253906,1.0019531,-0.0625,-0.09375,-0.1875
691,691,1727973144347,-0.18359375,-0.10644531,0.99902344,0.0,0.0,0.125
692,692,1727973144387,-0.17871094,-0.10839844,1.0068359,0.0625,0.03125,-0.0625
693,693,1727973144427,-0.18945312,-0.103515625,0.9941406,-0.0625,-0.09375,-0.0625
694,694,1727973144467,-0.19140625,-0.10058594,0.9980469,0.25,0.21875,0.0
695,695,1727973144507,-0.19140625,-0.11230469,1.0087891,-0.0625,0.03125,-0.09375
696,696,1727973144547,-0.17675781,-0.103515625,0.9892578,-0.1875,-0.03125,0.0
697,697,1727973144587,-0.18945312,-0.10546875,0.99609375,0.0,-0.03125,0.0
698,698,1727973144627,-0.18554688,-0.107421875,1.0009766,-0.125,0.03125,-0.0625
699,699,1727973144667,-0.18945312,-0.11035156,1.0058594,0.0,-0.21875,-0.0625
700,700,1727973144707,-0.18261719,-0.109375,0.9941406,0.0,0.09375,-0.0625
701,701,1727973144747,-0.17773438,-0.10644531,1.0,-0.125,-0.09375,0.125
702,702,1727973144787,-0.18945312,-0.1015625,1.0,0.125,0.03125,-0.0625
703,703,1727973144827,-0.18554688,-0.10253906,0.99121094,0.0625,0.03125,-0.0625
704,704,1727973144867,-0.18652344,-0.103515625,0.9970703,-0.1875,0.03125,0.0
705,705,1727973144907,-0.18945312,-0.11230469,0.9980469,0.0625,0.09375,0.0625
706,706,1727973144947,-0.18847656,-0.10253906,0.98339844,-0.0625,-0.21875,0.0625
707,707,1727973144987,-0.1875,-0.10644531,0.9951172,-0.0625,-0.09375,0.0
708,708,1727973145027,-0.17773438,-0.10058594,0.9980469,-0.0625,0.09375,-0.09375
709,709,1727973145067,-0.18554688,-0.10449219,1.0,0.125,-0.03125,-0.0625
710,710,1727973145107,-0.18164062,-0.11035156,0.99609375,0.0,0.09375,0.0625
711,711,1727973145147,-0.18066406,-0.11230469,0.98535156,-0.0625,-0.09375,-0.0625
712,712,1727973145187,-0.19433594,-0.10449219,1.0068359,-0.0625,-0.09375,0.0625
713,713,1727973145227,-0.18554688,-0.1015625,0.9941406,-0.1875,0.03125,-0.09375
714,714,1727973145267,-0.18164062,-0.10644531,0.99609375,-0.0625,-0.09375,0.0625
715,715,1727973145307,-0.18457031,-0.10449219,1.0087891,-0.125,-0.09375,-0.09375
716,716,1727973145347,-0.18457031,-0.107421875,1.0126953,-0.125,-0.15625,-0.09375
717,717,1727973145387,-0.18359375,-0.11230469,0.9941406,-0.125,-0.03125,-0.0625
718,718,1727973145427,-0.18066406,-0.10839844,0.9921875,0.0,0.03125,0.0
719,719,1727973145467,-0.1875,-0.119140625,1.0039062,-0.125,0.03125,0.0
720,720,1727973145507,-0.18554688,-0.11328125,1.0087891,-0.0625,-0.03125,0.125
721,721,1727973145547,-0.18164062,-0.10058594,1.0019531,-0.0625,-0.09375,-0.09375
722,722,1727973145587,-0.19140625,-0.10644531,1.0068359,0.0,0.03125,-0.0625
723,723,1727973145627,-0.19335938,-0.109375,0.9941406,-0.0625,-0.09375,0.0
724,724,1727973145667,-0.18261719,-0.10253906,1.0,-0.125,-0.15625,0.0
725,725,1727973145707,-0.1875,-0.10253906,1.0019531,0.125,0.03125,-0.0625
726,726,1727973145747,-0.19238281,-0.103515625,1.0087891,-0.125,0.03125,0.0
727,727,1727973145787,-0.18945312,-0.103515625,0.99121094,-0.25,-0.21875,-0.09375
728,728,1727973145827,-0.18457031,-0.111328125,1.0009766,-0.0625,-0.09375,-0.0625
729,729,1727973145867,-0.18261719,-0.11230469,1.0,-0.1875,-0.09375,0.0
730,730,1727973145907,-0.19335938,-0.11425781,1.0009766,-0.125,-0.03125,-0.0625
731,731,1727973145947,-0.19238281,-0.10058594,0.9873047,-0.0625,0.15625,-0.09375
732,732,1727973145987,-0.18164062,-0.10644531,1.0068359,-0.0625,-0.03125,0.1875
733,733,1727973146027,-0.18457031,-0.10839844,0.99902344,0.0,-0.03125,-0.09375
734,734,1727973146067,-0.17675781,-0.10058594,0.99316406,-0.125,0.03125,0.0
735,735,1727973146107,-0.19042969,-0.09472656,1.0117188,0.0,-0.03125,0.0625
736,736,1727973146147,-0.18652344,-0.10644531,0.99902344,-0.125,-0.09375,-0.0625
737,737,1727973146187,-0.19042969,-0.109375,1.0,0.0,-0.09375,0.0625
738,738,1727973146227,-0.18164062,-0.103515625,1.0117188,0.0,0.03125,0.0
739,739,1727973146267,-0.18945312,-0.115234375,1.0058594,-0.3125,-0.09375,0.0
740,740,1727973146307,-0.1875,-0.1015625,0.98828125,-0.0625,-0.15625,0.0625
741,741,1727973146347,-0.18652344,-0.10644531,0.99902344,-0.0625,-0.09375,0.0
742,742,1727973146387,-0.19042969,-0.10839844,1.0039062,-0.0625,0.09375,0.125
743,743,1727973146427,-0.18945312,-0.10253906,1.0019531,0.0,-0.09375,-0.0625
744,744,1727973146467,-0.19140625,-0.10449219,1.0058594,0.0625,-0.03125,0.0625
745,745,1727973146507,-0.19238281,-0.1015625,1.0019531,-0.25,-0.03125,-0.0625
746,746,1727973146547,-0.18164062,-0.10546875,1.0029297,0.0625,0.03125,-0.0625
747,747,1727973146587,-0.18652344,-0.10253906,0.99609375,0.0625,-0.03125,-0.15625
748,748,1727973146627,-0.18164062,-0.09765625,1.0078125,0.125,0.03125,0.0625
749,749,1727973146667,-0.17773438,-0.10449219,1.0009766,-0.25,-0.03125,0.0
750,750,1727973146707,-0.18457031,-0.10449219,0.9951172,-0.0625,-0.09375,-0.0625
751,751,1727973146747,-0.18164062,-0.107421875,1.0058594,-0.1875,-0.03125,0.0
752,752,1727973146787,-0.18261719,-0.109375,1.0058594,-0.125,-0.09375,-0.09375
753,753,1727973146827,-0.1875,-0.10253906,1.0009766,-0.0625,-0.09375,-0.0625
754,754,1727973146867,-0.18359375,-0.10839844,1.0029297,0.125,0.09375,0.0625
755,755,1727973146907,-0.18554688,-0.1015625,1.0029297,0.0625,0.03125,0.0
756,756,1727973146947,-0.19433594,-0.1015625,0.9921875,0.0,0.03125,-0.0625
757,757,1727973146987,-0.1875,-0.109375,1.0117188,-0.0625,0.09375,0.0625
758,758,1727973147027,-0.18652344,-0.107421875,1.0009766,-0.0625,-0.15625,0.125
759,759,1727973147067,-0.1875,-0.10839844,0.9980469,-0.0625,-0.03125,-0.0625
