,Unnamed: 0,timestamp,accel_x,accel_y,accel_z,gyro_x,gyro_y,gyro_z
0,0,1727993212418,-1.0107422,-0.08203125,-0.18652344,-3.03125,-0.59375,-0.15625
1,1,1727993212458,-0.98046875,-0.059570312,-0.17675781,-1.8125,-0.125,0.53125
2,2,1727993212498,-0.9970703,-0.07324219,-0.19628906,-0.59375,-0.78125,0.34375
3,3,1727993212538,-1.0097656,-0.08496094,-0.203125,-0.09375,0.625,0.65625
4,4,1727993212578,-0.984375,-0.06640625,-0.18261719,-0.09375,0.375,0.53125
5,5,1727993212618,-0.9921875,-0.061523438,-0.20214844,-1.9375,0.0625,2.1875
6,6,1727993212658,-1.0097656,-0.0546875,-0.22460938,-7.90625,0.0625,2.34375
7,7,1727993212698,-1.0058594,-0.06933594,-0.20703125,-12.78125,-2.0625,2.21875
8,8,1727993212738,-0.98339844,-0.123046875,-0.15234375,-10.28125,-2.75,2.59375
9,9,1727993212778,-1.0039062,-0.123046875,-0.20019531,-10.84375,-2.96875,2.34375
10,10,1727993212818,-1.0,-0.13769531,-0.16210938,2.65625,-1.34375,3.6875
11,11,1727993212858,-1.0117188,-0.14257812,-0.1484375,7.96875,-2.875,3.15625
12,12,1727993212898,-1.0488281,-0.10644531,-0.12011719,5.625,1.96875,0.9375
13,13,1727993212938,-1.0146484,-0.15039062,-0.043945312,16.9375,-4.25,1.9375
14,14,1727993212978,-1.0449219,-0.16894531,-0.021484375,11.875,-18.59375,-3.5625
15,15,1727993213018,-1.0126953,-0.28515625,0.21679688,22.78125,-33.375,-11.6875
16,16,1727993213058,-1.0117188,-0.20703125,0.08984375,2.21875,-92.46875,-14.6875
17,17,1727993213098,-1.3173828,-0.095703125,0.072265625,22.65625,-108.4375,-21.03125
18,18,1727993213138,-1.1689453,0.06640625,-0.11816406,172.375,-94.53125,-18.46875
19,19,1727993213178,-1.0654297,0.018554688,-0.0078125,46.96875,-94.09375,-23.875
20,20,1727993213218,-0.9238281,-0.13769531,0.11328125,-24.625,-63.65625,-24.8125
21,21,1727993213258,-0.7792969,-0.1875,0.036132812,18.53125,-30.375,-14.84375
22,22,1727993213298,-0.6953125,-0.115234375,0.0859375,24.5625,-5.90625,-11.875
23,23,1727993213338,-0.7558594,-0.078125,0.15527344,39.9375,8.4375,-4.1875
24,24,1727993213378,-0.8642578,-0.06933594,0.27539062,32.375,26.5625,1.5
25,25,1727993213418,-0.9423828,-0.08105469,0.4033203,30.0,28.4375,5.65625
26,26,1727993213458,-0.8300781,-0.036132812,0.29296875,11.3125,24.0625,3.15625
27,27,1727993213498,-1.0585938,-0.20117188,0.54003906,14.4375,22.65625,13.46875
28,28,1727993213538,-1.0380859,-0.22167969,0.44433594,1.1875,-3.53125,-4.84375
29,29,1727993213578,-0.86816406,-0.25683594,0.39648438,26.21875,-2.3125,-13.5
30,30,1727993213618,-0.7636719,-0.28222656,0.21484375,9.25,2.875,-19.1875
31,31,1727993213658,-1.1005859,0.49414062,-0.18066406,-47.53125,29.96875,6.375
32,32,1727993213698,-1.5,0.08984375,0.9355469,57.15625,36.1875,32.75
33,33,1727993213738,-0.8720703,0.24511719,-0.22460938,-84.375,-1.09375,-19.375
34,34,1727993213778,-0.7421875,0.43164062,-0.40722656,-80.65625,18.4375,11.6875
35,35,1727993213818,-1.1035156,-0.055664062,-0.28710938,-100.125,91.5,39.21875
36,36,1727993213858,-1.2138672,-0.3486328,-0.28710938,-49.90625,104.875,19.75
37,37,1727993213898,-0.8886719,-0.52441406,0.02734375,-73.28125,65.3125,12.1875
38,38,1727993213938,-1.0830078,-0.1640625,-0.18652344,-50.75,55.3125,-13.625
39,39,1727993213978,-1.0917969,-0.12109375,-0.033203125,-35.25,62.875,-19.6875
40,40,1727993214018,-0.98535156,-0.22949219,-0.103515625,-23.96875,-13.25,-13.5625
41,41,1727993214058,-0.8496094,-0.25683594,-0.21679688,-20.25,-2.125,-20.90625
42,42,1727993214098,-0.95996094,-0.0048828125,-0.36132812,-127.96875,-26.71875,-25.40625
43,43,1727993214138,-0.9892578,0.22460938,-0.4404297,-174.21875,-4.09375,-14.4375
44,44,1727993214178,-0.91308594,0.08886719,-0.27929688,-108.5625,44.3125,13.34375
45,45,1727993214218,-0.875,-0.15136719,-0.083984375,-61.8125,29.1875,34.59375
46,46,1727993214258,-1.0673828,-0.3857422,-0.09082031,29.875,29.6875,37.4375
47,47,1727993214298,-1.0332031,-0.2890625,-0.14648438,44.875,25.53125,30.5625
48,48,1727993214338,-1.0166016,-0.28710938,-0.18652344,-51.0625,-6.78125,17.125
49,49,1727993214378,-1.0048828,-0.24511719,-0.111328125,2.59375,14.59375,6.8125
50,50,1727993214418,-0.9892578,-0.14355469,0.033203125,-15.125,11.78125,4.90625
51,51,1727993214458,-1.21875,-0.42285156,0.036132812,49.15625,-43.09375,23.46875
52,52,1727993214498,-1.2451172,-0.6894531,0.064453125,55.0625,-109.125,-2.34375
53,53,1727993214538,-1.3232422,-0.17675781,0.041992188,192.28125,-91.53125,-31.15625
54,54,1727993214578,-1.4140625,-0.15625,-0.45507812,207.65625,-122.3125,-11.625
55,55,1727993214618,-1.1992188,-0.01171875,-0.36132812,-18.65625,-144.40625,-38.34375
56,56,1727993214658,-1.1533203,-0.14257812,-0.12988281,-103.625,-92.8125,-48.4375
57,57,1727993214698,-1.0195312,-0.35839844,-0.24609375,22.0625,-74.9375,-67.59375
58,58,1727993214738,-0.9140625,-0.036132812,-0.19140625,205.65625,-107.28125,-54.90625
59,59,1727993214778,-0.78125,0.17871094,-0.19335938,121.90625,-51.5,-46.53125
60,60,1727993214818,-0.7246094,0.2109375,-0.1875,60.09375,-8.90625,-41.34375
61,61,1727993214858,-0.6972656,0.16601562,-0.119140625,45.0,33.53125,-22.5625
62,62,1727993214898,-0.6748047,0.30566406,0.0048828125,24.875,58.53125,-4.125
63,63,1727993214938,-0.8066406,0.09082031,0.07128906,-3.9375,76.59375,24.8125
64,64,1727993214978,-1.2167969,-0.48828125,0.70703125,-56.625,78.375,10.15625
65,65,1727993215018,-1.1728516,-0.62402344,0.44433594,87.125,22.03125,-7.21875
66,66,1727993215058,-0.9345703,-0.39453125,0.4404297,-17.8125,15.34375,-23.65625
67,67,1727993215098,-0.9277344,-0.052734375,0.18945312,-0.21875,26.4375,-13.21875
68,68,1727993215138,-1.1425781,0.11230469,-0.056640625,-35.5625,30.71875,17.25
69,69,1727993215178,-1.2148438,0.06933594,0.43847656,-48.0,5.6875,31.28125
70,70,1727993215218,-0.9082031,0.13378906,-0.42871094,-126.75,9.15625,4.3125
71,71,1727993215258,-0.85839844,0.2109375,-0.36523438,-174.40625,34.1875,14.625
72,72,1727993215298,-1.0976562,0.0009765625,-0.33984375,-125.53125,29.125,35.3125
73,73,1727993215338,-1.0712891,-0.30859375,-0.51464844,18.09375,39.0,25.84375
74,74,1727993215378,-1.0097656,-0.37402344,-0.18457031,141.625,106.21875,12.78125
75,75,1727993215418,-1.0917969,-0.2265625,0.09375,-64.84375,73.96875,-16.8125
76,76,1727993215458,-0.89453125,-0.26367188,-0.16796875,-59.90625,-2.125,-17.46875
77,77,1727993215498,-0.92871094,-0.1796875,-0.21972656,-102.46875,-7.0625,-27.25
78,78,1727993215538,-0.99902344,-0.029296875,-0.2919922,-191.03125,-5.65625,-15.21875
79,79,1727993215578,-0.9199219,0.005859375,-0.2939453,-133.53125,30.90625,7.65625
80,80,1727993215618,-0.9658203,-0.0546875,-0.20996094,-34.09375,34.5,37.4375
81,81,1727993215658,-1.0322266,-0.27441406,-0.1796875,61.65625,41.9375,44.90625
82,82,1727993215698,-0.9980469,-0.32421875,-0.064453125,68.6875,64.71875,41.46875
83,83,1727993215738,-0.9199219,-0.2734375,-0.049804688,-31.71875,7.28125,5.53125
84,84,1727993215778,-1.0771484,-0.06933594,-0.25195312,-86.9375,-15.25,-11.5625
85,85,1727993215818,-1.0371094,-0.06347656,-0.0029296875,25.46875,28.4375,15.125
86,86,1727993215858,-0.9980469,-0.4345703,0.18261719,-10.78125,-41.875,30.0625
87,87,1727993215898,-1.2412109,-0.7167969,0.19921875,43.59375,-76.59375,18.46875
88,88,1727993215938,-1.3808594,-0.55566406,-0.0703125,176.78125,-132.1875,-4.1875
89,89,1727993215978,-1.328125,-0.46777344,-0.45703125,246.71875,-135.625,-12.46875
90,90,1727993216018,-1.2617188,-0.17382812,-0.44921875,54.78125,-170.59375,-55.25
91,91,1727993216058,-1.5419922,0.15722656,-0.38964844,-53.25,-106.1875,-56.0625
92,92,1727993216098,-1.0878906,-0.171875,0.04296875,18.28125,-65.65625,-89.375
93,93,1727993216138,-0.8408203,-0.22460938,-0.35742188,219.125,-114.8125,-49.65625
94,94,1727993216178,-0.57910156,0.078125,-0.31835938,146.25,-58.21875,-44.46875
95,95,1727993216218,-0.609375,0.35058594,-0.26367188,64.84375,-18.25,-34.21875
96,96,1727993216258,-0.59472656,0.23632812,-0.31835938,50.0,31.25,-7.96875
97,97,1727993216298,-0.58496094,0.36816406,-0.05078125,19.90625,69.84375,12.0
98,98,1727993216338,-0.9160156,0.0625,0.20117188,9.90625,91.1875,43.625
99,99,1727993216378,-1.8447266,-0.703125,1.5859375,-128.46875,50.4375,-20.78125
100,100,1727993216418,-0.9580078,-0.63964844,0.41796875,3.875,55.0,-1.78125
101,101,1727993216458,-0.875,-0.21386719,-0.06738281,-3.8125,15.21875,-39.09375
102,102,1727993216498,-1.2392578,0.45507812,0.049804688,-108.1875,-19.65625,3.625
103,103,1727993216538,-1.3173828,-0.078125,0.7216797,94.6875,79.40625,62.28125
104,104,1727993216578,-1.0488281,-0.032226562,-0.5625,-168.125,28.09375,19.5625
105,105,1727993216618,-0.8095703,0.053710938,-0.4345703,-207.0625,51.28125,16.09375
106,106,1727993216658,-1.2255859,-0.15039062,-0.48535156,-90.6875,60.4375,28.96875
107,107,1727993216698,-1.0527344,-0.40039062,-0.3232422,85.40625,70.9375,29.15625
108,108,1727993216738,-0.9902344,-0.2705078,0.18066406,18.75,134.15625,0.46875
109,109,1727993216778,-0.8876953,-0.2890625,-0.16992188,-64.25,-10.6875,-25.34375
110,110,1727993216818,-0.8671875,-0.10058594,-0.23046875,-172.9375,10.875,-34.28125
111,111,1727993216858,-1.0107422,0.016601562,-0.28125,-189.4375,8.90625,-7.53125
112,112,1727993216898,-0.921875,-0.0625,-0.2890625,-47.15625,35.65625,19.25
113,113,1727993216938,-0.8544922,-0.10546875,-0.16113281,22.71875,48.09375,39.46875
114,114,1727993216978,-0.9472656,-0.16015625,-0.12988281,14.0,40.65625,46.78125
115,115,1727993217018,-1.1044922,-0.18457031,-0.19628906,-4.0625,28.75,39.59375
116,116,1727993217058,-1.0371094,-0.34179688,-0.19140625,9.1875,39.375,30.96875
117,117,1727993217098,-1.0224609,-0.3466797,-0.08105469,-19.21875,9.46875,14.9375
118,118,1727993217138,-1.2988281,-0.453125,-0.040039062,-5.09375,-34.65625,-1.0
119,119,1727993217178,-1.3339844,-0.4501953,0.024414062,20.34375,-106.75,-16.0625
120,120,1727993217218,-1.2558594,-0.15039062,0.26171875,78.9375,-135.0625,-27.375
121,121,1727993217258,-1.3115234,-0.20605469,-0.40234375,119.46875,-150.875,-39.8125
122,122,1727993217298,-1.3193359,-0.083984375,-0.20996094,157.5625,-86.21875,-40.1875
123,123,1727993217338,-1.2324219,-0.01171875,-0.23730469,4.21875,-135.0625,-40.5
124,124,1727993217378,-1.0244141,-0.16210938,-0.24511719,-101.125,-103.03125,-54.46875
125,125,1727993217418,-0.9736328,-0.14355469,-0.21484375,179.09375,-83.4375,-69.25
126,126,1727993217458,-0.7001953,-0.08496094,-0.25585938,175.875,-63.15625,-60.15625
127,127,1727993217498,-0.5722656,0.265625,-0.24121094,76.75,-43.75,-40.96875
128,128,1727993217538,-0.6064453,0.1875,-0.19238281,46.53125,19.0625,-15.90625
129,129,1727993217578,-0.5830078,0.2998047,-0.05859375,0.21875,56.78125,-7.53125
130,130,1727993217618,-0.8935547,0.16699219,0.041992188,30.71875,82.65625,18.34375
131,131,1727993217658,-1.4013672,-0.51660156,1.1376953,18.28125,80.15625,7.1875
132,132,1727993217698,-1.0380859,-0.6582031,0.5996094,28.59375,7.21875,-15.90625
133,133,1727993217738,-0.9873047,-0.21386719,0.27441406,33.59375,5.0625,-16.6875
134,134,1727993217778,-1.0234375,0.14453125,0.12402344,24.5,22.84375,-7.90625
135,135,1727993217818,-1.2460938,0.26953125,0.09375,-61.8125,39.4375,15.46875
136,136,1727993217858,-1.2646484,-0.2578125,0.421875,-74.0625,38.9375,22.375
137,137,1727993217898,-0.7685547,0.22265625,-0.38867188,-151.59375,15.75,-9.65625
138,138,1727993217938,-0.7451172,0.2626953,-0.38867188,-160.1875,42.3125,16.9375
139,139,1727993217978,-1.2021484,-0.013671875,-0.35742188,-141.09375,60.125,55.34375
140,140,1727993218018,-1.2099609,-0.4482422,-0.44335938,7.84375,37.375,38.71875
141,141,1727993218058,-1.0595703,-0.46484375,0.083984375,-12.1875,78.1875,10.59375
142,142,1727993218098,-0.9580078,-0.20800781,-0.19238281,-18.09375,36.4375,-21.8125
143,143,1727993218138,-0.9091797,-0.19042969,-0.16210938,-97.4375,13.3125,-24.75
144,144,1727993218178,-0.90722656,0.0009765625,-0.24902344,-181.0625,6.25,-26.875
145,145,1727993218218,-0.95410156,-0.009765625,-0.21386719,-169.96875,19.28125,4.6875
146,146,1727993218258,-0.8779297,-0.041015625,-0.19628906,-73.46875,22.90625,34.15625
147,147,1727993218298,-0.91796875,-0.17089844,-0.18164062,35.84375,43.15625,55.53125
148,148,1727993218338,-1.0576172,-0.2607422,-0.18261719,75.78125,48.84375,53.9375
149,149,1727993218378,-1.0761719,-0.2734375,-0.20703125,32.8125,39.625,42.40625
150,150,1727993218418,-1.0058594,-0.27441406,-0.03515625,-3.53125,60.9375,14.4375
151,151,1727993218458,-1.0644531,-0.2626953,-0.0087890625,-50.03125,-25.625,3.40625
152,152,1727993218498,-1.1601562,-0.38183594,0.060546875,-2.1875,-33.5625,11.625
153,153,1727993218538,-1.2695312,-0.5439453,0.24804688,-3.21875,-123.96875,-6.4375
154,154,1727993218578,-1.3964844,-0.4951172,-0.12402344,104.46875,-161.78125,-31.9375
155,155,1727993218618,-1.3701172,-0.28320312,-0.4189453,233.0,-113.6875,-37.8125
156,156,1727993218658,-1.2939453,-0.049804688,-0.35742188,88.09375,-140.0,-55.4375
157,157,1727993218698,-1.4179688,0.3203125,-0.27246094,-27.375,-92.875,-28.71875
158,158,1727993218738,-0.9003906,0.0068359375,0.0859375,-79.75,-70.4375,-72.59375
159,159,1727993218778,-0.8730469,-0.061523438,-0.4921875,169.09375,-69.375,-33.65625
160,160,1727993218818,-0.7705078,-0.36523438,-0.37695312,155.90625,-18.4375,-55.5
161,161,1727993218858,-0.6816406,0.111328125,-0.23730469,43.59375,-27.34375,-50.0625
162,162,1727993218898,-0.64453125,0.21484375,-0.17382812,80.78125,23.375,-23.15625
163,163,1727993218938,-0.68359375,0.2548828,-0.05859375,109.15625,45.71875,-7.84375
164,164,1727993218978,-0.8798828,0.24121094,0.068359375,31.09375,62.3125,2.71875
165,165,1727993219018,-1.1835938,-0.23242188,1.0039062,-49.53125,78.6875,-3.03125
166,166,1727993219058,-1.0839844,-0.7314453,0.52734375,73.25,35.84375,-16.5
167,167,1727993219098,-0.9707031,-0.46191406,0.3642578,-47.78125,27.78125,-25.125
168,168,1727993219138,-1.1552734,0.0078125,0.08691406,-20.1875,31.625,-11.75
169,169,1727993219178,-1.2705078,0.30371094,-0.08300781,-23.84375,-3.53125,31.21875
170,170,1727993219218,-1.2333984,-0.16015625,0.24023438,-63.5625,35.78125,27.6875
171,171,1727993219258,-1.0009766,0.19042969,-0.41796875,-161.0625,32.34375,-14.625
172,172,1727993219298,-0.7128906,0.29882812,-0.3203125,-159.21875,7.28125,6.4375
173,173,1727993219338,-1.1552734,-0.076171875,-0.46679688,-142.75,35.21875,45.4375
174,174,1727993219378,-1.1933594,-0.4140625,-0.53808594,78.4375,37.25,31.59375
175,175,1727993219418,-0.8964844,-0.5449219,0.0029296875,85.34375,136.53125,35.8125
176,176,1727993219458,-1.0126953,-0.2548828,-0.0390625,-36.90625,24.1875,-19.625
177,177,1727993219498,-0.90722656,-0.17871094,-0.107421875,-100.8125,18.125,-29.75
178,178,1727993219538,-0.9111328,-0.0029296875,-0.24609375,-212.5625,-15.375,-25.15625
179,179,1727993219578,-0.9375,0.034179688,-0.18164062,-185.40625,20.8125,-2.15625
180,180,1727993219618,-0.890625,0.048828125,-0.25585938,-89.28125,1.96875,39.78125
181,181,1727993219658,-0.9794922,-0.16015625,-0.18945312,41.71875,31.1875,60.65625
182,182,1727993219698,-1.0888672,-0.3173828,-0.18359375,64.125,32.84375,58.03125
183,183,1727993219738,-0.98339844,-0.4736328,-0.14355469,28.71875,58.46875,30.1875
184,184,1727993219778,-1.1132812,-0.30859375,0.0859375,-2.34375,38.53125,2.84375
185,185,1727993219818,-1.28125,-0.35351562,-0.15722656,-11.625,-45.15625,0.65625
186,186,1727993219858,-1.2539062,-0.49902344,0.19921875,46.28125,-75.0,-6.6875
187,187,1727993219898,-1.1757812,-0.28808594,0.328125,62.21875,-150.0,-31.03125
188,188,1727993219938,-1.1923828,-0.23339844,-0.38476562,147.0625,-143.25,-47.21875
189,189,1727993219978,-1.4140625,-0.095703125,-0.3251953,125.21875,-128.90625,-52.5
190,190,1727993220018,-1.375,0.029296875,-0.23730469,-1.9375,-120.0625,-76.1875
191,191,1727993220058,-1.0800781,-0.013671875,-0.20703125,-139.5625,-94.21875,-52.5625
192,192,1727993220098,-0.8925781,-0.39648438,-0.17578125,166.15625,-62.5625,-68.125
193,193,1727993220138,-0.65722656,0.02734375,-0.2919922,194.125,-67.9375,-53.6875
194,194,1727993220178,-0.4873047,0.26660156,-0.18457031,84.0,-25.0,-34.75
195,195,1727993220218,-0.53515625,0.22851562,-0.1875,62.9375,36.5625,-9.53125
196,196,1727993220258,-0.58691406,0.2919922,-0.07421875,22.90625,74.90625,12.125
197,197,1727993220298,-0.9892578,0.21972656,0.038085938,28.40625,78.6875,34.75
198,198,1727993220338,-1.5615234,-0.609375,1.1748047,-57.71875,106.625,5.65625
199,199,1727993220378,-0.9453125,-0.7480469,0.49023438,-7.375,11.0625,1.6875
200,200,1727993220418,-0.9404297,-0.29101562,0.28125,40.3125,14.96875,-16.25
201,201,1727993220458,-1.2333984,0.19042969,-0.11425781,-16.8125,3.0625,-5.53125
202,202,1727993220498,-1.4726562,0.21191406,0.3408203,-83.96875,41.34375,10.53125
203,203,1727993220538,-1.1630859,-0.13964844,-0.3798828,-56.4375,-13.71875,10.03125
204,204,1727993220578,-0.75683594,0.42871094,-0.43945312,-129.875,35.09375,-17.78125
205,205,1727993220618,-0.91308594,0.11425781,-0.5058594,-132.4375,23.75,43.625
206,206,1727993220658,-1.3300781,-0.26464844,-0.44140625,-67.3125,53.15625,36.09375
207,207,1727993220698,-1.0166016,-0.50683594,-0.1640625,39.5625,90.28125,25.25
208,208,1727993220738,-0.99609375,-0.29882812,-0.072265625,-22.3125,58.78125,-7.28125
209,209,1727993220778,-0.8730469,-0.23242188,-0.123046875,-75.53125,11.71875,-17.90625
210,210,1727993220818,-0.86816406,-0.08300781,-0.17871094,-192.375,15.625,-23.875
211,211,1727993220858,-1.0,-0.047851562,-0.21386719,-172.71875,5.3125,1.5
212,212,1727993220898,-0.8828125,-0.109375,-0.20019531,-35.9375,33.46875,25.71875
213,213,1727993220938,-0.8730469,-0.18554688,-0.15039062,10.59375,45.34375,41.71875
214,214,1727993220978,-0.9658203,-0.17578125,-0.1640625,18.875,31.0625,48.0625
215,215,1727993221018,-1.0683594,-0.23730469,-0.2607422,14.90625,14.84375,42.40625
216,216,1727993221058,-1.0097656,-0.28125,-0.31152344,2.46875,31.1875,25.78125
217,217,1727993221098,-1.0585938,-0.23730469,0.13476562,-15.0,66.71875,6.4375
218,218,1727993221138,-1.2255859,-0.42285156,-0.06347656,-37.6875,-58.46875,7.40625
219,219,1727993221178,-1.2421875,-0.5732422,0.25683594,18.28125,-73.1875,-9.0625
220,220,1727993221218,-1.2792969,-0.26953125,0.09082031,63.3125,-154.65625,-27.78125
221,221,1727993221258,-1.2949219,-0.23535156,-0.4453125,217.4375,-111.5625,-35.0
222,222,1727993221298,-1.3193359,-0.17871094,-0.27539062,101.53125,-131.53125,-49.09375
223,223,1727993221338,-1.3212891,0.0029296875,-0.31640625,42.8125,-123.71875,-76.5
224,224,1727993221378,-1.1552734,0.10839844,-0.103515625,-111.90625,-54.3125,-46.65625
225,225,1727993221418,-0.9199219,-0.13378906,-0.33007812,76.875,-63.65625,-75.28125
226,226,1727993221458,-0.7548828,-0.23535156,-0.3388672,191.78125,-59.1875,-51.96875
227,227,1727993221498,-0.68066406,0.17871094,-0.1953125,83.21875,-22.4375,-35.90625
228,228,1727993221538,-0.61328125,0.26757812,-0.19140625,83.6875,13.625,-18.03125
229,229,1727993221578,-0.5957031,0.2890625,-0.07421875,54.65625,47.125,-2.65625
230,230,1727993221618,-0.8828125,0.1640625,-0.0068359375,44.15625,61.09375,20.71875
231,231,1727993221658,-1.25,-0.38085938,0.8017578,-17.625,88.5625,3.9375
232,232,1727993221698,-0.97265625,-0.7089844,0.67871094,8.8125,20.6875,-0.40625
233,233,1727993221738,-1.1113281,-0.38964844,0.3203125,10.9375,11.0625,-15.90625
234,234,1727993221778,-0.8154297,0.021484375,0.38085938,24.4375,15.375,-15.34375
235,235,1727993221818,-1.1230469,0.16210938,-0.044921875,-65.78125,30.15625,18.84375
236,236,1727993221858,-1.2275391,0.32128906,0.115234375,-83.0,29.6875,36.53125
237,237,1727993221898,-1.0927734,-0.27929688,-0.2841797,-104.78125,28.5625,16.28125
238,238,1727993221938,-0.85253906,0.1875,-0.3955078,-171.59375,25.09375,-10.59375
239,239,1727993221978,-0.95996094,-0.022460938,-0.3232422,-150.71875,34.125,25.65625
240,240,1727993222018,-1.1728516,-0.28710938,-0.45507812,20.65625,42.4375,29.15625
241,241,1727993222058,-1.0166016,-0.36328125,-0.06738281,29.1875,116.71875,10.09375
242,242,1727993222098,-0.9326172,-0.26367188,-0.12695312,-33.71875,36.25,-6.25
243,243,1727993222138,-0.7685547,-0.17871094,-0.123046875,-77.5,22.53125,-20.96875
244,244,1727993222178,-0.91015625,-0.072265625,-0.25878906,-215.125,-1.34375,-7.71875
245,245,1727993222218,-0.984375,-0.025390625,-0.265625,-132.125,20.09375,14.0
246,246,1727993222258,-0.8779297,-0.11425781,-0.2626953,-33.4375,29.6875,37.15625
247,247,1727993222298,-0.9267578,-0.17480469,-0.203125,14.0625,35.96875,53.3125
248,248,1727993222338,-1.0634766,-0.33789062,-0.15429688,64.28125,50.96875,48.9375
249,249,1727993222378,-1.0566406,-0.28710938,-0.17773438,77.0,60.0,36.15625
250,250,1727993222418,-1.0439453,-0.20214844,-0.076171875,-32.5,24.78125,10.03125
251,251,1727993222458,-1.0703125,-0.2578125,-0.21484375,-49.78125,-25.125,10.65625
252,252,1727993222498,-1.2900391,-0.35351562,0.10058594,19.25,-18.84375,17.0
253,253,1727993222538,-1.28125,-0.62402344,0.12988281,0.28125,-121.75,-8.9375
254,254,1727993222578,-1.3164062,-0.17871094,0.12792969,76.625,-156.71875,-35.4375
255,255,1727993222618,-1.2255859,-0.16113281,-0.49902344,190.03125,-113.40625,-50.0625
256,256,1727993222658,-1.2695312,-0.025390625,-0.18945312,103.28125,-114.0,-49.90625
257,257,1727993222698,-1.3828125,0.15917969,-0.13671875,-54.40625,-115.78125,-52.03125
258,258,1727993222738,-1.0419922,-0.12109375,-0.30664062,-90.5,-107.90625,-72.90625
259,259,1727993222778,-0.83496094,-0.3466797,-0.37304688,172.5,-72.0625,-72.65625
260,260,1727993222818,-0.6904297,-0.11425781,-0.29492188,166.84375,-53.46875,-60.375
261,261,1727993222858,-0.5751953,0.18261719,-0.18847656,81.03125,-24.03125,-44.34375
262,262,1727993222898,-0.58496094,0.25683594,-0.203125,68.6875,36.625,-22.84375
263,263,1727993222938,-0.64160156,0.35742188,-0.032226562,46.84375,67.40625,1.25
264,264,1727993222978,-0.96972656,0.19433594,0.0146484375,35.46875,87.28125,25.84375
265,265,1727993223018,-1.4707031,-0.57714844,1.3359375,-17.96875,94.75,10.71875
266,266,1727993223058,-1.0039062,-0.765625,0.3515625,12.65625,16.90625,-12.40625
267,267,1727993223098,-0.9970703,-0.26953125,0.3388672,11.875,6.90625,-19.9375
268,268,1727993223138,-1.1279297,0.19140625,0.037109375,-5.53125,15.03125,-14.25
269,269,1727993223178,-1.2539062,0.38085938,-0.0625,-85.1875,27.90625,16.46875
270,270,1727993223218,-1.2841797,-0.3935547,0.24902344,-29.03125,54.28125,41.40625
271,271,1727993223258,-0.8613281,0.020507812,-0.43066406,-133.59375,27.65625,-13.6875
272,272,1727993223298,-0.7626953,0.171875,-0.37109375,-148.71875,24.78125,4.84375
273,273,1727993223338,-1.2607422,-0.032226562,-0.421875,-108.9375,56.59375,27.125
274,274,1727993223378,-1.0556641,-0.39746094,-0.2783203,39.09375,61.78125,19.625
275,275,1727993223418,-1.015625,-0.28222656,-0.055664062,-9.375,54.4375,-1.125
276,276,1727993223458,-0.8955078,-0.25390625,-0.23730469,-67.125,3.71875,-17.125
277,277,1727993223498,-0.9033203,-0.06542969,-0.22851562,-169.15625,21.375,-21.9375
278,278,1727993223538,-0.9238281,-0.057617188,-0.26660156,-183.5625,11.46875,2.65625
279,279,1727993223578,-0.8808594,-0.053710938,-0.22460938,-65.65625,33.8125,26.28125
280,280,1727993223618,-0.86621094,-0.18847656,-0.21679688,-16.15625,39.6875,50.5625
281,281,1727993223658,-1.0488281,-0.25878906,-0.18359375,35.0625,44.5,56.625
282,282,1727993223698,-1.1259766,-0.3486328,-0.21875,59.28125,38.21875,44.28125
283,283,1727993223738,-1.0410156,-0.3017578,0.029296875,52.40625,76.375,14.625
284,284,1727993223778,-1.1181641,-0.27441406,-0.13671875,-75.40625,-41.96875,-5.15625
285,285,1727993223818,-1.2792969,-0.38085938,-0.03125,7.59375,-23.375,4.0625
286,286,1727993223858,-1.2294922,-0.60839844,0.203125,3.3125,-130.0,-11.8125
287,287,1727993223898,-1.2880859,-0.25,0.25683594,105.5,-151.3125,-25.0625
288,288,1727993223938,-1.3789062,-0.18261719,-0.2890625,267.84375,-109.90625,-25.53125
289,289,1727993223978,-1.3798828,-0.0625,-0.31054688,88.15625,-134.8125,-43.40625
290,290,1727993224018,-1.3242188,0.057617188,-0.26171875,-75.71875,-135.375,-37.3125
291,291,1727993224058,-0.9394531,-0.43164062,-0.0390625,53.375,-3.28125,-65.34375
292,292,1727993224098,-0.9238281,0.0009765625,-0.16308594,210.65625,-111.4375,-55.8125
293,293,1727993224138,-0.5966797,0.21582031,-0.26757812,124.15625,-68.40625,-49.65625
294,294,1727993224178,-0.5566406,0.25390625,-0.23730469,54.34375,-11.21875,-29.1875
295,295,1727993224218,-0.60839844,0.13574219,-0.18164062,43.0,35.28125,2.125
296,296,1727993224258,-0.58691406,0.2685547,0.005859375,8.03125,62.3125,12.5625
297,297,1727993224298,-1.1533203,0.07128906,0.38476562,36.28125,89.3125,39.40625
298,298,1727993224338,-1.4736328,-0.83691406,1.28125,-21.53125,21.5,-28.28125
299,299,1727993224378,-0.88378906,-0.32226562,0.30371094,-2.78125,14.09375,-6.8125
300,300,1727993224418,-0.9970703,-0.09765625,0.34765625,26.75,33.6875,-16.0625
301,301,1727993224458,-1.2626953,-0.005859375,0.22949219,-92.5625,14.59375,11.8125
302,302,1727993224498,-0.9824219,0.31445312,-0.16015625,-79.3125,5.3125,18.90625
303,303,1727993224538,-0.84472656,0.0546875,-0.3388672,-99.90625,42.6875,15.90625
304,304,1727993224578,-1.0429688,0.07421875,-0.4248047,-209.8125,70.0625,33.375
305,305,1727993224618,-1.0742188,-0.14160156,-0.35253906,-131.09375,44.1875,40.6875
306,306,1727993224658,-1.0996094,-0.41601562,-0.34960938,-4.90625,42.0,22.25
307,307,1727993224698,-0.99316406,-0.3935547,-0.064453125,81.125,101.3125,11.09375
308,308,1727993224738,-0.91503906,-0.19628906,-0.08203125,-26.78125,37.1875,-19.125
309,309,1727993224778,-0.82128906,-0.16699219,-0.19726562,-126.5625,24.78125,-31.21875
310,310,1727993224818,-0.9003906,0.09375,-0.27246094,-213.21875,2.03125,-15.96875
311,311,1727993224858,-0.9160156,0.053710938,-0.22949219,-85.0,41.40625,17.5625
312,312,1727993224898,-0.8378906,-0.041015625,-0.24707031,-38.125,22.09375,48.4375
313,313,1727993224938,-0.9404297,-0.23046875,-0.17871094,13.34375,26.375,61.0
314,314,1727993224978,-1.2177734,-0.34375,-0.21582031,53.78125,49.8125,51.1875
315,315,1727993225018,-1.0605469,-0.41015625,-0.11621094,32.75,67.28125,31.84375
316,316,1727993225058,-1.0419922,-0.36816406,0.0126953125,-20.96875,-5.59375,3.46875
317,317,1727993225098,-1.2558594,-0.28710938,-0.059570312,-20.84375,-33.625,0.65625
318,318,1727993225138,-1.2363281,-0.52246094,0.2939453,22.53125,-93.0,-6.125
319,319,1727993225178,-1.1777344,-0.3017578,0.09277344,63.0,-162.03125,-27.96875
320,320,1727993225218,-1.2949219,-0.3046875,-0.359375,204.3125,-115.34375,-47.15625
321,321,1727993225258,-1.3183594,-0.14550781,-0.31933594,121.40625,-119.9375,-47.28125
322,322,1727993225298,-1.6181641,0.03515625,-0.23925781,-9.0625,-112.90625,-60.3125
323,323,1727993225338,-1.1132812,-0.1484375,-0.043945312,-143.09375,-65.71875,-78.75
324,324,1727993225378,-0.9580078,-0.22363281,-0.49414062,143.28125,-63.59375,-78.53125
325,325,1727993225418,-0.7324219,-0.040039062,-0.3330078,237.5,-61.40625,-51.40625
326,326,1727993225458,-0.4951172,0.31445312,-0.20117188,69.125,-28.1875,-38.0625
327,327,1727993225498,-0.52734375,0.31933594,-0.19628906,61.0625,24.375,-9.5
328,328,1727993225538,-0.59375,0.23046875,-0.13183594,55.625,50.0,14.4375
329,329,1727993225578,-0.8876953,0.1953125,-0.06542969,44.40625,79.90625,30.5625
330,330,1727993225618,-1.4384766,-0.34179688,1.1181641,12.71875,100.59375,10.96875
331,331,1727993225658,-1.0898438,-1.1318359,0.8125,-44.53125,0.1875,-33.78125
332,332,1727993225698,-0.9345703,-0.26367188,0.40039062,11.6875,9.78125,-20.59375
333,333,1727993225738,-1.0527344,0.22363281,-0.14941406,-14.0625,10.03125,-13.9375
334,334,1727993225778,-1.3115234,0.4111328,-0.091796875,-92.09375,25.875,23.90625
335,335,1727993225818,-1.2832031,-0.3173828,0.1171875,-78.15625,8.0,31.78125
336,336,1727993225858,-0.71777344,0.19726562,-0.46972656,-129.75,17.65625,-10.34375
337,337,1727993225898,-0.6826172,-0.016601562,-0.3935547,-108.4375,15.4375,17.4375
338,338,1727993225938,-1.3769531,-0.234375,-0.40527344,-64.4375,65.3125,32.25
339,339,1727993225978,-0.98046875,-0.6152344,0.0703125,-3.28125,86.3125,20.59375
340,340,1727993226018,-0.90234375,-0.19433594,-0.21191406,-10.0625,32.40625,-8.9375
341,341,1727993226058,-0.88378906,-0.10644531,-0.2841797,-73.59375,33.15625,-3.4375
342,342,1727993226098,-1.0419922,-0.02734375,-0.26660156,-128.40625,15.03125,-5.875
343,343,1727993226138,-0.92089844,-0.041992188,-0.27539062,-107.28125,34.1875,18.28125
344,344,1727993226178,-0.9082031,-0.080078125,-0.19628906,-65.96875,49.6875,34.15625
345,345,1727993226218,-0.9345703,-0.19726562,-0.06542969,-15.46875,51.875,52.46875
346,346,1727993226258,-1.0371094,-0.21484375,-0.10449219,64.53125,44.5,49.09375
347,347,1727993226298,-1.0947266,-0.31054688,-0.265625,22.0625,18.875,42.46875
348,348,1727993226338,-1.0429688,-0.41308594,-0.30371094,-31.34375,29.125,15.78125
349,349,1727993226378,-1.1044922,-0.14160156,0.16699219,-30.8125,28.375,5.90625
350,350,1727993226418,-1.2236328,-0.56640625,-0.0126953125,-8.09375,-67.125,8.40625
351,351,1727993226458,-1.2753906,-0.60253906,0.12402344,37.6875,-116.375,-26.75
352,352,1727993226498,-1.3017578,-0.28222656,-0.064453125,91.34375,-147.625,-48.78125
353,353,1727993226538,-1.2861328,-0.16992188,-0.57421875,217.75,-86.78125,-53.625
354,354,1727993226578,-1.3066406,0.038085938,-0.16308594,99.8125,-73.46875,-65.8125
355,355,1727993226618,-1.2998047,0.21679688,-0.047851562,-34.84375,-92.59375,-29.1875
356,356,1727993226658,-1.0058594,-0.028320312,-0.23730469,16.625,-108.5,-54.96875
357,357,1727993226698,-0.82128906,-0.26660156,-0.26464844,122.15625,-59.0625,-66.4375
358,358,1727993226738,-0.66308594,0.048828125,-0.24609375,124.0,-51.0625,-53.8125
359,359,1727993226778,-0.54003906,0.21484375,-0.20703125,73.6875,-16.65625,-20.96875
360,360,1727993226818,-0.5253906,0.18164062,-0.15136719,70.8125,28.5,0.15625
361,361,1727993226858,-0.6699219,0.25585938,-0.08984375,50.625,56.65625,17.0625
362,362,1727993226898,-1.0751953,-0.03515625,0.38476562,18.40625,95.71875,20.65625
363,363,1727993226938,-1.40625,-0.75390625,1.4033203,-12.78125,15.09375,2.46875
364,364,1727993226978,-1.0966797,-0.5439453,0.28320312,6.5,18.0,-20.21875
365,365,1727993227018,-0.7128906,0.013671875,0.19628906,40.1875,20.46875,-27.4375
366,366,1727993227058,-1.1503906,0.26757812,-0.099609375,-96.65625,34.5625,15.71875
367,367,1727993227098,-1.5283203,0.078125,0.5126953,-96.46875,66.0625,25.25
368,368,1727993227138,-0.9404297,-0.06347656,-0.5566406,-77.5625,1.03125,8.28125
369,369,1727993227178,-0.7128906,0.18457031,-0.44335938,-152.75,25.8125,11.21875
370,370,1727993227218,-1.0322266,0.021484375,-0.3310547,-156.15625,66.84375,34.34375
371,371,1727993227258,-1.2617188,-0.4033203,-0.57128906,30.34375,23.25,36.34375
372,372,1727993227298,-0.9003906,-0.38183594,-0.10839844,99.75,124.71875,17.75
373,373,1727993227338,-0.8251953,-0.25390625,-0.0078125,-17.8125,82.71875,-13.28125
374,374,1727993227378,-0.9042969,-0.19140625,-0.14453125,-171.4375,8.5,-33.84375
375,375,1727993227418,-0.96191406,-0.017578125,-0.28027344,-252.65625,3.3125,-17.0
376,376,1727993227458,-0.9638672,0.045898438,-0.20800781,-98.125,45.84375,8.03125
377,377,1727993227498,-0.875,-0.1171875,-0.17382812,2.28125,29.0625,35.5
378,378,1727993227538,-0.98535156,-0.16796875,-0.1953125,35.96875,18.625,41.78125
379,379,1727993227578,-1.0097656,-0.20605469,-0.32421875,42.5,39.0,37.03125
380,380,1727993227618,-1.0205078,-0.18652344,-0.33789062,-27.5,29.90625,31.53125
381,381,1727993227658,-1.1191406,-0.19628906,-0.11328125,-43.9375,55.375,6.625
382,382,1727993227698,-1.1777344,-0.21191406,0.08886719,-6.1875,-20.4375,25.25
383,383,1727993227738,-1.1474609,-0.6923828,-0.041992188,-9.8125,-44.71875,15.46875
384,384,1727993227778,-1.2246094,-0.49414062,0.19824219,5.875,-132.0625,-25.84375
385,385,1727993227818,-1.3603516,-0.2685547,-0.033203125,103.84375,-135.0625,-50.1875
386,386,1727993227858,-1.2138672,-0.29882812,-0.63378906,142.0625,-127.1875,-59.84375
387,387,1727993227898,-1.3740234,-0.14550781,-0.22070312,113.3125,-86.59375,-72.46875
388,388,1727993227938,-1.4970703,0.3203125,-0.049804688,29.9375,-73.1875,-63.125
389,389,1727993227978,-1.0458984,0.3017578,-0.12792969,-16.75,-128.90625,-56.125
390,390,1727993228018,-0.85253906,-0.33789062,-0.41503906,157.5,-66.28125,-56.65625
391,391,1727993228058,-0.6533203,-0.19824219,-0.21289062,118.96875,-82.21875,-71.1875
392,392,1727993228098,-0.53222656,0.34375,-0.20605469,49.78125,-47.0,-48.65625
393,393,1727993228138,-0.5732422,0.22265625,-0.24511719,77.15625,24.90625,0.9375
394,394,1727993228178,-0.4970703,0.28710938,-0.07324219,52.5,58.84375,26.65625
395,395,1727993228218,-0.88671875,0.044921875,0.24804688,27.125,77.875,47.09375
396,396,1727993228258,-1.9345703,-0.86328125,1.6230469,-42.53125,20.34375,-30.53125
397,397,1727993228298,-0.80859375,-0.58203125,0.35742188,-25.625,18.9375,-17.25
398,398,1727993228338,-0.7294922,-0.119140625,0.3564453,23.65625,22.21875,-33.84375
399,399,1727993228378,-0.98535156,0.15625,-0.32617188,-103.1875,13.6875,16.34375
400,400,1727993228418,-1.5898438,0.4736328,0.36816406,-107.65625,52.5625,25.71875
401,401,1727993228458,-1.0439453,-0.15234375,-0.39160156,-96.78125,18.6875,42.875
402,402,1727993228498,-0.83203125,0.23730469,-0.453125,-190.34375,32.78125,14.5
403,403,1727993228538,-0.9560547,-0.11816406,-0.4189453,-161.0,31.0,38.65625
404,404,1727993228578,-1.2734375,-0.44628906,-0.5488281,33.84375,31.5,30.25
405,405,1727993228618,-0.9082031,-0.48339844,-0.08203125,145.90625,111.40625,22.625
406,406,1727993228658,-0.9091797,-0.1875,0.09082031,-33.125,77.09375,-16.25
407,407,1727993228698,-0.7685547,-0.1484375,-0.17285156,-158.84375,9.65625,-39.34375
408,408,1727993228738,-0.97265625,0.07910156,-0.25878906,-249.84375,2.375,-26.875
409,409,1727993228778,-0.9160156,0.055664062,-0.234375,-132.25,37.0625,12.1875
410,410,1727993228818,-0.89453125,-0.0703125,-0.21679688,-4.1875,11.96875,41.34375
411,411,1727993228858,-0.9716797,-0.23632812,-0.24121094,43.1875,28.75,54.65625
412,412,1727993228898,-1.0800781,-0.34570312,-0.24609375,54.03125,50.3125,44.34375
413,413,1727993228938,-1.0527344,-0.25195312,-0.21582031,25.09375,51.59375,24.625
414,414,1727993228978,-0.9951172,-0.18945312,-0.10058594,-9.0625,39.5625,6.4375
415,415,1727993229018,-1.0507812,-0.17382812,-0.33007812,-60.09375,-20.9375,4.625
416,416,1727993229058,-1.0683594,-0.23046875,-0.09277344,14.3125,3.625,22.5
417,417,1727993229098,-1.2070312,-0.49023438,0.22070312,0.6875,-62.125,2.0
418,418,1727993229138,-1.2880859,-0.34277344,0.20214844,55.125,-118.09375,-11.5625
419,419,1727993229178,-1.2539062,-0.3798828,-0.11328125,115.1875,-168.21875,-20.78125
420,420,1727993229218,-1.3671875,-0.21191406,-0.26953125,191.4375,-112.46875,-34.09375
421,421,1727993229258,-1.3173828,-0.044921875,-0.3486328,101.78125,-122.65625,-60.6875
422,422,1727993229298,-1.2753906,0.052734375,-0.23925781,-12.125,-123.21875,-49.9375
423,423,1727993229338,-1.0605469,-0.4580078,-0.37109375,73.03125,-43.6875,-71.5625
424,424,1727993229378,-0.94140625,-0.15332031,-0.23730469,163.65625,-108.375,-65.34375
425,425,1727993229418,-0.60253906,0.18945312,-0.2607422,113.0,-51.625,-47.6875
426,426,1727993229458,-0.55078125,0.22070312,-0.24707031,81.03125,1.21875,-19.8125
427,427,1727993229498,-0.56640625,0.24121094,-0.14453125,12.84375,59.59375,-6.875
428,428,1727993229538,-0.72753906,0.29882812,-0.09667969,15.09375,78.0625,17.6875
429,429,1727993229578,-1.1933594,-0.087890625,0.3935547,15.78125,119.28125,25.78125
430,430,1727993229618,-1.5683594,-1.0488281,1.4052734,2.09375,-2.75,-23.21875
431,431,1727993229658,-1.046875,-0.43359375,0.36816406,-4.375,-1.03125,-28.40625
432,432,1727993229698,-0.62402344,-0.015625,0.32226562,58.125,14.59375,-28.71875
433,433,1727993229738,-1.0361328,0.23730469,-0.3310547,-79.09375,12.21875,17.5
434,434,1727993229778,-1.4013672,0.38183594,0.041015625,-91.90625,39.375,42.5625
435,435,1727993229818,-1.2685547,-0.421875,-0.16992188,-94.875,30.03125,22.875
436,436,1727993229858,-0.7451172,0.3955078,-0.43554688,-171.5,18.5625,-17.3125
437,437,1727993229898,-0.625,0.10449219,-0.37890625,-141.28125,28.34375,43.6875
438,438,1727993229938,-1.4189453,-0.35546875,-0.5732422,-4.75,58.0625,31.46875
439,439,1727993229978,-0.8574219,-0.5996094,0.068359375,120.875,100.71875,37.15625
440,440,1727993230018,-0.9082031,-0.2548828,0.0146484375,-10.71875,29.5,-13.9375
441,441,1727993230058,-0.8496094,-0.20605469,-0.20214844,-95.0,6.1875,-31.03125
442,442,1727993230098,-0.8574219,0.072265625,-0.31835938,-227.09375,-22.8125,-39.5625
443,443,1727993230138,-0.98828125,0.12988281,-0.28320312,-202.8125,23.15625,18.09375
444,444,1727993230178,-0.9042969,-0.05078125,-0.27539062,-25.0625,44.125,43.0
445,445,1727993230218,-0.98339844,-0.20996094,-0.15429688,39.5,44.5625,63.8125
446,446,1727993230258,-1.0429688,-0.3076172,-0.12011719,90.84375,70.5625,62.21875
447,447,1727993230298,-1.0849609,-0.3779297,-0.13378906,40.0,59.875,32.75
448,448,1727993230338,-1.0800781,-0.23242188,-0.060546875,1.1875,24.4375,6.25
449,449,1727993230378,-1.1005859,-0.2783203,-0.14746094,-41.78125,-22.8125,5.78125
450,450,1727993230418,-1.296875,-0.50878906,0.13671875,24.8125,-40.59375,5.65625
451,451,1727993230458,-1.2597656,-0.45996094,0.20019531,32.75,-131.15625,-23.53125
452,452,1727993230498,-1.3867188,-0.10839844,-0.08105469,88.65625,-169.90625,-37.9375
453,453,1727993230538,-1.3466797,-0.0126953125,-0.3310547,169.28125,-117.0,-33.65625
454,454,1727993230578,-1.1386719,-0.03515625,-0.18945312,85.15625,-109.96875,-50.5625
455,455,1727993230618,-1.2568359,0.053710938,-0.18652344,-36.0625,-102.21875,-47.5
456,456,1727993230658,-0.98828125,-0.26171875,-0.40820312,-24.6875,-66.46875,-59.90625
457,457,1727993230698,-0.9667969,-0.20605469,-0.07324219,161.875,-93.875,-64.96875
458,458,1727993230738,-0.6816406,0.20214844,-0.21386719,122.03125,-54.1875,-50.5
459,459,1727993230778,-0.5732422,0.25195312,-0.171875,81.8125,-9.09375,-28.21875
460,460,1727993230818,-0.6699219,0.21777344,-0.14648438,31.15625,52.5625,-20.90625
461,461,1727993230858,-0.72753906,0.31152344,0.017578125,-0.28125,63.84375,-0.9375
462,462,1727993230898,-0.9033203,0.21289062,0.07910156,7.03125,84.71875,26.09375
463,463,1727993230938,-1.4296875,-0.6777344,1.25,26.875,56.09375,18.15625
464,464,1727993230978,-1.0351562,-0.71972656,0.48242188,0.5625,9.96875,-8.875
465,465,1727993231018,-0.9238281,-0.22167969,0.4326172,18.875,2.4375,-17.65625
466,466,1727993231058,-1.0556641,0.2109375,-0.025390625,-5.21875,14.28125,-9.78125
467,467,1727993231098,-1.2841797,0.4658203,-0.11621094,-74.875,-6.03125,39.15625
468,468,1727993231138,-1.2958984,-0.52441406,0.19628906,-59.25,66.34375,44.15625
469,469,1727993231178,-0.85253906,0.0546875,-0.3564453,-173.3125,27.0,-20.28125
470,470,1727993231218,-0.74316406,0.16601562,-0.35742188,-173.0,29.375,-2.71875
471,471,1727993231258,-1.2392578,-0.07128906,-0.31933594,-180.03125,59.625,34.75
472,472,1727993231298,-1.1289062,-0.39257812,-0.4873047,36.40625,13.0,37.75
473,473,1727993231338,-0.9873047,-0.32910156,-0.20117188,122.03125,93.5625,19.875
474,474,1727993231378,-0.9169922,-0.2421875,-0.049804688,-45.15625,66.53125,-13.09375
475,475,1727993231418,-0.8769531,-0.17285156,-0.1328125,-140.3125,17.03125,-27.6875
476,476,1727993231458,-0.89941406,-0.026367188,-0.27441406,-199.375,-12.375,-17.78125
477,477,1727993231498,-0.86621094,0.083984375,-0.23535156,-93.1875,20.28125,7.46875
478,478,1727993231538,-0.9082031,-0.115234375,-0.24023438,-53.875,25.21875,33.1875
479,479,1727993231578,-1.0644531,-0.19042969,-0.16210938,18.34375,44.875,45.25
480,480,1727993231618,-1.0488281,-0.2578125,-0.16601562,49.40625,44.1875,40.0
481,481,1727993231658,-1.0419922,-0.32421875,-0.19335938,53.71875,38.71875,35.625
482,482,1727993231698,-0.9863281,-0.2578125,-0.25195312,-16.46875,20.53125,16.5625
483,483,1727993231738,-0.9921875,-0.099609375,-0.13183594,-8.59375,28.09375,11.75
484,484,1727993231778,-1.0380859,-0.23144531,-0.11328125,-7.65625,-29.46875,24.15625
485,485,1727993231818,-1.1943359,-0.390625,0.09472656,7.34375,-60.96875,9.875
486,486,1727993231858,-1.3271484,-0.33398438,0.11035156,40.3125,-123.28125,-10.78125
487,487,1727993231898,-1.2236328,-0.2529297,-0.2734375,89.0,-151.90625,-23.9375
488,488,1727993231938,-1.1972656,-0.20507812,-0.20410156,132.90625,-102.96875,-44.03125
489,489,1727993231978,-1.2480469,0.03125,-0.18847656,79.0,-107.40625,-55.25
490,490,1727993232018,-1.1855469,0.20996094,-0.095703125,-33.90625,-93.0,-47.21875
491,491,1727993232058,-0.9394531,-0.043945312,-0.20605469,32.3125,-92.28125,-39.5625
492,492,1727993232098,-0.93066406,-0.43554688,-0.17089844,114.90625,-42.15625,-48.3125
493,493,1727993232138,-0.83203125,-0.030273438,-0.15625,112.4375,-35.28125,-56.84375
494,494,1727993232178,-0.6357422,0.13867188,-0.1484375,70.28125,-9.875,-43.3125
495,495,1727993232218,-0.7216797,0.12988281,-0.026367188,85.84375,25.40625,-23.34375
496,496,1727993232258,-0.8261719,0.22363281,0.015625,74.0625,38.71875,-6.125
497,497,1727993232298,-0.7861328,0.13476562,0.125,18.875,56.03125,6.6875
498,498,1727993232338,-1.0556641,-0.26757812,0.63183594,-17.25,71.0,10.96875
499,499,1727993232378,-1.1699219,-0.5566406,0.4033203,64.21875,47.5625,-2.34375
500,500,1727993232418,-1.0595703,-0.28710938,0.43554688,-13.09375,7.03125,-13.6875
501,501,1727993232458,-0.7753906,-0.099609375,0.3486328,9.78125,40.46875,-14.3125
502,502,1727993232498,-1.0927734,0.15039062,-0.30859375,-65.46875,28.4375,11.9375
503,503,1727993232538,-1.3515625,0.33691406,0.13769531,-112.78125,69.84375,27.5
504,504,1727993232578,-1.1826172,-0.40820312,-0.21484375,-69.6875,-14.6875,32.5625
505,505,1727993232618,-0.82910156,0.18652344,-0.4716797,-141.6875,-6.9375,-15.09375
506,506,1727993232658,-0.79296875,0.0087890625,-0.32714844,-104.71875,2.28125,1.0
507,507,1727993232698,-1.1455078,-0.21386719,-0.41210938,-61.8125,33.46875,20.375
508,508,1727993232738,-1.0771484,-0.36621094,-0.27148438,74.53125,52.0,19.8125
509,509,1727993232778,-0.9814453,-0.27539062,-0.12792969,9.84375,72.875,-6.375
510,510,1727993232818,-0.9511719,-0.20214844,-0.15039062,-82.875,22.40625,-18.65625
511,511,1727993232858,-0.953125,-0.14160156,-0.18359375,-153.34375,18.5,-21.875
512,512,1727993232898,-0.94628906,0.021484375,-0.2919922,-133.34375,19.53125,-4.3125
513,513,1727993232938,-0.9326172,-0.095703125,-0.1640625,-52.78125,36.3125,20.40625
514,514,1727993232978,-0.93847656,-0.17480469,-0.11621094,-13.28125,32.65625,38.125
515,515,1727993233018,-1.0205078,-0.20410156,-0.14257812,12.40625,24.25,40.0625
516,516,1727993233058,-0.9970703,-0.29101562,-0.234375,31.40625,3.90625,33.1875
517,517,1727993233098,-0.95214844,-0.3154297,-0.30371094,18.5625,15.75,19.4375
518,518,1727993233138,-1.0517578,-0.20410156,-0.2705078,-58.03125,13.9375,2.34375
519,519,1727993233178,-1.0732422,-0.13574219,-0.08984375,11.5625,58.65625,12.65625
520,520,1727993233218,-1.1855469,-0.40625,-0.06738281,23.28125,-12.8125,24.15625
521,521,1727993233258,-1.21875,-0.35839844,0.009765625,24.9375,-60.78125,-2.96875
522,522,1727993233298,-1.1650391,-0.087890625,0.20800781,56.40625,-119.4375,-8.03125
523,523,1727993233338,-1.1357422,-0.099609375,-0.20019531,87.1875,-136.96875,-8.875
524,524,1727993233378,-1.1484375,-0.23925781,-0.2734375,79.3125,-113.5625,-27.78125
525,525,1727993233418,-1.1083984,-0.14648438,-0.24707031,50.3125,-113.40625,-47.3125
526,526,1727993233458,-1.3574219,0.026367188,-0.15820312,-12.3125,-88.375,-57.65625
527,527,1727993233498,-0.8955078,-0.15332031,-0.21777344,-31.59375,-59.1875,-56.90625
528,528,1727993233538,-1.0019531,-0.2705078,-0.064453125,90.65625,-77.4375,-68.09375
529,529,1727993233578,-0.7675781,0.05078125,-0.13574219,109.03125,-34.0,-45.0625
530,530,1727993233618,-0.65722656,0.23242188,-0.09277344,70.625,-0.46875,-32.0625
531,531,1727993233658,-0.6669922,0.18359375,-0.02734375,44.875,31.375,-6.0
532,532,1727993233698,-0.84277344,0.14257812,0.083984375,37.4375,29.78125,13.9375
533,533,1727993233738,-0.9013672,-0.01171875,0.1875,23.71875,46.875,19.1875
534,534,1727993233778,-1.0664062,-0.39453125,0.62597656,-39.28125,62.09375,7.0
535,535,1727993233818,-1.1455078,-0.43554688,0.41601562,-0.96875,32.84375,7.0625
536,536,1727993233858,-1.0166016,-0.29101562,0.375,14.84375,11.125,-6.625
537,537,1727993233898,-0.7216797,-0.16894531,0.22558594,4.65625,6.53125,-10.59375
538,538,1727993233938,-1.1162109,0.3046875,-0.25195312,-73.15625,21.5,10.96875
539,539,1727993233978,-1.3027344,0.32421875,0.35742188,-39.15625,89.0625,41.71875
540,540,1727993234018,-1.1962891,-0.49609375,-0.10449219,-74.5625,35.15625,25.375
541,541,1727993234058,-0.8564453,0.17480469,-0.40234375,-168.6875,15.9375,-20.34375
542,542,1727993234098,-0.8486328,0.0029296875,-0.2607422,-144.09375,11.78125,1.625
543,543,1727993234138,-1.1230469,-0.20117188,-0.34765625,-59.5625,15.4375,16.5625
544,544,1727993234178,-1.0341797,-0.265625,-0.2890625,84.5625,50.375,18.21875
545,545,1727993234218,-0.97753906,-0.27246094,-0.1171875,0.6875,52.75,5.46875
546,546,1727993234258,-0.96972656,-0.2607422,-0.16015625,-70.09375,11.0,-13.15625
547,547,1727993234298,-0.9316406,-0.11035156,-0.20214844,-149.75,15.8125,-24.5625
548,548,1727993234338,-1.0332031,-0.030273438,-0.23828125,-114.46875,23.09375,-2.46875
549,549,1727993234378,-0.9794922,-0.0703125,-0.23730469,-28.53125,58.84375,11.4375
550,550,1727993234418,-0.9042969,-0.12988281,-0.15332031,-35.3125,40.0625,24.9375
551,551,1727993234458,-0.95996094,-0.17675781,-0.14746094,44.75,29.90625,40.375
552,552,1727993234498,-1.0009766,-0.25976562,-0.21582031,5.28125,18.25,35.75
553,553,1727993234538,-0.9160156,-0.28710938,-0.31152344,-4.3125,21.625,20.3125
554,554,1727993234578,-1.0615234,-0.16210938,-0.21191406,-27.125,51.15625,1.25
555,555,1727993234618,-1.1386719,-0.13085938,-0.14355469,-33.4375,-6.71875,12.90625
556,556,1727993234658,-1.1230469,-0.390625,-0.265625,-4.375,-14.21875,24.75
557,557,1727993234698,-1.1474609,-0.6113281,-0.038085938,23.59375,-27.625,10.65625
558,558,1727993234738,-1.1826172,-0.3203125,0.111328125,36.46875,-65.59375,-15.71875
559,559,1727993234778,-1.2294922,0.060546875,0.31054688,63.25,-138.25,-19.0
560,560,1727993234818,-1.1923828,-0.1328125,-0.23339844,93.21875,-152.875,-17.71875
561,561,1727993234858,-1.1904297,-0.18359375,-0.25390625,102.625,-114.25,-24.0625
562,562,1727993234898,-1.1298828,-0.1953125,-0.2529297,40.625,-110.21875,-44.21875
563,563,1727993234938,-1.2480469,-0.12597656,-0.35253906,-44.09375,-92.40625,-56.78125
564,564,1727993234978,-0.9267578,-0.59472656,-0.051757812,77.78125,-16.09375,-70.03125
565,565,1727993235018,-0.8935547,-0.017578125,-0.13378906,180.75,-89.28125,-66.5625
566,566,1727993235058,-0.7529297,0.21875,-0.119140625,128.5,-30.5,-45.0
567,567,1727993235098,-0.62890625,0.24511719,-0.123046875,77.71875,6.59375,-29.03125
568,568,1727993235138,-0.671875,0.25,-0.043945312,29.0625,39.125,-10.65625
569,569,1727993235178,-0.76660156,0.21875,0.072265625,24.0625,47.25,15.0625
570,570,1727993235218,-0.8378906,-0.06542969,0.22070312,3.5,72.15625,24.28125
571,571,1727993235258,-1.2529297,-0.6904297,0.6796875,-62.46875,74.53125,6.625
572,572,1727993235298,-1.1474609,-0.48535156,0.5761719,48.59375,25.78125,-5.03125
573,573,1727993235338,-0.9121094,-0.19433594,0.42578125,37.5,-12.1875,-10.34375
574,574,1727993235378,-1.1552734,0.11816406,0.04296875,-16.8125,12.8125,-8.875
575,575,1727993235418,-1.0664062,0.3857422,0.06347656,-29.03125,32.125,12.125
576,576,1727993235458,-1.2177734,-0.45703125,0.27148438,16.1875,53.96875,39.53125
577,577,1727993235498,-0.96191406,0.016601562,-0.23242188,-174.0625,28.375,-15.90625
578,578,1727993235538,-0.8515625,0.20703125,-0.28515625,-177.65625,70.875,-14.0625
579,579,1727993235578,-1.1240234,-0.053710938,-0.24121094,-116.96875,37.78125,18.78125
580,580,1727993235618,-1.0283203,-0.17382812,-0.4375,-68.46875,10.03125,33.1875
581,581,1727993235658,-1.0683594,-0.2783203,-0.3154297,99.75,64.09375,18.40625
582,582,1727993235698,-1.0390625,-0.2939453,-0.12109375,-5.28125,49.3125,4.25
583,583,1727993235738,-0.86621094,-0.29785156,-0.13378906,-63.21875,19.34375,-10.15625
584,584,1727993235778,-0.91796875,-0.099609375,-0.15332031,-140.25,14.78125,-27.78125
585,585,1727993235818,-1.0185547,-0.047851562,-0.23046875,-132.3125,24.375,-2.46875
586,586,1727993235858,-0.9667969,-0.115234375,-0.1796875,-12.25,46.40625,9.5
587,587,1727993235898,-0.9511719,-0.16308594,-0.15625,-13.78125,30.84375,21.53125
588,588,1727993235938,-0.9433594,-0.14550781,-0.20507812,3.6875,14.28125,29.5625
589,589,1727993235978,-0.9658203,-0.25585938,-0.26660156,4.1875,21.5,24.21875
590,590,1727993236018,-0.95996094,-0.22851562,-0.2841797,-10.09375,27.96875,18.84375
591,591,1727993236058,-1.0722656,-0.15234375,-0.20703125,-17.5,35.90625,8.65625
592,592,1727993236098,-1.0449219,-0.19140625,-0.18652344,-17.8125,2.21875,12.375
593,593,1727993236138,-1.1240234,-0.34277344,-0.25976562,1.25,-11.09375,25.125
594,594,1727993236178,-1.1894531,-0.48339844,-0.01171875,23.40625,-34.84375,14.3125
595,595,1727993236218,-1.171875,-0.34277344,0.07421875,41.71875,-75.3125,-9.65625
596,596,1727993236258,-1.1933594,0.16796875,0.27929688,59.78125,-134.09375,-10.34375
597,597,1727993236298,-1.1123047,-0.09277344,-0.20117188,133.9375,-120.53125,-9.90625
598,598,1727993236338,-1.2470703,-0.3046875,-0.32226562,81.625,-116.09375,-29.5625
599,599,1727993236378,-1.1582031,-0.11621094,-0.27148438,1.5625,-113.875,-51.59375
600,600,1727993236418,-1.2246094,-0.12792969,-0.203125,-62.1875,-57.4375,-43.53125
601,601,1727993236458,-0.9453125,-0.24902344,-0.17382812,112.9375,-53.03125,-57.875
602,602,1727993236498,-0.8173828,-0.09667969,-0.12988281,146.15625,-68.65625,-49.03125
603,603,1727993236538,-0.7402344,0.13964844,-0.09472656,98.90625,-20.6875,-46.78125
604,604,1727993236578,-0.6591797,0.171875,-0.1015625,71.875,9.84375,-29.3125
605,605,1727993236618,-0.7246094,0.13476562,0.045898438,55.5625,36.03125,-12.40625
606,606,1727993236658,-0.8730469,0.07324219,0.12109375,56.65625,36.4375,9.6875
607,607,1727993236698,-0.8955078,-0.06640625,0.30371094,-14.0,52.0,11.625
608,608,1727993236738,-1.1445312,-0.45507812,0.55371094,-10.96875,48.90625,8.21875
609,609,1727993236778,-1.0869141,-0.4658203,0.45117188,59.21875,33.75,-5.21875
610,610,1727993236818,-0.8925781,-0.20214844,0.39160156,20.46875,-2.6875,-10.15625
611,611,1727993236858,-1.1328125,0.07128906,0.08886719,8.8125,19.40625,-4.90625
612,612,1727993236898,-1.1152344,0.31152344,0.0859375,-21.875,23.5625,11.5
613,613,1727993236938,-1.1367188,-0.1640625,0.2626953,26.625,33.15625,29.6875
614,614,1727993236978,-0.8515625,-0.12011719,-0.2109375,-125.90625,38.875,-1.90625
615,615,1727993237018,-0.9013672,0.11035156,-0.30371094,-180.59375,51.71875,-4.78125
616,616,1727993237058,-1.0986328,-0.0078125,-0.24609375,-160.75,89.84375,23.03125
617,617,1727993237098,-1.0009766,-0.171875,-0.24414062,-94.28125,55.25,33.84375
618,618,1727993237138,-1.0166016,-0.30371094,-0.21875,56.0,43.59375,21.9375
619,619,1727993237178,-1.0087891,-0.3095703,-0.12207031,-8.59375,42.125,3.21875
620,620,1727993237218,-1.0244141,-0.25878906,-0.16601562,-24.09375,-7.9375,-17.3125
621,621,1727993237258,-0.7763672,-0.21972656,-0.18359375,-38.3125,2.8125,-28.15625
622,622,1727993237298,-0.9169922,0.009765625,-0.28222656,-182.40625,-12.3125,-26.6875
623,623,1727993237338,-0.9814453,-0.029296875,-0.2841797,-151.15625,24.0,4.1875
624,624,1727993237378,-0.9667969,-0.171875,-0.19238281,-24.75,44.0,21.9375
625,625,1727993237418,-0.96972656,-0.26171875,-0.13671875,53.125,44.1875,36.96875
626,626,1727993237458,-0.95996094,-0.28125,-0.17089844,61.3125,34.3125,37.5
627,627,1727993237498,-0.9580078,-0.2998047,-0.26757812,32.0,27.15625,24.3125
628,628,1727993237538,-0.95996094,-0.15234375,-0.28320312,-10.0625,39.3125,2.40625
629,629,1727993237578,-1.0576172,0.083984375,-0.23730469,-55.59375,17.15625,-0.28125
630,630,1727993237618,-1.0371094,-0.095703125,-0.3203125,-21.21875,-3.03125,23.96875
631,631,1727993237658,-1.1044922,-0.43847656,-0.3798828,5.8125,-9.34375,30.5
632,632,1727993237698,-1.1455078,-0.421875,-0.09765625,28.46875,-2.90625,8.75
633,633,1727993237738,-1.1513672,-0.203125,0.08886719,13.9375,-56.09375,-5.53125
634,634,1727993237778,-1.1298828,-0.037109375,0.27441406,39.625,-106.375,-3.5625
635,635,1727993237818,-1.1777344,-0.17285156,-0.045898438,61.4375,-151.3125,-2.59375
636,636,1727993237858,-1.1337891,-0.3046875,-0.19726562,139.5625,-99.1875,-21.9375
637,637,1727993237898,-1.1503906,-0.19140625,-0.22753906,61.4375,-120.09375,-41.46875
638,638,1727993237938,-1.3935547,0.0068359375,-0.2705078,-30.8125,-115.15625,-63.125
639,639,1727993237978,-1.0126953,-0.26660156,0.059570312,-89.46875,-34.71875,-57.8125
640,640,1727993238018,-1.0878906,-0.33496094,-0.08691406,208.59375,-68.71875,-64.34375
641,641,1727993238058,-0.78125,0.046875,-0.17773438,133.25,-51.0625,-62.09375
642,642,1727993238098,-0.69628906,0.27539062,-0.18359375,97.5625,-30.5625,-39.46875
643,643,1727993238138,-0.63378906,0.25097656,-0.07910156,46.34375,12.75,-15.96875
644,644,1727993238178,-0.7392578,0.15332031,0.072265625,56.3125,30.03125,9.3125
645,645,1727993238218,-0.9199219,0.0146484375,0.18945312,30.78125,47.90625,23.71875
646,646,1727993238258,-1.0458984,-0.32617188,0.56933594,-25.78125,63.59375,14.8125
647,647,1727993238298,-1.1171875,-0.42773438,0.4423828,4.46875,45.84375,6.875
648,648,1727993238338,-0.9980469,-0.2890625,0.5,0.375,20.46875,-5.9375
649,649,1727993238378,-1.2060547,0.0087890625,0.15039062,-31.59375,7.46875,-10.03125
650,650,1727993238418,-1.0576172,0.37304688,0.09277344,-20.71875,9.28125,9.9375
651,651,1727993238458,-0.98046875,-0.2705078,0.16308594,42.9375,41.28125,32.8125
652,652,1727993238498,-0.94921875,-0.23046875,0.0146484375,-117.96875,40.59375,-13.03125
653,653,1727993238538,-0.81152344,0.037109375,-0.11816406,-134.5,52.6875,-6.3125
654,654,1727993238578,-0.9824219,-0.02734375,-0.18847656,-120.21875,72.8125,19.375
655,655,1727993238618,-1.1337891,-0.25585938,-0.20800781,-69.5,46.40625,25.1875
656,656,1727993238658,-1.0380859,-0.28222656,-0.26757812,-12.5,28.8125,15.90625
657,657,1727993238698,-1.0146484,-0.12597656,-0.20507812,-33.53125,43.34375,-9.84375
658,658,1727993238738,-1.0878906,-0.09472656,-0.21484375,-36.34375,25.21875,-8.5625
659,659,1727993238778,-0.91015625,-0.16796875,-0.15429688,-28.46875,10.8125,-5.46875
660,660,1727993238818,-0.88671875,-0.16699219,-0.19140625,-49.21875,11.84375,-5.6875
661,661,1727993238858,-0.93066406,-0.107421875,-0.23339844,-99.59375,-1.21875,0.84375
662,662,1727993238898,-0.95703125,-0.15527344,-0.2529297,-54.125,5.5625,5.09375
663,663,1727993238938,-0.9248047,-0.099609375,-0.3251953,-73.71875,14.59375,10.59375
664,664,1727993238978,-0.96484375,-0.08691406,-0.31640625,-66.75,29.0625,25.84375
665,665,1727993239018,-1.0283203,-0.20996094,-0.17773438,23.09375,49.03125,32.375
666,666,1727993239058,-1.0273438,-0.2763672,-0.18164062,75.71875,55.4375,29.6875
667,667,1727993239098,-1.0898438,-0.18359375,-0.15039062,39.75,47.25,15.84375
668,668,1727993239138,-1.0332031,-0.20214844,-0.23242188,-19.09375,0.8125,11.15625
669,669,1727993239178,-0.9941406,-0.21484375,-0.31347656,-11.28125,1.0,17.5625
670,670,1727993239218,-1.0722656,-0.30273438,-0.20703125,17.40625,-1.28125,20.65625
671,671,1727993239258,-1.1035156,-0.2783203,-0.119140625,12.46875,-32.65625,12.71875
672,672,1727993239298,-1.046875,-0.21972656,0.0146484375,24.9375,-65.53125,5.53125
673,673,1727993239338,-1.1660156,-0.045898438,0.15234375,46.34375,-103.6875,-1.25
674,674,1727993239378,-1.0957031,-0.18652344,-0.026367188,72.71875,-131.65625,-5.09375
675,675,1727993239418,-1.0595703,-0.33789062,-0.18847656,98.59375,-102.65625,-28.71875
676,676,1727993239458,-1.1933594,-0.14257812,-0.2529297,65.8125,-109.5,-56.59375
677,677,1727993239498,-1.4794922,0.12109375,-0.23828125,-44.84375,-84.03125,-63.25
678,678,1727993239538,-1.1201172,-0.25976562,-0.123046875,-40.8125,-49.84375,-75.90625
679,679,1727993239578,-1.0361328,-0.22167969,-0.06738281,148.75,-89.96875,-39.15625
680,680,1727993239618,-0.7998047,0.08496094,-0.17285156,129.65625,-48.09375,-51.53125
681,681,1727993239658,-0.74121094,0.20605469,-0.08886719,96.875,-17.25,-32.3125
682,682,1727993239698,-0.625,0.11816406,-0.01953125,50.5,21.1875,-16.4375
683,683,1727993239738,-0.8232422,-0.020507812,0.14941406,56.3125,26.5625,-3.6875
684,684,1727993239778,-0.90625,-0.140625,0.20996094,10.53125,33.625,-1.84375
685,685,1727993239818,-0.90234375,-0.23535156,0.35351562,7.34375,35.71875,0.9375
686,686,1727993239858,-0.99609375,-0.2939453,0.3515625,44.09375,36.5625,7.25
687,687,1727993239898,-0.9716797,-0.30078125,0.4345703,20.15625,31.6875,-1.125
688,688,1727993239938,-1.1767578,-0.07128906,0.20800781,-41.78125,13.4375,-5.09375
689,689,1727993239978,-1.109375,0.36816406,0.2734375,-32.5625,17.34375,14.5
690,690,1727993240018,-0.9140625,0.040039062,0.14746094,65.09375,26.8125,39.53125
691,691,1727993240058,-0.89160156,-0.3486328,-0.09277344,-88.46875,50.59375,2.0625
692,692,1727993240098,-0.8486328,-0.08984375,-0.17382812,-142.125,49.15625,16.6875
693,693,1727993240138,-1.0009766,-0.13964844,-0.23925781,-146.875,86.96875,34.59375
694,694,1727993240178,-1.1376953,-0.31347656,-0.08984375,-119.1875,87.84375,6.9375
695,695,1727993240218,-0.92285156,-0.22460938,-0.24121094,-5.46875,31.0625,11.75
696,696,1727993240258,-1.0673828,-0.046875,-0.19921875,-19.75,61.59375,-4.1875
697,697,1727993240298,-1.0664062,-0.072265625,-0.15625,-24.5,34.125,-6.375
698,698,1727993240338,-0.98535156,-0.16308594,-0.16601562,-28.46875,-7.0625,-20.34375
699,699,1727993240378,-0.93066406,-0.1875,-0.19042969,-51.625,-10.90625,-22.84375
700,700,1727993240418,-0.91015625,-0.01953125,-0.2841797,-140.90625,-5.84375,-18.03125
701,701,1727993240458,-1.0302734,-0.06640625,-0.30273438,-142.8125,-4.5,0.84375
702,702,1727993240498,-0.94628906,-0.12402344,-0.2705078,-72.78125,3.4375,5.46875
703,703,1727993240538,-0.9716797,-0.20019531,-0.24902344,-25.1875,20.40625,17.125
704,704,1727993240578,-0.96777344,-0.29003906,-0.24609375,14.0,24.84375,23.40625
705,705,1727993240618,-0.95410156,-0.27929688,-0.24121094,39.09375,38.46875,20.0
706,706,1727993240658,-0.9716797,-0.15429688,-0.21484375,7.28125,37.84375,12.375
707,707,1727993240698,-1.0283203,-0.056640625,-0.22070312,-27.75,20.21875,12.5625
708,708,1727993240738,-1.0009766,-0.072265625,-0.30664062,-17.375,1.46875,17.6875
709,709,1727993240778,-0.91015625,-0.14257812,-0.34179688,-9.875,17.28125,21.09375
710,710,1727993240818,-1.0751953,-0.23828125,-0.30371094,-1.25,15.375,20.0625
711,711,1727993240858,-1.1132812,-0.22070312,-0.27148438,26.6875,16.71875,15.28125
712,712,1727993240898,-1.1103516,-0.28027344,-0.109375,54.46875,4.03125,20.53125
713,713,1727993240938,-1.0761719,-0.1328125,0.01953125,24.125,-37.28125,9.1875
714,714,1727993240978,-1.0869141,-0.13085938,0.10058594,28.03125,-76.34375,3.625
715,715,1727993241018,-1.1240234,-0.18945312,0.0625,54.09375,-125.84375,-2.09375
716,716,1727993241058,-1.0205078,-0.30273438,-0.18066406,131.3125,-97.21875,-12.90625
717,717,1727993241098,-1.2548828,-0.35058594,-0.17773438,113.84375,-120.53125,-27.25
718,718,1727993241138,-1.2421875,-0.005859375,-0.4189453,28.65625,-110.84375,-44.53125
719,719,1727993241178,-1.1308594,-0.05859375,-0.038085938,-99.65625,-80.125,-44.9375
720,720,1727993241218,-1.0234375,-0.19335938,-0.1484375,167.0625,-74.8125,-69.96875
721,721,1727993241258,-0.9394531,-0.16015625,-0.16699219,114.71875,-90.125,-64.90625
722,722,1727993241298,-0.8173828,0.123046875,-0.13769531,93.53125,-48.09375,-53.90625
723,723,1727993241338,-0.7080078,0.14941406,-0.10839844,65.15625,-11.03125,-29.75
724,724,1727993241378,-0.71875,0.21777344,0.051757812,64.125,17.65625,-13.9375
725,725,1727993241418,-0.8173828,0.15722656,0.24707031,52.625,27.46875,5.28125
726,726,1727993241458,-0.9238281,-0.24511719,0.42871094,-0.28125,49.03125,7.65625
727,727,1727993241498,-0.9580078,-0.32128906,0.37695312,-0.59375,37.59375,4.96875
728,728,1727993241538,-0.9375,-0.27246094,0.3720703,9.0,32.1875,10.21875
729,729,1727993241578,-1.0419922,-0.27148438,0.3408203,-20.65625,33.625,-3.125
730,730,1727993241618,-1.2421875,0.24707031,0.06738281,-56.8125,12.8125,-0.40625
731,731,1727993241658,-1.0175781,0.28515625,0.27929688,46.59375,41.34375,33.90625
732,732,1727993241698,-1.09375,-0.6904297,0.10644531,-31.90625,60.0,0.9375
733,733,1727993241738,-0.8652344,-0.08886719,-0.07324219,-137.90625,39.75,-11.5625
734,734,1727993241778,-0.85839844,0.013671875,-0.07421875,-122.59375,70.3125,3.8125
735,735,1727993241818,-1.0751953,-0.15332031,-0.072265625,-81.03125,82.84375,26.9375
736,736,1727993241858,-1.0458984,-0.29003906,-0.19824219,-50.21875,36.03125,17.625
737,737,1727993241898,-0.97265625,-0.21972656,-0.17578125,-17.0625,41.4375,12.5
738,738,1727993241938,-1.0253906,-0.1953125,-0.25585938,-17.3125,29.375,2.71875
739,739,1727993241978,-1.03125,-0.171875,-0.22949219,-17.375,19.28125,-9.0625
740,740,1727993242018,-1.0107422,-0.19628906,-0.14355469,-35.125,1.15625,-16.625
741,741,1727993242058,-0.9609375,-0.107421875,-0.17285156,-5.65625,1.59375,-14.3125
742,742,1727993242098,-0.8779297,-0.0546875,-0.22851562,-110.875,-16.46875,-14.1875
743,743,1727993242138,-1.0195312,-0.060546875,-0.26464844,-103.84375,-3.21875,0.875
744,744,1727993242178,-0.9667969,-0.0625,-0.31054688,-65.71875,10.5,11.03125
745,745,1727993242218,-0.90722656,-0.08300781,-0.27929688,-58.9375,19.0625,23.90625
746,746,1727993242258,-1.0283203,-0.1796875,-0.20214844,-16.6875,26.0625,37.15625
747,747,1727993242298,-1.0283203,-0.26660156,-0.22851562,25.15625,33.03125,31.65625
748,748,1727993242338,-0.99316406,-0.33984375,-0.1640625,23.75,60.1875,19.125
749,749,1727993242378,-1.0791016,-0.14648438,-0.08300781,16.8125,60.1875,5.34375
750,750,1727993242418,-1.0644531,-0.23828125,-0.27929688,-32.9375,-22.5625,14.6875
751,751,1727993242458,-1.171875,-0.3701172,-0.3935547,20.78125,-0.96875,16.5
752,752,1727993242498,-1.1767578,-0.21875,-0.028320312,49.34375,-9.4375,11.625
753,753,1727993242538,-1.1123047,-0.103515625,0.026367188,10.75,-65.40625,1.9375
754,754,1727993242578,-1.0371094,-0.036132812,0.1015625,47.9375,-108.15625,-2.78125
755,755,1727993242618,-1.0498047,-0.056640625,-0.123046875,80.34375,-121.875,-4.71875
756,756,1727993242658,-1.0361328,-0.20703125,-0.1484375,112.4375,-92.9375,-8.4375
757,757,1727993242698,-1.1435547,-0.19238281,-0.19140625,75.9375,-114.125,-20.34375
