,Unnamed: 0,timestamp,accel_x,accel_y,accel_z,gyro_x,gyro_y,gyro_z
0,0,1727289886633,0.27392578,-1.5718384,0.43670654,5.296875,-34.375,-0.90625
1,1,1727289886673,0.08325195,-1.4248657,0.37615967,7.578125,-8.90625,25.375
2,2,1727289886713,-0.05834961,-1.3904419,0.35687256,15.234375,-15.25,-6.671875
3,3,1727289886753,-0.10839844,-1.1570435,0.52948,-4.84375,-12.390625,-10.796875
4,4,1727289886793,-0.14941406,-0.96954346,0.48162842,-6.21875,-10.265625,-4.125
5,5,1727289886833,-0.015625,-0.881897,0.2789917,14.46875,-17.265625,-20.609375
6,6,1727289886873,0.0009765625,-0.96881104,0.3085327,13.78125,-3.03125,-0.375
7,7,1727289886913,-0.0769043,-0.8152466,0.27679443,10.75,0.890625,3.375
8,8,1727289886953,-0.13867188,-0.8267212,0.23406982,10.96875,-5.015625,-12.796875
9,9,1727289886993,-0.14892578,-0.9102173,0.28216553,8.09375,-5.90625,-14.875
10,10,1727289887033,-0.095214844,-0.9595337,0.28656006,-2.5,-0.828125,-10.9375
11,11,1727289887073,-0.10595703,-0.95147705,0.30975342,-10.6875,7.03125,-5.0625
12,12,1727289887113,-0.11328125,-0.9102173,0.35101318,-13.375,10.0625,-0.296875
13,13,1727289887153,-0.11279297,-0.8670044,0.35003662,-10.359375,8.53125,-1.375
14,14,1727289887193,-0.09033203,-0.79351807,0.3505249,-5.53125,8.734375,-0.328125
15,15,1727289887233,-0.1171875,-0.7542114,0.33416748,-5.046875,9.5625,1.6875
16,16,1727289887273,-0.14648438,-0.7896118,0.3053589,-5.21875,6.6875,-1.328125
17,17,1727289887313,-0.14770508,-0.84552,0.34173584,-5.109375,5.15625,-6.109375
18,18,1727289887353,-0.19750977,-0.9043579,0.39154053,-5.765625,10.8125,-6.296875
19,19,1727289887393,-0.17089844,-0.8833618,0.4208374,-13.921875,10.796875,-5.765625
20,20,1727289887433,-0.15014648,-0.84210205,0.4257202,-10.109375,13.078125,-1.34375
21,21,1727289887473,-0.15429688,-0.8074341,0.41375732,-5.171875,10.609375,-0.65625
22,22,1727289887513,-0.19238281,-0.8550415,0.38275146,-5.625,10.265625,-6.515625
23,23,1727289887553,-0.14208984,-0.9277954,0.40985107,2.78125,6.296875,-7.21875
24,24,1727289887593,-0.05029297,-1.086731,0.3932495,6.59375,7.296875,-11.65625
25,25,1727289887633,0.067871094,-1.1565552,0.4882202,-2.84375,17.046875,9.0625
26,26,1727289887673,0.26831055,-1.420227,0.79559326,-36.25,26.28125,27.203125
27,27,1727289887713,0.05517578,-1.1902466,0.6913452,-8.40625,27.4375,30.21875
28,28,1727289887753,-0.0014648438,-0.9663696,0.5297241,0.1875,21.265625,8.484375
29,29,1727289887793,0.107666016,-0.85821533,0.40447998,10.625,6.390625,-5.375
30,30,1727289887833,0.1875,-0.8250122,0.45135498,14.546875,-2.25,-7.953125
31,31,1727289887873,0.17773438,-0.83673096,0.4850464,4.65625,8.484375,15.484375
32,32,1727289887913,0.14477539,-0.77911377,0.45306396,-9.6875,13.109375,23.046875
33,33,1727289887953,0.16796875,-0.76568604,0.45648193,-9.953125,6.71875,14.890625
34,34,1727289887993,0.20141602,-0.8140259,0.49310303,4.796875,2.796875,9.890625
35,35,1727289888033,0.19482422,-0.803772,0.51239014,5.375,2.5,8.0
36,36,1727289888073,0.16235352,-0.7749634,0.4779663,4.828125,1.84375,8.9375
37,37,1727289888113,0.16064453,-0.7883911,0.48944092,-3.59375,-2.578125,2.828125
38,38,1727289888153,0.15551758,-0.8062134,0.49066162,-0.921875,-5.515625,-1.96875
39,39,1727289888193,0.111816406,-0.77130127,0.45111084,7.21875,-1.609375,-5.03125
40,40,1727289888233,0.12939453,-0.7000122,0.4381714,2.15625,1.546875,-5.03125
41,41,1727289888273,0.109375,-0.6712036,0.44378662,3.6875,-3.390625,-8.40625
42,42,1727289888313,0.10595703,-0.68292236,0.45672607,3.640625,-0.796875,-7.03125
43,43,1727289888353,0.1328125,-0.7305298,0.50115967,-0.671875,-0.53125,-2.171875
44,44,1727289888393,0.14746094,-0.8225708,0.53533936,-4.28125,-7.875,-6.84375
45,45,1727289888433,0.12036133,-0.86016846,0.52874756,2.953125,-3.34375,-6.03125
46,46,1727289888473,0.13916016,-0.79815674,0.50775146,8.75,-5.796875,-6.6875
47,47,1727289888513,0.13598633,-0.76934814,0.55096436,2.65625,-8.421875,-4.71875
48,48,1727289888553,0.083984375,-0.90997314,0.46820068,-3.046875,-14.3125,2.21875
49,49,1727289888593,0.18920898,-1.1228638,0.32659912,15.625,-24.75,-8.921875
50,50,1727289888633,0.20141602,-1.0278931,0.34124756,41.40625,-12.265625,-2.0625
51,51,1727289888673,0.06665039,-1.2835083,0.39593506,-0.921875,-14.6875,9.59375
52,52,1727289888713,0.015380859,-1.2654419,0.44110107,4.46875,-15.734375,-0.71875
53,53,1727289888753,-0.080078125,-1.217102,0.56658936,-9.328125,-5.359375,6.421875
54,54,1727289888793,-0.16967773,-1.0447388,0.39959717,-7.125,-8.953125,-12.75
55,55,1727289888833,-0.063964844,-0.9348755,0.38861084,17.296875,-13.046875,-20.640625
56,56,1727289888873,-0.040283203,-0.8596802,0.3361206,13.328125,-9.359375,-8.921875
57,57,1727289888913,-0.059326172,-0.8184204,0.2897339,16.890625,-5.546875,-4.046875
58,58,1727289888953,-0.09863281,-0.8364868,0.29266357,4.21875,-2.25,-2.0625
59,59,1727289888993,-0.13085938,-0.89263916,0.25872803,0.53125,-5.46875,-7.25
60,60,1727289889033,-0.099121094,-0.96295166,0.36810303,-7.203125,-3.953125,-7.828125
61,61,1727289889073,-0.09887695,-0.8731079,0.35028076,-14.15625,2.078125,-0.96875
62,62,1727289889113,-0.107177734,-0.7901001,0.35882568,-13.046875,1.765625,1.6875
63,63,1727289889153,-0.12915039,-0.80352783,0.32855225,-12.703125,2.515625,2.671875
64,64,1727289889193,-0.07397461,-0.7354126,0.33880615,-2.296875,1.390625,1.796875
65,65,1727289889233,-0.10424805,-0.7473755,0.36224365,-7.578125,0.109375,2.015625
66,66,1727289889273,-0.17773438,-0.82696533,0.33587646,-7.625,-0.109375,-0.390625
67,67,1727289889313,-0.1472168,-0.8218384,0.39886475,-3.796875,-0.1875,-2.65625
68,68,1727289889353,-0.18432617,-0.7930298,0.41619873,-5.6875,4.03125,-2.078125
69,69,1727289889393,-0.17944336,-0.7732544,0.4052124,-4.890625,2.78125,-1.0
70,70,1727289889433,-0.13085938,-0.8123169,0.39935303,-1.546875,0.78125,-4.453125
71,71,1727289889473,0.0009765625,-0.9956665,0.43548584,2.75,-5.8125,-7.9375
72,72,1727289889513,0.020263672,-1.3223267,0.5182495,13.875,5.828125,-4.234375
73,73,1727289889553,0.049072266,-1.2456665,0.57977295,-8.515625,27.046875,10.84375
74,74,1727289889593,0.051513672,-1.2903442,0.68548584,-19.78125,22.75,12.625
75,75,1727289889633,-0.013671875,-1.0596313,0.60614014,-4.203125,17.484375,7.4375
76,76,1727289889673,0.0048828125,-0.8982544,0.5036011,8.78125,15.390625,5.0625
77,77,1727289889713,0.08178711,-0.88653564,0.4850464,11.546875,7.078125,7.671875
78,78,1727289889753,0.12133789,-0.8706665,0.49871826,8.046875,1.5,5.484375
79,79,1727289889793,0.12402344,-0.78692627,0.4569702,2.140625,9.84375,11.75
80,80,1727289889833,0.09692383,-0.68218994,0.4147339,0.78125,10.359375,9.25
81,81,1727289889873,0.052246094,-0.67193604,0.38787842,10.03125,3.875,0.984375
82,82,1727289889913,0.068359375,-0.71881104,0.40008545,8.4375,-0.1875,-7.328125
83,83,1727289889953,0.061279297,-0.7510376,0.38934326,6.4375,-3.34375,-8.0
84,84,1727289889993,0.08496094,-0.7827759,0.40618896,0.03125,1.8125,-3.578125
85,85,1727289890033,0.075927734,-0.8279419,0.47772217,-3.671875,4.53125,4.484375
86,86,1727289890073,0.07910156,-0.8399048,0.527771,-10.140625,-0.71875,2.296875
87,87,1727289890113,0.060546875,-0.7944946,0.4899292,5.875,-5.453125,-6.453125
88,88,1727289890153,0.07421875,-0.722229,0.5001831,-2.453125,-0.6875,-2.796875
89,89,1727289890193,0.055908203,-0.7373657,0.3895874,-5.265625,-7.046875,-0.984375
90,90,1727289890233,0.11425781,-0.986145,0.35076904,-3.203125,-26.515625,-9.09375
91,91,1727289890273,0.19238281,-1.2820435,0.3895874,38.578125,-8.03125,3.078125
92,92,1727289890313,0.06713867,-1.1472778,0.3685913,12.125,3.921875,24.921875
93,93,1727289890353,-0.1862793,-1.2405396,0.2387085,-6.640625,-11.0,-7.328125
94,94,1727289890393,-0.040527344,-1.1870728,0.51361084,16.046875,-27.578125,-30.203125
95,95,1727289890433,-0.17041016,-1.1651001,0.50042725,-14.140625,4.453125,-1.25
96,96,1727289890473,-0.1665039,-0.99591064,0.2579956,5.609375,-5.4375,-11.8125
97,97,1727289890513,-0.04321289,-1.0234985,0.36590576,8.765625,-3.265625,-8.109375
98,98,1727289890553,-0.076171875,-0.8526001,0.25628662,8.9375,-0.125,0.0
99,99,1727289890593,-0.11328125,-0.8008423,0.29119873,5.46875,-1.328125,-1.90625
100,100,1727289890633,-0.13696289,-0.73101807,0.25726318,0.546875,-2.4375,-0.421875
101,101,1727289890673,-0.12207031,-0.77838135,0.2255249,-2.6875,-7.0,-3.71875
102,102,1727289890713,-0.11352539,-0.8447876,0.2802124,-2.46875,-2.515625,-0.109375
103,103,1727289890753,-0.1508789,-0.80303955,0.30413818,-7.078125,1.25,3.4375
104,104,1727289890793,-0.16479492,-0.80718994,0.31414795,-13.90625,2.625,1.796875
105,105,1727289890833,-0.13549805,-0.79278564,0.32440186,-12.515625,3.6875,1.3125
106,106,1727289890873,-0.18066406,-0.7661743,0.35076904,-4.84375,3.96875,1.984375
107,107,1727289890913,-0.17163086,-0.76519775,0.3397827,-4.578125,1.59375,-0.625
108,108,1727289890953,-0.19921875,-0.8777466,0.3234253,-6.15625,2.6875,-2.03125
109,109,1727289890993,-0.03515625,-0.94415283,0.3139038,7.46875,-6.34375,-9.609375
110,110,1727289891033,0.04321289,-1.2168579,0.42791748,4.65625,5.421875,-1.40625
111,111,1727289891073,0.088134766,-1.460022,0.5985718,-34.5,24.8125,22.9375
112,112,1727289891113,0.1237793,-1.2984009,0.6769409,-21.484375,33.0625,31.234375
113,113,1727289891153,-0.031982422,-0.9290161,0.5927124,-8.71875,25.25,17.40625
114,114,1727289891193,0.11279297,-0.8999634,0.54803467,4.375,7.375,1.921875
115,115,1727289891233,0.15698242,-0.97198486,0.5438843,22.40625,-2.703125,0.703125
116,116,1727289891273,0.17749023,-0.9224243,0.53826904,6.859375,7.046875,6.953125
117,117,1727289891313,0.09838867,-0.75982666,0.44158936,4.015625,15.875,18.390625
118,118,1727289891353,0.049072266,-0.6074829,0.35125732,4.9375,4.125,1.59375
119,119,1727289891393,0.079833984,-0.60479736,0.33050537,16.5625,-5.71875,-14.03125
120,120,1727289891433,0.12695312,-0.7307739,0.46014404,-1.28125,-4.84375,-6.671875
121,121,1727289891473,0.12451172,-0.84161377,0.46502686,-13.59375,2.234375,5.4375
122,122,1727289891513,0.06738281,-0.7925415,0.39569092,-0.90625,6.171875,3.453125
123,123,1727289891553,0.09033203,-0.7583618,0.49700928,2.046875,0.046875,-1.15625
124,124,1727289891593,0.09399414,-0.76275635,0.50115967,-9.578125,-9.75,-5.671875
125,125,1727289891633,0.08544922,-0.76690674,0.5050659,-3.984375,-10.296875,-3.6875
126,126,1727289891673,0.083984375,-0.7437134,0.44696045,1.203125,-5.1875,-3.453125
127,127,1727289891713,0.079589844,-0.815979,0.3619995,-5.328125,-10.875,-3.5625
128,128,1727289891753,0.18554688,-1.0542603,0.27557373,6.328125,-27.09375,-8.921875
129,129,1727289891793,0.25756836,-1.1463013,0.34466553,33.21875,-3.5,0.34375
130,130,1727289891833,0.034423828,-1.2837524,0.3973999,-4.03125,0.359375,25.328125
131,131,1727289891873,-0.13842773,-1.2124634,0.34490967,14.515625,-13.578125,-7.40625
132,132,1727289891913,-0.040283203,-1.2749634,0.605896,5.734375,-6.953125,-7.875
133,133,1727289891953,-0.13842773,-1.0454712,0.42767334,-13.765625,0.796875,-8.875
134,134,1727289891993,-0.095214844,-1.0232544,0.28656006,19.984375,-6.265625,-20.03125
135,135,1727289892033,-0.044677734,-0.99102783,0.33929443,14.8125,5.40625,0.890625
136,136,1727289892073,-0.044189453,-0.8596802,0.30047607,5.53125,3.78125,-1.25
137,137,1727289892113,-0.07348633,-0.829895,0.32269287,0.625,3.46875,-1.09375
138,138,1727289892153,-0.07128906,-0.7803345,0.27069092,2.609375,0.5625,-1.34375
139,139,1727289892193,-0.040283203,-0.8057251,0.28753662,0.171875,-1.96875,-3.9375
140,140,1727289892233,-0.07104492,-0.8616333,0.31732178,-7.75,1.59375,0.8125
141,141,1727289892273,-0.095703125,-0.8452759,0.31707764,-8.59375,-0.625,0.125
142,142,1727289892313,-0.114746094,-0.8633423,0.35614014,-5.53125,1.78125,1.34375
143,143,1727289892353,-0.09106445,-0.81988525,0.35394287,-10.296875,1.671875,0.65625
144,144,1727289892393,-0.09790039,-0.83917236,0.3637085,-8.171875,0.1875,0.953125
145,145,1727289892433,-0.11352539,-0.8152466,0.36053467,-10.28125,-0.53125,0.15625
146,146,1727289892473,-0.14379883,-0.78863525,0.3517456,-3.796875,-0.84375,-1.78125
147,147,1727289892513,-0.1706543,-0.81500244,0.38275146,-12.078125,1.1875,-5.34375
148,148,1727289892553,-0.107177734,-0.923645,0.416687,-17.015625,-2.046875,-4.578125
149,149,1727289892593,0.03125,-1.0786743,0.45281982,-4.515625,-7.90625,-12.59375
150,150,1727289892633,0.025878906,-1.1404419,0.49505615,11.15625,7.015625,-4.8125
151,151,1727289892673,0.045166016,-1.1951294,0.57025146,-4.90625,15.03125,7.484375
152,152,1727289892713,0.012207031,-1.1384888,0.5844116,-5.0625,13.078125,8.234375
153,153,1727289892753,0.0026855469,-0.9920044,0.51678467,0.359375,11.515625,7.96875
154,154,1727289892793,0.099609375,-0.95635986,0.56170654,-0.5,6.09375,5.9375
155,155,1727289892833,0.06616211,-0.9631958,0.5211792,8.328125,4.484375,11.78125
156,156,1727289892873,0.095458984,-0.8870239,0.44378662,14.890625,4.5,12.921875
157,157,1727289892913,0.060302734,-0.7835083,0.4406128,12.765625,11.0625,14.0
158,158,1727289892953,0.008544922,-0.7268677,0.38446045,2.953125,0.484375,0.46875
159,159,1727289892993,0.048095703,-0.74591064,0.38226318,6.09375,-5.75,-11.765625
160,160,1727289893033,0.056640625,-0.77960205,0.4472046,0.671875,1.640625,-2.4375
161,161,1727289893073,0.057617188,-0.75079346,0.4100952,-6.234375,8.46875,6.421875
162,162,1727289893113,0.06591797,-0.68707275,0.38690186,2.515625,5.578125,4.109375
163,163,1727289893153,0.06323242,-0.7180786,0.41229248,0.625,-5.296875,-5.3125
164,164,1727289893193,0.07104492,-0.7661743,0.40716553,2.359375,-10.5,-10.28125
165,165,1727289893233,0.083496094,-0.88238525,0.53656006,-5.96875,-2.21875,1.703125
166,166,1727289893273,0.013671875,-0.866272,0.4562378,-5.0625,0.640625,8.296875
167,167,1727289893313,0.055908203,-0.88653564,0.38494873,-1.578125,-10.25,-1.9375
168,168,1727289893353,0.15991211,-1.1609497,0.36102295,-3.71875,-24.296875,-7.015625
169,169,1727289893393,0.20019531,-1.1160278,0.43988037,15.671875,-0.84375,12.609375
170,170,1727289893433,0.01171875,-1.1062622,0.37347412,2.859375,9.5625,26.828125
171,171,1727289893473,-0.079589844,-1.0859985,0.35394287,3.734375,-6.609375,-0.21875
172,172,1727289893513,-0.10961914,-1.2996216,0.5392456,-0.234375,-14.03125,-12.21875
173,173,1727289893553,-0.072753906,-1.2007446,0.44769287,-16.5,-7.5,-23.59375
174,174,1727289893593,-0.061035156,-1.093811,0.41278076,6.9375,-3.796875,-14.796875
175,175,1727289893633,-0.034423828,-0.925354,0.40447998,3.578125,2.90625,0.96875
176,176,1727289893673,-0.05102539,-0.84820557,0.369812,7.359375,1.375,0.15625
177,177,1727289893713,-0.047851562,-0.8052368,0.3312378,3.953125,0.65625,-1.265625
178,178,1727289893753,-0.07373047,-0.7954712,0.30413818,3.9375,-0.390625,-2.234375
179,179,1727289893793,-0.06762695,-0.8135376,0.3126831,1.484375,-1.90625,-2.296875
180,180,1727289893833,-0.07763672,-0.83966064,0.32073975,-2.53125,-1.171875,0.546875
181,181,1727289893873,-0.0715332,-0.82769775,0.32269287,-0.78125,-1.265625,1.953125
182,182,1727289893913,-0.083740234,-0.8442993,0.34490967,-6.765625,1.15625,1.875
183,183,1727289893953,-0.088134766,-0.835022,0.38372803,-9.03125,2.890625,0.796875
184,184,1727289893993,-0.12036133,-0.83673096,0.40716553,-6.015625,2.875,-1.65625
185,185,1727289894033,-0.09741211,-0.8098755,0.3444214,-6.140625,1.28125,-4.90625
186,186,1727289894073,-0.11010742,-0.7854614,0.39715576,-7.125,1.546875,-1.140625
187,187,1727289894113,-0.15771484,-0.7866821,0.40130615,-8.546875,3.390625,-0.375
188,188,1727289894153,-0.1430664,-0.75860596,0.39666748,-7.328125,2.5625,-2.8125
189,189,1727289894193,-0.1262207,-0.81744385,0.4093628,-1.8125,-1.546875,-4.796875
190,190,1727289894233,-0.060546875,-1.05719,0.42816162,11.046875,-13.0,-15.390625
191,191,1727289894273,0.056152344,-1.3284302,0.5963745,9.0625,3.671875,-4.46875
192,192,1727289894313,0.1730957,-1.3145142,0.64886475,-12.984375,23.359375,15.5
193,193,1727289894353,0.05859375,-1.1411743,0.69647217,-16.953125,25.609375,21.703125
194,194,1727289894393,-0.080566406,-0.913147,0.48480225,10.46875,20.25,12.046875
195,195,1727289894433,0.00024414062,-0.85113525,0.42181396,17.75,8.8125,-2.59375
196,196,1727289894473,0.05419922,-0.8635864,0.41693115,10.890625,-3.421875,-11.765625
197,197,1727289894513,0.09765625,-0.8701782,0.45281982,5.25,3.09375,-0.421875
198,198,1727289894553,0.123535156,-0.8010864,0.4472046,2.390625,17.21875,14.625
199,199,1727289894593,0.080322266,-0.7588501,0.43548584,1.625,16.859375,15.796875
200,200,1727289894633,0.060791016,-0.69000244,0.3739624,12.03125,6.890625,3.921875
201,201,1727289894673,0.0546875,-0.72857666,0.3908081,16.265625,2.953125,-3.3125
202,202,1727289894713,0.045654297,-0.7017212,0.35784912,11.71875,0.8125,-7.765625
203,203,1727289894753,0.05517578,-0.7473755,0.40130615,0.96875,6.96875,-4.25
204,204,1727289894793,0.06225586,-0.76226807,0.38983154,-12.484375,5.6875,-2.40625
205,205,1727289894833,0.087890625,-0.79766846,0.3727417,-2.453125,-6.953125,-9.59375
206,206,1727289894873,0.115234375,-0.8154907,0.48944092,-6.796875,-4.75,-6.375
207,207,1727289894913,0.08300781,-0.8670044,0.53167725,-0.25,2.09375,10.21875
208,208,1727289894953,0.05126953,-0.87823486,0.24090576,6.578125,-13.171875,5.390625
209,209,1727289894993,0.11621094,-1.046936,0.042175293,31.875,-29.875,-14.859375
210,210,1727289895033,0.27026367,-1.380188,0.35809326,38.609375,-18.75,-5.75
211,211,1727289895073,-0.0021972656,-1.5650024,0.39422607,3.84375,6.578125,30.9375
212,212,1727289895113,-0.09326172,-1.109436,0.22772217,4.359375,-3.046875,5.6875
213,213,1727289895153,-0.1081543,-1.1414185,0.36761475,6.546875,-7.453125,1.234375
214,214,1727289895193,-0.14819336,-1.0828247,0.2579956,-17.46875,-24.359375,-32.328125
215,215,1727289895233,-0.04736328,-1.1741333,0.27801514,17.9375,-24.765625,-40.78125
216,216,1727289895273,-0.03955078,-0.94488525,0.2958374,10.34375,11.671875,12.03125
217,217,1727289895313,-0.099609375,-0.78082275,0.16571045,-2.453125,7.375,11.125
218,218,1727289895353,-0.10253906,-0.7893677,0.22991943,5.25,-2.53125,0.578125
219,219,1727289895393,-0.09277344,-0.78131104,0.15350342,-2.859375,-9.140625,-8.625
220,220,1727289895433,-0.087646484,-0.8526001,0.21600342,2.0625,-4.5,-2.0625
221,221,1727289895473,-0.10668945,-0.88946533,0.23309326,-6.453125,-1.78125,1.625
222,222,1727289895513,-0.10913086,-0.8591919,0.2333374,-4.53125,1.234375,2.640625
223,223,1727289895553,-0.14160156,-0.83013916,0.2584839,-4.796875,3.9375,4.609375
224,224,1727289895593,-0.122802734,-0.81036377,0.25408936,-9.875,0.921875,1.578125
225,225,1727289895633,-0.122802734,-0.84039307,0.2699585,-13.078125,0.84375,-0.46875
226,226,1727289895673,-0.12548828,-0.80133057,0.3024292,-9.578125,5.65625,7.53125
227,227,1727289895713,-0.17675781,-0.7996216,0.3024292,-13.015625,2.640625,2.125
228,228,1727289895753,-0.17456055,-0.91192627,0.28704834,-7.671875,-4.375,-11.296875
229,229,1727289895793,-0.03881836,-1.2595825,0.37078857,-14.875,-8.609375,-24.140625
230,230,1727289895833,0.044189453,-1.4070435,0.50335693,-7.5625,19.3125,2.5625
231,231,1727289895873,0.1586914,-1.128479,0.59906006,-34.203125,31.0625,32.90625
232,232,1727289895913,0.018798828,-0.9607544,0.4779663,-12.890625,11.09375,17.25
233,233,1727289895953,0.029052734,-1.0427856,0.5055542,12.203125,9.765625,10.578125
234,234,1727289895993,0.14648438,-1.0488892,0.5018921,6.828125,5.890625,2.1875
235,235,1727289896033,0.092285156,-1.0205688,0.5206909,-6.578125,3.265625,3.4375
236,236,1727289896073,0.10498047,-0.8430786,0.41986084,3.5625,7.265625,6.8125
237,237,1727289896113,0.119384766,-0.7427368,0.4039917,11.65625,7.8125,12.75
238,238,1727289896153,0.099121094,-0.7024536,0.387146,-0.75,5.375,5.546875
239,239,1727289896193,0.08081055,-0.6536255,0.36419678,1.875,10.578125,4.734375
240,240,1727289896233,0.12158203,-0.67681885,0.3678589,2.71875,11.15625,0.984375
241,241,1727289896273,0.07128906,-0.70440674,0.3439331,-3.359375,-0.9375,-9.640625
242,242,1727289896313,0.1159668,-0.7810669,0.45013428,-5.546875,3.578125,-7.984375
243,243,1727289896353,0.068115234,-0.8262329,0.4640503,-1.375,2.890625,-1.140625
244,244,1727289896393,0.07421875,-0.70977783,0.4413452,-3.640625,1.78125,-0.75
245,245,1727289896433,0.106933594,-0.7263794,0.4743042,0.875,-0.796875,0.734375
246,246,1727289896473,0.1237793,-0.79400635,0.3751831,-7.875,0.296875,7.9375
247,247,1727289896513,0.2211914,-1.0872192,0.36932373,-0.75,-20.25,-4.8125
248,248,1727289896553,0.22753906,-1.3452759,0.45111084,24.0625,-10.0,-0.59375
249,249,1727289896593,0.033691406,-1.373352,0.29608154,4.859375,-1.96875,12.59375
250,250,1727289896633,0.0009765625,-1.1904907,0.3912964,2.203125,-7.578125,-5.5
251,251,1727289896673,-0.03515625,-1.1143188,0.6300659,-7.53125,-5.109375,-3.390625
252,252,1727289896713,-0.091552734,-1.0606079,0.46820068,-14.9375,-7.984375,-3.171875
253,253,1727289896753,-0.015380859,-0.94122314,0.307312,1.828125,-8.125,-17.21875
254,254,1727289896793,-0.15307617,-1.0410767,0.117126465,-11.109375,46.34375,-26.453125
255,255,1727289896833,-0.039794922,-1.2839966,0.3143921,-0.9375,47.546875,-15.234375
256,256,1727289896873,-0.10913086,-1.0632935,0.31976318,6.65625,65.03125,8.546875
257,257,1727289896913,-0.17407227,-0.84332275,0.2567749,17.984375,59.59375,10.0
258,258,1727289896953,-0.19042969,-0.84991455,0.215271,9.8125,42.203125,-8.34375
259,259,1727289896993,-0.1459961,-0.8960571,0.16546631,0.46875,27.640625,-21.9375
260,260,1727289897033,-0.079589844,-0.99176025,0.21502686,1.34375,32.828125,-10.234375
261,261,1727289897073,-0.064941406,-0.9534302,0.27435303,2.03125,44.96875,13.59375
262,262,1727289897113,-0.10473633,-0.91363525,0.28607178,-7.25,41.03125,20.09375
263,263,1727289897153,-0.08300781,-0.9483032,0.30560303,-11.796875,24.984375,6.1875
264,264,1727289897193,-0.03173828,-0.9890747,0.354187,-15.078125,18.21875,0.15625
265,265,1727289897233,-0.04321289,-0.9746704,0.42938232,-22.84375,20.84375,7.125
266,266,1727289897273,-0.10864258,-1.024231,0.4171753,-22.25,19.59375,17.15625
267,267,1727289897313,0.0012207031,-1.18927,0.35662842,-9.359375,1.625,-3.0625
268,268,1727289897353,0.084472656,-1.2141724,0.38397217,-0.390625,2.359375,-14.9375
269,269,1727289897393,0.14208984,-0.9036255,0.152771,0.5,17.71875,-8.21875
270,270,1727289897433,0.22631836,-0.64263916,0.13250732,18.015625,16.96875,-0.34375
271,271,1727289897473,0.28955078,-0.74298096,0.28607178,-3.90625,12.96875,8.71875
272,272,1727289897513,0.24584961,-0.97735596,0.38812256,-21.15625,9.953125,13.453125
273,273,1727289897553,0.107666016,-1.2593384,0.5075073,2.015625,27.59375,1.265625
274,274,1727289897593,0.076416016,-0.831604,0.19720459,-21.328125,18.90625,-27.96875
275,275,1727289897633,0.053222656,-0.8257446,0.34832764,4.890625,4.875,-33.84375
276,276,1727289897673,0.10180664,-0.89508057,0.4640503,5.046875,12.53125,-23.78125
277,277,1727289897713,0.11621094,-0.8179321,0.38812256,-3.046875,35.3125,8.6875
278,278,1727289897753,0.04663086,-0.79888916,0.3805542,-6.546875,37.078125,8.9375
279,279,1727289897793,0.040527344,-0.8250122,0.38983154,-7.09375,30.859375,-13.375
280,280,1727289897833,0.010009766,-0.8796997,0.4616089,-8.765625,29.84375,-25.265625
281,281,1727289897873,0.007080078,-0.9326782,0.47039795,-10.203125,33.390625,-26.734375
282,282,1727289897913,0.06762695,-0.9365845,0.4718628,-13.390625,33.578125,-24.671875
283,283,1727289897953,0.064453125,-0.9319458,0.5878296,-18.15625,39.453125,-20.375
284,284,1727289897993,-0.03149414,-1.0007935,0.513855,-16.578125,35.96875,-21.171875
285,285,1727289898033,0.053955078,-1.2131958,0.40667725,7.3125,23.25,-32.40625
286,286,1727289898073,0.13916016,-1.1052856,0.37005615,32.734375,35.859375,-35.421875
287,287,1727289898113,0.004638672,-0.8423462,0.26849365,22.71875,40.34375,-22.265625
288,288,1727289898153,-0.07495117,-0.6572876,0.08294678,23.96875,39.796875,-23.03125
289,289,1727289898193,-0.15893555,-0.7576294,0.010192871,24.140625,36.515625,-24.578125
290,290,1727289898233,-0.080078125,-0.9963989,0.07220459,-4.296875,34.65625,-30.234375
291,291,1727289898273,-0.028076172,-1.2866821,0.2892456,-8.0,36.21875,-12.984375
292,292,1727289898313,-0.01953125,-1.1157837,0.34832764,-6.03125,48.71875,3.265625
293,293,1727289898353,-0.08911133,-0.85772705,0.3114624,10.65625,49.25,13.25
294,294,1727289898393,-0.14575195,-0.81378174,0.1930542,13.375,31.15625,-6.09375
295,295,1727289898433,-0.09106445,-0.8567505,0.17694092,4.421875,8.6875,-25.671875
296,296,1727289898473,-0.053222656,-0.989563,0.20599365,2.1875,10.1875,-16.359375
297,297,1727289898513,-0.040039062,-1.0344849,0.24725342,3.234375,21.921875,6.78125
298,298,1727289898553,-0.072753906,-0.9990845,0.26116943,-11.703125,22.765625,15.5625
299,299,1727289898593,-0.08862305,-0.9819946,0.3102417,-13.875,9.265625,4.578125
300,300,1727289898633,-0.04736328,-0.9883423,0.35516357,-3.875,4.078125,2.671875
301,301,1727289898673,-0.034423828,-0.92926025,0.354187,-8.015625,4.609375,9.46875
302,302,1727289898713,-0.0107421875,-0.94488525,0.29193115,-11.578125,-2.640625,11.390625
303,303,1727289898753,0.0769043,-1.003479,0.2189331,0.734375,-12.875,5.65625
304,304,1727289898793,0.19018555,-1.0357056,0.29925537,6.125,-3.5625,19.625
305,305,1727289898833,0.16333008,-0.9324341,0.24945068,-4.546875,5.03125,37.03125
306,306,1727289898873,0.15551758,-0.8364868,0.29510498,1.90625,-1.5625,27.015625
307,307,1727289898913,0.18652344,-0.8508911,0.43450928,-16.0625,-7.046875,19.515625
308,308,1727289898953,0.16870117,-1.0042114,0.4364624,-20.53125,-10.765625,7.8125
309,309,1727289898993,0.18457031,-1.0420532,0.47381592,-9.84375,-6.328125,-3.296875
310,310,1727289899033,0.17529297,-0.8447876,0.40447998,-9.890625,3.953125,0.375
311,311,1727289899073,0.16674805,-0.7515259,0.43865967,-6.828125,-0.09375,2.109375
312,312,1727289899113,0.17504883,-0.7463989,0.4472046,-5.15625,-0.703125,1.171875
313,313,1727289899153,0.17871094,-0.78204346,0.45672607,-10.953125,0.859375,1.0625
314,314,1727289899193,0.17382812,-0.81134033,0.47698975,-8.796875,1.15625,-5.296875
315,315,1727289899233,0.14941406,-0.80303955,0.48016357,-3.796875,4.640625,-9.015625
316,316,1727289899273,0.15991211,-0.786438,0.48651123,-6.5625,5.03125,-10.546875
317,317,1727289899313,0.14355469,-0.7583618,0.47869873,-4.578125,5.046875,-9.5
318,318,1727289899353,0.10546875,-0.7246704,0.48284912,2.625,6.203125,-9.421875
319,319,1727289899393,0.0925293,-0.72857666,0.48260498,1.625,4.328125,-10.109375
320,320,1727289899433,0.11279297,-0.7022095,0.48114014,0.171875,-0.421875,-13.1875
321,321,1727289899473,0.100097656,-0.6538696,0.4569702,10.640625,3.078125,-8.96875
322,322,1727289899513,0.099365234,-0.642395,0.385437,7.5625,5.734375,-4.3125
323,323,1727289899553,0.15405273,-0.7107544,0.5036011,-7.09375,-1.015625,-5.859375
324,324,1727289899593,0.16845703,-0.83673096,0.590271,-19.203125,-8.40625,-3.828125
325,325,1727289899633,0.12231445,-1.0093384,0.46917725,-9.84375,-11.5625,1.921875
326,326,1727289899673,0.15844727,-0.972229,0.31854248,22.3125,-8.921875,-1.8125
327,327,1727289899713,0.16259766,-1.1731567,0.37957764,25.546875,-8.671875,2.03125
328,328,1727289899753,0.064208984,-1.3816528,0.5236206,26.984375,-12.421875,5.078125
329,329,1727289899793,0.0048828125,-1.2000122,0.6564331,0.765625,-15.40625,-1.984375
330,330,1727289899833,-0.11767578,-1.1870728,0.5673218,-21.796875,-6.84375,4.140625
331,331,1727289899873,-0.106933594,-1.0730591,0.41693115,-5.84375,-12.15625,-18.90625
332,332,1727289899913,-0.03100586,-1.0276489,0.4328003,12.015625,-5.203125,-13.875
333,333,1727289899953,-0.06225586,-0.7756958,0.37445068,19.90625,-3.03125,-2.796875
334,334,1727289899993,-0.061279297,-0.73150635,0.33148193,9.0625,-6.203125,-2.265625
335,335,1727289900033,-0.051757812,-0.7319946,0.30145264,-0.90625,-4.4375,2.703125
336,336,1727289900073,-0.08862305,-0.78448486,0.33050537,-2.109375,-7.15625,-2.0
337,337,1727289900113,-0.08105469,-0.76763916,0.30633545,-5.3125,-6.90625,-6.203125
338,338,1727289900153,-0.096191406,-0.84161377,0.37664795,-6.75,-6.078125,-4.25
339,339,1727289900193,-0.15625,-0.82769775,0.39959717,-9.515625,0.09375,-1.25
340,340,1727289900233,-0.19238281,-0.7815552,0.39715576,-9.890625,2.09375,-2.203125
341,341,1727289900273,-0.1484375,-0.722229,0.43743896,-7.265625,3.515625,-2.75
342,342,1727289900313,-0.14672852,-0.6987915,0.40081787,-5.515625,3.0625,-3.203125
343,343,1727289900353,-0.1550293,-0.69976807,0.39276123,-2.65625,4.484375,-7.40625
344,344,1727289900393,-0.21289062,-0.8291626,0.43963623,-10.421875,8.125,-10.65625
345,345,1727289900433,-0.10839844,-1.1570435,0.4725952,-7.0625,1.1875,-20.609375
346,346,1727289900473,0.072265625,-1.3789673,0.60321045,6.859375,10.390625,-9.96875
347,347,1727289900513,0.20239258,-1.36969,0.87298584,-31.5625,32.453125,20.234375
348,348,1727289900553,0.052001953,-1.0073853,0.68377686,-6.65625,34.6875,24.5625
349,349,1727289900593,-0.10058594,-0.92437744,0.53533936,13.390625,32.828125,22.453125
350,350,1727289900633,0.076416016,-0.81329346,0.4533081,19.265625,4.828125,-11.484375
351,351,1727289900673,0.14282227,-0.94415283,0.53338623,14.03125,-7.890625,-22.15625
352,352,1727289900713,0.10888672,-0.8899536,0.47039795,13.828125,11.515625,2.34375
353,353,1727289900753,0.10058594,-0.75738525,0.43182373,0.609375,20.484375,14.09375
354,354,1727289900793,0.091796875,-0.68634033,0.45721436,-2.46875,11.953125,9.921875
355,355,1727289900833,0.09472656,-0.75250244,0.44207764,4.046875,6.25,2.453125
356,356,1727289900873,0.13598633,-0.75323486,0.41619873,8.546875,5.109375,-2.671875
357,357,1727289900913,0.11352539,-0.66778564,0.42938232,-1.3125,10.453125,5.09375
358,358,1727289900953,0.12133789,-0.7144165,0.4418335,-2.984375,2.234375,7.171875
359,359,1727289900993,0.09472656,-0.74102783,0.463562,3.1875,-14.453125,-7.53125
360,360,1727289901033,0.08569336,-0.7420044,0.46795654,3.84375,-11.390625,-4.875
361,361,1727289901073,0.0703125,-0.6716919,0.4586792,-6.28125,-9.71875,2.59375
362,362,1727289901113,0.040283203,-0.710022,0.3925171,1.890625,-17.296875,-5.5625
363,363,1727289901153,0.11279297,-0.9534302,0.42034912,8.59375,-22.796875,-8.21875
364,364,1727289901193,0.17700195,-1.3379517,0.33831787,22.921875,-21.953125,-1.6875
365,365,1727289901233,0.09790039,-1.2402954,0.22161865,34.0,-6.4375,9.828125
366,366,1727289901273,-0.024658203,-1.3684692,0.42962646,5.390625,-2.390625,16.5625
367,367,1727289901313,-0.110839844,-1.2717896,0.5414429,4.0,-18.015625,-5.03125
368,368,1727289901353,-0.088134766,-1.2251587,0.54559326,-12.625,-18.28125,-4.171875
369,369,1727289901393,-0.09472656,-1.0315552,0.2994995,4.703125,-14.203125,-13.21875
370,370,1727289901433,-0.05444336,-0.9924927,0.3529663,5.578125,-13.359375,-9.375
371,371,1727289901473,-0.109375,-0.86846924,0.29779053,12.484375,-9.765625,-6.984375
372,372,1727289901513,-0.14575195,-0.7901001,0.28826904,12.796875,-11.078125,-9.75
373,373,1727289901553,-0.1496582,-0.7710571,0.22625732,8.203125,-11.46875,-10.734375
374,374,1727289901593,-0.13232422,-0.87750244,0.24407959,-3.6875,-13.171875,-10.65625
375,375,1727289901633,-0.072753906,-0.987854,0.3192749,-8.71875,-3.984375,0.734375
376,376,1727289901673,-0.14111328,-0.93096924,0.3324585,-8.765625,3.59375,9.46875
377,377,1727289901713,-0.16503906,-0.817688,0.34539795,-12.296875,1.34375,6.828125
378,378,1727289901753,-0.18408203,-0.7835083,0.34368896,-10.515625,-1.421875,5.71875
379,379,1727289901793,-0.15722656,-0.74835205,0.3139038,-13.296875,0.515625,1.359375
380,380,1727289901833,-0.2211914,-0.7288208,0.322937,-13.828125,2.03125,4.546875
381,381,1727289901873,-0.22924805,-0.77593994,0.3703003,-16.453125,1.21875,-3.9375
382,382,1727289901913,-0.1899414,-0.8074341,0.42156982,-29.0625,7.828125,-7.328125
383,383,1727289901953,-0.18554688,-0.77227783,0.41864014,-23.578125,11.140625,-5.65625
384,384,1727289901993,-0.15234375,-0.6699829,0.44525146,-5.484375,13.234375,-4.6875
385,385,1727289902033,-0.083740234,-0.784729,0.45013428,-5.5625,7.6875,-9.40625
386,386,1727289902073,0.12963867,-1.2859497,0.53778076,-11.484375,-1.859375,-16.734375
387,387,1727289902113,0.13134766,-1.3977661,0.8065796,-16.375,47.609375,26.265625
388,388,1727289902153,-0.011474609,-1.0176392,0.70233154,-23.484375,40.15625,23.75
389,389,1727289902193,0.026123047,-1.0022583,0.7658081,5.296875,20.21875,9.078125
390,390,1727289902233,0.09838867,-1.0447388,0.638855,20.828125,12.53125,3.25
391,391,1727289902273,0.13891602,-0.8093872,0.58587646,26.71875,12.453125,3.6875
392,392,1727289902313,0.072021484,-0.7666626,0.4701538,24.546875,11.375,7.875
393,393,1727289902353,0.06298828,-0.68170166,0.4179077,16.78125,10.875,3.203125
394,394,1727289902393,0.10571289,-0.6433716,0.4430542,4.34375,6.9375,-5.078125
395,395,1727289902433,0.11450195,-0.692688,0.4298706,0.828125,4.421875,-5.3125
396,396,1727289902473,0.13061523,-0.73321533,0.44818115,0.359375,9.15625,1.421875
397,397,1727289902513,0.08984375,-0.6951294,0.43133545,3.859375,9.8125,2.09375
398,398,1727289902553,0.07324219,-0.7107544,0.41912842,8.34375,3.265625,-2.484375
399,399,1727289902593,0.10546875,-0.69195557,0.39959717,13.234375,-6.375,-8.65625
400,400,1727289902633,0.10205078,-0.70684814,0.43988037,0.1875,-11.65625,-5.859375
401,401,1727289902673,0.12768555,-0.80914307,0.4784546,-11.8125,-10.3125,2.453125
402,402,1727289902713,0.18896484,-1.0742798,0.4286499,-0.140625,-22.25,5.484375
403,403,1727289902753,0.29907227,-1.2905884,0.42523193,4.1875,-15.125,9.078125
404,404,1727289902793,-0.01977539,-1.166565,0.39007568,40.109375,-3.5625,14.703125
405,405,1727289902833,-0.15893555,-1.3496704,0.3727417,7.53125,-19.953125,-3.03125
406,406,1727289902873,-0.0847168,-1.2756958,0.4118042,8.796875,-23.21875,-25.484375
407,407,1727289902913,0.0014648438,-1.2105103,0.5751343,-17.6875,-8.125,-4.328125
408,408,1727289902953,-0.10522461,-0.8814087,0.3475952,-12.40625,1.625,2.453125
409,409,1727289902993,-0.10449219,-0.7908325,0.30560303,21.453125,-6.34375,-1.8125
410,410,1727289903033,-0.025146484,-0.8284302,0.31585693,11.6875,-6.59375,-4.296875
411,411,1727289903073,-0.037109375,-0.8394165,0.25164795,9.0625,-6.0,-6.671875
412,412,1727289903113,-0.10571289,-0.79278564,0.26849365,15.03125,-3.78125,-1.84375
413,413,1727289903153,-0.14282227,-0.755188,0.23846436,1.203125,-7.0625,-1.734375
414,414,1727289903193,-0.12158203,-0.80596924,0.24163818,-5.53125,-12.125,-6.09375
415,415,1727289903233,-0.08984375,-0.78253174,0.35394287,-11.359375,-4.34375,-1.578125
416,416,1727289903273,-0.14892578,-0.77716064,0.35516357,-17.6875,4.796875,7.890625
417,417,1727289903313,-0.12719727,-0.77130127,0.34783936,-20.078125,1.328125,-3.453125
418,418,1727289903353,-0.15844727,-0.8201294,0.41351318,-13.390625,5.6875,-4.1875
419,419,1727289903393,-0.22143555,-0.7925415,0.3427124,-8.203125,5.34375,-7.421875
420,420,1727289903433,-0.11987305,-0.9595337,0.3998413,-2.65625,-1.015625,-14.84375
421,421,1727289903473,0.018066406,-1.2649536,0.48724365,-19.453125,3.53125,-13.65625
422,422,1727289903513,0.13134766,-1.3757935,0.7526245,-27.953125,26.421875,16.734375
423,423,1727289903553,0.056152344,-1.1157837,0.7575073,-19.796875,30.71875,25.0
424,424,1727289903593,-0.03173828,-1.0530396,0.68499756,2.328125,19.6875,5.09375
425,425,1727289903633,0.057617188,-0.9434204,0.5570679,17.171875,11.546875,-2.375
426,426,1727289903673,0.1015625,-0.91729736,0.5778198,21.78125,6.25,1.140625
427,427,1727289903713,0.11987305,-0.8447876,0.5175171,17.203125,14.0,9.875
428,428,1727289903753,0.04272461,-0.72906494,0.48114014,3.421875,13.328125,8.203125
429,429,1727289903793,0.048583984,-0.6231079,0.42401123,0.4375,9.328125,0.03125
430,430,1727289903833,0.09448242,-0.6321411,0.42059326,4.359375,6.28125,-1.625
431,431,1727289903873,0.109375,-0.6904907,0.4171753,3.015625,0.125,-1.34375
432,432,1727289903913,0.103759766,-0.772522,0.46697998,2.34375,4.875,0.609375
433,433,1727289903953,0.083496094,-0.7593384,0.4767456,-11.578125,8.0,6.0
434,434,1727289903993,0.052246094,-0.7127075,0.44354248,-1.40625,-6.65625,-2.578125
435,435,1727289904033,0.09301758,-0.6995239,0.48187256,7.453125,-10.609375,-3.484375
436,436,1727289904073,0.09448242,-0.7515259,0.42108154,-3.171875,-11.359375,2.15625
437,437,1727289904113,0.2109375,-1.0093384,0.3637085,4.21875,-21.46875,6.640625
438,438,1727289904153,0.17382812,-1.1187134,0.34246826,33.875,-12.484375,9.453125
439,439,1727289904193,0.0075683594,-1.2488403,0.26385498,36.375,-10.640625,11.09375
440,440,1727289904233,-0.048583984,-1.4854126,0.35321045,19.640625,-25.03125,-14.8125
441,441,1727289904273,0.00024414062,-1.3721313,0.61590576,-25.34375,-20.921875,-31.9375
442,442,1727289904313,-0.17236328,-1.1008911,0.53900146,-30.484375,-3.5625,4.515625
443,443,1727289904353,-0.14550781,-0.8538208,0.30316162,0.25,-5.359375,-6.734375
444,444,1727289904393,-0.07470703,-0.8887329,0.31756592,15.90625,-6.53125,-6.203125
445,445,1727289904433,-0.06274414,-0.7942505,0.26507568,11.515625,-5.9375,-3.78125
446,446,1727289904473,-0.052246094,-0.7600708,0.30169678,-2.21875,-3.921875,-2.5625
447,447,1727289904513,-0.114990234,-0.75201416,0.3065796,-2.75,1.671875,7.859375
448,448,1727289904553,-0.13598633,-0.7354126,0.27215576,-3.359375,-1.375,3.046875
449,449,1727289904593,-0.12573242,-0.77789307,0.31585693,-6.65625,-2.328125,0.890625
450,450,1727289904633,-0.13110352,-0.79571533,0.32904053,-4.109375,-0.265625,-1.09375
451,451,1727289904673,-0.13061523,-0.74786377,0.35906982,-6.296875,3.75,1.265625
452,452,1727289904713,-0.18701172,-0.75787354,0.39813232,-13.28125,8.59375,-2.90625
453,453,1727289904753,-0.18652344,-0.76446533,0.3895874,-12.9375,6.890625,-8.171875
454,454,1727289904793,-0.12402344,-0.881897,0.39300537,-3.09375,1.0625,-10.78125
455,455,1727289904833,-0.0012207031,-1.0803833,0.4381714,-1.90625,-3.359375,-18.34375
456,456,1727289904873,0.084228516,-1.3731079,0.5651245,3.828125,10.453125,0.234375
457,457,1727289904913,0.15454102,-1.3618774,0.730896,-20.546875,29.15625,28.875
458,458,1727289904953,-0.03491211,-1.0401001,0.61273193,3.0,37.03125,29.5625
459,459,1727289904993,-0.009277344,-1.0674438,0.527771,3.453125,20.390625,6.296875
460,460,1727289905033,0.15039062,-0.9849243,0.45233154,16.765625,6.0625,-11.59375
461,461,1727289905073,0.13500977,-0.9590454,0.48162842,22.125,10.171875,-2.6875
462,462,1727289905113,0.091308594,-0.8274536,0.42913818,9.15625,16.640625,8.078125
463,463,1727289905153,0.068603516,-0.7005005,0.37420654,0.953125,14.578125,2.6875
464,464,1727289905193,0.096191406,-0.6626587,0.3505249,-4.4375,11.03125,-0.953125
465,465,1727289905233,0.13330078,-0.7053833,0.38519287,-4.15625,5.578125,-6.1875
466,466,1727289905273,0.11987305,-0.76885986,0.37982178,-1.671875,6.515625,-0.234375
467,467,1727289905313,0.19799805,-0.80010986,0.42474365,-2.6875,11.53125,7.875
468,468,1727289905353,0.048583984,-0.74420166,0.40350342,5.4375,7.484375,2.0
469,469,1727289905393,0.040283203,-0.68341064,0.3829956,0.46875,0.1875,-4.625
470,470,1727289905433,0.047607422,-0.7214966,0.48553467,-8.046875,-11.015625,-8.625
471,471,1727289905473,0.040527344,-0.76226807,0.5297241,-17.59375,-14.078125,-5.9375
472,472,1727289905513,0.059814453,-0.92633057,0.30560303,0.1875,-20.25,-10.90625
473,473,1727289905553,0.20581055,-1.1477661,0.24627686,19.21875,-28.5,-24.125
474,474,1727289905593,0.22973633,-1.3106079,0.39813232,21.78125,-1.6875,12.9375
475,475,1727289905633,0.0017089844,-1.3987427,0.46014404,0.6875,9.15625,41.34375
476,476,1727289905673,-0.044921875,-1.2217407,0.41278076,3.25,-9.96875,5.5
477,477,1727289905713,-0.0625,-1.1592407,0.4935913,-5.796875,-13.203125,-6.484375
478,478,1727289905753,-0.0715332,-0.9246216,0.43206787,-22.71875,-16.921875,-14.5625
479,479,1727289905793,-0.040527344,-0.93170166,0.36395264,2.078125,-15.453125,-19.4375
480,480,1727289905833,-0.010986328,-0.8335571,0.31878662,17.859375,-3.515625,2.375
481,481,1727289905873,-0.048828125,-0.77545166,0.3139038,4.546875,-3.0,5.9375
482,482,1727289905913,-0.051757812,-0.78863525,0.28411865,-1.265625,-5.75,0.890625
483,483,1727289905953,-0.07446289,-0.76763916,0.3060913,-6.703125,-6.375,0.421875
484,484,1727289905993,-0.064941406,-0.75738525,0.3571167,-16.296875,-6.125,4.046875
485,485,1727289906033,-0.10668945,-0.76226807,0.34857178,-10.984375,-7.96875,0.5
486,486,1727289906073,-0.10961914,-0.73101807,0.385437,-14.4375,-0.171875,2.90625
487,487,1727289906113,-0.16088867,-0.706604,0.40570068,-10.9375,-2.046875,-1.9375
488,488,1727289906153,-0.16113281,-0.7671509,0.4640503,-6.171875,0.484375,-4.71875
489,489,1727289906193,-0.18334961,-0.77423096,0.44818115,-13.53125,2.1875,-11.796875
490,490,1727289906233,-0.1550293,-0.95147705,0.4569702,-4.765625,0.578125,-14.09375
491,491,1727289906273,-0.039794922,-1.2149048,0.51068115,5.578125,0.625,-20.140625
492,492,1727289906313,0.091552734,-1.1907349,0.6227417,-5.5,23.28125,-4.078125
493,493,1727289906353,0.1496582,-1.1921997,0.75994873,-13.921875,34.4375,15.640625
494,494,1727289906393,-0.0043945312,-1.0271606,0.68743896,2.4375,29.28125,10.921875
495,495,1727289906433,-0.014404297,-0.972229,0.6112671,19.71875,22.0,5.359375
496,496,1727289906473,0.08520508,-0.93927,0.49310303,18.171875,10.0,-6.484375
497,497,1727289906513,0.12841797,-0.9602661,0.5385132,18.15625,5.90625,-6.109375
498,498,1727289906553,0.08862305,-0.84820557,0.49627686,8.5,16.921875,9.9375
499,499,1727289906593,0.061279297,-0.753479,0.4328003,5.921875,17.34375,11.203125
500,500,1727289906633,0.08251953,-0.6746216,0.4076538,1.484375,8.515625,-0.328125
501,501,1727289906673,0.103271484,-0.694397,0.39569092,7.0,4.078125,-3.015625
502,502,1727289906713,0.12426758,-0.67559814,0.3949585,9.96875,4.59375,-1.9375
503,503,1727289906753,-0.118896484,-0.81036377,0.29730225,11.6875,10.703125,-6.0625
504,504,1727289906793,-0.092285156,-0.85406494,0.3209839,7.765625,-0.828125,-18.3125
505,505,1727289906833,-0.07348633,-0.93096924,0.31756592,1.578125,5.828125,-8.34375
506,506,1727289906873,-0.07055664,-0.9199829,0.3612671,-2.4375,15.65625,9.5
507,507,1727289906913,-0.10473633,-0.91412354,0.3756714,-8.703125,13.703125,15.046875
508,508,1727289906953,-0.10571289,-0.9487915,0.40301514,-7.734375,1.984375,3.53125
509,509,1727289906993,-0.061523438,-0.97076416,0.45062256,-3.875,-0.21875,-0.09375
510,510,1727289907033,-0.068359375,-0.9036255,0.48553467,-17.25,8.5625,8.59375
511,511,1727289907073,-0.07739258,-0.9385376,0.45672607,-20.390625,5.140625,16.046875
512,512,1727289907113,0.01171875,-1.0484009,0.47821045,-12.328125,-10.25,4.703125
513,513,1727289907153,0.038330078,-1.2058716,0.508728,-7.5625,-10.046875,-1.09375
514,514,1727289907193,0.041259766,-1.0874634,0.36297607,-2.734375,2.203125,-0.09375
515,515,1727289907233,0.10595703,-0.847229,0.24334717,7.328125,7.125,-2.015625
516,516,1727289907273,0.20776367,-0.678772,0.22137451,8.015625,-1.234375,-1.75
517,517,1727289907313,0.24414062,-0.737854,0.40081787,-6.046875,-8.65625,7.8125
518,518,1727289907353,0.19091797,-0.9673462,0.4701538,-11.40625,5.796875,26.375
519,519,1727289907393,0.010986328,-1.1460571,0.54315186,3.625,20.234375,16.78125
520,520,1727289907433,0.06274414,-0.81378174,0.33050537,-6.15625,-0.359375,-28.3125
521,521,1727289907473,0.037353516,-0.802063,0.44329834,5.515625,-2.203125,-24.84375
522,522,1727289907513,0.036621094,-0.7959595,0.46502686,4.578125,3.96875,-12.546875
523,523,1727289907553,0.045654297,-0.7883911,0.49041748,1.0625,19.484375,7.859375
524,524,1727289907593,0.036865234,-0.7918091,0.46722412,-4.28125,27.375,10.65625
525,525,1727289907633,-0.017089844,-0.78912354,0.46795654,-1.53125,20.203125,-9.375
526,526,1727289907673,-0.020263672,-0.8279419,0.5348511,-8.390625,15.609375,-23.3125
527,527,1727289907713,-0.01928711,-0.91973877,0.5360718,-9.984375,19.234375,-26.25
528,528,1727289907753,0.0012207031,-0.96051025,0.55267334,-13.078125,20.484375,-24.28125
529,529,1727289907793,-0.06201172,-0.9949341,0.62176514,-16.0,27.078125,-20.28125
530,530,1727289907833,-0.07080078,-1.0657349,0.49212646,-2.140625,21.40625,-27.234375
531,531,1727289907873,0.036132812,-1.1255493,0.49725342,16.34375,18.984375,-30.546875
532,532,1727289907913,0.03564453,-0.9697876,0.4664917,20.828125,26.03125,-29.09375
533,533,1727289907953,-0.0053710938,-0.79229736,0.34075928,21.8125,35.203125,-21.1875
534,534,1727289907993,-0.08227539,-0.72247314,0.17669678,32.0625,41.140625,-14.484375
535,535,1727289908033,-0.16333008,-0.7839966,0.06341553,27.53125,41.625,-17.734375
536,536,1727289908073,-0.21948242,-0.9558716,0.121276855,14.34375,31.4375,-30.46875
537,537,1727289908113,-0.13305664,-1.1878052,0.29803467,0.140625,31.71875,-21.328125
538,538,1727289908153,-0.118896484,-1.1116333,0.3222046,5.375,55.515625,10.296875
539,539,1727289908193,-0.1616211,-0.9182739,0.26971436,14.171875,60.421875,20.28125
540,540,1727289908233,-0.20751953,-0.8189087,0.21917725,14.296875,44.875,0.515625
541,541,1727289908273,-0.18041992,-0.8621216,0.21331787,5.375,28.28125,-18.171875
542,542,1727289908313,-0.15307617,-0.94659424,0.21673584,-0.390625,30.109375,-14.609375
543,543,1727289908353,-0.15942383,-0.9807739,0.27850342,-2.03125,38.484375,0.90625
544,544,1727289908393,-0.16723633,-0.91778564,0.2543335,-13.53125,36.421875,1.484375
545,545,1727289908433,-0.16503906,-0.9573364,0.2711792,-6.34375,25.71875,-2.90625
546,546,1727289908473,-0.08618164,-0.9841919,0.32757568,-3.75,17.953125,-2.53125
547,547,1727289908513,-0.03857422,-1.0100708,0.41522217,-8.984375,22.875,10.234375
548,548,1727289908553,-0.06225586,-1.0420532,0.43133545,-23.90625,26.890625,26.828125
549,549,1727289908593,-0.038085938,-1.166565,0.3788452,-13.671875,10.09375,8.53125
550,550,1727289908633,-0.0068359375,-1.2212524,0.35736084,-4.59375,5.015625,-13.875
551,551,1727289908673,-0.0024414062,-0.9807739,0.22406006,-4.53125,17.5,-20.0
552,552,1727289908713,0.12426758,-0.6921997,0.13226318,7.46875,28.875,-12.421875
553,553,1727289908753,0.2055664,-0.708313,0.2399292,-6.453125,25.640625,-0.015625
554,554,1727289908793,0.20678711,-0.8711548,0.42132568,-28.734375,32.421875,3.59375
555,555,1727289908833,0.026367188,-1.3110962,0.52948,-0.328125,47.28125,9.203125
556,556,1727289908873,0.032226562,-0.92681885,0.26385498,-37.8125,43.859375,-35.359375
557,557,1727289908913,0.06323242,-0.8369751,0.34002686,-2.671875,30.890625,-39.046875
558,558,1727289908953,0.05883789,-0.85943604,0.43572998,6.4375,34.421875,-32.296875
559,559,1727289908993,0.111328125,-0.833313,0.39935303,2.375,46.421875,-8.375
560,560,1727289909033,0.095458984,-0.8196411,0.39691162,-7.1875,59.25,6.15625
561,561,1727289909073,0.060546875,-0.84747314,0.3649292,-5.203125,47.359375,-12.4375
562,562,1727289909113,0.075683594,-0.86065674,0.47479248,-4.5,40.40625,-26.375
563,563,1727289909153,0.029296875,-0.9085083,0.49993896,-11.625,36.921875,-31.15625
564,564,1727289909193,0.029052734,-0.8909302,0.42718506,-6.359375,40.03125,-26.5625
565,565,1727289909233,0.028808594,-0.9109497,0.4647827,-12.453125,38.375,-25.671875
566,566,1727289909273,0.0146484375,-0.9417114,0.5841675,-18.8125,37.9375,-27.765625
567,567,1727289909313,-0.020996094,-0.9578247,0.55926514,-19.421875,36.0625,-27.328125
568,568,1727289909353,0.004638672,-1.2210083,0.44451904,9.140625,20.9375,-35.609375
569,569,1727289909393,0.14428711,-1.1533813,0.3595581,33.609375,24.453125,-47.515625
570,570,1727289909433,-0.0014648438,-0.86920166,0.26312256,31.9375,41.21875,-35.828125
571,571,1727289909473,-0.15014648,-0.64971924,0.062683105,20.875,39.90625,-23.09375
572,572,1727289909513,-0.13574219,-0.767395,0.030944824,21.109375,36.453125,-25.140625
573,573,1727289909553,-0.08496094,-1.0862427,0.18548584,-9.25,35.15625,-19.359375
574,574,1727289909593,-0.0034179688,-1.2886353,0.3546753,-7.0,47.375,3.28125
575,575,1727289909633,-0.0021972656,-1.0044556,0.32318115,4.125,55.8125,18.90625
576,576,1727289909673,-0.09033203,-0.8413696,0.28900146,20.484375,42.546875,14.53125
577,577,1727289909713,-0.17016602,-0.86431885,0.21331787,13.34375,23.171875,-12.140625
578,578,1727289909753,-0.11206055,-0.90582275,0.19110107,1.234375,3.65625,-32.734375
579,579,1727289909793,-0.059814453,-1.0159302,0.23651123,0.015625,13.28125,-13.59375
580,580,1727289909833,-0.08251953,-0.975647,0.27191162,4.421875,28.578125,13.6875
581,581,1727289909873,-0.14550781,-0.9365845,0.26141357,-6.234375,22.296875,10.34375
582,582,1727289909913,-0.068115234,-0.9595337,0.28411865,-8.921875,4.28125,-7.1875
583,583,1727289909953,0.0,-1.0276489,0.36444092,-4.625,1.03125,-0.515625
584,584,1727289909993,-0.00048828125,-0.9697876,0.3710327,-0.421875,9.328125,19.59375
585,585,1727289910033,-0.0126953125,-0.9751587,0.3012085,-1.78125,3.546875,20.6875
586,586,1727289910073,-0.009765625,-1.0291138,0.21820068,8.890625,-10.796875,0.875
587,587,1727289910113,0.06689453,-1.1045532,0.25775146,5.484375,-10.609375,-1.171875
588,588,1727289910153,0.10961914,-1.0513306,0.30194092,-11.03125,0.921875,15.5625
589,589,1727289910193,0.100097656,-0.878479,0.20501709,-1.40625,4.859375,22.65625
590,590,1727289910233,0.22827148,-0.70098877,0.26776123,3.421875,-0.546875,13.84375
591,591,1727289910273,0.25463867,-0.80426025,0.41204834,-20.765625,-0.703125,16.625
592,592,1727289910313,0.19873047,-1.0601196,0.38153076,-17.5,-3.34375,11.984375
593,593,1727289910353,0.23022461,-1.1235962,0.4196167,1.921875,3.84375,-1.78125
594,594,1727289910393,0.15625,-0.88726807,0.35321045,-21.015625,11.265625,-6.375
595,595,1727289910433,0.1081543,-0.8272095,0.4225464,-6.453125,2.09375,-7.46875
596,596,1727289910473,0.1538086,-0.7876587,0.39837646,4.6875,5.046875,-1.765625
597,597,1727289910513,0.14868164,-0.756897,0.37225342,5.140625,13.140625,5.875
598,598,1727289910553,0.16796875,-0.78985596,0.38446045,-6.234375,12.359375,2.9375
599,599,1727289910593,0.16772461,-0.85113525,0.42889404,-13.578125,9.296875,-7.0625
600,600,1727289910633,0.1652832,-0.8909302,0.480896,-8.625,10.40625,-11.21875
601,601,1727289910673,0.13623047,-0.833313,0.46844482,-11.515625,11.984375,-10.796875
602,602,1727289910713,0.0769043,-0.72369385,0.41912842,2.609375,11.328125,-13.40625
603,603,1727289910753,0.03540039,-0.70928955,0.39422607,8.203125,8.359375,-17.3125
604,604,1727289910793,0.080566406,-0.71539307,0.4225464,0.828125,4.984375,-19.609375
605,605,1727289910833,0.103027344,-0.7295532,0.39154053,-2.203125,8.5625,-15.015625
606,606,1727289910873,0.16113281,-0.75372314,0.34613037,6.015625,9.203125,-11.875
607,607,1727289910913,0.11767578,-0.69000244,0.38568115,-7.765625,10.828125,-8.671875
608,608,1727289910953,0.15722656,-0.74542236,0.37982178,0.734375,3.25,-3.625
609,609,1727289910993,0.21289062,-0.7439575,0.47503662,-18.734375,-4.484375,2.34375
610,610,1727289911033,0.20654297,-1.156311,0.4533081,-8.75,-19.125,10.953125
611,611,1727289911073,0.36108398,-1.4998169,0.4196167,10.8125,-12.0,16.703125
612,612,1727289911113,0.075683594,-1.2556763,0.46209717,20.0625,-10.328125,6.03125
613,613,1727289911153,-0.053466797,-1.1541138,0.49188232,-7.171875,-19.765625,-2.859375
614,614,1727289911193,-0.087646484,-1.0999146,0.5228882,1.328125,-24.765625,-7.953125
615,615,1727289911233,0.011962891,-1.1519165,0.47601318,-2.296875,-15.953125,-4.1875
616,616,1727289911273,-0.017822266,-1.0823364,0.37738037,3.0,-8.03125,-3.8125
617,617,1727289911313,-0.018310547,-0.94488525,0.35809326,12.6875,-6.578125,-1.90625
618,618,1727289911353,-0.01928711,-0.82476807,0.3468628,13.9375,-6.78125,-1.109375
619,619,1727289911393,-0.030029297,-0.78692627,0.32000732,16.265625,-7.640625,-3.109375
620,620,1727289911433,-0.064208984,-0.8147583,0.3048706,10.671875,-9.4375,-4.578125
621,621,1727289911473,-0.052490234,-0.8933716,0.25823975,9.1875,-10.1875,-4.375
622,622,1727289911513,-0.040283203,-0.9126587,0.31195068,10.625,-4.609375,-1.515625
623,623,1727289911553,-0.07836914,-0.93341064,0.32000732,2.65625,-0.265625,1.875
624,624,1727289911593,-0.08325195,-0.9109497,0.3085327,-1.234375,-0.375,-1.390625
625,625,1727289911633,-0.08691406,-0.8965454,0.36175537,-8.03125,1.265625,-0.71875
626,626,1727289911673,-0.08325195,-0.9182739,0.35638428,-10.578125,4.640625,0.625
627,627,1727289911713,-0.08300781,-0.91485596,0.33270264,-5.5,4.390625,-2.5
628,628,1727289911753,-0.092285156,-0.8701782,0.33636475,-3.890625,3.71875,-0.96875
629,629,1727289911793,-0.09472656,-0.86309814,0.3595581,-3.890625,4.265625,-0.34375
630,630,1727289911833,-0.09301758,-0.8167114,0.36663818,-6.8125,4.6875,-0.734375
631,631,1727289911873,-0.119140625,-0.803772,0.34783936,-5.359375,4.078125,-0.890625
632,632,1727289911913,-0.10546875,-0.7720337,0.34539795,-6.53125,2.984375,-2.421875
633,633,1727289911953,-0.119628906,-0.7276001,0.35247803,-4.46875,4.15625,-2.640625
634,634,1727289911993,-0.19750977,-0.72125244,0.34954834,-4.171875,4.890625,-4.953125
635,635,1727289912033,-0.11816406,-0.75079346,0.3312378,-6.421875,-0.3125,-11.28125
636,636,1727289912073,-0.11035156,-1.0872192,0.46966553,-7.640625,-2.40625,-16.984375
637,637,1727289912113,0.055908203,-1.3880005,0.49700928,-2.421875,6.890625,-8.34375
638,638,1727289912153,0.23925781,-1.4043579,0.7147827,-20.0625,25.828125,18.109375
639,639,1727289912193,0.03515625,-1.1211548,0.6066284,-14.90625,28.15625,23.890625
640,640,1727289912233,-0.08300781,-1.0322876,0.5529175,7.90625,20.671875,14.65625
641,641,1727289912273,0.07080078,-0.9299927,0.4467163,4.765625,5.59375,-7.640625
642,642,1727289912313,0.11376953,-0.92388916,0.50823975,7.328125,1.25,-8.953125
643,643,1727289912353,0.13696289,-0.86553955,0.46673584,2.078125,8.6875,3.265625
644,644,1727289912393,0.15917969,-0.7671509,0.44281006,-2.4375,17.015625,18.390625
645,645,1727289912433,0.14233398,-0.7324829,0.3998413,-5.03125,16.109375,19.265625
646,646,1727289912473,0.16503906,-0.76104736,0.44866943,1.46875,8.015625,9.015625
647,647,1727289912513,0.15527344,-0.8562622,0.4940796,1.390625,4.53125,3.546875
648,648,1727289912553,0.1274414,-0.7984009,0.4586792,-2.875,5.03125,0.125
649,649,1727289912593,0.095214844,-0.73028564,0.46673584,10.390625,5.46875,-0.234375
650,650,1727289912633,0.072753906,-0.6621704,0.45648193,2.59375,2.90625,-4.40625
651,651,1727289912673,0.03149414,-0.64263916,0.37664795,7.546875,-0.03125,-9.140625
652,652,1727289912713,0.10083008,-0.6670532,0.39178467,2.890625,-4.140625,-11.578125
653,653,1727289912753,0.16137695,-0.7901001,0.46185303,0.8125,-9.453125,-11.0
654,654,1727289912793,0.12646484,-0.7913208,0.5272827,-2.75,-4.046875,0.171875
655,655,1727289912833,0.026611328,-0.7671509,0.41497803,12.328125,2.359375,5.171875
656,656,1727289912873,0.028320312,-0.7576294,0.4647827,4.34375,-9.265625,-6.640625
657,657,1727289912913,0.07910156,-0.9651489,0.3998413,-9.59375,-26.453125,-12.171875
658,658,1727289912953,0.23291016,-1.3086548,0.5397339,0.3125,-28.90625,-4.71875
659,659,1727289912993,0.084472656,-1.0996704,0.35882568,41.953125,7.421875,22.265625
660,660,1727289913033,-0.09472656,-1.0576782,0.2518921,28.515625,-4.75,7.9375
661,661,1727289913073,-0.03857422,-1.1538696,0.39178467,5.34375,-31.421875,-20.734375
662,662,1727289913113,-0.029541016,-1.3718872,0.6293335,-12.671875,-14.109375,-11.171875
663,663,1727289913153,-0.04321289,-1.1231079,0.3456421,-24.65625,5.734375,6.703125
664,664,1727289913193,-0.072265625,-0.9378052,0.34539795,6.171875,3.734375,6.140625
665,665,1727289913233,-0.079589844,-0.83477783,0.33416748,7.53125,-0.75,5.453125
666,666,1727289913273,-0.07006836,-0.7503052,0.27850342,7.359375,-5.578125,-2.6875
667,667,1727289913313,-0.07788086,-0.7349243,0.33270264,-6.28125,-3.296875,0.359375
668,668,1727289913353,-0.06762695,-0.7786255,0.30999756,-8.53125,-7.15625,2.1875
669,669,1727289913393,-0.05102539,-0.79156494,0.28826904,1.328125,-9.125,-2.46875
670,670,1727289913433,-0.09399414,-0.7554321,0.34735107,9.703125,-1.1875,3.375
671,671,1727289913473,-0.13134766,-0.6838989,0.29852295,-0.5,1.484375,-1.109375
672,672,1727289913513,-0.19091797,-0.7383423,0.2880249,-7.328125,2.265625,-6.34375
673,673,1727289913553,-0.17211914,-0.8826294,0.3463745,-11.28125,1.640625,-11.125
674,674,1727289913593,-0.16064453,-0.9963989,0.38763428,-8.15625,6.21875,-9.28125
675,675,1727289913633,0.0041503906,-1.0098267,0.3834839,-2.765625,5.796875,-7.5625
676,676,1727289913673,0.057128906,-1.1455688,0.4755249,-4.328125,8.46875,-1.859375
677,677,1727289913713,0.18457031,-1.3982544,0.6420288,-20.71875,18.421875,13.140625
678,678,1727289913753,0.1508789,-1.319397,0.682312,-15.0,26.828125,22.796875
679,679,1727289913793,0.072021484,-0.9746704,0.5404663,-2.9375,25.96875,11.546875
680,680,1727289913833,0.09326172,-0.92755127,0.47528076,2.921875,10.921875,-2.921875
681,681,1727289913873,0.14208984,-0.9133911,0.49725342,14.125,3.625,-2.203125
682,682,1727289913913,0.1887207,-0.8755493,0.46990967,3.6875,8.28125,5.9375
683,683,1727289913953,0.16064453,-0.81036377,0.4520874,2.5,16.09375,14.390625
684,684,1727289913993,0.14526367,-0.73565674,0.39642334,-3.203125,11.546875,8.125
685,685,1727289914033,0.12207031,-0.71295166,0.41107178,5.171875,6.171875,-1.046875
686,686,1727289914073,0.09057617,-0.68951416,0.37371826,5.3125,4.0,-7.234375
687,687,1727289914113,0.09472656,-0.67437744,0.3727417,4.734375,3.703125,-8.171875
688,688,1727289914153,0.09326172,-0.7017212,0.41229248,0.265625,-0.375,-7.875
689,689,1727289914193,0.15258789,-0.7815552,0.4562378,-2.515625,-3.28125,-5.703125
690,690,1727289914233,0.10449219,-0.79351807,0.4677124,0.359375,0.125,-3.3125
691,691,1727289914273,0.11035156,-0.7481079,0.4664917,-4.625,1.421875,-2.03125
692,692,1727289914313,0.0769043,-0.78302,0.44818115,0.265625,-5.34375,-3.609375
693,693,1727289914353,0.09423828,-0.9055786,0.3949585,-4.84375,-16.6875,-6.6875
694,694,1727289914393,0.11694336,-1.1231079,0.27191162,18.640625,-26.265625,-15.015625
695,695,1727289914433,0.2055664,-1.112854,0.35491943,25.984375,-6.484375,-2.75
696,696,1727289914473,0.0012207031,-1.3242798,0.37347412,3.203125,-0.75,31.171875
697,697,1727289914513,0.009765625,-1.2498169,0.41131592,8.359375,-15.203125,0.515625
698,698,1727289914553,-0.083984375,-1.3069458,0.59173584,-11.6875,0.921875,11.453125
699,699,1727289914593,-0.13330078,-1.0088501,0.31854248,-14.90625,-7.921875,-12.765625
700,700,1727289914633,-0.07446289,-0.98516846,0.39764404,12.96875,-11.078125,-20.515625
701,701,1727289914673,0.0029296875,-0.8982544,0.3053589,7.265625,-3.484375,2.375
702,702,1727289914713,0.018066406,-0.7522583,0.28656006,2.328125,-4.734375,5.15625
703,703,1727289914753,0.010986328,-0.67510986,0.27215576,4.40625,3.09375,17.859375
704,704,1727289914793,-0.064697266,-0.614563,0.230896,1.46875,-3.40625,15.71875
705,705,1727289914833,-0.060302734,-0.7058716,0.27020264,-4.625,-14.734375,-1.359375
706,706,1727289914873,-0.09838867,-0.83843994,0.35858154,-10.953125,-14.546875,-6.5
707,707,1727289914913,-0.1015625,-0.8809204,0.3678589,-12.984375,-7.65625,-5.890625
708,708,1727289914953,-0.123046875,-0.86383057,0.43475342,-6.84375,-1.4375,-4.15625
709,709,1727289914993,-0.21411133,-0.86065674,0.46502686,-17.875,4.484375,-3.75
710,710,1727289915033,-0.17138672,-0.89678955,0.4298706,-15.109375,-1.15625,-10.8125
711,711,1727289915073,-0.084472656,-0.9993286,0.49139404,-2.34375,0.203125,-12.765625
712,712,1727289915113,-0.032958984,-1.1069946,0.39666748,12.734375,1.0625,-18.1875
713,713,1727289915153,0.079589844,-1.0383911,0.42401123,16.484375,10.453125,-9.171875
714,714,1727289915193,0.18920898,-1.1524048,0.5060425,5.421875,20.59375,12.734375
715,715,1727289915233,0.037353516,-1.0691528,0.48651123,14.84375,27.125,25.71875
716,716,1727289915273,0.17260742,-1.0852661,0.42156982,3.234375,19.46875,21.328125
717,717,1727289915313,0.21240234,-1.0869751,0.50994873,5.421875,0.734375,2.0
718,718,1727289915353,0.084472656,-0.98809814,0.4743042,4.53125,2.515625,2.09375
719,719,1727289915393,0.12011719,-0.89141846,0.37713623,10.140625,1.296875,2.46875
720,720,1727289915433,0.123535156,-0.7998657,0.4328003,2.484375,-0.234375,1.78125
721,721,1727289915473,0.048339844,-0.72735596,0.3624878,-3.421875,1.15625,2.34375
722,722,1727289915513,0.042236328,-0.6802368,0.34051514,7.546875,0.34375,-3.4375
723,723,1727289915553,0.05126953,-0.72979736,0.43084717,-4.3125,-0.984375,-7.453125
724,724,1727289915593,0.025146484,-0.7341919,0.35247803,-16.34375,-0.859375,-12.0
725,725,1727289915633,0.06762695,-0.7407837,0.44818115,-11.375,1.84375,-8.109375
726,726,1727289915673,0.051513672,-0.73638916,0.4015503,-6.515625,-2.3125,-6.140625
727,727,1727289915713,0.0871582,-0.7835083,0.5109253,-5.46875,-2.515625,-1.046875
728,728,1727289915753,0.05419922,-0.8206177,0.47113037,-14.359375,-7.703125,-0.328125
729,729,1727289915793,0.11010742,-1.0149536,0.4491577,-7.59375,-14.375,4.890625
730,730,1727289915833,0.18481445,-1.0986938,0.2843628,9.65625,-21.953125,-3.3125
731,731,1727289915873,0.048339844,-1.0969849,0.38153076,28.921875,2.296875,18.640625
732,732,1727289915913,-0.0703125,-1.3718872,0.25457764,-8.625,-14.078125,5.59375
733,733,1727289915953,-0.026855469,-1.3928833,0.619812,23.953125,-28.734375,-22.046875
734,734,1727289915993,-0.1081543,-1.2200317,0.6039429,-31.65625,6.328125,11.421875
735,735,1727289916033,-0.18725586,-0.8623657,0.27923584,6.265625,-9.78125,-10.734375
736,736,1727289916073,-0.100097656,-0.8640747,0.37591553,10.359375,-13.15625,-14.859375
737,737,1727289916113,-0.0703125,-0.815979,0.3007202,6.671875,-7.5625,-6.3125
738,738,1727289916153,-0.11425781,-0.817688,0.28948975,9.234375,-4.28125,-6.171875
739,739,1727289916193,-0.119384766,-0.82159424,0.28118896,3.96875,0.03125,2.578125
740,740,1727289916233,-0.11279297,-0.8110962,0.28778076,2.046875,-6.5625,-4.21875
741,741,1727289916273,-0.12548828,-0.8621216,0.36712646,0.515625,-1.1875,-0.265625
742,742,1727289916313,-0.16870117,-0.8648071,0.35784912,-6.65625,4.640625,5.25
743,743,1727289916353,-0.1105957,-0.82818604,0.31903076,-4.53125,2.453125,2.96875
744,744,1727289916393,-0.14404297,-0.7625122,0.37420654,-2.390625,5.09375,6.21875
745,745,1727289916433,-0.16601562,-0.7515259,0.32318115,-1.40625,1.015625,0.640625
746,746,1727289916473,-0.13061523,-0.7918091,0.3986206,-7.25,2.8125,-1.390625
747,747,1727289916513,-0.2290039,-0.82110596,0.34002686,-8.640625,10.484375,0.546875
748,748,1727289916553,-0.1640625,-0.7732544,0.4015503,-11.796875,3.390625,-7.453125
749,749,1727289916593,-0.15576172,-0.878479,0.42669678,-10.4375,7.515625,-5.21875
750,750,1727289916633,-0.10253906,-1.0344849,0.3944702,-1.5625,-4.125,-13.015625
751,751,1727289916673,0.0546875,-1.3181763,0.49554443,11.0625,3.75,-6.78125
752,752,1727289916713,0.12524414,-1.2466431,0.6207886,-12.3125,25.609375,12.21875
753,753,1727289916753,-0.029541016,-1.130188,0.60272217,0.015625,31.0,24.75
754,754,1727289916793,-0.048339844,-1.0066528,0.5787964,6.1875,17.09375,18.125
755,755,1727289916833,0.061279297,-0.9649048,0.45794678,6.609375,1.4375,-5.1875
756,756,1727289916873,0.10961914,-0.9685669,0.5092163,15.359375,-2.078125,-6.359375
757,757,1727289916913,0.084228516,-0.92974854,0.47991943,2.3125,9.921875,9.65625
758,758,1727289916953,0.07519531,-0.7481079,0.3632202,5.015625,14.4375,15.515625
759,759,1727289916993,0.05078125,-0.67755127,0.36834717,3.609375,5.609375,1.34375
