,Unnamed: 0,timestamp,accel_x,accel_y,accel_z,gyro_x,gyro_y,gyro_z
0,0,1727276896348,-0.1328125,-0.829895,0.09832764,5.21875,44.4375,-8.3125
1,1,1727276896388,-0.15795898,-0.9011841,0.1762085,2.421875,44.578125,-10.578125
2,2,1727276896428,-0.1550293,-0.95025635,0.17254639,2.671875,45.46875,-16.59375
3,3,1727276896468,-0.13012695,-1.0213013,0.0018920898,5.234375,39.3125,-17.8125
4,4,1727276896508,-0.14355469,-1.0606079,-0.008605957,4.0,47.5,-11.84375
5,5,1727276896548,-0.110839844,-0.94976807,0.04071045,9.09375,60.828125,-3.265625
6,6,1727276896588,-0.10864258,-0.88287354,-0.035705566,15.859375,56.546875,2.5625
7,7,1727276896628,-0.027832031,-0.9956665,0.005065918,0.84375,25.375,2.140625
8,8,1727276896668,-0.023925781,-1.1790161,0.20574951,-8.609375,17.84375,-0.421875
9,9,1727276896708,-0.15600586,-1.1148071,0.20452881,0.453125,37.78125,1.71875
10,10,1727276896748,-0.25195312,-0.87994385,0.024597168,-4.921875,41.625,-2.59375
11,11,1727276896788,-0.16674805,-0.6253052,-0.039855957,-6.890625,21.796875,-9.53125
12,12,1727276896828,-0.16040039,-0.59454346,-0.0022583008,-3.296875,10.25,-14.96875
13,13,1727276896868,-0.119628906,-0.67974854,0.12762451,-1.34375,8.296875,-10.234375
14,14,1727276896908,-0.13354492,-0.71466064,0.062683105,-3.46875,10.90625,-2.5625
15,15,1727276896948,-0.0871582,-0.6885376,0.14007568,-4.859375,12.390625,-2.71875
16,16,1727276896988,-0.15966797,-0.5713501,0.07318115,-4.09375,10.71875,-3.453125
17,17,1727276897028,-0.111083984,-0.75323486,0.046813965,0.1875,-5.34375,-6.8125
18,18,1727276897068,0.053466797,-1.0335083,0.02532959,-0.234375,-11.90625,-7.796875
19,19,1727276897108,0.03955078,-2.0,0.60809326,30.71875,13.9375,28.15625
20,20,1727276897148,-0.027832031,-1.2471313,1.0431519,-41.6875,78.546875,8.578125
21,21,1727276897188,-0.38549805,-1.33844,-0.023010254,2.5,19.96875,-9.046875
22,22,1727276897228,-0.2199707,-1.1199341,-0.011779785,8.90625,-36.296875,-6.296875
23,23,1727276897268,-0.03540039,-1.0061646,0.51605225,-5.578125,-9.8125,-8.65625
24,24,1727276897308,-0.01928711,-0.87628174,0.5199585,3.015625,18.75,-0.84375
25,25,1727276897348,-0.23632812,-0.706604,0.13983154,0.046875,18.828125,2.796875
26,26,1727276897388,-0.28344727,-0.4331665,-0.006652832,0.546875,3.25,-20.265625
27,27,1727276897428,-0.15991211,-0.40997314,0.09564209,3.359375,7.265625,-34.734375
28,28,1727276897468,0.03955078,-0.32965088,0.1864624,16.6875,4.28125,-34.015625
29,29,1727276897508,0.044189453,-0.49371338,0.26922607,7.96875,4.421875,-12.0
30,30,1727276897548,0.12841797,-0.8164673,0.15789795,-4.390625,-16.640625,-0.171875
31,31,1727276897588,-0.04345703,-2.0,-0.16925049,-14.96875,-36.578125,-0.078125
32,32,1727276897628,-0.41748047,-1.4234009,0.27093506,-3.3125,43.984375,10.078125
33,33,1727276897668,-0.47680664,-1.6973267,-0.15704346,18.859375,8.703125,4.625
34,34,1727276897708,-0.3334961,-1.1055298,0.44403076,-6.453125,10.671875,-3.296875
35,35,1727276897748,-0.4885254,-1.1970825,0.29730225,9.53125,8.9375,-2.578125
36,36,1727276897788,-0.4729004,-0.9746704,0.13739014,-2.25,-10.3125,-4.0625
37,37,1727276897828,-0.28271484,-0.81915283,-0.04498291,-6.21875,-4.765625,-15.515625
38,38,1727276897868,-0.0769043,-0.6289673,-0.05230713,1.015625,-10.328125,-13.546875
39,39,1727276897908,-0.019042969,-0.5696411,0.050964355,17.390625,-23.078125,5.71875
40,40,1727276897948,-0.025878906,-0.57940674,0.10394287,5.6875,-5.734375,3.984375
41,41,1727276897988,-0.18359375,-0.6165161,0.17132568,-11.609375,3.78125,-5.953125
42,42,1727276898028,-0.30029297,-0.7324829,0.2243042,-21.859375,-2.03125,-15.296875
43,43,1727276898068,-0.42333984,-0.75372314,0.121032715,-29.078125,-11.0625,-16.953125
44,44,1727276898108,-0.5124512,-0.8286743,0.08148193,-15.09375,-19.40625,-12.46875
45,45,1727276898148,-0.3347168,-0.9180298,-0.05670166,-5.328125,-30.109375,-3.140625
46,46,1727276898188,0.091796875,-1.3757935,0.09539795,30.9375,-36.609375,3.28125
47,47,1727276898228,0.11230469,-1.6748657,0.5343628,23.59375,-1.140625,19.71875
48,48,1727276898268,-0.51708984,-1.9868774,0.41375732,-18.46875,-1.71875,30.890625
49,49,1727276898308,-0.62841797,-1.0076294,0.24261475,-17.125,0.40625,14.734375
50,50,1727276898348,-0.44360352,-0.8464966,-0.12237549,-1.640625,-16.359375,-10.75
51,51,1727276898388,-0.31079102,-0.64190674,0.090270996,-9.1875,-28.546875,-15.921875
52,52,1727276898428,-0.19262695,-0.5857544,0.33441162,-2.5,-22.484375,-0.03125
53,53,1727276898468,-0.024414062,-0.53204346,0.31976318,-2.953125,-12.765625,11.9375
54,54,1727276898508,-0.046875,-0.42486572,0.24676514,-0.21875,-10.0625,9.65625
55,55,1727276898548,-0.10595703,-0.4656372,0.23138428,-1.9375,-17.21875,-4.265625
56,56,1727276898588,-0.14331055,-0.70025635,0.19989014,-7.140625,-29.21875,-12.5
57,57,1727276898628,-0.23950195,-1.1050415,0.19378662,-5.609375,-46.171875,-11.109375
58,58,1727276898668,-0.4140625,-1.1780396,0.37738037,-6.546875,-22.25,-0.125
59,59,1727276898708,-0.62231445,-1.2583618,-0.020812988,-24.859375,-45.015625,-3.15625
60,60,1727276898748,-0.3552246,-1.1340942,-0.190979,4.75,-12.03125,23.515625
61,61,1727276898788,-0.15454102,-1.552063,0.08758545,5.09375,9.15625,52.671875
62,62,1727276898828,-0.27978516,-1.5449829,0.2909546,-6.421875,3.25,-10.359375
63,63,1727276898868,0.0014648438,-1.5786743,0.4159546,-7.78125,-23.921875,-5.78125
64,64,1727276898908,0.072509766,-0.94317627,0.16790771,-7.78125,-37.421875,12.703125
65,65,1727276898948,0.011962891,-0.5706177,0.025817871,-14.34375,-54.046875,13.515625
66,66,1727276898988,-0.029296875,-0.5342407,-0.018371582,-1.8125,-52.578125,16.359375
67,67,1727276899028,-0.100097656,-0.51104736,-0.046447754,11.203125,-63.0,22.15625
68,68,1727276899068,-0.1616211,-0.5730591,-0.0115356445,2.453125,-50.46875,15.375
69,69,1727276899108,-0.42749023,-0.9993286,-0.0491333,-7.984375,-25.828125,4.84375
70,70,1727276899148,-0.69873047,-1.5195923,0.15472412,-5.203125,-39.75,0.65625
71,71,1727276899188,-0.3942871,-1.2354126,0.2892456,-20.78125,-24.296875,-8.9375
72,72,1727276899228,-0.17797852,-1.0806274,0.25091553,-27.578125,-35.09375,-12.53125
73,73,1727276899268,-0.1743164,-1.1460571,-0.10650635,-22.421875,-56.078125,0.484375
74,74,1727276899308,0.34765625,-1.3098755,0.11395264,-17.859375,-40.6875,32.9375
75,75,1727276899348,0.63916016,-0.91485596,0.26507568,-13.234375,-10.9375,15.421875
76,76,1727276899388,-0.0715332,-0.69415283,0.20965576,-15.5625,-21.53125,2.796875
77,77,1727276899428,-0.7805176,-1.2927856,-0.07183838,-8.40625,-27.046875,3.546875
78,78,1727276899468,-0.43896484,-0.89312744,0.25408936,-15.703125,-35.90625,4.984375
79,79,1727276899508,-0.10986328,-0.75006104,0.30755615,-19.171875,11.75,-2.75
80,80,1727276899548,-0.0031738281,-0.704895,0.24676514,4.703125,9.90625,-12.75
81,81,1727276899588,-0.055908203,-0.59552,0.18841553,16.671875,3.328125,-8.515625
82,82,1727276899628,-0.06640625,-0.6177368,0.27264404,8.28125,-15.0,-4.6875
83,83,1727276899668,-0.09765625,-0.7637329,0.2826538,10.328125,-2.9375,-4.796875
84,84,1727276899708,-0.107910156,-0.89312744,0.1539917,20.4375,0.484375,-7.25
85,85,1727276899748,-0.06518555,-0.6577759,0.082458496,19.53125,-0.328125,-10.296875
86,86,1727276899788,0.046875,-0.63067627,0.086120605,5.5,-7.375,-13.0625
87,87,1727276899828,0.0061035156,-0.9072876,0.19744873,-7.828125,-8.90625,-13.078125
88,88,1727276899868,-0.15722656,-1.1602173,0.26654053,-15.296875,-14.6875,-5.484375
89,89,1727276899908,-0.22509766,-1.263977,-0.04107666,0.78125,-37.984375,8.140625
90,90,1727276899948,-0.21362305,-1.2959595,-0.0012817383,-2.0,-15.28125,10.75
91,91,1727276899988,-0.390625,-1.2883911,0.11029053,-8.1875,10.578125,12.484375
92,92,1727276900028,-0.626709,-1.583313,-0.13946533,18.625,9.15625,18.203125
93,93,1727276900068,-0.47631836,-1.3718872,0.12738037,-12.03125,21.5625,5.46875
94,94,1727276900108,-0.19995117,-0.86016846,0.17108154,-6.9375,10.953125,1.546875
95,95,1727276900148,0.00390625,-0.7227173,0.16204834,3.09375,-2.453125,-0.40625
96,96,1727276900188,0.12109375,-0.69854736,0.11126709,8.328125,-21.734375,-2.8125
97,97,1727276900228,0.064453125,-0.739563,0.07904053,-11.21875,-13.28125,-0.734375
98,98,1727276900268,-0.07836914,-0.76519775,0.00970459,-24.234375,-16.71875,7.46875
99,99,1727276900308,-0.25439453,-0.6265259,0.09857178,-12.875,-15.375,10.40625
100,100,1727276900348,-0.42211914,-0.5713501,0.031188965,-8.859375,1.203125,2.6875
101,101,1727276900388,-0.6062012,-0.8062134,0.061706543,-20.359375,-9.734375,-10.9375
102,102,1727276900428,-0.38427734,-1.0818481,0.2682495,-21.0625,-6.515625,-13.453125
103,103,1727276900468,-0.08105469,-1.046936,0.1696167,-21.09375,-9.9375,-15.96875
104,104,1727276900508,-0.07080078,-1.3091431,0.23577881,16.34375,-19.921875,-2.53125
105,105,1727276900548,0.2722168,-1.2070923,0.3949585,20.0,-5.21875,15.59375
106,106,1727276900588,0.2133789,-1.2910767,0.5140991,3.046875,1.15625,23.171875
107,107,1727276900628,-0.30029297,-1.3567505,0.47406006,6.046875,6.78125,8.34375
108,108,1727276900668,-0.39916992,-1.031311,0.1762085,-0.96875,-8.296875,-4.625
109,109,1727276900708,-0.12451172,-0.9053345,0.12860107,2.421875,-14.109375,-16.9375
110,110,1727276900748,-0.12426758,-0.77130127,0.25286865,0.71875,-14.078125,-17.375
111,111,1727276900788,-0.1459961,-0.6765747,0.291687,1.453125,-6.921875,-2.09375
112,112,1727276900828,-0.0703125,-0.47784424,0.18963623,3.484375,-3.296875,2.40625
113,113,1727276900868,-0.043701172,-0.4829712,0.039489746,4.421875,-10.375,-6.640625
114,114,1727276900908,0.0,-0.6174927,0.10394287,8.625,-8.125,-7.328125
115,115,1727276900948,-0.038085938,-0.7822876,0.11395264,4.1875,-13.078125,2.171875
116,116,1727276900988,-0.1809082,-0.894104,0.2904663,-6.359375,4.234375,5.609375
117,117,1727276901028,-0.45141602,-1.223938,0.17376709,-1.484375,-15.484375,0.234375
118,118,1727276901068,-0.44799805,-2.0,0.05316162,-2.3125,-44.90625,6.328125
119,119,1727276901108,-0.39697266,-1.3779907,0.14984131,-32.1875,-4.9375,-1.75
120,120,1727276901148,-0.45166016,-1.1260376,-0.025939941,-9.21875,22.734375,3.84375
121,121,1727276901188,-0.1171875,-0.9998169,0.09539795,4.1875,3.015625,9.1875
122,122,1727276901228,-0.036376953,-1.097229,0.15692139,-6.953125,-15.9375,16.15625
123,123,1727276901268,-0.09765625,-1.0249634,0.3241577,-11.015625,-12.109375,16.90625
124,124,1727276901308,-0.16967773,-0.7605591,0.15106201,-10.84375,-2.421875,10.84375
125,125,1727276901348,-0.15673828,-0.6067505,0.003112793,-5.515625,-20.875,8.8125
126,126,1727276901388,-0.007080078,-0.60528564,0.093444824,-6.984375,-40.609375,10.09375
127,127,1727276901428,0.15356445,-0.7398071,0.15228271,-9.015625,-37.328125,14.125
128,128,1727276901468,-0.0068359375,-0.7258911,0.16131592,-8.953125,-20.46875,14.265625
129,129,1727276901508,-0.34301758,-0.7817993,0.14202881,-0.421875,-24.375,13.53125
130,130,1727276901548,-0.55029297,-0.8128052,0.2345581,-8.578125,-43.484375,-2.46875
131,131,1727276901588,-0.44262695,-1.0005493,0.2321167,-18.046875,-31.609375,-21.46875
132,132,1727276901628,-0.1159668,-1.123352,-0.00079345703,-18.03125,-47.421875,-22.5625
133,133,1727276901668,0.20361328,-1.4175415,0.48553467,-6.828125,-22.59375,-3.78125
134,134,1727276901708,0.23046875,-1.2136841,0.62835693,-1.375,-13.09375,19.546875
135,135,1727276901748,-0.16699219,-1.7920532,0.23358154,-17.15625,-10.96875,29.640625
136,136,1727276901788,-0.5305176,-1.3709106,0.6090698,1.828125,-25.859375,0.515625
137,137,1727276901828,-0.21459961,-0.9212036,0.1708374,-8.640625,-10.34375,-19.703125
138,138,1727276901868,-0.140625,-0.6226196,0.16864014,-5.0625,-15.390625,-9.171875
139,139,1727276901908,-0.05102539,-0.47930908,0.24554443,9.34375,-18.546875,6.015625
140,140,1727276901948,-0.052490234,-0.4776001,0.307312,6.34375,-21.640625,3.421875
141,141,1727276901988,-0.084228516,-0.62286377,0.27459717,-4.21875,-21.078125,-4.203125
142,142,1727276902028,-0.2446289,-0.7017212,0.2555542,6.1875,-14.46875,-4.21875
143,143,1727276902068,-0.23291016,-0.9783325,0.29193115,21.734375,-32.6875,6.671875
144,144,1727276902108,-0.28833008,-1.3137817,0.46795654,15.96875,-21.703125,9.78125
145,145,1727276902148,-0.44750977,-1.1841431,0.46575928,0.453125,-4.796875,3.09375
146,146,1727276902188,-0.5991211,-1.0383911,0.25750732,8.046875,-2.140625,-15.84375
147,147,1727276902228,-0.30541992,-1.1484985,0.14837646,-6.59375,-41.390625,-17.046875
148,148,1727276902268,0.07861328,-1.3638306,0.12200928,-8.578125,-11.765625,4.09375
149,149,1727276902308,0.08154297,-0.97735596,0.08709717,-22.71875,5.71875,26.59375
150,150,1727276902348,-0.023925781,-0.6326294,-0.16436768,-1.03125,15.859375,36.09375
151,151,1727276902388,-0.20117188,-0.7966919,-0.28033447,18.015625,-7.296875,23.5
152,152,1727276902428,-0.14941406,-1.1675415,0.1317749,-3.921875,-15.625,-4.953125
153,153,1727276902468,0.088378906,-1.4036255,0.43914795,-16.15625,-13.171875,1.359375
154,154,1727276902508,0.1706543,-0.87677,0.0848999,4.40625,-28.59375,15.0625
155,155,1727276902548,0.005126953,-0.6436157,-0.101867676,7.375,-53.984375,24.328125
156,156,1727276902588,-0.15600586,-0.72979736,0.055603027,-7.046875,-36.828125,16.796875
157,157,1727276902628,-0.2055664,-0.9780884,0.16693115,-3.65625,-32.84375,6.828125
158,158,1727276902668,-0.12768555,-1.0095825,0.2399292,-6.8125,-18.78125,-3.359375
159,159,1727276902708,-0.111328125,-0.95025635,0.20111084,-2.90625,-30.0,-4.046875
160,160,1727276902748,-0.095214844,-0.76519775,0.16864014,-3.765625,-32.859375,-7.84375
161,161,1727276902788,-0.09326172,-0.5635376,0.03753662,-15.15625,-14.8125,-12.0625
162,162,1727276902828,-0.17797852,-0.581604,-0.0015258789,-16.078125,-8.828125,-9.609375
163,163,1727276902868,-0.21020508,-0.7595825,0.13885498,-13.03125,-4.40625,-9.71875
164,164,1727276902908,-0.31811523,-1.0244751,0.13665771,-19.1875,-4.890625,-5.46875
165,165,1727276902948,-0.28051758,-1.0349731,0.24310303,-16.703125,-18.34375,-0.140625
166,166,1727276902988,-0.15185547,-1.0332642,0.14520264,-7.515625,-22.484375,-1.96875
167,167,1727276903028,0.1694336,-1.3318481,0.33294678,14.484375,-9.640625,-1.03125
168,168,1727276903068,0.19702148,-1.2937622,0.3925171,15.84375,-0.390625,6.625
169,169,1727276903108,-0.3479004,-1.6555786,0.46795654,3.265625,6.609375,1.25
170,170,1727276903148,-0.44482422,-1.0457153,0.3036499,-13.578125,15.046875,-15.5
171,171,1727276903188,-0.19384766,-0.8584595,0.023620605,10.546875,-0.453125,-12.015625
172,172,1727276903228,0.020996094,-0.78302,0.21966553,6.546875,-8.59375,-7.546875
173,173,1727276903268,-0.06738281,-0.76348877,0.39886475,-1.53125,-5.78125,-2.640625
174,174,1727276903308,-0.110839844,-0.6699829,0.2699585,-9.890625,-6.15625,3.5625
175,175,1727276903348,-0.16064453,-0.56036377,0.12786865,6.84375,2.359375,3.796875
176,176,1727276903388,-0.1772461,-0.5552368,0.11834717,22.109375,-3.046875,-6.875
177,177,1727276903428,-0.09008789,-0.61724854,0.18206787,19.71875,-11.296875,-13.546875
178,178,1727276903468,-0.11767578,-0.8435669,0.15423584,0.859375,-8.125,-7.078125
179,179,1727276903508,-0.2775879,-1.2068481,0.20843506,-3.609375,-9.03125,-2.6875
180,180,1727276903548,-0.44677734,-1.1013794,0.34344482,-0.453125,-1.75,-2.109375
181,181,1727276903588,-0.44311523,-0.8308716,0.16107178,6.5,3.890625,-7.484375
182,182,1727276903628,-0.38549805,-1.1445923,-0.16119385,-1.625,-25.84375,0.96875
183,183,1727276903668,-0.3125,-1.1445923,0.036315918,-11.421875,-8.4375,3.625
184,184,1727276903708,-0.2705078,-2.0,0.011413574,15.125,28.046875,20.65625
185,185,1727276903748,-0.27612305,-1.239563,0.33392334,-32.828125,31.53125,2.546875
186,186,1727276903788,-0.28393555,-0.7974243,0.12689209,3.609375,25.890625,-9.03125
187,187,1727276903828,-0.34692383,-0.60528564,0.08734131,11.3125,3.234375,-1.390625
188,188,1727276903868,-0.38867188,-0.55352783,0.09661865,1.78125,-20.78125,-1.203125
189,189,1727276903908,-0.25512695,-0.78082275,0.08514404,-3.171875,-5.421875,3.9375
190,190,1727276903948,0.0715332,-0.9949341,0.055603027,-10.84375,8.546875,16.890625
191,191,1727276903988,0.006591797,-0.8977661,0.13250732,-0.1875,-12.671875,15.0625
192,192,1727276904028,-0.072265625,-0.6987915,0.105651855,0.25,9.609375,-6.234375
193,193,1727276904068,-0.38916016,-0.5183716,0.19940186,-10.828125,1.375,-7.5
194,194,1727276904108,-0.5588379,-0.55670166,0.042663574,-8.984375,-4.8125,-0.734375
195,195,1727276904148,-0.41479492,-0.83380127,0.06488037,-13.234375,-15.34375,-5.640625
196,196,1727276904188,-0.34204102,-1.1235962,0.18011475,-9.0,-16.71875,-16.203125
197,197,1727276904228,-0.03955078,-1.8301392,0.47894287,33.046875,-23.90625,-13.0
198,198,1727276904268,0.40673828,-1.5684204,0.37591553,3.1875,-4.8125,26.75
199,199,1727276904308,0.4638672,-0.9234009,0.21160889,-24.140625,14.953125,24.34375
200,200,1727276904348,-0.13671875,-1.1807251,0.17230225,4.0,-1.171875,7.40625
201,201,1727276904388,-0.7480469,-1.2608032,0.26434326,17.34375,-32.59375,5.734375
202,202,1727276904428,-0.36791992,-0.91485596,0.21966553,-10.109375,-8.796875,-21.65625
203,203,1727276904468,-0.13598633,-0.6968384,0.14398193,4.421875,0.734375,-18.640625
204,204,1727276904508,-0.08129883,-0.43170166,0.06097412,17.59375,7.3125,1.734375
205,205,1727276904548,-0.07080078,-0.26934814,0.124694824,15.515625,5.734375,6.28125
206,206,1727276904588,-0.18676758,-0.37921143,0.093688965,-0.53125,11.625,-3.765625
207,207,1727276904628,-0.33862305,-0.7136841,0.09906006,6.25,8.21875,-23.859375
208,208,1727276904668,-0.21020508,-1.208313,0.19158936,20.84375,-6.125,-26.96875
209,209,1727276904708,0.057128906,-1.3169556,0.30511475,-1.796875,0.5625,-10.0625
210,210,1727276904748,-0.119628906,-1.1043091,-0.16656494,-12.8125,1.296875,-0.234375
211,211,1727276904788,-0.38012695,-1.2371216,-0.2654419,14.5,-22.328125,26.3125
212,212,1727276904828,-0.5522461,-1.7322388,-0.33599854,-2.546875,1.40625,22.484375
213,213,1727276904868,-0.39038086,-1.5449829,0.29730225,8.59375,30.765625,-13.9375
214,214,1727276904908,-0.47802734,-1.1187134,0.07489014,-3.609375,9.5,-13.46875
215,215,1727276904948,-0.35375977,-0.8789673,-0.031311035,7.5625,-16.890625,12.6875
216,216,1727276904988,-0.31762695,-0.78009033,-0.055236816,7.546875,-21.53125,12.9375
217,217,1727276905028,-0.29711914,-0.84503174,-0.03741455,-0.203125,10.984375,6.3125
218,218,1727276905068,-0.24121094,-0.802063,0.010192871,10.828125,1.890625,8.609375
219,219,1727276905108,-0.13012695,-0.72076416,0.02508545,-3.796875,-1.59375,-0.09375
220,220,1727276905148,-0.12182617,-0.67755127,-0.06011963,-13.34375,4.953125,-6.390625
221,221,1727276905188,-0.22558594,-0.6694946,-0.057434082,-4.125,8.421875,-4.875
222,222,1727276905228,-0.30371094,-0.6099243,-0.039123535,-12.640625,13.140625,-9.265625
223,223,1727276905268,-0.5046387,-0.71343994,0.061950684,7.78125,9.578125,-7.8125
224,224,1727276905308,-0.5007324,-0.9768677,0.15472412,2.34375,1.484375,-3.578125
225,225,1727276905348,-0.30322266,-1.078186,0.018981934,-22.09375,-7.40625,-1.84375
226,226,1727276905388,-0.048339844,-1.4729614,-0.117492676,6.15625,-23.28125,10.125
227,227,1727276905428,0.32373047,-1.3145142,0.42718506,28.359375,11.203125,9.578125
228,228,1727276905468,-0.02709961,-1.5508423,0.024108887,-14.71875,-16.640625,30.5
229,229,1727276905508,-0.5061035,-1.3030396,0.21136475,16.9375,-1.125,15.921875
230,230,1727276905548,-0.28295898,-0.8208618,-0.105529785,-11.78125,11.640625,-14.140625
231,231,1727276905588,-0.2644043,-0.59503174,-0.13360596,0.15625,7.5,-9.625
232,232,1727276905628,-0.18286133,-0.57354736,-0.020568848,18.34375,10.15625,-2.5625
233,233,1727276905668,-0.22973633,-0.612854,0.13568115,17.40625,2.734375,1.390625
234,234,1727276905708,-0.18334961,-0.6729126,0.12542725,-7.921875,11.796875,-5.515625
235,235,1727276905748,-0.14941406,-0.65704346,-0.018859863,-4.640625,24.390625,-14.28125
236,236,1727276905788,-0.09643555,-0.69488525,0.0072631836,12.46875,25.203125,-16.015625
237,237,1727276905828,0.011230469,-0.78302,0.06829834,5.609375,14.796875,-12.765625
238,238,1727276905868,0.08325195,-1.008606,0.011657715,-12.890625,1.8125,-4.453125
239,239,1727276905908,-0.1472168,-1.3084106,-0.25787354,-10.9375,-1.0,10.421875
240,240,1727276905948,-0.2758789,-1.4006958,-0.14459229,3.46875,3.953125,11.859375
241,241,1727276905988,-0.86206055,-1.8381958,-0.300354,2.828125,19.1875,10.28125
242,242,1727276906028,-0.44433594,-1.6255493,0.39764404,-27.90625,22.328125,-11.71875
243,243,1727276906068,-0.49169922,-1.1480103,0.1395874,3.09375,15.234375,-0.46875
244,244,1727276906108,-0.30737305,-0.72003174,0.0045776367,10.734375,5.65625,7.015625
245,245,1727276906148,-0.25195312,-0.67803955,-0.030334473,-2.421875,-8.625,-5.421875
246,246,1727276906188,-0.17871094,-0.77178955,-0.046203613,-10.3125,5.875,-9.375
247,247,1727276906228,-0.0068359375,-0.7192993,-0.016174316,-6.796875,-9.15625,-1.625
248,248,1727276906268,0.032226562,-0.5706177,0.03753662,-2.765625,-8.53125,0.453125
249,249,1727276906308,-0.075927734,-0.5654907,0.010925293,-12.328125,-5.34375,-2.359375
250,250,1727276906348,-0.26611328,-0.6314087,-0.014221191,-26.109375,-11.203125,-6.5625
251,251,1727276906388,-0.48901367,-0.831604,0.026794434,-22.8125,-18.09375,-7.734375
252,252,1727276906428,-0.5554199,-1.0889282,-0.003479004,3.453125,-40.75,-5.65625
253,253,1727276906468,-0.2529297,-1.3338013,0.15594482,15.78125,-40.90625,-7.125
254,254,1727276906508,0.11791992,-1.4265747,0.44158936,-0.078125,-4.96875,11.703125
255,255,1727276906548,0.09838867,-1.1965942,-0.003479004,-14.859375,-9.140625,7.59375
256,256,1727276906588,-0.6088867,-1.8086548,0.37347412,15.78125,-20.125,22.171875
257,257,1727276906628,-0.47045898,-1.0154419,0.113464355,-23.625,0.859375,-19.546875
258,258,1727276906668,-0.3400879,-0.83135986,0.023132324,-13.78125,-2.15625,-26.6875
259,259,1727276906708,-0.3256836,-0.600647,-0.03741455,10.4375,-2.484375,-4.71875
260,260,1727276906748,-0.21313477,-0.49835205,0.06585693,6.765625,-11.03125,6.1875
261,261,1727276906788,-0.07128906,-0.46881104,0.19525146,-5.859375,-6.09375,-3.0
262,262,1727276906828,-0.18286133,-0.7034302,0.09124756,11.5,-14.703125,1.765625
263,263,1727276906868,-0.29516602,-0.8584595,0.18035889,23.09375,-7.25,10.21875
264,264,1727276906908,-0.118652344,-0.72491455,0.2514038,11.859375,1.453125,2.984375
265,265,1727276906948,-0.040039062,-1.0493774,0.14202881,-16.8125,-26.140625,-13.0
266,266,1727276906988,-0.048583984,-1.378479,-0.054016113,-24.90625,-33.796875,-5.171875
267,267,1727276907028,-0.3395996,-1.2295532,0.010192871,-9.75,-16.15625,22.6875
268,268,1727276907068,-0.58154297,-1.166565,-0.034484863,-37.671875,2.84375,20.40625
269,269,1727276907108,-0.50512695,-1.7271118,0.017028809,-27.796875,4.03125,8.328125
270,270,1727276907148,-0.34838867,-1.3416138,0.42279053,-28.15625,13.328125,-14.953125
271,271,1727276907188,-0.2919922,-1.022522,0.124938965,0.765625,-2.125,-9.484375
272,272,1727276907228,-0.16333008,-0.59039307,0.07928467,-2.078125,-24.09375,10.015625
273,273,1727276907268,-0.20776367,-0.48883057,0.09710693,-1.640625,-15.953125,5.21875
274,274,1727276907308,-0.30786133,-0.73028564,0.1149292,-18.625,-8.1875,-3.640625
275,275,1727276907348,-0.28930664,-0.9155884,0.34295654,-12.265625,-15.046875,3.375
276,276,1727276907388,-0.23925781,-0.739563,0.15692139,6.109375,-11.90625,9.078125
277,277,1727276907428,-0.41455078,-0.51519775,-0.036193848,-3.015625,-4.78125,7.5625
278,278,1727276907468,-0.65478516,-0.4993286,0.16790771,-40.265625,-2.078125,-13.8125
279,279,1727276907508,-0.4987793,-1.0100708,0.4598999,-25.875,8.453125,-22.796875
280,280,1727276907548,-0.33007812,-1.1677856,0.3065796,-12.1875,-17.8125,-19.109375
281,281,1727276907588,0.107910156,-1.4785767,0.07611084,36.671875,-51.046875,-22.1875
282,282,1727276907628,0.56689453,-1.8601685,0.6166382,41.796875,-27.359375,22.515625
283,283,1727276907668,0.2939453,-1.2754517,0.3751831,-34.125,-18.953125,33.46875
284,284,1727276907708,-0.32104492,-1.2144165,0.06536865,15.125,-22.234375,41.953125
285,285,1727276907748,-0.8930664,-0.9421997,-0.050842285,-5.703125,-63.21875,11.0
286,286,1727276907788,-0.45410156,-0.83673096,0.15789795,-24.109375,-16.953125,-21.578125
287,287,1727276907828,-0.21777344,-0.76568604,0.17913818,1.734375,-1.015625,-3.125
288,288,1727276907868,-0.14428711,-0.59942627,0.20013428,10.140625,-7.578125,6.984375
289,289,1727276907908,-0.06640625,-0.517395,0.35980225,14.34375,-11.46875,7.75
290,290,1727276907948,-0.052246094,-0.6567993,0.32073975,10.28125,-17.796875,10.640625
291,291,1727276907988,-0.036865234,-0.84210205,0.19476318,0.390625,-24.078125,11.890625
292,292,1727276908028,-0.114746094,-1.1367798,0.13421631,-3.75,-23.703125,2.6875
293,293,1727276908068,-0.3552246,-1.2632446,0.3053589,4.265625,-23.6875,-6.96875
294,294,1727276908108,-0.328125,-1.250061,0.15252686,-10.578125,-29.921875,-14.625
295,295,1727276908148,-0.10839844,-1.3860474,-0.097473145,1.109375,-46.90625,5.265625
296,296,1727276908188,0.06616211,-0.98687744,0.1461792,-18.59375,11.8125,30.109375
297,297,1727276908228,-0.0925293,-0.67681885,-0.3731079,17.734375,8.359375,21.390625
298,298,1727276908268,-0.103515625,-0.95098877,-0.31378174,14.28125,-31.03125,6.09375
299,299,1727276908308,0.04736328,-1.4067993,0.28778076,-5.6875,-59.890625,-4.71875
300,300,1727276908348,-0.08105469,-1.236145,0.40301514,-10.578125,-37.5,14.625
301,301,1727276908388,-0.12890625,-0.8008423,-0.09161377,-1.578125,-33.125,21.21875
302,302,1727276908428,-0.08105469,-0.4902954,-0.21148682,7.78125,-38.671875,12.0
303,303,1727276908468,-0.08862305,-0.6555786,-0.06573486,-0.109375,-45.640625,3.25
304,304,1727276908508,-0.05078125,-0.97125244,0.086120605,-14.0625,-47.953125,-6.28125
305,305,1727276908548,-0.064697266,-1.0957642,0.12176514,-15.25,-32.515625,-12.5
306,306,1727276908588,-0.15112305,-0.80352783,0.039489746,-12.25,-28.625,-8.265625
307,307,1727276908628,-0.15698242,-0.4602661,-0.02178955,-31.15625,-35.5625,-6.34375
308,308,1727276908668,-0.24926758,-0.3772583,-0.050354004,-31.28125,-28.515625,-6.609375
309,309,1727276908708,-0.35888672,-0.67437744,-0.020324707,-19.984375,-21.421875,-11.234375
310,310,1727276908748,-0.48779297,-0.9570923,0.11785889,-27.859375,-41.21875,-16.640625
311,311,1727276908788,-0.45385742,-1.5164185,0.17840576,-5.625,-35.796875,-9.125
312,312,1727276908828,0.19116211,-1.7190552,0.43182373,8.265625,0.828125,4.96875
313,313,1727276908868,0.1862793,-1.3811646,0.3414917,-12.96875,13.71875,5.28125
314,314,1727276908908,-0.25976562,-1.4714966,0.3209839,-8.296875,-1.921875,7.375
315,315,1727276908948,-0.6323242,-1.0291138,0.24090576,-17.265625,-9.59375,-4.890625
316,316,1727276908988,-0.4086914,-0.7966919,0.09881592,2.0625,-13.453125,-13.609375
317,317,1727276909028,-0.18286133,-0.7371216,0.28118896,3.75,-14.078125,-5.046875
318,318,1727276909068,-0.06738281,-0.6487427,0.31610107,3.28125,-10.15625,7.125
319,319,1727276909108,-0.04736328,-0.5269165,0.22210693,3.34375,-6.671875,14.875
320,320,1727276909148,-0.16259766,-0.47027588,0.11419678,8.671875,2.828125,8.59375
321,321,1727276909188,-0.22998047,-0.5618286,0.043884277,10.0625,-8.109375,-5.203125
322,322,1727276909228,-0.1743164,-0.6995239,0.22332764,9.625,-11.0625,-17.015625
323,323,1727276909268,-0.12768555,-1.0183716,0.3517456,1.578125,-6.890625,-18.71875
324,324,1727276909308,-0.19873047,-1.2263794,0.3085327,-3.421875,-11.71875,-4.59375
325,325,1727276909348,-0.2783203,-1.1177368,-0.13873291,-3.015625,-28.859375,6.125
326,326,1727276909388,-0.26904297,-1.1416626,-0.034484863,-9.625,-21.25,5.046875
327,327,1727276909428,-0.5605469,-1.5281372,-0.057922363,-3.28125,26.890625,6.40625
328,328,1727276909468,-0.50097656,-1.586731,0.19525146,15.84375,0.953125,3.75
329,329,1727276909508,-0.36865234,-1.0718384,0.19378662,-35.1875,28.953125,-13.640625
330,330,1727276909548,-0.23876953,-0.73321533,0.20257568,6.5,10.359375,-0.453125
331,331,1727276909588,-0.18286133,-0.47320557,0.03656006,31.84375,-11.640625,20.296875
332,332,1727276909628,-0.28686523,-0.6460571,-0.057434082,-11.734375,-10.03125,7.828125
333,333,1727276909668,-0.05029297,-0.92755127,0.026794434,-30.234375,7.390625,-12.46875
334,334,1727276909708,-0.075683594,-1.0576782,0.32025146,-0.828125,-10.890625,2.984375
335,335,1727276909748,-0.099609375,-0.7876587,0.15960693,5.796875,-6.34375,2.84375
336,336,1727276909788,-0.18188477,-0.6499634,0.06390381,-12.859375,-6.171875,2.546875
337,337,1727276909828,-0.41748047,-0.53741455,0.11981201,-19.171875,-12.453125,-2.578125
338,338,1727276909868,-0.44604492,-0.7349243,0.08026123,-15.40625,-27.09375,-4.4375
339,339,1727276909908,-0.40063477,-0.9299927,0.20916748,1.65625,-33.4375,-2.953125
340,340,1727276909948,-0.32910156,-1.0396118,0.3209839,7.15625,-15.859375,-2.390625
341,341,1727276909988,0.06958008,-1.2937622,0.20037842,16.96875,-2.0625,3.5625
342,342,1727276910028,0.123291016,-1.4060669,0.24603271,4.296875,-15.609375,26.609375
343,343,1727276910068,-0.18481445,-1.33844,0.33587646,1.875,-1.734375,12.734375
344,344,1727276910108,-0.3996582,-1.4365845,0.29925537,-1.34375,-20.046875,0.796875
345,345,1727276910148,-0.31689453,-1.0130005,0.2843628,-20.265625,-4.9375,-13.078125
346,346,1727276910188,-0.21142578,-0.78863525,0.12445068,-5.34375,-6.90625,-8.9375
347,347,1727276910228,-0.16894531,-0.5913696,0.14349365,5.5625,-8.671875,-0.265625
348,348,1727276910268,-0.15527344,-0.43634033,0.23309326,4.03125,-6.625,3.5625
349,349,1727276910308,-0.14404297,-0.38531494,0.22991943,3.375,-10.546875,3.59375
350,350,1727276910348,-0.1550293,-0.41851807,0.22894287,-3.859375,-13.40625,-3.4375
351,351,1727276910388,-0.19360352,-0.673645,0.24383545,-15.171875,-25.953125,-12.015625
352,352,1727276910428,-0.19995117,-1.1401978,0.2518921,-12.5625,-50.0,-13.96875
353,353,1727276910468,-0.21679688,-1.2781372,0.45599365,-18.328125,-19.890625,-3.953125
354,354,1727276910508,-0.43041992,-1.4817505,0.105163574,-11.90625,-38.609375,-2.828125
355,355,1727276910548,-0.5305176,-1.5679321,-0.19390869,-18.375,-28.921875,7.578125
356,356,1727276910588,-0.4116211,-1.3816528,-0.0960083,-0.6875,-10.21875,21.28125
357,357,1727276910628,-0.37182617,-1.190979,0.3637085,-9.8125,26.90625,-4.46875
358,358,1727276910668,-0.15429688,-1.1985474,0.093688965,3.171875,-21.21875,-3.890625
359,359,1727276910708,0.19580078,-1.1980591,0.33929443,-1.765625,-55.828125,20.25
360,360,1727276910748,-0.07519531,-0.75616455,0.19622803,-13.421875,-42.5,34.875
361,361,1727276910788,-0.19604492,-0.6355591,-0.23028564,-0.515625,-31.203125,22.25
362,362,1727276910828,-0.22094727,-0.50909424,-0.13677979,10.15625,-52.3125,8.078125
363,363,1727276910868,-0.16552734,-0.63067627,0.026306152,5.5,-60.84375,3.890625
364,364,1727276910908,-0.26879883,-0.98687744,0.1383667,-6.421875,-48.390625,5.1875
365,365,1727276910948,-0.4675293,-1.3677368,0.08709717,-15.0625,-40.421875,8.71875
366,366,1727276910988,-0.50146484,-1.0322876,0.10858154,-11.671875,-22.734375,5.359375
367,367,1727276911028,-0.38427734,-1.0586548,0.11151123,-23.921875,-28.703125,-8.28125
368,368,1727276911068,-0.27612305,-1.2669067,0.12982178,-33.75,-41.265625,-9.09375
369,369,1727276911108,-0.029052734,-1.2744751,-0.04473877,3.21875,-64.0,10.421875
370,370,1727276911148,0.5559082,-1.0349731,0.36151123,-14.4375,-25.96875,15.484375
371,371,1727276911188,0.2529297,-0.7559204,0.402771,-15.796875,9.578125,6.28125
372,372,1727276911228,-0.40795898,-1.2651978,-0.26324463,-4.21875,-36.34375,12.171875
373,373,1727276911268,-0.52783203,-0.83551025,0.117370605,-16.296875,-34.03125,-2.515625
374,374,1727276911308,-0.18261719,-0.9234009,0.22650146,-22.4375,14.5,-20.46875
375,375,1727276911348,-0.15625,-0.8057251,0.14227295,-3.453125,6.375,-26.875
376,376,1727276911388,-0.16381836,-0.58428955,0.13519287,10.296875,-2.4375,-1.46875
377,377,1727276911428,-0.099853516,-0.54156494,0.16473389,7.890625,-14.0,11.875
378,378,1727276911468,-0.049072266,-0.704895,0.23602295,-10.984375,-9.546875,5.796875
379,379,1727276911508,-0.0126953125,-0.96661377,0.27069092,-3.1875,-2.5,-8.25
380,380,1727276911548,-0.16870117,-0.8123169,0.25823975,13.84375,1.734375,-4.6875
381,381,1727276911588,-0.14453125,-0.6235962,0.18084717,9.03125,0.59375,-2.53125
382,382,1727276911628,-0.171875,-0.60357666,0.10858154,-1.296875,-15.25,-6.46875
383,383,1727276911668,-0.20336914,-0.85113525,0.18475342,-10.34375,-23.703125,-6.40625
384,384,1727276911708,-0.30444336,-0.90997314,0.20111084,-7.421875,-15.46875,-5.671875
385,385,1727276911748,-0.36621094,-1.098938,-0.008605957,-2.25,-11.09375,-2.703125
386,386,1727276911788,-0.34472656,-1.3098755,-0.035705566,-2.921875,3.21875,1.09375
387,387,1727276911828,-0.29541016,-1.6011353,0.26068115,-21.765625,13.375,0.140625
388,388,1727276911868,-0.1274414,-1.7991333,0.30975342,27.46875,3.671875,19.59375
389,389,1727276911908,-0.2355957,-1.260315,0.38934326,-34.703125,19.578125,-7.609375
390,390,1727276911948,-0.39892578,-0.81866455,0.19866943,5.609375,19.015625,-1.125
391,391,1727276911988,-0.3112793,-0.29351807,0.008728027,13.265625,-12.015625,23.734375
392,392,1727276912028,-0.18652344,-0.38775635,0.005065918,1.953125,-13.578125,6.421875
393,393,1727276912068,-0.072753906,-0.7901001,0.1071167,-10.453125,-7.328125,3.0
394,394,1727276912108,-0.006591797,-1.1443481,0.2321167,-9.125,-9.140625,7.1875
395,395,1727276912148,-0.17944336,-0.86602783,0.16571045,-1.390625,11.140625,9.390625
396,396,1727276912188,-0.29736328,-0.5459595,0.13372803,-7.484375,18.46875,0.375
397,397,1727276912228,-0.34887695,-0.41680908,0.18621826,-19.75,15.1875,-16.53125
398,398,1727276912268,-0.17651367,-0.72613525,0.16937256,-16.6875,9.359375,-22.390625
399,399,1727276912308,-0.095214844,-1.1116333,0.21453857,-4.734375,-7.96875,-20.5625
400,400,1727276912348,-0.080566406,-1.2590942,0.27557373,0.765625,-10.828125,8.5625
401,401,1727276912388,-0.020751953,-1.1487427,0.18670654,16.6875,-8.90625,16.234375
402,402,1727276912428,0.1184082,-1.5498657,0.5578003,25.296875,5.078125,27.546875
403,403,1727276912468,-0.20263672,-1.6079712,0.5199585,16.875,17.921875,11.25
404,404,1727276912508,-0.34204102,-1.0916138,0.31756592,-22.5,6.8125,-13.890625
405,405,1727276912548,-0.27026367,-0.93048096,-0.13482666,10.4375,-13.1875,-12.078125
406,406,1727276912588,-0.15551758,-0.8772583,0.15985107,12.46875,-21.5,-3.046875
407,407,1727276912628,-0.1953125,-0.7761841,0.37127686,-1.515625,-12.421875,1.5
408,408,1727276912668,-0.20825195,-0.58599854,0.2929077,-7.140625,0.40625,3.65625
409,409,1727276912708,-0.16992188,-0.42242432,0.06561279,6.328125,2.390625,-2.703125
410,410,1727276912748,-0.08276367,-0.39752197,0.049743652,8.75,-4.5,-10.078125
411,411,1727276912788,-0.015136719,-0.63116455,0.109802246,3.03125,-9.640625,-10.09375
412,412,1727276912828,-0.07861328,-1.1558228,0.19915771,0.53125,-14.21875,-1.25
413,413,1727276912868,-0.25952148,-1.0718384,0.34466553,-1.21875,-6.109375,4.171875
414,414,1727276912908,-0.2939453,-0.95025635,0.19720459,-8.90625,-1.828125,-3.84375
415,415,1727276912948,-0.33520508,-1.4111938,-0.11871338,6.875,-22.828125,8.90625
416,416,1727276912988,-0.14868164,-1.2949829,0.061706543,-13.53125,-12.90625,10.140625
417,417,1727276913028,-0.234375,-1.585022,-0.038391113,-1.390625,-2.296875,16.15625
418,418,1727276913068,-0.35473633,-1.2415161,0.31976318,-6.6875,6.09375,2.984375
419,419,1727276913108,-0.39575195,-1.0186157,0.25775146,-7.21875,10.640625,7.984375
420,420,1727276913148,-0.40283203,-0.8706665,0.121032715,-4.328125,6.09375,11.3125
421,421,1727276913188,-0.19580078,-0.7349243,0.085632324,-3.28125,-11.765625,5.109375
422,422,1727276913228,-0.015380859,-0.7407837,0.1552124,-2.3125,-18.53125,-4.71875
423,423,1727276913268,0.091552734,-0.7012329,0.1708374,-4.453125,-14.34375,-9.34375
424,424,1727276913308,0.03857422,-0.7149048,0.16375732,-10.21875,-11.234375,-0.53125
425,425,1727276913348,-0.08178711,-0.63067627,0.20477295,-18.984375,3.828125,7.59375
426,426,1727276913388,-0.44458008,-0.6802368,0.20648193,-16.984375,-11.65625,6.859375
427,427,1727276913428,-0.7207031,-0.7625122,0.08270264,-10.109375,2.078125,-14.71875
428,428,1727276913468,-0.38623047,-0.8882446,0.15057373,-8.828125,-24.609375,-28.34375
429,429,1727276913508,-0.18115234,-0.9963989,0.33392334,21.078125,-14.5,-31.921875
430,430,1727276913548,0.17578125,-1.4646606,0.19232178,28.046875,-8.578125,-9.046875
431,431,1727276913588,0.08203125,-1.5108032,0.5187378,-4.59375,21.0625,24.3125
432,432,1727276913628,-0.18896484,-1.5474243,0.40594482,6.34375,16.40625,17.921875
433,433,1727276913668,-0.5187988,-1.2088013,0.340271,0.46875,-6.890625,-3.3125
434,434,1727276913708,-0.564209,-0.84991455,0.0836792,-1.203125,3.6875,-21.421875
435,435,1727276913748,-0.2019043,-0.60040283,0.02166748,8.015625,-10.25,-11.125
436,436,1727276913788,-0.0859375,-0.5630493,0.13421631,9.140625,-4.859375,4.546875
437,437,1727276913828,-0.047851562,-0.5532837,0.24139404,4.671875,8.1875,12.921875
438,438,1727276913868,-0.13354492,-0.5952759,0.25408936,6.34375,10.796875,8.734375
439,439,1727276913908,-0.22875977,-0.6008911,0.117370605,12.390625,16.09375,-2.6875
440,440,1727276913948,-0.2915039,-0.7630005,0.07342529,14.125,8.484375,-13.015625
441,441,1727276913988,-0.21972656,-0.8599243,0.24139404,2.109375,-4.609375,-13.015625
442,442,1727276914028,-0.046875,-1.3047485,0.4364624,-1.859375,-1.671875,-8.0625
443,443,1727276914068,-0.1784668,-1.1951294,0.055847168,4.890625,-6.703125,-0.1875
444,444,1727276914108,-0.3876953,-1.2122192,-0.06768799,7.265625,-4.578125,8.84375
445,445,1727276914148,-0.58374023,-1.1206665,0.06439209,9.140625,14.625,0.265625
446,446,1727276914188,-0.64160156,-1.4976196,-0.05255127,-10.796875,34.40625,-11.875
447,447,1727276914228,-0.42895508,-1.4126587,0.23651123,3.8125,0.859375,-15.515625
448,448,1727276914268,-0.25146484,-1.1465454,0.12420654,-7.484375,27.234375,-19.046875
449,449,1727276914308,-0.2319336,-0.82476807,-0.026916504,8.515625,20.71875,-6.0625
450,450,1727276914348,-0.18334961,-0.35333252,-0.0569458,16.296875,-7.0,15.015625
451,451,1727276914388,-0.1496582,-0.32232666,0.02142334,19.03125,-12.984375,16.265625
452,452,1727276914428,-0.123046875,-0.5664673,0.010681152,-0.640625,-8.984375,4.328125
453,453,1727276914468,-0.11694336,-0.7490845,0.029724121,-8.203125,4.359375,-5.984375
454,454,1727276914508,-0.20532227,-0.72857666,-0.02935791,2.140625,10.484375,-5.0
455,455,1727276914548,-0.46166992,-0.7149048,-0.045959473,-10.328125,-1.203125,-12.25
456,456,1727276914588,-0.453125,-0.9295044,-0.01763916,-25.734375,-29.984375,-24.1875
457,457,1727276914628,-0.33398438,-1.3220825,-0.18463135,1.78125,-52.4375,-16.453125
458,458,1727276914668,-0.1418457,-1.784729,0.39691162,61.515625,-30.046875,19.3125
459,459,1727276914708,-0.2692871,-1.2713013,0.52508545,-16.375,41.84375,4.9375
460,460,1727276914748,-0.67944336,-1.4778442,-0.3098755,2.28125,-3.234375,3.046875
461,461,1727276914788,-0.5175781,-1.1987915,0.13470459,13.46875,-3.171875,-7.046875
462,462,1727276914828,-0.34960938,-0.98931885,0.035095215,5.125,1.453125,-15.375
463,463,1727276914868,-0.23852539,-0.7319946,-0.065979004,-2.609375,-3.90625,-3.5625
464,464,1727276914908,-0.20166016,-0.4649048,0.054626465,-3.5,-1.3125,4.390625
465,465,1727276914948,-0.13452148,-0.28009033,0.021911621,-3.125,-0.984375,1.578125
466,466,1727276914988,-0.053710938,-0.3508911,0.027770996,-2.984375,-3.328125,-11.453125
467,467,1727276915028,-0.18334961,-0.6499634,0.0028686523,3.90625,8.609375,-19.140625
468,468,1727276915068,-0.27685547,-1.3059692,0.07122803,8.34375,-20.765625,-5.53125
469,469,1727276915108,-0.45898438,-1.2996216,0.35247803,-12.171875,-4.21875,11.109375
470,470,1727276915148,-0.21728516,-0.8394165,-0.3862915,-19.609375,-30.65625,4.6875
471,471,1727276915188,-0.4189453,-1.1287231,-0.2666626,-7.265625,-36.28125,2.078125
472,472,1727276915228,-0.5185547,-1.3799438,-0.0064086914,9.078125,13.25,3.9375
473,473,1727276915268,-0.7109375,-1.7102661,-0.2942505,2.78125,-15.359375,13.171875
474,474,1727276915308,-0.43188477,-1.107727,0.11834717,-28.828125,15.90625,-8.25
475,475,1727276915348,-0.3322754,-0.8809204,-0.12799072,-11.15625,-4.078125,1.734375
476,476,1727276915388,-0.22924805,-0.59381104,-0.06793213,12.03125,-21.734375,13.75
477,477,1727276915428,-0.20532227,-0.55474854,0.03289795,-2.703125,-25.28125,4.3125
478,478,1727276915468,-0.25830078,-0.8272095,0.04949951,-11.140625,0.53125,-6.96875
479,479,1727276915508,-0.2854004,-0.88409424,-0.008605957,-21.5625,7.796875,-14.3125
480,480,1727276915548,-0.36499023,-0.6814575,-0.042053223,-23.0,-2.484375,-13.90625
481,481,1727276915588,-0.49951172,-0.49127197,-0.058410645,-15.828125,-3.75,-6.40625
482,482,1727276915628,-0.5415039,-0.40826416,0.003112793,-14.140625,-1.453125,-6.9375
483,483,1727276915668,-0.39160156,-0.77227783,0.012634277,-11.90625,5.515625,-19.4375
484,484,1727276915708,-0.35473633,-1.0498657,-0.069885254,-14.625,0.71875,-12.359375
485,485,1727276915748,-0.24365234,-1.3179321,0.26434326,23.296875,-4.703125,21.03125
486,486,1727276915788,-0.05102539,-1.1890259,0.5375366,-7.78125,25.828125,10.59375
487,487,1727276915828,-0.3671875,-1.5215454,0.4430542,-31.71875,20.859375,25.140625
488,488,1727276915868,-0.609375,-1.2976685,0.2333374,-12.375,-10.1875,28.40625
489,489,1727276915908,-0.41625977,-1.015686,0.24310303,-19.578125,-0.515625,6.640625
490,490,1727276915948,-0.23266602,-0.92852783,0.055603027,3.71875,-15.34375,-2.765625
491,491,1727276915988,-0.2692871,-0.87213135,0.28411865,-4.640625,-13.890625,3.125
492,492,1727276916028,-0.22729492,-0.7505493,0.41693115,-13.84375,-16.390625,9.609375
493,493,1727276916068,-0.15991211,-0.5042114,0.22235107,-7.109375,-15.484375,6.46875
494,494,1727276916108,-0.16308594,-0.41192627,0.116882324,0.4375,-9.828125,-4.671875
495,495,1727276916148,-0.13598633,-0.49420166,0.2843628,2.90625,-0.625,-8.765625
496,496,1727276916188,-0.17163086,-0.8008423,0.4616089,8.234375,0.609375,-2.515625
497,497,1727276916228,-0.30859375,-1.2605591,0.31072998,4.484375,-25.140625,2.96875
498,498,1727276916268,-0.41308594,-1.1694946,0.36151123,-12.0,-27.84375,-3.53125
499,499,1727276916308,-0.47094727,-0.847229,0.29022217,-14.890625,-18.03125,-15.90625
500,500,1727276916348,-0.47583008,-0.9351196,0.27264404,0.03125,-34.796875,-10.859375
501,501,1727276916388,-0.37353516,-1.3706665,0.16522217,6.546875,-11.9375,-3.234375
502,502,1727276916428,-0.3173828,-1.5689087,-0.17974854,-7.953125,-17.53125,16.625
503,503,1727276916468,-0.22265625,-1.0432739,0.12615967,0.125,11.078125,4.359375
504,504,1727276916508,-0.091308594,-0.9170532,0.15789795,1.46875,-16.59375,-2.703125
505,505,1727276916548,-0.11376953,-1.0247192,0.1708374,5.96875,-41.4375,8.5625
506,506,1727276916588,0.17285156,-0.9290161,0.101745605,-8.625,-52.15625,31.046875
507,507,1727276916628,-0.103027344,-0.7307739,0.10809326,-15.953125,-42.25,30.59375
508,508,1727276916668,-0.40307617,-0.8574829,-0.040100098,4.1875,-38.84375,28.890625
509,509,1727276916708,-0.48266602,-0.76275635,-0.03692627,6.265625,-55.640625,18.875
510,510,1727276916748,-0.44506836,-0.9277954,0.06365967,-4.78125,-33.109375,5.796875
511,511,1727276916788,-0.3869629,-1.0606079,0.13421631,-2.484375,-17.140625,0.984375
512,512,1727276916828,-0.25317383,-0.91363525,0.15887451,4.234375,-29.546875,6.703125
513,513,1727276916868,-0.2019043,-0.9585571,0.15863037,1.75,-27.953125,4.984375
514,514,1727276916908,-0.029785156,-1.2844849,0.10101318,-22.359375,-50.5625,20.453125
515,515,1727276916948,-0.12670898,-1.1963501,0.077819824,-9.109375,-48.015625,38.875
516,516,1727276916988,-0.13769531,-1.3430786,-0.04156494,-6.484375,-39.515625,28.453125
517,517,1727276917028,0.06713867,-1.2549438,0.061462402,1.671875,-32.296875,6.640625
518,518,1727276917068,0.1027832,-0.864563,-0.050109863,20.078125,-31.671875,-5.3125
519,519,1727276917108,0.0871582,-0.8233032,-0.16802979,-0.296875,-53.484375,-0.828125
520,520,1727276917148,-0.17114258,-1.0210571,0.113220215,1.671875,-24.21875,-1.390625
521,521,1727276917188,-0.08886719,-0.9849243,0.09857178,-8.0,-42.359375,1.828125
522,522,1727276917228,-0.0625,-0.9053345,0.0836792,-6.171875,-26.765625,-5.734375
523,523,1727276917268,-0.18261719,-0.8140259,0.047546387,-1.8125,-18.046875,-17.546875
524,524,1727276917308,-0.15966797,-0.6819458,0.0021362305,-10.640625,-9.671875,-11.875
525,525,1727276917348,-0.14770508,-0.65631104,0.02947998,-2.84375,-15.09375,-0.234375
526,526,1727276917388,-0.12890625,-0.7932739,0.20281982,-8.265625,-8.15625,-4.78125
527,527,1727276917428,-0.11254883,-0.8945923,0.27850342,-7.609375,0.203125,-15.203125
528,528,1727276917468,-0.0012207031,-0.7732544,0.11151123,-7.390625,0.578125,-23.96875
529,529,1727276917508,-0.040771484,-0.6304321,0.10418701,-7.140625,3.546875,-26.46875
530,530,1727276917548,-0.22753906,-0.56036377,0.1552124,-3.546875,7.609375,-22.65625
531,531,1727276917588,-0.24560547,-0.7197876,0.07171631,9.28125,-17.28125,-23.953125
532,532,1727276917628,-0.30859375,-1.156311,0.18621826,-0.578125,-15.328125,-17.296875
533,533,1727276917668,-0.2565918,-1.1956177,0.04119873,-13.21875,-31.0,7.53125
534,534,1727276917708,-0.10571289,-1.1572876,-0.07989502,-2.4375,0.421875,3.09375
535,535,1727276917748,-0.39526367,-1.8389282,-0.24542236,21.71875,-1.671875,17.09375
536,536,1727276917788,-0.3334961,-1.5132446,0.25579834,-0.84375,4.21875,3.78125
537,537,1727276917828,-0.328125,-1.1555786,0.04168701,2.140625,13.375,-11.046875
538,538,1727276917868,-0.35742188,-0.9085083,-0.13360596,-4.03125,-18.25,-5.453125
539,539,1727276917908,-0.43774414,-0.6338501,0.022399902,-0.109375,-35.046875,3.609375
540,540,1727276917948,-0.2824707,-0.7276001,-0.105529785,1.515625,-7.875,1.328125
541,541,1727276917988,-0.21728516,-0.78619385,-0.051574707,-2.265625,-6.078125,0.28125
542,542,1727276918028,-0.1706543,-0.68536377,0.06512451,-12.515625,-2.546875,-5.796875
543,543,1727276918068,-0.14770508,-0.5894165,-0.045715332,-18.921875,-9.0625,-14.53125
544,544,1727276918108,-0.27197266,-0.65509033,0.0004272461,-14.671875,-22.515625,-12.34375
545,545,1727276918148,-0.4987793,-0.7817993,0.06317139,-14.375,-7.65625,-6.296875
546,546,1727276918188,-0.5805664,-0.9529419,0.0040893555,-13.21875,1.28125,-11.8125
547,547,1727276918228,-0.5292969,-1.0281372,0.016296387,-17.984375,1.8125,-16.640625
548,548,1727276918268,-0.21850586,-1.1917114,0.022888184,8.640625,-13.78125,-4.25
549,549,1727276918308,0.04638672,-1.4629517,0.35321045,11.5,-11.015625,15.515625
550,550,1727276918348,-0.23388672,-1.4434204,0.3793335,-18.109375,11.234375,24.421875
551,551,1727276918388,-0.48168945,-1.2837524,0.3060913,11.46875,11.40625,19.15625
552,552,1727276918428,-0.7092285,-1.0064087,0.11907959,-3.375,-16.40625,-18.515625
553,553,1727276918468,-0.32592773,-0.7522583,-0.14776611,6.71875,-21.390625,-8.5
554,554,1727276918508,-0.11206055,-0.5930786,0.050476074,-3.234375,-7.171875,1.21875
555,555,1727276918548,-0.14379883,-0.5479126,0.20306396,-10.375,1.6875,5.265625
556,556,1727276918588,-0.28149414,-0.61553955,0.22723389,1.171875,-11.796875,9.015625
557,557,1727276918628,-0.35864258,-0.6643677,0.12298584,5.421875,-1.46875,0.484375
558,558,1727276918668,-0.28100586,-0.74468994,0.13690186,4.28125,7.921875,-9.265625
559,559,1727276918708,-0.16064453,-0.7866821,0.22454834,1.484375,0.3125,-6.21875
560,560,1727276918748,-0.19091797,-0.88946533,0.20013428,-0.46875,-8.703125,2.15625
561,561,1727276918788,-0.2890625,-0.9690552,0.08099365,-6.65625,-25.359375,3.296875
562,562,1727276918828,-0.35546875,-1.2017212,-0.09503174,-7.46875,-34.265625,7.828125
563,563,1727276918868,-0.3400879,-1.3762817,0.015075684,-10.328125,-10.6875,12.0625
564,564,1727276918908,-0.517334,-1.7127075,-0.2312622,1.4375,8.328125,15.515625
565,565,1727276918948,-0.4411621,-1.3096313,0.18011475,-11.703125,17.75,-8.71875
566,566,1727276918988,-0.35839844,-1.0217896,0.18670654,-11.796875,-1.015625,-11.53125
567,567,1727276919028,-0.40185547,-0.79571533,0.24090576,1.859375,-0.09375,1.0625
568,568,1727276919068,-0.33154297,-0.6538696,0.04876709,0.8125,-7.203125,10.09375
569,569,1727276919108,-0.19506836,-0.7024536,-0.055725098,-12.984375,-14.84375,7.328125
570,570,1727276919148,-0.084228516,-0.6902466,-0.023986816,-12.296875,-10.53125,6.0625
571,571,1727276919188,-0.15478516,-0.5786743,0.08416748,-0.609375,-4.84375,4.953125
572,572,1727276919228,-0.33325195,-0.5432739,0.08001709,-1.390625,-1.4375,3.109375
573,573,1727276919268,-0.5583496,-0.690979,0.07977295,-9.78125,-5.75,-3.515625
574,574,1727276919308,-0.5974121,-0.99786377,0.17425537,-16.734375,-1.5,-7.234375
575,575,1727276919348,-0.30517578,-1.0005493,0.21551514,-12.890625,-6.921875,-11.34375
576,576,1727276919388,-0.11328125,-1.0838013,0.03753662,-11.65625,-23.875,-7.015625
577,577,1727276919428,-0.10595703,-1.6065063,0.02508545,37.375,-33.984375,18.125
578,578,1727276919468,0.21728516,-1.440979,0.5285034,-13.53125,-0.484375,19.296875
579,579,1727276919508,-0.13012695,-1.6663208,0.24188232,-2.640625,-6.515625,6.109375
580,580,1727276919548,-0.52197266,-1.4246216,0.21575928,-13.03125,-29.1875,19.421875
581,581,1727276919588,-0.11303711,-0.86968994,0.015319824,-28.0,-16.8125,-2.4375
582,582,1727276919628,-0.084472656,-0.7192993,0.06951904,-10.15625,-15.328125,-10.5
583,583,1727276919668,-0.11767578,-0.6165161,0.14984131,1.5625,-15.515625,-0.671875
584,584,1727276919708,-0.12060547,-0.58428955,0.2694702,1.703125,-24.609375,5.53125
585,585,1727276919748,-0.09277344,-0.6477661,0.307312,-5.0,-25.375,1.265625
586,586,1727276919788,-0.055908203,-0.8140259,0.18841553,-0.84375,-37.515625,-0.03125
587,587,1727276919828,-0.1081543,-1.0930786,0.2321167,8.65625,-35.375,1.78125
588,588,1727276919868,-0.25854492,-1.1941528,0.2975464,0.109375,-21.828125,3.6875
589,589,1727276919908,-0.4597168,-1.0791626,0.19818115,-16.046875,-18.765625,-10.796875
590,590,1727276919948,-0.51708984,-1.135315,0.0680542,-4.390625,-27.671875,-12.203125
591,591,1727276919988,-0.3239746,-1.1765747,0.18963623,-9.671875,-25.984375,-10.328125
592,592,1727276920028,-0.05102539,-1.1262817,0.27264404,-24.21875,-0.46875,7.21875
593,593,1727276920068,-0.013671875,-0.81256104,0.073913574,-13.625,6.78125,31.40625
594,594,1727276920108,-0.083496094,-0.57403564,-0.32281494,9.65625,-17.171875,31.1875
595,595,1727276920148,-0.025146484,-0.8508911,-0.12359619,-2.34375,-42.609375,9.4375
596,596,1727276920188,-0.25878906,-1.548645,0.32073975,-4.078125,-44.625,-11.8125
597,597,1727276920228,-0.040283203,-1.1868286,0.25360107,-10.59375,-19.703125,10.5
598,598,1727276920268,-0.06640625,-0.75201416,0.020690918,0.09375,-38.015625,30.03125
599,599,1727276920308,-0.1743164,-0.61138916,0.07098389,1.828125,-39.875,24.90625
600,600,1727276920348,-0.26611328,-0.829895,0.097351074,-9.078125,-39.078125,14.921875
601,601,1727276920388,-0.26000977,-1.0222778,0.16204834,-12.828125,-29.609375,4.34375
602,602,1727276920428,-0.26342773,-1.1731567,0.28607178,-9.8125,-18.71875,-2.484375
603,603,1727276920468,-0.24707031,-1.0003052,0.2687378,-11.875,-19.984375,-4.984375
604,604,1727276920508,-0.19750977,-0.8230591,0.16326904,-14.796875,-22.828125,-7.4375
605,605,1727276920548,-0.18676758,-0.6760864,0.11029053,-16.25,-15.921875,-9.640625
606,606,1727276920588,-0.21020508,-0.5618286,0.08148193,-9.921875,-12.75,-11.5625
607,607,1727276920628,-0.19335938,-0.60650635,0.074401855,-11.796875,-12.046875,-11.015625
608,608,1727276920668,-0.26293945,-0.72857666,0.12835693,-12.453125,-3.71875,-8.84375
609,609,1727276920708,-0.26708984,-0.8118286,0.22479248,-11.515625,-2.140625,-5.34375
610,610,1727276920748,-0.31225586,-0.8933716,0.14398193,-8.265625,-15.46875,-2.359375
611,611,1727276920788,-0.28735352,-1.1069946,0.08514404,-1.078125,-20.0,1.21875
612,612,1727276920828,-0.053710938,-1.5540161,0.20892334,30.171875,-21.4375,14.296875
613,613,1727276920868,0.011962891,-1.4058228,0.58514404,-5.140625,17.953125,14.09375
614,614,1727276920908,-0.34838867,-1.5418091,0.32635498,14.5,2.53125,12.9375
615,615,1727276920948,-0.37695312,-1.0081177,0.33294678,-4.1875,6.296875,-1.15625
616,616,1727276920988,-0.31689453,-0.7312622,-0.054992676,8.78125,-8.421875,-4.234375
617,617,1727276921028,-0.13647461,-0.78741455,-0.0051879883,9.71875,-10.484375,0.921875
618,618,1727276921068,-0.1159668,-0.7839966,0.28045654,2.109375,-18.53125,4.125
619,619,1727276921108,-0.12988281,-0.7637329,0.3522339,-4.59375,-12.125,3.46875
620,620,1727276921148,-0.2487793,-0.6790161,0.15838623,0.34375,10.5625,-0.828125
621,621,1727276921188,-0.2368164,-0.5964966,0.117126465,9.53125,7.890625,-7.609375
622,622,1727276921228,-0.1418457,-0.6758423,0.15545654,4.234375,1.59375,-10.71875
623,623,1727276921268,-0.16210938,-0.9102173,0.2374878,0.21875,0.390625,-11.328125
624,624,1727276921308,-0.21533203,-0.97442627,0.2267456,-2.546875,-1.15625,-7.078125
625,625,1727276921348,-0.29785156,-0.9470825,0.12908936,-5.90625,-9.65625,-4.5
626,626,1727276921388,-0.359375,-1.1931763,0.11859131,-0.171875,-11.875,3.484375
627,627,1727276921428,-0.13500977,-1.2258911,-0.031555176,12.3125,-0.375,0.421875
628,628,1727276921468,-0.19848633,-1.2644653,0.09295654,-12.046875,1.171875,0.609375
629,629,1727276921508,-0.47631836,-1.5559692,-0.013244629,3.828125,6.46875,21.09375
630,630,1727276921548,-0.33154297,-1.3255005,0.1383667,-6.078125,-14.9375,7.84375
631,631,1727276921588,-0.32299805,-0.9338989,0.28778076,-19.515625,0.96875,2.015625
632,632,1727276921628,-0.31274414,-0.5918579,0.18817139,6.515625,17.203125,5.140625
633,633,1727276921668,-0.19091797,-0.46368408,-0.015930176,8.53125,-8.359375,6.984375
634,634,1727276921708,-0.14453125,-0.6411743,0.024108887,-14.09375,-19.140625,-4.6875
635,635,1727276921748,-0.11230469,-1.0740356,0.17889404,-14.84375,-1.796875,-7.421875
636,636,1727276921788,-0.12866211,-0.99420166,0.17034912,-19.03125,3.640625,8.84375
637,637,1727276921828,-0.23876953,-0.5684204,0.105407715,-15.21875,-1.75,14.9375
638,638,1727276921868,-0.39746094,-0.3814087,0.13787842,1.046875,-2.96875,4.984375
639,639,1727276921908,-0.28051758,-0.63287354,0.10272217,-7.09375,-4.078125,-19.109375
640,640,1727276921948,-0.1472168,-0.8772583,0.05340576,-2.609375,-19.9375,-20.6875
641,641,1727276921988,-0.17626953,-1.4082642,0.082214355,20.90625,-28.484375,-3.3125
642,642,1727276922028,0.03540039,-1.4282837,0.37835693,20.515625,10.234375,18.734375
643,643,1727276922068,0.20410156,-1.3430786,0.4298706,-13.921875,9.21875,25.25
644,644,1727276922108,0.0068359375,-1.5891724,0.4647827,-12.75,12.578125,18.34375
645,645,1727276922148,-0.4958496,-1.0689087,0.34710693,-14.3125,8.015625,-8.390625
646,646,1727276922188,-0.5114746,-0.9036255,0.04486084,10.5,-6.515625,-25.015625
647,647,1727276922228,-0.22363281,-0.95025635,0.23431396,-3.8125,-24.796875,-14.5
648,648,1727276922268,-0.08496094,-0.8442993,0.36883545,-3.421875,-4.1875,-0.09375
649,649,1727276922308,-0.09448242,-0.66363525,0.22479248,5.171875,6.78125,11.640625
650,650,1727276922348,-0.17236328,-0.5635376,0.085876465,17.609375,6.765625,9.8125
651,651,1727276922388,-0.35327148,-0.5545044,0.1083374,18.359375,4.15625,-10.578125
652,652,1727276922428,-0.28320312,-0.66534424,0.16131592,6.40625,-4.640625,-17.765625
653,653,1727276922468,-0.17626953,-0.8411255,0.24578857,1.015625,-0.84375,-14.171875
654,654,1727276922508,-0.08276367,-1.0525513,0.29364014,3.90625,0.984375,-6.828125
655,655,1727276922548,-0.14038086,-1.0601196,0.20501709,1.40625,2.0625,-7.5625
656,656,1727276922588,-0.33447266,-1.3401489,-0.07598877,-2.59375,-12.953125,2.453125
657,657,1727276922628,-0.35327148,-1.1663208,0.12176514,-9.484375,18.171875,0.484375
658,658,1727276922668,-0.4584961,-1.2669067,0.13348389,-5.515625,33.328125,-3.65625
659,659,1727276922708,-0.6230469,-1.4348755,0.050720215,14.953125,11.40625,12.859375
660,660,1727276922748,-0.3251953,-1.1814575,0.1906128,-6.46875,-9.515625,-10.3125
661,661,1727276922788,-0.31201172,-1.0379028,0.20794678,-14.328125,19.796875,-14.59375
662,662,1727276922828,-0.13964844,-0.79644775,0.026794434,11.03125,19.671875,0.953125
663,663,1727276922868,-0.060546875,-0.36431885,-0.11016846,19.953125,5.21875,19.296875
664,664,1727276922908,-0.08959961,-0.39263916,0.022888184,11.84375,8.703125,9.15625
665,665,1727276922948,-0.1459961,-0.5425415,0.15032959,-8.453125,1.828125,-5.875
666,666,1727276922988,-0.27124023,-0.71588135,0.10784912,-6.21875,8.90625,-5.609375
667,667,1727276923028,-0.47485352,-0.7612915,-0.1272583,2.0625,-4.265625,-2.515625
668,668,1727276923068,-0.4177246,-0.8555298,-0.11993408,-5.09375,-24.515625,-10.203125
669,669,1727276923108,-0.22583008,-1.0144653,-0.039367676,3.171875,-40.9375,-15.84375
670,670,1727276923148,0.13745117,-1.86969,0.64959717,49.515625,16.375,-15.90625
671,671,1727276923188,-0.35595703,-2.0,0.5380249,-11.328125,39.84375,41.953125
672,672,1727276923228,-0.34399414,-1.3169556,-0.12896729,-13.375,-27.828125,14.828125
673,673,1727276923268,-0.33520508,-0.7124634,-0.004699707,-4.484375,-9.90625,-15.109375
674,674,1727276923308,-0.15649414,-0.68414307,0.053894043,-0.953125,-7.5625,-13.484375
675,675,1727276923348,-0.19604492,-0.6956177,0.113464355,-3.6875,-11.8125,-0.875
676,676,1727276923388,-0.27929688,-0.6524048,0.30340576,-3.828125,2.015625,6.015625
677,677,1727276923428,-0.2397461,-0.5437622,0.14935303,2.65625,11.84375,-0.0625
678,678,1727276923468,-0.15405273,-0.50616455,-0.08404541,1.84375,-6.71875,-9.703125
679,679,1727276923508,-0.104003906,-0.6392212,0.07342529,-1.375,-5.34375,-15.421875
680,680,1727276923548,-0.14697266,-1.0169067,0.30511475,-0.125,14.203125,-15.28125
681,681,1727276923588,-0.25927734,-1.1309204,0.22625732,-1.484375,15.234375,-0.9375
682,682,1727276923628,-0.34106445,-1.1797485,-0.044006348,-3.6875,-19.09375,1.46875
683,683,1727276923668,-0.2133789,-1.2288208,0.035095215,-7.015625,-19.671875,3.4375
684,684,1727276923708,-0.24047852,-1.2195435,0.10272217,-2.140625,15.546875,8.96875
685,685,1727276923748,-0.5710449,-1.2681274,-0.1729126,10.46875,6.359375,7.59375
686,686,1727276923788,-0.5119629,-1.3811646,0.07537842,6.515625,1.078125,1.109375
687,687,1727276923828,-0.3618164,-1.2354126,0.19818115,-13.59375,0.359375,-1.875
688,688,1727276923868,-0.2685547,-0.85601807,-0.023742676,-10.390625,4.296875,3.125
689,689,1727276923908,-0.22509766,-0.54278564,-0.024963379,1.171875,6.5,7.609375
690,690,1727276923948,-0.24609375,-0.44708252,0.07293701,7.65625,6.328125,3.625
691,691,1727276923988,-0.22167969,-0.70880127,0.051208496,-3.84375,-2.8125,-6.71875
692,692,1727276924028,-0.14428711,-1.0169067,0.07928467,-24.015625,-9.109375,-6.296875
693,693,1727276924068,-0.18481445,-0.8621216,0.0770874,-16.640625,1.546875,6.109375
694,694,1727276924108,-0.2692871,-0.57476807,0.086120605,1.734375,-0.3125,8.921875
695,695,1727276924148,-0.40527344,-0.56622314,0.051940918,-9.34375,-9.0625,-2.109375
696,696,1727276924188,-0.3413086,-0.81866455,0.035339355,-13.765625,-17.84375,-11.96875
697,697,1727276924228,-0.27905273,-1.2168579,0.11029053,13.0625,-25.546875,1.390625
698,698,1727276924268,0.17919922,-1.6802368,0.28900146,9.21875,1.828125,15.25
699,699,1727276924308,-0.07519531,-1.2944946,0.44403076,-6.390625,26.734375,10.328125
700,700,1727276924348,-0.46972656,-1.647522,0.27825928,6.859375,-8.203125,12.609375
701,701,1727276924388,-0.4230957,-1.1824341,0.25750732,-24.53125,14.484375,-15.84375
702,702,1727276924428,-0.21435547,-0.80059814,0.12689209,-5.34375,-4.59375,-12.46875
703,703,1727276924468,-0.10498047,-0.64141846,0.02508545,9.3125,-15.421875,5.671875
704,704,1727276924508,-0.079833984,-0.57769775,0.18109131,3.5,-10.796875,12.203125
705,705,1727276924548,-0.07836914,-0.663147,0.31488037,-5.8125,-3.71875,7.8125
706,706,1727276924588,-0.19604492,-0.6338501,0.2958374,12.65625,-11.09375,-3.453125
707,707,1727276924628,-0.25732422,-0.7437134,0.086120605,12.28125,-2.65625,-12.796875
708,708,1727276924668,-0.21289062,-0.8279419,0.16571045,2.640625,-6.75,-13.671875
709,709,1727276924708,-0.10864258,-1.0679321,0.3764038,-9.21875,-14.515625,-6.796875
710,710,1727276924748,-0.15185547,-1.1397095,0.31610107,-9.140625,-11.8125,-5.703125
711,711,1727276924788,-0.31323242,-0.95318604,0.2387085,-4.765625,-16.390625,-6.671875
712,712,1727276924828,-0.44750977,-1.2442017,0.11029053,-5.09375,-27.65625,-11.59375
713,713,1727276924868,-0.22973633,-1.1626587,0.14837646,-24.046875,-6.40625,-2.375
714,714,1727276924908,-0.1850586,-0.9661255,0.04071045,-19.640625,14.890625,7.09375
715,715,1727276924948,-0.45825195,-1.0962524,0.05267334,7.265625,5.78125,12.34375
716,716,1727276924988,-0.5739746,-1.2424927,0.28729248,-5.546875,7.625,-5.015625
717,717,1727276925028,-0.39770508,-1.2034302,0.28900146,-15.328125,-2.65625,-4.5625
718,718,1727276925068,-0.16186523,-0.8357544,0.22357178,3.4375,-12.71875,14.984375
719,719,1727276925108,-0.14282227,-0.5725708,0.13226318,3.8125,-18.71875,13.21875
720,720,1727276925148,-0.23657227,-0.6087036,0.109558105,-4.453125,-13.609375,9.25
721,721,1727276925188,-0.23852539,-0.7671509,0.12371826,-1.703125,-18.078125,12.65625
722,722,1727276925228,-0.15991211,-0.802063,0.14154053,0.3125,-13.90625,8.546875
723,723,1727276925268,-0.22070312,-0.7583618,0.14031982,-6.515625,-12.796875,3.15625
724,724,1727276925308,-0.38989258,-0.7539673,0.1720581,-12.203125,-5.28125,-3.46875
725,725,1727276925348,-0.47851562,-0.93048096,0.29559326,-4.21875,3.796875,-4.90625
726,726,1727276925388,-0.3930664,-0.89556885,0.26898193,2.015625,-6.234375,0.53125
727,727,1727276925428,-0.15795898,-1.0154419,0.121276855,3.546875,-30.25,3.578125
728,728,1727276925468,0.1694336,-1.3794556,0.011657715,24.921875,-67.640625,1.328125
729,729,1727276925508,0.44384766,-1.7659302,0.4911499,19.78125,-36.953125,4.40625
730,730,1727276925548,-0.107421875,-1.5706177,0.26971436,-8.90625,-13.640625,3.296875
731,731,1727276925588,-0.33789062,-1.0906372,0.020202637,-10.234375,-32.359375,14.9375
732,732,1727276925628,-0.3671875,-0.76812744,-0.20855713,-8.46875,-35.90625,3.34375
733,733,1727276925668,-0.36889648,-0.78302,-0.05645752,2.5625,-43.515625,-4.484375
734,734,1727276925708,-0.22705078,-0.7842407,0.17425537,12.328125,-27.90625,-4.1875
735,735,1727276925748,-0.17578125,-0.7901001,0.30389404,-3.828125,-15.703125,1.296875
736,736,1727276925788,-0.17675781,-0.8167114,0.20819092,-2.296875,-15.640625,8.921875
737,737,1727276925828,-0.15478516,-0.8040161,0.11859131,6.65625,-19.515625,9.25
738,738,1727276925868,-0.15698242,-1.02594,0.11859131,2.171875,-31.375,2.453125
739,739,1727276925908,-0.22436523,-1.1358032,0.1539917,-2.078125,-29.046875,-5.0625
740,740,1727276925948,-0.32128906,-1.0540161,0.15496826,-6.953125,-19.359375,-12.453125
741,741,1727276925988,-0.43676758,-1.0674438,0.14007568,2.03125,-11.359375,-13.96875
742,742,1727276926028,-0.2939453,-1.1897583,-0.07183838,1.234375,-32.765625,-7.5625
743,743,1727276926068,-0.053710938,-1.3069458,-0.009094238,-3.796875,-15.046875,1.4375
744,744,1727276926108,0.03564453,-1.0952759,0.11175537,-10.78125,14.890625,10.109375
745,745,1727276926148,-0.19921875,-0.6592407,-0.2630005,19.578125,8.421875,33.921875
746,746,1727276926188,-0.39013672,-0.8076782,-0.44683838,10.390625,-4.03125,32.5625
747,747,1727276926228,-0.23388672,-0.9697876,-0.08428955,-8.5625,-52.71875,-21.140625
748,748,1727276926268,0.009765625,-1.2495728,0.3427124,33.71875,-19.78125,-28.859375
749,749,1727276926308,0.06201172,-0.9260864,0.08050537,-0.46875,-8.71875,14.015625
750,750,1727276926348,-0.19238281,-0.710022,-0.2546997,-6.328125,10.265625,41.40625
751,751,1727276926388,-0.24291992,-0.75372314,-0.27178955,-10.0625,-17.734375,24.109375
752,752,1727276926428,-0.30615234,-1.0042114,-0.02960205,-7.90625,-62.28125,-12.015625
753,753,1727276926468,-0.14501953,-1.0283813,0.20550537,3.765625,-28.28125,-16.234375
754,754,1727276926508,-0.03930664,-0.95928955,0.005065918,-9.40625,-0.875,-12.875
755,755,1727276926548,-0.1159668,-0.7686157,-0.1038208,-22.046875,-4.546875,-2.3125
756,756,1727276926588,-0.25854492,-0.5581665,-0.10601807,-17.90625,-10.28125,-5.25
757,757,1727276926628,-0.28100586,-0.5405884,-0.034240723,-18.328125,-36.890625,-18.828125
758,758,1727276926668,-0.15527344,-0.74102783,0.054626465,-21.09375,-19.1875,-15.546875
759,759,1727276926708,-0.21313477,-0.9685669,0.17352295,-27.625,-15.75,-4.1875
