,Unnamed: 0,timestamp,accel_x,accel_y,accel_z,gyro_x,gyro_y,gyro_z
0,0,1727959457198,-0.29492188,-0.84332275,0.17352295,-9.015625,-4.09375,-4.390625
1,1,1727959457238,-0.25732422,-0.7835083,0.1293335,-8.515625,-0.59375,-8.359375
2,2,1727959457278,-0.12695312,-0.72491455,0.1671753,-5.15625,-0.625,-6.671875
3,3,1727959457318,-0.052978516,-0.83843994,0.16033936,-0.390625,-8.46875,6.828125
4,4,1727959457358,-0.103759766,-0.94073486,0.18890381,-3.3125,-16.515625,14.296875
5,5,1727959457398,-0.265625,-1.1231079,0.21795654,0.03125,-6.0,4.296875
6,6,1727959457438,-0.23046875,-1.0825806,0.12445068,7.34375,-4.21875,-3.703125
7,7,1727959457478,0.0026855469,-1.0667114,0.31878662,3.515625,-1.78125,3.921875
8,8,1727959457518,0.118896484,-1.3179321,0.26800537,10.5,-0.890625,21.9375
9,9,1727959457558,-0.052001953,-1.5901489,0.20062256,10.796875,-19.828125,22.390625
10,10,1727959457598,-0.1484375,-1.3240356,0.3505249,5.53125,-10.265625,-2.921875
11,11,1727959457638,-0.30981445,-1.0066528,0.08758545,2.796875,3.296875,-7.359375
12,12,1727959457678,-0.24438477,-0.73638916,0.06512451,13.015625,10.0,-9.390625
13,13,1727959457718,0.05908203,-0.69366455,0.184021,8.640625,20.734375,-1.5
14,14,1727959457758,0.16088867,-0.87994385,0.23529053,2.234375,-2.90625,10.6875
15,15,1727959457798,0.005126953,-0.9224243,0.2164917,3.5,-10.5,14.453125
16,16,1727959457838,-0.18969727,-0.79473877,0.11199951,3.109375,-5.90625,3.796875
17,17,1727959457878,-0.15893555,-0.8369751,0.17010498,4.78125,15.828125,-3.984375
18,18,1727959457918,-0.040527344,-0.8460083,0.18304443,11.484375,12.703125,-2.78125
19,19,1727959457958,-0.011230469,-0.7156372,0.10076904,5.25,4.78125,-1.4375
20,20,1727959457998,-0.14770508,-0.71539307,0.13812256,-3.03125,6.03125,-2.390625
21,21,1727959458038,-0.19482422,-0.95684814,0.13616943,-6.234375,0.359375,-10.78125
22,22,1727959458078,-0.051513672,-1.0891724,0.26409912,-0.265625,5.03125,-11.65625
23,23,1727959458118,-0.026367188,-0.9920044,0.199646,1.484375,4.296875,0.15625
24,24,1727959458158,-0.057373047,-1.0745239,0.029724121,-2.796875,-10.40625,-2.125
25,25,1727959458198,-0.095458984,-1.2612915,0.043395996,2.328125,-9.015625,-5.921875
26,26,1727959458238,-0.115234375,-1.2293091,-0.061584473,9.765625,6.546875,4.578125
27,27,1727959458278,-0.1850586,-1.2766724,-0.14923096,-1.6875,12.515625,4.203125
28,28,1727959458318,-0.19116211,-1.3999634,0.061950684,3.671875,-2.390625,-3.890625
29,29,1727959458358,-0.037109375,-1.2525024,0.28485107,9.75,17.875,3.46875
30,30,1727959458398,-0.059326172,-0.94781494,0.12030029,3.703125,18.875,16.1875
31,31,1727959458438,-0.2578125,-0.66363525,-0.12945557,5.65625,-6.765625,7.609375
32,32,1727959458478,-0.3618164,-0.7407837,-0.13092041,1.15625,-0.1875,-16.265625
33,33,1727959458518,-0.13061523,-0.9949341,-0.014709473,-2.953125,8.6875,-13.03125
34,34,1727959458558,0.02319336,-1.071106,0.08319092,-5.875,5.953125,-1.921875
35,35,1727959458598,-0.037841797,-0.8311157,0.09637451,-1.6875,-1.09375,3.21875
36,36,1727959458638,-0.27539062,-0.694397,-0.018615723,-11.046875,-12.265625,4.09375
37,37,1727959458678,-0.42211914,-0.78863525,0.012634277,-14.140625,-7.9375,-9.078125
38,38,1727959458718,-0.21923828,-0.9109497,0.18719482,-6.0625,8.4375,-16.25
39,39,1727959458758,-0.10864258,-0.87213135,0.14178467,-7.859375,16.5625,-2.609375
40,40,1727959458798,-0.13964844,-0.69732666,0.007507324,-9.65625,7.78125,-3.21875
41,41,1727959458838,-0.18676758,-0.8345337,0.11077881,-12.46875,-5.953125,-14.25
42,42,1727959458878,-0.13769531,-1.3294067,0.06341553,-11.984375,15.4375,-1.9375
43,43,1727959458918,0.2084961,-1.2507935,0.32733154,2.59375,-8.734375,6.015625
44,44,1727959458958,0.15893555,-1.125061,0.39788818,-6.65625,-14.71875,19.734375
45,45,1727959458998,-0.28735352,-1.2022095,0.049743652,0.75,-6.734375,26.890625
46,46,1727959459038,-0.50219727,-1.3499146,0.17938232,5.015625,-4.859375,-18.25
47,47,1727959459078,-0.12036133,-1.2561646,0.28338623,10.859375,14.359375,-34.703125
48,48,1727959459118,0.0847168,-1.0137329,0.20404053,-3.4375,12.390625,-2.296875
49,49,1727959459158,0.060546875,-0.8128052,0.24139404,3.28125,2.0625,12.421875
50,50,1727959459198,-0.0690918,-0.6795044,0.18621826,12.125,-1.75,11.78125
51,51,1727959459238,-0.21166992,-0.7173462,0.17718506,3.0625,-3.6875,4.328125
52,52,1727959459278,-0.15405273,-0.82598877,0.17352295,-5.15625,1.109375,-4.609375
53,53,1727959459318,0.009277344,-0.93292236,0.20941162,-0.6875,-4.953125,-4.203125
54,54,1727959459358,0.0126953125,-0.81988525,0.27703857,-1.453125,-2.703125,3.296875
55,55,1727959459398,-0.14404297,-0.77178955,0.1798706,0.5,-8.625,5.6875
56,56,1727959459438,-0.28076172,-0.8596802,0.21331787,1.796875,-4.734375,-5.015625
57,57,1727959459478,-0.095458984,-0.96099854,0.22772217,-3.5,5.296875,-9.640625
58,58,1727959459518,0.024414062,-1.0386353,0.17034912,3.40625,-12.015625,0.921875
59,59,1727959459558,-0.07055664,-1.0747681,0.17425537,-5.734375,-18.703125,1.734375
60,60,1727959459598,-0.20605469,-1.2266235,0.02508545,-2.453125,-20.546875,-0.90625
61,61,1727959459638,-0.16577148,-1.206604,-0.019348145,6.5625,-5.515625,0.640625
62,62,1727959459678,-0.17626953,-1.0679321,0.08001709,-1.390625,8.34375,2.671875
63,63,1727959459718,-0.38745117,-1.3618774,0.0038452148,-11.953125,3.265625,0.78125
64,64,1727959459758,-0.2241211,-1.3513794,0.18182373,4.75,0.21875,-12.546875
65,65,1727959459798,-0.15185547,-1.0623169,0.30145264,3.1875,28.921875,-5.65625
66,66,1727959459838,-0.1171875,-0.6865845,0.13006592,2.65625,6.109375,13.015625
67,67,1727959459878,-0.1809082,-0.64190674,-0.038391113,-5.421875,-12.109375,11.5
68,68,1727959459918,-0.29736328,-1.0274048,0.062927246,-5.15625,-7.5625,-8.96875
69,69,1727959459958,-0.123046875,-1.1221313,0.13079834,5.59375,7.046875,-2.78125
70,70,1727959459998,-0.049804688,-0.848938,0.12054443,-3.3125,-4.5,7.828125
71,71,1727959460038,-0.09033203,-0.6885376,0.10736084,-6.25,-17.5,7.46875
72,72,1727959460078,-0.27416992,-0.72735596,0.11077881,0.015625,-13.15625,3.390625
73,73,1727959460118,-0.35961914,-0.85479736,0.13665771,-0.28125,-10.375,-1.890625
74,74,1727959460158,-0.17651367,-0.83380127,0.20013428,5.15625,-3.765625,-5.90625
75,75,1727959460198,-0.14575195,-0.83673096,0.1071167,-2.140625,0.765625,4.09375
76,76,1727959460238,-0.13769531,-0.7774048,0.07269287,0.453125,-4.875,0.78125
77,77,1727959460278,-0.20751953,-1.0671997,0.14959717,-3.75,-5.171875,-3.453125
78,78,1727959460318,-0.28759766,-1.3403931,0.21942139,1.015625,18.03125,-1.046875
79,79,1727959460358,-0.033203125,-1.1057739,0.04437256,5.9375,13.421875,-5.53125
80,80,1727959460398,0.18066406,-1.0005493,0.14031982,13.546875,-4.15625,7.5
81,81,1727959460438,0.0053710938,-1.2400513,0.22235107,-1.171875,-2.328125,17.25
82,82,1727959460478,-0.0007324219,-1.663147,0.2518921,-0.4375,-22.9375,15.59375
83,83,1727959460518,-0.20043945,-1.255188,0.26190186,11.9375,-1.078125,-0.171875
84,84,1727959460558,-0.32958984,-0.78131104,-0.004211426,6.53125,13.140625,-14.6875
85,85,1727959460598,-0.17602539,-0.7000122,0.11639404,10.8125,7.078125,-12.6875
86,86,1727959460638,0.14575195,-0.91241455,0.1852417,-1.6875,13.796875,4.109375
87,87,1727959460678,0.17651367,-0.98101807,0.20013428,-1.609375,-11.203125,14.625
88,88,1727959460718,-0.09790039,-0.7908325,0.18914795,2.84375,-11.078125,6.96875
89,89,1727959460758,-0.31689453,-0.73687744,0.11395264,9.1875,8.0,-1.78125
90,90,1727959460798,-0.25756836,-0.7263794,0.046569824,2.0625,14.1875,-12.09375
91,91,1727959460838,0.0390625,-0.79156494,0.15032959,0.84375,12.203125,-12.09375
92,92,1727959460878,0.1694336,-0.9517212,0.20233154,2.640625,-9.8125,-3.25
93,93,1727959460918,-0.036621094,-0.96710205,0.18865967,1.8125,-10.015625,6.90625
94,94,1727959460958,-0.18969727,-0.817688,0.015075684,9.671875,-7.734375,5.03125
95,95,1727959460998,-0.2536621,-0.9155884,0.019958496,4.28125,-21.453125,-10.25
96,96,1727959461038,-0.20263672,-1.3030396,-0.045959473,0.15625,-18.0625,-16.265625
97,97,1727959461078,-0.051757812,-1.4102173,-0.0037231445,-5.09375,-5.140625,-1.71875
98,98,1727959461118,-0.013183594,-1.1919556,0.02508545,4.71875,0.953125,13.3125
99,99,1727959461158,-0.19995117,-1.1980591,-0.039367676,-4.140625,-2.46875,20.5
100,100,1727959461198,-0.30126953,-1.3303833,-0.073791504,-16.390625,-18.8125,3.4375
101,101,1727959461238,-0.25732422,-1.2510376,0.22503662,-7.5625,-4.390625,-16.390625
102,102,1727959461278,-0.12890625,-0.9585571,0.113464355,-0.734375,32.828125,-3.703125
103,103,1727959461318,-0.1550293,-0.5664673,-0.07086182,-3.75,2.40625,11.8125
104,104,1727959461358,-0.111816406,-0.6226196,-0.050109863,-18.0625,-11.6875,-0.703125
105,105,1727959461398,-0.22290039,-0.9973755,0.021911621,-2.90625,-9.703125,-10.84375
106,106,1727959461438,-0.17919922,-1.0496216,0.093933105,0.96875,-1.21875,-5.1875
107,107,1727959461478,-0.09814453,-0.8389282,0.14031982,-12.0,-7.734375,-1.34375
108,108,1727959461518,-0.1887207,-0.67022705,0.07904053,-8.453125,-8.9375,-0.421875
109,109,1727959461558,-0.39746094,-0.628479,0.024108887,-4.875,0.078125,-11.078125
110,110,1727959461598,-0.140625,-0.75787354,-0.0049438477,-11.09375,11.921875,-11.25
111,111,1727959461638,-0.014404297,-0.9993286,0.13909912,-4.4375,1.578125,3.671875
112,112,1727959461678,-0.044921875,-1.0300903,0.1630249,0.421875,-5.84375,4.453125
113,113,1727959461718,-0.111083984,-1.1028442,0.18719482,3.640625,-0.453125,7.5625
114,114,1727959461758,-0.18383789,-1.2136841,0.10272217,5.28125,2.515625,15.640625
115,115,1727959461798,0.026367188,-1.0784302,0.26141357,10.1875,11.3125,9.265625
116,116,1727959461838,-0.087646484,-1.458313,0.13421631,-0.34375,10.6875,10.703125
117,117,1727959461878,-0.06225586,-1.4573364,0.2982788,6.96875,-15.0,1.796875
118,118,1727959461918,-0.08959961,-1.1636353,0.19647217,-4.609375,-4.734375,-5.609375
119,119,1727959461958,-0.21459961,-0.8953247,0.078552246,5.296875,-2.78125,-4.84375
120,120,1727959461998,-0.06347656,-0.74053955,0.13519287,10.421875,9.75,-3.046875
121,121,1727959462038,0.008300781,-0.802063,0.20306396,4.328125,1.484375,-0.71875
122,122,1727959462078,-0.06298828,-0.89263916,0.16229248,-3.78125,-1.796875,1.3125
123,123,1727959462118,-0.10986328,-0.81378174,0.18743896,4.09375,9.328125,0.34375
124,124,1727959462158,-0.12036133,-0.76763916,0.14886475,1.109375,8.359375,-3.140625
125,125,1727959462198,-0.15136719,-0.76763916,0.13128662,-0.609375,6.640625,-3.421875
126,126,1727959462238,-0.07324219,-0.83135986,0.13934326,-0.609375,11.875,-3.765625
127,127,1727959462278,-0.033447266,-0.9209595,0.22283936,2.734375,7.03125,0.015625
128,128,1727959462318,-0.103759766,-0.9417114,0.1876831,1.34375,-5.078125,0.15625
129,129,1727959462358,-0.13012695,-0.9631958,0.19232178,-0.1875,-5.078125,-0.46875
130,130,1727959462398,-0.09082031,-1.1431274,0.15911865,2.03125,-9.4375,-0.875
131,131,1727959462438,-0.067871094,-1.2439575,0.10369873,3.265625,-14.84375,0.953125
132,132,1727959462478,-0.09301758,-1.2156372,0.0079956055,2.015625,-10.0,1.171875
133,133,1727959462518,-0.16479492,-1.0982056,-0.0032348633,7.125,-2.359375,-0.21875
134,134,1727959462558,-0.12963867,-0.99005127,-0.06109619,5.0,3.421875,5.234375
135,135,1727959462598,-0.13745117,-1.2925415,-0.034973145,-7.203125,-8.953125,6.59375
136,136,1727959462638,-0.06689453,-1.3572388,0.10076904,4.640625,-13.390625,-1.09375
137,137,1727959462678,-0.14941406,-1.0530396,0.13763428,11.21875,16.703125,9.71875
138,138,1727959462718,-0.25952148,-0.6865845,-0.027404785,4.046875,7.171875,11.515625
139,139,1727959462758,-0.2944336,-0.6304321,-0.042297363,-2.265625,-3.984375,-5.21875
140,140,1727959462798,-0.2331543,-0.89434814,-0.0025024414,-9.75,-1.359375,-11.84375
141,141,1727959462838,-0.03515625,-0.9714966,-0.010070801,-3.484375,1.40625,-3.625
142,142,1727959462878,-0.006591797,-0.89434814,0.032165527,-4.71875,-2.46875,0.625
143,143,1727959462918,-0.087646484,-0.75616455,0.089538574,3.25,4.609375,7.015625
144,144,1727959462958,-0.32128906,-0.6333618,-0.0049438477,1.71875,-5.96875,7.28125
145,145,1727959462998,-0.36328125,-0.7034302,0.020690918,-5.84375,11.828125,-5.390625
146,146,1727959463038,-0.16992188,-0.85284424,0.0079956055,-6.03125,10.890625,-15.78125
147,147,1727959463078,0.0012207031,-1.1802368,0.09466553,-11.203125,8.140625,-12.75
148,148,1727959463118,0.1821289,-1.5784302,0.18914795,-3.625,13.9375,4.25
149,149,1727959463158,0.16552734,-1.1843872,0.18304443,7.859375,-2.5,9.15625
150,150,1727959463198,-0.017578125,-1.046936,0.13763428,-2.3125,-3.640625,16.828125
151,151,1727959463238,-0.110839844,-1.5327759,0.11151123,-5.6875,-12.375,9.40625
152,152,1727959463278,-0.015136719,-1.3567505,0.23040771,13.734375,-10.703125,-5.125
153,153,1727959463318,-0.20678711,-1.0244751,0.08538818,3.21875,0.671875,-3.890625
154,154,1727959463358,-0.32373047,-0.75201416,0.061950684,11.5,7.453125,-9.9375
155,155,1727959463398,-0.029296875,-0.7510376,0.101989746,1.078125,13.859375,-7.40625
156,156,1727959463438,0.22241211,-0.9553833,0.2345581,-9.09375,-4.703125,3.671875
157,157,1727959463478,0.020996094,-0.8779907,0.2267456,-0.046875,-10.375,7.140625
158,158,1727959463518,-0.3190918,-0.7295532,0.0836792,-1.484375,-2.359375,-3.046875
159,159,1727959463558,-0.30859375,-0.7710571,0.044128418,-4.0625,13.453125,-15.21875
160,160,1727959463598,0.0068359375,-0.77593994,0.1671753,-1.828125,14.6875,-13.5625
161,161,1727959463638,0.041992188,-0.8838501,0.22894287,-10.640625,7.578125,-4.09375
162,162,1727959463678,-0.119628906,-0.90826416,0.1593628,1.640625,-4.046875,-2.0625
163,163,1727959463718,-0.18579102,-0.9590454,0.13397217,2.84375,2.515625,-7.671875
164,164,1727959463758,-0.13989258,-0.9338989,0.17596436,-6.046875,-4.03125,-6.5
165,165,1727959463798,-0.104003906,-1.204895,0.073913574,-13.734375,-11.109375,-1.421875
166,166,1727959463838,-0.1105957,-1.3657837,0.059265137,-0.828125,-17.84375,-0.9375
167,167,1727959463878,-0.2487793,-1.2156372,0.070007324,-1.640625,2.34375,1.375
168,168,1727959463918,-0.22607422,-1.138977,0.019958496,-5.875,6.65625,1.78125
169,169,1727959463958,-0.24584961,-1.2559204,0.07537842,-8.40625,7.578125,2.90625
170,170,1727959463998,-0.16918945,-1.18219,0.15496826,-2.421875,-0.953125,-3.671875
171,171,1727959464038,-0.125,-1.1067505,0.2189331,-3.59375,2.859375,-0.5625
172,172,1727959464078,-0.1472168,-0.84747314,0.18841553,4.171875,2.703125,13.65625
173,173,1727959464118,-0.22387695,-0.6765747,0.029724121,0.25,-5.625,7.953125
174,174,1727959464158,-0.3071289,-0.75567627,0.00018310547,0.046875,-0.25,-5.609375
175,175,1727959464198,-0.22607422,-0.90631104,0.046081543,-8.453125,4.625,-4.671875
176,176,1727959464238,-0.041503906,-0.91241455,0.12786865,-13.125,-4.53125,0.40625
177,177,1727959464278,-0.13110352,-0.7769165,0.18865967,-4.265625,-7.734375,5.84375
178,178,1727959464318,-0.33911133,-0.673645,0.13739014,-4.53125,-8.859375,1.109375
179,179,1727959464358,-0.36010742,-0.7359009,0.11419678,-7.96875,-2.90625,-5.46875
180,180,1727959464398,-0.18334961,-0.84820557,0.14154053,-4.8125,4.375,-5.15625
181,181,1727959464438,-0.033203125,-0.84039307,0.059265137,-0.171875,-3.5,1.640625
182,182,1727959464478,0.07299805,-1.086731,0.08685303,11.765625,-7.4375,1.234375
183,183,1727959464518,0.0075683594,-1.4334106,0.48919678,5.5,13.953125,10.75
184,184,1727959464558,-0.13012695,-1.2249146,0.35638428,4.625,8.890625,23.28125
185,185,1727959464598,-0.24365234,-1.0808716,0.11834717,-5.25,9.5625,8.578125
186,186,1727959464638,-0.00048828125,-1.328186,0.20697021,11.578125,4.03125,-7.328125
187,187,1727959464678,0.05834961,-1.3252563,0.3847046,-0.234375,4.296875,0.171875
188,188,1727959464718,-0.091552734,-1.0484009,0.19573975,-6.484375,-8.171875,13.53125
189,189,1727959464758,-0.16088867,-0.8140259,0.21746826,16.75,3.59375,5.125
190,190,1727959464798,-0.14941406,-0.78497314,0.14666748,13.59375,5.453125,-9.6875
191,191,1727959464838,-0.1105957,-0.78985596,0.17279053,4.84375,9.265625,-9.21875
192,192,1727959464878,0.03491211,-0.78302,0.17010498,5.578125,8.828125,-4.703125
193,193,1727959464918,0.045410156,-0.8255005,0.23822021,2.09375,0.875,-2.046875
194,194,1727959464958,-0.12158203,-0.7510376,0.12298584,6.171875,0.765625,-1.109375
195,195,1727959464998,-0.15942383,-0.69976807,0.0836792,11.4375,1.0625,-6.90625
196,196,1727959465038,-0.018066406,-0.8718872,0.16790771,1.078125,-2.703125,-7.1875
197,197,1727959465078,-0.0026855469,-0.9907837,0.23480225,2.21875,-10.625,-9.4375
198,198,1727959465118,-0.12158203,-0.9573364,0.074645996,8.515625,-14.015625,-4.3125
199,199,1727959465158,-0.27075195,-1.1028442,0.036315918,0.484375,-16.53125,-7.1875
200,200,1727959465198,-0.16040039,-1.3167114,-0.03253174,-1.640625,-20.203125,-15.71875
201,201,1727959465238,-0.019042969,-1.4363403,0.09979248,1.640625,-3.359375,-7.296875
202,202,1727959465278,0.033203125,-1.2039185,-0.07208252,6.171875,-8.984375,11.4375
203,203,1727959465318,-0.18261719,-1.1890259,-0.03253174,-3.390625,-7.078125,24.546875
204,204,1727959465358,-0.2565918,-1.1155396,0.0848999,1.421875,-13.265625,8.203125
205,205,1727959465398,-0.3725586,-1.142395,0.09979248,0.328125,4.390625,-4.09375
206,206,1727959465438,-0.3232422,-0.9807739,-0.04547119,5.90625,12.828125,0.765625
207,207,1727959465478,-0.19384766,-0.6814575,-0.034973145,-1.296875,13.984375,-5.046875
208,208,1727959465518,-0.07397461,-0.8045044,-0.024719238,-10.4375,4.296875,-3.984375
209,209,1727959465558,-0.064697266,-0.97784424,0.027038574,-4.8125,4.671875,12.28125
210,210,1727959465598,-0.14404297,-0.8491821,-0.00982666,-4.1875,-3.0625,8.578125
211,211,1727959465638,-0.20703125,-0.74298096,0.062927246,-1.40625,-6.453125,0.75
212,212,1727959465678,-0.31884766,-0.77716064,0.12982178,-7.125,6.078125,3.640625
213,213,1727959465718,-0.3005371,-0.722229,0.050720215,1.625,14.234375,-0.75
214,214,1727959465758,-0.11645508,-0.704895,0.042419434,-2.75,14.0,-7.203125
215,215,1727959465798,-0.033691406,-0.9036255,0.1618042,-11.234375,5.125,-3.75
216,216,1727959465838,0.024902344,-1.130188,0.054870605,-5.90625,6.65625,3.515625
217,217,1727959465878,0.07763672,-1.2141724,0.16986084,-8.078125,12.140625,11.078125
218,218,1727959465918,0.021728516,-1.0706177,0.10687256,-0.78125,-8.1875,8.671875
219,219,1727959465958,-0.12817383,-1.4248657,0.12591553,-12.3125,5.4375,13.234375
220,220,1727959465998,0.1027832,-1.5720825,0.2645874,-8.890625,-8.34375,-8.171875
221,221,1727959466038,0.072753906,-1.2852173,0.49041748,8.15625,7.609375,-6.484375
222,222,1727959466078,-0.30493164,-0.9729614,0.018493652,-1.21875,1.9375,4.015625
223,223,1727959466118,-0.25952148,-0.7349243,0.13275146,14.21875,5.296875,-11.328125
224,224,1727959466158,0.0026855469,-0.8381958,0.20037842,11.5625,16.234375,-13.40625
225,225,1727959466198,0.061523438,-0.89190674,0.18719482,1.296875,8.71875,-2.046875
226,226,1727959466238,0.07104492,-0.77471924,0.15203857,-2.203125,-0.703125,2.421875
227,227,1727959466278,0.021484375,-0.73223877,0.22064209,-1.078125,-6.640625,1.03125
228,228,1727959466318,-0.13354492,-0.8591919,0.20037842,-6.21875,-4.703125,-2.09375
229,229,1727959466358,-0.15405273,-0.8196411,0.17596436,0.40625,-7.359375,-10.6875
230,230,1727959466398,-0.10058594,-0.81866455,0.18817139,2.03125,0.515625,-13.09375
231,231,1727959466438,-0.079589844,-0.85113525,0.18084717,1.46875,-0.15625,-9.671875
232,232,1727959466478,-0.14086914,-0.7683716,0.15789795,-2.390625,-2.609375,-7.046875
233,233,1727959466518,-0.15454102,-0.8250122,0.04437256,-10.0,-9.1875,-7.828125
234,234,1727959466558,-0.17675781,-1.21344,0.08343506,-12.71875,-9.328125,-7.515625
235,235,1727959466598,-0.080322266,-1.460022,0.11224365,-2.484375,-14.03125,-9.5625
236,236,1727959466638,-0.018554688,-1.326477,0.19085693,-3.515625,2.421875,6.203125
237,237,1727959466678,-0.38330078,-1.4402466,0.00579834,-6.421875,2.546875,17.046875
238,238,1727959466718,-0.19799805,-1.1760864,0.14324951,6.640625,-5.265625,5.890625
239,239,1727959466758,-0.24560547,-1.0479126,0.24822998,6.515625,10.359375,0.515625
240,240,1727959466798,-0.26953125,-0.927063,0.14251709,3.609375,7.828125,-2.125
241,241,1727959466838,-0.16967773,-0.8870239,0.10418701,-4.421875,-0.78125,3.453125
242,242,1727959466878,-0.15112305,-0.9302368,0.07220459,-1.453125,4.0,4.328125
243,243,1727959466918,-0.21801758,-0.84503174,0.011169434,3.875,5.78125,1.796875
244,244,1727959466958,-0.16918945,-0.80352783,0.051940918,-1.875,-1.296875,2.328125
245,245,1727959466998,-0.12695312,-0.79473877,0.117126465,-6.703125,-4.5,3.09375
246,246,1727959467038,-0.2163086,-0.80352783,0.09295654,-9.34375,-9.15625,-0.109375
247,247,1727959467078,-0.27026367,-0.7854614,0.09954834,-7.40625,-6.515625,-4.640625
248,248,1727959467118,-0.19140625,-0.77593994,0.14349365,5.96875,5.28125,-3.1875
249,249,1727959467158,-0.18237305,-0.75445557,0.13128662,2.453125,4.40625,1.71875
250,250,1727959467198,-0.11401367,-0.82647705,0.14520264,-4.453125,-6.875,-2.125
251,251,1727959467238,-0.1081543,-1.1426392,0.13616943,-4.4375,-12.453125,0.453125
252,252,1727959467278,-0.15527344,-1.3347778,0.24432373,4.171875,3.9375,0.640625
253,253,1727959467318,-0.016113281,-1.1526489,0.1696167,5.90625,6.90625,1.640625
254,254,1727959467358,0.031982422,-1.1228638,0.24359131,8.765625,4.234375,9.6875
255,255,1727959467398,-0.09399414,-1.300354,0.13031006,2.90625,-2.75,8.203125
256,256,1727959467438,-0.07714844,-1.3399048,0.27459717,3.921875,-16.421875,-1.46875
257,257,1727959467478,-0.123046875,-1.1731567,0.20721436,-1.65625,2.390625,-0.953125
258,258,1727959467518,-0.24267578,-0.86309814,0.105895996,8.109375,1.359375,-1.5625
259,259,1727959467558,-0.1730957,-0.7683716,0.18206787,6.84375,5.71875,-8.5
260,260,1727959467598,-0.07519531,-0.88653564,0.19671631,3.171875,6.046875,-4.375
261,261,1727959467638,-0.021240234,-0.8953247,0.15570068,4.75,1.96875,1.96875
262,262,1727959467678,-0.045410156,-0.8340454,0.15960693,3.046875,3.921875,3.109375
263,263,1727959467718,-0.09350586,-0.7925415,0.11444092,8.765625,3.5625,2.515625
264,264,1727959467758,-0.14550781,-0.7974243,0.16619873,4.296875,5.578125,-2.453125
265,265,1727959467798,-0.15478516,-0.894104,0.19940186,-0.015625,1.875,-5.484375
266,266,1727959467838,-0.123535156,-0.89849854,0.1437378,11.296875,0.15625,-6.015625
267,267,1727959467878,-0.10888672,-0.7913208,0.1383667,4.953125,4.6875,-7.390625
268,268,1727959467918,-0.10083008,-0.82159424,0.15960693,-1.390625,-4.953125,-3.6875
269,269,1727959467958,-0.091552734,-0.9668579,0.0680542,2.09375,-15.046875,-6.53125
270,270,1727959467998,-0.111328125,-1.1174927,0.070739746,-10.078125,-17.65625,-5.65625
271,271,1727959468038,-0.095947266,-1.2515259,-0.05645752,0.0,-27.03125,-1.0
272,272,1727959468078,-0.12939453,-1.1912231,0.026794434,9.90625,-1.84375,6.65625
273,273,1727959468118,-0.2758789,-1.164856,-0.032287598,2.8125,-0.28125,14.0625
274,274,1727959468158,-0.42797852,-1.4690552,-0.16021729,-17.28125,-14.515625,5.28125
275,275,1727959468198,-0.11816406,-1.4417114,0.29730225,8.8125,-11.234375,-7.71875
276,276,1727959468238,-0.024169922,-1.1463013,0.22235107,4.734375,24.234375,5.9375
277,277,1727959468278,-0.21118164,-0.6880493,-0.07989502,8.890625,-7.109375,19.109375
278,278,1727959468318,-0.35351562,-0.59332275,-0.08282471,-6.65625,-13.125,-0.6875
279,279,1727959468358,-0.3696289,-0.9175415,-0.0713501,-8.71875,-7.078125,-15.546875
280,280,1727959468398,-0.15283203,-0.9697876,0.00970459,-9.671875,3.4375,-4.890625
281,281,1727959468438,-0.013427734,-0.88287354,0.038269043,-22.859375,-5.359375,-2.890625
282,282,1727959468478,-0.15820312,-0.8311157,0.07562256,-15.90625,-14.359375,0.859375
283,283,1727959468518,-0.2866211,-0.7276001,0.053894043,-8.375,-1.15625,4.671875
284,284,1727959468558,-0.26782227,-0.6538696,0.07244873,-10.4375,-2.328125,-0.828125
285,285,1727959468598,-0.12768555,-0.7437134,0.137146,-6.640625,-2.859375,-2.109375
286,286,1727959468638,-0.087890625,-0.8550415,0.14593506,-8.46875,-6.828125,2.953125
287,287,1727959468678,-0.17529297,-0.85357666,0.12762451,-2.140625,-15.0,-1.046875
288,288,1727959468718,-0.25854492,-1.1292114,0.15985107,-0.984375,1.171875,-3.78125
289,289,1727959468758,-0.12841797,-1.364563,0.11029053,0.515625,10.78125,2.140625
290,290,1727959468798,0.14770508,-1.0730591,0.4430542,1.9375,-0.4375,10.5625
291,291,1727959468838,-0.12548828,-1.5632935,0.277771,-24.625,2.796875,21.5
292,292,1727959468878,-0.22460938,-1.5064087,0.24310303,27.28125,-5.15625,13.484375
293,293,1727959468918,-0.2644043,-1.010315,0.2489624,3.046875,18.8125,-16.09375
294,294,1727959468958,-0.2006836,-0.8772583,0.048034668,-1.140625,15.640625,-17.8125
295,295,1727959468998,-0.044433594,-0.9326782,0.15887451,12.484375,21.796875,-1.328125
296,296,1727959469038,0.075927734,-0.9138794,0.31976318,4.25,12.984375,5.03125
297,297,1727959469078,-0.05419922,-0.86138916,0.22161865,-0.828125,10.125,6.84375
298,298,1727959469118,-0.20776367,-0.77423096,0.10760498,5.84375,11.0,-2.03125
299,299,1727959469158,-0.08959961,-0.7473755,0.13031006,6.296875,17.421875,-14.40625
300,300,1727959469198,-0.03515625,-0.8296509,0.19720459,-0.390625,19.25,-8.609375
301,301,1727959469238,-0.037353516,-0.9451294,0.16864014,3.671875,9.359375,-3.09375
302,302,1727959469278,-0.106933594,-0.85723877,0.19281006,2.8125,4.75,-5.515625
303,303,1727959469318,-0.1550293,-0.7432251,0.17938232,2.578125,15.828125,-5.21875
304,304,1727959469358,-0.08276367,-0.78790283,0.08709717,7.90625,6.59375,-3.03125
305,305,1727959469398,0.0021972656,-0.85235596,0.21575928,6.296875,-2.671875,-4.46875
306,306,1727959469438,-0.1081543,-1.0562134,0.10418701,-2.9375,-12.09375,-0.6875
307,307,1727959469478,-0.18408203,-1.2371216,-0.010314941,-1.46875,-8.03125,0.046875
308,308,1727959469518,-0.049072266,-1.2088013,-0.08648682,1.65625,-1.078125,-2.921875
309,309,1727959469558,-0.12475586,-1.30719,0.045837402,1.625,5.296875,3.796875
310,310,1727959469598,-0.25,-1.578186,-0.11578369,-6.203125,-6.21875,5.15625
311,311,1727959469638,-0.13330078,-1.4187622,0.34490967,3.234375,-16.765625,7.96875
312,312,1727959469678,-0.4284668,-0.9685669,0.05999756,7.484375,-6.59375,3.140625
313,313,1727959469718,-0.4453125,-0.661438,-0.008117676,17.578125,2.65625,-17.609375
314,314,1727959469758,-0.16772461,-0.67266846,0.11834717,6.890625,12.875,-17.015625
315,315,1727959469798,-0.0029296875,-0.92315674,0.2098999,-8.625,10.96875,-0.15625
316,316,1727959469838,-0.041992188,-0.99346924,0.17523193,-6.765625,-8.765625,8.46875
317,317,1727959469878,-0.19091797,-0.8320923,0.18719482,4.25,0.703125,0.296875
318,318,1727959469918,-0.2512207,-0.74346924,0.1071167,11.03125,8.6875,-4.140625
319,319,1727959469958,-0.20288086,-0.6621704,0.14520264,4.171875,17.203125,-2.90625
320,320,1727959469998,-0.12768555,-0.67852783,0.19647217,-6.0625,3.359375,-1.578125
321,321,1727959470038,-0.20825195,-0.88238525,0.27215576,-16.921875,-13.671875,-5.3125
322,322,1727959470078,-0.30322266,-1.022522,0.17913818,-9.4375,-9.328125,-14.546875
323,323,1727959470118,-0.24389648,-1.0037231,0.30169678,6.09375,-1.25,-11.5
324,324,1727959470158,-0.13574219,-0.87091064,0.1774292,-1.125,7.390625,-2.53125
325,325,1727959470198,-0.20751953,-0.9505005,0.025817871,-3.015625,-10.390625,-2.5
326,326,1727959470238,-0.3071289,-1.234436,0.030944824,-1.953125,-27.859375,-1.109375
327,327,1727959470278,-0.2631836,-1.3423462,0.11859131,8.078125,0.0625,1.109375
328,328,1727959470318,-0.31860352,-1.1602173,-0.01373291,4.6875,-1.078125,6.5625
329,329,1727959470358,-0.34936523,-1.2786255,-0.051086426,-12.703125,1.640625,2.359375
330,330,1727959470398,-0.31811523,-1.3132935,0.19769287,-6.296875,-7.609375,-3.265625
331,331,1727959470438,-0.20507812,-1.1060181,0.30877686,-3.84375,17.8125,4.203125
332,332,1727959470478,-0.31274414,-0.78912354,0.1251831,-5.71875,-1.375,10.9375
333,333,1727959470518,-0.4116211,-0.63287354,-0.002746582,-4.875,-1.96875,1.328125
334,334,1727959470558,-0.40625,-0.7625122,-0.031799316,2.90625,2.859375,-10.515625
335,335,1727959470598,-0.27539062,-0.9541626,0.06121826,1.71875,9.8125,-10.171875
336,336,1727959470638,-0.19848633,-0.99346924,0.13543701,-11.875,-4.25,-6.453125
337,337,1727959470678,-0.22631836,-0.78912354,0.15252686,-14.890625,-5.234375,-2.578125
338,338,1727959470718,-0.30078125,-0.6865845,0.04901123,-11.3125,1.75,0.90625
339,339,1727959470758,-0.36767578,-0.69000244,0.12591553,-7.046875,0.21875,-3.796875
340,340,1727959470798,-0.33813477,-0.77716064,0.17791748,-7.9375,-2.03125,-8.328125
341,341,1727959470838,-0.21508789,-0.8508911,0.1708374,-3.1875,8.53125,-4.484375
342,342,1727959470878,-0.23144531,-0.77471924,0.13348389,4.140625,5.71875,5.125
343,343,1727959470918,-0.2553711,-0.79034424,0.08343506,-0.921875,-4.96875,3.90625
344,344,1727959470958,-0.3232422,-1.2695923,0.21478271,1.703125,2.34375,0.90625
345,345,1727959470998,-0.12133789,-1.2717896,0.41766357,11.859375,5.03125,7.15625
346,346,1727959471038,-0.14501953,-1.0230103,0.25213623,3.171875,4.515625,10.046875
347,347,1727959471078,-0.44921875,-1.3589478,0.12054443,5.28125,8.765625,8.203125
348,348,1727959471118,-0.20507812,-1.3880005,0.40301514,12.359375,-7.609375,-5.71875
349,349,1727959471158,-0.23095703,-1.1477661,0.307312,-4.796875,10.96875,-4.859375
350,350,1727959471198,-0.37280273,-0.83306885,0.08099365,7.453125,4.140625,-2.59375
351,351,1727959471238,-0.20898438,-0.6968384,0.2333374,18.796875,14.875,-6.34375
352,352,1727959471278,-0.06347656,-0.8748169,0.21209717,0.140625,9.1875,-0.75
353,353,1727959471318,-0.07495117,-0.94195557,0.21844482,11.96875,-7.28125,9.5625
354,354,1727959471358,-0.18652344,-0.7595825,0.17059326,21.890625,0.359375,7.09375
355,355,1727959471398,-0.28198242,-0.6890259,0.14813232,11.078125,15.375,1.65625
356,356,1727959471438,-0.1821289,-0.7630005,0.089782715,5.59375,5.265625,3.59375
357,357,1727959471478,-0.110839844,-0.9224243,0.2531128,-3.828125,-10.234375,-0.953125
358,358,1727959471518,-0.22705078,-0.9036255,0.21600342,4.359375,-2.953125,1.875
359,359,1727959471558,-0.32641602,-0.7793579,0.06854248,10.9375,7.359375,-0.71875
360,360,1727959471598,-0.23242188,-0.71881104,0.08856201,4.265625,2.5625,-9.875
361,361,1727959471638,-0.12988281,-0.8960571,0.029724121,1.359375,-9.046875,-6.046875
362,362,1727959471678,-0.21264648,-1.1450806,0.030700684,-1.1875,-15.6875,-1.21875
363,363,1727959471718,-0.28051758,-1.3799438,-0.058898926,-2.484375,-7.953125,-0.265625
364,364,1727959471758,-0.29833984,-1.3731079,-0.10748291,6.40625,-0.390625,6.234375
365,365,1727959471798,-0.38134766,-1.5061646,-0.14849854,-0.453125,2.140625,11.703125
366,366,1727959471838,-0.37817383,-1.2935181,0.22796631,8.890625,-3.734375,-0.59375
367,367,1727959471878,-0.24316406,-0.9800415,0.18133545,8.875,30.484375,-0.140625
368,368,1727959471918,-0.20800781,-0.7317505,-0.0029907227,0.59375,2.25,13.265625
369,369,1727959471958,-0.3022461,-0.64434814,-0.085998535,-7.53125,-9.140625,2.421875
370,370,1727959471998,-0.46801758,-0.9209595,-0.06036377,-4.140625,-2.953125,-14.375
371,371,1727959472038,-0.22167969,-0.9710083,-0.039123535,4.3125,2.359375,-9.75
372,372,1727959472078,-0.049804688,-0.8584595,0.025817871,-7.546875,2.484375,1.875
373,373,1727959472118,-0.15332031,-0.76275635,0.040222168,-14.1875,-19.234375,5.15625
374,374,1727959472158,-0.4777832,-0.76397705,0.09661865,-11.078125,-14.203125,3.203125
375,375,1727959472198,-0.5192871,-0.75567627,0.109558105,-22.453125,0.875,-9.765625
376,376,1727959472238,-0.32641602,-0.6655884,0.066101074,-27.578125,7.09375,-20.09375
377,377,1727959472278,-0.1628418,-0.8479614,0.04925537,-10.0625,-0.953125,-9.125
378,378,1727959472318,-0.033203125,-1.0076294,0.070495605,-3.375,3.765625,4.4375
379,379,1727959472358,-0.19042969,-0.9619751,0.09613037,0.046875,-9.9375,6.65625
380,380,1727959472398,-0.28637695,-1.1831665,0.22357178,-0.71875,4.328125,9.078125
381,381,1727959472438,-0.23632812,-1.1697388,0.23065186,-5.46875,-2.640625,9.296875
382,382,1727959472478,-0.2512207,-1.2346802,0.113464355,-6.75,-11.140625,1.5
383,383,1727959472518,-0.18652344,-1.4021606,0.35028076,-2.21875,-3.75,-3.796875
384,384,1727959472558,-0.17456055,-1.4124146,0.38250732,-2.546875,-10.09375,0.6875
385,385,1727959472598,-0.37719727,-0.98931885,0.17889404,-4.0625,-6.78125,9.71875
386,386,1727959472638,-0.43286133,-0.68536377,0.06365967,15.296875,9.171875,-7.203125
387,387,1727959472678,-0.3022461,-0.66851807,0.20599365,12.359375,12.671875,-18.765625
388,388,1727959472718,-0.060546875,-0.8855591,0.20819092,-0.359375,15.421875,-2.828125
389,389,1727959472758,0.010498047,-0.97540283,0.2633667,-4.296875,-3.953125,8.078125
390,390,1727959472798,-0.13867188,-0.7918091,0.28900146,7.515625,-1.375,6.375
391,391,1727959472838,-0.32202148,-0.60772705,0.1005249,5.15625,4.859375,2.484375
392,392,1727959472878,-0.21655273,-0.6494751,0.15911865,-1.328125,4.171875,-3.40625
393,393,1727959472918,-0.14282227,-0.8833618,0.2682495,2.453125,-3.390625,1.46875
394,394,1727959472958,-0.1027832,-1.0025024,0.21282959,0.484375,-7.34375,3.8125
395,395,1727959472998,-0.27539062,-0.8687134,0.18792725,5.796875,-7.03125,3.53125
396,396,1727959473038,-0.35180664,-0.8171997,0.10272217,9.96875,-4.796875,-6.203125
397,397,1727959473078,-0.2692871,-1.0733032,0.13079834,-4.15625,-15.875,-9.140625
398,398,1727959473118,-0.23364258,-1.3648071,0.11834717,-2.34375,-20.375,-3.390625
399,399,1727959473158,-0.22851562,-1.2883911,0.039733887,4.03125,-0.921875,-0.453125
400,400,1727959473198,-0.2446289,-1.1270142,-0.039123535,-4.609375,1.203125,0.0
401,401,1727959473238,-0.4230957,-1.2932739,-0.024230957,-5.25,0.109375,6.84375
402,402,1727959473278,-0.33984375,-1.2400513,0.184021,4.109375,-6.453125,-1.765625
403,403,1727959473318,-0.29736328,-1.0388794,0.27850342,9.8125,19.0,-2.59375
404,404,1727959473358,-0.23046875,-0.72613525,0.019470215,4.375,6.015625,10.84375
405,405,1727959473398,-0.27172852,-0.6367798,-0.040100098,-3.75,-5.34375,0.890625
406,406,1727959473438,-0.41137695,-0.88482666,0.027770996,-8.671875,-5.75,-13.8125
407,407,1727959473478,-0.28442383,-1.0244751,0.08441162,7.0625,5.6875,-3.421875
408,408,1727959473518,-0.14672852,-0.84088135,-0.0020141602,-4.625,6.109375,0.859375
409,409,1727959473558,-0.115722656,-0.6995239,0.09857178,-5.09375,-16.6875,0.90625
410,410,1727959473598,-0.32983398,-0.7197876,0.13983154,-2.34375,-8.140625,8.046875
411,411,1727959473638,-0.55200195,-0.74664307,0.04901123,-3.1875,2.3125,4.375
412,412,1727959473678,-0.34399414,-0.7280884,0.0602417,-2.25,-0.53125,-11.796875
413,413,1727959473718,-0.17407227,-0.87457275,0.16033936,-3.84375,12.484375,-9.109375
414,414,1727959473758,-0.22265625,-0.9517212,0.15325928,-2.1875,13.734375,7.375
415,415,1727959473798,-0.34985352,-1.0271606,0.15374756,-4.5625,7.046875,3.71875
416,416,1727959473838,-0.3034668,-1.3045044,0.070251465,-5.109375,3.859375,5.34375
417,417,1727959473878,-0.014404297,-1.1902466,0.277771,9.015625,4.625,10.828125
418,418,1727959473918,-0.061767578,-1.3967896,0.26409912,-8.46875,2.3125,16.484375
419,419,1727959473958,-0.20507812,-1.5474243,0.26556396,-4.671875,-24.484375,7.828125
420,420,1727959473998,-0.42138672,-1.1221313,0.28485107,16.140625,17.890625,-7.984375
421,421,1727959474038,-0.49951172,-0.7112427,0.007751465,19.984375,15.1875,-17.25
422,422,1727959474078,-0.203125,-0.5508423,0.10491943,11.03125,27.625,-19.296875
423,423,1727959474118,0.107910156,-0.79644775,0.18572998,-3.25,22.09375,-2.421875
424,424,1727959474158,0.19726562,-1.0906372,0.28778076,-14.28125,-10.34375,17.28125
425,425,1727959474198,-0.061523438,-0.90826416,0.26434326,-0.8125,-14.9375,14.921875
426,426,1727959474238,-0.41552734,-0.77301025,0.09490967,13.203125,-2.4375,2.359375
427,427,1727959474278,-0.37524414,-0.63067627,0.062194824,10.71875,8.921875,-10.5
428,428,1727959474318,-0.11352539,-0.7539673,0.16619873,1.46875,4.78125,-10.453125
429,429,1727959474358,-0.057617188,-1.041565,0.17962646,5.703125,-14.484375,0.140625
430,430,1727959474398,-0.15454102,-0.90802,0.17230225,12.265625,-0.890625,7.328125
431,431,1727959474438,-0.21386719,-0.75006104,0.09564209,1.78125,-9.296875,3.46875
432,432,1727959474478,-0.2043457,-0.8850708,0.019714355,-11.046875,-24.8125,-1.125
433,433,1727959474518,-0.1303711,-1.145813,0.011413574,-9.859375,-32.53125,-3.953125
434,434,1727959474558,-0.12060547,-1.3467407,0.050964355,-7.1875,-24.09375,0.8125
435,435,1727959474598,-0.2631836,-1.2576294,0.051940918,10.484375,0.78125,16.65625
436,436,1727959474638,-0.4243164,-1.1221313,-0.07550049,-0.546875,-2.734375,13.6875
437,437,1727959474678,-0.49316406,-1.2583618,0.046569824,-14.84375,-7.71875,-7.203125
438,438,1727959474718,-0.33251953,-1.40802,0.3078003,-5.015625,-8.203125,-17.765625
439,439,1727959474758,-0.28515625,-1.128479,0.16473389,-11.03125,16.734375,4.28125
440,440,1727959474798,-0.34106445,-0.7124634,-0.05279541,-13.953125,-0.875,3.734375
441,441,1727959474838,-0.28637695,-0.6296997,0.06781006,-3.546875,1.703125,-12.046875
442,442,1727959474878,-0.2685547,-0.85723877,0.04046631,-3.59375,7.9375,-3.65625
443,443,1727959474918,-0.16479492,-0.84210205,0.06732178,-13.1875,2.515625,2.1875
444,444,1727959474958,-0.18554688,-0.7481079,0.09442139,-17.46875,-14.5,-6.90625
445,445,1727959474998,-0.36865234,-0.7703247,0.14715576,-1.34375,1.1875,-5.671875
446,446,1727959475038,-0.42041016,-0.7046509,0.090026855,3.984375,4.5,-2.109375
447,447,1727959475078,-0.3425293,-0.6682739,0.112976074,-3.953125,-8.234375,-13.03125
448,448,1727959475118,-0.1586914,-0.8008423,0.1630249,-8.8125,4.03125,-12.671875
449,449,1727959475158,-0.13720703,-0.9011841,0.10345459,1.15625,1.1875,3.5
450,450,1727959475198,-0.2614746,-1.0405884,0.13372803,0.0625,-1.875,4.6875
451,451,1727959475238,-0.25,-1.3555298,0.22796631,9.109375,2.34375,2.84375
452,452,1727959475278,-0.14624023,-1.1455688,0.35931396,6.4375,1.5625,6.234375
453,453,1727959475318,-0.1665039,-1.5708618,0.36346436,-14.296875,9.78125,14.265625
454,454,1727959475358,-0.24609375,-1.5195923,0.33294678,17.53125,-41.890625,21.265625
455,455,1727959475398,-0.41357422,-0.95880127,0.15252686,5.9375,-3.5625,1.90625
456,456,1727959475438,-0.6213379,-0.6411743,-0.030334473,12.6875,5.5,-25.90625
457,457,1727959475478,-0.29418945,-0.6555786,0.12713623,17.296875,30.59375,-26.171875
458,458,1727959475518,0.05078125,-0.8352661,0.18914795,0.828125,18.296875,-1.015625
459,459,1727959475558,0.16235352,-0.8887329,0.2838745,-5.71875,-10.28125,13.78125
460,460,1727959475598,-0.10473633,-0.74664307,0.29608154,3.28125,-12.890625,14.25
461,461,1727959475638,-0.4428711,-0.75738525,0.1251831,12.0,-0.59375,6.140625
462,462,1727959475678,-0.42358398,-0.62384033,0.078063965,2.703125,3.671875,-14.28125
463,463,1727959475718,-0.18041992,-0.69317627,0.18231201,-5.96875,21.421875,-13.84375
464,464,1727959475758,-0.033935547,-1.036438,0.097351074,9.59375,-11.078125,-2.515625
465,465,1727959475798,-0.10058594,-1.0501099,0.27679443,-1.125,-13.671875,2.984375
466,466,1727959475838,-0.4753418,-1.2278442,0.0026245117,-13.34375,-4.765625,11.578125
467,467,1727959475878,-0.41552734,-1.3162231,-0.13214111,1.59375,-34.15625,-6.6875
468,468,1727959475918,-0.17529297,-1.3013306,0.20965576,15.4375,10.140625,-10.375
469,469,1727959475958,-0.20678711,-1.1235962,-0.0032348633,-3.125,8.125,17.4375
470,470,1727959475998,-0.5876465,-1.227356,-0.074279785,-12.875,-16.8125,9.9375
471,471,1727959476038,-0.41992188,-1.2998657,0.30413818,5.375,-4.78125,-18.28125
472,472,1727959476078,-0.3232422,-1.0803833,0.14642334,15.5625,34.109375,0.671875
473,473,1727959476118,-0.21801758,-0.6170044,-0.10821533,10.21875,7.765625,8.796875
474,474,1727959476158,-0.20825195,-0.5459595,-0.007873535,-4.84375,-9.296875,-1.34375
475,475,1727959476198,-0.3605957,-0.85601807,-0.05255127,-9.0,0.5,-3.109375
476,476,1727959476238,-0.40844727,-1.0098267,0.014099121,1.421875,2.546875,-4.1875
477,477,1727959476278,-0.2548828,-0.8484497,0.09637451,-3.796875,-0.78125,-9.578125
478,478,1727959476318,-0.21899414,-0.67926025,0.055603027,0.578125,7.65625,5.0
479,479,1727959476358,-0.41479492,-0.6514282,-0.00592041,-10.609375,5.171875,7.453125
480,480,1727959476398,-0.5073242,-0.75860596,0.1359253,-5.34375,0.71875,-14.09375
481,481,1727959476438,-0.35913086,-0.93341064,0.12591553,-5.796875,14.265625,-12.1875
482,482,1727959476478,-0.21801758,-0.96173096,0.08074951,-7.53125,15.34375,3.828125
483,483,1727959476518,-0.13134766,-0.86505127,0.07293701,2.59375,-2.203125,-2.953125
484,484,1727959476558,-0.19750977,-1.2046509,0.112976074,-0.21875,5.296875,6.59375
485,485,1727959476598,-0.16894531,-1.1748657,0.22381592,11.46875,-5.3125,12.90625
486,486,1727959476638,-0.22949219,-1.1116333,0.2543335,-2.53125,-8.34375,18.21875
487,487,1727959476678,-0.30249023,-1.333313,0.030212402,-9.546875,-6.96875,14.125
488,488,1727959476718,-0.13769531,-1.4297485,0.37982178,-6.28125,-18.875,2.125
489,489,1727959476758,-0.33642578,-1.3030396,0.22576904,-4.859375,4.375,3.828125
490,490,1727959476798,-0.5708008,-0.84991455,0.011169434,4.515625,7.8125,-7.546875
491,491,1727959476838,-0.26098633,-0.5979614,0.12738037,7.0,15.15625,-22.28125
492,492,1727959476878,-0.026123047,-0.7920532,0.18939209,1.71875,19.953125,-9.140625
493,493,1727959476918,-0.040039062,-1.0064087,0.24481201,-4.84375,8.328125,15.875
494,494,1727959476958,-0.09741211,-0.8809204,0.2074585,-0.375,-4.1875,10.140625
495,495,1727959476998,-0.2919922,-0.7756958,0.1696167,5.609375,-1.8125,-1.546875
496,496,1727959477038,-0.34277344,-0.7774048,0.13201904,-2.53125,11.546875,-3.3125
497,497,1727959477078,-0.14575195,-0.7630005,0.15740967,0.359375,4.484375,-4.0
498,498,1727959477118,-0.15283203,-0.83062744,0.18450928,3.84375,10.15625,-7.09375
499,499,1727959477158,-0.029296875,-1.0188599,0.27508545,-2.265625,6.71875,2.78125
500,500,1727959477198,-0.08300781,-0.9216919,0.18939209,6.140625,-2.140625,10.140625
501,501,1727959477238,-0.21191406,-0.7515259,0.16351318,3.9375,4.1875,6.328125
502,502,1727959477278,-0.18896484,-0.7234497,0.22381592,4.71875,13.546875,2.203125
503,503,1727959477318,-0.20532227,-0.78009033,0.15301514,7.671875,9.03125,1.5
504,504,1727959477358,-0.23828125,-0.72979736,0.1774292,11.890625,7.640625,-5.03125
505,505,1727959477398,-0.21875,-0.7468872,0.14178467,3.375,3.3125,-12.359375
506,506,1727959477438,-0.14038086,-0.9072876,0.14935303,2.21875,3.71875,-11.21875
507,507,1727959477478,-0.07910156,-0.9299927,0.14349365,7.234375,-4.65625,-4.640625
508,508,1727959477518,-0.18896484,-0.9949341,0.12567139,-8.015625,-9.015625,3.84375
509,509,1727959477558,-0.28710938,-1.2984009,0.0099487305,-9.296875,-21.015625,0.390625
510,510,1727959477598,-0.16870117,-1.3806763,0.10809326,4.640625,-27.609375,-3.484375
511,511,1727959477638,-0.34326172,-1.1133423,0.09637451,6.703125,3.796875,2.234375
512,512,1727959477678,-0.53393555,-0.9961548,-0.14337158,4.171875,0.28125,9.34375
513,513,1727959477718,-0.5090332,-1.2359009,-0.062072754,-14.734375,4.3125,-3.125
514,514,1727959477758,-0.29296875,-1.3919067,0.23944092,-0.703125,1.015625,-22.71875
515,515,1727959477798,-0.16235352,-1.1292114,0.17034912,18.34375,26.1875,-5.5625
516,516,1727959477838,-0.09350586,-0.6494751,-0.03326416,11.0625,15.78125,20.625
517,517,1727959477878,-0.17773438,-0.39678955,-0.13653564,-5.09375,-14.5625,18.59375
518,518,1727959477918,-0.43237305,-0.7090454,-0.07501221,-13.484375,-17.390625,-6.875
519,519,1727959477958,-0.40039062,-1.029602,0.066345215,-5.59375,-10.9375,-17.515625
520,520,1727959477998,-0.21655273,-0.927063,0.13421631,-13.984375,1.625,-6.25
521,521,1727959478038,-0.14111328,-0.65997314,0.08123779,-12.390625,-2.015625,3.796875
522,522,1727959478078,-0.40039062,-0.5857544,-0.016418457,-27.328125,-8.6875,3.828125
523,523,1727959478118,-0.37695312,-0.74298096,0.08123779,-9.234375,0.765625,-8.859375
524,524,1727959478158,-0.14916992,-0.97320557,0.2374878,-6.34375,-10.96875,-6.71875
525,525,1727959478198,-0.24365234,-1.1814575,0.18548584,-7.5,4.609375,5.453125
526,526,1727959478238,-0.16040039,-1.1101685,0.12689209,1.640625,-1.234375,4.375
527,527,1727959478278,-0.234375,-1.2224731,0.34124756,-7.703125,-3.84375,2.453125
528,528,1727959478318,-0.3869629,-1.4121704,0.21942139,-1.34375,8.734375,15.578125
529,529,1727959478358,-0.26391602,-1.3303833,0.20233154,1.03125,-5.1875,2.484375
530,530,1727959478398,-0.18432617,-1.2268677,0.31243896,6.171875,-6.984375,-8.328125
531,531,1727959478438,-0.39648438,-0.97979736,0.14202881,4.0,0.46875,-1.015625
532,532,1727959478478,-0.44067383,-0.71881104,0.097839355,8.75,8.34375,-9.859375
533,533,1727959478518,-0.1015625,-0.70025635,0.2218628,7.265625,19.46875,-12.3125
534,534,1727959478558,-0.010498047,-0.82696533,0.24725342,-3.140625,6.625,2.328125
535,535,1727959478598,-0.12573242,-0.8989868,0.25482178,-1.140625,-2.328125,10.953125
536,536,1727959478638,-0.18823242,-0.8862915,0.2140503,1.71875,-1.265625,3.921875
537,537,1727959478678,-0.26391602,-0.75128174,0.22235107,2.9375,6.0625,-1.15625
538,538,1727959478718,-0.22631836,-0.6148071,0.20428467,-1.40625,12.703125,-2.921875
539,539,1727959478758,-0.15649414,-0.77227783,0.16668701,3.734375,2.109375,1.109375
540,540,1727959478798,-0.13183594,-0.9031372,0.36346436,-2.40625,-6.515625,1.46875
541,541,1727959478838,-0.2097168,-0.89923096,0.2074585,4.375,2.65625,2.9375
542,542,1727959478878,-0.30615234,-0.87335205,0.0446167,14.453125,-21.171875,4.1875
543,543,1727959478918,-0.3154297,-0.9607544,0.14520264,3.671875,-14.6875,-6.546875
544,544,1727959478958,-0.30126953,-1.2459106,0.019226074,-0.5,-9.984375,-8.828125
545,545,1727959478998,-0.33496094,-1.3504028,-0.015930176,6.125,-0.8125,-3.8125
546,546,1727959479038,-0.25170898,-1.2507935,-0.007873535,-1.0,1.4375,-3.265625
547,547,1727959479078,-0.31176758,-1.3098755,0.12957764,1.5625,-5.046875,10.609375
548,548,1727959479118,-0.41381836,-1.2385864,0.08441162,1.65625,-1.125,8.359375
549,549,1727959479158,-0.41796875,-1.0308228,0.14031982,3.671875,3.953125,-8.109375
550,550,1727959479198,-0.31689453,-0.7883911,0.11151123,7.015625,17.359375,-5.46875
551,551,1727959479238,-0.14648438,-0.62213135,-0.044006348,-0.859375,7.703125,6.109375
552,552,1727959479278,-0.17773438,-0.72003174,0.014587402,-14.125,-17.890625,3.546875
553,553,1727959479318,-0.3395996,-1.00177,0.101745605,-10.1875,-16.859375,-5.75
554,554,1727959479358,-0.3840332,-0.9771118,0.11663818,-6.640625,-5.296875,-0.765625
555,555,1727959479398,-0.38598633,-0.7498169,0.12322998,-9.953125,1.0,-1.359375
556,556,1727959479438,-0.30395508,-0.57891846,0.12542725,-3.515625,0.75,-7.265625
557,557,1727959479478,-0.3725586,-0.62945557,0.1071167,-2.953125,-2.078125,-3.125
558,558,1727959479518,-0.30078125,-0.7786255,0.05267334,-4.109375,1.15625,-1.34375
559,559,1727959479558,-0.2998047,-0.9534302,0.12322998,-6.21875,-2.890625,-3.140625
560,560,1727959479598,-0.28515625,-1.0432739,0.20037842,4.203125,9.28125,-0.171875
561,561,1727959479638,-0.20385742,-1.0762329,0.2177124,12.3125,23.265625,7.3125
562,562,1727959479678,-0.104003906,-1.1370239,0.2062378,-2.875,1.390625,18.3125
563,563,1727959479718,-0.25097656,-1.385315,0.2321167,-9.703125,-5.6875,19.265625
564,564,1727959479758,-0.19873047,-1.6721802,0.2243042,0.109375,-0.578125,11.9375
565,565,1727959479798,-0.103027344,-1.1096802,0.25408936,20.046875,8.765625,1.296875
566,566,1727959479838,-0.5061035,-0.8189087,0.05218506,6.921875,-2.109375,-0.171875
567,567,1727959479878,-0.50024414,-0.7505493,0.038757324,10.765625,3.0,-19.703125
568,568,1727959479918,-0.050048828,-0.9312134,0.16595459,8.578125,21.734375,-18.953125
569,569,1727959479958,0.08569336,-1.1045532,0.3143921,-2.953125,4.0,3.328125
570,570,1727959479998,-0.092041016,-0.8401489,0.12884521,1.296875,-3.140625,14.78125
571,571,1727959480038,-0.24926758,-0.7420044,0.08856201,1.890625,-3.609375,5.546875
572,572,1727959480078,-0.2541504,-0.83477783,0.15301514,4.21875,5.21875,-2.609375
573,573,1727959480118,-0.16918945,-0.87579346,0.21282959,6.09375,10.796875,0.984375
574,574,1727959480158,-0.13085938,-0.8689575,0.18988037,5.625,0.890625,3.53125
575,575,1727959480198,-0.19335938,-0.71588135,0.15081787,0.03125,0.921875,3.0
576,576,1727959480238,-0.20800781,-0.6367798,0.09124756,-8.828125,5.34375,-0.25
577,577,1727959480278,-0.22460938,-0.87628174,0.16473389,-9.078125,-5.078125,-12.734375
578,578,1727959480318,-0.0859375,-1.1272583,0.291687,1.5,-13.5625,-11.375
579,579,1727959480358,-0.24267578,-1.0093384,0.19989014,-2.140625,1.484375,2.046875
580,580,1727959480398,-0.35009766,-0.92803955,-0.035949707,-7.328125,-12.5,-5.703125
581,581,1727959480438,-0.30297852,-1.1907349,0.101989746,-10.5,-22.71875,-14.328125
582,582,1727959480478,-0.2800293,-1.375061,0.054382324,-3.21875,-5.484375,-4.734375
583,583,1727959480518,-0.28735352,-1.2319946,0.03289795,-3.25,4.3125,0.0625
584,584,1727959480558,-0.5546875,-1.2825317,0.06561279,-1.28125,4.046875,-0.171875
585,585,1727959480598,-0.32202148,-1.2647095,0.23968506,-9.15625,2.71875,-12.703125
586,586,1727959480638,-0.17822266,-1.0230103,0.26483154,-1.359375,6.484375,1.640625
587,587,1727959480678,-0.23608398,-0.6929321,0.1461792,8.796875,4.578125,17.765625
588,588,1727959480718,-0.34814453,-0.5835571,-0.027893066,-4.3125,-7.65625,3.390625
589,589,1727959480758,-0.35229492,-0.8086548,0.081726074,-5.8125,-4.046875,-9.625
590,590,1727959480798,-0.23730469,-0.9248657,0.08709717,-7.40625,-3.765625,0.203125
591,591,1727959480838,-0.2668457,-0.8208618,0.034118652,-15.8125,-13.828125,-0.6875
592,592,1727959480878,-0.28344727,-0.7476196,0.15106201,-8.828125,-16.140625,-4.125
593,593,1727959480918,-0.3696289,-0.66851807,0.23236084,0.421875,-7.875,3.5625
594,594,1727959480958,-0.44604492,-0.6277466,0.11224365,-1.546875,-4.890625,-3.828125
595,595,1727959480998,-0.27661133,-0.7510376,0.10418701,-1.609375,-3.34375,-14.171875
596,596,1727959481038,-0.27783203,-0.9480591,0.24847412,3.25,3.46875,0.671875
597,597,1727959481078,-0.34179688,-1.0532837,0.09075928,-0.296875,6.703125,3.96875
598,598,1727959481118,-0.29492188,-1.1213989,0.16448975,14.71875,-3.9375,-0.734375
599,599,1727959481158,-0.24926758,-1.2376099,0.152771,10.625,0.640625,6.75
600,600,1727959481198,-0.014160156,-1.239563,0.35247803,-1.875,2.0,17.640625
601,601,1727959481238,-0.18530273,-1.4458618,0.27825928,-7.515625,-4.953125,31.1875
602,602,1727959481278,-0.46484375,-1.1885376,0.13934326,8.546875,-20.03125,6.5625
603,603,1727959481318,-0.47631836,-0.93414307,0.14910889,-1.03125,1.125,-26.453125
604,604,1727959481358,-0.3112793,-0.87213135,0.11566162,3.640625,11.9375,-20.1875
605,605,1727959481398,-0.10571289,-0.8887329,0.23358154,8.75,16.734375,2.53125
606,606,1727959481438,-0.09765625,-0.7764282,0.3143921,3.890625,-1.75,14.109375
607,607,1727959481478,-0.23999023,-0.67681885,0.15887451,2.484375,0.71875,7.984375
608,608,1727959481518,-0.31445312,-0.7427368,0.16571045,16.984375,14.375,0.984375
609,609,1727959481558,-0.1772461,-0.7346802,0.17181396,-0.15625,12.53125,-11.71875
610,610,1727959481598,-0.14526367,-0.8098755,0.22747803,5.375,21.75,-6.9375
611,611,1727959481638,-0.18530273,-0.9109497,0.16278076,7.3125,4.515625,-0.25
612,612,1727959481678,-0.08984375,-0.80059814,0.17791748,2.609375,5.75,2.578125
613,613,1727959481718,-0.14746094,-0.7732544,0.1329956,-1.078125,-3.390625,7.484375
614,614,1727959481758,-0.2980957,-1.0161743,0.0446167,2.296875,-18.90625,1.828125
615,615,1727959481798,-0.2993164,-1.2649536,0.08856201,-9.3125,-15.609375,-11.28125
616,616,1727959481838,-0.27514648,-1.2212524,-0.062561035,0.5,-12.125,-5.046875
617,617,1727959481878,-0.359375,-1.1607056,-0.023742676,8.75,6.203125,1.734375
618,618,1727959481918,-0.4555664,-1.2192993,0.11102295,5.015625,1.078125,-4.28125
619,619,1727959481958,-0.24902344,-1.1841431,0.18621826,-3.796875,-2.578125,0.734375
620,620,1727959481998,-0.30395508,-1.1697388,0.12640381,-6.828125,-6.90625,6.078125
621,621,1727959482038,-0.4128418,-1.0286255,0.05291748,2.015625,-4.953125,3.75
622,622,1727959482078,-0.3972168,-0.77545166,0.038269043,8.21875,6.671875,-1.03125
623,623,1727959482118,-0.3408203,-0.69000244,-0.05718994,-0.671875,7.078125,-1.671875
624,624,1727959482158,-0.24267578,-0.7859497,0.0036010742,-4.328125,-3.625,-4.5
625,625,1727959482198,-0.20898438,-0.90826416,0.11932373,-8.09375,-8.671875,-3.796875
626,626,1727959482238,-0.29833984,-0.84991455,0.12249756,1.40625,-1.375,3.796875
627,627,1727959482278,-0.42822266,-0.6187134,-0.006652832,5.1875,3.03125,7.765625
628,628,1727959482318,-0.33789062,-0.630188,-0.08648682,1.828125,-6.0625,-3.875
629,629,1727959482358,-0.17236328,-0.84039307,0.089782715,5.0,-4.375,-5.0
630,630,1727959482398,-0.20214844,-0.94366455,0.120788574,4.984375,2.8125,5.796875
631,631,1727959482438,-0.30249023,-0.95806885,0.08099365,-1.75,-4.671875,8.359375
632,632,1727959482478,-0.42871094,-1.1987915,0.08734131,-13.984375,9.421875,0.71875
633,633,1727959482518,-0.17578125,-1.3132935,0.047790527,5.25,6.375,-5.671875
634,634,1727959482558,0.040283203,-1.1792603,0.14300537,6.546875,4.328125,-3.609375
635,635,1727959482598,-0.18408203,-1.3926392,0.21356201,-8.640625,-6.03125,18.109375
636,636,1727959482638,-0.21191406,-1.4187622,0.17767334,5.90625,-13.09375,16.59375
637,637,1727959482678,-0.38989258,-1.0664673,0.15863037,9.65625,-9.03125,-4.8125
638,638,1727959482718,-0.52612305,-0.75177,-0.05255127,16.28125,1.71875,-18.96875
639,639,1727959482758,-0.26660156,-0.67022705,0.06561279,15.09375,19.8125,-16.65625
640,640,1727959482798,0.07080078,-0.85601807,0.15545654,1.421875,11.3125,1.0625
641,641,1727959482838,0.072509766,-0.9507446,0.1798706,-1.703125,-5.984375,15.59375
642,642,1727959482878,-0.23388672,-0.7715454,0.09222412,4.84375,-0.984375,13.21875
643,643,1727959482918,-0.42822266,-0.6067505,0.06341553,13.84375,3.5625,-2.828125
644,644,1727959482958,-0.2939453,-0.60406494,0.093933105,-7.8125,15.625,-14.046875
645,645,1727959482998,-0.08862305,-0.8032837,0.039489746,-5.859375,17.625,-7.984375
646,646,1727959483038,-0.020019531,-0.9937134,0.20111084,5.0625,-10.71875,-4.609375
647,647,1727959483078,-0.1862793,-0.9973755,0.062927246,-5.09375,-16.46875,4.09375
648,648,1727959483118,-0.43041992,-1.203186,-0.11993408,-13.609375,-5.578125,14.328125
649,649,1727959483158,-0.27319336,-1.2334595,-0.089904785,2.359375,-26.71875,-11.390625
650,650,1727959483198,-0.23339844,-1.2871704,-0.012268066,-3.734375,-10.046875,-5.96875
651,651,1727959483238,-0.3642578,-1.3425903,-0.057434082,-10.96875,-3.59375,3.78125
652,652,1727959483278,-0.3251953,-1.1621704,0.11639404,-6.84375,-9.59375,-2.21875
653,653,1727959483318,-0.49194336,-1.1587524,0.034851074,-21.0,3.5625,-1.484375
654,654,1727959483358,-0.45654297,-0.9649048,0.022644043,-7.828125,10.03125,-16.296875
655,655,1727959483398,-0.35620117,-0.7905884,0.1281128,-6.421875,21.59375,-10.046875
656,656,1727959483438,-0.16259766,-0.6914673,-0.054016113,-16.765625,7.96875,7.09375
657,657,1727959483478,-0.17553711,-0.6958618,-0.05328369,-8.609375,-7.1875,2.328125
658,658,1727959483518,-0.31103516,-0.8218384,0.17376709,3.28125,-6.53125,-0.59375
659,659,1727959483558,-0.36645508,-0.7966919,0.026550293,-14.4375,-3.46875,3.28125
660,660,1727959483598,-0.32763672,-0.7107544,0.06390381,-8.125,-12.0625,-1.53125
661,661,1727959483638,-0.296875,-0.6890259,0.17181396,-2.375,-0.078125,-5.78125
662,662,1727959483678,-0.42651367,-0.86309814,0.20770264,-13.9375,13.265625,-5.3125
663,663,1727959483718,-0.27978516,-1.0671997,0.105407715,-2.9375,-5.6875,-6.453125
664,664,1727959483758,-0.13012695,-1.206604,0.24407959,2.578125,6.421875,16.171875
665,665,1727959483798,-0.22192383,-1.0557251,0.14447021,7.140625,2.53125,13.890625
666,666,1727959483838,-0.25756836,-1.0427856,0.20892334,1.4375,-1.90625,9.796875
667,667,1727959483878,-0.5305176,-1.2998657,0.20599365,0.234375,10.421875,-0.078125
668,668,1727959483918,-0.1027832,-1.4014282,0.21356201,9.71875,8.140625,-1.1875
669,669,1727959483958,-0.06982422,-1.2407837,0.36151123,-2.75,-3.546875,7.84375
670,670,1727959483998,-0.41577148,-0.9170532,0.15765381,1.25,-10.421875,7.4375
671,671,1727959484038,-0.6352539,-0.7149048,0.044128418,14.328125,3.5,-16.40625
672,672,1727959484078,-0.19799805,-0.74713135,0.16668701,10.734375,27.484375,-18.171875
673,673,1727959484118,-0.0014648438,-0.8965454,0.23577881,0.484375,12.453125,1.046875
674,674,1727959484158,-0.08154297,-0.91363525,0.2177124,3.875,-3.8125,10.78125
675,675,1727959484198,-0.34936523,-0.88287354,0.16326904,8.46875,2.765625,4.140625
676,676,1727959484238,-0.33569336,-0.7776489,0.12982178,8.0,9.078125,-5.671875
677,677,1727959484278,-0.14379883,-0.6243286,0.20574951,2.734375,11.96875,-4.421875
678,678,1727959484318,-0.123046875,-0.7136841,0.18231201,0.234375,9.359375,1.890625
679,679,1727959484358,-0.22314453,-0.90875244,0.15057373,0.703125,-6.875,3.046875
680,680,1727959484398,-0.25512695,-0.9221802,0.30340576,2.46875,4.875,-2.796875
681,681,1727959484438,-0.20532227,-0.89190674,0.13226318,8.453125,-0.484375,1.1875
682,682,1727959484478,-0.28808594,-0.9024048,0.10247803,0.046875,-23.9375,-2.65625
683,683,1727959484518,-0.4699707,-1.1746216,0.10760498,-11.234375,-16.5,-12.203125
684,684,1727959484558,-0.36108398,-1.3152466,0.0138549805,-0.671875,-13.703125,-14.671875
685,685,1727959484598,-0.25708008,-1.1738892,0.08270264,5.546875,18.03125,-6.171875
686,686,1727959484638,-0.22680664,-1.0357056,-0.039367676,-1.03125,0.9375,7.75
687,687,1727959484678,-0.52319336,-1.300354,-0.004211426,-8.078125,0.28125,14.34375
688,688,1727959484718,-0.35620117,-1.2627563,0.16693115,6.171875,-7.859375,-6.125
689,689,1727959484758,-0.21313477,-1.0930786,0.17230225,6.90625,21.234375,-1.078125
690,690,1727959484798,-0.17529297,-0.7029419,0.051208496,13.671875,8.359375,18.34375
691,691,1727959484838,-0.27270508,-0.47906494,-0.02520752,2.71875,-8.609375,12.734375
692,692,1727959484878,-0.4716797,-0.8147583,0.016296387,-10.640625,-6.609375,-2.859375
693,693,1727959484918,-0.38427734,-1.0361938,0.046813965,1.4375,0.609375,-5.84375
694,694,1727959484958,-0.20605469,-0.956604,0.0758667,-2.703125,-0.828125,-3.828125
695,695,1727959484998,-0.15649414,-0.71759033,0.13519287,0.828125,7.390625,1.21875
696,696,1727959485038,-0.20922852,-0.565979,0.043640137,3.703125,-3.484375,9.4375
697,697,1727959485078,-0.4086914,-0.59820557,0.0368042,-2.953125,-5.0625,5.578125
698,698,1727959485118,-0.3071289,-0.7798462,0.13494873,-9.96875,-0.890625,-10.25
699,699,1727959485158,-0.31713867,-1.0967407,0.23797607,-10.859375,2.78125,-14.75
700,700,1727959485198,-0.37890625,-1.1958618,0.10809326,-3.5,19.71875,2.25
701,701,1727959485238,-0.22167969,-1.1082153,0.121032715,-1.234375,20.46875,-4.65625
702,702,1727959485278,-0.08325195,-1.2566528,0.2164917,0.125,9.859375,4.6875
703,703,1727959485318,-0.30688477,-1.1184692,0.14788818,9.9375,-2.25,12.0
704,704,1727959485358,-0.35083008,-1.5234985,0.16912842,-12.46875,2.46875,-0.75
705,705,1727959485398,-0.12109375,-1.4380493,0.29266357,18.4375,-8.890625,-8.734375
706,706,1727959485438,-0.3256836,-0.8296509,0.105651855,9.421875,11.25,6.59375
707,707,1727959485478,-0.5078125,-0.5095825,0.053649902,7.65625,6.5625,-9.453125
708,708,1727959485518,-0.21850586,-0.6470337,0.09979248,3.078125,11.078125,-18.640625
709,709,1727959485558,0.011230469,-0.944397,0.23236084,-3.890625,12.0625,1.09375
710,710,1727959485598,0.13183594,-1.0410767,0.21844482,-4.921875,-9.0625,14.09375
711,711,1727959485638,-0.16137695,-0.84454346,0.15863037,6.359375,-17.109375,13.484375
712,712,1727959485678,-0.39892578,-0.64971924,0.054870605,9.765625,-2.640625,3.609375
713,713,1727959485718,-0.3161621,-0.5742798,0.13348389,0.71875,5.546875,-7.625
714,714,1727959485758,-0.14624023,-0.7822876,0.12738037,-7.328125,-1.75,-9.28125
715,715,1727959485798,-0.05444336,-0.9824829,0.14471436,-1.046875,-12.46875,-1.5625
716,716,1727959485838,-0.07470703,-0.86846924,0.12371826,5.78125,-16.46875,9.546875
717,717,1727959485878,-0.33032227,-0.95318604,-0.14459229,-7.015625,-23.53125,13.1875
718,718,1727959485918,-0.40185547,-1.2922974,-0.18365479,-6.875,-23.203125,-5.453125
719,719,1727959485958,-0.28979492,-1.4561157,0.1329956,16.734375,-6.15625,-8.75
720,720,1727959485998,-0.3305664,-1.2954712,0.022155762,-5.515625,7.6875,2.09375
721,721,1727959486038,-0.35327148,-1.2078247,0.124938965,-13.546875,-10.25,2.203125
722,722,1727959486078,-0.31079102,-1.0332642,0.17596436,-9.015625,3.15625,8.625
723,723,1727959486118,-0.45947266,-1.0169067,0.019226074,-7.96875,3.953125,-5.796875
724,724,1727959486158,-0.40454102,-0.97076416,0.121276855,-2.140625,13.375,-16.015625
725,725,1727959486198,-0.25439453,-0.9053345,0.11907959,-7.84375,18.5,-2.484375
726,726,1727959486238,-0.24853516,-0.8115845,0.015808105,-10.40625,5.15625,2.640625
727,727,1727959486278,-0.25024414,-0.74298096,0.03265381,-2.234375,1.234375,-1.4375
728,728,1727959486318,-0.26464844,-0.7268677,0.1071167,-6.765625,-0.75,-1.125
729,729,1727959486358,-0.34033203,-0.7542114,0.105895996,-5.53125,2.484375,1.1875
730,730,1727959486398,-0.33422852,-0.7114868,0.042663574,1.609375,-2.65625,-1.53125
731,731,1727959486438,-0.32421875,-0.6555786,0.14959717,8.234375,0.734375,-7.078125
732,732,1727959486478,-0.31884766,-0.71759033,0.054138184,-0.203125,-2.265625,-6.203125
733,733,1727959486518,-0.22998047,-0.8792114,0.05218506,-4.796875,-2.296875,-4.0625
734,734,1727959486558,-0.22143555,-1.2051392,0.26800537,2.1875,-3.171875,0.71875
735,735,1727959486598,-0.41381836,-1.3721313,0.22601318,2.25,6.15625,2.25
736,736,1727959486638,-0.19189453,-1.0784302,0.15081787,4.203125,7.28125,-2.3125
737,737,1727959486678,-0.19140625,-1.250061,0.24334717,-3.734375,0.609375,4.984375
738,738,1727959486718,-0.13232422,-1.571106,0.22723389,2.046875,-18.375,15.953125
739,739,1727959486758,-0.32421875,-1.194397,0.30584717,5.46875,-14.5,8.265625
740,740,1727959486798,-0.6870117,-0.817688,0.048034668,8.75,-1.65625,-11.5625
741,741,1727959486838,-0.5095215,-0.6802368,0.07269287,17.21875,15.6875,-30.734375
742,742,1727959486878,0.0031738281,-0.79644775,0.14666748,6.03125,23.546875,-14.53125
743,743,1727959486918,0.10839844,-0.9963989,0.26605225,-3.484375,-0.125,8.46875
744,744,1727959486958,-0.095703125,-0.8674927,0.18426514,5.015625,-14.390625,20.953125
745,745,1727959486998,-0.34692383,-0.7871704,0.12762451,11.3125,3.09375,8.78125
746,746,1727959487038,-0.3100586,-0.71343994,0.09515381,12.8125,2.359375,-0.21875
747,747,1727959487078,-0.1694336,-0.67266846,0.16497803,10.890625,11.1875,-2.84375
748,748,1727959487118,-0.17016602,-0.78570557,0.13421631,5.9375,0.546875,2.265625
749,749,1727959487158,-0.18286133,-0.8526001,0.12298584,3.375,-3.453125,4.78125
750,750,1727959487198,-0.13964844,-0.79888916,0.07489014,4.96875,-0.546875,0.078125
751,751,1727959487238,-0.19238281,-0.8648071,-0.006164551,1.75,-25.0,0.375
752,752,1727959487278,-0.49121094,-1.1873169,-0.03717041,-11.359375,-10.4375,-6.765625
753,753,1727959487318,-0.34350586,-1.3630981,-0.058166504,-0.953125,-12.34375,-15.828125
754,754,1727959487358,-0.26611328,-1.3018188,-0.008605957,-5.546875,-1.015625,-2.34375
755,755,1727959487398,-0.4020996,-1.4199829,-0.049621582,-16.21875,1.09375,10.96875
756,756,1727959487438,-0.4440918,-1.4234009,0.07244873,-7.3125,-14.734375,2.34375
757,757,1727959487478,-0.33935547,-1.1621704,0.2736206,12.25,18.6875,-5.5625
758,758,1727959487518,-0.19873047,-0.79156494,0.04046631,7.0625,13.390625,4.5625
759,759,1727959487558,-0.3244629,-0.5635376,-0.04498291,-8.25,-13.296875,6.25
