,Unnamed: 0,timestamp,accel_x,accel_y,accel_z,gyro_x,gyro_y,gyro_z
0,0,1727282676726,-0.1850586,-0.72613525,0.24017334,3.015625,1.671875,5.078125
1,1,1727282676766,-0.123291016,-0.6182251,0.23016357,-1.9375,-3.546875,9.25
2,2,1727282676806,-0.18652344,-0.68096924,0.37127686,-5.375,-8.265625,8.140625
3,3,1727282676846,-0.3203125,-0.8701782,0.40008545,-8.109375,-6.3125,1.171875
4,4,1727282676886,-0.26464844,-0.9961548,0.31414795,-7.8125,-5.828125,0.265625
5,5,1727282676926,-0.27416992,-0.8862915,0.3456421,-6.078125,0.0625,0.53125
6,6,1727282676966,-0.2788086,-0.9397583,0.34002686,-3.140625,1.328125,-8.71875
7,7,1727282677006,0.0007324219,-1.236145,0.28533936,11.96875,-0.265625,-9.734375
8,8,1727282677046,0.008300781,-1.2529907,0.45062256,14.1875,1.421875,5.171875
9,9,1727282677086,-0.119140625,-1.3245239,0.3078003,5.921875,4.84375,1.671875
10,10,1727282677126,-0.19750977,-1.1968384,0.39349365,4.46875,4.640625,1.6875
11,11,1727282677166,-0.20507812,-0.9038696,0.34588623,3.28125,6.25,-0.265625
12,12,1727282677206,-0.042236328,-0.92974854,0.37908936,8.375,5.78125,3.1875
13,13,1727282677246,-0.10595703,-0.87945557,0.34173584,8.203125,3.984375,4.703125
14,14,1727282677286,-0.11450195,-0.68536377,0.27069092,7.71875,6.53125,3.84375
15,15,1727282677326,-0.09863281,-0.663147,0.23699951,5.21875,9.265625,-0.90625
16,16,1727282677366,-0.0625,-0.61505127,0.29681396,1.0625,9.203125,-4.515625
17,17,1727282677406,-0.088134766,-0.74542236,0.4069214,1.84375,10.578125,-6.984375
18,18,1727282677446,-0.19702148,-0.96221924,0.2765503,-4.21875,12.015625,-10.65625
19,19,1727282677486,-0.107666016,-1.0957642,0.42547607,-5.671875,-0.546875,-10.265625
20,20,1727282677526,-0.19677734,-1.0820923,0.3678589,-10.828125,2.953125,-4.75
21,21,1727282677566,-0.20776367,-1.0789185,0.26312256,-10.84375,1.890625,-7.734375
22,22,1727282677606,-0.07495117,-1.1060181,0.20111084,-12.90625,4.734375,-4.921875
23,23,1727282677646,-0.14501953,-1.11969,0.3414917,-2.765625,1.84375,7.015625
24,24,1727282677686,-0.23632812,-1.0823364,0.49578857,-1.1875,3.828125,5.53125
25,25,1727282677726,-0.3581543,-1.604065,0.3204956,-8.640625,3.5,-14.828125
26,26,1727282677766,-0.15673828,-0.8508911,0.28118896,-2.3125,13.140625,6.21875
27,27,1727282677806,-0.1586914,-0.3880005,0.25042725,2.28125,11.421875,17.828125
28,28,1727282677846,-0.030517578,-0.8591919,0.19525146,-0.109375,-4.0,-5.46875
29,29,1727282677886,-0.08959961,-0.7156372,0.2399292,-0.40625,-7.5,7.84375
30,30,1727282677926,-0.23510742,-0.6367798,0.25091553,-8.515625,-15.625,0.96875
31,31,1727282677966,-0.24853516,-0.8875122,0.45355225,-9.046875,-11.46875,-5.28125
32,32,1727282678006,-0.24926758,-0.7398071,0.37493896,-3.703125,-9.34375,3.828125
33,33,1727282678046,-0.27783203,-0.92755127,0.34124756,-5.046875,-5.125,-3.859375
34,34,1727282678086,-0.23803711,-0.9360962,0.46331787,-6.0625,-5.421875,-9.28125
35,35,1727282678126,-0.19555664,-1.076477,0.34857178,-3.203125,-5.90625,-9.921875
36,36,1727282678166,0.07763672,-1.2727661,0.4381714,-2.1875,-16.734375,3.390625
37,37,1727282678206,-0.17919922,-1.222229,0.70062256,9.28125,-2.453125,10.0625
38,38,1727282678246,-0.26293945,-1.4675903,0.38153076,-3.671875,-3.515625,-11.875
39,39,1727282678286,-0.27734375,-0.9273071,0.37591553,-0.921875,7.203125,2.4375
40,40,1727282678326,-0.10620117,-0.6843872,0.31829834,11.53125,7.625,4.203125
41,41,1727282678366,-0.034179688,-0.89141846,0.4064331,12.625,0.03125,5.546875
42,42,1727282678406,-0.09814453,-0.66070557,0.26556396,10.703125,3.65625,3.84375
43,43,1727282678446,-0.100097656,-0.5420532,0.2633667,7.375,6.140625,-2.78125
44,44,1727282678486,-0.119628906,-0.7312622,0.4022827,3.1875,8.3125,-8.328125
45,45,1727282678526,-0.21459961,-0.8789673,0.4328003,-4.140625,10.046875,-8.203125
46,46,1727282678566,-0.1394043,-0.9380493,0.43670654,-5.46875,8.453125,-4.796875
47,47,1727282678606,-0.083496094,-1.0127563,0.47161865,-8.0625,-3.671875,0.640625
48,48,1727282678646,-0.15356445,-1.2529907,0.291687,-13.28125,-12.0,0.625
49,49,1727282678686,-0.15942383,-1.3076782,0.31707764,-8.015625,-7.625,1.46875
50,50,1727282678726,-0.24804688,-0.9939575,0.3493042,-2.609375,1.765625,6.953125
51,51,1727282678766,-0.072021484,-1.0134888,0.34368896,-3.859375,-14.828125,13.109375
52,52,1727282678806,-0.13964844,-1.161438,0.40472412,0.09375,-8.25,17.734375
53,53,1727282678846,-0.30688477,-1.008606,0.29534912,-2.40625,-1.765625,4.390625
54,54,1727282678886,-0.30371094,-0.82281494,0.30926514,10.390625,3.0,6.578125
55,55,1727282678926,-0.12011719,-0.78448486,0.29510498,3.078125,-2.09375,7.0625
56,56,1727282678966,-0.19458008,-0.7576294,0.28753662,-3.765625,-7.109375,1.921875
57,57,1727282679006,-0.22167969,-0.7349243,0.31781006,-6.65625,-7.8125,4.40625
58,58,1727282679046,-0.16821289,-0.7227173,0.3143921,-11.640625,-16.953125,2.765625
59,59,1727282679086,-0.21142578,-0.8635864,0.4069214,-13.03125,-15.484375,-1.765625
60,60,1727282679126,-0.11230469,-1.069397,0.38275146,-10.53125,-2.875,-5.203125
61,61,1727282679166,-0.14038086,-0.99005127,0.37322998,-13.78125,-3.09375,-0.03125
62,62,1727282679206,-0.07861328,-1.2368774,0.16986084,-18.53125,-8.875,1.296875
63,63,1727282679246,-0.23388672,-1.0796509,0.2255249,-0.75,11.53125,5.5
64,64,1727282679286,-0.34204102,-0.8843384,0.21551514,-1.296875,11.21875,6.640625
65,65,1727282679326,-0.19677734,-1.5457153,0.23529053,-1.75,-8.140625,-6.890625
66,66,1727282679366,-0.11279297,-0.9187622,0.32537842,10.953125,-7.03125,14.875
67,67,1727282679406,-0.22973633,-0.64849854,0.3324585,11.25,3.78125,19.453125
68,68,1727282679446,-0.20605469,-1.0332642,0.23675537,10.15625,7.859375,-0.234375
69,69,1727282679486,-0.24536133,-0.7703247,0.24407959,12.625,8.4375,10.90625
70,70,1727282679526,-0.19165039,-0.70318604,0.20184326,3.84375,5.125,5.171875
71,71,1727282679566,-0.08520508,-0.7859497,0.21502686,6.890625,1.140625,3.84375
72,72,1727282679606,-0.18164062,-0.72052,0.2616577,3.59375,-1.640625,5.78125
73,73,1727282679646,-0.18041992,-0.8164673,0.32537842,-5.609375,-5.515625,-2.8125
74,74,1727282679686,-0.21899414,-0.93585205,0.34197998,-8.671875,-6.59375,-4.203125
75,75,1727282679726,-0.24609375,-1.0195923,0.32244873,-15.65625,-3.71875,-9.625
76,76,1727282679766,-0.061767578,-1.0435181,0.13446045,-15.109375,-4.53125,-8.0625
77,77,1727282679806,0.045410156,-1.1663208,0.30926514,-1.171875,-14.578125,2.203125
78,78,1727282679846,-0.20751953,-1.335022,0.30218506,-3.0,-11.53125,-0.75
79,79,1727282679886,-0.2800293,-0.95635986,0.22015381,-3.609375,3.34375,1.515625
80,80,1727282679926,-0.0075683594,-1.2686157,0.18255615,4.078125,3.359375,-10.625
81,81,1727282679966,-0.088134766,-1.1121216,0.48724365,2.296875,-8.140625,11.328125
82,82,1727282680006,-0.19750977,-0.51348877,0.20306396,3.390625,3.84375,7.609375
83,83,1727282680046,-0.057128906,-0.7515259,0.3546753,0.8125,-1.46875,1.15625
84,84,1727282680086,-0.13232422,-0.8399048,0.31170654,5.859375,-2.046875,-4.28125
85,85,1727282680126,-0.1496582,-0.7437134,0.29730225,-6.28125,11.21875,-7.0625
86,86,1727282680166,-0.1105957,-0.90875244,0.43914795,-10.125,4.8125,-7.640625
87,87,1727282680206,-0.12792969,-0.9678345,0.355896,-13.546875,3.859375,-7.421875
88,88,1727282680246,-0.09643555,-0.6963501,0.3764038,-9.5625,9.859375,3.453125
89,89,1727282680286,-0.30859375,-1.0147095,0.18255615,-6.609375,7.734375,-4.140625
90,90,1727282680326,-0.21875,-1.5796509,0.14837646,-5.828125,2.53125,-5.265625
91,91,1727282680366,-0.22094727,-1.1060181,0.44232178,-4.8125,-8.6875,5.125
92,92,1727282680406,-0.2578125,-1.2044067,0.36541748,-1.078125,-1.328125,3.890625
93,93,1727282680446,-0.32641602,-1.1958618,0.3480835,-0.609375,4.78125,-3.953125
94,94,1727282680486,-0.2529297,-0.65802,0.32318115,1.3125,9.3125,9.453125
95,95,1727282680526,-0.16552734,-0.7131958,0.21575928,2.03125,4.03125,5.734375
96,96,1727282680566,-0.1796875,-0.6851196,0.22357178,5.84375,4.78125,3.625
97,97,1727282680606,-0.28173828,-0.6531372,0.262146,-2.53125,0.6875,-2.046875
98,98,1727282680646,-0.27929688,-0.78375244,0.3908081,-7.421875,-1.15625,-5.015625
99,99,1727282680686,-0.26171875,-0.82110596,0.40423584,-10.3125,-1.84375,-5.8125
100,100,1727282680726,-0.140625,-0.68707275,0.35736084,-11.953125,-4.4375,-4.375
101,101,1727282680766,-0.019042969,-1.2315063,0.3234253,0.28125,-10.25,-8.34375
102,102,1727282680806,0.019042969,-1.7153931,0.45355225,-6.421875,-12.0625,1.203125
103,103,1727282680846,-0.35498047,-0.96661377,0.49212646,6.203125,17.15625,7.234375
104,104,1727282680886,-0.0847168,-1.47052,0.37713623,1.703125,-4.875,-11.484375
105,105,1727282680926,-0.14916992,-1.0957642,0.48309326,-1.875,-4.859375,7.59375
106,106,1727282680966,-0.24072266,-0.569397,0.29974365,3.328125,6.25,5.296875
107,107,1727282681006,-0.11669922,-0.76446533,0.39813232,7.640625,-0.65625,-2.875
108,108,1727282681046,-0.17602539,-0.71466064,0.32244873,6.90625,1.515625,-3.828125
109,109,1727282681086,-0.059570312,-0.68707275,0.37493896,3.65625,3.265625,-5.109375
110,110,1727282681126,-0.2253418,-0.82159424,0.4887085,-0.40625,10.265625,-7.9375
111,111,1727282681166,-0.20239258,-0.8225708,0.42059326,-4.15625,13.765625,-9.375
112,112,1727282681206,-0.068115234,-0.8423462,0.37591553,-2.6875,8.53125,-4.34375
113,113,1727282681246,-0.03515625,-0.9006958,0.4352417,-5.1875,-0.390625,2.8125
114,114,1727282681286,-0.25927734,-1.0444946,0.36712646,-12.75,1.515625,2.765625
115,115,1727282681326,-0.3059082,-1.2771606,0.18328857,-3.71875,6.453125,-2.21875
116,116,1727282681366,-0.20581055,-1.0767212,0.30340576,-1.625,-5.015625,0.53125
117,117,1727282681406,-0.13354492,-1.1167603,0.46575928,-1.890625,-11.0,10.59375
118,118,1727282681446,-0.36791992,-1.123352,0.40838623,5.296875,-5.78125,5.96875
119,119,1727282681486,-0.2626953,-0.85479736,0.27801514,7.671875,0.71875,4.25
120,120,1727282681526,-0.23461914,-0.6074829,0.3612671,6.828125,-1.765625,9.109375
121,121,1727282681566,-0.23779297,-0.93170166,0.36444092,-2.625,-3.390625,-5.78125
122,122,1727282681606,-0.31347656,-0.736145,0.416687,-2.140625,6.1875,5.3125
123,123,1727282681646,-0.2434082,-0.7131958,0.3180542,-6.5625,3.625,0.390625
124,124,1727282681686,-0.23339844,-0.79278564,0.39276123,-6.46875,2.609375,-3.015625
125,125,1727282681726,-0.2421875,-0.86920166,0.3895874,-4.28125,1.53125,-3.296875
126,126,1727282681766,-0.28515625,-0.87091064,0.38690186,-5.171875,0.28125,-5.765625
127,127,1727282681806,-0.2175293,-0.8545532,0.38763428,-9.421875,-10.890625,-8.46875
128,128,1727282681846,-0.1184082,-1.0691528,0.3673706,-8.375,-11.578125,-9.515625
129,129,1727282681886,-0.17260742,-1.2102661,0.4862671,1.203125,-0.96875,-5.734375
130,130,1727282681926,-0.26342773,-0.99102783,0.5145874,7.4375,10.0625,-5.515625
131,131,1727282681966,-0.044189453,-1.3220825,0.43792725,4.53125,2.671875,-4.96875
132,132,1727282682006,-0.22753906,-0.9956665,0.45819092,8.078125,-4.28125,6.796875
133,133,1727282682046,-0.17871094,-0.70928955,0.39300537,6.03125,2.265625,6.359375
134,134,1727282682086,-0.18652344,-1.0864868,0.53778076,13.765625,-9.0625,6.75
135,135,1727282682126,-0.21313477,-0.7542114,0.37371826,8.9375,-0.796875,8.171875
136,136,1727282682166,-0.1237793,-0.6902466,0.2399292,6.421875,-2.4375,7.578125
137,137,1727282682206,-0.15917969,-0.6975708,0.48284912,-3.6875,-1.171875,-4.0625
138,138,1727282682246,-0.2565918,-0.631897,0.40350342,-6.015625,0.140625,-10.8125
139,139,1727282682286,-0.107666016,-0.8386841,0.44818115,-1.265625,0.859375,0.609375
140,140,1727282682326,-0.03515625,-1.0032349,0.4244995,-8.765625,-12.28125,5.125
141,141,1727282682366,-0.099365234,-0.99053955,0.38494873,-14.171875,-15.15625,9.953125
142,142,1727282682406,-0.21972656,-1.2859497,0.30194092,-14.6875,-15.234375,1.578125
143,143,1727282682446,-0.28881836,-1.0071411,0.2592163,3.453125,2.984375,7.828125
144,144,1727282682486,-0.24682617,-1.0549927,0.42840576,-0.953125,-11.96875,5.578125
145,145,1727282682526,-0.28271484,-1.5349731,0.48358154,-6.8125,-7.4375,-8.046875
146,146,1727282682566,-0.29003906,-0.8101196,0.543396,3.71875,0.515625,8.171875
147,147,1727282682606,-0.2355957,-0.78985596,0.38323975,5.4375,-0.9375,3.46875
148,148,1727282682646,-0.13623047,-0.8296509,0.30047607,5.984375,-2.203125,8.28125
149,149,1727282682686,-0.2133789,-0.6482544,0.27191162,2.78125,-4.9375,7.484375
150,150,1727282682726,-0.18164062,-0.62823486,0.3024292,2.734375,-8.578125,10.25
151,151,1727282682766,-0.16918945,-0.5327759,0.355896,0.21875,-13.828125,11.265625
152,152,1727282682806,-0.13720703,-0.76934814,0.3685913,3.5625,-16.171875,7.078125
153,153,1727282682846,-0.23510742,-0.90509033,0.35247803,-3.84375,-13.21875,3.4375
154,154,1727282682886,-0.37646484,-0.9578247,0.4310913,-8.40625,-10.796875,-7.796875
155,155,1727282682926,-0.25830078,-1.048645,0.3554077,-4.234375,-7.25,-11.640625
156,156,1727282682966,-0.026123047,-1.2949829,0.322937,6.203125,-9.9375,-2.796875
157,157,1727282683006,0.018554688,-1.1697388,0.3793335,7.453125,-9.71875,5.09375
158,158,1727282683046,-0.19262695,-1.0169067,0.34075928,5.328125,-8.5625,3.140625
159,159,1727282683086,-0.08325195,-1.4807739,0.50946045,14.25,-16.40625,-1.125
160,160,1727282683126,-0.2705078,-1.0457153,0.40985107,-2.359375,-11.03125,3.328125
161,161,1727282683166,-0.20239258,-0.57525635,0.33587646,6.28125,-3.34375,5.03125
162,162,1727282683206,-0.034423828,-0.66363525,0.3463745,8.203125,-8.578125,3.546875
163,163,1727282683246,-0.40771484,-0.98150635,0.4389038,-4.109375,-5.359375,-0.265625
164,164,1727282683286,-0.12768555,-1.3926392,0.39935303,-1.0,-9.734375,3.390625
165,165,1727282683326,-0.21948242,-1.041565,0.34735107,2.65625,-1.140625,11.5625
166,166,1727282683366,-0.21435547,-0.6055298,0.43206787,11.515625,2.96875,16.515625
167,167,1727282683406,-0.27246094,-0.7769165,0.31951904,-1.078125,-1.25,7.34375
168,168,1727282683446,-0.18188477,-0.8430786,0.17938232,1.78125,-11.484375,5.9375
169,169,1727282683486,-0.17407227,-0.5964966,0.24066162,1.625,-4.515625,12.578125
170,170,1727282683526,-0.2397461,-0.5901489,0.30096436,-11.40625,-7.71875,1.1875
171,171,1727282683566,-0.09716797,-0.70025635,0.36102295,-12.125,-16.40625,-0.78125
172,172,1727282683606,-0.25952148,-0.89141846,0.3991089,-11.625,-11.390625,-3.046875
173,173,1727282683646,-0.28027344,-0.9158325,0.3866577,-14.640625,-6.34375,-5.46875
174,174,1727282683686,-0.25439453,-0.7803345,0.4393921,-7.671875,-0.640625,-3.78125
175,175,1727282683726,-0.1003418,-0.9326782,0.33416748,-9.015625,-9.046875,-7.359375
176,176,1727282683766,0.030029297,-1.4280396,0.45355225,21.484375,-16.78125,-2.40625
177,177,1727282683806,-0.18945312,-1.298645,0.59710693,4.328125,-5.421875,12.046875
178,178,1727282683846,-0.19995117,-1.5039673,0.49212646,2.9375,-9.484375,-1.75
179,179,1727282683886,-0.24560547,-0.9468384,0.47088623,-8.671875,-5.09375,4.46875
180,180,1727282683926,-0.23461914,-0.63531494,0.37371826,1.546875,-0.734375,2.109375
181,181,1727282683966,-0.06689453,-0.8936157,0.479187,7.515625,-10.640625,1.515625
182,182,1727282684006,-0.1484375,-0.87945557,0.51678467,7.484375,-7.8125,4.25
183,183,1727282684046,-0.19067383,-0.58306885,0.30438232,3.46875,1.421875,6.5625
184,184,1727282684086,-0.13720703,-1.0188599,0.45306396,6.90625,-13.328125,3.15625
185,185,1727282684126,-0.2446289,-0.9651489,0.50653076,3.703125,-7.328125,6.875
186,186,1727282684166,-0.20922852,-0.7600708,0.41033936,4.59375,-7.109375,3.734375
187,187,1727282684206,-0.1328125,-0.67266846,0.4105835,9.671875,-5.78125,7.078125
188,188,1727282684246,-0.13867188,-0.5869751,0.3793335,9.03125,-3.15625,6.6875
189,189,1727282684286,-0.0024414062,-0.6704712,0.37420654,6.34375,-5.53125,1.515625
190,190,1727282684326,-0.16894531,-0.7334595,0.45013428,4.328125,0.21875,0.125
191,191,1727282684366,-0.29077148,-0.803772,0.3690796,-2.375,3.421875,-7.828125
192,192,1727282684406,-0.17602539,-0.98150635,0.37420654,-5.078125,-0.578125,-10.796875
193,193,1727282684446,-0.022216797,-0.9727173,0.52142334,-6.171875,-1.4375,2.671875
194,194,1727282684486,-0.29174805,-0.92803955,0.21600342,-7.25,8.828125,9.4375
195,195,1727282684526,-0.16088867,-1.3501587,0.121520996,-1.3125,-2.75,-10.5
196,196,1727282684566,-0.1430664,-1.2178345,0.3895874,0.53125,-6.796875,18.625
197,197,1727282684606,-0.24169922,-0.78985596,0.3932495,5.359375,-5.96875,18.359375
198,198,1727282684646,-0.40356445,-1.2615356,0.23358154,6.9375,-0.09375,-1.546875
199,199,1727282684686,-0.1628418,-0.9663696,0.33514404,-2.359375,-0.859375,7.875
200,200,1727282684726,-0.16015625,-0.60943604,0.30975342,-2.15625,-3.015625,15.9375
201,201,1727282684766,-0.16186523,-0.6604614,0.36517334,-5.3125,-2.65625,11.109375
202,202,1727282684806,-0.22924805,-0.5762329,0.34051514,-1.703125,-5.625,8.421875
203,203,1727282684846,-0.28320312,-0.9199829,0.26800537,5.171875,2.984375,2.46875
204,204,1727282684886,-0.19628906,-1.1033325,0.37615967,-0.96875,-0.375,-0.859375
205,205,1727282684926,-0.19604492,-0.8557739,0.25164795,-7.15625,2.703125,-2.546875
206,206,1727282684966,0.0034179688,-0.90167236,0.29437256,6.125,-2.28125,-2.71875
207,207,1727282685006,-0.05102539,-1.3706665,0.39007568,9.765625,-3.203125,-2.9375
208,208,1727282685046,-0.2902832,-1.0569458,0.16156006,-7.53125,1.34375,-0.0625
209,209,1727282685086,-0.11376953,-1.3433228,0.042907715,-2.171875,11.09375,-11.828125
210,210,1727282685126,-0.15258789,-1.3076782,0.30633545,-0.578125,0.03125,2.0
211,211,1727282685166,-0.104003906,-0.93707275,0.41033936,-3.671875,-8.109375,6.703125
212,212,1727282685206,-0.22485352,-1.0632935,0.31951904,6.78125,-0.265625,6.421875
213,213,1727282685246,-0.19360352,-0.77838135,0.25653076,3.234375,4.25,3.78125
214,214,1727282685286,-0.21240234,-0.6538696,0.16131592,5.21875,0.5,6.5
215,215,1727282685326,-0.03881836,-0.85821533,0.23260498,1.875,-11.0625,5.453125
216,216,1727282685366,-0.23071289,-0.58013916,0.24871826,-4.453125,-6.765625,13.0
217,217,1727282685406,-0.1640625,-0.9595337,0.2579956,-5.09375,-14.578125,-5.546875
218,218,1727282685446,-0.18261719,-0.91290283,0.46551514,-5.109375,-7.28125,2.828125
219,219,1727282685486,-0.25512695,-0.9495239,0.32244873,-10.984375,-5.09375,-4.375
220,220,1727282685526,-0.10083008,-0.95391846,0.29022217,-6.546875,-4.203125,-5.96875
221,221,1727282685566,-0.015625,-1.3062134,0.2892456,2.46875,-11.375,-9.234375
222,222,1727282685606,-0.18725586,-1.2700806,0.28338623,-8.921875,-2.90625,-4.75
223,223,1727282685646,-0.15136719,-1.1758423,0.29510498,-11.390625,-7.078125,-9.53125
224,224,1727282685686,-0.010498047,-1.2808228,0.4430542,1.3125,-9.9375,-0.65625
225,225,1727282685726,-0.21459961,-0.86798096,0.35125732,-5.359375,-11.40625,7.1875
226,226,1727282685766,-0.22558594,-0.63531494,0.38153076,1.953125,-6.296875,2.15625
227,227,1727282685806,-0.11425781,-0.9065552,0.371521,4.5625,-7.5,-2.75
228,228,1727282685846,-0.13012695,-0.8442993,0.36590576,1.046875,-0.75,0.234375
229,229,1727282685886,-0.06323242,-0.7139282,0.4179077,-0.59375,-2.546875,2.8125
230,230,1727282685926,-0.21411133,-0.79522705,0.45819092,-1.46875,-0.796875,-0.734375
231,231,1727282685966,-0.18798828,-0.819397,0.33929443,-7.234375,2.25,-7.828125
232,232,1727282686006,-0.050048828,-0.9299927,0.3156128,-6.6875,-2.09375,-0.09375
233,233,1727282686046,-0.15893555,-0.9006958,0.46014404,-5.75,-6.921875,3.421875
234,234,1727282686086,-0.24560547,-0.9690552,0.36932373,-12.34375,-3.296875,-0.640625
235,235,1727282686126,-0.21362305,-1.3989868,0.21063232,-11.859375,-6.046875,-10.71875
236,236,1727282686166,-0.22558594,-1.1228638,0.25946045,-1.921875,4.046875,8.421875
237,237,1727282686206,-0.16772461,-0.8518677,0.4647827,4.046875,-7.515625,7.3125
238,238,1727282686246,-0.30737305,-1.1690063,0.40301514,-1.296875,2.1875,6.796875
239,239,1727282686286,-0.28588867,-1.5230103,0.3829956,-15.640625,-4.71875,-2.34375
240,240,1727282686326,-0.24804688,-0.44708252,0.37908936,17.71875,6.140625,12.953125
241,241,1727282686366,-0.2607422,-0.9480591,0.41693115,-10.015625,-1.625,-2.703125
242,242,1727282686406,-0.07055664,-0.66290283,0.22088623,3.234375,-4.6875,11.015625
243,243,1727282686446,-0.22705078,-0.63067627,0.31536865,-3.0625,-10.234375,6.890625
244,244,1727282686486,-0.17602539,-0.64971924,0.32269287,-6.703125,-14.1875,5.078125
245,245,1727282686526,-0.19580078,-0.7449341,0.41278076,-3.453125,-8.796875,9.953125
246,246,1727282686566,-0.23120117,-1.0588989,0.33538818,-15.234375,-18.6875,-0.796875
247,247,1727282686606,-0.25146484,-0.8970337,0.4393921,3.203125,-2.921875,4.4375
248,248,1727282686646,-0.15820312,-1.1087036,0.3444214,-2.171875,-12.765625,-3.9375
249,249,1727282686686,0.021484375,-1.2671509,0.4418335,11.75,-11.96875,1.171875
250,250,1727282686726,-0.1965332,-1.0479126,0.40203857,-1.046875,-1.984375,1.03125
251,251,1727282686766,-0.15014648,-1.0413208,0.39959717,-0.125,-5.125,-10.09375
252,252,1727282686806,-0.053222656,-1.4712524,0.5621948,12.6875,-7.3125,-1.140625
253,253,1727282686846,-0.21118164,-0.78375244,0.38226318,4.671875,5.671875,6.71875
254,254,1727282686886,-0.20678711,-0.65631104,0.39154053,9.8125,1.734375,5.1875
255,255,1727282686926,-0.087402344,-0.8687134,0.4393921,11.953125,-0.3125,3.109375
256,256,1727282686966,-0.13549805,-0.7476196,0.38690186,8.59375,-0.171875,0.578125
257,257,1727282687006,-0.10229492,-0.71051025,0.35247803,7.3125,-0.21875,1.53125
258,258,1727282687046,-0.1821289,-0.7234497,0.401062,3.140625,0.21875,-1.734375
259,259,1727282687086,-0.18603516,-0.77008057,0.32391357,1.390625,1.296875,-6.546875
260,260,1727282687126,-0.040039062,-0.92510986,0.32733154,1.21875,-9.640625,-1.390625
261,261,1727282687166,-0.06542969,-0.9963989,0.4508667,-0.5,-14.71875,5.546875
262,262,1727282687206,-0.08984375,-0.8303833,0.43377686,14.890625,-14.296875,-0.03125
263,263,1727282687246,-0.14086914,-0.67144775,0.23162842,6.4375,-6.9375,6.21875
264,264,1727282687286,-0.051513672,-0.8049927,0.5387573,6.8125,-11.25,6.140625
265,265,1727282687326,-0.30200195,-0.65509033,0.38006592,4.671875,0.125,2.921875
266,266,1727282687366,-0.04272461,-0.5432739,0.24700928,4.875,9.46875,-0.78125
267,267,1727282687406,-0.12060547,-0.9312134,0.44573975,4.046875,7.71875,-6.359375
268,268,1727282687446,-0.13891602,-1.010315,0.35247803,-3.9375,2.78125,-2.859375
269,269,1727282687486,-0.12451172,-0.92437744,0.4874878,-9.671875,0.796875,1.75
270,270,1727282687526,-0.36132812,-1.2417603,0.19110107,-1.296875,8.75,-3.5625
271,271,1727282687566,-0.107421875,-1.7080688,0.05340576,-16.125,0.734375,-13.6875
272,272,1727282687606,-0.32983398,-1.0640259,0.4779663,-3.328125,-3.265625,6.90625
273,273,1727282687646,-0.095947266,-0.8284302,0.42474365,-1.359375,-5.96875,10.421875
274,274,1727282687686,-0.29418945,-1.2617798,0.2567749,3.8125,-5.828125,1.5625
275,275,1727282687726,-0.29174805,-0.95318604,0.17791748,15.75,3.28125,0.984375
276,276,1727282687766,-0.1352539,-0.61920166,0.24285889,7.640625,-4.265625,8.640625
277,277,1727282687806,-0.13208008,-0.53692627,0.21624756,2.140625,-6.53125,13.640625
278,278,1727282687846,-0.047851562,-0.57891846,0.14691162,-2.515625,-19.53125,15.796875
279,279,1727282687886,-0.18383789,-0.80426025,0.36541748,-2.515625,-21.109375,12.5
280,280,1727282687926,-0.31274414,-1.005188,0.32025146,-12.34375,-14.3125,4.078125
281,281,1727282687966,-0.2763672,-0.7539673,0.307312,-8.75,-11.375,7.1875
282,282,1727282688006,-0.23095703,-0.9639282,0.31732178,-2.109375,-10.5625,1.421875
283,283,1727282688046,0.038085938,-1.1924438,0.26800537,5.796875,-19.34375,-1.15625
284,284,1727282688086,-0.06591797,-1.2442017,0.41522217,6.140625,-14.71875,-1.828125
285,285,1727282688126,-0.14892578,-1.1709595,0.47088623,1.84375,-2.953125,-8.6875
286,286,1727282688166,-0.103515625,-1.4942017,0.385437,-3.53125,-2.34375,-8.78125
287,287,1727282688206,-0.20751953,-1.0652466,0.416687,3.890625,1.515625,1.03125
288,288,1727282688246,-0.06567383,-0.79473877,0.36541748,6.375,-0.5625,4.328125
289,289,1727282688286,-0.21459961,-0.7161255,0.35076904,-8.5,-9.25,-1.984375
290,290,1727282688326,-0.17895508,-0.8069458,0.42352295,-8.171875,-7.8125,1.765625
291,291,1727282688366,-0.2788086,-0.7996216,0.35369873,-9.6875,-5.234375,-0.1875
292,292,1727282688406,-0.21679688,-0.8735962,0.25750732,-5.53125,-1.84375,-4.65625
293,293,1727282688446,-0.14892578,-0.8718872,0.29925537,0.015625,-8.21875,-4.53125
294,294,1727282688486,-0.068847656,-1.4646606,0.40667725,13.65625,-15.140625,-5.96875
295,295,1727282688526,-0.083496094,-1.354065,0.47698975,1.6875,-3.671875,7.5
296,296,1727282688566,-0.1430664,-1.3630981,0.30975342,5.953125,-7.875,-0.53125
297,297,1727282688606,-0.11010742,-1.3267212,0.50994873,-0.40625,-4.59375,2.328125
298,298,1727282688646,-0.2980957,-0.72052,0.23797607,0.890625,6.234375,3.15625
299,299,1727282688686,-0.16455078,-0.7793579,0.34857178,6.75,-1.234375,-2.40625
300,300,1727282688726,-0.15527344,-0.7415161,0.29730225,10.890625,5.78125,-1.0625
301,301,1727282688766,-0.048828125,-0.68170166,0.32025146,10.03125,9.765625,0.171875
302,302,1727282688806,-0.16479492,-0.71051025,0.45355225,5.296875,8.6875,-2.75
303,303,1727282688846,-0.22631836,-0.600647,0.27435303,-2.28125,15.453125,-8.953125
304,304,1727282688886,-0.052001953,-0.7058716,0.30584717,4.671875,11.890625,-4.765625
305,305,1727282688926,-0.083496094,-1.1109009,0.34906006,4.09375,5.4375,-0.34375
306,306,1727282688966,-0.100097656,-1.0376587,0.41619873,-6.875,0.671875,1.28125
307,307,1727282689006,-0.18041992,-0.9216919,0.35491943,-13.875,3.328125,4.25
308,308,1727282689046,-0.29467773,-1.2451782,0.24407959,-7.890625,2.5,-4.859375
309,309,1727282689086,-0.25683594,-1.3582153,0.27020264,-1.75,6.828125,-0.3125
310,310,1727282689126,-0.22924805,-1.256897,0.3319702,2.375,6.890625,3.109375
311,311,1727282689166,-0.2421875,-1.4805298,0.31976318,5.234375,5.140625,0.015625
312,312,1727282689206,-0.18017578,-0.9585571,0.34295654,2.078125,11.953125,3.484375
313,313,1727282689246,-0.20166016,-0.5396118,0.24969482,4.703125,14.890625,9.40625
314,314,1727282689286,-0.13916016,-0.7647095,0.2074585,6.875,-2.40625,4.90625
315,315,1727282689326,-0.20825195,-0.7817993,0.26507568,1.890625,-7.875,2.46875
316,316,1727282689366,-0.36254883,-0.7769165,0.15716553,4.703125,6.5,1.28125
317,317,1727282689406,-0.12182617,-0.59088135,0.39813232,-9.1875,-7.140625,0.65625
318,318,1727282689446,-0.07885742,-0.72857666,0.36956787,-9.609375,-9.625,3.265625
319,319,1727282689486,-0.22631836,-0.8657837,0.32489014,-6.921875,-1.0,0.078125
320,320,1727282689526,-0.24487305,-0.7595825,0.32855225,-6.390625,0.921875,-7.0
321,321,1727282689566,-0.27490234,-0.67144775,0.3612671,-7.359375,-3.03125,-8.90625
322,322,1727282689606,0.07006836,-1.2842407,0.30926514,10.359375,-15.1875,-11.171875
323,323,1727282689646,0.0073242188,-1.456604,0.3319702,0.46875,-10.171875,3.40625
324,324,1727282689686,-0.3227539,-1.1311646,0.40789795,5.53125,4.53125,-13.25
325,325,1727282689726,0.057617188,-1.6629028,0.5973511,6.234375,-3.984375,-12.609375
326,326,1727282689766,-0.42236328,-0.8604126,0.39593506,-5.984375,5.234375,-3.046875
327,327,1727282689806,-0.14160156,-0.9661255,0.42230225,1.125,1.265625,-13.1875
328,328,1727282689846,-0.18579102,-0.90875244,0.43621826,0.78125,-5.34375,-2.40625
329,329,1727282689886,-0.14526367,-0.72076416,0.39935303,8.375,-1.328125,-2.6875
330,330,1727282689926,-0.10644531,-0.7810669,0.28289795,7.296875,-1.140625,5.515625
331,331,1727282689966,-0.14379883,-0.7058716,0.4154663,1.53125,-5.5,-2.84375
332,332,1727282690006,-0.21020508,-0.65875244,0.37200928,-3.734375,4.34375,-3.453125
333,333,1727282690046,-0.14208984,-0.722229,0.3607788,-3.53125,1.25,-3.109375
334,334,1727282690086,-0.076416016,-0.89019775,0.38323975,-4.59375,-4.890625,-1.71875
335,335,1727282690126,-0.123046875,-0.8887329,0.36346436,-5.0625,-0.296875,2.921875
336,336,1727282690166,-0.16674805,-0.7859497,0.45550537,-10.109375,-0.734375,4.421875
337,337,1727282690206,-0.38354492,-1.2019653,0.30340576,-11.4375,-3.390625,-4.640625
338,338,1727282690246,-0.21362305,-1.4102173,0.19158936,-6.609375,2.796875,3.421875
339,339,1727282690286,-0.26708984,-0.9807739,0.47503662,-1.234375,-2.703125,9.71875
340,340,1727282690326,-0.40893555,-1.7842407,0.34344482,-6.578125,-6.0,-18.0
341,341,1727282690366,-0.08984375,-0.8657837,0.46697998,-5.46875,3.96875,13.390625
342,342,1727282690406,-0.33251953,-0.5359497,0.5092163,-7.53125,-1.203125,19.375
343,343,1727282690446,-0.20336914,-0.93585205,0.30804443,-2.640625,-4.125,0.203125
344,344,1727282690486,-0.18676758,-0.6338501,0.26800537,11.0625,3.828125,15.640625
345,345,1727282690526,-0.34448242,-0.5762329,0.27703857,0.8125,7.890625,2.328125
346,346,1727282690566,-0.27978516,-0.64727783,0.3373413,-3.859375,4.59375,-3.859375
347,347,1727282690606,-0.10229492,-0.7337036,0.4911499,-0.78125,-1.953125,4.8125
348,348,1727282690646,-0.17578125,-0.86309814,0.4257202,-4.859375,4.1875,5.46875
349,349,1727282690686,-0.2788086,-0.8106079,0.4772339,-3.109375,6.90625,-1.984375
350,350,1727282690726,-0.32739258,-0.9209595,0.40447998,-5.453125,6.1875,-14.296875
351,351,1727282690766,-0.26123047,-0.9990845,0.4208374,-0.578125,0.75,-13.09375
352,352,1727282690806,-0.009765625,-1.5388794,0.26556396,6.796875,-8.484375,-18.203125
353,353,1727282690846,-0.0690918,-1.1138306,0.5140991,-4.484375,-4.5,6.859375
354,354,1727282690886,-0.3581543,-0.9338989,0.5101929,-2.328125,-5.34375,2.21875
355,355,1727282690926,-0.12524414,-1.1411743,0.30804443,3.75,-8.609375,-7.203125
356,356,1727282690966,-0.123046875,-1.1255493,0.5578003,6.953125,-11.59375,5.328125
357,357,1727282691006,-0.23486328,-0.5864868,0.2675171,7.0625,2.28125,10.21875
358,358,1727282691046,-0.103027344,-0.7271118,0.2975464,10.71875,-0.8125,4.96875
359,359,1727282691086,-0.1472168,-0.6878052,0.33563232,9.796875,-5.84375,1.5625
360,360,1727282691126,-0.09741211,-0.6643677,0.3727417,8.90625,2.9375,-1.578125
361,361,1727282691166,-0.19897461,-0.725647,0.46038818,1.15625,4.03125,0.546875
362,362,1727282691206,-0.16723633,-0.9168091,0.38397217,-4.703125,-1.296875,-1.9375
363,363,1727282691246,-0.014892578,-0.9614868,0.3156128,-5.5625,-5.125,5.171875
364,364,1727282691286,-0.13720703,-0.911438,0.39666748,-14.609375,-12.859375,9.625
365,365,1727282691326,-0.19018555,-1.1052856,0.27703857,-24.28125,-22.53125,0.96875
366,366,1727282691366,-0.22875977,-1.2017212,0.3529663,-13.09375,-17.875,5.15625
367,367,1727282691406,-0.35986328,-0.9924927,0.4730835,-6.625,-17.390625,5.765625
368,368,1727282691446,-0.38964844,-1.697815,0.5228882,-12.5625,-18.875,-13.640625
369,369,1727282691486,-0.22460938,-0.8777466,0.4857788,5.9375,-6.40625,20.9375
370,370,1727282691526,-0.3239746,-1.0332642,0.55682373,-8.15625,-5.140625,6.09375
371,371,1727282691566,-0.30737305,-0.9434204,0.41351318,-7.78125,-5.75,6.90625
372,372,1727282691606,-0.20605469,-0.70269775,0.35150146,0.28125,-4.9375,13.9375
373,373,1727282691646,-0.21386719,-0.6067505,0.34344482,4.78125,-6.546875,13.796875
374,374,1727282691686,-0.23828125,-0.6355591,0.32122803,-2.21875,-6.9375,6.578125
375,375,1727282691726,-0.2631836,-0.76519775,0.33758545,-3.203125,-5.234375,-2.109375
376,376,1727282691766,-0.18798828,-0.7383423,0.33392334,0.9375,-6.015625,0.015625
377,377,1727282691806,-0.20947266,-0.78790283,0.41619873,-5.5625,-1.6875,-5.421875
378,378,1727282691846,-0.28344727,-0.8245239,0.34002686,-7.09375,4.203125,-10.421875
379,379,1727282691886,-0.17700195,-0.79351807,0.40447998,-4.921875,-1.046875,-10.5
380,380,1727282691926,-0.03930664,-1.1592407,0.42108154,9.984375,-9.390625,-2.78125
381,381,1727282691966,-0.103027344,-1.3115845,0.6359253,5.515625,-2.765625,2.59375
382,382,1727282692006,-0.1027832,-1.3828735,0.39178467,0.921875,-3.5,-0.5625
383,383,1727282692046,-0.1586914,-1.3086548,0.6791382,0.625,-5.25,2.796875
384,384,1727282692086,-0.30639648,-0.67071533,0.42694092,7.78125,13.078125,5.53125
385,385,1727282692126,-0.26245117,-0.54937744,0.38079834,17.0625,11.25,6.09375
386,386,1727282692166,-0.044921875,-0.69903564,0.40350342,17.84375,-1.046875,-0.984375
387,387,1727282692206,-0.06542969,-0.9483032,0.42669678,16.921875,2.3125,-0.625
388,388,1727282692246,-0.15429688,-0.71954346,0.33514404,0.421875,-5.546875,-7.796875
389,389,1727282692286,-0.17797852,-0.7102661,0.4244995,-5.78125,-2.125,-11.484375
390,390,1727282692326,-0.21020508,-0.82647705,0.38568115,-8.6875,0.03125,-18.203125
391,391,1727282692366,-0.07861328,-0.89141846,0.38934326,-3.765625,-3.71875,-10.328125
392,392,1727282692406,-0.07836914,-0.99664307,0.47406006,-10.046875,-10.609375,-1.984375
393,393,1727282692446,-0.080078125,-1.029602,0.51190186,-23.1875,-18.109375,-0.828125
394,394,1727282692486,-0.19311523,-1.020813,0.3505249,-19.5,-18.953125,1.296875
395,395,1727282692526,-0.15014648,-1.4434204,0.12420654,-13.71875,-8.484375,-6.140625
396,396,1727282692566,-0.34472656,-1.1494751,0.3114624,7.015625,9.5625,11.59375
397,397,1727282692606,-0.28930664,-1.1167603,0.39813232,-3.703125,-8.6875,-1.75
398,398,1727282692646,-0.15112305,-1.1655884,0.39666748,5.625,-13.53125,10.9375
399,399,1727282692686,-0.24584961,-1.1831665,0.2892456,-0.109375,-7.65625,4.890625
400,400,1727282692726,-0.1899414,-0.6470337,0.30340576,7.578125,0.484375,13.453125
401,401,1727282692766,-0.22973633,-0.68536377,0.24041748,10.703125,-1.484375,12.515625
402,402,1727282692806,-0.18432617,-0.7005005,0.15008545,7.296875,-7.21875,8.09375
403,403,1727282692846,-0.19750977,-0.7190552,0.27581787,-2.40625,-10.75,4.71875
404,404,1727282692886,-0.20898438,-0.48492432,0.25653076,-6.515625,-7.65625,11.890625
405,405,1727282692926,-0.28344727,-0.5586548,0.2584839,-13.140625,-7.59375,-0.484375
406,406,1727282692966,-0.20947266,-0.91607666,0.35687256,-9.5,-10.640625,-3.0
407,407,1727282693006,-0.27392578,-1.0073853,0.4015503,-16.203125,-11.90625,-0.96875
408,408,1727282693046,-0.13842773,-0.86016846,0.3287964,-6.890625,-11.21875,-4.59375
409,409,1727282693086,0.038330078,-1.484436,0.34173584,17.953125,-6.03125,0.578125
410,410,1727282693126,-0.07446289,-1.4221802,0.47650146,-3.3125,-7.796875,6.515625
411,411,1727282693166,-0.033935547,-1.373352,0.33416748,5.65625,-14.53125,5.6875
412,412,1727282693206,-0.103515625,-1.5108032,0.555603,1.40625,-23.96875,7.984375
413,413,1727282693246,-0.28076172,-0.7210083,0.30413818,-2.828125,5.6875,7.78125
414,414,1727282693286,-0.16625977,-0.68463135,0.38226318,-4.9375,-12.125,3.3125
415,415,1727282693326,-0.1484375,-0.64190674,0.29901123,-14.09375,-14.375,2.953125
416,416,1727282693366,-0.11694336,-0.677063,0.4076538,-12.203125,-20.84375,5.703125
417,417,1727282693406,-0.30541992,-0.8464966,0.46917725,-15.265625,-13.71875,-1.859375
418,418,1727282693446,-0.34716797,-0.928772,0.4381714,-19.203125,-10.28125,-9.375
419,419,1727282693486,-0.28808594,-0.8550415,0.5009155,-20.71875,-7.953125,-9.859375
420,420,1727282693526,-0.21582031,-0.8323364,0.48358154,-14.046875,-4.875,-10.234375
421,421,1727282693566,-0.047851562,-1.0110474,0.24261475,7.296875,-14.21875,-8.78125
422,422,1727282693606,0.01977539,-1.3338013,0.42034912,18.109375,-14.75,0.0625
423,423,1727282693646,-0.2421875,-1.112854,0.5162964,4.140625,-4.609375,7.96875
424,424,1727282693686,-0.15014648,-1.5366821,0.32537842,-4.71875,-22.109375,-9.96875
425,425,1727282693726,-0.2163086,-1.3062134,0.604187,-8.15625,-19.125,9.703125
426,426,1727282693766,-0.26782227,-0.7710571,0.34710693,-4.609375,2.6875,8.25
427,427,1727282693806,-0.17675781,-0.7312622,0.45794678,5.109375,-3.359375,4.859375
428,428,1727282693846,-0.15112305,-0.7661743,0.40496826,6.1875,-4.3125,6.234375
429,429,1727282693886,-0.14160156,-0.72198486,0.44696045,11.640625,-0.140625,5.09375
430,430,1727282693926,-0.10473633,-0.7173462,0.35321045,6.265625,1.0,3.71875
431,431,1727282693966,-0.13964844,-0.65289307,0.40472412,3.5,2.15625,-0.828125
432,432,1727282694006,-0.1875,-0.69537354,0.39276123,-2.359375,1.03125,-2.953125
433,433,1727282694046,-0.23217773,-0.7593384,0.4574585,-9.46875,-6.484375,-5.53125
434,434,1727282694086,-0.1953125,-0.77716064,0.33416748,-4.84375,-9.46875,-3.90625
435,435,1727282694126,-0.072509766,-0.8518677,0.38226318,-1.25,-14.203125,6.390625
436,436,1727282694166,-0.16772461,-0.9829712,0.53778076,-6.625,-21.609375,4.90625
437,437,1727282694206,-0.30688477,-1.092102,0.47088623,-10.5,-16.875,4.25
438,438,1727282694246,-0.24682617,-1.352356,0.27215576,-3.546875,-12.453125,-3.375
439,439,1727282694286,-0.20581055,-1.0855103,0.28363037,-3.203125,1.71875,9.15625
440,440,1727282694326,-0.19018555,-0.9976196,0.43572998,4.125,-12.03125,13.96875
441,441,1727282694366,-0.25927734,-1.3970337,0.37469482,4.921875,-12.34375,8.671875
442,442,1727282694406,-0.33276367,-1.1846313,0.34783936,2.59375,-5.75,2.015625
443,443,1727282694446,-0.28955078,-0.6157837,0.3673706,5.578125,-2.28125,12.921875
444,444,1727282694486,-0.19580078,-0.64508057,0.3258667,5.390625,0.0,7.375
445,445,1727282694526,-0.17456055,-0.7793579,0.2140503,-1.34375,-4.46875,1.734375
446,446,1727282694566,-0.26611328,-0.6248169,0.2999878,-1.859375,-4.953125,5.0
447,447,1727282694606,-0.22021484,-0.61309814,0.32977295,-7.265625,-4.0625,2.46875
448,448,1727282694646,-0.1694336,-0.74346924,0.41522217,-7.78125,-8.015625,1.40625
449,449,1727282694686,-0.33813477,-0.92633057,0.38275146,-9.25,-2.59375,-5.90625
450,450,1727282694726,-0.31958008,-0.9077759,0.4459839,-4.390625,7.890625,-3.03125
451,451,1727282694766,-0.26220703,-0.8484497,0.4093628,-7.1875,0.90625,-5.375
452,452,1727282694806,-0.08129883,-1.2034302,0.36810303,7.5,-6.71875,-8.3125
453,453,1727282694846,-0.10522461,-1.2842407,0.36712646,7.515625,-1.71875,0.140625
454,454,1727282694886,-0.16845703,-1.295227,0.52459717,6.859375,8.8125,-0.65625
455,455,1727282694926,-0.1940918,-1.2861938,0.40203857,2.015625,8.8125,-2.15625
456,456,1727282694966,-0.234375,-0.9678345,0.52923584,2.265625,4.890625,1.140625
457,457,1727282695006,-0.21972656,-0.75494385,0.43426514,5.953125,7.921875,3.296875
458,458,1727282695046,-0.15332031,-0.8526001,0.3632202,7.59375,5.96875,3.75
459,459,1727282695086,-0.103271484,-0.69537354,0.32147217,13.359375,10.109375,5.640625
460,460,1727282695126,-0.15625,-0.5857544,0.3793335,10.3125,10.578125,-1.75
461,461,1727282695166,-0.18310547,-0.6331177,0.3414917,2.53125,9.1875,-8.625
462,462,1727282695206,-0.17333984,-0.74298096,0.40130615,0.28125,13.578125,-11.328125
463,463,1727282695246,-0.19628906,-0.78302,0.26898193,-1.921875,8.125,-8.28125
464,464,1727282695286,-0.07373047,-0.98223877,0.43597412,-4.5625,-2.953125,-7.15625
465,465,1727282695326,-0.19580078,-1.0886841,0.25946045,-10.703125,-7.265625,1.203125
466,466,1727282695366,-0.12207031,-1.687561,0.29266357,-15.9375,-21.484375,-15.015625
467,467,1727282695406,-0.3779297,-1.072815,0.31707764,-4.203125,16.9375,8.796875
468,468,1727282695446,-0.23852539,-0.79351807,0.3673706,-0.140625,2.90625,8.0625
469,469,1727282695486,-0.14892578,-1.260315,0.38153076,2.921875,-1.546875,3.71875
470,470,1727282695526,-0.26831055,-0.95391846,0.30926514,5.125,11.328125,1.671875
471,471,1727282695566,-0.2548828,-0.63897705,0.28997803,6.171875,6.46875,8.453125
472,472,1727282695606,-0.18823242,-0.8447876,0.29559326,5.125,-1.875,2.640625
473,473,1727282695646,-0.19189453,-0.8880005,0.19158936,1.59375,-11.046875,3.28125
474,474,1727282695686,-0.14697266,-0.6589966,0.3883667,-2.125,-8.34375,6.75
475,475,1727282695726,-0.38867188,-0.6057739,0.33441162,-15.78125,-3.5,-4.875
476,476,1727282695766,-0.13208008,-0.7293091,0.38372803,-6.21875,-6.640625,-1.140625
477,477,1727282695806,-0.35961914,-0.76226807,0.31365967,-6.765625,3.671875,-5.296875
478,478,1727282695846,-0.2475586,-0.8753052,0.2970581,2.453125,-1.25,-12.890625
479,479,1727282695886,0.08959961,-1.5274048,0.3085327,20.59375,-13.75,-4.796875
480,480,1727282695926,-0.15722656,-1.3479614,0.48651123,2.5625,-2.15625,10.390625
481,481,1727282695966,-0.28125,-1.5408325,0.18841553,-0.265625,-4.015625,-10.484375
482,482,1727282696006,-0.1899414,-1.3643188,0.48382568,-0.75,-7.296875,6.03125
483,483,1727282696046,-0.30273438,-0.75372314,0.3295288,0.71875,5.078125,3.734375
484,484,1727282696086,-0.060058594,-0.8760376,0.3805542,5.609375,-6.796875,5.03125
485,485,1727282696126,-0.14916992,-0.9819946,0.41864014,9.859375,-5.890625,3.28125
486,486,1727282696166,-0.17919922,-0.7036743,0.30145264,5.03125,3.3125,3.09375
487,487,1727282696206,-0.21118164,-0.6355591,0.3060913,5.609375,7.953125,0.203125
488,488,1727282696246,-0.11230469,-0.62872314,0.34295654,3.359375,5.859375,-4.765625
489,489,1727282696286,-0.14868164,-0.7595825,0.37469482,5.6875,8.359375,-4.40625
490,490,1727282696326,-0.13842773,-0.7954712,0.30804443,-1.59375,7.21875,-3.28125
491,491,1727282696366,-0.08984375,-0.85113525,0.3764038,-4.5625,-2.15625,-2.078125
492,492,1727282696406,-0.15942383,-0.97076416,0.4364624,-5.71875,-7.546875,3.078125
493,493,1727282696446,-0.27319336,-1.1138306,0.27850342,-13.125,-9.109375,-0.625
494,494,1727282696486,-0.1628418,-1.5247192,0.21600342,-7.59375,-8.015625,-12.40625
495,495,1727282696526,-0.38549805,-1.060852,0.26654053,-3.0,8.15625,4.796875
496,496,1727282696566,-0.21142578,-1.0110474,0.34613037,-3.640625,-0.171875,6.875
497,497,1727282696606,-0.2006836,-1.3618774,0.34051514,-0.375,-7.25,7.171875
498,498,1727282696646,-0.30664062,-1.1277466,0.27142334,1.0,2.078125,0.265625
499,499,1727282696686,-0.19458008,-0.72369385,0.3439331,4.25,8.0625,9.96875
500,500,1727282696726,-0.24389648,-0.71881104,0.23358154,6.484375,4.484375,8.109375
501,501,1727282696766,-0.21777344,-0.85601807,0.20892334,2.59375,0.1875,1.125
502,502,1727282696806,-0.18896484,-0.7271118,0.22845459,-2.234375,-3.40625,3.984375
503,503,1727282696846,-0.19091797,-0.6099243,0.26556396,-6.0,-4.796875,4.859375
504,504,1727282696886,-0.19189453,-0.5857544,0.3649292,-3.609375,-4.859375,2.625
505,505,1727282696926,-0.2446289,-0.8755493,0.25408936,-1.25,-8.546875,-1.78125
506,506,1727282696966,-0.22265625,-0.93292236,0.32855225,-3.140625,-3.75,1.53125
507,507,1727282697006,-0.32299805,-0.91119385,0.40594482,-3.78125,-0.28125,-7.609375
508,508,1727282697046,-0.17407227,-0.9837036,0.28631592,-3.1875,-6.328125,-7.265625
509,509,1727282697086,-0.06323242,-1.2498169,0.38446045,1.671875,-7.53125,-4.125
510,510,1727282697126,-0.15063477,-1.2600708,0.35101318,-1.828125,-4.171875,0.09375
511,511,1727282697166,-0.15942383,-1.3364868,0.35516357,-0.84375,-9.65625,-0.390625
512,512,1727282697206,-0.18286133,-1.47052,0.44256592,-6.609375,-12.984375,-0.578125
513,513,1727282697246,-0.28466797,-0.82696533,0.3895874,-11.921875,-4.203125,4.1875
514,514,1727282697286,-0.16088867,-0.87628174,0.34197998,0.1875,-11.59375,3.375
515,515,1727282697326,-0.17480469,-0.84747314,0.38226318,2.90625,-9.671875,5.90625
516,516,1727282697366,-0.16040039,-0.73809814,0.32904053,6.109375,-4.265625,5.03125
517,517,1727282697406,-0.15942383,-0.7498169,0.32781982,7.484375,1.109375,2.921875
518,518,1727282697446,-0.06762695,-1.2300415,0.340271,10.421875,-4.65625,0.578125
519,519,1727282697486,0.0390625,-1.3591919,0.39813232,-0.5,-15.859375,5.609375
520,520,1727282697526,-0.2265625,-0.7522583,0.25531006,-0.359375,-4.703125,10.9375
521,521,1727282697566,-0.1496582,-0.8587036,0.40057373,7.671875,-12.40625,-0.140625
522,522,1727282697606,-0.17456055,-0.756897,0.37493896,5.34375,-7.46875,6.78125
523,523,1727282697646,-0.12011719,-0.78692627,0.37371826,3.9375,-5.96875,1.25
524,524,1727282697686,-0.10888672,-0.819397,0.3895874,-1.90625,-7.453125,-0.75
525,525,1727282697726,-0.13476562,-0.63409424,0.42425537,-6.046875,0.828125,-4.890625
526,526,1727282697766,-0.18310547,-0.6536255,0.3920288,0.03125,8.171875,-9.078125
527,527,1727282697806,-0.09399414,-0.7600708,0.26654053,3.40625,7.109375,-1.75
528,528,1727282697846,0.0087890625,-0.7661743,0.31488037,7.484375,-1.609375,4.25
529,529,1727282697886,-0.11206055,-0.81622314,0.43450928,2.765625,-4.484375,10.15625
530,530,1727282697926,-0.40014648,-1.6633911,-0.0032348633,7.59375,-2.71875,-18.59375
531,531,1727282697966,-0.017333984,-1.4160767,0.15496826,-7.046875,-3.625,15.078125
532,532,1727282698006,-0.3383789,-1.2324829,0.246521,1.453125,-14.25,4.359375
533,533,1727282698046,-0.35424805,-1.4187622,0.44525146,-11.109375,-7.5625,-1.34375
534,534,1727282698086,-0.30371094,-1.1311646,0.43719482,-11.453125,-7.265625,-2.25
535,535,1727282698126,-0.2109375,-0.8740845,0.3649292,-7.046875,-7.59375,1.9375
536,536,1727282698166,-0.14868164,-0.70318604,0.32025146,-5.8125,-5.125,5.578125
537,537,1727282698206,-0.18847656,-0.69317627,0.28338623,-0.4375,-9.3125,9.90625
538,538,1727282698246,-0.20703125,-0.63726807,0.30096436,-2.296875,-15.09375,10.6875
539,539,1727282698286,-0.21948242,-0.64678955,0.23016357,-4.15625,-9.921875,11.671875
540,540,1727282698326,-0.19067383,-0.7852173,0.2897339,-5.34375,-13.578125,4.671875
541,541,1727282698366,-0.31298828,-0.6470337,0.46209717,-3.078125,-9.5,9.8125
542,542,1727282698406,-0.2854004,-0.88653564,0.29510498,-9.015625,-9.609375,-0.71875
543,543,1727282698446,-0.18115234,-0.960022,0.40081787,-7.71875,-8.6875,2.640625
544,544,1727282698486,-0.31762695,-0.8845825,0.39642334,-12.359375,-12.84375,-3.421875
545,545,1727282698526,-0.20117188,-0.9727173,0.2526245,-4.546875,-14.890625,-7.859375
546,546,1727282698566,-0.16625977,-1.0947876,0.513855,5.0,-8.34375,-12.09375
547,547,1727282698606,-0.21948242,-1.0960083,0.40203857,3.640625,0.703125,-6.09375
548,548,1727282698646,-0.0546875,-1.2400513,0.3949585,2.828125,-0.328125,-1.390625
549,549,1727282698686,-0.061035156,-1.2322388,0.51483154,-0.609375,-8.71875,-5.015625
550,550,1727282698726,-0.1340332,-1.0266724,0.4220581,-3.59375,-6.25,2.09375
551,551,1727282698766,-0.24707031,-0.8574829,0.44866943,-4.6875,-6.53125,1.59375
552,552,1727282698806,-0.21582031,-0.68170166,0.38201904,-3.578125,-1.171875,-3.125
553,553,1727282698846,-0.123291016,-0.7246704,0.39056396,2.640625,-2.984375,-1.65625
554,554,1727282698886,-0.104003906,-0.7024536,0.42010498,2.6875,-10.28125,-1.96875
555,555,1727282698926,-0.11743164,-0.6572876,0.3908081,-6.4375,-1.765625,-3.125
556,556,1727282698966,-0.14477539,-0.7461548,0.34539795,-14.828125,0.234375,-7.796875
557,557,1727282699006,-0.100097656,-0.8550415,0.35150146,-7.6875,5.25,-5.609375
558,558,1727282699046,-0.11328125,-0.9800415,0.41693115,-9.625,-2.53125,-2.078125
559,559,1727282699086,-0.19042969,-0.90826416,0.4586792,-16.65625,1.21875,-3.3125
560,560,1727282699126,-0.14379883,-1.045227,0.27069092,-19.15625,3.65625,-4.421875
561,561,1727282699166,-0.1352539,-1.3457642,0.37420654,-9.5,0.734375,-0.5
562,562,1727282699206,-0.3100586,-1.2036743,0.41888428,-2.546875,2.921875,2.5625
563,563,1727282699246,-0.24609375,-1.4363403,0.45281982,-5.953125,-0.25,-2.09375
564,564,1727282699286,-0.25048828,-0.9143677,0.545105,2.875,11.21875,6.203125
565,565,1727282699326,-0.21850586,-0.8062134,0.45062256,-1.765625,5.265625,1.40625
566,566,1727282699366,-0.1352539,-0.8792114,0.39715576,4.421875,-0.8125,5.25
567,567,1727282699406,-0.12475586,-0.673645,0.31219482,12.640625,-2.234375,11.40625
568,568,1727282699446,-0.20239258,-0.6057739,0.35687256,1.6875,-7.25,8.375
569,569,1727282699486,-0.20898438,-0.5630493,0.3378296,-7.59375,-9.765625,3.0
570,570,1727282699526,-0.26635742,-0.7593384,0.42645264,-17.9375,-10.40625,-3.9375
571,571,1727282699566,-0.27685547,-0.8809204,0.5162964,-14.96875,-14.265625,-5.59375
572,572,1727282699606,-0.3659668,-0.72003174,0.55462646,-5.796875,-4.734375,-3.953125
573,573,1727282699646,-0.28881836,-0.861145,0.3817749,-6.703125,2.671875,-13.375
574,574,1727282699686,-0.018554688,-0.991272,0.3283081,7.34375,-13.625,-11.28125
575,575,1727282699726,0.021484375,-1.3340454,0.4545288,14.171875,-21.78125,-3.390625
576,576,1727282699766,-0.17651367,-1.2583618,0.5741577,6.453125,-2.015625,6.203125
577,577,1727282699806,-0.19921875,-1.1016235,0.38079834,-0.4375,-12.640625,-0.578125
578,578,1727282699846,-0.09375,-1.33844,0.5932007,8.359375,-9.9375,3.984375
579,579,1727282699886,-0.18603516,-0.77716064,0.44891357,6.796875,-7.75,10.625
580,580,1727282699926,-0.21728516,-0.76690674,0.36639404,13.71875,-4.796875,8.453125
581,581,1727282699966,-0.15356445,-0.5889282,0.33636475,15.34375,-2.484375,6.921875
582,582,1727282700006,-0.057861328,-0.690979,0.31976318,8.46875,-1.25,2.265625
583,583,1727282700046,-0.20385742,-0.6956177,0.46307373,8.65625,6.09375,-5.1875
584,584,1727282700086,-0.2175293,-0.5425415,0.29656982,-0.390625,19.515625,-4.125
585,585,1727282700126,-0.07421875,-0.85528564,0.39520264,7.640625,7.875,-5.4375
586,586,1727282700166,-0.1472168,-1.0515747,0.42474365,-1.265625,-1.984375,-1.984375
587,587,1727282700206,-0.19897461,-0.9480591,0.37860107,-8.859375,5.90625,5.84375
588,588,1727282700246,-0.24194336,-1.359436,0.28631592,-10.640625,-2.75,-6.78125
589,589,1727282700286,-0.23999023,-1.3115845,0.26483154,-6.90625,4.734375,6.953125
590,590,1727282700326,-0.23754883,-1.1135864,0.34783936,-2.421875,-0.25,1.859375
591,591,1727282700366,-0.39013672,-1.4614868,0.48309326,-1.765625,-5.0625,-5.03125
592,592,1727282700406,-0.24584961,-1.0667114,0.39276123,-2.84375,14.390625,0.875
593,593,1727282700446,-0.2836914,-0.503479,0.3685913,4.078125,15.265625,10.578125
594,594,1727282700486,-0.1418457,-0.7102661,0.23626709,4.140625,5.828125,1.453125
595,595,1727282700526,-0.13842773,-0.569397,0.19598389,9.25,0.5,11.53125
596,596,1727282700566,-0.3034668,-0.6856079,0.32489014,-3.921875,-9.265625,3.296875
597,597,1727282700606,-0.2878418,-0.7937622,0.33758545,-13.171875,-1.859375,-2.640625
598,598,1727282700646,-0.28076172,-0.74713135,0.39837646,-10.125,4.59375,-2.265625
599,599,1727282700686,-0.24169922,-0.7949829,0.37493896,-10.34375,2.234375,-5.578125
600,600,1727282700726,-0.19067383,-0.62994385,0.34417725,-3.828125,5.75,-3.875
601,601,1727282700766,-0.11010742,-1.3342896,0.24163818,19.515625,-3.859375,-12.125
602,602,1727282700806,0.0769043,-1.5908813,0.447937,5.140625,-8.390625,1.796875
603,603,1727282700846,-0.27026367,-0.94976807,0.4911499,4.078125,3.546875,3.734375
604,604,1727282700886,-0.057128906,-1.7854614,0.46331787,6.40625,-8.65625,-8.546875
605,605,1727282700926,-0.1899414,-0.8411255,0.4244995,-2.125,11.859375,8.71875
606,606,1727282700966,-0.12158203,-0.67633057,0.41619873,11.1875,-4.125,4.453125
607,607,1727282701006,-0.056396484,-0.99591064,0.39276123,15.625,-1.4375,9.28125
608,608,1727282701046,-0.12060547,-0.81500244,0.3805542,11.46875,-1.375,3.203125
609,609,1727282701086,-0.1274414,-0.5984497,0.23504639,6.6875,6.21875,5.25
610,610,1727282701126,-0.15722656,-0.6170044,0.35198975,7.1875,6.953125,-7.765625
611,611,1727282701166,-0.16259766,-0.7505493,0.39569092,3.84375,7.171875,-8.5625
612,612,1727282701206,-0.20800781,-0.7913208,0.3126831,-0.890625,14.234375,-8.015625
613,613,1727282701246,-0.13549805,-0.92266846,0.33587646,2.203125,11.890625,-7.71875
614,614,1727282701286,-0.049560547,-0.9429321,0.3522339,-2.734375,2.734375,-0.890625
615,615,1727282701326,-0.12915039,-0.9351196,0.25506592,-4.3125,0.203125,5.078125
616,616,1727282701366,-0.123291016,-1.3916626,0.21868896,-4.75,-7.421875,-6.8125
617,617,1727282701406,-0.2861328,-1.0879517,0.31829834,-1.171875,-0.828125,2.484375
618,618,1727282701446,-0.48608398,-1.572815,0.28778076,-1.5,-3.15625,-3.953125
619,619,1727282701486,-0.17797852,-1.3093872,0.3217163,-10.96875,0.296875,-7.53125
620,620,1727282701526,-0.28979492,-0.74835205,0.3932495,-3.703125,4.359375,6.09375
621,621,1727282701566,-0.16894531,-0.9065552,0.34344482,0.765625,0.328125,3.796875
622,622,1727282701606,-0.14257812,-0.847229,0.22943115,1.21875,-3.578125,13.5625
623,623,1727282701646,-0.13720703,-0.5991821,0.22625732,1.203125,-11.984375,13.09375
624,624,1727282701686,-0.34057617,-0.63287354,0.20794678,-4.5625,-4.4375,2.046875
625,625,1727282701726,-0.088378906,-0.7473755,0.40423584,-5.15625,-14.6875,0.59375
626,626,1727282701766,-0.21069336,-0.81500244,0.33563232,-10.390625,-16.1875,4.703125
627,627,1727282701806,-0.14550781,-0.89923096,0.3522339,-8.515625,-15.171875,2.0
628,628,1727282701846,-0.31689453,-0.80133057,0.42645264,-8.546875,-11.515625,-0.65625
629,629,1727282701886,-0.25756836,-1.098938,0.3908081,-3.53125,-10.640625,-9.6875
630,630,1727282701926,-0.041259766,-1.4246216,0.2597046,-3.5625,-8.234375,-6.59375
631,631,1727282701966,-0.1640625,-0.9417114,0.41400146,-5.671875,-1.34375,-1.84375
632,632,1727282702006,-0.107666016,-1.1035767,0.36468506,4.734375,2.359375,3.46875
633,633,1727282702046,-0.061279297,-1.4324341,0.44378662,4.59375,-9.671875,6.25
634,634,1727282702086,-0.18798828,-0.8701782,0.46624756,-1.390625,-4.203125,8.65625
635,635,1727282702126,-0.20581055,-0.7498169,0.43719482,5.4375,-3.203125,6.234375
636,636,1727282702166,-0.1887207,-0.91412354,0.48138428,10.859375,0.171875,5.78125
637,637,1727282702206,-0.14428711,-0.70147705,0.27313232,8.265625,1.390625,2.078125
638,638,1727282702246,-0.083984375,-0.6868286,0.35906982,4.828125,6.078125,-0.359375
639,639,1727282702286,-0.19042969,-0.6289673,0.48138428,0.3125,3.171875,-8.828125
640,640,1727282702326,-0.11816406,-0.7984009,0.44500732,-0.25,0.078125,-8.734375
641,641,1727282702366,-0.12670898,-0.94537354,0.35076904,-5.578125,-2.34375,-0.4375
642,642,1727282702406,-0.051757812,-0.8916626,0.34320068,-8.671875,-9.359375,1.1875
643,643,1727282702446,-0.047607422,-0.89556885,0.39105225,-9.359375,-14.484375,7.953125
644,644,1727282702486,-0.22460938,-0.93585205,0.4779663,-16.875,-18.65625,4.40625
645,645,1727282702526,-0.25390625,-1.3953247,0.1671753,-9.359375,-12.34375,-13.140625
646,646,1727282702566,-0.16796875,-1.2136841,0.41082764,-6.59375,-12.59375,9.875
647,647,1727282702606,-0.45629883,-1.0593872,0.3829956,-3.5625,-6.75,2.484375
648,648,1727282702646,-0.296875,-1.513977,0.3463745,-10.40625,-6.421875,-15.390625
649,649,1727282702686,-0.19335938,-0.91290283,0.40081787,-5.75,-6.90625,6.921875
650,650,1727282702726,-0.27978516,-0.60040283,0.47625732,-0.125,-7.015625,8.453125
651,651,1727282702766,-0.20654297,-0.7473755,0.2789917,0.15625,-10.09375,9.0625
652,652,1727282702806,-0.1508789,-0.68292236,0.17327881,2.765625,-5.765625,10.546875
653,653,1727282702846,-0.24609375,-0.6477661,0.3085327,-0.125,-14.078125,6.125
654,654,1727282702886,-0.26782227,-0.7612915,0.32073975,-2.15625,-9.6875,3.109375
655,655,1727282702926,-0.3244629,-0.7415161,0.45037842,-5.1875,-14.015625,1.125
656,656,1727282702966,-0.28442383,-0.89971924,0.38812256,-8.765625,-16.015625,-0.75
657,657,1727282703006,-0.29296875,-0.8213501,0.3505249,-2.921875,-7.234375,-3.9375
658,658,1727282703046,-0.20410156,-0.8623657,0.369812,0.453125,-7.96875,-6.390625
659,659,1727282703086,-0.1459961,-0.9092407,0.41912842,-15.09375,-8.03125,5.375
660,660,1727282703126,-0.14990234,-1.5071411,0.2982788,-15.953125,-12.546875,-10.421875
661,661,1727282703166,-0.3203125,-1.2168579,0.3163452,5.828125,10.0625,6.375
662,662,1727282703206,-0.3762207,-1.4099731,0.45819092,-1.5,-5.5,-6.015625
663,663,1727282703246,-0.15356445,-1.1743774,0.39031982,-5.671875,-7.765625,4.21875
664,664,1727282703286,-0.22192383,-0.8284302,0.43914795,3.28125,-3.265625,10.265625
665,665,1727282703326,-0.15234375,-0.7024536,0.41375732,9.5,-13.4375,11.40625
666,666,1727282703366,-0.16040039,-0.8689575,0.30389404,6.375,-15.8125,12.578125
667,667,1727282703406,-0.14575195,-0.55963135,0.23553467,10.953125,-14.046875,18.765625
668,668,1727282703446,-0.20043945,-0.5598755,0.2921753,-7.359375,-16.703125,11.015625
669,669,1727282703486,-0.18334961,-0.74102783,0.32684326,-13.703125,-21.40625,4.140625
670,670,1727282703526,-0.15698242,-0.81329346,0.4545288,-4.734375,-21.703125,8.375
671,671,1727282703566,-0.22045898,-0.8740845,0.43377686,-9.515625,-18.71875,7.03125
672,672,1727282703606,-0.3161621,-0.9619751,0.36712646,-7.203125,-16.171875,-5.296875
673,673,1727282703646,-0.11206055,-1.2080688,0.3788452,2.859375,-15.0625,-6.40625
674,674,1727282703686,-0.05444336,-1.2554321,0.44378662,5.53125,-15.453125,0.078125
675,675,1727282703726,-0.20581055,-1.2280884,0.5194702,3.46875,-2.0,0.765625
676,676,1727282703766,-0.20288086,-1.2578735,0.41204834,6.78125,-7.34375,-7.953125
677,677,1727282703806,-0.10205078,-1.211731,0.53656006,9.515625,-7.828125,5.9375
678,678,1727282703846,-0.19335938,-0.6980591,0.42694092,7.859375,-3.8125,10.015625
679,679,1727282703886,-0.028320312,-0.644104,0.31976318,6.75,-0.46875,-1.625
680,680,1727282703926,-0.17260742,-0.706604,0.52948,-1.03125,6.578125,-1.609375
681,681,1727282703966,-0.26171875,-0.60943604,0.31536865,-3.515625,6.34375,-4.046875
682,682,1727282704006,-0.063964844,-1.0169067,0.33953857,0.40625,-1.953125,-6.625
683,683,1727282704046,-0.19995117,-0.81573486,0.29241943,-3.34375,5.625,3.734375
684,684,1727282704086,-0.17797852,-0.81134033,0.3986206,-4.828125,-0.65625,-0.96875
685,685,1727282704126,-0.2890625,-1.2388306,0.44525146,-4.6875,-0.015625,-3.546875
686,686,1727282704166,-0.17993164,-1.3848267,0.12957764,-9.21875,0.421875,0.265625
687,687,1727282704206,-0.23022461,-1.1953735,0.33880615,0.71875,1.375,10.46875
688,688,1727282704246,-0.29418945,-1.4815063,0.28485107,-0.1875,-7.34375,-1.640625
689,689,1727282704286,-0.2685547,-0.96881104,0.54901123,7.109375,0.40625,12.515625
690,690,1727282704326,-0.36376953,-0.8218384,0.33758545,3.65625,-0.375,4.234375
691,691,1727282704366,-0.16040039,-0.75787354,0.21575928,2.859375,8.609375,5.375
692,692,1727282704406,-0.19311523,-0.60406494,0.22625732,5.78125,5.953125,8.578125
693,693,1727282704446,-0.33496094,-0.5142212,0.2772827,-2.1875,8.0,1.609375
694,694,1727282704486,-0.27807617,-0.71099854,0.30340576,-7.109375,2.0625,-9.4375
695,695,1727282704526,-0.17749023,-0.8201294,0.42108154,-6.078125,-2.984375,-2.25
696,696,1727282704566,-0.26904297,-0.90997314,0.40130615,-12.859375,1.65625,-9.59375
697,697,1727282704606,-0.33911133,-0.86553955,0.4081421,-7.96875,7.25,-9.9375
698,698,1727282704646,-0.24121094,-1.0488892,0.29144287,0.125,6.546875,-12.0
699,699,1727282704686,-0.034423828,-1.3501587,0.27313232,9.09375,3.09375,-8.671875
700,700,1727282704726,-0.095214844,-1.269104,0.49725342,5.1875,4.265625,3.171875
701,701,1727282704766,-0.25683594,-1.2202759,0.28753662,5.6875,8.9375,-4.6875
702,702,1727282704806,-0.1003418,-1.4680786,0.46624756,4.9375,-4.875,-3.8125
703,703,1727282704846,-0.26123047,-0.78912354,0.35516357,-0.625,11.546875,2.359375
704,704,1727282704886,-0.16699219,-0.7942505,0.41400146,7.0625,1.921875,0.890625
705,705,1727282704926,-0.20629883,-0.7686157,0.3649292,8.59375,5.03125,2.90625
706,706,1727282704966,-0.12988281,-0.75567627,0.28607178,12.71875,9.296875,-0.375
707,707,1727282705006,-0.16186523,-0.7034302,0.22918701,10.953125,15.09375,1.515625
708,708,1727282705046,-0.17602539,-0.54644775,0.32855225,5.171875,21.609375,-6.796875
709,709,1727282705086,-0.08276367,-0.6079712,0.3287964,4.046875,19.109375,-7.6875
710,710,1727282705126,-0.068359375,-0.9014282,0.33343506,1.421875,10.265625,-4.9375
711,711,1727282705166,-0.027832031,-1.0708618,0.45159912,-2.21875,-4.515625,-3.65625
712,712,1727282705206,-0.19238281,-1.0620728,0.4237671,-11.640625,-4.078125,5.03125
713,713,1727282705246,-0.2915039,-1.0449829,0.18084717,-1.03125,0.734375,-2.21875
714,714,1727282705286,-0.16894531,-1.2778931,0.082458496,-2.03125,7.109375,-1.40625
715,715,1727282705326,-0.18334961,-1.3169556,0.3234253,-2.046875,-9.921875,4.046875
716,716,1727282705366,-0.20336914,-0.8735962,0.39520264,1.671875,-5.5,19.5
717,717,1727282705406,-0.3671875,-1.342102,0.3078003,-2.21875,-4.25,-3.03125
718,718,1727282705446,-0.1340332,-0.99053955,0.32025146,-2.703125,1.203125,5.640625
719,719,1727282705486,-0.32885742,-0.7761841,0.28778076,3.78125,2.578125,6.9375
720,720,1727282705526,-0.09277344,-0.91534424,0.28948975,0.390625,-3.0,1.203125
721,721,1727282705566,-0.2631836,-0.61724854,0.34783936,-3.765625,-4.21875,4.59375
722,722,1727282705606,-0.29467773,-0.677063,0.31536865,-4.625,-4.65625,-7.421875
723,723,1727282705646,-0.16796875,-0.77960205,0.31903076,-8.015625,-5.015625,-1.171875
724,724,1727282705686,-0.2614746,-0.74542236,0.31756592,-9.515625,-5.84375,-3.296875
725,725,1727282705726,-0.13745117,-0.861145,0.39813232,-8.953125,-7.671875,-6.921875
726,726,1727282705766,-0.1809082,-0.8904419,0.4413452,-8.765625,-5.5625,1.28125
727,727,1727282705806,-0.25732422,-0.83966064,0.30194092,-10.09375,-0.515625,-4.09375
728,728,1727282705846,-0.09375,-1.2822876,0.2333374,5.90625,-5.84375,-9.046875
729,729,1727282705886,-0.14233398,-1.3943481,0.3649292,-2.3125,-3.125,8.359375
730,730,1727282705926,-0.34399414,-0.86602783,0.34954834,-3.3125,3.234375,4.15625
731,731,1727282705966,-0.014892578,-1.8618774,0.47283936,-0.53125,-14.96875,-9.21875
732,732,1727282706006,-0.27441406,-0.88409424,0.36590576,-7.359375,0.703125,11.9375
733,733,1727282706046,-0.33789062,-0.5977173,0.2789917,-0.859375,5.84375,1.265625
734,734,1727282706086,-0.14038086,-0.8064575,0.45770264,6.359375,-8.96875,0.15625
735,735,1727282706126,-0.20947266,-0.69610596,0.41156006,7.828125,1.03125,1.21875
736,736,1727282706166,-0.095214844,-0.6951294,0.42816162,7.84375,3.765625,2.5625
737,737,1727282706206,-0.13842773,-0.8086548,0.41619873,-0.5,0.59375,-3.234375
738,738,1727282706246,-0.17333984,-0.7439575,0.3529663,-8.109375,5.71875,-2.046875
739,739,1727282706286,-0.13842773,-0.862854,0.42791748,0.5625,-3.34375,-2.890625
740,740,1727282706326,-0.12988281,-0.95880127,0.3991089,-1.28125,-3.421875,0.90625
741,741,1727282706366,-0.16455078,-0.83917236,0.40301514,-7.703125,-1.125,2.125
742,742,1727282706406,-0.19360352,-0.8897095,0.36541748,-5.34375,-1.859375,1.765625
743,743,1727282706446,-0.2854004,-1.4099731,0.137146,-4.390625,-1.5625,-16.40625
744,744,1727282706486,-0.19897461,-1.1878052,0.33563232,-7.6875,6.1875,8.078125
745,745,1727282706526,-0.24633789,-0.9434204,0.43670654,-5.3125,-9.453125,5.828125
746,746,1727282706566,-0.32006836,-1.4019165,0.39666748,0.34375,-11.03125,-2.90625
747,747,1727282706606,-0.23828125,-0.8086548,0.38494873,4.671875,0.046875,6.71875
748,748,1727282706646,-0.33862305,-0.6045532,0.42425537,3.140625,0.0625,7.953125
749,749,1727282706686,-0.25219727,-0.98638916,0.35491943,-1.6875,-3.890625,-6.359375
750,750,1727282706726,-0.25683594,-0.6782837,0.39349365,2.9375,-1.96875,7.640625
751,751,1727282706766,-0.33520508,-0.7217407,0.38446045,-4.5625,0.09375,0.953125
752,752,1727282706806,-0.16625977,-0.6621704,0.37860107,-6.390625,-6.25,3.234375
753,753,1727282706846,-0.265625,-1.1836548,0.36883545,4.625,3.328125,15.671875
754,754,1727282706886,-0.4194336,-1.1997681,0.32904053,2.90625,-3.203125,4.34375
755,755,1727282706926,-0.13964844,-1.2747192,0.42791748,2.390625,-3.671875,9.21875
756,756,1727282706966,-0.3449707,-0.80352783,0.3986206,2.40625,6.515625,10.453125
757,757,1727282707006,-0.24291992,-0.927063,0.31536865,-0.140625,5.21875,0.828125
758,758,1727282707046,-0.20239258,-0.81036377,0.31756592,3.765625,10.265625,7.953125
759,759,1727282707086,-0.24804688,-0.50250244,0.30169678,4.90625,12.390625,8.34375
