,Unnamed: 0,timestamp,accel_x,accel_y,accel_z,gyro_x,gyro_y,gyro_z
0,0,1727973844401,-0.01928711,-0.6099243,0.19720459,-8.15625,-26.15625,-0.15625
1,1,1727973844441,-0.10253906,-0.7041626,0.15594482,-16.0625,-26.859375,-7.125
2,2,1727973844481,-0.110839844,-0.8904419,0.33026123,-20.265625,-5.5625,-4.03125
3,3,1727973844521,0.19824219,-0.91729736,-0.45513916,-24.25,-28.484375,-5.390625
4,4,1727973844561,0.44555664,-1.1829224,-0.44122314,24.46875,-28.109375,0.6875
5,5,1727973844601,0.7570801,-2.0,0.07122803,-3.0,-28.0625,-16.5
6,6,1727973844641,0.23242188,-1.7153931,-0.25738525,11.3125,-10.78125,20.859375
7,7,1727973844681,-0.033691406,-1.5425415,0.070007324,18.40625,-4.4375,-9.578125
8,8,1727973844721,-0.021728516,-1.2910767,0.13885498,17.75,15.0625,1.921875
9,9,1727973844761,-0.060302734,-0.99542236,-0.007385254,0.21875,30.828125,4.078125
10,10,1727973844801,-0.09082031,-0.57037354,0.11468506,18.578125,44.265625,7.140625
11,11,1727973844841,-0.0075683594,-0.37677002,0.078063965,16.234375,44.484375,1.640625
12,12,1727973844881,0.1640625,-0.3796997,0.16351318,5.921875,39.640625,-5.953125
13,13,1727973844921,-0.005126953,-0.3250122,0.12420654,-9.734375,29.515625,-1.28125
14,14,1727973844961,-0.06274414,-0.3887329,0.05340576,-17.296875,36.640625,-7.296875
15,15,1727973845001,-0.18237305,-0.5845337,0.032165527,-20.171875,43.328125,-15.46875
16,16,1727973845041,-0.063964844,-0.47979736,-0.043273926,-12.375,71.296875,-10.109375
17,17,1727973845081,0.3491211,-0.19439697,-0.6524048,-25.4375,19.59375,28.109375
18,18,1727973845121,0.8483887,-1.8110962,-0.44781494,-30.375,-60.9375,19.0625
19,19,1727973845161,0.77734375,-2.0,-0.42218018,-11.921875,-77.15625,54.453125
20,20,1727973845201,-1.574707,-2.0,0.5778198,10.890625,2.53125,5.59375
21,21,1727973845241,0.2878418,-1.0650024,-0.15704346,-2.15625,9.046875,-22.03125
22,22,1727973845281,0.68530273,-1.718811,-0.023742676,4.296875,-29.015625,17.515625
23,23,1727973845321,-0.06567383,-0.8225708,0.15106201,25.953125,-7.578125,7.84375
24,24,1727973845361,-0.22460938,-0.43463135,0.1071167,-1.140625,-1.546875,2.734375
25,25,1727973845401,-0.07128906,-0.07305908,0.18157959,4.765625,-1.609375,1.796875
26,26,1727973845441,-0.14038086,0.012878418,0.053649902,13.6875,-10.03125,9.453125
27,27,1727973845481,-0.203125,-0.10235596,-0.050109863,6.078125,-14.65625,-0.421875
28,28,1727973845521,-0.03100586,-0.25933838,-0.041809082,-3.75,-2.984375,3.828125
29,29,1727973845561,-0.036376953,-0.07525635,-0.1453247,-0.71875,-13.71875,8.609375
30,30,1727973845601,-0.092285156,-0.9104614,0.27020264,-15.109375,-33.671875,0.296875
31,31,1727973845641,0.34985352,-2.0,-0.21661377,-49.359375,-44.578125,-50.78125
32,32,1727973845681,0.99902344,-1.6997681,0.27557373,-6.421875,29.3125,27.859375
33,33,1727973845721,-0.49267578,-2.0,-0.00592041,29.984375,-31.765625,6.890625
34,34,1727973845761,-0.11767578,-1.7276001,0.30145264,-0.546875,-0.984375,-26.96875
35,35,1727973845801,0.1237793,-1.2471313,0.047058105,-0.953125,7.578125,-15.875
36,36,1727973845841,-0.01171875,-0.78326416,0.085876465,-7.734375,15.578125,-7.46875
37,37,1727973845881,-0.029785156,-0.46368408,0.09979248,-5.09375,13.421875,-4.578125
38,38,1727973845921,-0.049072266,-0.33673096,0.12835693,-1.21875,14.3125,-5.703125
39,39,1727973845961,-0.025146484,-0.32647705,0.030212402,-11.234375,9.109375,-5.125
40,40,1727973846001,-0.044189453,-0.25006104,0.086120605,-11.984375,1.953125,-8.140625
41,41,1727973846041,0.07763672,-0.38482666,0.09832764,-5.734375,-6.90625,-7.5
42,42,1727973846081,0.14624023,-0.5601196,0.21990967,-10.0625,-14.859375,-9.046875
43,43,1727973846121,0.20800781,-0.8374634,0.38616943,-1.578125,-21.015625,-10.09375
44,44,1727973846161,-0.060058594,-0.95025635,-0.206604,-3.046875,-20.46875,8.0
45,45,1727973846201,0.15454102,-1.2683716,-0.085510254,-10.828125,9.875,8.796875
46,46,1727973846241,0.34692383,-1.7380981,-0.44317627,31.046875,-45.0,22.65625
47,47,1727973846281,-0.8173828,-2.0,0.6498413,3.375,-4.78125,-5.984375
48,48,1727973846321,-0.03564453,-1.8626099,0.46575928,11.046875,19.578125,3.28125
49,49,1727973846361,-0.06958008,-1.576477,0.2177124,6.40625,31.71875,12.78125
50,50,1727973846401,-0.18652344,-1.2495728,0.16619873,15.65625,17.328125,3.953125
51,51,1727973846441,0.04345703,-0.86676025,0.082458496,8.90625,17.0625,10.0
52,52,1727973846481,0.08544922,-0.4837036,0.042663574,-1.890625,18.328125,20.984375
53,53,1727973846521,-0.15673828,-0.26837158,0.024353027,-5.421875,-15.78125,10.78125
54,54,1727973846561,-0.19604492,-0.3496704,0.23968506,-8.015625,4.078125,0.359375
55,55,1727973846601,-0.17089844,-0.3196411,0.10076904,-8.25,-2.34375,-1.671875
56,56,1727973846641,-0.09692383,-0.41827393,0.09490967,-7.03125,-1.796875,7.4375
57,57,1727973846681,0.057373047,-0.9216919,-0.10357666,-23.765625,-28.03125,-0.75
58,58,1727973846721,0.27441406,-1.7149048,-0.18804932,-4.0,-8.96875,-8.234375
59,59,1727973846761,0.67211914,-1.3880005,0.05218506,-4.875,-11.25,4.828125
60,60,1727973846801,0.04272461,-1.8088989,0.0692749,9.25,-12.75,9.171875
61,61,1727973846841,0.048828125,-1.7444458,0.29510498,1.859375,-12.046875,-7.71875
62,62,1727973846881,0.03930664,-1.3230591,0.030700684,5.4375,0.640625,-0.953125
63,63,1727973846921,-0.049072266,-0.9187622,0.14569092,4.21875,16.671875,-1.390625
64,64,1727973846961,0.009277344,-0.6069946,0.12982178,3.234375,20.734375,3.328125
65,65,1727973847001,-0.00024414062,-0.4277954,0.11444092,7.390625,23.703125,8.0625
66,66,1727973847041,-0.016357422,-0.4187622,0.124694824,9.21875,18.140625,1.078125
67,67,1727973847081,-0.010498047,-0.6382446,0.17913818,2.90625,19.625,-7.5625
68,68,1727973847121,0.1418457,-0.82354736,0.23773193,6.375,18.453125,-10.859375
69,69,1727973847161,0.044189453,-0.9212036,0.2975464,4.484375,5.828125,-4.25
70,70,1727973847201,-0.12817383,-1.1182251,0.31292725,-10.546875,3.90625,-8.5
71,71,1727973847241,-0.057617188,-1.0874634,0.23651123,-7.375,4.5,-14.359375
72,72,1727973847281,0.1003418,-1.1170044,-0.16461182,-9.53125,-11.5625,-5.1875
73,73,1727973847321,0.5876465,-1.0278931,-0.43634033,-4.921875,-10.0,24.015625
74,74,1727973847361,0.31103516,-1.3325806,-0.016906738,14.0,-14.859375,10.03125
75,75,1727973847401,-0.012939453,-1.5127563,0.13153076,-3.921875,-47.90625,-12.359375
76,76,1727973847441,-0.05834961,-1.7266235,0.16693115,-11.828125,-3.328125,-2.890625
77,77,1727973847481,0.06518555,-1.0244751,0.054138184,17.078125,1.15625,0.125
78,78,1727973847521,0.10620117,-0.90631104,0.1696167,7.140625,-10.328125,6.734375
79,79,1727973847561,-0.012207031,-0.63287354,0.081726074,12.671875,-7.8125,18.546875
80,80,1727973847601,0.04638672,-0.3945923,-0.0029907227,18.984375,-10.265625,14.84375
81,81,1727973847641,-0.08227539,-0.5310669,0.06781006,13.09375,-8.671875,11.609375
82,82,1727973847681,-0.053710938,-0.62213135,0.074157715,4.6875,-17.015625,6.53125
83,83,1727973847721,-0.04296875,-0.6460571,0.10784912,-4.5625,-27.03125,0.15625
84,84,1727973847761,-0.053466797,-0.9365845,0.1954956,-9.65625,-21.546875,-1.796875
85,85,1727973847801,-0.10107422,-0.8477173,0.20037842,-7.28125,-10.015625,-0.375
86,86,1727973847841,0.22094727,-0.6746216,-0.77911377,-13.078125,-47.140625,-13.015625
87,87,1727973847881,0.85595703,-1.114563,0.13909912,24.53125,4.875,1.703125
88,88,1727973847921,0.70751953,-2.0,0.09661865,-40.109375,-33.015625,-11.96875
89,89,1727973847961,0.2446289,-1.4595337,-0.45489502,30.984375,-15.09375,21.828125
90,90,1727973848001,0.044921875,-1.2356567,0.12957764,21.125,-6.890625,-7.484375
91,91,1727973848041,-0.022460938,-1.1069946,0.09613037,11.78125,13.109375,7.140625
92,92,1727973848081,0.05517578,-0.7827759,-0.0154418945,7.046875,21.28125,9.859375
93,93,1727973848121,0.078125,-0.5569458,0.039489746,13.453125,13.921875,9.046875
94,94,1727973848161,0.056396484,-0.4348755,0.14935303,14.453125,16.65625,0.65625
95,95,1727973848201,-0.1015625,-0.5039673,0.010925293,-13.21875,22.015625,-6.203125
96,96,1727973848241,0.001953125,-0.7424927,0.15008545,-22.5,14.765625,-15.953125
97,97,1727973848281,-0.033691406,-0.8062134,0.090026855,-17.328125,33.171875,-13.984375
98,98,1727973848321,-0.053222656,-0.25128174,0.04119873,-9.1875,71.484375,-1.90625
99,99,1727973848361,0.23046875,-0.12945557,-0.7041626,-20.53125,13.0,10.3125
100,100,1727973848401,1.0854492,-1.3555298,-0.4307251,-0.234375,-38.421875,7.296875
101,101,1727973848441,0.33374023,-2.0,0.21673584,10.921875,-37.96875,47.484375
102,102,1727973848481,-1.2106934,-1.5996704,0.42840576,-12.734375,29.421875,-3.546875
103,103,1727973848521,0.48535156,-1.1917114,-0.29718018,0.140625,28.625,-16.328125
104,104,1727973848561,0.7438965,-1.5940552,-0.121398926,1.796875,8.203125,17.125
105,105,1727973848601,-0.11035156,-0.8689575,0.10101318,3.359375,9.546875,11.546875
106,106,1727973848641,-0.28808594,-0.57940674,0.05218506,-4.21875,20.765625,3.640625
107,107,1727973848681,0.045166016,-0.39996338,0.06756592,-7.5625,17.15625,2.140625
108,108,1727973848721,-0.07910156,-0.016174316,-0.07330322,3.5,14.078125,5.1875
109,109,1727973848761,-0.09814453,0.12005615,-0.042785645,4.734375,11.265625,8.3125
110,110,1727973848801,0.044433594,-0.08306885,-0.14361572,-2.78125,3.65625,2.390625
111,111,1727973848841,0.21826172,-0.12237549,0.06097412,-5.734375,-1.515625,-0.875
112,112,1727973848881,0.17626953,-0.84576416,0.1876831,-14.59375,-40.90625,-13.03125
113,113,1727973848921,0.28222656,-2.0,-0.3723755,-29.203125,-43.140625,-35.375
114,114,1727973848961,1.5300293,-1.5513306,-0.015197754,-18.640625,11.859375,8.0
115,115,1727973849001,-0.578125,-2.0,0.1828003,43.375,9.703125,1.21875
116,116,1727973849041,0.050048828,-1.1550903,0.18670654,9.296875,-8.265625,-19.28125
117,117,1727973849081,0.35961914,-1.2962036,0.2243042,6.734375,-23.015625,-9.984375
118,118,1727973849121,0.07910156,-0.81427,0.090270996,3.25,-11.0,-4.875
119,119,1727973849161,-0.14990234,-0.38311768,0.1437378,-2.328125,-2.296875,-9.3125
120,120,1727973849201,-0.2055664,-0.17218018,0.1293335,-10.8125,-1.796875,-10.765625
121,121,1727973849241,-0.041992188,-0.1675415,0.13665771,-20.640625,-0.5,-7.46875
122,122,1727973849281,-0.01171875,-0.06915283,-0.0068969727,-12.96875,14.140625,-1.9375
123,123,1727973849321,-0.084228516,-0.17462158,-0.18536377,4.140625,17.71875,5.90625
124,124,1727973849361,0.2319336,-0.83673096,-0.27423096,-7.46875,-17.90625,6.328125
125,125,1727973849401,0.9616699,-2.0,-0.4085083,-13.03125,-40.5,8.96875
126,126,1727973849441,-0.49047852,-2.0,0.16497803,56.96875,-19.875,30.203125
127,127,1727973849481,-0.7487793,-2.0,0.4442749,0.015625,20.953125,8.34375
128,128,1727973849521,0.6542969,-1.62677,0.18231201,-2.984375,16.421875,-5.953125
129,129,1727973849561,0.13891602,-1.2954712,-0.2835083,9.4375,25.765625,18.46875
130,130,1727973849601,-0.32983398,-0.8242798,0.12200928,8.140625,26.328125,0.703125
131,131,1727973849641,-0.14135742,-0.5901489,0.20257568,-7.828125,32.265625,-0.453125
132,132,1727973849681,0.12988281,-0.3604126,-0.117492676,-15.8125,12.71875,9.0
133,133,1727973849721,0.075927734,0.043395996,-0.03302002,7.0,10.90625,9.890625
134,134,1727973849761,-0.11767578,0.26531982,0.017028809,-9.9375,8.78125,9.421875
135,135,1727973849801,-0.045654297,-0.024230957,-0.059387207,-2.265625,6.390625,10.75
136,136,1727973849841,0.14892578,-0.16143799,-0.22589111,-6.6875,-9.671875,7.34375
137,137,1727973849881,0.37670898,-1.0061646,0.035827637,23.578125,1.46875,-8.6875
138,138,1727973849921,1.0073242,-2.0,-0.16925049,-30.046875,-20.0625,3.109375
139,139,1727973849961,0.55029297,-1.6555786,0.47235107,-5.8125,20.78125,19.234375
140,140,1727973850001,-0.47729492,-1.9475708,0.21990967,18.796875,-14.859375,-12.25
141,141,1727973850041,0.45458984,-1.5940552,0.19866943,2.390625,-3.5,-27.75
142,142,1727973850081,0.3737793,-1.0444946,0.28363037,-3.484375,3.453125,-10.125
143,143,1727973850121,0.068603516,-0.70098877,0.16815186,-3.390625,-17.328125,-9.640625
144,144,1727973850161,-0.06616211,-0.46417236,0.2333374,-10.203125,-19.34375,-19.375
145,145,1727973850201,-0.17236328,-0.26080322,0.33953857,-8.125,-15.90625,-23.203125
146,146,1727973850241,-0.2722168,-0.13995361,0.15594482,-24.4375,-44.546875,-28.109375
147,147,1727973850281,-0.0017089844,-0.14971924,-0.16461182,-17.265625,9.234375,-19.703125
148,148,1727973850321,0.23022461,-0.19464111,-0.1272583,-3.8125,-10.84375,-9.25
149,149,1727973850361,0.3137207,-1.0090942,-0.11383057,-22.9375,-13.75,1.828125
150,150,1727973850401,1.144043,-2.0,-0.45489502,-16.75,-46.59375,6.390625
151,151,1727973850441,-0.46923828,-1.581604,0.5165405,74.296875,18.5,23.640625
152,152,1727973850481,-0.40771484,-2.0,0.33221436,-8.296875,-0.4375,3.3125
153,153,1727973850521,0.5944824,-1.6690063,0.08441162,14.28125,26.6875,15.28125
154,154,1727973850561,0.09033203,-1.0151978,0.058776855,40.609375,-2.6875,11.375
155,155,1727973850601,-0.122558594,-0.72198486,0.11151123,20.859375,7.953125,10.671875
156,156,1727973850641,-0.016357422,-0.62457275,0.06829834,14.953125,-3.671875,14.890625
157,157,1727973850681,0.087646484,-0.4788208,0.05340576,14.609375,-11.9375,7.25
158,158,1727973850721,-0.22949219,-0.39971924,0.109558105,10.90625,-11.25,5.9375
159,159,1727973850761,-0.26733398,-0.5042114,0.07659912,-4.171875,-21.71875,-1.390625
160,160,1727973850801,-0.111816406,-0.833313,0.07562256,-13.421875,-13.078125,3.015625
161,161,1727973850841,-0.11621094,-1.164856,0.17816162,-23.578125,-10.84375,2.78125
162,162,1727973850881,0.10424805,-0.97369385,-0.07086182,-31.53125,-21.359375,-3.4375
163,163,1727973850921,0.044189453,-1.0210571,-0.6399536,-1.828125,-3.671875,-2.4375
164,164,1727973850961,0.84716797,-1.3025513,0.25823975,3.75,-16.15625,0.953125
165,165,1727973851001,0.13769531,-1.8838501,-0.3086548,-0.8125,-12.546875,10.0625
166,166,1727973851041,-0.12866211,-1.4028931,-0.011047363,2.53125,15.515625,-6.328125
167,167,1727973851081,0.23925781,-1.2749634,0.055358887,5.515625,16.84375,-13.375
168,168,1727973851121,0.056396484,-0.9265747,0.04119873,-1.96875,24.734375,0.0625
169,169,1727973851161,-0.122802734,-0.57281494,0.0065307617,-13.625,30.984375,1.515625
170,170,1727973851201,0.053955078,-0.44122314,0.014831543,-12.734375,29.109375,5.765625
171,171,1727973851241,-0.01171875,-0.5237427,0.073913574,-0.71875,26.625,2.53125
172,172,1727973851281,0.009277344,-0.7078247,0.08538818,8.203125,26.09375,-1.46875
173,173,1727973851321,0.08642578,-0.7764282,0.21185303,-8.78125,24.671875,-7.828125
174,174,1727973851361,0.12573242,-0.98394775,0.31365967,-1.9375,19.546875,-5.453125
175,175,1727973851401,-0.0034179688,-1.1306763,0.30804443,-10.453125,2.875,-14.171875
176,176,1727973851441,-0.029785156,-1.1448364,0.0038452148,-5.21875,-0.921875,-11.96875
177,177,1727973851481,0.31225586,-1.1152954,-0.1716919,-30.015625,-9.515625,-2.84375
178,178,1727973851521,0.9030762,-1.3799438,-0.5510864,-7.046875,-37.796875,22.34375
179,179,1727973851561,-0.19580078,-1.5757446,-6.1035156e-05,10.75,-35.28125,-7.21875
180,180,1727973851601,0.10058594,-1.4959106,0.117614746,-8.15625,-26.875,-4.21875
181,181,1727973851641,0.3203125,-1.2026978,0.0099487305,7.296875,-10.09375,1.640625
182,182,1727973851681,-0.008544922,-0.77911377,0.02508545,13.609375,-25.59375,-0.921875
183,183,1727973851721,-0.03173828,-0.90582275,0.07757568,5.921875,-23.328125,-0.78125
184,184,1727973851761,0.049316406,-0.68927,0.03314209,10.828125,-20.359375,12.34375
185,185,1727973851801,-0.0871582,-0.6734009,0.029968262,9.03125,-22.03125,12.109375
186,186,1727973851841,-0.25732422,-0.6602173,0.14788818,11.828125,-10.46875,8.40625
187,187,1727973851881,-0.30493164,-0.70513916,0.18328857,2.375,-3.984375,8.921875
188,188,1727973851921,-0.05908203,-0.73150635,0.1762085,-13.5625,-10.140625,4.1875
189,189,1727973851961,0.056152344,-0.73809814,0.14276123,-15.40625,-11.671875,4.078125
190,190,1727973852001,0.013916016,-0.69732666,0.1798706,-15.65625,-18.21875,-3.8125
191,191,1727973852041,-0.03930664,-0.5906372,0.04046631,-10.859375,-11.140625,-0.328125
192,192,1727973852081,-0.004638672,-0.7493286,-0.710022,15.28125,-14.390625,-3.5625
193,193,1727973852121,0.71875,-1.515686,0.31463623,-17.53125,5.953125,-17.296875
194,194,1727973852161,0.6398926,-1.750061,-0.37213135,-4.78125,5.9375,12.328125
195,195,1727973852201,0.029296875,-1.192688,0.18670654,6.203125,18.296875,9.3125
196,196,1727973852241,0.12084961,-1.4817505,0.20037842,7.359375,-9.890625,-10.484375
197,197,1727973852281,0.10253906,-1.6018677,0.06121826,8.078125,11.3125,-3.578125
198,198,1727973852321,0.14086914,-1.3804321,0.2189331,-0.546875,16.234375,-5.953125
199,199,1727973852361,0.08886719,-1.2800903,0.23797607,-2.984375,2.6875,-5.1875
200,200,1727973852401,-0.01171875,-0.9248657,0.16595459,-0.15625,6.3125,-3.921875
201,201,1727973852441,0.0073242188,-0.58599854,0.10491943,1.921875,-0.59375,-7.375
202,202,1727973852481,0.057373047,-0.55670166,0.19403076,-22.46875,-2.09375,-10.453125
203,203,1727973852521,-0.020751953,-0.3171997,0.309021,-16.65625,9.21875,-14.046875
204,204,1727973852561,-0.45947266,-0.007385254,-6.1035156e-05,7.625,9.203125,-13.15625
205,205,1727973852601,-0.043701172,-0.31524658,-0.3291626,-16.21875,33.265625,-3.09375
206,206,1727973852641,0.6633301,-0.97491455,-0.40924072,-43.953125,-12.734375,-0.65625
207,207,1727973852681,1.0080566,-2.0,-0.38580322,15.53125,-9.203125,16.09375
208,208,1727973852721,-0.5136719,-1.5750122,0.23260498,29.140625,0.75,5.75
209,209,1727973852761,-0.016113281,-1.3643188,0.15081787,7.0625,52.65625,2.6875
210,210,1727973852801,0.20996094,-1.3765259,-0.120910645,-5.125,41.921875,16.046875
211,211,1727973852841,0.23657227,-1.0181274,0.022644043,8.359375,25.015625,13.75
212,212,1727973852881,0.0007324219,-0.9817505,0.17767334,-9.59375,35.109375,17.921875
213,213,1727973852921,0.1628418,-0.6687622,0.0067749023,7.28125,16.140625,22.171875
214,214,1727973852961,0.36279297,-0.6992798,-0.049865723,2.9375,-6.90625,18.5
215,215,1727973853001,0.19848633,-0.7439575,0.1798706,4.875,-10.671875,11.890625
216,216,1727973853041,-0.3161621,-0.333313,0.08734131,0.515625,-11.203125,1.078125
217,217,1727973853081,-0.22827148,0.24359131,-0.36065674,8.03125,-0.78125,5.828125
218,218,1727973853121,0.3828125,0.22772217,-0.02178955,16.328125,-9.953125,10.09375
219,219,1727973853161,0.010009766,-0.3399048,-0.3496704,11.734375,-58.796875,-0.484375
220,220,1727973853201,0.16992188,-1.3862915,-0.17779541,19.6875,-7.578125,-14.640625
221,221,1727973853241,1.8068848,-2.0,0.36419678,-14.375,-21.78125,-13.171875
222,222,1727973853281,-0.52197266,-2.0,-0.61602783,26.65625,3.28125,4.484375
223,223,1727973853321,-0.25439453,-1.3042603,0.14056396,-0.796875,-5.625,-19.859375
224,224,1727973853361,0.4345703,-1.572815,0.17596436,-8.328125,5.90625,-21.15625
225,225,1727973853401,0.2397461,-0.8115845,-0.050598145,12.671875,16.171875,4.09375
226,226,1727973853441,0.0859375,-0.4492798,0.077819824,-2.3125,12.375,-2.640625
227,227,1727973853481,-0.034423828,-0.4048462,0.16741943,-1.375,18.78125,-5.15625
228,228,1727973853521,-0.08276367,-0.20855713,0.1798706,-5.765625,33.515625,-7.09375
229,229,1727973853561,-0.045898438,0.11981201,0.0770874,-9.09375,43.140625,-5.421875
230,230,1727973853601,0.055419922,-0.014953613,-0.25250244,-13.59375,-0.578125,-3.953125
231,231,1727973853641,0.33398438,-0.89312744,-0.5081177,-28.40625,-47.90625,-6.21875
232,232,1727973853681,0.87841797,-2.0,-0.4619751,10.5625,-60.953125,10.71875
233,233,1727973853721,-1.1020508,-1.7271118,0.72650146,13.625,21.578125,7.59375
234,234,1727973853761,-0.07348633,-1.1553345,0.097595215,-11.96875,29.046875,-15.859375
235,235,1727973853801,1.0241699,-2.0,0.121032715,-0.515625,9.1875,15.25
236,236,1727973853841,-0.18774414,-0.7883911,0.1774292,20.9375,0.046875,16.921875
237,237,1727973853881,-0.42260742,-0.6421509,0.19354248,-1.125,25.78125,3.09375
238,238,1727973853921,-0.078125,-0.5120239,-0.027648926,-0.703125,21.21875,5.3125
239,239,1727973853961,-0.04711914,-0.37042236,-0.08673096,3.9375,9.765625,4.25
240,240,1727973854001,0.1394043,-0.46783447,-0.11993408,3.703125,12.140625,7.265625
241,241,1727973854041,0.16455078,0.03289795,-0.078430176,21.765625,19.765625,18.828125
242,242,1727973854081,-0.15161133,0.14031982,0.05609131,30.375,25.578125,27.421875
243,243,1727973854121,-0.27368164,-0.11993408,-0.17510986,0.0,-5.140625,9.734375
244,244,1727973854161,0.09301758,-1.0159302,0.26312256,7.9375,14.1875,-17.296875
245,245,1727973854201,1.237793,-2.0,-0.5444946,-20.515625,-40.203125,-17.8125
246,246,1727973854241,1.137207,-2.0,0.2675171,-17.25,-14.203125,27.078125
247,247,1727973854281,-0.8137207,-1.7688599,0.16571045,28.78125,-13.671875,-14.234375
248,248,1727973854321,0.8383789,-1.4661255,0.035827637,6.28125,-20.59375,-32.140625
249,249,1727973854361,0.3930664,-1.0293579,-0.020080566,36.234375,-12.765625,-3.703125
250,250,1727973854401,-0.1159668,-0.7678833,-0.035217285,0.03125,-15.4375,-9.46875
251,251,1727973854441,-0.12524414,-0.51934814,0.1083374,-0.28125,-2.1875,-12.6875
252,252,1727973854481,-0.13891602,-0.30670166,-0.002746582,-11.296875,8.109375,-15.90625
253,253,1727973854521,0.026855469,-0.21636963,0.044128418,-18.8125,0.65625,-18.96875
254,254,1727973854561,-0.049072266,-0.3633423,0.18182373,-15.015625,10.453125,-16.546875
255,255,1727973854601,0.049804688,-0.4492798,0.14959717,-25.578125,2.140625,-15.84375
256,256,1727973854641,0.029052734,-0.6387329,-0.097717285,-26.390625,-24.078125,0.921875
257,257,1727973854681,0.56469727,-1.1113892,-0.40802002,-2.765625,-16.953125,9.390625
258,258,1727973854721,0.41796875,-1.866272,0.015319824,2.59375,-70.109375,30.0625
259,259,1727973854761,-0.61035156,-2.0,0.18597412,17.671875,-34.46875,3.09375
260,260,1727973854801,-0.501709,-2.0,0.5360718,3.8125,13.078125,3.859375
261,261,1727973854841,0.4650879,-1.4087524,0.0680542,2.359375,19.6875,-4.53125
262,262,1727973854881,-0.00048828125,-1.2793579,0.051696777,9.46875,10.765625,7.890625
263,263,1727973854921,-0.21142578,-0.83843994,0.19915771,14.46875,11.140625,-1.90625
264,264,1727973854961,-0.05908203,-0.5713501,0.086120605,-0.1875,28.015625,4.0
265,265,1727973855001,0.08154297,-0.41900635,0.11175537,-5.703125,21.453125,11.15625
266,266,1727973855041,-0.114990234,-0.2649536,0.07366943,-15.921875,7.390625,12.71875
267,267,1727973855081,-0.23242188,-0.23345947,0.0289917,-15.234375,-6.21875,6.578125
268,268,1727973855121,0.032226562,-0.16021729,-0.20611572,-0.28125,19.09375,6.234375
269,269,1727973855161,0.22485352,0.10247803,0.0079956055,15.9375,10.921875,27.71875
270,270,1727973855201,0.04248047,0.07171631,-0.5742798,-5.34375,-46.625,19.171875
271,271,1727973855241,0.49853516,-1.1253052,-0.08428955,-12.890625,17.078125,-14.953125
272,272,1727973855281,1.2380371,-2.0,0.9215698,53.234375,42.0625,18.796875
273,273,1727973855321,0.25634766,-1.2891235,-0.12017822,5.375,10.0625,2.40625
274,274,1727973855361,-0.2607422,-2.0,0.19647217,14.6875,-2.203125,4.34375
275,275,1727973855401,0.7783203,-1.6907349,0.34173584,8.71875,-28.6875,-22.828125
276,276,1727973855441,0.28833008,-1.3521118,0.18695068,7.5625,-18.5625,2.40625
277,277,1727973855481,-0.2409668,-0.9902954,0.09661865,17.3125,-18.65625,-3.984375
278,278,1727973855521,-0.09057617,-0.67681885,0.15325928,5.625,-11.828125,-22.109375
279,279,1727973855561,-0.15429688,-0.45269775,0.15863037,-25.875,2.375,-12.453125
280,280,1727973855601,-0.27441406,-0.15167236,0.20013428,-20.984375,28.4375,-12.578125
281,281,1727973855641,-0.28149414,0.16986084,-0.057678223,-18.046875,44.421875,-11.359375
282,282,1727973855681,0.10571289,-0.06842041,-0.39141846,-7.203125,6.75,-0.625
283,283,1727973855721,1.0212402,-0.8574829,-0.5671997,-38.96875,-47.34375,9.90625
284,284,1727973855761,0.45654297,-2.0,0.24310303,32.0,-27.03125,18.671875
285,285,1727973855801,-0.8051758,-1.2984009,0.35980225,-22.1875,-17.46875,-14.171875
286,286,1727973855841,0.39526367,-1.7468872,0.32489014,-15.546875,48.90625,4.859375
287,287,1727973855881,0.67163086,-1.522522,-0.1453247,12.265625,-5.65625,14.5
288,288,1727973855921,-0.08227539,-1.5484009,0.4467163,24.328125,1.515625,9.1875
289,289,1727973855961,-0.12988281,-1.0137329,0.33636475,3.296875,14.484375,21.765625
290,290,1727973856001,-0.020507812,-0.89312744,0.038024902,4.015625,13.453125,3.828125
291,291,1727973856041,0.32836914,-0.7102661,-0.128479,9.5,-4.0,15.59375
292,292,1727973856081,0.016601562,-0.49420166,0.3258667,14.859375,-1.609375,5.578125
293,293,1727973856121,-0.30981445,-0.26739502,0.20526123,-4.21875,3.59375,4.734375
294,294,1727973856161,-0.24658203,0.17108154,-0.23492432,-2.359375,-17.53125,0.5
295,295,1727973856201,0.064453125,0.08758545,-0.1326294,16.359375,5.671875,-2.6875
296,296,1727973856241,0.19018555,-0.33062744,-0.5215454,-11.546875,-49.15625,-2.421875
297,297,1727973856281,0.4892578,-1.4255981,0.6144409,-9.90625,62.25,-28.171875
298,298,1727973856321,1.0339355,-2.0,0.10028076,-21.359375,1.515625,6.34375
299,299,1727973856361,-0.11669922,-1.4341431,-0.22320557,27.03125,-1.28125,5.984375
300,300,1727973856401,-0.19580078,-1.4834595,-0.055236816,-10.375,12.265625,-21.9375
301,301,1727973856441,0.40112305,-1.772522,0.137146,-17.21875,12.296875,-16.65625
302,302,1727973856481,0.19726562,-1.3635864,0.19451904,-2.09375,10.15625,-0.421875
303,303,1727973856521,0.17285156,-1.0977173,0.25823975,-2.34375,-7.125,-3.46875
304,304,1727973856561,0.033935547,-0.9168091,0.14813232,13.078125,-9.09375,-4.15625
305,305,1727973856601,-0.017578125,-0.63116455,0.06414795,2.96875,-7.578125,-4.40625
306,306,1727973856641,0.057373047,-0.4668579,0.11004639,-0.671875,1.0625,-3.109375
307,307,1727973856681,-0.04663086,-0.362854,0.19012451,-3.375,7.6875,-6.0625
308,308,1727973856721,-0.09277344,-0.17755127,0.2177124,-13.25,5.53125,-5.484375
309,309,1727973856761,-0.17822266,-0.19830322,-0.2522583,-9.984375,7.171875,2.921875
310,310,1727973856801,0.3720703,-0.6104126,-0.7007446,-33.484375,-20.78125,7.796875
311,311,1727973856841,0.6567383,-1.548645,-0.19244385,-25.203125,-35.34375,25.5625
312,312,1727973856881,-0.2524414,-1.3899536,0.4928589,0.84375,-13.8125,-4.125
313,313,1727973856921,0.013916016,-1.9602661,0.4069214,12.0625,43.90625,20.421875
314,314,1727973856961,0.390625,-1.7485962,-0.05279541,9.046875,7.4375,-0.453125
315,315,1727973857001,0.040039062,-1.7427368,0.28167725,13.578125,0.828125,5.375
316,316,1727973857041,-0.03149414,-1.3994751,0.36761475,29.28125,4.984375,17.5625
317,317,1727973857081,-0.083984375,-0.90582275,0.09588623,15.90625,20.96875,8.6875
318,318,1727973857121,0.02758789,-0.6831665,0.070007324,11.203125,18.5625,7.0
319,319,1727973857161,0.115722656,-0.4368286,0.05218506,10.96875,10.296875,19.46875
320,320,1727973857201,0.067871094,-0.113342285,0.042419434,4.171875,-6.078125,14.75
321,321,1727973857241,-0.17578125,-0.13555908,0.20281982,-12.078125,12.578125,4.109375
322,322,1727973857281,-0.41503906,-0.16900635,-0.25421143,-38.078125,-21.65625,-0.171875
323,323,1727973857321,0.23242188,-0.2522583,-0.487854,-8.34375,-29.796875,-5.484375
324,324,1727973857361,0.17456055,-1.2310181,0.5072632,14.96875,17.328125,-15.40625
325,325,1727973857401,0.73217773,-1.8049927,-0.17388916,-16.375,-36.640625,-16.203125
326,326,1727973857441,0.6442871,-1.6253052,-0.45318604,27.234375,-10.125,6.9375
327,327,1727973857481,0.3408203,-1.6748657,0.086120605,-15.5,-20.578125,-23.84375
328,328,1727973857521,0.05102539,-1.6651001,0.090270996,17.390625,-23.953125,-3.515625
329,329,1727973857561,-0.17236328,-1.3899536,0.0033569336,-3.03125,4.640625,-7.484375
330,330,1727973857601,0.04638672,-1.1690063,0.14056396,-5.375,6.390625,-13.765625
331,331,1727973857641,-0.013671875,-0.81915283,0.14984131,0.0,9.03125,-7.15625
332,332,1727973857681,-0.115722656,-0.4307251,0.1281128,1.203125,11.3125,-2.28125
333,333,1727973857721,-0.053955078,-0.30377197,0.11004639,6.171875,11.59375,0.09375
334,334,1727973857761,-0.028564453,-0.33233643,0.054382324,-3.65625,7.265625,-5.1875
335,335,1727973857801,0.0036621094,-0.3501587,0.05218506,-4.625,12.515625,-12.953125
336,336,1727973857841,-0.07543945,-0.44049072,0.1708374,-7.65625,15.96875,-11.421875
337,337,1727973857881,0.13916016,-0.61798096,-0.04473877,-40.234375,-3.578125,-2.46875
338,338,1727973857921,0.8352051,-1.4104614,-0.7678833,-5.265625,-10.953125,36.46875
339,339,1727973857961,-0.2783203,-2.0,0.19232178,18.59375,8.578125,-11.90625
340,340,1727973858001,-0.08618164,-1.4673462,0.34124756,4.984375,29.21875,-3.046875
341,341,1727973858041,0.61816406,-1.9004517,-0.13922119,0.890625,47.6875,13.921875
342,342,1727973858081,0.13842773,-1.3306274,0.12982178,25.609375,16.921875,17.859375
343,343,1727973858121,-0.29907227,-1.2993774,0.17352295,5.890625,34.71875,-0.59375
344,344,1727973858161,0.12109375,-0.9546509,0.022644043,9.671875,36.078125,5.921875
345,345,1727973858201,0.22216797,-0.41729736,0.010925293,5.9375,27.078125,7.53125
346,346,1727973858241,0.026611328,-0.35601807,0.08734131,-1.59375,9.140625,5.109375
347,347,1727973858281,-0.203125,-0.25128174,0.03265381,-6.765625,1.71875,-4.921875
348,348,1727973858321,-0.072509766,-0.15118408,-0.11798096,-4.515625,-0.828125,0.65625
349,349,1727973858361,0.28735352,-0.06060791,-0.042053223,10.953125,-7.5,10.609375
350,350,1727973858401,-0.08886719,0.12298584,0.18939209,21.515625,-5.8125,14.1875
351,351,1727973858441,-0.36865234,0.086120605,-0.13336182,4.6875,-4.453125,5.078125
352,352,1727973858481,0.23950195,-0.9807739,0.5543823,-2.453125,-34.796875,-14.546875
353,353,1727973858521,0.34838867,-2.0,1.0233765,-6.59375,4.9375,-28.71875
354,354,1727973858561,0.98535156,-1.3555298,-0.013244629,-16.265625,-22.765625,1.109375
355,355,1727973858601,-0.46777344,-2.0,0.3163452,44.59375,-43.921875,-5.015625
356,356,1727973858641,0.25561523,-1.5718384,0.089782715,-5.34375,-0.375,-17.6875
357,357,1727973858681,0.15966797,-1.2605591,0.04510498,6.671875,-12.828125,-12.234375
358,358,1727973858721,0.049316406,-0.7930298,0.08343506,-12.421875,3.328125,-6.4375
359,359,1727973858761,-0.03857422,-0.49127197,0.20379639,-14.90625,-2.21875,-13.296875
360,360,1727973858801,-0.01953125,-0.3587036,0.28729248,-11.15625,-5.515625,-20.953125
361,361,1727973858841,-0.15917969,-0.32330322,0.046325684,-9.609375,-31.109375,-18.046875
362,362,1727973858881,0.17651367,-0.39630127,0.11224365,-28.640625,-27.421875,-15.046875
363,363,1727973858921,-0.024658203,-0.33892822,-0.049621582,-16.28125,-1.453125,-7.78125
364,364,1727973858961,-0.063964844,-0.0881958,-0.08502197,8.15625,-5.78125,0.0
365,365,1727973859001,0.49023438,-1.1170044,-0.20880127,-30.75,-17.0625,14.265625
366,366,1727973859041,0.6171875,-2.0,-0.96221924,25.59375,-55.546875,38.1875
367,367,1727973859081,-0.7080078,-2.0,0.99017334,44.90625,21.21875,9.46875
368,368,1727973859121,0.24072266,-1.9802856,0.56536865,-21.9375,23.078125,-0.578125
369,369,1727973859161,0.5415039,-1.5733032,-0.32061768,13.125,18.640625,27.296875
370,370,1727973859201,0.07910156,-1.1919556,-0.0044555664,23.0625,8.671875,16.140625
371,371,1727973859241,-0.1081543,-0.8796997,0.18670654,21.65625,24.484375,7.515625
372,372,1727973859281,-0.15625,-0.5039673,0.10760498,8.875,41.828125,22.359375
373,373,1727973859321,0.03466797,-0.19854736,0.09442139,2.375,4.09375,28.546875
374,374,1727973859361,0.04638672,-0.1819458,0.17840576,-9.75,3.765625,17.859375
375,375,1727973859401,-0.046875,-0.36016846,0.14984131,-21.671875,-3.671875,4.390625
376,376,1727973859441,-0.03491211,-0.45880127,-0.009094238,-15.90625,-15.109375,-1.140625
377,377,1727973859481,0.16918945,-0.7515259,-0.33502197,-11.640625,-25.25,-0.03125
378,378,1727973859521,0.25805664,-0.7720337,-0.35430908,13.421875,-0.34375,5.078125
379,379,1727973859561,0.7741699,-1.4710083,-0.007873535,-12.578125,-49.296875,-13.0
380,380,1727973859601,0.15771484,-1.8364868,-0.25250244,1.71875,-14.546875,0.03125
381,381,1727973859641,0.22290039,-1.383606,0.005065918,-14.03125,-7.90625,-20.5625
382,382,1727973859681,0.3684082,-1.5947876,0.20281982,11.0625,-20.390625,-7.375
383,383,1727973859721,0.057128906,-1.5591431,0.10003662,2.78125,-10.28125,-2.921875
384,384,1727973859761,0.10473633,-1.286438,0.20379639,7.671875,-0.5625,-8.765625
385,385,1727973859801,-0.041259766,-0.8545532,0.15985107,12.265625,10.734375,-3.71875
386,386,1727973859841,-0.16918945,-0.50738525,0.13909912,16.65625,28.203125,2.34375
387,387,1727973859881,-0.008544922,-0.3821411,0.07611084,3.59375,20.71875,-2.40625
388,388,1727973859921,0.12109375,-0.534729,0.17694092,-5.359375,14.53125,-3.953125
389,389,1727973859961,-0.029296875,-0.47662354,0.0993042,-15.578125,19.109375,-10.84375
390,390,1727973860001,-0.16186523,-0.48614502,0.08123779,-19.890625,13.46875,-13.8125
391,391,1727973860041,0.021728516,-0.6658325,0.024353027,-10.1875,20.46875,-8.515625
392,392,1727973860081,0.09301758,-0.87579346,-0.25909424,-55.21875,11.375,-2.0
393,393,1727973860121,0.5683594,-1.4624634,-0.6428833,-8.984375,2.453125,29.0625
394,394,1727973860161,0.43164062,-2.0,0.15423584,27.109375,-18.484375,-13.171875
395,395,1727973860201,-0.15551758,-1.4085083,0.05267334,30.390625,21.3125,14.421875
396,396,1727973860241,0.04296875,-1.4685669,-0.061340332,3.953125,42.984375,12.8125
397,397,1727973860281,0.24975586,-1.203186,-0.061584473,14.671875,13.015625,7.84375
398,398,1727973860321,0.10620117,-1.2620239,0.007751465,16.609375,20.953125,9.296875
399,399,1727973860361,0.05493164,-0.9368286,0.066589355,5.078125,14.953125,9.609375
400,400,1727973860401,0.28588867,-0.6917114,-0.026916504,-8.5625,-3.0625,9.6875
401,401,1727973860441,0.24145508,-0.5615845,0.036071777,4.859375,-13.53125,5.40625
402,402,1727973860481,-0.31518555,-0.23638916,0.008972168,-6.21875,-12.109375,-5.453125
403,403,1727973860521,-0.029785156,0.16156006,-0.15142822,-14.59375,-0.390625,-7.703125
404,404,1727973860561,0.5136719,0.4928589,-0.0095825195,2.984375,-30.171875,7.90625
405,405,1727973860601,-0.5913086,-0.36798096,-0.46783447,-24.59375,-76.84375,6.703125
406,406,1727973860641,-0.5317383,-1.2651978,0.02166748,14.84375,-40.4375,-29.203125
407,407,1727973860681,1.999939,-2.0,0.8534546,-22.484375,-2.625,7.484375
408,408,1727973860721,-0.12133789,-2.0,-0.3435669,-18.46875,-9.9375,-4.25
409,409,1727973860761,-0.11694336,-1.6660767,0.13934326,34.171875,-57.203125,-19.703125
410,410,1727973860801,0.14013672,-0.97906494,0.28582764,-12.140625,11.40625,-28.046875
411,411,1727973860841,-0.05810547,-0.61383057,-0.006652832,-2.109375,-2.5625,0.546875
412,412,1727973860881,0.007080078,-0.28668213,-0.065979004,3.84375,17.625,-3.75
413,413,1727973860921,-0.075683594,-0.17193604,0.16033936,7.21875,8.296875,-12.484375
414,414,1727973860961,-0.12060547,-0.26739502,0.25726318,-1.34375,6.3125,-22.09375
415,415,1727973861001,-0.056152344,-0.20806885,0.109802246,-9.90625,12.625,-9.078125
416,416,1727973861041,0.14526367,-0.15289307,-0.11846924,-9.640625,11.609375,2.375
417,417,1727973861081,-0.016357422,-0.41412354,0.012390137,6.109375,-2.546875,0.9375
418,418,1727973861121,-0.061523438,-1.093811,-0.14678955,-13.484375,-29.265625,-3.046875
419,419,1727973861161,0.81518555,-2.0,-0.7366333,-17.546875,-11.765625,12.453125
420,420,1727973861201,-0.3659668,-2.0,0.10418701,21.515625,2.515625,21.140625
421,421,1727973861241,-0.45483398,-2.0,0.41033936,-3.5625,16.515625,-5.671875
422,422,1727973861281,0.6291504,-1.9182739,0.14837646,-3.078125,36.046875,12.890625
423,423,1727973861321,-0.27172852,-1.3892212,0.06829834,7.625,19.140625,10.3125
424,424,1727973861361,-0.31347656,-1.1021118,0.20062256,7.171875,42.78125,-2.6875
425,425,1727973861401,-0.055908203,-0.76934814,0.020690918,-2.90625,53.75,5.71875
426,426,1727973861441,0.1472168,-0.32989502,-0.14776611,3.875,49.46875,20.328125
427,427,1727973861481,0.12792969,-0.094055176,-0.23760986,13.640625,37.046875,28.5
428,428,1727973861521,0.20458984,-0.40655518,-0.022766113,13.890625,25.9375,18.4375
429,429,1727973861561,0.09277344,-0.3789673,0.09979248,3.40625,-1.5625,12.8125
430,430,1727973861601,-0.14135742,-0.30499268,-0.06890869,-12.640625,-30.515625,3.296875
431,431,1727973861641,0.0021972656,-0.3694458,-0.022521973,-7.375,-16.578125,2.25
432,432,1727973861681,0.095947266,-0.19024658,0.062927246,-0.296875,-5.328125,1.703125
433,433,1727973861721,-0.22094727,-0.57110596,-0.11798096,29.09375,-18.390625,-3.796875
434,434,1727973861761,-0.103271484,-2.0,-0.79034424,-13.21875,-37.453125,-15.84375
435,435,1727973861801,1.6499023,-2.0,0.15618896,-19.0625,13.40625,15.234375
436,436,1727973861841,-0.39501953,-1.833313,-0.38531494,10.890625,-31.234375,9.890625
437,437,1727973861881,0.025634766,-1.8809204,0.31048584,2.65625,-30.9375,-28.296875
438,438,1727973861921,0.3791504,-1.342102,0.10272217,2.421875,-18.65625,-15.21875
439,439,1727973861961,-0.025390625,-1.1272583,0.094177246,-7.1875,-28.65625,-15.15625
440,440,1727973862001,-0.04638672,-0.71466064,0.16278076,-7.921875,-11.390625,-16.296875
441,441,1727973862041,-0.08886719,-0.40118408,0.09881592,-4.421875,-11.59375,-11.125
442,442,1727973862081,-0.05126953,-0.31011963,0.030456543,-9.125,-10.171875,-14.0
443,443,1727973862121,-0.061035156,-0.30133057,0.051940918,-8.640625,-6.28125,-8.71875
444,444,1727973862161,-0.018066406,-0.29937744,0.1149292,-13.28125,-1.828125,-12.078125
445,445,1727973862201,0.029541016,-0.28814697,0.18060303,-20.5,-12.609375,-11.625
446,446,1727973862241,0.0390625,-0.5371704,-0.024963379,-7.28125,-14.8125,-0.078125
447,447,1727973862281,0.28198242,-0.9956665,0.040222168,-17.140625,-11.640625,9.1875
448,448,1727973862321,0.63964844,-1.5935669,-0.57769775,10.328125,-37.75,16.828125
449,449,1727973862361,-0.8334961,-2.0,0.2662964,45.03125,-18.4375,-3.984375
450,450,1727973862401,-0.5595703,-2.0,0.5673218,19.359375,12.125,-3.75
451,451,1727973862441,0.2536621,-1.8440552,0.21282959,-11.984375,31.546875,4.796875
452,452,1727973862481,0.037353516,-1.256897,-0.04498291,2.875,9.78125,12.921875
453,453,1727973862521,-0.08569336,-0.81378174,0.10345459,26.46875,13.375,13.078125
454,454,1727973862561,0.0014648438,-0.5388794,0.06536865,4.84375,9.140625,11.953125
455,455,1727973862601,-0.06274414,-0.41583252,-0.03668213,7.609375,0.109375,16.859375
456,456,1727973862641,-0.05053711,-0.3591919,0.10321045,13.71875,11.640625,12.9375
457,457,1727973862681,-0.055908203,-0.49273682,0.18450928,-2.296875,-1.359375,8.25
458,458,1727973862721,-0.12939453,-0.6526489,0.19256592,-13.0,-8.734375,7.53125
459,459,1727973862761,-0.111083984,-0.85772705,0.16156006,-19.640625,1.046875,7.5
460,460,1727973862801,-0.048095703,-0.8633423,0.17279053,-42.1875,1.625,4.65625
461,461,1727973862841,0.0146484375,-1.2630005,-0.4812622,-18.96875,-3.65625,-6.75
462,462,1727973862881,0.7468262,-1.2310181,0.15960693,-14.8125,-9.734375,-3.34375
463,463,1727973862921,0.6225586,-1.9661255,-0.19732666,-1.078125,-17.40625,8.265625
464,464,1727973862961,-0.076171875,-1.6199341,0.19256592,4.421875,3.75,-6.703125
465,465,1727973863001,0.079589844,-1.5039673,0.061462402,10.421875,4.53125,-8.171875
466,466,1727973863041,-0.0871582,-1.1626587,0.105407715,3.6875,25.171875,-0.90625
467,467,1727973863081,-0.061035156,-0.8098755,0.10443115,10.203125,32.4375,-5.28125
468,468,1727973863121,0.041259766,-0.50323486,0.08270264,14.28125,31.328125,2.671875
469,469,1727973863161,0.030517578,-0.27764893,0.1239624,4.453125,23.390625,3.546875
470,470,1727973863201,0.033691406,-0.4085083,0.11932373,0.5,10.65625,-1.796875
471,471,1727973863241,0.045898438,-0.66534424,0.14544678,-6.578125,10.8125,-8.46875
472,472,1727973863281,0.063964844,-0.8381958,0.26068115,-7.84375,9.296875,-10.25
473,473,1727973863321,0.018554688,-1.0559692,0.31170654,-8.140625,0.4375,-12.09375
474,474,1727973863361,-0.12133789,-1.0628052,0.30194092,-6.125,2.9375,-12.75
475,475,1727973863401,-0.08154297,-1.1306763,-0.1572876,-15.0,19.859375,-9.65625
476,476,1727973863441,0.24511719,-1.0581665,-0.6506958,-27.5,26.078125,14.9375
477,477,1727973863481,0.33251953,-1.6277466,-0.22711182,9.796875,-1.203125,24.296875
478,478,1727973863521,0.37451172,-1.7512817,0.15863037,-2.34375,-19.09375,2.515625
479,479,1727973863561,0.2788086,-1.4641724,-0.033996582,17.484375,29.515625,19.515625
480,480,1727973863601,0.12011719,-1.1018677,-0.015686035,25.109375,-1.0,10.546875
481,481,1727973863641,0.19262695,-0.91119385,0.15350342,21.28125,-9.109375,6.96875
482,482,1727973863681,0.19848633,-0.67388916,0.004333496,25.078125,-17.125,21.484375
483,483,1727973863721,0.024414062,-0.5239868,-0.09576416,10.671875,-38.796875,8.25
484,484,1727973863761,-0.01928711,-0.49957275,0.035827637,9.09375,-27.671875,5.21875
485,485,1727973863801,-0.24584961,-0.48150635,0.0018920898,-11.28125,-41.625,0.78125
486,486,1727973863841,-0.1303711,-0.6148071,0.16741943,-3.65625,-23.8125,-2.421875
487,487,1727973863881,0.04663086,-1.0825806,-0.022277832,-22.515625,-30.015625,-8.28125
488,488,1727973863921,0.34814453,-0.89971924,-0.024230957,-14.71875,-8.609375,-1.09375
489,489,1727973863961,0.37182617,0.11639404,-0.08453369,24.84375,-8.71875,12.8125
490,490,1727973864001,-0.7001953,0.57611084,-0.14434814,15.765625,-38.1875,26.4375
491,491,1727973864041,-0.22827148,-0.14752197,-0.394104,-7.65625,-46.875,-35.0625
492,492,1727973864081,0.9733887,-1.7405396,0.92645264,-13.453125,31.65625,-20.515625
493,493,1727973864121,1.2331543,-2.0,0.44696045,-6.296875,25.078125,38.625
494,494,1727973864161,-0.28466797,-2.0,-0.49395752,-18.984375,0.078125,-9.375
495,495,1727973864201,-0.13354492,-1.413147,0.21624756,32.4375,-1.8125,-37.046875
496,496,1727973864241,0.42236328,-1.6541138,0.16448975,-27.921875,13.359375,-21.640625
497,497,1727973864281,0.107910156,-1.2153931,0.014099121,15.890625,26.921875,-5.6875
498,498,1727973864321,-0.051757812,-0.6231079,0.113220215,8.1875,18.484375,-6.609375
499,499,1727973864361,-0.033447266,-0.46246338,0.14129639,1.9375,16.25,-6.3125
500,500,1727973864401,0.0073242188,-0.269104,0.113708496,-1.046875,18.8125,-7.375
501,501,1727973864441,0.043701172,-0.22662354,0.090026855,0.21875,16.0625,-7.015625
502,502,1727973864481,-0.03100586,-0.23199463,0.004333496,-3.3125,14.75,-0.28125
503,503,1727973864521,0.17504883,-0.28131104,-0.028625488,-3.671875,16.046875,-5.515625
504,504,1727973864561,0.33422852,-0.28814697,-0.17486572,8.078125,-5.5,8.6875
505,505,1727973864601,0.42089844,-0.9019165,-0.3731079,-11.09375,-36.34375,16.84375
506,506,1727973864641,0.8544922,-2.0,-0.24176025,-2.96875,-79.640625,6.90625
507,507,1727973864681,-1.0708008,-2.0,1.1654663,41.421875,34.15625,16.015625
508,508,1727973864721,-0.60546875,-1.5496216,0.008483887,-25.9375,71.234375,-12.296875
509,509,1727973864761,0.51586914,-1.828186,-0.21392822,-17.578125,61.734375,-5.484375
510,510,1727973864801,0.10888672,-1.0632935,0.051696777,16.515625,53.046875,6.171875
511,511,1727973864841,-0.009765625,-0.569397,0.0053100586,5.484375,36.265625,10.53125
512,512,1727973864881,-0.052001953,-0.55670166,0.13104248,-17.078125,31.125,6.0
513,513,1727973864921,-0.095214844,-0.25445557,-0.024963379,-39.859375,19.203125,2.25
514,514,1727973864961,-0.017578125,0.06488037,-0.3093872,-15.546875,11.25,10.828125
515,515,1727973865001,0.2980957,0.27972412,-0.2197876,18.734375,4.625,12.671875
516,516,1727973865041,0.049804688,0.026306152,0.14544678,11.96875,11.171875,13.46875
517,517,1727973865081,-0.064941406,-0.25958252,-0.72247314,-5.53125,-65.203125,-3.5625
518,518,1727973865121,0.41333008,-1.7268677,0.32025146,2.703125,38.421875,-15.0
519,519,1727973865161,1.6787109,-2.0,0.79852295,-29.5,21.78125,63.015625
520,520,1727973865201,-0.53686523,-2.0,0.61761475,6.59375,26.703125,-0.671875
521,521,1727973865241,-0.19604492,-1.3601685,0.04168701,-2.515625,-35.640625,-34.265625
522,522,1727973865281,1.1765137,-1.9363403,0.3529663,1.640625,-14.203125,-26.171875
523,523,1727973865321,0.20483398,-1.008606,0.37908936,9.765625,-10.3125,1.9375
524,524,1727973865361,-0.0017089844,-0.65338135,0.13885498,14.25,-33.515625,-8.328125
525,525,1727973865401,0.07104492,-0.38311768,0.04827881,9.6875,-27.140625,-11.125
526,526,1727973865441,-0.0793457,-0.24908447,0.11541748,-5.578125,-24.46875,-9.203125
527,527,1727973865481,-0.29125977,-0.046936035,0.1437378,-23.453125,-15.15625,-18.390625
528,528,1727973865521,-0.041015625,-0.12750244,-0.015930176,-18.359375,-4.8125,-14.65625
529,529,1727973865561,0.22290039,-0.17779541,0.081970215,-2.890625,-7.203125,-16.828125
530,530,1727973865601,0.0053710938,-0.51226807,-0.12237549,-1.8125,-34.921875,-3.84375
531,531,1727973865641,0.37768555,-1.3916626,0.13323975,-24.046875,-15.671875,-11.5
532,532,1727973865681,0.8364258,-2.0,-0.9038696,3.5625,-68.6875,57.046875
533,533,1727973865721,-1.0727539,-2.0,0.8788452,60.65625,-3.796875,-6.640625
534,534,1727973865761,-0.1550293,-2.0,0.45819092,0.4375,44.609375,19.546875
535,535,1727973865801,0.55371094,-1.7644653,0.034606934,-10.46875,35.703125,0.921875
536,536,1727973865841,0.1550293,-1.3911743,0.116882324,25.109375,17.046875,8.75
537,537,1727973865881,0.15405273,-0.77301025,0.11273193,17.859375,14.671875,5.90625
538,538,1727973865921,0.18432617,-0.36480713,0.0060424805,12.265625,6.140625,12.046875
539,539,1727973865961,-0.037109375,-0.32305908,0.06072998,12.90625,13.265625,14.4375
540,540,1727973866001,-0.21557617,-0.30255127,0.18011475,1.46875,-7.625,7.125
541,541,1727973866041,-0.3088379,-0.12164307,0.023620605,-11.890625,-18.578125,-1.125
542,542,1727973866081,-0.17700195,-0.013244629,-0.23858643,2.546875,-2.46875,4.734375
543,543,1727973866121,0.25585938,-0.22174072,-0.33111572,-11.140625,-28.09375,10.046875
544,544,1727973866161,0.3137207,-1.0899048,0.21673584,-34.109375,28.15625,-18.375
545,545,1727973866201,1.0905762,-2.0,0.0018920898,-46.671875,-20.734375,-8.28125
546,546,1727973866241,0.25683594,-1.5095825,-0.041809082,26.5625,-8.671875,17.25
547,547,1727973866281,-0.25976562,-1.8816528,0.04559326,17.296875,-27.140625,-21.5625
548,548,1727973866321,0.48120117,-1.8357544,0.14959717,-5.125,-12.1875,-18.046875
549,549,1727973866361,0.23461914,-1.3589478,-0.32843018,-10.3125,-36.234375,0.6875
550,550,1727973866401,-0.009277344,-0.8845825,0.025817871,-8.5625,-25.265625,-3.46875
551,551,1727973866441,-0.10571289,-0.5862427,0.19598389,-1.96875,-13.21875,-6.515625
552,552,1727973866481,-0.0068359375,-0.37994385,0.1696167,5.6875,-8.03125,-2.5625
553,553,1727973866521,0.056152344,-0.38775635,0.14593506,8.65625,-8.484375,-2.078125
554,554,1727973866561,-0.06298828,-0.34576416,0.10491943,1.84375,-8.171875,-3.625
555,555,1727973866601,-0.115478516,-0.31915283,0.05731201,-6.0625,-1.265625,-4.78125
556,556,1727973866641,-0.08666992,-0.3435669,0.07098389,-17.203125,2.125,-7.203125
557,557,1727973866681,0.15283203,-0.4607544,-0.3567505,-15.265625,-23.75,-8.78125
558,558,1727973866721,0.6374512,-1.2564087,-0.60235596,-16.625,-29.625,3.96875
559,559,1727973866761,0.18261719,-2.0,-0.02178955,13.03125,-12.640625,13.703125
560,560,1727973866801,-0.61279297,-1.4224243,0.33953857,8.234375,-3.484375,0.375
561,561,1727973866841,0.15063477,-1.8342896,-0.11260986,-5.796875,36.4375,-0.921875
562,562,1727973866881,0.25708008,-1.4436646,-0.08721924,8.765625,16.484375,8.375
563,563,1727973866921,-0.008300781,-1.2512817,0.1708374,3.140625,11.390625,6.484375
564,564,1727973866961,0.08886719,-0.9151001,0.1293335,6.28125,9.8125,15.171875
565,565,1727973867001,0.10107422,-0.6397095,0.054138184,5.8125,9.5625,10.3125
566,566,1727973867041,-0.048828125,-0.52838135,0.09979248,10.359375,11.25,9.578125
567,567,1727973867081,-0.10546875,-0.425354,0.1593628,0.296875,8.59375,5.796875
568,568,1727973867121,-0.1496582,-0.3538208,0.10443115,-12.03125,1.828125,8.21875
569,569,1727973867161,-0.057861328,-0.2456665,-0.010070801,-13.453125,-13.515625,2.96875
570,570,1727973867201,0.107177734,-0.19342041,-0.054504395,-10.9375,-3.171875,-1.65625
571,571,1727973867241,0.17700195,-0.15216064,-0.2185669,-13.421875,-15.046875,-0.109375
572,572,1727973867281,-0.34960938,-1.3362427,0.12860107,-13.703125,57.59375,-6.8125
573,573,1727973867321,1.1416016,-2.0,0.09466553,-29.015625,-11.71875,-43.125
574,574,1727973867361,0.3713379,-1.5784302,-0.1560669,10.90625,-5.046875,21.359375
575,575,1727973867401,-0.6208496,-1.7515259,0.17401123,13.171875,-14.96875,-8.734375
576,576,1727973867441,0.11254883,-1.6487427,0.16204834,-3.671875,12.46875,-20.671875
577,577,1727973867481,0.14135742,-1.0996704,0.04949951,3.28125,18.96875,-5.984375
578,578,1727973867521,-0.06665039,-0.598938,0.14764404,8.296875,16.25,-9.5
579,579,1727973867561,-0.09838867,-0.21514893,0.16473389,16.765625,29.71875,-2.140625
580,580,1727973867601,-0.053466797,-0.20318604,0.12786865,-0.328125,21.734375,-5.09375
581,581,1727973867641,-0.06542969,-0.27105713,0.1227417,-5.921875,14.40625,-15.5
582,582,1727973867681,-0.15307617,-0.16339111,0.21209717,-12.8125,26.90625,-15.09375
583,583,1727973867721,0.0061035156,-0.12310791,0.085632324,-17.328125,24.71875,-9.046875
584,584,1727973867761,0.12060547,-0.43585205,0.21722412,-16.015625,3.84375,-4.546875
585,585,1727973867801,0.047607422,-0.89630127,0.34661865,-13.4375,-10.75,-9.4375
586,586,1727973867841,0.005859375,-1.3215942,-0.85821533,-1.25,-28.5,11.390625
587,587,1727973867881,0.90356445,-2.0,-0.83599854,-30.234375,-13.515625,13.796875
588,588,1727973867921,-0.43432617,-1.6499634,0.6625366,88.015625,20.625,18.65625
589,589,1727973867961,-0.6730957,-2.0,0.37860107,18.3125,6.90625,10.734375
590,590,1727973868001,0.49609375,-1.8621216,0.08465576,-3.765625,37.59375,20.1875
591,591,1727973868041,0.29345703,-1.5027466,-0.02178955,17.171875,-1.390625,14.4375
592,592,1727973868081,-0.27294922,-1.1294556,0.15081787,18.046875,11.703125,12.421875
593,593,1727973868121,-0.009033203,-0.87457275,0.07293701,9.71875,25.359375,7.703125
594,594,1727973868161,0.28686523,-0.36798096,0.0099487305,16.125,21.609375,21.390625
595,595,1727973868201,-0.030273438,-0.21343994,0.25946045,1.46875,3.75,16.984375
596,596,1727973868241,-0.6398926,-0.32305908,-0.2420044,-25.03125,-30.078125,2.015625
597,597,1727973868281,-0.072021484,0.12786865,-0.14996338,-19.15625,0.875,-7.4375
598,598,1727973868321,-0.016357422,0.090026855,0.0079956055,-6.453125,22.03125,5.15625
599,599,1727973868361,0.09033203,-0.35894775,-1.1514282,-3.859375,-83.78125,-9.203125
600,600,1727973868401,0.8947754,-2.0,0.23504639,-66.9375,44.71875,-42.96875
601,601,1727973868441,0.98657227,-1.3049927,-0.38702393,-38.546875,35.296875,27.46875
602,602,1727973868481,0.08496094,-2.0,-0.20489502,-0.125,-34.8125,-3.296875
603,603,1727973868521,0.001953125,-1.5737915,0.37908936,16.265625,-47.125,-17.25
604,604,1727973868561,0.24682617,-1.4631958,-0.0044555664,25.515625,-27.328125,-6.515625
605,605,1727973868601,0.009033203,-1.203186,0.17669678,5.015625,-15.40625,-5.65625
606,606,1727973868641,-0.033203125,-0.94488525,0.18450928,4.265625,-5.3125,-4.109375
607,607,1727973868681,0.024658203,-0.519104,0.09320068,8.71875,8.09375,-0.375
608,608,1727973868721,0.1484375,-0.37213135,0.13885498,12.4375,-3.8125,0.9375
609,609,1727973868761,-0.09863281,-0.38653564,0.22235107,11.90625,-7.46875,3.171875
610,610,1727973868801,-0.15478516,-0.38165283,0.09515381,-0.03125,2.515625,-5.59375
611,611,1727973868841,-0.021240234,-0.3904419,0.08416748,-0.921875,3.140625,-9.265625
612,612,1727973868881,0.053710938,-0.503479,0.031921387,-8.78125,-16.21875,-8.53125
613,613,1727973868921,0.22924805,-1.1443481,-0.27252197,-51.78125,-26.421875,4.65625
614,614,1727973868961,0.3720703,-1.5315552,-0.06329346,17.65625,-23.125,22.234375
615,615,1727973869001,-0.37524414,-1.5037231,0.25994873,-15.390625,-10.484375,-4.84375
616,616,1727973869041,-0.3046875,-1.9309692,0.24871826,-15.265625,42.34375,-14.21875
617,617,1727973869081,0.28930664,-1.6655884,0.049987793,-1.484375,37.5625,7.78125
618,618,1727973869121,0.22924805,-1.2371216,0.28607178,4.140625,16.1875,6.625
619,619,1727973869161,0.005126953,-1.25177,0.26605225,8.78125,13.90625,12.34375
620,620,1727973869201,0.10644531,-0.7866821,0.1227417,8.671875,13.078125,13.46875
621,621,1727973869241,0.028320312,-0.5857544,0.14422607,8.46875,10.046875,9.734375
622,622,1727973869281,-0.10107422,-0.37799072,0.08026123,2.609375,7.046875,5.234375
623,623,1727973869321,-0.12963867,-0.23614502,0.11444092,-1.375,8.96875,7.1875
624,624,1727973869361,-0.0925293,-0.20318604,0.055358887,-12.421875,-0.34375,3.828125
625,625,1727973869401,0.02758789,-0.19439697,0.029968262,-18.90625,-12.9375,-4.40625
626,626,1727973869441,0.16357422,-0.41485596,-0.16558838,-23.578125,-17.40625,-5.859375
627,627,1727973869481,0.33862305,-1.2024536,-0.03326416,-16.546875,-27.765625,-19.03125
628,628,1727973869521,0.36987305,-2.0,0.059265137,12.046875,-15.8125,-1.21875
629,629,1727973869561,0.39453125,-1.5701294,-0.15802002,-1.3125,-2.65625,18.421875
630,630,1727973869601,-0.14575195,-1.5015259,0.20306396,14.390625,-19.9375,2.046875
631,631,1727973869641,0.087646484,-1.6819458,0.14105225,20.78125,-15.46875,-14.125
632,632,1727973869681,0.13598633,-1.5667114,0.066589355,1.25,4.96875,-9.328125
633,633,1727973869721,0.17163086,-1.3394165,0.2177124,-10.375,3.5,-7.734375
634,634,1727973869761,0.03540039,-0.91119385,0.13446045,-12.40625,-4.609375,-8.40625
635,635,1727973869801,-0.087890625,-0.5269165,0.19573975,9.046875,-4.828125,-7.125
636,636,1727973869841,-0.14770508,-0.30963135,0.06756592,3.515625,-2.6875,-2.671875
637,637,1727973869881,0.012451172,-0.3345337,0.10858154,-4.6875,-1.140625,-1.296875
638,638,1727973869921,-0.037353516,-0.33087158,0.121276855,-19.84375,-6.65625,-9.1875
639,639,1727973869961,-0.011962891,-0.4680786,0.1461792,-11.640625,-6.890625,-14.4375
640,640,1727973870001,-0.1171875,-0.4397583,0.13421631,-3.078125,2.125,-14.15625
641,641,1727973870041,0.13208008,-1.2805786,0.1552124,-55.265625,11.71875,11.59375
642,642,1727973870081,0.60180664,-2.0,-0.28424072,5.484375,-2.46875,40.421875
643,643,1727973870121,-0.61694336,-1.4805298,0.355896,19.53125,-4.359375,-5.890625
644,644,1727973870161,0.0,-1.6275024,0.3529663,-2.9375,45.734375,-7.03125
645,645,1727973870201,0.40844727,-1.7947388,0.16204834,11.71875,35.203125,9.078125
646,646,1727973870241,0.08935547,-1.0332642,0.18939209,24.125,18.421875,2.578125
647,647,1727973870281,-0.08520508,-0.97125244,0.19354248,16.9375,33.734375,7.015625
648,648,1727973870321,0.22485352,-0.46270752,0.022155762,21.765625,20.296875,17.734375
649,649,1727973870361,0.42700195,-0.37994385,-0.01739502,10.375,-16.859375,21.125
650,650,1727973870401,-0.14550781,-0.28936768,0.14471436,11.984375,-20.015625,4.0
651,651,1727973870441,-0.6855469,0.06463623,-0.006652832,7.65625,2.546875,4.828125
652,652,1727973870481,0.1003418,-0.06500244,0.04071045,-11.34375,9.203125,4.03125
653,653,1727973870521,0.16772461,-0.1560669,0.10394287,-5.625,-16.6875,5.65625
654,654,1727973870561,-0.09277344,-0.4505005,0.081970215,-0.59375,-46.4375,-8.046875
655,655,1727973870601,-0.22851562,-2.0,0.23358154,-47.15625,-4.25,-28.03125
656,656,1727973870641,1.3525391,-2.0,0.36224365,-28.109375,31.0,40.515625
657,657,1727973870681,-0.736084,-1.4646606,0.043151855,35.015625,33.1875,17.765625
658,658,1727973870721,-0.0234375,-1.6792603,0.24554443,-27.5,-2.75,-22.46875
659,659,1727973870761,0.6254883,-1.5540161,0.17889404,20.046875,2.5,-7.75
660,660,1727973870801,0.14038086,-0.9661255,0.070251465,18.140625,-16.8125,1.953125
661,661,1727973870841,-0.0703125,-0.940979,0.15570068,10.515625,-19.0625,-9.0
662,662,1727973870881,-0.10131836,-0.58551025,0.18988037,2.671875,-3.203125,-19.71875
663,663,1727973870921,-0.076660156,-0.21783447,0.11419678,-10.375,8.046875,-20.71875
664,664,1727973870961,0.034423828,-0.16168213,0.15325928,-15.71875,-2.140625,-21.65625
665,665,1727973871001,0.15722656,-0.24493408,0.17816162,-13.3125,-18.390625,-6.0625
666,666,1727973871041,0.14477539,-0.33135986,-0.0115356445,-21.171875,-10.78125,-1.921875
667,667,1727973871081,-0.09008789,-0.4451294,-0.3880005,25.6875,3.625,22.671875
668,668,1727973871121,0.083496094,-1.1248169,0.13519287,-4.734375,-5.671875,35.96875
669,669,1727973871161,0.7902832,-2.0,-0.44683838,26.171875,-10.78125,34.1875
670,670,1727973871201,-0.38842773,-2.0,0.9035034,11.265625,-16.796875,2.9375
671,671,1727973871241,0.14648438,-1.9468384,0.36590576,-2.140625,32.828125,0.265625
672,672,1727973871281,0.084228516,-1.3718872,-0.018371582,-0.109375,39.765625,11.5625
673,673,1727973871321,-0.010009766,-0.64971924,0.04510498,15.640625,17.25,-1.5
674,674,1727973871361,0.0041503906,-0.50787354,-0.0032348633,2.6875,11.421875,1.3125
675,675,1727973871401,0.060791016,-0.4902954,-0.13067627,1.34375,1.578125,15.875
676,676,1727973871441,0.0793457,-0.24761963,-0.07232666,7.171875,22.125,22.046875
677,677,1727973871481,0.079833984,-0.14434814,0.16937256,4.59375,2.5625,7.359375
678,678,1727973871521,0.019042969,-0.32354736,-0.07891846,4.46875,-28.8125,4.921875
679,679,1727973871561,-0.10864258,-0.3189087,-0.121398926,16.640625,-12.6875,9.390625
680,680,1727973871601,-0.18066406,-0.035705566,-0.13726807,22.1875,6.25,4.625
681,681,1727973871641,-0.22485352,-0.7312622,0.23846436,53.609375,15.15625,8.515625
682,682,1727973871681,0.74658203,-2.0,0.2399292,11.34375,27.078125,-22.53125
683,683,1727973871721,1.9423828,-2.0,-0.12994385,-20.09375,23.921875,25.828125
684,684,1727973871761,-0.32421875,-1.9207153,-0.16973877,29.25,0.59375,19.359375
685,685,1727973871801,0.29711914,-1.6057739,0.046325684,0.171875,4.25,-30.1875
686,686,1727973871841,0.5749512,-1.5654907,0.020935059,1.0,7.140625,-9.90625
687,687,1727973871881,0.095458984,-0.86676025,-0.069885254,5.09375,8.640625,-2.28125
688,688,1727973871921,0.0041503906,-0.52716064,0.08148193,4.125,11.0,-19.078125
689,689,1727973871961,0.034423828,-0.39483643,0.055114746,-7.875,3.84375,-15.65625
690,690,1727973872001,0.015625,-0.22467041,0.054138184,-14.859375,-2.609375,-17.015625
691,691,1727973872041,-0.022949219,-0.20635986,0.09637451,-21.78125,-7.453125,-17.640625
692,692,1727973872081,0.013671875,-0.2078247,0.01361084,-25.65625,-17.234375,-17.21875
693,693,1727973872121,-0.03515625,-0.44317627,0.09100342,-16.359375,-28.0,-9.3125
694,694,1727973872161,0.050048828,-1.0825806,-0.25665283,-22.4375,-15.6875,-1.203125
695,695,1727973872201,0.8376465,-1.7954712,-0.7896118,0.125,-13.25,25.1875
696,696,1727973872241,0.050048828,-2.0,-0.15240479,34.734375,-35.6875,17.515625
697,697,1727973872281,-0.8540039,-2.0,0.2880249,12.5,19.46875,1.34375
698,698,1727973872321,0.5222168,-1.8218384,-0.097717285,-5.125,50.15625,6.671875
699,699,1727973872361,0.36889648,-1.2190552,-0.023742676,15.40625,22.3125,14.140625
700,700,1727973872401,0.2084961,-0.9036255,0.04437256,14.125,7.59375,13.625
701,701,1727973872441,0.0546875,-0.67755127,0.01776123,11.78125,-2.109375,21.359375
702,702,1727973872481,0.021484375,-0.39190674,0.117370605,9.984375,6.625,17.28125
703,703,1727973872521,-0.010498047,-0.253479,0.1473999,0.65625,-5.328125,13.6875
704,704,1727973872561,-0.25952148,-0.20489502,0.06488037,-27.0625,-21.125,0.3125
705,705,1727973872601,-0.17089844,0.035095215,-0.29986572,-17.96875,-17.109375,-8.359375
706,706,1727973872641,0.17797852,-0.1572876,-0.5425415,-18.71875,-50.0,5.609375
707,707,1727973872681,0.84521484,-1.4776001,-0.05596924,-16.234375,-19.578125,-15.203125
708,708,1727973872721,0.96655273,-2.0,-0.32598877,6.921875,10.65625,21.28125
709,709,1727973872761,0.07397461,-1.5652466,-0.20318604,17.546875,-4.125,-22.171875
710,710,1727973872801,0.23022461,-1.756897,-0.11456299,13.578125,-19.25,-19.390625
711,711,1727973872841,0.21850586,-1.5696411,0.0211792,-7.65625,-4.0,-7.125
712,712,1727973872881,0.00024414062,-1.11969,0.014587402,-5.3125,4.203125,-6.390625
713,713,1727973872921,-0.008544922,-0.6655884,-0.0010375977,-8.765625,3.09375,-7.234375
714,714,1727973872961,-0.0087890625,-0.3796997,0.06707764,-9.53125,11.578125,-2.5
715,715,1727973873001,-0.02734375,-0.4216919,0.09124756,-11.1875,11.375,-3.3125
716,716,1727973873041,-0.080322266,-0.43585205,0.1293335,-10.5625,9.96875,-3.46875
717,717,1727973873081,-0.052001953,-0.4505005,0.09442139,-12.984375,6.5,-4.09375
718,718,1727973873121,0.08325195,-0.39190674,0.14227295,-7.875,8.046875,-9.921875
719,719,1727973873161,-0.022460938,-0.47564697,0.13446045,-14.015625,10.984375,-12.375
720,720,1727973873201,0.48120117,-1.560852,-0.6795044,-2.53125,12.140625,7.46875
721,721,1727973873241,0.3696289,-2.0,-0.54156494,-25.078125,-6.609375,18.703125
722,722,1727973873281,-0.12133789,-1.7615356,0.43914795,-2.8125,16.203125,-0.28125
723,723,1727973873321,0.10571289,-1.7039185,-0.09991455,-3.484375,53.921875,-1.3125
724,724,1727973873361,0.3215332,-1.298645,-0.053527832,6.09375,27.921875,1.515625
725,725,1727973873401,0.23266602,-0.83551025,0.081970215,12.421875,17.8125,16.578125
726,726,1727973873441,0.010986328,-0.60040283,0.101745605,8.78125,10.421875,15.03125
727,727,1727973873481,-0.043701172,-0.42486572,-0.035461426,10.265625,7.09375,12.71875
728,728,1727973873521,0.061767578,-0.24737549,0.020202637,13.78125,6.71875,12.0625
729,729,1727973873561,-0.055664062,-0.21124268,0.012634277,0.90625,-5.96875,8.984375
730,730,1727973873601,-0.04345703,-0.3189087,-0.013977051,-14.875,-22.859375,-1.1875
731,731,1727973873641,0.020751953,-0.55670166,0.06390381,-17.28125,-16.796875,-2.109375
732,732,1727973873681,0.041259766,-0.76763916,0.035095215,-21.65625,-24.765625,-3.203125
733,733,1727973873721,0.2697754,-1.1240845,-0.6565552,-26.6875,-40.0,0.5625
734,734,1727973873761,0.6555176,-1.2102661,0.4869995,13.40625,-26.515625,-3.140625
735,735,1727973873801,0.34033203,-2.0,0.04852295,-9.171875,-40.328125,-10.53125
736,736,1727973873841,0.20117188,-1.6936646,0.098083496,15.765625,-18.390625,-0.578125
737,737,1727973873881,0.2409668,-1.5645142,0.13421631,17.3125,-23.078125,-2.453125
738,738,1727973873921,0.23950195,-1.4937134,0.16497803,2.78125,5.8125,-0.1875
739,739,1727973873961,0.16357422,-1.1152954,0.117370605,16.3125,1.234375,-3.0625
740,740,1727973874001,0.12841797,-0.7918091,0.14715576,13.96875,8.328125,-0.953125
741,741,1727973874041,0.026611328,-0.6074829,0.14251709,23.359375,12.046875,0.59375
742,742,1727973874081,-0.09667969,-0.47955322,0.10638428,19.90625,3.140625,-4.46875
743,743,1727973874121,-0.19335938,-0.44122314,0.11395264,7.171875,7.84375,-11.078125
744,744,1727973874161,-0.12182617,-0.48321533,0.12591553,-23.9375,18.0,-12.734375
745,745,1727973874201,-0.05029297,-0.46148682,0.101745605,-16.75,10.875,-14.703125
746,746,1727973874241,-0.0061035156,-0.63409424,0.14031982,-13.90625,6.8125,-9.03125
747,747,1727973874281,0.37597656,-0.9663696,-0.10333252,-42.109375,-15.578125,-0.796875
748,748,1727973874321,0.85498047,-1.5359497,-0.49957275,20.15625,21.578125,33.953125
749,749,1727973874361,-0.45874023,-2.0,0.322937,27.625,-30.53125,1.109375
750,750,1727973874401,-0.08569336,-1.6589966,0.13494873,-11.703125,12.578125,-5.921875
751,751,1727973874441,0.29345703,-1.666565,-0.16998291,5.640625,43.375,10.234375
752,752,1727973874481,0.22167969,-1.1663208,0.02508545,21.078125,3.40625,3.953125
753,753,1727973874521,0.095458984,-1.0935669,0.19403076,24.5625,6.15625,16.390625
754,754,1727973874561,0.1784668,-0.67559814,-0.00982666,21.453125,-10.21875,18.15625
755,755,1727973874601,0.044921875,-0.47320557,-0.0635376,13.5625,-12.15625,15.59375
756,756,1727973874641,0.06201172,-0.3760376,0.005065918,5.0625,-22.390625,12.109375
757,757,1727973874681,-0.07055664,-0.31304932,0.044128418,-13.859375,-33.671875,4.15625
758,758,1727973874721,-0.1081543,-0.3262329,0.0038452148,-18.421875,-30.1875,-0.703125
759,759,1727973874761,-0.06518555,-0.20562744,-0.030822754,-11.75,-12.421875,0.578125
