,Unnamed: 0,timestamp,accel_x,accel_y,accel_z,gyro_x,gyro_y,gyro_z
0,0,1727197485151,0.10644531,0.5751953,-0.8300781,0.21875,0.03125,-0.09375
1,1,1727197485191,0.109375,0.57714844,-0.82714844,0.09375,-0.21875,-0.09375
2,2,1727197485231,0.095703125,0.58496094,-0.82910156,0.28125,-0.15625,0.03125
3,3,1727197485271,0.1015625,0.56933594,-0.8359375,0.59375,-0.03125,0.03125
4,4,1727197485311,0.10058594,0.5751953,-0.83203125,0.46875,-0.03125,-0.03125
5,5,1727197485351,0.09765625,0.5751953,-0.8183594,0.09375,-0.3125,-0.15625
6,6,1727197485391,0.08886719,0.57714844,-0.82910156,0.21875,-0.21875,-0.09375
7,7,1727197485431,0.107421875,0.57421875,-0.82128906,0.40625,0.03125,-0.09375
8,8,1727197485471,0.09765625,0.5722656,-0.828125,0.34375,0.15625,0.03125
9,9,1727197485511,0.11035156,0.5761719,-0.8339844,0.15625,-0.03125,-0.03125
10,10,1727197485551,0.09667969,0.57421875,-0.83203125,0.15625,-0.03125,0.03125
11,11,1727197485591,0.103515625,0.57910156,-0.83496094,0.21875,0.03125,0.03125
12,12,1727197485631,0.09765625,0.5732422,-0.83496094,0.09375,-0.21875,0.09375
13,13,1727197485671,0.09667969,0.58496094,-0.8408203,0.28125,-0.25,-0.09375
14,14,1727197485711,0.09375,0.56933594,-0.82910156,0.46875,-0.375,-0.09375
15,15,1727197485751,0.10253906,0.57421875,-0.82128906,0.34375,0.15625,0.15625
16,16,1727197485791,0.10253906,0.56347656,-0.828125,0.40625,-0.03125,0.03125
17,17,1727197485831,0.10058594,0.57421875,-0.8359375,0.0625,-0.21875,-0.09375
18,18,1727197485871,0.10253906,0.5888672,-0.84472656,0.21875,-0.03125,0.09375
19,19,1727197485911,0.109375,0.57714844,-0.83203125,0.28125,-0.03125,-0.03125
20,20,1727197485951,0.09472656,0.5878906,-0.83984375,0.15625,-0.03125,-0.09375
21,21,1727197485991,0.10058594,0.57910156,-0.8339844,0.09375,-0.21875,-0.15625
22,22,1727197486031,0.09472656,0.5810547,-0.828125,0.21875,-0.15625,-0.15625
23,23,1727197486071,0.10546875,0.5654297,-0.828125,0.15625,0.03125,-0.03125
24,24,1727197486111,0.103515625,0.5654297,-0.8183594,0.15625,-0.09375,-0.03125
25,25,1727197486151,0.09472656,0.57714844,-0.8125,0.15625,-0.15625,-0.03125
26,26,1727197486191,0.09765625,0.5761719,-0.8339844,0.21875,-0.09375,0.03125
27,27,1727197486231,0.099609375,0.57421875,-0.82128906,0.21875,0.15625,-0.09375
28,28,1727197486271,0.10253906,0.5800781,-0.8408203,0.21875,0.09375,-0.09375
29,29,1727197486311,0.10058594,0.57128906,-0.8486328,0.09375,-0.15625,-0.09375
30,30,1727197486351,0.08984375,0.57128906,-0.8310547,0.21875,-0.15625,-0.09375
31,31,1727197486391,0.09765625,0.5683594,-0.8330078,0.09375,-0.15625,-0.09375
32,32,1727197486431,0.09472656,0.5722656,-0.8339844,0.09375,0.09375,0.15625
33,33,1727197486471,0.09765625,0.5751953,-0.8359375,0.0625,0.03125,0.03125
34,34,1727197486511,0.10449219,0.5761719,-0.8330078,-0.1875,-0.15625,-0.09375
35,35,1727197486551,0.09863281,0.57714844,-0.8417969,0.0625,-0.03125,0.09375
36,36,1727197486591,0.10058594,0.5859375,-0.8388672,0.15625,0.03125,-0.03125
37,37,1727197486631,0.08691406,0.5683594,-0.83203125,-0.0625,-0.15625,-0.03125
38,38,1727197486671,0.091796875,0.5732422,-0.82714844,-0.125,-0.25,-0.09375
39,39,1727197486711,0.09375,0.56933594,-0.8486328,-0.0625,-0.09375,0.03125
40,40,1727197486751,0.09765625,0.5761719,-0.82910156,0.0625,-0.03125,0.03125
41,41,1727197486791,0.099609375,0.5839844,-0.82910156,-0.125,0.03125,0.09375
42,42,1727197486831,0.09863281,0.5722656,-0.8359375,-0.1875,-0.03125,-0.15625
43,43,1727197486871,0.10449219,0.578125,-0.8378906,-0.3125,-0.03125,-0.03125
44,44,1727197486911,0.09667969,0.58203125,-0.8330078,-0.0625,0.03125,0.09375
45,45,1727197486951,0.10449219,0.57128906,-0.8339844,-0.375,-0.03125,-0.09375
46,46,1727197486991,0.10253906,0.5751953,-0.8310547,-0.1875,-0.15625,-0.09375
47,47,1727197487031,0.1015625,0.5732422,-0.8466797,-0.125,-0.03125,-0.03125
48,48,1727197487071,0.1015625,0.58496094,-0.82714844,-0.125,0.03125,0.03125
49,49,1727197487111,0.10058594,0.57714844,-0.83691406,-0.1875,0.21875,0.15625
50,50,1727197487151,0.09863281,0.578125,-0.83984375,-0.125,0.09375,-0.03125
51,51,1727197487191,0.095703125,0.5839844,-0.8359375,-0.1875,0.09375,0.15625
52,52,1727197487231,0.095703125,0.5732422,-0.83691406,-0.0625,0.03125,0.09375
53,53,1727197487271,0.09765625,0.5732422,-0.8300781,0.0625,-0.09375,-0.09375
54,54,1727197487311,0.1015625,0.5703125,-0.84277344,-0.0625,0.03125,-0.03125
55,55,1727197487351,0.10253906,0.5703125,-0.82714844,-0.1875,-0.03125,-0.15625
56,56,1727197487391,0.10449219,0.5703125,-0.8300781,-0.1875,0.03125,-0.15625
57,57,1727197487431,0.10546875,0.57714844,-0.83691406,0.0625,0.09375,0.03125
58,58,1727197487471,0.09472656,0.578125,-0.8388672,0.15625,0.03125,0.03125
59,59,1727197487511,0.1015625,0.57714844,-0.82714844,-0.3125,-0.21875,-0.03125
60,60,1727197487551,0.1015625,0.578125,-0.82714844,-0.0625,-0.25,-0.09375
61,61,1727197487591,0.103515625,0.58203125,-0.82714844,-0.0625,-0.03125,-0.09375
62,62,1727197487631,0.10839844,0.5810547,-0.82910156,0.21875,-0.03125,0.09375
63,63,1727197487671,0.09667969,0.5800781,-0.82421875,0.21875,-0.25,-0.03125
64,64,1727197487711,0.103515625,0.578125,-0.828125,0.15625,-0.15625,-0.09375
65,65,1727197487751,0.10253906,0.5830078,-0.82910156,0.21875,0.03125,-0.15625
66,66,1727197487791,0.10449219,0.57421875,-0.8300781,0.21875,-0.03125,-0.03125
67,67,1727197487831,0.103515625,0.5722656,-0.8339844,0.09375,-0.09375,-0.21875
68,68,1727197487871,0.09667969,0.5654297,-0.8330078,0.28125,-0.03125,-0.15625
69,69,1727197487911,0.10058594,0.57128906,-0.84472656,0.28125,-0.15625,-0.09375
70,70,1727197487951,0.10058594,0.578125,-0.8388672,0.09375,-0.09375,-0.15625
71,71,1727197487991,0.103515625,0.5800781,-0.82910156,0.28125,-0.21875,-0.15625
72,72,1727197488031,0.09667969,0.57421875,-0.83203125,0.46875,0.09375,0.03125
73,73,1727197488071,0.09472656,0.5703125,-0.83691406,0.09375,-0.03125,-0.03125
74,74,1727197488111,0.095703125,0.5830078,-0.84375,0.09375,-0.21875,-0.09375
75,75,1727197488151,0.10058594,0.58496094,-0.8251953,0.28125,0.03125,0.03125
76,76,1727197488191,0.09667969,0.5751953,-0.8378906,0.46875,0.03125,-0.09375
77,77,1727197488231,0.09472656,0.5761719,-0.83496094,0.46875,0.09375,-0.03125
78,78,1727197488271,0.09277344,0.5751953,-0.8261719,0.09375,-0.15625,-0.03125
79,79,1727197488311,0.099609375,0.5810547,-0.8203125,0.15625,-0.15625,-0.03125
80,80,1727197488351,0.10546875,0.57910156,-0.8222656,0.09375,-0.03125,-0.09375
81,81,1727197488391,0.103515625,0.5800781,-0.82128906,0.34375,0.09375,0.03125
82,82,1727197488431,0.09863281,0.58203125,-0.83984375,0.09375,-0.03125,0.03125
83,83,1727197488471,0.091796875,0.57714844,-0.8310547,0.09375,-0.09375,0.03125
84,84,1727197488511,0.103515625,0.578125,-0.8378906,0.09375,-0.03125,-0.03125
85,85,1727197488551,0.1015625,0.5732422,-0.8339844,0.15625,-0.03125,-0.09375
86,86,1727197488591,0.10058594,0.57714844,-0.84277344,0.0625,-0.09375,-0.09375
87,87,1727197488631,0.09863281,0.57714844,-0.8183594,0.09375,-0.15625,-0.09375
88,88,1727197488671,0.09863281,0.5722656,-0.82128906,0.21875,0.09375,0.09375
89,89,1727197488711,0.09472656,0.57421875,-0.8251953,0.0625,-0.03125,-0.09375
90,90,1727197488751,0.10644531,0.5761719,-0.83984375,0.0625,-0.15625,-0.09375
91,91,1727197488791,0.095703125,0.5751953,-0.828125,0.0,-0.15625,-0.09375
92,92,1727197488831,0.10449219,0.5703125,-0.84472656,0.09375,-0.09375,-0.09375
93,93,1727197488871,0.09765625,0.57910156,-0.8417969,0.09375,-0.03125,-0.03125
94,94,1727197488911,0.09765625,0.5761719,-0.8457031,0.0625,0.03125,-0.09375
95,95,1727197488951,0.09667969,0.5732422,-0.8486328,0.15625,-0.25,-0.15625
96,96,1727197488991,0.09277344,0.5761719,-0.84277344,0.09375,0.125,0.0625
97,97,1727197489031,0.09375,0.5732422,-0.8300781,0.09375,-0.125,-0.03125
98,98,1727197489071,0.099609375,0.57421875,-0.8417969,-0.21875,-0.1875,0.03125
99,99,1727197489111,0.09667969,0.5644531,-0.84375,-0.09375,-0.125,0.03125
100,100,1727197489151,0.09765625,0.58691406,-0.84472656,0.15625,0.0,0.03125
101,101,1727197489191,0.1015625,0.5732422,-0.83691406,-0.03125,-0.125,0.03125
102,102,1727197489231,0.10449219,0.5751953,-0.83203125,-0.15625,-0.1875,-0.03125
103,103,1727197489271,0.09863281,0.5800781,-0.8222656,-0.09375,-0.1875,0.03125
104,104,1727197489311,0.09765625,0.5732422,-0.82910156,-0.09375,0.125,0.0625
105,105,1727197489351,0.1015625,0.5722656,-0.8388672,-0.09375,0.0625,0.125
106,106,1727197489391,0.09863281,0.57714844,-0.83496094,-0.21875,-0.1875,0.03125
107,107,1727197489431,0.09667969,0.578125,-0.8408203,-0.15625,-0.0625,0.125
108,108,1727197489471,0.10644531,0.57128906,-0.8339844,-0.15625,0.0,-0.03125
109,109,1727197489511,0.095703125,0.5722656,-0.8310547,-0.21875,0.0,0.0625
110,110,1727197489551,0.09765625,0.5761719,-0.8378906,-0.34375,0.0,0.03125
111,111,1727197489591,0.09277344,0.56933594,-0.8408203,-0.21875,0.125,0.125
112,112,1727197489631,0.09765625,0.5673828,-0.81933594,-0.34375,0.0625,0.03125
113,113,1727197489671,0.109375,0.5683594,-0.8339844,-0.34375,0.0625,0.125
114,114,1727197489711,0.099609375,0.57128906,-0.8261719,-0.28125,0.0625,0.125
115,115,1727197489751,0.095703125,0.5722656,-0.8457031,-0.46875,0.0,0.125
116,116,1727197489791,0.09667969,0.5751953,-0.83496094,-0.46875,0.0,0.03125
117,117,1727197489831,0.099609375,0.5839844,-0.8310547,-0.40625,0.0625,0.03125
118,118,1727197489871,0.1015625,0.5732422,-0.8261719,-0.28125,-0.1875,0.03125
119,119,1727197489911,0.09765625,0.5703125,-0.8310547,-0.15625,-0.25,0.03125
120,120,1727197489951,0.099609375,0.5761719,-0.8457031,-0.09375,0.25,0.03125
121,121,1727197489991,0.10449219,0.5761719,-0.82910156,-0.53125,0.0,-0.03125
122,122,1727197490031,0.107421875,0.57910156,-0.8359375,-0.46875,-0.0625,0.0625
123,123,1727197490071,0.10839844,0.5800781,-0.8378906,-0.40625,0.0625,0.1875
124,124,1727197490111,0.09082031,0.57128906,-0.8330078,-0.28125,0.125,0.0625
125,125,1727197490151,0.09375,0.57714844,-0.8466797,-0.46875,0.0625,0.03125
126,126,1727197490191,0.095703125,0.57421875,-0.83984375,-0.59375,0.0,-0.03125
127,127,1727197490231,0.09765625,0.5751953,-0.81933594,-0.46875,0.0,0.0625
128,128,1727197490271,0.10253906,0.5800781,-0.828125,-0.28125,0.0625,0.0625
129,129,1727197490311,0.099609375,0.5859375,-0.8408203,-0.28125,-0.0625,0.03125
130,130,1727197490351,0.10449219,0.57421875,-0.84375,-0.53125,-0.0625,0.0625
131,131,1727197490391,0.10058594,0.5810547,-0.83496094,-0.34375,0.0625,-0.03125
132,132,1727197490431,0.099609375,0.57910156,-0.83496094,-0.46875,0.125,0.0625
133,133,1727197490471,0.099609375,0.57714844,-0.8251953,-0.34375,0.0,0.0625
134,134,1727197490511,0.09667969,0.57910156,-0.81933594,-0.53125,-0.0625,0.0625
135,135,1727197490551,0.087890625,0.5839844,-0.81640625,-0.34375,0.0625,0.03125
136,136,1727197490591,0.1015625,0.58203125,-0.8388672,-0.34375,0.125,0.03125
137,137,1727197490631,0.103515625,0.57714844,-0.8261719,-0.28125,0.125,0.03125
138,138,1727197490671,0.09277344,0.58203125,-0.828125,-0.46875,0.125,-0.03125
139,139,1727197490711,0.10839844,0.57421875,-0.8310547,-0.46875,0.125,-0.03125
140,140,1727197490751,0.1015625,0.5800781,-0.8359375,-0.28125,-0.125,0.0625
141,141,1727197490791,0.095703125,0.5722656,-0.8378906,-0.21875,-0.1875,0.0625
142,142,1727197490831,0.103515625,0.5800781,-0.83203125,-0.09375,0.125,0.125
143,143,1727197490871,0.103515625,0.57714844,-0.8232422,-0.21875,-0.125,-0.03125
144,144,1727197490911,0.10449219,0.578125,-0.83496094,-0.09375,-0.25,-0.15625
145,145,1727197490951,0.10449219,0.5800781,-0.8486328,0.15625,0.0,-0.03125
146,146,1727197490991,0.09277344,0.578125,-0.828125,0.21875,0.0625,-0.03125
147,147,1727197491031,0.103515625,0.57910156,-0.82421875,-0.03125,-0.1875,-0.15625
148,148,1727197491071,0.10058594,0.5859375,-0.8261719,-0.09375,-0.1875,-0.09375
149,149,1727197491111,0.103515625,0.58496094,-0.8330078,0.15625,0.0625,-0.03125
150,150,1727197491151,0.09863281,0.5644531,-0.8261719,0.28125,0.0625,-0.03125
151,151,1727197491191,0.099609375,0.5830078,-0.82128906,0.15625,-0.0625,0.03125
152,152,1727197491231,0.09277344,0.5751953,-0.82910156,0.15625,-0.125,-0.03125
153,153,1727197491271,0.10839844,0.5830078,-0.8300781,0.09375,-0.0625,0.125
154,154,1727197491311,0.10644531,0.5703125,-0.82421875,0.21875,0.0,-0.09375
155,155,1727197491351,0.09667969,0.5761719,-0.8300781,-0.03125,0.0,-0.15625
156,156,1727197491391,0.09375,0.57421875,-0.8388672,-0.03125,0.0,-0.03125
157,157,1727197491431,0.1015625,0.5761719,-0.8378906,-0.03125,0.0,-0.03125
158,158,1727197491471,0.09765625,0.57714844,-0.8261719,0.09375,0.125,0.125
159,159,1727197491511,0.10253906,0.57714844,-0.8300781,-0.09375,-0.0625,0.03125
160,160,1727197491551,0.10449219,0.5732422,-0.83691406,-0.03125,-0.125,0.03125
161,161,1727197491591,0.09765625,0.5800781,-0.8486328,0.21875,-0.1875,-0.15625
162,162,1727197491631,0.09765625,0.57128906,-0.8339844,0.09375,0.0625,0.0625
163,163,1727197491671,0.10058594,0.58691406,-0.81640625,0.03125,-0.125,-0.03125
164,164,1727197491711,0.103515625,0.5751953,-0.8232422,-0.03125,-0.125,-0.03125
165,165,1727197491751,0.095703125,0.58203125,-0.8457031,0.15625,-0.125,0.0625
166,166,1727197491791,0.1015625,0.5683594,-0.84472656,0.28125,0.0,0.03125
167,167,1727197491831,0.10644531,0.56640625,-0.8378906,0.03125,-0.125,-0.03125
168,168,1727197491871,0.09472656,0.5761719,-0.8330078,-0.09375,0.0,0.03125
169,169,1727197491911,0.09472656,0.57421875,-0.84277344,-0.09375,-0.125,0.03125
170,170,1727197491951,0.09667969,0.5761719,-0.8330078,-0.03125,0.0625,0.0625
171,171,1727197491991,0.1015625,0.57128906,-0.83984375,-0.03125,0.0625,0.0625
172,172,1727197492031,0.10449219,0.5732422,-0.8408203,0.03125,-0.0625,-0.03125
173,173,1727197492071,0.099609375,0.5800781,-0.8330078,0.03125,-0.0625,0.03125
174,174,1727197492111,0.10253906,0.5732422,-0.8330078,-0.03125,0.0,-0.09375
175,175,1727197492151,0.09667969,0.5673828,-0.83496094,-0.09375,-0.125,-0.03125
176,176,1727197492191,0.09375,0.57714844,-0.8330078,0.03125,-0.125,0.03125
177,177,1727197492231,0.1015625,0.5751953,-0.84472656,0.03125,-0.0625,-0.03125
178,178,1727197492271,0.10058594,0.5732422,-0.8300781,0.09375,0.0,0.1875
179,179,1727197492311,0.09765625,0.57421875,-0.82910156,0.09375,0.0625,-0.03125
180,180,1727197492351,0.10058594,0.5703125,-0.8408203,0.03125,0.0625,-0.03125
181,181,1727197492391,0.10449219,0.578125,-0.8359375,-0.09375,-0.25,-0.03125
182,182,1727197492431,0.09863281,0.5703125,-0.8408203,0.21875,-0.1875,-0.03125
183,183,1727197492471,0.10253906,0.5732422,-0.828125,0.03125,0.0625,0.03125
184,184,1727197492511,0.10253906,0.5830078,-0.8388672,-0.09375,0.0,0.03125
185,185,1727197492551,0.09472656,0.5722656,-0.83496094,-0.09375,-0.0625,0.03125
186,186,1727197492591,0.10253906,0.5654297,-0.8300781,0.21875,0.0625,0.03125
187,187,1727197492631,0.10449219,0.58203125,-0.83203125,0.03125,0.0,0.0625
188,188,1727197492671,0.09082031,0.5761719,-0.8232422,-0.09375,-0.0625,-0.03125
189,189,1727197492711,0.10058594,0.5644531,-0.8515625,-0.21875,-0.1875,0.03125
190,190,1727197492751,0.09863281,0.5722656,-0.8417969,-0.28125,-0.125,0.0625
191,191,1727197492791,0.10253906,0.5703125,-0.8300781,-0.15625,0.0625,0.125
192,192,1727197492831,0.09765625,0.5703125,-0.82421875,-0.15625,0.0625,-0.09375
193,193,1727197492871,0.09667969,0.56640625,-0.83203125,-0.34375,-0.125,0.03125
194,194,1727197492911,0.09472656,0.5722656,-0.8388672,-0.3125,0.03125,0.0
195,195,1727197492951,0.08984375,0.578125,-0.84472656,-0.3125,0.03125,-0.0625
196,196,1727197492991,0.1015625,0.5722656,-0.8378906,-0.3125,0.09375,0.125
197,197,1727197493031,0.09082031,0.57421875,-0.81933594,-0.25,-0.03125,0.125
198,198,1727197493071,0.10253906,0.57128906,-0.8330078,-0.25,0.28125,0.125
199,199,1727197493111,0.10253906,0.58496094,-0.82910156,-0.375,0.09375,0.0
200,200,1727197493151,0.09375,0.58203125,-0.8251953,-0.5,-0.03125,0.0
201,201,1727197493191,0.107421875,0.57421875,-0.83691406,-0.5625,0.03125,0.0
202,202,1727197493231,0.10058594,0.57714844,-0.8310547,-0.4375,-0.03125,-0.0625
203,203,1727197493271,0.09863281,0.57128906,-0.8359375,-0.3125,0.03125,0.0
204,204,1727197493311,0.103515625,0.57910156,-0.83203125,-0.4375,0.21875,-0.0625
205,205,1727197493351,0.10449219,0.5732422,-0.8330078,-0.625,-0.03125,-0.0625
206,206,1727197493391,0.10449219,0.57910156,-0.8388672,-0.5,-0.03125,-0.0625
207,207,1727197493431,0.109375,0.57910156,-0.8300781,-0.25,0.03125,0.125
208,208,1727197493471,0.09277344,0.56933594,-0.83203125,-0.4375,0.15625,0.0625
209,209,1727197493511,0.10253906,0.5761719,-0.84472656,-0.625,0.03125,-0.25
210,210,1727197493551,0.09863281,0.5751953,-0.8339844,-0.5625,-0.21875,0.0
211,211,1727197493591,0.099609375,0.57421875,-0.8417969,-0.3125,0.09375,0.0625
212,212,1727197493631,0.1015625,0.5683594,-0.84472656,-0.375,0.09375,0.125
213,213,1727197493671,0.10253906,0.5761719,-0.83691406,-0.5,-0.09375,0.0625
214,214,1727197493711,0.103515625,0.5810547,-0.8339844,-0.5,-0.03125,0.0
215,215,1727197493751,0.09472656,0.5878906,-0.82714844,-0.5,0.09375,0.0625
216,216,1727197493791,0.08984375,0.5761719,-0.83203125,-0.625,0.21875,0.0
217,217,1727197493831,0.099609375,0.5839844,-0.8388672,-0.625,0.09375,0.0
218,218,1727197493871,0.09863281,0.56933594,-0.8388672,-0.5625,0.15625,0.0625
219,219,1727197493911,0.09863281,0.57421875,-0.8251953,-0.4375,0.28125,-0.0625
220,220,1727197493951,0.09863281,0.57421875,-0.8261719,-0.5,0.21875,0.0625
221,221,1727197493991,0.09667969,0.5732422,-0.8457031,-0.5625,0.03125,-0.125
222,222,1727197494031,0.099609375,0.5732422,-0.8300781,-0.4375,-0.03125,0.0
223,223,1727197494071,0.09765625,0.5722656,-0.81933594,-0.375,0.21875,0.125
224,224,1727197494111,0.10449219,0.5800781,-0.82714844,-0.5625,0.09375,0.0
225,225,1727197494151,0.10058594,0.58203125,-0.82910156,-0.625,0.03125,0.0
226,226,1727197494191,0.103515625,0.5859375,-0.82910156,-0.1875,0.09375,-0.0625
227,227,1727197494231,0.10253906,0.5810547,-0.82910156,-0.1875,0.09375,-0.0625
228,228,1727197494271,0.09765625,0.5830078,-0.8457031,-0.125,0.09375,-0.0625
229,229,1727197494311,0.09765625,0.58203125,-0.83203125,-0.375,-0.09375,-0.0625
230,230,1727197494351,0.09375,0.58203125,-0.8330078,-0.125,-0.03125,0.0
231,231,1727197494391,0.103515625,0.5830078,-0.83496094,-0.03125,0.09375,0.1875
232,232,1727197494431,0.09667969,0.5839844,-0.8310547,0.09375,-0.03125,0.0
233,233,1727197494471,0.10449219,0.5830078,-0.8417969,0.03125,-0.03125,-0.0625
234,234,1727197494511,0.10253906,0.58496094,-0.8417969,0.03125,-0.09375,-0.0625
235,235,1727197494551,0.09277344,0.5751953,-0.8417969,-0.03125,0.03125,-0.0625
236,236,1727197494591,0.10253906,0.5722656,-0.83984375,-0.09375,-0.09375,-0.0625
237,237,1727197494631,0.10546875,0.57714844,-0.8378906,-0.09375,-0.21875,0.0
238,238,1727197494671,0.09375,0.5761719,-0.82714844,0.09375,-0.09375,0.0
239,239,1727197494711,0.09863281,0.5751953,-0.84472656,-0.03125,0.03125,-0.0625
240,240,1727197494751,0.10839844,0.5751953,-0.8232422,-0.03125,-0.15625,-0.0625
241,241,1727197494791,0.10449219,0.56933594,-0.8378906,0.15625,-0.09375,-0.125
242,242,1727197494831,0.10644531,0.57714844,-0.8261719,-0.03125,0.28125,0.0
243,243,1727197494871,0.109375,0.5839844,-0.84472656,-0.09375,0.03125,0.0625
244,244,1727197494911,0.10058594,0.578125,-0.8378906,0.09375,-0.15625,-0.125
245,245,1727197494951,0.09863281,0.5722656,-0.8203125,0.34375,-0.03125,0.0
246,246,1727197494991,0.09863281,0.5732422,-0.8408203,0.03125,-0.03125,0.0
247,247,1727197495031,0.09375,0.5722656,-0.828125,-0.09375,-0.21875,-0.125
248,248,1727197495071,0.09375,0.5800781,-0.82910156,-0.03125,-0.21875,0.0
249,249,1727197495111,0.103515625,0.5732422,-0.8310547,-0.03125,-0.03125,0.0625
250,250,1727197495151,0.10839844,0.57910156,-0.8261719,0.15625,0.09375,-0.125
251,251,1727197495191,0.09277344,0.578125,-0.83496094,-0.03125,0.03125,0.0
252,252,1727197495231,0.103515625,0.58203125,-0.82910156,-0.03125,-0.15625,0.0
253,253,1727197495271,0.09765625,0.5761719,-0.83691406,0.09375,0.03125,-0.0625
254,254,1727197495311,0.09863281,0.57714844,-0.8330078,0.03125,-0.09375,-0.1875
255,255,1727197495351,0.10253906,0.57128906,-0.8330078,-0.09375,-0.09375,-0.0625
256,256,1727197495391,0.09472656,0.5810547,-0.8330078,-0.125,-0.03125,-0.125
257,257,1727197495431,0.09472656,0.5732422,-0.8330078,-0.09375,-0.09375,0.0625
258,258,1727197495471,0.10839844,0.578125,-0.82128906,-0.09375,-0.03125,0.0
259,259,1727197495511,0.09667969,0.57910156,-0.83203125,-0.09375,-0.21875,0.0
260,260,1727197495551,0.099609375,0.5761719,-0.8359375,-0.03125,-0.21875,-0.1875
261,261,1727197495591,0.09472656,0.578125,-0.8388672,0.09375,-0.09375,-0.0625
262,262,1727197495631,0.09472656,0.578125,-0.8417969,-0.09375,-0.03125,-0.0625
263,263,1727197495671,0.099609375,0.57421875,-0.8378906,-0.1875,-0.15625,-0.0625
264,264,1727197495711,0.103515625,0.5722656,-0.8261719,-0.09375,-0.09375,-0.0625
265,265,1727197495751,0.08984375,0.57714844,-0.828125,0.21875,0.09375,-0.0625
266,266,1727197495791,0.09667969,0.578125,-0.8359375,0.09375,0.03125,0.0625
267,267,1727197495831,0.09863281,0.5703125,-0.8408203,-0.125,-0.03125,0.0
268,268,1727197495871,0.10058594,0.58203125,-0.8466797,-0.09375,0.03125,-0.125
269,269,1727197495911,0.09667969,0.58496094,-0.83203125,-0.125,0.03125,-0.0625
270,270,1727197495951,0.10253906,0.56640625,-0.8378906,-0.03125,0.03125,0.0625
271,271,1727197495991,0.10546875,0.57714844,-0.83691406,-0.09375,-0.34375,-0.0625
272,272,1727197496031,0.10449219,0.5751953,-0.84277344,-0.09375,-0.09375,-0.0625
273,273,1727197496071,0.10449219,0.5810547,-0.84375,-0.09375,-0.09375,-0.1875
274,274,1727197496111,0.09472656,0.5732422,-0.8310547,-0.09375,-0.09375,-0.0625
275,275,1727197496151,0.10644531,0.57714844,-0.83496094,-0.03125,-0.09375,-0.0625
276,276,1727197496191,0.095703125,0.5800781,-0.8310547,-0.03125,-0.21875,-0.125
277,277,1727197496231,0.09863281,0.57421875,-0.81933594,-0.03125,0.03125,0.0625
278,278,1727197496271,0.09863281,0.5722656,-0.8408203,-0.09375,-0.03125,0.0
279,279,1727197496311,0.1015625,0.56933594,-0.83203125,-0.03125,0.09375,-0.0625
280,280,1727197496351,0.09863281,0.5839844,-0.83496094,-0.09375,-0.09375,-0.125
281,281,1727197496391,0.09863281,0.5732422,-0.8310547,0.09375,0.03125,0.0625
282,282,1727197496431,0.10253906,0.57128906,-0.83984375,-0.25,-0.03125,0.0625
283,283,1727197496471,0.091796875,0.5761719,-0.83691406,-0.3125,-0.03125,0.0
284,284,1727197496511,0.095703125,0.5654297,-0.8261719,-0.375,-0.03125,0.0625
285,285,1727197496551,0.09667969,0.5751953,-0.82714844,-0.03125,0.09375,0.0
286,286,1727197496591,0.1015625,0.56933594,-0.8339844,-0.125,0.03125,0.125
287,287,1727197496631,0.09277344,0.578125,-0.83691406,-0.375,0.03125,0.0625
288,288,1727197496671,0.08984375,0.56933594,-0.8378906,-0.5,-0.15625,-0.0625
289,289,1727197496711,0.1015625,0.57421875,-0.83691406,-0.25,0.03125,-0.0625
290,290,1727197496751,0.1015625,0.57714844,-0.84277344,-0.375,0.03125,0.0625
291,291,1727197496791,0.099609375,0.5732422,-0.8378906,-0.3125,-0.09375,0.0625
292,292,1727197496831,0.1015625,0.57421875,-0.8203125,-0.28125,0.0625,0.0625
293,293,1727197496871,0.09863281,0.57910156,-0.83496094,-0.28125,0.1875,-0.0625
294,294,1727197496911,0.099609375,0.578125,-0.83984375,-0.21875,0.1875,0.125
295,295,1727197496951,0.09472656,0.5732422,-0.8339844,-0.40625,0.0625,0.0625
296,296,1727197496991,0.10058594,0.5703125,-0.83203125,-0.46875,0.0625,0.0625
297,297,1727197497031,0.099609375,0.58203125,-0.8310547,-0.46875,0.0625,0.0625
298,298,1727197497071,0.09765625,0.57714844,-0.8310547,-0.34375,0.21875,0.125
299,299,1727197497111,0.10253906,0.5761719,-0.8378906,-0.5,0.0625,0.25
300,300,1727197497151,0.09472656,0.578125,-0.8261719,-0.46875,0.125,-0.0625
301,301,1727197497191,0.09863281,0.5839844,-0.8339844,-0.34375,0.0,0.125
302,302,1727197497231,0.09863281,0.57910156,-0.83691406,-0.21875,-0.0625,0.0
303,303,1727197497271,0.095703125,0.58203125,-0.8300781,-0.34375,0.34375,0.125
304,304,1727197497311,0.103515625,0.57421875,-0.8310547,-0.46875,0.0625,0.0
305,305,1727197497351,0.103515625,0.5751953,-0.8300781,-0.5625,0.0625,0.0
306,306,1727197497391,0.10058594,0.5830078,-0.82421875,-0.15625,0.1875,0.0625
307,307,1727197497431,0.1015625,0.57714844,-0.83691406,-0.15625,0.1875,0.125
308,308,1727197497471,0.099609375,0.5859375,-0.8378906,-0.40625,0.0,-0.125
309,309,1727197497511,0.109375,0.5830078,-0.8222656,-0.5,-0.125,0.0
310,310,1727197497551,0.10839844,0.5761719,-0.8330078,-0.28125,0.0625,0.0
311,311,1727197497591,0.10058594,0.5751953,-0.8330078,-0.03125,0.1875,0.0
312,312,1727197497631,0.09765625,0.5830078,-0.83203125,-0.15625,0.0625,0.0625
313,313,1727197497671,0.10644531,0.5839844,-0.83203125,-0.03125,-0.0625,0.0625
314,314,1727197497711,0.1015625,0.5878906,-0.83496094,0.03125,0.0625,0.0625
315,315,1727197497751,0.09863281,0.5800781,-0.8183594,0.15625,-0.0625,-0.0625
316,316,1727197497791,0.09472656,0.5761719,-0.8183594,0.03125,0.0,-0.0625
317,317,1727197497831,0.1015625,0.578125,-0.8359375,0.15625,0.0625,0.0625
318,318,1727197497871,0.09667969,0.58203125,-0.8388672,0.15625,0.0625,0.125
319,319,1727197497911,0.103515625,0.58203125,-0.8330078,0.15625,0.1875,0.125
320,320,1727197497951,0.08984375,0.5722656,-0.8388672,0.15625,-0.0625,0.0625
321,321,1727197497991,0.095703125,0.5839844,-0.83691406,0.09375,-0.125,-0.0625
322,322,1727197498031,0.09082031,0.5751953,-0.8222656,0.28125,0.125,0.0625
323,323,1727197498071,0.10058594,0.578125,-0.8251953,-0.03125,-0.0625,-0.1875
324,324,1727197498111,0.09863281,0.5761719,-0.8339844,-0.03125,-0.1875,-0.0625
325,325,1727197498151,0.103515625,0.58203125,-0.828125,0.21875,0.0,0.0
326,326,1727197498191,0.109375,0.5751953,-0.83691406,0.34375,0.0625,0.0
327,327,1727197498231,0.09863281,0.56933594,-0.8261719,0.21875,0.0,0.0
328,328,1727197498271,0.09765625,0.5761719,-0.828125,0.03125,0.0,0.0
329,329,1727197498311,0.091796875,0.578125,-0.8300781,0.09375,-0.0625,-0.1875
330,330,1727197498351,0.09863281,0.5703125,-0.83691406,0.09375,0.125,0.0625
331,331,1727197498391,0.09863281,0.57128906,-0.8300781,0.03125,0.0625,-0.125
332,332,1727197498431,0.09472656,0.5722656,-0.8339844,0.03125,-0.0625,-0.125
333,333,1727197498471,0.099609375,0.5800781,-0.83691406,0.15625,0.0625,-0.125
334,334,1727197498511,0.091796875,0.578125,-0.84375,0.09375,0.0625,-0.0625
335,335,1727197498551,0.09667969,0.57714844,-0.8300781,0.09375,0.0625,0.0
336,336,1727197498591,0.09667969,0.5761719,-0.8183594,0.09375,0.0,-0.0625
337,337,1727197498631,0.09667969,0.57910156,-0.8261719,0.09375,0.0625,0.0
338,338,1727197498671,0.1015625,0.57910156,-0.83203125,0.09375,0.0,0.0
339,339,1727197498711,0.10449219,0.5810547,-0.82910156,0.09375,0.125,-0.1875
340,340,1727197498751,0.095703125,0.58496094,-0.84375,-0.09375,-0.0625,-0.0625
341,341,1727197498791,0.09472656,0.578125,-0.8378906,0.03125,0.0625,-0.0625
342,342,1727197498831,0.09277344,0.5722656,-0.8339844,0.03125,-0.3125,-0.125
343,343,1727197498871,0.09863281,0.56933594,-0.8222656,0.21875,0.125,0.0
344,344,1727197498911,0.09863281,0.5732422,-0.8378906,0.15625,-0.0625,0.0625
345,345,1727197498951,0.103515625,0.58496094,-0.82714844,0.03125,-0.125,-0.1875
346,346,1727197498991,0.09472656,0.578125,-0.83496094,0.21875,-0.0625,-0.0625
347,347,1727197499031,0.09667969,0.5703125,-0.8388672,0.28125,0.125,0.0625
348,348,1727197499071,0.09863281,0.5800781,-0.82910156,0.03125,-0.0625,-0.0625
349,349,1727197499111,0.09863281,0.5751953,-0.8261719,-0.15625,0.0,0.0
350,350,1727197499151,0.09863281,0.57128906,-0.8330078,0.15625,0.125,0.0
351,351,1727197499191,0.1015625,0.57421875,-0.8388672,0.09375,0.125,0.0
352,352,1727197499231,0.103515625,0.5673828,-0.8261719,0.21875,0.125,0.0625
353,353,1727197499271,0.10644531,0.5673828,-0.83691406,0.03125,-0.0625,-0.125
354,354,1727197499311,0.09667969,0.57910156,-0.8417969,-0.03125,0.0625,0.0
355,355,1727197499351,0.095703125,0.5673828,-0.84472656,0.09375,0.125,0.0
356,356,1727197499391,0.099609375,0.57128906,-0.82714844,-0.15625,0.0625,0.0
357,357,1727197499431,0.09667969,0.57714844,-0.83203125,-0.15625,-0.0625,-0.0625
358,358,1727197499471,0.09765625,0.5800781,-0.8310547,-0.09375,0.125,0.125
359,359,1727197499511,0.10644531,0.5761719,-0.8408203,-0.03125,0.1875,0.0625
360,360,1727197499551,0.09667969,0.5703125,-0.8203125,-0.15625,-0.0625,0.0
361,361,1727197499591,0.09765625,0.5703125,-0.8339844,-0.34375,0.0,0.0625
362,362,1727197499631,0.09472656,0.5722656,-0.8378906,-0.15625,0.125,-0.0625
363,363,1727197499671,0.1015625,0.578125,-0.83691406,-0.15625,0.1875,-0.0625
364,364,1727197499711,0.09375,0.578125,-0.84277344,-0.21875,-0.1875,0.0625
365,365,1727197499751,0.09375,0.5732422,-0.8388672,-0.09375,0.1875,0.0625
366,366,1727197499791,0.1015625,0.5751953,-0.828125,-0.40625,0.0,0.0
367,367,1727197499831,0.10449219,0.57714844,-0.8310547,-0.46875,0.0,-0.0625
368,368,1727197499871,0.09375,0.5654297,-0.83984375,-0.21875,0.0625,0.0
369,369,1727197499911,0.099609375,0.57421875,-0.82910156,-0.09375,0.125,0.0625
370,370,1727197499951,0.10839844,0.5751953,-0.828125,-0.28125,0.125,0.0625
371,371,1727197499991,0.09375,0.5761719,-0.8359375,-0.46875,-0.0625,0.125
372,372,1727197500031,0.09667969,0.5800781,-0.83984375,-0.34375,0.125,0.0625
373,373,1727197500071,0.10058594,0.56933594,-0.83203125,-0.28125,0.28125,0.0
374,374,1727197500111,0.099609375,0.5673828,-0.82910156,-0.21875,0.1875,0.0625
375,375,1727197500151,0.103515625,0.5673828,-0.8251953,-0.46875,0.0,0.0625
376,376,1727197500191,0.10449219,0.578125,-0.85058594,-0.15625,0.0625,-0.0625
377,377,1727197500231,0.10839844,0.58984375,-0.8388672,-0.28125,0.1875,0.0625
378,378,1727197500271,0.09765625,0.5810547,-0.8359375,-0.46875,0.0625,0.0
379,379,1727197500311,0.10644531,0.5761719,-0.84375,-0.46875,0.125,-0.0625
380,380,1727197500351,0.09667969,0.5800781,-0.84277344,-0.40625,0.21875,0.125
381,381,1727197500391,0.09863281,0.57714844,-0.84472656,-0.5,0.34375,0.1875
382,382,1727197500431,0.09765625,0.5800781,-0.82714844,-0.5625,0.28125,0.125
383,383,1727197500471,0.1015625,0.5830078,-0.82128906,-0.46875,0.125,0.0625
384,384,1727197500511,0.099609375,0.57714844,-0.82714844,-0.5,0.0625,-0.125
385,385,1727197500551,0.09277344,0.578125,-0.8251953,-0.15625,0.125,0.125
386,386,1727197500591,0.10058594,0.5761719,-0.8232422,-0.46875,0.28125,0.1875
387,387,1727197500631,0.10546875,0.5839844,-0.8251953,-0.40625,0.0625,0.0625
388,388,1727197500671,0.10546875,0.5888672,-0.8378906,-0.40625,-0.0625,0.0625
389,389,1727197500711,0.09082031,0.578125,-0.8378906,0.03125,0.1875,0.0625
390,390,1727197500751,0.10253906,0.5761719,-0.8486328,0.03125,0.0625,0.0625
391,391,1727197500791,0.09765625,0.5751953,-0.8300781,-0.28125,-0.0625,-0.125
392,392,1727197500831,0.10644531,0.58203125,-0.8330078,-0.09375,-0.25,-0.1875
393,393,1727197500871,0.10449219,0.5751953,-0.83203125,0.09375,0.125,0.0625
394,394,1727197500911,0.10644531,0.5732422,-0.82128906,0.15625,0.125,0.0625
395,395,1727197500951,0.09765625,0.57910156,-0.8261719,0.15625,0.0625,0.0
396,396,1727197500991,0.10253906,0.57910156,-0.83691406,0.28125,-0.125,-0.0625
397,397,1727197501031,0.10058594,0.5800781,-0.8339844,0.28125,0.0,-0.0625
398,398,1727197501071,0.10644531,0.57910156,-0.8457031,0.15625,0.0625,-0.125
399,399,1727197501111,0.095703125,0.578125,-0.82910156,0.34375,-0.1875,-0.125
400,400,1727197501151,0.09863281,0.5800781,-0.82421875,0.40625,0.0,-0.0625
401,401,1727197501191,0.099609375,0.5800781,-0.83496094,0.40625,0.0625,-0.1875
402,402,1727197501231,0.09765625,0.578125,-0.8330078,0.46875,0.0,0.0
403,403,1727197501271,0.10839844,0.5839844,-0.82910156,0.53125,-0.25,-0.125
404,404,1727197501311,0.115234375,0.5703125,-0.82421875,0.46875,0.0,0.0625
405,405,1727197501351,0.10449219,0.58496094,-0.8232422,0.28125,0.0625,-0.0625
406,406,1727197501391,0.09863281,0.5800781,-0.8378906,0.21875,-0.1875,-0.0625
407,407,1727197501431,0.103515625,0.58496094,-0.8388672,0.40625,0.0,0.0625
408,408,1727197501471,0.09667969,0.5761719,-0.8310547,0.59375,0.0,0.0625
409,409,1727197501511,0.09082031,0.5751953,-0.83691406,0.40625,0.0625,-0.125
410,410,1727197501551,0.10449219,0.5703125,-0.8388672,0.34375,-0.1875,-0.25
411,411,1727197501591,0.107421875,0.57128906,-0.8388672,0.34375,-0.1875,-0.0625
412,412,1727197501631,0.10058594,0.5761719,-0.83496094,0.40625,0.1875,0.0
413,413,1727197501671,0.1015625,0.5703125,-0.82910156,0.34375,0.125,0.0625
414,414,1727197501711,0.1015625,0.5722656,-0.83203125,0.28125,-0.125,-0.125
415,415,1727197501751,0.099609375,0.57910156,-0.82714844,0.28125,-0.0625,-0.1875
416,416,1727197501791,0.10839844,0.5761719,-0.8261719,0.34375,-0.0625,-0.125
417,417,1727197501831,0.09765625,0.57421875,-0.83691406,0.34375,0.0,0.0
418,418,1727197501871,0.099609375,0.578125,-0.8261719,0.21875,0.0,-0.125
419,419,1727197501911,0.095703125,0.57421875,-0.85058594,0.15625,-0.0625,0.0625
420,420,1727197501951,0.10058594,0.5732422,-0.8300781,0.21875,0.0,-0.0625
421,421,1727197501991,0.09667969,0.5761719,-0.8388672,0.34375,0.0,0.0
422,422,1727197502031,0.109375,0.58203125,-0.83496094,0.21875,-0.0625,-0.0625
423,423,1727197502071,0.1015625,0.5732422,-0.8330078,0.28125,-0.25,-0.0625
424,424,1727197502111,0.09082031,0.5654297,-0.82910156,0.28125,0.0625,0.0
425,425,1727197502151,0.10644531,0.57910156,-0.8359375,0.28125,-0.125,0.0
426,426,1727197502191,0.109375,0.5732422,-0.82910156,0.03125,-0.0625,-0.0625
427,427,1727197502231,0.103515625,0.56933594,-0.82714844,0.34375,0.0,-0.125
428,428,1727197502271,0.09277344,0.5761719,-0.8330078,0.40625,0.0625,0.1875
429,429,1727197502311,0.10253906,0.5761719,-0.8310547,0.40625,0.125,-0.0625
430,430,1727197502351,0.09667969,0.57421875,-0.8203125,0.09375,-0.0625,-0.0625
431,431,1727197502391,0.1015625,0.5703125,-0.82714844,0.15625,-0.0625,-0.125
432,432,1727197502431,0.10449219,0.5732422,-0.8339844,0.09375,0.0625,-0.0625
433,433,1727197502471,0.08691406,0.56933594,-0.8457031,0.21875,0.0625,0.0625
434,434,1727197502511,0.095703125,0.5732422,-0.83691406,0.28125,-0.0625,0.0
435,435,1727197502551,0.09667969,0.57714844,-0.8330078,0.34375,-0.125,0.0
436,436,1727197502591,0.09082031,0.5800781,-0.83496094,0.09375,0.0,-0.0625
437,437,1727197502631,0.10058594,0.5732422,-0.8388672,0.09375,0.0625,0.0
438,438,1727197502671,0.087890625,0.5732422,-0.8310547,0.09375,0.0,-0.0625
439,439,1727197502711,0.095703125,0.5800781,-0.8339844,0.03125,-0.125,0.0625
440,440,1727197502751,0.099609375,0.5683594,-0.82910156,0.15625,0.1875,0.0625
441,441,1727197502791,0.10253906,0.5722656,-0.82421875,-0.03125,0.125,-0.0625
442,442,1727197502831,0.09667969,0.57421875,-0.83496094,-0.15625,0.0625,-0.0625
443,443,1727197502871,0.09472656,0.5703125,-0.83691406,-0.03125,0.0625,-0.1875
444,444,1727197502911,0.103515625,0.5751953,-0.8388672,0.03125,-0.125,-0.1875
445,445,1727197502951,0.09765625,0.5683594,-0.8261719,-0.15625,0.21875,0.125
446,446,1727197502991,0.09765625,0.5654297,-0.8457031,-0.15625,-0.0625,-0.0625
447,447,1727197503031,0.10253906,0.5722656,-0.8457031,-0.28125,0.0,-0.125
448,448,1727197503071,0.1015625,0.5703125,-0.84277344,0.09375,0.125,0.0625
449,449,1727197503111,0.10546875,0.57128906,-0.8310547,0.15625,0.125,0.0625
450,450,1727197503151,0.09863281,0.5751953,-0.8378906,-0.28125,0.0625,0.125
451,451,1727197503191,0.09277344,0.57910156,-0.84375,-0.34375,0.0,-0.0625
452,452,1727197503231,0.10253906,0.5761719,-0.8378906,-0.03125,0.1875,0.0
453,453,1727197503271,0.10253906,0.5732422,-0.81640625,-0.21875,0.0625,-0.0625
454,454,1727197503311,0.1015625,0.5722656,-0.8330078,-0.15625,0.0625,0.0
455,455,1727197503351,0.099609375,0.57421875,-0.8388672,-0.21875,0.0625,0.125
456,456,1727197503391,0.10449219,0.57910156,-0.83984375,-0.03125,0.1875,0.0625
457,457,1727197503431,0.09375,0.5761719,-0.8251953,-0.03125,0.125,0.125
458,458,1727197503471,0.09472656,0.5751953,-0.82910156,-0.15625,0.0625,0.0625
459,459,1727197503511,0.09667969,0.5761719,-0.8300781,-0.28125,0.0625,0.0625
460,460,1727197503551,0.09863281,0.5703125,-0.8310547,-0.03125,0.125,0.125
461,461,1727197503591,0.10058594,0.5761719,-0.8408203,-0.21875,0.34375,0.125
462,462,1727197503631,0.08691406,0.5761719,-0.84375,-0.21875,0.125,-0.0625
463,463,1727197503671,0.10253906,0.5722656,-0.8339844,-0.09375,-0.0625,0.0
464,464,1727197503711,0.10058594,0.578125,-0.8310547,-0.09375,-0.125,-0.0625
465,465,1727197503751,0.09472656,0.578125,-0.8222656,0.03125,0.34375,0.1875
466,466,1727197503791,0.09667969,0.5761719,-0.83691406,-0.34375,-0.0625,-0.0625
467,467,1727197503831,0.10644531,0.5761719,-0.82128906,-0.34375,0.0,-0.0625
468,468,1727197503871,0.103515625,0.5810547,-0.8417969,-0.09375,0.0625,0.0
469,469,1727197503911,0.10058594,0.57714844,-0.828125,0.03125,0.1875,-0.0625
470,470,1727197503951,0.10058594,0.5800781,-0.84277344,-0.03125,0.0,-0.0625
471,471,1727197503991,0.1015625,0.5722656,-0.8378906,-0.34375,-0.0625,0.0
472,472,1727197504031,0.09667969,0.57128906,-0.8125,0.03125,-0.0625,-0.0625
473,473,1727197504071,0.095703125,0.5732422,-0.8310547,0.09375,0.21875,0.0
474,474,1727197504111,0.099609375,0.5722656,-0.82714844,0.21875,0.125,0.0625
475,475,1727197504151,0.09277344,0.5732422,-0.8232422,0.03125,0.0625,-0.0625
476,476,1727197504191,0.09863281,0.5878906,-0.8251953,0.09375,0.0625,0.0
477,477,1727197504231,0.109375,0.57714844,-0.8339844,0.15625,0.0,0.0625
478,478,1727197504271,0.09765625,0.56933594,-0.8359375,0.15625,0.125,-0.125
479,479,1727197504311,0.10546875,0.57128906,-0.8339844,0.09375,0.0,-0.0625
480,480,1727197504351,0.09277344,0.57421875,-0.8339844,0.21875,0.1875,0.1875
481,481,1727197504391,0.10058594,0.5703125,-0.8408203,0.28125,0.125,0.125
482,482,1727197504431,0.10058594,0.57128906,-0.8388672,0.15625,-0.1875,-0.125
483,483,1727197504471,0.099609375,0.5644531,-0.828125,0.15625,-0.0625,-0.1875
484,484,1727197504511,0.09375,0.57421875,-0.8330078,0.15625,0.125,0.0625
485,485,1727197504551,0.09765625,0.5859375,-0.8310547,0.03125,0.0,-0.1875
486,486,1727197504591,0.095703125,0.5830078,-0.84277344,0.09375,-0.0625,-0.1875
487,487,1727197504631,0.09667969,0.5732422,-0.83496094,0.21875,0.0625,-0.0625
488,488,1727197504671,0.1015625,0.5761719,-0.8359375,0.53125,0.125,0.0625
489,489,1727197504711,0.091796875,0.5761719,-0.8339844,0.21875,0.0,0.0625
490,490,1727197504751,0.09765625,0.5761719,-0.8232422,0.03125,0.0625,-0.0625
491,491,1727197504791,0.09765625,0.56640625,-0.8310547,0.03125,-0.1875,-0.0625
492,492,1727197504831,0.08300781,0.5703125,-0.8378906,0.21875,0.0625,0.0
493,493,1727197504871,0.09667969,0.5722656,-0.82714844,0.34375,0.0625,0.0
494,494,1727197504911,0.099609375,0.5751953,-0.828125,0.09375,-0.1875,-0.0625
495,495,1727197504951,0.10058594,0.57714844,-0.83984375,0.15625,0.0625,0.125
496,496,1727197504991,0.09082031,0.578125,-0.8466797,0.28125,0.0625,0.125
497,497,1727197505031,0.10449219,0.57128906,-0.84375,0.09375,-0.0625,-0.125
498,498,1727197505071,0.09667969,0.5732422,-0.81640625,0.09375,-0.0625,0.0625
499,499,1727197505111,0.095703125,0.5732422,-0.8408203,0.21875,-0.0625,0.0625
500,500,1727197505151,0.099609375,0.57421875,-0.82128906,0.21875,0.125,0.0625
501,501,1727197505191,0.09863281,0.5830078,-0.8408203,0.15625,0.0,0.0625
502,502,1727197505231,0.09765625,0.5722656,-0.8251953,0.15625,0.125,-0.125
503,503,1727197505271,0.09765625,0.5810547,-0.8378906,0.28125,-0.1875,-0.0625
504,504,1727197505311,0.08984375,0.5722656,-0.8378906,0.21875,0.1875,0.0
505,505,1727197505351,0.10253906,0.57421875,-0.8310547,0.09375,0.0,0.0
506,506,1727197505391,0.09472656,0.5654297,-0.8330078,0.03125,-0.1875,0.0625
507,507,1727197505431,0.09472656,0.5732422,-0.8359375,0.34375,0.125,0.0625
508,508,1727197505471,0.09667969,0.56347656,-0.8417969,0.46875,0.125,0.0
509,509,1727197505511,0.09277344,0.57421875,-0.8466797,0.15625,0.0625,-0.0625
510,510,1727197505551,0.08300781,0.5761719,-0.8466797,-0.03125,0.0,-0.0625
511,511,1727197505591,0.08984375,0.578125,-0.84375,0.09375,0.0,0.0
512,512,1727197505631,0.099609375,0.5761719,-0.84277344,0.15625,0.1875,0.0625
513,513,1727197505671,0.10644531,0.5654297,-0.8310547,0.15625,0.0625,0.125
514,514,1727197505711,0.09765625,0.5703125,-0.83984375,0.09375,0.0,-0.0625
515,515,1727197505751,0.09472656,0.5673828,-0.8339844,0.09375,0.0625,0.0
516,516,1727197505791,0.09863281,0.5732422,-0.8359375,0.21875,0.125,0.0625
517,517,1727197505831,0.09375,0.57128906,-0.8339844,-0.03125,-0.0625,-0.125
518,518,1727197505871,0.10449219,0.5751953,-0.83984375,0.03125,0.0625,-0.125
519,519,1727197505911,0.09863281,0.56640625,-0.8232422,0.03125,0.0625,-0.0625
520,520,1727197505951,0.08886719,0.56640625,-0.82714844,0.09375,0.125,0.0625
521,521,1727197505991,0.09765625,0.5722656,-0.82714844,-0.09375,0.0,0.0
522,522,1727197506031,0.10058594,0.5761719,-0.8408203,-0.15625,0.0,-0.125
523,523,1727197506071,0.10058594,0.56933594,-0.8203125,-0.09375,-0.125,-0.125
524,524,1727197506111,0.1015625,0.58203125,-0.8310547,0.15625,0.21875,0.25
525,525,1727197506151,0.08984375,0.5683594,-0.8408203,-0.21875,0.125,0.0
526,526,1727197506191,0.11328125,0.5722656,-0.8330078,-0.15625,0.0625,-0.0625
527,527,1727197506231,0.09667969,0.5703125,-0.8359375,-0.09375,0.1875,0.0625
528,528,1727197506271,0.10058594,0.57128906,-0.8466797,-0.03125,0.1875,0.1875
529,529,1727197506311,0.099609375,0.56933594,-0.8330078,-0.15625,0.0,0.0625
530,530,1727197506351,0.10058594,0.5732422,-0.8378906,-0.34375,0.0625,0.0625
531,531,1727197506391,0.09375,0.5761719,-0.8339844,-0.28125,0.125,0.0
532,532,1727197506431,0.09863281,0.56933594,-0.8388672,-0.28125,0.21875,0.125
533,533,1727197506471,0.1015625,0.57421875,-0.8232422,-0.21875,0.0625,0.125
534,534,1727197506511,0.095703125,0.5703125,-0.83496094,-0.21875,0.1875,0.0625
535,535,1727197506551,0.09765625,0.5761719,-0.8417969,-0.21875,0.0625,0.0625
536,536,1727197506591,0.095703125,0.5732422,-0.83691406,-0.03125,0.21875,-0.0625
537,537,1727197506631,0.099609375,0.5722656,-0.83496094,-0.15625,0.21875,0.0625
538,538,1727197506671,0.1015625,0.5722656,-0.83691406,-0.40625,0.0625,0.0
539,539,1727197506711,0.08886719,0.5722656,-0.8251953,-0.34375,0.0625,0.125
540,540,1727197506751,0.1015625,0.57910156,-0.8339844,-0.21875,0.28125,0.0625
541,541,1727197506791,0.09765625,0.5703125,-0.82714844,-0.34375,0.21875,0.1875
542,542,1727197506831,0.09765625,0.57714844,-0.8300781,-0.28125,0.0,0.0625
543,543,1727197506871,0.10546875,0.5732422,-0.8251953,-0.21875,0.0,0.0625
544,544,1727197506911,0.095703125,0.57128906,-0.82910156,-0.21875,0.28125,0.1875
545,545,1727197506951,0.09863281,0.5703125,-0.8388672,-0.34375,0.125,0.125
546,546,1727197506991,0.08984375,0.5761719,-0.8359375,-0.40625,0.0625,0.0
547,547,1727197507031,0.09765625,0.5751953,-0.8261719,-0.15625,0.1875,0.0625
548,548,1727197507071,0.099609375,0.57910156,-0.8261719,0.03125,0.28125,0.125
549,549,1727197507111,0.09863281,0.5761719,-0.8222656,-0.15625,0.0625,-0.125
550,550,1727197507151,0.10253906,0.57421875,-0.83984375,-0.34375,-0.125,-0.0625
551,551,1727197507191,0.09863281,0.57714844,-0.8232422,0.09375,0.125,-0.125
552,552,1727197507231,0.10253906,0.5800781,-0.8330078,0.21875,0.21875,0.0625
553,553,1727197507271,0.09765625,0.57421875,-0.84277344,0.28125,0.0,0.0625
554,554,1727197507311,0.09863281,0.57714844,-0.82910156,0.21875,0.0,-0.125
555,555,1727197507351,0.09082031,0.5732422,-0.83203125,0.28125,0.0,-0.0625
556,556,1727197507391,0.10253906,0.57714844,-0.8378906,0.21875,0.0625,0.0625
557,557,1727197507431,0.103515625,0.57128906,-0.82910156,0.09375,0.0,0.0
558,558,1727197507471,0.1015625,0.5761719,-0.83203125,0.15625,-0.125,0.0
559,559,1727197507511,0.107421875,0.5751953,-0.83203125,0.28125,0.1875,0.125
560,560,1727197507551,0.11328125,0.5654297,-0.8378906,0.34375,0.21875,-0.0625
561,561,1727197507591,0.09863281,0.5751953,-0.8388672,0.34375,0.0,-0.1875
562,562,1727197507631,0.1015625,0.5800781,-0.8261719,0.46875,0.0625,-0.0625
563,563,1727197507671,0.09375,0.5722656,-0.8486328,0.28125,0.0625,-0.125
564,564,1727197507711,0.10253906,0.5761719,-0.83203125,0.15625,-0.125,-0.1875
565,565,1727197507751,0.10546875,0.5859375,-0.8378906,0.03125,-0.1875,0.0
566,566,1727197507791,0.1015625,0.57714844,-0.8310547,0.59375,0.125,0.0
567,567,1727197507831,0.091796875,0.5751953,-0.8232422,0.46875,0.0625,-0.1875
568,568,1727197507871,0.09375,0.5751953,-0.8339844,0.40625,-0.125,-0.125
569,569,1727197507911,0.09765625,0.57421875,-0.8408203,0.21875,-0.125,-0.25
570,570,1727197507951,0.103515625,0.5810547,-0.81933594,0.15625,0.0625,-0.0625
571,571,1727197507991,0.10253906,0.5732422,-0.82421875,0.40625,0.125,0.125
572,572,1727197508031,0.10253906,0.5722656,-0.8378906,0.28125,-0.125,-0.0625
573,573,1727197508071,0.09667969,0.5703125,-0.828125,0.21875,0.0,-0.125
574,574,1727197508111,0.09765625,0.5722656,-0.83984375,0.28125,0.0,-0.125
575,575,1727197508151,0.1015625,0.57421875,-0.83203125,0.15625,-0.125,-0.0625
576,576,1727197508191,0.095703125,0.5732422,-0.83984375,0.15625,-0.0625,-0.0625
577,577,1727197508231,0.09375,0.578125,-0.8300781,0.15625,0.0,-0.1875
578,578,1727197508271,0.1015625,0.5722656,-0.82910156,0.21875,0.125,0.0
579,579,1727197508311,0.10058594,0.57421875,-0.83984375,0.15625,0.0,-0.0625
580,580,1727197508351,0.099609375,0.5761719,-0.84375,0.21875,0.0,-0.125
581,581,1727197508391,0.09863281,0.5810547,-0.83496094,0.34375,-0.25,-0.25
582,582,1727197508431,0.091796875,0.5761719,-0.82910156,0.34375,0.125,-0.0625
583,583,1727197508471,0.09863281,0.5703125,-0.8408203,0.34375,0.0625,-0.0625
584,584,1727197508511,0.099609375,0.5761719,-0.82421875,0.03125,-0.0625,-0.1875
585,585,1727197508551,0.107421875,0.57910156,-0.83496094,0.40625,0.125,-0.0625
586,586,1727197508591,0.09375,0.5732422,-0.8339844,0.34375,0.0,-0.0625
587,587,1727197508631,0.099609375,0.57421875,-0.8310547,0.40625,0.1875,0.0
588,588,1727197508671,0.109375,0.57910156,-0.8339844,-0.03125,0.0625,-0.1875
589,589,1727197508711,0.10058594,0.5751953,-0.8339844,0.03125,-0.0625,0.0
590,590,1727197508751,0.08984375,0.5654297,-0.83984375,0.21875,0.21875,0.0
591,591,1727197508791,0.09863281,0.57714844,-0.8339844,0.15625,0.0625,0.0
592,592,1727197508831,0.095703125,0.57421875,-0.8300781,0.21875,-0.125,0.0625
593,593,1727197508871,0.09765625,0.57128906,-0.8378906,0.15625,0.0625,-0.0625
594,594,1727197508911,0.1015625,0.56933594,-0.83691406,0.21875,0.125,-0.1875
595,595,1727197508951,0.09863281,0.578125,-0.84375,-0.03125,0.0625,-0.125
596,596,1727197508991,0.10058594,0.56933594,-0.8330078,0.03125,0.0625,0.0
597,597,1727197509031,0.10253906,0.56933594,-0.82910156,0.03125,0.125,-0.0625
598,598,1727197509071,0.10058594,0.5751953,-0.84277344,0.09375,0.125,-0.125
599,599,1727197509111,0.09863281,0.578125,-0.8339844,-0.03125,0.0625,-0.0625
600,600,1727197509151,0.095703125,0.56933594,-0.83691406,-0.09375,0.0625,0.0
601,601,1727197509191,0.10449219,0.5654297,-0.83984375,-0.15625,0.0,-0.1875
602,602,1727197509231,0.09472656,0.5703125,-0.8339844,0.21875,0.125,0.0625
603,603,1727197509271,0.1015625,0.56933594,-0.8359375,-0.21875,0.0625,0.0
604,604,1727197509311,0.09472656,0.57910156,-0.8388672,-0.15625,0.125,-0.1875
605,605,1727197509351,0.09472656,0.5751953,-0.8330078,-0.09375,0.0,-0.0625
606,606,1727197509391,0.095703125,0.5683594,-0.84277344,0.03125,0.0625,0.0
607,607,1727197509431,0.107421875,0.5722656,-0.8359375,0.03125,0.0625,0.0625
608,608,1727197509471,0.09863281,0.5761719,-0.8388672,-0.09375,0.0625,-0.0625
609,609,1727197509511,0.095703125,0.5761719,-0.8388672,-0.21875,-0.0625,-0.125
610,610,1727197509551,0.09667969,0.5800781,-0.8339844,-0.09375,0.21875,0.0625
611,611,1727197509591,0.08984375,0.5644531,-0.82910156,-0.03125,0.125,0.0625
612,612,1727197509631,0.095703125,0.5732422,-0.8300781,-0.09375,0.0,-0.125
613,613,1727197509671,0.1015625,0.57128906,-0.8408203,-0.03125,0.125,-0.0625
614,614,1727197509711,0.10546875,0.5859375,-0.8378906,-0.09375,0.21875,-0.0625
615,615,1727197509751,0.09667969,0.57421875,-0.8330078,0.03125,0.1875,0.0
616,616,1727197509791,0.103515625,0.5703125,-0.83984375,-0.21875,0.0625,-0.0625
617,617,1727197509831,0.10449219,0.58203125,-0.8310547,-0.21875,-0.0625,-0.0625
618,618,1727197509871,0.09472656,0.5839844,-0.8300781,-0.15625,0.03125,0.03125
619,619,1727197509911,0.09765625,0.57714844,-0.8310547,-0.34375,-0.03125,0.03125
620,620,1727197509951,0.09472656,0.57128906,-0.82128906,-0.21875,0.03125,-0.03125
621,621,1727197509991,0.10644531,0.5859375,-0.8300781,-0.28125,0.03125,-0.03125
622,622,1727197510031,0.103515625,0.57421875,-0.828125,-0.03125,-0.09375,0.09375
623,623,1727197510071,0.09472656,0.5722656,-0.8251953,-0.09375,0.21875,0.03125
624,624,1727197510111,0.099609375,0.58203125,-0.8359375,-0.21875,0.03125,-0.03125
625,625,1727197510151,0.103515625,0.57714844,-0.8359375,-0.21875,-0.09375,0.03125
626,626,1727197510191,0.099609375,0.578125,-0.8310547,0.09375,0.21875,0.09375
627,627,1727197510231,0.10449219,0.5839844,-0.8173828,-0.09375,0.28125,0.09375
628,628,1727197510271,0.10058594,0.58203125,-0.828125,-0.34375,0.03125,0.03125
629,629,1727197510311,0.095703125,0.58203125,-0.8330078,-0.46875,-0.09375,-0.15625
630,630,1727197510351,0.09765625,0.57714844,-0.828125,-0.28125,0.15625,0.09375
631,631,1727197510391,0.09667969,0.57714844,-0.82421875,-0.15625,0.15625,0.03125
632,632,1727197510431,0.10449219,0.5761719,-0.8339844,-0.28125,-0.03125,0.03125
633,633,1727197510471,0.09863281,0.58203125,-0.82910156,-0.15625,0.09375,0.15625
634,634,1727197510511,0.09863281,0.5810547,-0.83203125,-0.15625,-0.03125,-0.03125
635,635,1727197510551,0.09765625,0.5859375,-0.8251953,-0.34375,0.15625,0.03125
636,636,1727197510591,0.08886719,0.57421875,-0.83984375,-0.40625,-0.03125,0.03125
637,637,1727197510631,0.103515625,0.5830078,-0.828125,-0.40625,-0.03125,-0.09375
638,638,1727197510671,0.10644531,0.5722656,-0.8095703,-0.15625,0.09375,0.03125
639,639,1727197510711,0.09863281,0.578125,-0.8261719,-0.28125,0.15625,0.03125
640,640,1727197510751,0.09375,0.57910156,-0.82128906,-0.09375,0.03125,-0.09375
641,641,1727197510791,0.10253906,0.5761719,-0.83691406,0.03125,-0.15625,-0.09375
642,642,1727197510831,0.09765625,0.5732422,-0.82714844,0.15625,0.15625,-0.03125
643,643,1727197510871,0.103515625,0.58691406,-0.8173828,-0.03125,-0.15625,-0.09375
644,644,1727197510911,0.11328125,0.5761719,-0.8339844,0.09375,-0.09375,-0.03125
645,645,1727197510951,0.103515625,0.5830078,-0.82421875,0.4375,-0.03125,0.03125
646,646,1727197510991,0.099609375,0.5859375,-0.8339844,0.375,-0.03125,0.03125
647,647,1727197511031,0.09765625,0.57910156,-0.83691406,0.3125,-0.09375,-0.21875
648,648,1727197511071,0.10449219,0.5839844,-0.83203125,0.3125,-0.28125,-0.28125
649,649,1727197511111,0.10839844,0.57714844,-0.8310547,0.21875,-0.21875,-0.03125
650,650,1727197511151,0.1015625,0.57910156,-0.8300781,0.3125,-0.03125,0.03125
651,651,1727197511191,0.10058594,0.5800781,-0.8359375,0.25,-0.15625,-0.09375
652,652,1727197511231,0.09765625,0.5830078,-0.8388672,0.25,-0.15625,-0.15625
653,653,1727197511271,0.10058594,0.5810547,-0.8359375,0.4375,-0.15625,-0.03125
654,654,1727197511311,0.10644531,0.57910156,-0.8339844,0.3125,-0.09375,-0.03125
655,655,1727197511351,0.09667969,0.56933594,-0.83203125,0.21875,-0.09375,-0.09375
656,656,1727197511391,0.10253906,0.5751953,-0.8251953,0.21875,-0.21875,-0.15625
657,657,1727197511431,0.10253906,0.5761719,-0.828125,0.4375,0.09375,-0.09375
658,658,1727197511471,0.1015625,0.5722656,-0.8251953,0.21875,-0.03125,0.03125
659,659,1727197511511,0.09863281,0.57714844,-0.8457031,0.3125,-0.09375,-0.03125
660,660,1727197511551,0.099609375,0.5761719,-0.82910156,0.3125,-0.40625,-0.09375
661,661,1727197511591,0.09375,0.5800781,-0.8300781,0.25,0.15625,0.09375
662,662,1727197511631,0.10644531,0.56933594,-0.8330078,0.25,-0.09375,-0.09375
663,663,1727197511671,0.10449219,0.5703125,-0.8408203,0.09375,-0.09375,-0.03125
664,664,1727197511711,0.09375,0.5673828,-0.84277344,0.4375,-0.03125,-0.03125
665,665,1727197511751,0.10449219,0.5722656,-0.8251953,0.3125,-0.03125,-0.03125
666,666,1727197511791,0.10058594,0.57910156,-0.82910156,0.375,-0.09375,-0.09375
667,667,1727197511831,0.10546875,0.57128906,-0.8359375,0.09375,-0.09375,-0.15625
668,668,1727197511871,0.09667969,0.57421875,-0.83203125,0.15625,-0.03125,0.03125
669,669,1727197511911,0.083984375,0.5830078,-0.8310547,0.375,0.03125,-0.09375
670,670,1727197511951,0.10644531,0.5761719,-0.8251953,0.15625,-0.09375,0.03125
671,671,1727197511991,0.10058594,0.58203125,-0.8378906,0.21875,-0.15625,-0.03125
672,672,1727197512031,0.09863281,0.578125,-0.83203125,0.21875,-0.21875,0.03125
673,673,1727197512071,0.107421875,0.5703125,-0.8261719,0.21875,-0.09375,-0.09375
674,674,1727197512111,0.10058594,0.578125,-0.8251953,0.09375,-0.09375,-0.03125
675,675,1727197512151,0.103515625,0.57128906,-0.82421875,0.15625,-0.03125,-0.03125
676,676,1727197512191,0.1015625,0.5761719,-0.828125,0.21875,-0.03125,-0.09375
677,677,1727197512231,0.09863281,0.5732422,-0.82910156,0.3125,0.03125,0.03125
678,678,1727197512271,0.10253906,0.5722656,-0.828125,0.15625,-0.15625,-0.15625
679,679,1727197512311,0.09667969,0.5722656,-0.82714844,0.21875,-0.15625,-0.03125
680,680,1727197512351,0.103515625,0.5761719,-0.83691406,0.15625,-0.28125,-0.09375
681,681,1727197512391,0.08886719,0.5761719,-0.84277344,0.375,0.03125,0.09375
682,682,1727197512431,0.09472656,0.57910156,-0.83691406,0.21875,-0.15625,-0.09375
683,683,1727197512471,0.09375,0.57714844,-0.8388672,0.03125,-0.21875,-0.03125
684,684,1727197512511,0.111328125,0.5751953,-0.8359375,0.21875,-0.21875,-0.03125
685,685,1727197512551,0.10449219,0.57128906,-0.8203125,0.375,0.15625,0.03125
686,686,1727197512591,0.109375,0.5673828,-0.8408203,0.25,-0.15625,-0.15625
687,687,1727197512631,0.099609375,0.57910156,-0.8359375,0.15625,0.09375,-0.03125
688,688,1727197512671,0.095703125,0.5683594,-0.8261719,0.15625,-0.09375,-0.09375
689,689,1727197512711,0.107421875,0.57714844,-0.8408203,0.21875,0.28125,-0.03125
690,690,1727197512751,0.095703125,0.5703125,-0.82714844,0.03125,-0.03125,0.03125
691,691,1727197512791,0.091796875,0.57714844,-0.83496094,0.03125,-0.09375,-0.09375
692,692,1727197512831,0.09277344,0.57421875,-0.83984375,0.03125,-0.09375,-0.03125
693,693,1727197512871,0.099609375,0.58203125,-0.8251953,0.03125,-0.09375,0.09375
694,694,1727197512911,0.099609375,0.578125,-0.8417969,-0.09375,-0.03125,-0.03125
695,695,1727197512951,0.099609375,0.5722656,-0.8300781,-0.15625,-0.15625,-0.09375
696,696,1727197512991,0.095703125,0.58203125,-0.8300781,0.03125,0.03125,0.03125
697,697,1727197513031,0.095703125,0.57421875,-0.8251953,0.03125,0.03125,0.03125
698,698,1727197513071,0.103515625,0.57714844,-0.8330078,-0.21875,-0.03125,0.09375
699,699,1727197513111,0.10058594,0.5703125,-0.83691406,-0.21875,-0.21875,-0.03125
700,700,1727197513151,0.09277344,0.5732422,-0.8417969,-0.09375,-0.03125,0.09375
701,701,1727197513191,0.09472656,0.5732422,-0.8359375,-0.03125,-0.21875,0.03125
702,702,1727197513231,0.09863281,0.5751953,-0.8359375,0.03125,0.09375,-0.09375
703,703,1727197513271,0.09277344,0.57421875,-0.8378906,-0.15625,0.09375,-0.03125
704,704,1727197513311,0.09472656,0.5761719,-0.83984375,-0.15625,0.09375,-0.09375
705,705,1727197513351,0.10253906,0.5732422,-0.8339844,-0.09375,0.03125,-0.03125
706,706,1727197513391,0.09863281,0.5751953,-0.84277344,0.03125,-0.09375,0.09375
707,707,1727197513431,0.10058594,0.57128906,-0.8232422,-0.15625,0.03125,-0.03125
708,708,1727197513471,0.09765625,0.56933594,-0.8378906,-0.21875,0.03125,-0.21875
709,709,1727197513511,0.103515625,0.56933594,-0.8359375,-0.21875,-0.09375,-0.09375
710,710,1727197513551,0.09082031,0.5722656,-0.8417969,-0.09375,0.34375,0.09375
711,711,1727197513591,0.107421875,0.5654297,-0.82421875,-0.03125,0.09375,-0.03125
712,712,1727197513631,0.1015625,0.5732422,-0.828125,-0.21875,-0.03125,0.09375
713,713,1727197513671,0.10058594,0.5810547,-0.8251953,-0.15625,0.03125,0.09375
714,714,1727197513711,0.099609375,0.57421875,-0.8359375,-0.15625,0.03125,-0.03125
715,715,1727197513751,0.103515625,0.5644531,-0.8310547,-0.34375,-0.09375,-0.03125
716,716,1727197513791,0.099609375,0.57714844,-0.83496094,-0.28125,0.09375,0.09375
717,717,1727197513831,0.09765625,0.5800781,-0.8378906,-0.40625,-0.03125,0.09375
718,718,1727197513871,0.10253906,0.5751953,-0.83203125,-0.28125,0.15625,0.03125
719,719,1727197513911,0.10253906,0.57421875,-0.8359375,-0.28125,0.15625,0.03125
720,720,1727197513951,0.11328125,0.57421875,-0.8359375,-0.09375,0.15625,-0.09375
721,721,1727197513991,0.1015625,0.57714844,-0.8300781,0.03125,-0.09375,-0.03125
722,722,1727197514031,0.1015625,0.5732422,-0.81933594,-0.15625,0.21875,0.09375
723,723,1727197514071,0.10839844,0.5761719,-0.8330078,-0.21875,-0.21875,-0.09375
724,724,1727197514111,0.10839844,0.56933594,-0.8339844,-0.03125,-0.03125,-0.15625
725,725,1727197514151,0.10253906,0.57910156,-0.83496094,0.375,0.09375,0.03125
726,726,1727197514191,0.099609375,0.5810547,-0.8310547,0.3125,0.03125,-0.03125
727,727,1727197514231,0.103515625,0.57910156,-0.8330078,0.03125,-0.21875,-0.09375
728,728,1727197514271,0.09765625,0.57128906,-0.8144531,0.09375,-0.09375,-0.15625
729,729,1727197514311,0.091796875,0.5839844,-0.82128906,0.25,0.03125,0.03125
730,730,1727197514351,0.09375,0.5722656,-0.83496094,0.25,-0.03125,-0.09375
731,731,1727197514391,0.10058594,0.578125,-0.82714844,0.15625,-0.15625,-0.03125
732,732,1727197514431,0.10839844,0.57714844,-0.8408203,0.09375,-0.21875,-0.03125
733,733,1727197514471,0.099609375,0.57128906,-0.82128906,0.21875,-0.15625,-0.21875
734,734,1727197514511,0.10253906,0.578125,-0.8330078,0.21875,-0.15625,-0.03125
735,735,1727197514551,0.1015625,0.57421875,-0.8300781,0.15625,-0.09375,0.03125
736,736,1727197514591,0.09765625,0.57714844,-0.83203125,0.21875,-0.03125,-0.15625
737,737,1727197514631,0.109375,0.57714844,-0.8300781,0.4375,0.09375,0.03125
738,738,1727197514671,0.1015625,0.5800781,-0.8388672,0.25,0.03125,-0.03125
739,739,1727197514711,0.10644531,0.5732422,-0.82421875,0.3125,-0.21875,-0.15625
740,740,1727197514751,0.09765625,0.5810547,-0.83203125,0.375,-0.21875,-0.09375
741,741,1727197514791,0.10253906,0.5751953,-0.8310547,0.09375,-0.03125,-0.03125
742,742,1727197514831,0.10546875,0.57128906,-0.8300781,0.09375,-0.03125,-0.09375
743,743,1727197514871,0.10253906,0.5761719,-0.8300781,0.09375,-0.21875,0.03125
744,744,1727197514911,0.10058594,0.5839844,-0.8251953,0.375,-0.03125,-0.03125
745,745,1727197514951,0.09863281,0.5800781,-0.84375,0.3125,0.15625,-0.03125
746,746,1727197514991,0.09667969,0.5839844,-0.84375,0.15625,-0.03125,-0.15625
747,747,1727197515031,0.099609375,0.57128906,-0.8378906,0.15625,-0.21875,-0.15625
748,748,1727197515071,0.087890625,0.5703125,-0.8408203,0.15625,-0.03125,0.03125
749,749,1727197515111,0.1015625,0.57128906,-0.82421875,0.21875,0.03125,-0.15625
750,750,1727197515151,0.1015625,0.5761719,-0.8359375,0.03125,-0.21875,-0.15625
751,751,1727197515191,0.103515625,0.5722656,-0.8300781,0.21875,-0.09375,-0.15625
752,752,1727197515231,0.09375,0.5751953,-0.84472656,0.21875,-0.15625,0.09375
753,753,1727197515271,0.103515625,0.57421875,-0.82421875,0.15625,-0.15625,-0.03125
754,754,1727197515311,0.107421875,0.57910156,-0.8300781,0.15625,-0.03125,-0.09375
755,755,1727197515351,0.09863281,0.57421875,-0.82910156,0.09375,0.09375,-0.03125
756,756,1727197515391,0.08984375,0.5654297,-0.83496094,0.21875,0.03125,0.09375
