,Unnamed: 0,timestamp,accel_x,accel_y,accel_z,gyro_x,gyro_y,gyro_z
0,0,1729185686563,0.046875,0.08105469,1.0195312,0.375,-0.09375,-0.5
1,1,1729185686603,0.040039062,0.08691406,1.0205078,0.375,0.09375,-0.75
2,2,1729185686643,0.041992188,0.08300781,1.0175781,0.5625,0.15625,-0.625
3,3,1729185686683,0.038085938,0.08300781,1.0292969,0.25,0.03125,-0.6875
4,4,1729185686723,0.044921875,0.08203125,1.0351562,0.4375,-0.03125,-0.75
5,5,1729185686763,0.046875,0.08886719,1.0224609,0.4375,0.09375,-0.5625
6,6,1729185686803,0.045898438,0.08203125,1.0371094,0.375,0.03125,-0.625
7,7,1729185686843,0.046875,0.06738281,1.0205078,0.25,-0.03125,-0.6875
8,8,1729185686883,0.047851562,0.076171875,1.0332031,0.125,-0.09375,-0.6875
9,9,1729185686923,0.038085938,0.08496094,1.0234375,0.3125,-0.15625,-0.5625
10,10,1729185686963,0.047851562,0.087890625,1.0322266,0.6875,-0.21875,-0.5
11,11,1729185687003,0.05078125,0.08886719,1.0273438,1.15625,-0.09375,-0.625
12,12,1729185687043,0.046875,0.08105469,1.0302734,1.09375,-0.15625,-0.625
13,13,1729185687083,0.043945312,0.08105469,1.0341797,0.625,0.21875,-0.5625
14,14,1729185687123,0.051757812,0.07714844,1.0234375,0.375,0.09375,-0.6875
15,15,1729185687163,0.04296875,0.07519531,1.0273438,0.6875,0.46875,-0.75
16,16,1729185687203,0.044921875,0.0859375,1.0244141,1.09375,0.09375,-0.5625
17,17,1729185687243,0.044921875,0.078125,1.0185547,1.09375,0.21875,-0.625
18,18,1729185687283,0.043945312,0.09277344,1.0283203,1.21875,0.28125,-0.6875
19,19,1729185687323,0.04296875,0.083984375,1.0244141,1.09375,0.15625,-0.5625
20,20,1729185687363,0.049804688,0.06933594,1.0302734,0.8125,-0.03125,-0.6875
21,21,1729185687403,0.041992188,0.08886719,1.0283203,0.5625,-0.21875,-0.6875
22,22,1729185687443,0.04296875,0.07519531,1.0175781,0.375,-0.03125,-0.6875
23,23,1729185687483,0.049804688,0.08691406,1.0283203,0.375,0.03125,-0.625
24,24,1729185687523,0.04296875,0.08496094,1.0322266,0.1875,0.21875,-0.625
25,25,1729185687563,0.046875,0.08496094,1.0410156,0.1875,0.21875,-0.625
26,26,1729185687603,0.04296875,0.083984375,1.0253906,0.1875,0.09375,-0.5625
27,27,1729185687643,0.041992188,0.08105469,1.0292969,0.3125,0.09375,-0.5
28,28,1729185687683,0.0390625,0.078125,1.0351562,0.625,0.09375,-0.75
29,29,1729185687723,0.044921875,0.08300781,1.0224609,0.8125,0.03125,-0.6875
30,30,1729185687763,0.05078125,0.083984375,1.0273438,0.625,0.15625,-0.6875
31,31,1729185687803,0.048828125,0.076171875,1.0292969,0.625,0.09375,-0.8125
32,32,1729185687843,0.044921875,0.08886719,1.0332031,0.6875,0.03125,-0.625
33,33,1729185687883,0.041015625,0.083984375,1.0273438,0.5625,-0.03125,-0.75
34,34,1729185687923,0.04296875,0.07519531,1.0117188,0.4375,-0.09375,-0.6875
35,35,1729185687963,0.034179688,0.08105469,1.0244141,0.5625,0.09375,-0.8125
36,36,1729185688003,0.0546875,0.07519531,1.0175781,0.25,0.03125,-0.625
37,37,1729185688043,0.044921875,0.083984375,1.0292969,0.375,0.09375,-0.5
38,38,1729185688083,0.04296875,0.0859375,1.0263672,0.375,0.09375,-0.5625
39,39,1729185688123,0.048828125,0.087890625,1.0273438,0.4375,0.09375,-0.6875
40,40,1729185688163,0.043945312,0.08691406,1.0322266,0.375,0.09375,-0.6875
41,41,1729185688203,0.040039062,0.07128906,1.0253906,0.5625,0.03125,-0.5
42,42,1729185688243,0.052734375,0.08300781,1.0390625,0.5625,0.15625,-0.625
43,43,1729185688283,0.052734375,0.08984375,1.0214844,0.4375,0.03125,-0.6875
44,44,1729185688323,0.03515625,0.087890625,1.0410156,0.5,0.09375,-0.625
45,45,1729185688363,0.040039062,0.087890625,1.0253906,0.4375,0.03125,-0.5
46,46,1729185688403,0.047851562,0.078125,1.0341797,0.4375,-0.03125,-0.6875
47,47,1729185688443,0.03515625,0.08203125,1.0205078,0.5,0.09375,-0.625
48,48,1729185688483,0.047851562,0.083984375,1.0273438,0.5625,0.09375,-0.625
49,49,1729185688523,0.0390625,0.087890625,1.0253906,0.5625,0.09375,-0.625
50,50,1729185688563,0.04296875,0.083984375,1.0234375,0.5,0.03125,-0.625
51,51,1729185688603,0.038085938,0.08203125,1.0136719,0.5,0.03125,-0.625
52,52,1729185688643,0.043945312,0.08300781,1.0146484,0.5,0.03125,-0.6875
53,53,1729185688683,0.04296875,0.07910156,1.0283203,0.375,0.09375,-0.625
54,54,1729185688723,0.040039062,0.083984375,1.0117188,0.3125,0.03125,-0.625
55,55,1729185688763,0.038085938,0.087890625,1.015625,0.5625,0.03125,-0.6875
56,56,1729185688803,0.049804688,0.083984375,1.0126953,0.3125,0.03125,-0.5625
57,57,1729185688843,0.037109375,0.07714844,1.0244141,0.4375,0.15625,-0.5625
58,58,1729185688883,0.043945312,0.07910156,1.0253906,0.375,0.03125,-0.625
59,59,1729185688923,0.046875,0.08300781,1.0292969,0.4375,0.03125,-0.625
60,60,1729185688963,0.038085938,0.08300781,1.0224609,0.5,-0.03125,-0.6875
61,61,1729185689003,0.041992188,0.08203125,1.0332031,0.5,0.03125,-0.8125
62,62,1729185689043,0.047851562,0.08105469,1.0146484,0.25,0.15625,-0.625
63,63,1729185689083,0.046875,0.076171875,1.0185547,0.375,0.15625,-0.75
64,64,1729185689123,0.041992188,0.07519531,1.0283203,0.375,-0.09375,-0.75
65,65,1729185689163,0.040039062,0.078125,1.0253906,0.5,0.03125,-0.625
66,66,1729185689203,0.044921875,0.0859375,1.03125,0.375,0.09375,-0.6875
67,67,1729185689243,0.046875,0.07519531,1.0117188,0.5,0.09375,-0.625
68,68,1729185689283,0.052734375,0.07324219,1.0146484,0.375,0.03125,-0.5625
69,69,1729185689323,0.046875,0.07714844,1.0292969,0.4375,-0.03125,-0.6875
70,70,1729185689363,0.043945312,0.083984375,1.0361328,0.4375,0.15625,-0.75
71,71,1729185689403,0.045898438,0.08105469,1.0146484,0.5,-0.03125,-0.625
72,72,1729185689443,0.04296875,0.08300781,1.0322266,0.5,0.03125,-0.5
73,73,1729185689483,0.041015625,0.078125,1.0224609,0.375,-0.03125,-0.625
74,74,1729185689523,0.049804688,0.08105469,1.0234375,0.4375,0.09375,-0.625
75,75,1729185689563,0.05078125,0.083984375,1.0136719,0.5,0.03125,-0.6875
76,76,1729185689603,0.048828125,0.083984375,1.0253906,0.4375,0.03125,-0.5625
77,77,1729185689643,0.045898438,0.080078125,1.0302734,0.4375,0.09375,-0.5625
78,78,1729185689683,0.048828125,0.080078125,1.0273438,0.375,0.03125,-0.5625
79,79,1729185689723,0.041992188,0.07324219,1.0214844,0.4375,0.15625,-0.5
80,80,1729185689763,0.043945312,0.080078125,1.0205078,0.4375,0.09375,-0.625
81,81,1729185689803,0.047851562,0.080078125,1.0322266,0.5625,0.03125,-0.75
82,82,1729185689843,0.040039062,0.08105469,1.0234375,0.5625,0.09375,-0.5
83,83,1729185689883,0.041992188,0.08203125,1.0185547,0.5625,0.15625,-0.5
84,84,1729185689923,0.043945312,0.083984375,1.0195312,0.625,0.03125,-0.6875
85,85,1729185689963,0.045898438,0.08300781,1.0234375,0.5625,0.03125,-0.75
86,86,1729185690003,0.047851562,0.083984375,1.0292969,0.4375,0.09375,-0.6875
87,87,1729185690043,0.04296875,0.083984375,1.0302734,0.625,0.15625,-0.6875
88,88,1729185690083,0.048828125,0.0859375,1.0185547,0.625,0.03125,-0.75
89,89,1729185690123,0.04296875,0.08691406,1.0410156,0.5625,0.09375,-0.6875
90,90,1729185690163,0.044921875,0.083984375,1.0273438,0.5,0.15625,-0.875
91,91,1729185690203,0.041015625,0.08105469,1.0410156,0.625,0.15625,-0.5625
92,92,1729185690243,0.043945312,0.07519531,1.0283203,0.5625,0.21875,-0.625
93,93,1729185690283,0.0390625,0.087890625,1.0341797,0.4375,0.09375,-0.6875
94,94,1729185690323,0.04296875,0.0859375,1.0048828,0.5625,0.15625,-0.5625
95,95,1729185690363,0.047851562,0.083984375,1.0371094,0.5625,0.09375,-0.5625
96,96,1729185690403,0.046875,0.083984375,1.0273438,0.5,0.28125,-0.625
97,97,1729185690443,0.046875,0.08105469,1.0253906,0.5625,0.09375,-0.6875
98,98,1729185690483,0.043945312,0.08984375,1.0263672,0.5625,0.03125,-0.6875
99,99,1729185690523,0.036132812,0.08300781,1.0253906,0.5625,0.03125,-0.625
100,100,1729185690563,0.048828125,0.083984375,1.0205078,0.5,0.21875,-0.625
101,101,1729185690603,0.037109375,0.08886719,1.0380859,0.625,0.09375,-0.625
102,102,1729185690643,0.048828125,0.083984375,1.0380859,0.5,0.03125,-0.625
103,103,1729185690683,0.041992188,0.08105469,1.0185547,0.625,0.09375,-0.5625
104,104,1729185690723,0.044921875,0.07324219,1.0400391,0.625,0.15625,-0.6875
105,105,1729185690763,0.047851562,0.08886719,1.0195312,0.5625,0.03125,-0.625
106,106,1729185690803,0.034179688,0.08691406,1.0400391,0.4375,0.09375,-0.75
107,107,1729185690843,0.047851562,0.076171875,1.0302734,0.4375,0.15625,-0.5625
108,108,1729185690883,0.0390625,0.07910156,1.0283203,0.5,0.15625,-0.625
109,109,1729185690923,0.041992188,0.08300781,1.0175781,0.6875,0.03125,-0.5
110,110,1729185690963,0.034179688,0.08984375,1.0253906,0.5,0.09375,-0.875
111,111,1729185691003,0.049804688,0.0859375,1.0244141,0.5,0.09375,-0.6875
112,112,1729185691043,0.047851562,0.08984375,1.0292969,0.375,0.09375,-0.5
113,113,1729185691083,0.0390625,0.08691406,1.0273438,0.5,0.09375,-0.5625
114,114,1729185691123,0.041992188,0.07128906,1.0322266,0.5,-0.03125,-0.75
115,115,1729185691163,0.048828125,0.083984375,1.0195312,0.5625,0.03125,-0.75
116,116,1729185691203,0.048828125,0.080078125,1.0244141,0.625,0.21875,-0.75
117,117,1729185691243,0.047851562,0.08886719,1.0292969,0.625,0.15625,-0.5625
118,118,1729185691283,0.044921875,0.087890625,1.0400391,0.5,0.03125,-0.625
119,119,1729185691323,0.049804688,0.078125,1.0224609,0.5,0.21875,-0.625
120,120,1729185691363,0.046875,0.07910156,1.0253906,0.5,0.15625,-0.5625
121,121,1729185691403,0.043945312,0.09082031,1.0205078,0.4375,-0.03125,-0.6875
122,122,1729185691443,0.040039062,0.08300781,1.0195312,0.375,0.09375,-0.625
123,123,1729185691483,0.0390625,0.08300781,1.0244141,0.5,0.09375,-0.6875
124,124,1729185691523,0.053710938,0.08105469,1.0205078,0.5,0.09375,-0.625
125,125,1729185691563,0.04296875,0.08496094,1.0234375,0.375,0.09375,-0.6875
126,126,1729185691603,0.05078125,0.08105469,1.015625,0.4375,0.09375,-0.625
127,127,1729185691643,0.043945312,0.0859375,1.015625,0.5,-0.09375,-0.625
128,128,1729185691683,0.043945312,0.08105469,1.0244141,0.3125,-0.09375,-0.6875
129,129,1729185691723,0.044921875,0.08496094,1.0292969,0.25,-0.03125,-0.625
130,130,1729185691763,0.043945312,0.07714844,1.0224609,0.4375,-0.03125,-0.5625
131,131,1729185691803,0.045898438,0.083984375,1.0341797,0.375,0.03125,-0.5625
132,132,1729185691843,0.041015625,0.08496094,1.03125,0.5625,0.03125,-0.75
133,133,1729185691883,0.043945312,0.08886719,1.0214844,0.5625,0.09375,-0.75
134,134,1729185691923,0.051757812,0.08203125,1.0195312,0.25,0.03125,-0.6875
135,135,1729185691963,0.047851562,0.078125,1.0224609,0.25,-0.03125,-0.625
136,136,1729185692003,0.040039062,0.07324219,1.0322266,0.6875,0.03125,-0.625
137,137,1729185692043,0.043945312,0.078125,1.0341797,0.4375,-0.03125,-0.625
138,138,1729185692083,0.043945312,0.076171875,1.03125,0.375,0.03125,-0.625
139,139,1729185692123,0.047851562,0.087890625,1.0224609,0.3125,-0.03125,-0.5
140,140,1729185692163,0.045898438,0.080078125,1.0283203,0.375,0.03125,-0.625
141,141,1729185692203,0.05078125,0.08105469,1.0195312,0.375,0.03125,-0.625
142,142,1729185692243,0.0546875,0.076171875,1.0146484,0.4375,-0.09375,-0.75
143,143,1729185692283,0.04296875,0.08300781,1.0380859,0.375,-0.03125,-0.6875
144,144,1729185692323,0.049804688,0.08105469,1.0253906,0.3125,0.03125,-0.5625
145,145,1729185692363,0.049804688,0.08300781,1.0253906,-0.03125,0.03125,-0.0625
146,146,1729185692403,0.04296875,0.068359375,1.0195312,-0.03125,-0.03125,-0.0625
147,147,1729185692443,0.047851562,0.08105469,1.0224609,0.03125,-0.09375,0.0
148,148,1729185692483,0.048828125,0.076171875,1.0166016,0.09375,-0.03125,0.0
149,149,1729185692523,0.041992188,0.07910156,1.0273438,-0.03125,0.03125,0.0
150,150,1729185692563,0.040039062,0.08984375,1.0166016,0.09375,-0.03125,-0.125
151,151,1729185692603,0.044921875,0.0859375,1.0,0.09375,0.03125,0.0
152,152,1729185692643,0.049804688,0.07324219,1.0214844,-0.03125,0.03125,0.1875
153,153,1729185692683,0.049804688,0.083984375,1.0322266,-0.09375,0.03125,0.0625
154,154,1729185692723,0.046875,0.083984375,1.0253906,-0.03125,-0.15625,-0.0625
155,155,1729185692763,0.041015625,0.08300781,1.0244141,0.03125,-0.03125,0.125
156,156,1729185692803,0.041992188,0.09277344,1.0244141,0.03125,-0.03125,0.125
157,157,1729185692843,0.053710938,0.080078125,1.0224609,0.03125,-0.03125,0.0625
158,158,1729185692883,0.041992188,0.08886719,1.0185547,0.03125,0.09375,-0.0625
159,159,1729185692923,0.041992188,0.08496094,1.0273438,-0.03125,-0.03125,0.0625
160,160,1729185692963,0.046875,0.080078125,1.0292969,0.09375,-0.03125,0.0
161,161,1729185693003,0.045898438,0.078125,1.0253906,0.21875,-0.03125,0.0
162,162,1729185693043,0.040039062,0.08300781,1.0332031,0.09375,-0.03125,0.0
163,163,1729185693083,0.047851562,0.080078125,1.0195312,0.09375,0.03125,0.0
164,164,1729185693123,0.04296875,0.07519531,1.0458984,0.21875,0.15625,-0.125
165,165,1729185693163,0.04296875,0.08886719,1.0283203,0.09375,-0.03125,0.0
166,166,1729185693203,0.045898438,0.08886719,1.0283203,0.21875,0.09375,-0.0625
167,167,1729185693243,0.034179688,0.0859375,1.0214844,0.28125,-0.03125,0.125
168,168,1729185693283,0.046875,0.08886719,1.0302734,0.21875,-0.03125,-0.0625
169,169,1729185693323,0.040039062,0.08984375,1.0283203,0.03125,-0.03125,0.0625
170,170,1729185693363,0.046875,0.08203125,1.0283203,0.03125,0.03125,-0.0625
171,171,1729185693403,0.05078125,0.080078125,1.0126953,-0.3125,0.09375,0.5
172,172,1729185693443,0.0546875,0.08984375,1.0292969,-0.3125,-0.25,0.5
173,173,1729185693483,0.044921875,0.087890625,1.0263672,-0.3125,-0.09375,0.5
174,174,1729185693523,0.0546875,0.08984375,1.0292969,-0.25,0.03125,0.5
175,175,1729185693563,0.044921875,0.078125,1.0351562,-0.25,-0.03125,0.5625
176,176,1729185693603,0.048828125,0.07519531,1.0195312,-0.3125,-0.09375,0.5
177,177,1729185693643,0.044921875,0.08496094,1.0322266,-0.3125,0.03125,0.6875
178,178,1729185693683,0.040039062,0.08105469,1.0253906,-0.4375,-0.09375,0.5625
179,179,1729185693723,0.052734375,0.07421875,1.0292969,-0.4375,-0.09375,0.4375
180,180,1729185693763,0.051757812,0.07910156,1.0244141,-0.25,-0.03125,0.625
181,181,1729185693803,0.041015625,0.087890625,1.0224609,-0.25,0.09375,0.625
182,182,1729185693843,0.049804688,0.078125,1.0263672,-0.3125,-0.09375,0.5625
183,183,1729185693883,0.044921875,0.0859375,1.0214844,-0.375,-0.03125,0.6875
184,184,1729185693923,0.03515625,0.08105469,1.0273438,-0.3125,-0.03125,0.8125
185,185,1729185693963,0.044921875,0.0859375,1.0234375,-0.25,0.03125,0.4375
186,186,1729185694003,0.04296875,0.0859375,1.0244141,-0.375,-0.15625,0.625
187,187,1729185694043,0.043945312,0.083984375,1.0224609,-0.3125,-0.21875,0.625
188,188,1729185694083,0.043945312,0.083984375,1.0205078,-0.375,-0.21875,0.6875
189,189,1729185694123,0.048828125,0.08691406,1.0234375,-0.375,-0.09375,0.625
190,190,1729185694163,0.036132812,0.087890625,1.03125,-0.4375,-0.15625,0.625
191,191,1729185694203,0.04296875,0.08105469,1.0263672,-0.375,-0.03125,0.6875
192,192,1729185694243,0.043945312,0.087890625,1.0214844,-0.375,-0.09375,0.5625
193,193,1729185694283,0.045898438,0.08691406,1.0341797,-0.25,-0.03125,0.625
194,194,1729185694323,0.041992188,0.087890625,1.0205078,-0.375,-0.09375,0.625
195,195,1729185694363,0.0390625,0.08496094,1.0234375,-0.375,-0.09375,0.6875
196,196,1729185694403,0.056640625,0.08984375,1.0351562,-0.375,-0.09375,0.4375
197,197,1729185694443,0.040039062,0.08300781,1.0302734,-0.375,-0.09375,0.5625
198,198,1729185694483,0.047851562,0.07910156,1.0332031,-0.3125,-0.03125,0.625
199,199,1729185694523,0.048828125,0.07714844,1.0263672,-0.5625,-0.21875,0.5
200,200,1729185694563,0.041992188,0.0859375,1.0214844,-0.25,-0.03125,0.625
201,201,1729185694603,0.04296875,0.09277344,1.0146484,-0.5,-0.09375,0.625
202,202,1729185694643,0.036132812,0.07910156,1.0244141,-0.3125,-0.03125,0.625
203,203,1729185694683,0.043945312,0.08203125,1.0302734,-0.375,-0.03125,0.5625
204,204,1729185694723,0.0390625,0.083984375,1.0195312,-0.375,-0.09375,0.5
205,205,1729185694763,0.041992188,0.08203125,1.0205078,-0.5,-0.09375,0.5625
206,206,1729185694803,0.033203125,0.08300781,1.0224609,-0.25,0.03125,0.5
207,207,1729185694843,0.041992188,0.08691406,1.0263672,-0.375,-0.09375,0.625
208,208,1729185694883,0.05078125,0.072265625,1.0185547,-0.375,-0.09375,0.5625
209,209,1729185694923,0.043945312,0.08105469,1.0361328,-0.3125,-0.21875,0.625
210,210,1729185694963,0.043945312,0.08984375,1.0351562,-0.4375,-0.15625,0.6875
211,211,1729185695003,0.046875,0.07910156,1.0351562,-0.4375,-0.15625,0.5625
212,212,1729185695043,0.041992188,0.09277344,1.0371094,-0.3125,-0.15625,0.625
213,213,1729185695083,0.047851562,0.080078125,1.0126953,-0.3125,-0.09375,0.5
214,214,1729185695123,0.048828125,0.0859375,1.0332031,-0.5,-0.09375,0.5
215,215,1729185695163,0.04296875,0.07519531,1.0292969,-0.4375,-0.15625,0.6875
216,216,1729185695203,0.044921875,0.08496094,1.0263672,-0.375,-0.21875,0.625
217,217,1729185695243,0.047851562,0.08496094,1.0185547,-0.5,-0.21875,0.625
218,218,1729185695283,0.053710938,0.07714844,1.0234375,-0.4375,-0.09375,0.6875
219,219,1729185695323,0.048828125,0.08496094,1.0341797,-0.5,-0.09375,0.5
220,220,1729185695363,0.047851562,0.080078125,1.0205078,-0.4375,-0.09375,0.6875
221,221,1729185695403,0.046875,0.076171875,1.03125,-0.4375,-0.03125,0.6875
222,222,1729185695443,0.041015625,0.080078125,1.0244141,-0.4375,-0.15625,0.5
223,223,1729185695483,0.0390625,0.08203125,1.0205078,-0.375,-0.21875,0.5625
224,224,1729185695523,0.043945312,0.07910156,1.0234375,-0.4375,-0.09375,0.5625
225,225,1729185695563,0.049804688,0.080078125,1.0253906,-0.5,-0.3125,0.5
226,226,1729185695603,0.038085938,0.07910156,1.0322266,-0.4375,-0.09375,0.75
227,227,1729185695643,0.048828125,0.08984375,1.0322266,-0.4375,-0.21875,0.6875
228,228,1729185695683,0.055664062,0.0859375,1.0292969,-0.4375,-0.03125,0.625
229,229,1729185695723,0.045898438,0.07910156,1.0234375,-0.4375,-0.15625,0.625
230,230,1729185695763,0.045898438,0.08203125,1.0195312,-0.4375,-0.21875,0.5625
231,231,1729185695803,0.049804688,0.08496094,1.03125,-0.5,-0.09375,0.6875
232,232,1729185695843,0.040039062,0.08984375,1.0244141,-0.4375,-0.21875,0.6875
233,233,1729185695883,0.048828125,0.07128906,1.0224609,-0.4375,-0.15625,0.6875
234,234,1729185695923,0.0546875,0.076171875,1.0341797,-0.4375,-0.25,0.5
235,235,1729185695963,0.036132812,0.083984375,1.0175781,-0.375,-0.21875,0.625
236,236,1729185696003,0.051757812,0.087890625,1.0302734,-0.5,-0.15625,0.6875
237,237,1729185696043,0.041992188,0.076171875,1.0292969,-0.375,-0.15625,0.625
238,238,1729185696083,0.053710938,0.08105469,1.0322266,-0.4375,-0.21875,0.5625
239,239,1729185696123,0.044921875,0.08300781,1.0273438,-0.4375,-0.03125,0.625
240,240,1729185696163,0.05078125,0.080078125,1.0253906,-0.3125,-0.03125,0.625
241,241,1729185696203,0.047851562,0.078125,1.0322266,-0.25,-0.03125,0.5625
242,242,1729185696243,0.041992188,0.08496094,1.0302734,-0.375,-0.15625,0.5625
243,243,1729185696283,0.043945312,0.087890625,1.0195312,-0.3125,-0.03125,0.625
244,244,1729185696323,0.041992188,0.08496094,1.0244141,-0.375,-0.09375,0.625
245,245,1729185696363,0.034179688,0.08203125,1.0292969,-0.3125,-0.15625,0.625
246,246,1729185696403,0.041992188,0.08496094,1.0302734,-0.3125,-0.15625,0.625
247,247,1729185696443,0.047851562,0.08886719,1.0214844,-0.3125,-0.03125,0.625
248,248,1729185696483,0.043945312,0.08691406,1.0332031,-0.25,-0.03125,0.625
249,249,1729185696523,0.05078125,0.083984375,1.0253906,-0.375,-0.03125,0.6875
250,250,1729185696563,0.04296875,0.08203125,1.0205078,-0.25,0.03125,0.5625
251,251,1729185696603,0.05078125,0.080078125,1.0175781,-0.25,0.03125,0.625
252,252,1729185696643,0.044921875,0.08300781,1.0224609,-0.25,-0.09375,0.5625
253,253,1729185696683,0.047851562,0.0859375,1.0166016,-0.3125,-0.09375,0.5
254,254,1729185696723,0.044921875,0.08300781,1.0351562,-0.375,-0.15625,0.8125
255,255,1729185696763,0.046875,0.09082031,1.0224609,-0.3125,-0.15625,0.6875
256,256,1729185696803,0.038085938,0.09472656,1.0371094,-0.25,0.03125,0.5
257,257,1729185696843,0.043945312,0.07324219,1.0224609,-0.375,-0.09375,0.5
258,258,1729185696883,0.038085938,0.08496094,1.0253906,-0.3125,-0.09375,0.6875
259,259,1729185696923,0.041992188,0.08886719,1.015625,-0.375,-0.09375,0.6875
260,260,1729185696963,0.048828125,0.08203125,1.0273438,-0.3125,-0.03125,0.75
261,261,1729185697003,0.041992188,0.091796875,1.0224609,-0.25,0.03125,0.5
262,262,1729185697043,0.041992188,0.08300781,1.0273438,-0.3125,-0.25,0.6875
263,263,1729185697083,0.041992188,0.08984375,1.0117188,-0.375,-0.09375,0.625
264,264,1729185697123,0.0546875,0.076171875,1.0263672,-0.3125,-0.09375,0.625
265,265,1729185697163,0.047851562,0.087890625,1.0166016,-0.3125,-0.15625,0.5625
266,266,1729185697203,0.047851562,0.08300781,1.0302734,-0.3125,-0.15625,0.8125
267,267,1729185697243,0.040039062,0.08105469,1.0224609,-0.3125,-0.03125,0.6875
268,268,1729185697283,0.049804688,0.08203125,1.0214844,-0.25,0.03125,0.625
269,269,1729185697323,0.04296875,0.083984375,1.0283203,-0.375,-0.15625,0.5625
270,270,1729185697363,0.041992188,0.087890625,1.0263672,-0.25,-0.03125,0.5625
271,271,1729185697403,0.049804688,0.08105469,1.015625,-0.3125,-0.09375,0.625
272,272,1729185697443,0.046875,0.08496094,1.0283203,-0.3125,-0.21875,0.625
273,273,1729185697483,0.047851562,0.083984375,1.0283203,-0.4375,-0.15625,0.625
274,274,1729185697523,0.044921875,0.07421875,1.0341797,-0.25,-0.03125,0.75
275,275,1729185697563,0.046875,0.080078125,1.0283203,-0.375,-0.09375,0.5
276,276,1729185697603,0.047851562,0.09472656,1.0292969,-0.375,-0.15625,0.625
277,277,1729185697643,0.04296875,0.08496094,1.0341797,-0.4375,-0.15625,0.75
278,278,1729185697683,0.045898438,0.083984375,1.0244141,-0.4375,-0.15625,0.5625
279,279,1729185697723,0.048828125,0.080078125,1.0185547,-0.375,-0.15625,0.75
280,280,1729185697763,0.048828125,0.08496094,1.0322266,-0.3125,-0.25,0.5625
281,281,1729185697803,0.05078125,0.07910156,1.0439453,-0.3125,-0.21875,0.5
282,282,1729185697843,0.037109375,0.08691406,1.015625,-0.5,-0.03125,0.6875
283,283,1729185697883,0.053710938,0.08300781,1.03125,-0.5,-0.09375,0.625
284,284,1729185697923,0.044921875,0.0859375,1.0273438,-0.3125,-0.21875,0.5625
285,285,1729185697963,0.05078125,0.08203125,1.0283203,-0.3125,-0.09375,0.75
286,286,1729185698003,0.040039062,0.08105469,1.0146484,-0.375,-0.09375,0.6875
287,287,1729185698043,0.048828125,0.08105469,1.0302734,-0.3125,-0.09375,0.625
288,288,1729185698083,0.047851562,0.078125,1.0263672,-0.4375,-0.09375,0.6875
289,289,1729185698123,0.05078125,0.09277344,1.0214844,-0.4375,-0.15625,0.625
290,290,1729185698163,0.036132812,0.09082031,1.0205078,-0.3125,-0.15625,0.625
291,291,1729185698203,0.049804688,0.091796875,1.0097656,-0.4375,-0.09375,0.625
292,292,1729185698243,0.052734375,0.08300781,1.0224609,-0.375,-0.15625,0.6875
293,293,1729185698283,0.041992188,0.08300781,1.0214844,-0.5,-0.15625,0.75
294,294,1729185698323,0.040039062,0.080078125,1.0205078,-0.375,-0.03125,0.6875
295,295,1729185698363,0.046875,0.08886719,1.0166016,-0.375,-0.21875,0.5625
296,296,1729185698403,0.044921875,0.080078125,1.0273438,-0.5,-0.15625,0.625
297,297,1729185698443,0.047851562,0.08105469,1.0380859,-0.4375,-0.15625,0.6875
298,298,1729185698483,0.040039062,0.09277344,1.0195312,-0.375,-0.03125,0.625
299,299,1729185698523,0.047851562,0.0859375,1.0214844,-0.4375,-0.21875,0.625
300,300,1729185698563,0.041992188,0.07519531,1.0419922,-0.5,-0.21875,0.8125
301,301,1729185698603,0.04296875,0.072265625,1.0185547,-0.625,-0.15625,0.5
302,302,1729185698643,0.0390625,0.07910156,1.0263672,-0.4375,-0.25,0.6875
303,303,1729185698683,0.048828125,0.07421875,1.0292969,-0.5,-0.21875,0.625
304,304,1729185698723,0.04296875,0.0859375,1.0244141,-0.3125,-0.21875,0.5625
305,305,1729185698763,0.0390625,0.07714844,1.0253906,-0.4375,-0.09375,0.6875
306,306,1729185698803,0.043945312,0.08105469,0.99902344,-0.375,-0.25,0.625
307,307,1729185698843,0.043945312,0.07421875,1.0234375,-0.4375,-0.09375,0.5625
308,308,1729185698883,0.036132812,0.08105469,1.0273438,-0.375,-0.09375,0.625
309,309,1729185698923,0.041992188,0.08496094,1.0302734,-0.375,-0.15625,0.5
310,310,1729185698963,0.049804688,0.083984375,1.0263672,-0.375,-0.09375,0.4375
311,311,1729185699003,0.037109375,0.07910156,1.0273438,-0.4375,-0.15625,0.6875
312,312,1729185699043,0.0390625,0.08691406,1.0292969,-0.3125,-0.09375,0.625
313,313,1729185699083,0.048828125,0.076171875,1.0361328,-0.5,-0.15625,0.5625
314,314,1729185699123,0.044921875,0.083984375,1.0351562,-0.375,-0.09375,0.625
315,315,1729185699163,0.049804688,0.08203125,1.0292969,-0.3125,-0.09375,0.5
316,316,1729185699203,0.041992188,0.07421875,1.0273438,-0.3125,-0.21875,0.6875
317,317,1729185699243,0.037109375,0.08300781,1.0263672,-0.4375,-0.15625,0.625
318,318,1729185699283,0.0390625,0.087890625,1.0244141,-0.25,-0.09375,0.6875
319,319,1729185699323,0.051757812,0.08105469,1.0214844,-0.3125,-0.09375,0.5625
320,320,1729185699363,0.044921875,0.076171875,1.0292969,-0.25,-0.03125,0.625
321,321,1729185699403,0.041992188,0.080078125,1.03125,-0.3125,0.03125,0.5625
322,322,1729185699443,0.046875,0.07910156,1.0292969,-0.3125,-0.15625,0.6875
323,323,1729185699483,0.04296875,0.08886719,1.0302734,-0.25,0.03125,0.6875
324,324,1729185699523,0.049804688,0.08105469,1.03125,-0.125,-0.03125,0.5625
325,325,1729185699563,0.048828125,0.083984375,1.0322266,-0.25,-0.03125,0.5
326,326,1729185699603,0.049804688,0.091796875,1.0322266,-0.25,-0.03125,0.5
327,327,1729185699643,0.041015625,0.087890625,1.0244141,-0.4375,-0.15625,0.625
328,328,1729185699683,0.04296875,0.08496094,1.0263672,-0.375,-0.09375,0.5625
329,329,1729185699723,0.048828125,0.0859375,1.0117188,-0.3125,-0.09375,0.5
330,330,1729185699763,0.044921875,0.08105469,1.0322266,-0.3125,-0.03125,0.5625
331,331,1729185699803,0.048828125,0.0859375,1.0292969,-0.3125,-0.15625,0.6875
332,332,1729185699843,0.041015625,0.087890625,1.0273438,-0.3125,-0.15625,0.4375
333,333,1729185699883,0.047851562,0.08691406,1.0283203,-0.375,-0.15625,0.5625
334,334,1729185699923,0.041015625,0.07910156,1.0263672,-0.3125,-0.03125,0.625
335,335,1729185699963,0.043945312,0.08203125,1.0419922,-0.3125,-0.09375,0.5
336,336,1729185700003,0.048828125,0.08105469,1.0341797,-0.375,-0.09375,0.5
337,337,1729185700043,0.046875,0.08496094,1.0332031,-0.3125,-0.09375,0.6875
338,338,1729185700083,0.049804688,0.08496094,1.0136719,-0.375,-0.15625,0.625
339,339,1729185700123,0.05078125,0.080078125,1.0351562,-0.375,-0.15625,0.6875
340,340,1729185700163,0.046875,0.08691406,1.0185547,-0.4375,-0.15625,0.625
341,341,1729185700203,0.047851562,0.083984375,1.0205078,-0.125,-0.0625,0.03125
342,342,1729185700243,0.041992188,0.08203125,1.015625,0.0,0.0,-0.03125
343,343,1729185700283,0.041992188,0.08300781,1.0224609,0.0,-0.0625,0.03125
344,344,1729185700323,0.047851562,0.09082031,1.0341797,-0.125,-0.125,0.03125
345,345,1729185700363,0.041992188,0.083984375,1.0244141,0.0,0.0625,-0.03125
346,346,1729185700403,0.046875,0.080078125,1.0244141,-0.125,-0.125,0.0625
347,347,1729185700443,0.043945312,0.08984375,1.0166016,-0.125,0.0625,-0.09375
348,348,1729185700483,0.044921875,0.080078125,1.0332031,-0.125,0.0,0.03125
349,349,1729185700523,0.040039062,0.08691406,1.0341797,0.0625,0.0625,0.03125
350,350,1729185700563,0.052734375,0.08691406,1.0273438,0.0,0.0,-0.03125
351,351,1729185700603,0.044921875,0.08691406,1.0253906,0.0,0.0,0.03125
352,352,1729185700643,0.040039062,0.07910156,1.0332031,0.0,0.0625,0.03125
353,353,1729185700683,0.043945312,0.08203125,1.0273438,0.0625,0.0625,-0.03125
354,354,1729185700723,0.051757812,0.08984375,1.0263672,0.0,-0.125,-0.09375
355,355,1729185700763,0.045898438,0.091796875,1.0263672,-0.0625,0.0,0.03125
356,356,1729185700803,0.034179688,0.0859375,1.0205078,-0.125,-0.0625,0.03125
357,357,1729185700843,0.044921875,0.08203125,1.0185547,-0.0625,0.0,-0.03125
358,358,1729185700883,0.046875,0.08300781,1.0292969,-0.125,0.0,-0.03125
359,359,1729185700923,0.043945312,0.09082031,1.0244141,-0.0625,0.0,-0.03125
360,360,1729185700963,0.040039062,0.08496094,1.0244141,-0.25,0.0,-0.09375
361,361,1729185701003,0.049804688,0.08203125,1.0263672,-0.0625,-0.0625,0.03125
362,362,1729185701043,0.043945312,0.08691406,1.0205078,0.0,-0.125,0.03125
363,363,1729185701083,0.041992188,0.08300781,1.0214844,-0.125,0.0,0.03125
364,364,1729185701123,0.041992188,0.07421875,1.0332031,-0.125,-0.125,-0.03125
365,365,1729185701163,0.048828125,0.08691406,1.0175781,-0.0625,0.125,0.03125
366,366,1729185701203,0.048828125,0.08203125,1.0292969,-0.125,0.0625,-0.03125
367,367,1729185701243,0.048828125,0.08496094,1.0253906,-0.0625,0.0625,0.03125
368,368,1729185701283,0.043945312,0.08105469,1.0253906,0.0,-0.0625,-0.03125
369,369,1729185701323,0.056640625,0.08105469,1.03125,0.0,0.0,-0.03125
370,370,1729185701363,0.0390625,0.078125,1.0195312,-0.1875,0.0,0.0625
371,371,1729185701403,0.052734375,0.087890625,1.0214844,-0.125,-0.0625,-0.03125
372,372,1729185701443,0.046875,0.08203125,1.0185547,0.0,-0.0625,0.0625
373,373,1729185701483,0.036132812,0.08886719,1.0253906,0.0,-0.125,0.125
374,374,1729185701523,0.05078125,0.076171875,1.0224609,-0.0625,0.0,0.03125
375,375,1729185701563,0.048828125,0.08496094,1.0263672,0.0,-0.0625,0.125
376,376,1729185701603,0.046875,0.091796875,1.0146484,0.0,-0.0625,0.03125
377,377,1729185701643,0.05078125,0.08300781,1.015625,0.0625,0.1875,0.125
378,378,1729185701683,0.046875,0.07714844,1.0361328,0.0,-0.125,0.03125
379,379,1729185701723,0.043945312,0.083984375,1.0273438,-0.1875,-0.0625,-0.03125
380,380,1729185701763,0.048828125,0.08496094,1.0302734,0.0,0.0,-0.03125
381,381,1729185701803,0.044921875,0.08203125,1.0302734,0.0,0.0,0.0625
382,382,1729185701843,0.051757812,0.083984375,1.0488281,0.0,0.0,0.0625
383,383,1729185701883,0.049804688,0.078125,1.0224609,0.0625,0.125,0.1875
384,384,1729185701923,0.049804688,0.08984375,1.015625,0.0,0.0,0.0625
385,385,1729185701963,0.047851562,0.08691406,1.0410156,0.0625,0.125,0.03125
386,386,1729185702003,0.038085938,0.087890625,1.0244141,0.125,0.0625,0.03125
387,387,1729185702043,0.049804688,0.087890625,1.0205078,0.125,0.0625,0.03125
388,388,1729185702083,0.043945312,0.080078125,1.0273438,0.0,0.0,-0.09375
389,389,1729185702123,0.047851562,0.08886719,1.03125,0.0625,0.125,-0.09375
390,390,1729185702163,0.046875,0.08203125,1.0175781,0.125,0.0625,-0.03125
391,391,1729185702203,0.046875,0.08984375,1.015625,0.125,0.125,0.03125
392,392,1729185702243,0.041992188,0.09082031,1.0244141,0.0625,0.0625,0.1875
393,393,1729185702283,0.04296875,0.087890625,1.0371094,0.0,0.0,0.03125
394,394,1729185702323,0.038085938,0.087890625,1.0332031,0.0,0.0,0.0625
395,395,1729185702363,0.040039062,0.08691406,1.0273438,0.0625,0.0625,-0.09375
396,396,1729185702403,0.043945312,0.08496094,1.0283203,0.0,0.0,0.03125
397,397,1729185702443,0.044921875,0.080078125,1.0341797,0.0625,0.125,-0.03125
398,398,1729185702483,0.041015625,0.07128906,1.0234375,0.0625,0.0625,-0.09375
399,399,1729185702523,0.040039062,0.08886719,1.0263672,0.0625,0.0625,0.0625
400,400,1729185702563,0.038085938,0.08105469,1.0341797,0.0625,0.0,0.0625
401,401,1729185702603,0.046875,0.08691406,1.0224609,0.0,-0.0625,0.03125
402,402,1729185702643,0.059570312,0.08203125,1.0224609,0.0,0.0,0.03125
403,403,1729185702683,0.045898438,0.08691406,1.0341797,0.0,0.125,-0.09375
404,404,1729185702723,0.048828125,0.08691406,1.03125,0.0625,0.0625,0.125
405,405,1729185702763,0.045898438,0.08886719,1.0205078,-0.0625,-0.125,-0.03125
406,406,1729185702803,0.053710938,0.08496094,1.0322266,0.125,0.0625,0.0625
407,407,1729185702843,0.05078125,0.08300781,1.0478516,-0.09375,-0.0625,0.09375
408,408,1729185702883,0.052734375,0.08300781,1.0214844,0.0,0.0,0.03125
409,409,1729185702923,0.044921875,0.078125,1.0244141,-0.03125,-0.21875,-0.09375
410,410,1729185702963,0.043945312,0.08300781,1.0292969,-0.03125,-0.0625,-0.09375
411,411,1729185703003,0.046875,0.083984375,1.0263672,0.0625,0.0,-0.03125
412,412,1729185703043,0.0390625,0.09375,1.0195312,-0.03125,-0.0625,-0.03125
413,413,1729185703083,0.041015625,0.08203125,1.03125,-0.15625,-0.0625,-0.03125
414,414,1729185703123,0.047851562,0.09277344,1.0341797,-0.03125,-0.0625,-0.03125
415,415,1729185703163,0.041992188,0.08496094,1.0234375,-0.03125,-0.09375,0.03125
416,416,1729185703203,0.053710938,0.07910156,1.0234375,0.0625,0.0,-0.03125
417,417,1729185703243,0.048828125,0.0859375,1.0185547,0.0,0.0625,0.03125
418,418,1729185703283,0.040039062,0.08496094,1.0273438,-0.03125,-0.0625,-0.03125
419,419,1729185703323,0.046875,0.080078125,1.0244141,0.0,-0.0625,0.03125
420,420,1729185703363,0.043945312,0.083984375,1.0195312,-0.09375,-0.09375,0.03125
421,421,1729185703403,0.052734375,0.07910156,1.0380859,-0.09375,-0.09375,-0.03125
422,422,1729185703443,0.03515625,0.08105469,1.0361328,-0.21875,-0.09375,-0.09375
423,423,1729185703483,0.044921875,0.083984375,1.0146484,-0.03125,0.0,-0.21875
424,424,1729185703523,0.037109375,0.08691406,1.0195312,-0.09375,-0.09375,-0.09375
425,425,1729185703563,0.036132812,0.08203125,1.0253906,-0.09375,-0.0625,-0.03125
426,426,1729185703603,0.051757812,0.08691406,1.0078125,-0.15625,-0.0625,-0.03125
427,427,1729185703643,0.037109375,0.083984375,1.0234375,-0.21875,-0.0625,-0.03125
428,428,1729185703683,0.046875,0.08105469,1.0253906,-0.28125,-0.15625,-0.09375
429,429,1729185703723,0.045898438,0.08300781,1.0263672,-0.03125,-0.0625,0.03125
430,430,1729185703763,0.041015625,0.087890625,1.0332031,-0.21875,-0.15625,-0.15625
431,431,1729185703803,0.041015625,0.08496094,1.0146484,-0.03125,-0.09375,0.03125
432,432,1729185703843,0.043945312,0.08691406,1.0224609,-0.09375,-0.15625,-0.03125
433,433,1729185703883,0.046875,0.080078125,1.0283203,-0.09375,-0.15625,0.03125
434,434,1729185703923,0.047851562,0.087890625,1.0283203,-0.15625,-0.15625,-0.03125
435,435,1729185703963,0.047851562,0.091796875,1.0302734,-0.09375,-0.0625,-0.09375
436,436,1729185704003,0.047851562,0.078125,1.0058594,-0.03125,-0.0625,-0.03125
437,437,1729185704043,0.046875,0.07910156,1.0126953,-0.09375,-0.09375,-0.03125
438,438,1729185704083,0.05078125,0.078125,1.0166016,-0.15625,-0.09375,-0.03125
439,439,1729185704123,0.046875,0.08496094,1.0253906,-0.09375,-0.0625,-0.03125
440,440,1729185704163,0.05078125,0.08496094,1.0341797,-0.03125,-0.09375,0.15625
441,441,1729185704203,0.046875,0.08496094,1.0283203,-0.03125,-0.15625,-0.09375
442,442,1729185704243,0.047851562,0.08691406,1.0214844,-0.09375,-0.15625,-0.03125
443,443,1729185704283,0.047851562,0.08105469,1.0087891,-0.03125,-0.0625,-0.09375
444,444,1729185704323,0.049804688,0.07910156,1.0302734,-0.03125,-0.09375,-0.09375
445,445,1729185704363,0.05078125,0.08203125,1.0292969,-0.03125,-0.09375,-0.03125
446,446,1729185704403,0.053710938,0.08203125,1.0224609,-0.03125,-0.0625,-0.09375
447,447,1729185704443,0.044921875,0.080078125,1.0302734,-0.03125,-0.0625,0.03125
448,448,1729185704483,0.043945312,0.087890625,1.0302734,0.0625,0.0,0.21875
449,449,1729185704523,0.049804688,0.09375,1.03125,-0.03125,-0.09375,0.03125
450,450,1729185704563,0.052734375,0.0859375,1.0087891,0.0,0.0,-0.03125
451,451,1729185704603,0.043945312,0.07910156,1.0341797,0.125,0.0,-0.09375
452,452,1729185704643,0.04296875,0.078125,1.0253906,0.0,0.0625,-0.03125
453,453,1729185704683,0.049804688,0.072265625,1.015625,0.0625,0.0625,-0.03125
454,454,1729185704723,0.046875,0.087890625,1.0322266,0.0,-0.09375,0.03125
455,455,1729185704763,0.043945312,0.087890625,1.0205078,0.0,0.0,-0.15625
456,456,1729185704803,0.05078125,0.08300781,1.0234375,0.0625,0.0,0.03125
457,457,1729185704843,0.04296875,0.08984375,1.0332031,-0.03125,-0.0625,-0.09375
458,458,1729185704883,0.046875,0.08886719,1.03125,-0.03125,-0.0625,-0.03125
459,459,1729185704923,0.041992188,0.08105469,1.0361328,0.0,0.0,0.03125
460,460,1729185704963,0.044921875,0.076171875,1.0371094,-0.09375,-0.0625,0.03125
461,461,1729185705003,0.048828125,0.078125,1.0429688,0.0,0.0625,-0.21875
462,462,1729185705043,0.041015625,0.08203125,1.0322266,0.0,0.0,-0.03125
463,463,1729185705083,0.047851562,0.08300781,1.0253906,-0.03125,-0.0625,0.03125
464,464,1729185705123,0.044921875,0.08105469,1.0302734,0.0,0.0625,0.03125
465,465,1729185705163,0.05078125,0.08691406,1.0283203,0.0,0.0,0.03125
466,466,1729185705203,0.038085938,0.08300781,1.0195312,0.0,0.0,-0.03125
467,467,1729185705243,0.0546875,0.08886719,1.0322266,0.125,0.0,-0.09375
468,468,1729185705283,0.048828125,0.080078125,1.0292969,-0.09375,-0.0625,-0.03125
469,469,1729185705323,0.047851562,0.076171875,1.0341797,-0.03125,-0.0625,-0.03125
470,470,1729185705363,0.048828125,0.07910156,1.0244141,-0.03125,0.0625,0.03125
471,471,1729185705403,0.052734375,0.08203125,1.03125,0.0,-0.0625,0.03125
472,472,1729185705443,0.057617188,0.08105469,1.0185547,-0.09375,-0.0625,0.03125
473,473,1729185705483,0.043945312,0.08691406,1.0224609,-0.03125,0.0625,-0.03125
474,474,1729185705523,0.038085938,0.08496094,1.0273438,-0.03125,-0.21875,-0.03125
475,475,1729185705563,0.049804688,0.083984375,1.03125,0.0625,0.0,-0.09375
476,476,1729185705603,0.041015625,0.087890625,1.0380859,-0.03125,-0.0625,0.09375
477,477,1729185705643,0.038085938,0.08105469,1.0292969,0.0,0.0,-0.03125
478,478,1729185705683,0.046875,0.080078125,1.0195312,-0.09375,-0.09375,-0.09375
479,479,1729185705723,0.041992188,0.091796875,1.0166016,0.0,0.0625,-0.09375
480,480,1729185705763,0.04296875,0.07910156,1.03125,-0.03125,-0.15625,-0.09375
481,481,1729185705803,0.043945312,0.091796875,1.0263672,-0.03125,-0.09375,0.03125
482,482,1729185705843,0.047851562,0.08691406,1.0205078,-0.03125,-0.0625,-0.09375
483,483,1729185705883,0.041015625,0.07910156,1.0332031,0.0,0.0625,0.03125
484,484,1729185705923,0.037109375,0.08105469,1.0302734,0.0,0.0625,-0.09375
485,485,1729185705963,0.043945312,0.08105469,1.0322266,-0.03125,-0.0625,-0.03125
486,486,1729185706003,0.0546875,0.08300781,1.0234375,-0.09375,-0.0625,0.09375
487,487,1729185706043,0.051757812,0.07714844,1.0302734,0.0,0.0,0.03125
488,488,1729185706083,0.041992188,0.08691406,1.03125,-0.09375,-0.0625,0.09375
489,489,1729185706123,0.044921875,0.08984375,1.0283203,-0.03125,-0.0625,-0.09375
490,490,1729185706163,0.0390625,0.08886719,1.0351562,-0.09375,-0.0625,-0.09375
491,491,1729185706203,0.047851562,0.08691406,1.0283203,-0.09375,-0.09375,0.09375
492,492,1729185706243,0.05078125,0.083984375,1.0332031,-0.03125,-0.15625,-0.15625
493,493,1729185706283,0.036132812,0.08496094,1.0224609,-0.03125,-0.15625,-0.03125
494,494,1729185706323,0.0390625,0.08984375,1.0244141,-0.09375,-0.0625,-0.15625
495,495,1729185706363,0.041992188,0.07910156,1.0253906,-0.03125,-0.09375,0.03125
496,496,1729185706403,0.041015625,0.080078125,1.0244141,-0.09375,-0.09375,0.03125
497,497,1729185706443,0.056640625,0.08984375,1.0185547,0.0,0.0,-0.03125
498,498,1729185706483,0.03125,0.07910156,1.0166016,-0.03125,-0.09375,-0.15625
499,499,1729185706523,0.05078125,0.08203125,1.0253906,-0.09375,-0.09375,-0.09375
500,500,1729185706563,0.044921875,0.08496094,1.0214844,-0.09375,-0.09375,0.09375
501,501,1729185706603,0.04296875,0.080078125,1.0126953,0.0,0.0,-0.03125
502,502,1729185706643,0.046875,0.08691406,1.0185547,-0.15625,-0.15625,-0.15625
503,503,1729185706683,0.048828125,0.078125,1.0195312,-0.03125,-0.09375,-0.03125
504,504,1729185706723,0.048828125,0.0859375,1.0283203,-0.03125,-0.21875,0.03125
505,505,1729185706763,0.033203125,0.07910156,1.0322266,-0.15625,-0.0625,-0.03125
506,506,1729185706803,0.046875,0.07714844,1.0322266,-0.09375,-0.15625,-0.09375
507,507,1729185706843,0.049804688,0.07910156,1.0283203,-0.09375,-0.09375,-0.09375
508,508,1729185706883,0.04296875,0.091796875,1.0263672,-0.21875,-0.0625,0.09375
509,509,1729185706923,0.052734375,0.08203125,1.0341797,-0.03125,-0.15625,-0.03125
510,510,1729185706963,0.049804688,0.072265625,1.0224609,-0.03125,-0.21875,-0.03125
511,511,1729185707003,0.033203125,0.08984375,1.0263672,-0.21875,-0.0625,0.03125
512,512,1729185707043,0.044921875,0.083984375,1.0429688,-0.03125,-0.15625,-0.03125
513,513,1729185707083,0.044921875,0.078125,1.0253906,-0.09375,0.0,-0.09375
514,514,1729185707123,0.049804688,0.083984375,1.0283203,-0.09375,-0.0625,0.09375
515,515,1729185707163,0.040039062,0.08300781,1.03125,-0.09375,-0.09375,0.03125
516,516,1729185707203,0.044921875,0.080078125,1.0253906,-0.03125,-0.09375,-0.03125
517,517,1729185707243,0.045898438,0.078125,1.0253906,-0.09375,-0.21875,-0.15625
518,518,1729185707283,0.041015625,0.087890625,1.0195312,-0.09375,-0.09375,-0.09375
519,519,1729185707323,0.047851562,0.076171875,1.0205078,-0.09375,-0.09375,-0.03125
520,520,1729185707363,0.044921875,0.07421875,1.0263672,-0.09375,-0.09375,0.03125
521,521,1729185707403,0.041992188,0.08203125,1.0244141,-0.03125,-0.0625,-0.03125
522,522,1729185707443,0.045898438,0.087890625,1.0253906,-0.03125,-0.15625,-0.09375
523,523,1729185707483,0.041992188,0.0859375,1.0263672,0.0,0.0,0.09375
524,524,1729185707523,0.043945312,0.080078125,1.0195312,-0.03125,-0.09375,-0.03125
525,525,1729185707563,0.043945312,0.08203125,1.0332031,0.0625,0.0,-0.09375
526,526,1729185707603,0.047851562,0.087890625,1.0263672,-0.03125,0.0625,-0.09375
527,527,1729185707643,0.0390625,0.08496094,1.0283203,0.0625,0.0,-0.15625
528,528,1729185707683,0.046875,0.07421875,1.0205078,0.0625,0.0625,-0.03125
529,529,1729185707723,0.049804688,0.080078125,1.0205078,0.0625,-0.0625,-0.09375
530,530,1729185707763,0.04296875,0.07714844,1.0292969,0.0,0.0,-0.09375
531,531,1729185707803,0.046875,0.08984375,1.0361328,0.0,0.0,0.03125
532,532,1729185707843,0.047851562,0.08300781,1.0322266,-0.03125,-0.0625,0.03125
533,533,1729185707883,0.049804688,0.08300781,1.0302734,0.0,0.0,0.03125
534,534,1729185707923,0.046875,0.08496094,1.0351562,-0.03125,-0.0625,-0.03125
535,535,1729185707963,0.044921875,0.08105469,1.0185547,-0.03125,-0.09375,-0.03125
536,536,1729185708003,0.045898438,0.0859375,1.0341797,0.0,0.0625,-0.03125
537,537,1729185708043,0.040039062,0.087890625,1.0351562,0.0,0.0,-0.09375
538,538,1729185708083,0.051757812,0.0859375,1.0068359,0.0,0.0625,0.03125
539,539,1729185708123,0.053710938,0.07910156,1.0410156,-0.03125,-0.0625,-0.03125
540,540,1729185708163,0.043945312,0.087890625,1.03125,0.0625,0.0,-0.03125
541,541,1729185708203,0.037109375,0.07519531,1.0244141,-0.15625,-0.09375,-0.03125
542,542,1729185708243,0.049804688,0.07910156,1.0175781,-0.03125,-0.0625,0.03125
543,543,1729185708283,0.03515625,0.087890625,1.0322266,-0.09375,-0.0625,-0.09375
544,544,1729185708323,0.046875,0.08886719,1.0253906,0.0,-0.0625,-0.03125
545,545,1729185708363,0.045898438,0.08203125,1.0273438,0.0,0.0625,-0.09375
546,546,1729185708403,0.046875,0.08203125,1.0195312,-0.03125,-0.09375,-0.09375
547,547,1729185708443,0.046875,0.0859375,1.0263672,-0.09375,-0.09375,-0.03125
548,548,1729185708483,0.0390625,0.08203125,1.03125,-0.03125,-0.09375,-0.03125
549,549,1729185708523,0.044921875,0.083984375,1.0253906,0.0625,0.0625,-0.15625
550,550,1729185708563,0.046875,0.07519531,1.0234375,0.0,-0.0625,-0.03125
551,551,1729185708603,0.048828125,0.080078125,1.0175781,0.0,0.0625,-0.03125
552,552,1729185708643,0.049804688,0.08886719,1.0214844,0.0,-0.0625,0.09375
553,553,1729185708683,0.037109375,0.087890625,1.0341797,0.0,-0.09375,0.03125
554,554,1729185708723,0.045898438,0.083984375,1.0234375,0.0,0.0,0.03125
555,555,1729185708763,0.041015625,0.08691406,1.0263672,-0.09375,-0.0625,-0.09375
556,556,1729185708803,0.047851562,0.078125,1.0371094,0.0,0.0,-0.15625
557,557,1729185708843,0.043945312,0.08300781,1.0253906,-0.03125,0.0,-0.03125
558,558,1729185708883,0.046875,0.08203125,1.0263672,0.0,0.0,-0.09375
559,559,1729185708923,0.047851562,0.087890625,1.0390625,-0.15625,-0.09375,0.15625
560,560,1729185708963,0.043945312,0.08496094,1.0185547,-0.03125,-0.0625,-0.03125
561,561,1729185709003,0.038085938,0.083984375,1.0234375,-0.03125,-0.09375,-0.03125
562,562,1729185709043,0.045898438,0.083984375,1.0234375,-0.03125,-0.0625,-0.21875
563,563,1729185709083,0.038085938,0.08105469,1.0361328,-0.03125,-0.09375,-0.09375
564,564,1729185709123,0.043945312,0.080078125,1.0214844,-0.03125,-0.0625,-0.15625
565,565,1729185709163,0.047851562,0.08984375,1.0097656,-0.09375,-0.0625,-0.03125
566,566,1729185709203,0.04296875,0.078125,1.0332031,-0.15625,-0.09375,-0.21875
567,567,1729185709243,0.041015625,0.080078125,1.0253906,-0.09375,-0.15625,0.03125
568,568,1729185709283,0.048828125,0.087890625,1.0253906,-0.03125,-0.0625,-0.03125
569,569,1729185709323,0.056640625,0.08105469,1.0273438,-0.03125,-0.09375,-0.09375
570,570,1729185709363,0.047851562,0.078125,1.0449219,-0.03125,-0.09375,-0.03125
571,571,1729185709403,0.048828125,0.08984375,1.0351562,-0.03125,-0.09375,-0.03125
572,572,1729185709443,0.04296875,0.083984375,1.0253906,-0.03125,-0.0625,-0.03125
573,573,1729185709483,0.043945312,0.08203125,1.0292969,-0.15625,-0.0625,-0.09375
574,574,1729185709523,0.045898438,0.08496094,1.0224609,-0.15625,-0.09375,-0.15625
575,575,1729185709563,0.04296875,0.08496094,1.0205078,-0.09375,-0.09375,-0.03125
576,576,1729185709603,0.041015625,0.08984375,1.0263672,-0.09375,-0.0625,-0.09375
577,577,1729185709643,0.040039062,0.080078125,1.0244141,-0.09375,-0.15625,-0.09375
578,578,1729185709683,0.037109375,0.08886719,1.0146484,0.0,0.0,-0.09375
579,579,1729185709723,0.047851562,0.08496094,1.0361328,-0.15625,-0.15625,-0.03125
580,580,1729185709763,0.04296875,0.07519531,1.0234375,-0.09375,0.0,-0.09375
581,581,1729185709803,0.053710938,0.072265625,1.03125,-0.09375,-0.0625,-0.09375
582,582,1729185709843,0.043945312,0.07910156,1.0253906,-0.03125,-0.09375,-0.03125
583,583,1729185709883,0.044921875,0.08203125,1.0214844,-0.09375,-0.09375,-0.09375
584,584,1729185709923,0.047851562,0.08496094,1.0224609,0.0,0.0,-0.09375
585,585,1729185709963,0.043945312,0.08496094,1.03125,-0.15625,-0.09375,-0.15625
586,586,1729185710003,0.0390625,0.078125,1.0253906,-0.09375,-0.09375,-0.03125
587,587,1729185710043,0.041015625,0.07519531,1.0273438,-0.03125,-0.15625,-0.09375
588,588,1729185710083,0.043945312,0.0859375,1.0380859,0.0,0.0,-0.03125
589,589,1729185710123,0.041015625,0.08691406,1.0351562,-0.09375,-0.15625,-0.03125
590,590,1729185710163,0.049804688,0.08691406,1.0185547,0.0,0.0625,-0.09375
591,591,1729185710203,0.040039062,0.08691406,1.0263672,0.0,0.0625,-0.03125
592,592,1729185710243,0.04296875,0.08496094,1.0224609,-0.09375,-0.0625,-0.03125
593,593,1729185710283,0.047851562,0.083984375,1.0341797,-0.03125,-0.0625,-0.09375
594,594,1729185710323,0.046875,0.080078125,1.0292969,0.0,0.0,-0.09375
595,595,1729185710363,0.040039062,0.08691406,1.0292969,0.0,0.0,-0.03125
596,596,1729185710403,0.047851562,0.08496094,1.0146484,-0.03125,-0.09375,-0.15625
597,597,1729185710443,0.052734375,0.08300781,1.0185547,0.0,0.0,-0.21875
598,598,1729185710483,0.047851562,0.09375,1.0185547,0.0,0.0625,-0.09375
599,599,1729185710523,0.043945312,0.076171875,1.0244141,-0.03125,-0.0625,-0.15625
600,600,1729185710563,0.044921875,0.087890625,1.0322266,0.0,0.0,-0.28125
601,601,1729185710603,0.046875,0.08203125,1.0341797,0.0,0.0,-0.15625
602,602,1729185710643,0.043945312,0.0859375,1.0214844,0.125,0.0,-0.09375
603,603,1729185710683,0.05078125,0.080078125,1.0292969,-0.09375,-0.0625,-0.15625
604,604,1729185710723,0.040039062,0.087890625,1.0361328,0.0,0.0,-0.09375
605,605,1729185710763,0.04296875,0.07910156,1.0146484,0.0625,-0.0625,-0.03125
606,606,1729185710803,0.0390625,0.07910156,1.0332031,-0.03125,-0.15625,-0.03125
607,607,1729185710843,0.045898438,0.07910156,1.0244141,-0.03125,-0.09375,-0.09375
608,608,1729185710883,0.049804688,0.08105469,1.0185547,0.0,0.0625,-0.09375
609,609,1729185710923,0.044921875,0.08105469,1.0263672,-0.09375,-0.0625,-0.03125
610,610,1729185710963,0.0390625,0.08496094,1.0439453,-0.09375,-0.0625,-0.15625
611,611,1729185711003,0.045898438,0.087890625,1.03125,0.0,0.0625,-0.09375
612,612,1729185711043,0.038085938,0.08496094,1.0283203,0.125,0.0,-0.15625
613,613,1729185711083,0.051757812,0.083984375,1.0253906,-0.03125,-0.15625,-0.09375
614,614,1729185711123,0.05078125,0.08300781,1.0195312,0.0,0.0625,0.03125
615,615,1729185711163,0.05078125,0.0859375,1.0205078,0.0,0.0,0.03125
616,616,1729185711203,0.047851562,0.08496094,1.0332031,-0.03125,-0.0625,-0.09375
617,617,1729185711243,0.048828125,0.08300781,1.0214844,0.0,0.0,-0.09375
618,618,1729185711283,0.051757812,0.0859375,1.0273438,0.0,-0.0625,-0.34375
619,619,1729185711323,0.04296875,0.08691406,1.0283203,0.0,0.0,-0.21875
620,620,1729185711363,0.044921875,0.08105469,1.0214844,0.0625,0.0,-0.09375
621,621,1729185711403,0.047851562,0.09277344,1.0341797,-0.03125,-0.0625,-0.28125
622,622,1729185711443,0.046875,0.087890625,1.0273438,0.0,0.0,-0.09375
623,623,1729185711483,0.04296875,0.08300781,1.0273438,-0.03125,-0.0625,-0.21875
624,624,1729185711523,0.029296875,0.083984375,1.0214844,-0.03125,-0.0625,-0.15625
625,625,1729185711563,0.05078125,0.08496094,1.015625,-0.03125,-0.0625,-0.09375
626,626,1729185711603,0.053710938,0.08886719,1.0283203,-0.03125,-0.0625,-0.09375
627,627,1729185711643,0.043945312,0.0859375,1.0244141,-0.03125,-0.09375,-0.09375
628,628,1729185711683,0.0390625,0.08105469,1.0263672,-0.03125,-0.09375,-0.28125
629,629,1729185711723,0.040039062,0.0859375,1.0146484,-0.03125,-0.0625,0.03125
630,630,1729185711763,0.053710938,0.08300781,1.0332031,-0.09375,-0.21875,-0.21875
631,631,1729185711803,0.04296875,0.083984375,1.0234375,-0.03125,0.0,-0.09375
632,632,1729185711843,0.041992188,0.08886719,1.0234375,-0.09375,-0.09375,-0.15625
633,633,1729185711883,0.051757812,0.08691406,1.0351562,-0.03125,-0.09375,-0.0625
634,634,1729185711923,0.047851562,0.083984375,1.0234375,0.03125,-0.15625,0.0625
635,635,1729185711963,0.041992188,0.095703125,1.0253906,-0.09375,-0.09375,-0.125
636,636,1729185712003,0.041992188,0.080078125,1.0302734,-0.09375,-0.09375,-0.125
637,637,1729185712043,0.041015625,0.083984375,1.0302734,0.03125,0.15625,-0.125
638,638,1729185712083,0.052734375,0.078125,1.0244141,-0.09375,-0.09375,0.0
639,639,1729185712123,0.046875,0.078125,1.03125,-0.15625,-0.09375,-0.0625
640,640,1729185712163,0.047851562,0.08300781,1.0390625,-0.03125,-0.03125,0.0
641,641,1729185712203,0.045898438,0.08496094,1.0263672,-0.03125,-0.03125,-0.0625
642,642,1729185712243,0.047851562,0.083984375,1.0322266,-0.03125,-0.03125,0.0
643,643,1729185712283,0.048828125,0.08691406,1.0302734,-0.03125,-0.03125,0.0625
644,644,1729185712323,0.04296875,0.08300781,1.0234375,-0.03125,-0.03125,0.0625
645,645,1729185712363,0.04296875,0.083984375,1.0322266,-0.03125,-0.03125,0.0
646,646,1729185712403,0.051757812,0.08886719,1.03125,-0.09375,-0.09375,0.0625
647,647,1729185712443,0.041992188,0.08496094,1.0458984,-0.21875,-0.09375,-0.0625
648,648,1729185712483,0.044921875,0.08691406,1.0351562,-0.03125,-0.09375,0.0
649,649,1729185712523,0.046875,0.087890625,1.0253906,-0.09375,-0.03125,0.125
650,650,1729185712563,0.041015625,0.08203125,1.0273438,-0.09375,-0.09375,0.0625
651,651,1729185712603,0.043945312,0.087890625,1.0263672,-0.03125,-0.21875,0.0
652,652,1729185712643,0.057617188,0.08105469,1.0175781,0.03125,0.03125,0.0625
653,653,1729185712683,0.053710938,0.07910156,1.0322266,-0.15625,-0.25,-0.0625
654,654,1729185712723,0.043945312,0.08203125,1.0302734,-0.21875,-0.15625,-0.0625
655,655,1729185712763,0.051757812,0.08691406,1.0214844,-0.15625,0.21875,0.0
656,656,1729185712803,0.044921875,0.08203125,1.0341797,0.03125,0.15625,0.0
657,657,1729185712843,0.05078125,0.083984375,1.0273438,0.03125,0.03125,0.0
658,658,1729185712883,0.047851562,0.07910156,1.0283203,-0.03125,-0.21875,0.0
659,659,1729185712923,0.041015625,0.08105469,1.0234375,-0.09375,-0.15625,-0.125
660,660,1729185712963,0.041015625,0.08203125,1.0214844,0.03125,0.03125,0.0625
661,661,1729185713003,0.044921875,0.07519531,1.0107422,-0.09375,-0.03125,-0.125
662,662,1729185713043,0.0390625,0.08300781,1.0332031,-0.09375,-0.03125,-0.125
663,663,1729185713083,0.041992188,0.08105469,1.0244141,-0.09375,-0.09375,0.0625
664,664,1729185713123,0.047851562,0.08203125,1.0273438,-0.28125,-0.09375,0.125
665,665,1729185713163,0.046875,0.08496094,1.0302734,-0.28125,-0.03125,0.0625
666,666,1729185713203,0.048828125,0.087890625,1.0283203,-0.03125,0.03125,0.125
667,667,1729185713243,0.053710938,0.08984375,1.0146484,-0.09375,-0.15625,-0.0625
668,668,1729185713283,0.048828125,0.08886719,1.0302734,0.09375,0.09375,0.0
669,669,1729185713323,0.04296875,0.08300781,1.0205078,-0.09375,-0.09375,0.0
670,670,1729185713363,0.0390625,0.08300781,1.0263672,0.15625,0.15625,-0.0625
671,671,1729185713403,0.04296875,0.08886719,1.0175781,0.03125,0.09375,0.125
672,672,1729185713443,0.044921875,0.07714844,1.0302734,-0.03125,-0.03125,0.0
673,673,1729185713483,0.040039062,0.080078125,1.0283203,-0.09375,-0.15625,0.0
674,674,1729185713523,0.03515625,0.083984375,1.0185547,-0.09375,-0.03125,-0.0625
675,675,1729185713563,0.043945312,0.08203125,1.0205078,0.03125,0.15625,0.0
676,676,1729185713603,0.046875,0.08203125,1.0322266,-0.03125,-0.03125,0.0625
677,677,1729185713643,0.041992188,0.080078125,1.0410156,-0.03125,0.03125,0.0
678,678,1729185713683,0.043945312,0.09375,1.0273438,-0.03125,-0.15625,0.1875
679,679,1729185713723,0.036132812,0.08105469,1.0322266,0.03125,0.03125,0.1875
680,680,1729185713763,0.041992188,0.0859375,1.0185547,0.09375,0.15625,0.0625
681,681,1729185713803,0.043945312,0.07421875,1.0292969,0.03125,0.03125,0.125
682,682,1729185713843,0.048828125,0.07128906,1.0302734,0.09375,-0.03125,0.125
683,683,1729185713883,0.041992188,0.0859375,1.0273438,-0.03125,-0.03125,-0.0625
684,684,1729185713923,0.048828125,0.0859375,1.0234375,-0.09375,-0.09375,0.0625
685,685,1729185713963,0.034179688,0.08691406,1.0087891,0.09375,0.15625,0.0
686,686,1729185714003,0.04296875,0.08105469,1.0224609,0.03125,0.03125,0.125
687,687,1729185714043,0.0546875,0.07519531,1.0302734,-0.09375,-0.03125,0.0
688,688,1729185714083,0.046875,0.08203125,1.0214844,-0.03125,-0.03125,0.0625
689,689,1729185714123,0.048828125,0.087890625,1.0341797,-0.15625,-0.09375,0.0625
690,690,1729185714163,0.040039062,0.083984375,1.0341797,-0.15625,-0.09375,0.0
691,691,1729185714203,0.048828125,0.08203125,1.0341797,0.09375,0.09375,0.125
692,692,1729185714243,0.046875,0.08300781,1.0234375,0.03125,-0.03125,0.0625
693,693,1729185714283,0.041015625,0.080078125,1.0166016,-0.03125,-0.03125,0.0625
694,694,1729185714323,0.036132812,0.08300781,1.0195312,0.09375,0.03125,-0.0625
695,695,1729185714363,0.037109375,0.083984375,1.0341797,-0.03125,-0.09375,0.0625
696,696,1729185714403,0.0390625,0.08300781,1.0263672,-0.03125,-0.15625,-0.0625
697,697,1729185714443,0.049804688,0.08300781,1.0273438,-0.03125,-0.09375,-0.125
698,698,1729185714483,0.041992188,0.083984375,1.0292969,-0.15625,-0.15625,0.0
699,699,1729185714523,0.043945312,0.07714844,1.03125,-0.09375,-0.15625,-0.125
700,700,1729185714563,0.04296875,0.080078125,1.0117188,-0.21875,-0.09375,0.0625
701,701,1729185714603,0.044921875,0.08496094,1.0283203,0.03125,0.03125,0.125
702,702,1729185714643,0.046875,0.083984375,1.0195312,-0.03125,-0.09375,-0.0625
703,703,1729185714683,0.046875,0.08203125,1.0390625,0.03125,-0.03125,0.0625
704,704,1729185714723,0.036132812,0.08105469,1.0253906,-0.09375,-0.09375,-0.0625
705,705,1729185714763,0.044921875,0.07910156,1.0234375,-0.21875,-0.09375,-0.0625
706,706,1729185714803,0.043945312,0.076171875,1.0234375,-0.09375,-0.03125,0.125
707,707,1729185714843,0.036132812,0.083984375,1.0302734,-0.09375,-0.09375,0.0
708,708,1729185714883,0.041992188,0.076171875,1.0185547,0.03125,0.03125,0.0625
709,709,1729185714923,0.040039062,0.0859375,1.0419922,-0.03125,-0.09375,-0.0625
710,710,1729185714963,0.040039062,0.08203125,1.0146484,-0.09375,-0.09375,0.125
711,711,1729185715003,0.051757812,0.07421875,1.0332031,0.03125,0.03125,0.0
712,712,1729185715043,0.040039062,0.09667969,1.0361328,0.03125,-0.03125,0.1875
713,713,1729185715083,0.0546875,0.078125,1.0234375,-0.09375,-0.09375,0.0
714,714,1729185715123,0.045898438,0.08203125,1.0224609,-0.03125,-0.03125,0.0
715,715,1729185715163,0.033203125,0.09082031,1.0224609,-0.09375,-0.15625,0.0
716,716,1729185715203,0.040039062,0.078125,1.0371094,0.03125,0.09375,0.125
717,717,1729185715243,0.041992188,0.0859375,1.0263672,0.09375,0.03125,0.0
718,718,1729185715283,0.043945312,0.08105469,1.0263672,-0.03125,-0.03125,0.125
719,719,1729185715323,0.046875,0.078125,1.0244141,-0.03125,-0.15625,0.0
720,720,1729185715363,0.041992188,0.08691406,1.0253906,-0.15625,-0.03125,0.1875
721,721,1729185715403,0.051757812,0.09082031,1.0224609,-0.09375,0.09375,0.0
722,722,1729185715443,0.05078125,0.09082031,1.0341797,-0.28125,-0.09375,-0.0625
723,723,1729185715483,0.043945312,0.087890625,1.0263672,-0.28125,-0.09375,0.0
724,724,1729185715523,0.048828125,0.087890625,1.0341797,-0.15625,-0.15625,0.0625
725,725,1729185715563,0.045898438,0.08984375,1.0175781,-0.03125,-0.15625,0.125
726,726,1729185715603,0.044921875,0.08691406,1.0244141,-0.09375,0.09375,-0.125
727,727,1729185715643,0.04296875,0.083984375,1.0117188,0.03125,0.03125,0.0625
728,728,1729185715683,0.041992188,0.07910156,1.0283203,0.03125,-0.03125,0.0
729,729,1729185715723,0.028320312,0.078125,1.0175781,-0.15625,-0.09375,-0.0625
730,730,1729185715763,0.053710938,0.0859375,1.03125,-0.03125,-0.09375,0.0
731,731,1729185715803,0.041992188,0.08105469,1.0283203,-0.03125,-0.09375,0.0
732,732,1729185715843,0.041992188,0.08203125,1.0283203,0.03125,0.15625,0.0625
733,733,1729185715883,0.056640625,0.080078125,1.0039062,-0.09375,-0.03125,0.25
734,734,1729185715923,0.043945312,0.083984375,1.0351562,0.03125,0.09375,-0.125
735,735,1729185715963,0.049804688,0.08203125,1.0253906,-0.03125,-0.03125,0.0
736,736,1729185716003,0.04296875,0.09082031,1.0273438,0.09375,0.09375,0.125
737,737,1729185716043,0.041015625,0.08203125,1.0136719,0.15625,0.09375,0.0625
738,738,1729185716083,0.045898438,0.09082031,1.0253906,-0.03125,0.03125,-0.125
739,739,1729185716123,0.041015625,0.080078125,1.0253906,0.03125,0.03125,0.0
740,740,1729185716163,0.036132812,0.07910156,1.0224609,-0.09375,-0.03125,0.0
741,741,1729185716203,0.043945312,0.08886719,1.0253906,0.03125,0.03125,-0.0625
742,742,1729185716243,0.047851562,0.087890625,1.0380859,-0.09375,-0.03125,0.0
743,743,1729185716283,0.045898438,0.083984375,1.0263672,0.03125,0.03125,0.0
744,744,1729185716323,0.05078125,0.0859375,1.0205078,-0.09375,-0.03125,0.0
745,745,1729185716363,0.043945312,0.08984375,1.0273438,-0.03125,-0.03125,-0.1875
746,746,1729185716403,0.041992188,0.08300781,1.0263672,-0.15625,-0.09375,0.25
747,747,1729185716443,0.053710938,0.083984375,1.0253906,0.03125,-0.09375,-0.0625
748,748,1729185716483,0.041015625,0.08496094,1.0371094,0.3125,-0.03125,0.0625
749,749,1729185716523,0.044921875,0.080078125,1.0400391,0.5625,0.15625,0.0625
750,750,1729185716563,0.047851562,0.08203125,1.0205078,0.3125,0.15625,0.0625
751,751,1729185716603,0.05078125,0.08691406,1.0224609,0.15625,-0.03125,-0.0625
752,752,1729185716643,0.049804688,0.08300781,1.03125,0.09375,0.09375,-0.125
753,753,1729185716683,0.043945312,0.0859375,1.03125,0.03125,-0.03125,0.0625
754,754,1729185716723,0.044921875,0.078125,1.0097656,0.03125,0.03125,0.0625
755,755,1729185716763,0.043945312,0.087890625,1.015625,0.03125,-0.03125,0.0
756,756,1729185716803,0.044921875,0.07910156,1.0244141,0.03125,0.03125,-0.125
757,757,1729185716843,0.047851562,0.08691406,1.0332031,-0.03125,-0.03125,0.0
758,758,1729185716883,0.047851562,0.08300781,1.0292969,-0.03125,-0.03125,0.0
759,759,1729185716923,0.05078125,0.08300781,1.0351562,0.03125,0.03125,0.0
