,Unnamed: 0,timestamp,accel_x,accel_y,accel_z,gyro_x,gyro_y,gyro_z
0,0,1727872943012,-0.8310547,0.02734375,0.33007812,10.125,-17.03125,17.75
1,1,1727872943052,-0.75683594,-0.12011719,0.1796875,12.125,-10.4375,23.71875
2,2,1727872943092,-0.7109375,-0.072265625,0.53808594,63.34375,-6.125,17.5625
3,3,1727872943132,-0.8173828,-0.12988281,0.30273438,34.03125,-2.46875,12.0625
4,4,1727872943172,-0.7636719,-0.0146484375,0.296875,19.5625,14.875,-8.1875
5,5,1727872943212,-0.7441406,0.030273438,0.25976562,26.59375,0.09375,0.84375
6,6,1727872943252,-1.0605469,0.032226562,0.33398438,-8.0,-24.90625,11.9375
7,7,1727872943292,-1.4130859,-0.19921875,0.171875,-26.875,-45.65625,13.71875
8,8,1727872943332,-1.5458984,0.15625,0.024414062,7.625,-105.90625,5.65625
9,9,1727872943372,-1.1162109,0.3798828,0.453125,36.0,-98.28125,17.375
10,10,1727872943412,-1.3369141,-0.0390625,0.5810547,-17.34375,-67.09375,33.75
11,11,1727872943452,-1.0107422,0.29003906,0.6826172,42.71875,-61.40625,27.75
12,12,1727872943492,-0.94140625,-0.0029296875,0.37597656,45.6875,5.53125,26.40625
13,13,1727872943532,-0.7607422,0.2685547,0.48828125,29.53125,27.21875,0.65625
14,14,1727872943572,-0.83691406,0.40625,0.4013672,14.625,1.5,-3.90625
15,15,1727872943612,-0.6855469,0.18554688,0.41503906,-4.15625,20.8125,9.9375
16,16,1727872943652,-0.6484375,0.12011719,0.35351562,-33.875,50.15625,-2.46875
17,17,1727872943692,-0.625,0.13671875,0.35253906,-23.09375,46.0,-20.15625
18,18,1727872943732,-0.6845703,0.045898438,0.43847656,-39.3125,46.6875,-31.4375
19,19,1727872943772,-0.81933594,0.087890625,0.2626953,-42.9375,52.34375,-48.53125
20,20,1727872943812,-0.7529297,0.12695312,0.421875,-16.875,45.875,-34.8125
21,21,1727872943852,-0.76953125,0.27246094,0.3486328,-46.21875,51.1875,-20.59375
22,22,1727872943892,-0.8613281,0.052734375,0.23144531,-27.71875,30.0,0.78125
23,23,1727872943932,-1.1210938,0.24804688,0.31835938,-3.1875,25.3125,0.0
24,24,1727872943972,-1.4775391,-0.051757812,0.34375,11.75,-54.8125,41.1875
25,25,1727872944012,-1.1464844,-0.1171875,-0.015625,-36.28125,-13.5,27.9375
26,26,1727872944052,-1.6181641,-0.23535156,0.32128906,-2.34375,-50.125,42.03125
27,27,1727872944092,-0.9316406,0.17871094,0.67578125,14.5625,-25.84375,18.84375
28,28,1727872944132,-1.0400391,-0.18261719,0.40722656,6.9375,-7.9375,-43.90625
29,29,1727872944172,-1.1054688,-0.0029296875,0.26171875,5.125,15.84375,-39.4375
30,30,1727872944212,-0.8847656,0.06933594,0.3232422,9.5625,47.28125,-25.71875
31,31,1727872944252,-0.75,-0.0009765625,0.15527344,16.90625,28.71875,-18.21875
32,32,1727872944292,-0.9316406,0.0,0.25683594,12.5,42.15625,-13.6875
33,33,1727872944332,-0.765625,-0.016601562,0.26171875,1.03125,13.28125,-3.3125
34,34,1727872944372,-0.7939453,-0.053710938,0.37597656,6.40625,-6.4375,12.75
35,35,1727872944412,-0.76953125,0.09667969,0.33984375,16.09375,-31.03125,28.4375
36,36,1727872944452,-0.7246094,0.03515625,0.11035156,0.71875,-33.21875,25.125
37,37,1727872944492,-0.71484375,-0.024414062,0.4814453,39.15625,-34.0,16.53125
38,38,1727872944532,-0.92578125,-0.16113281,0.24121094,13.21875,-19.125,15.65625
39,39,1727872944572,-0.703125,0.17480469,0.5683594,-4.71875,9.75,18.28125
40,40,1727872944612,-0.9169922,-0.0068359375,0.3876953,-9.125,-29.125,35.15625
41,41,1727872944652,-1.2041016,0.052734375,0.39453125,2.3125,-80.46875,34.46875
42,42,1727872944692,-1.3730469,0.040039062,0.5751953,-6.96875,-99.4375,-2.9375
43,43,1727872944732,-1.3662109,0.37304688,0.6064453,24.21875,-55.5,24.59375
44,44,1727872944772,-1.1542969,0.4375,0.7285156,-0.375,-6.125,18.65625
45,45,1727872944812,-1.0839844,0.28027344,0.48632812,25.6875,-0.5,16.65625
46,46,1727872944852,-0.84375,0.1953125,0.48339844,22.9375,20.125,18.65625
47,47,1727872944892,-0.6582031,0.23925781,0.3857422,-8.125,43.8125,5.65625
48,48,1727872944932,-0.7285156,0.27929688,0.34570312,-16.0625,61.875,1.5625
49,49,1727872944972,-0.7285156,0.17480469,0.2734375,-0.9375,43.9375,-5.75
50,50,1727872945012,-0.6201172,0.19042969,0.29296875,-32.375,73.46875,-32.0
51,51,1727872945052,-0.8769531,0.1171875,0.35058594,-46.03125,67.1875,-50.375
52,52,1727872945092,-0.71484375,0.046875,0.2890625,-14.65625,23.4375,-34.5
53,53,1727872945132,-0.7363281,0.12792969,0.3125,-26.375,35.15625,-39.5
54,54,1727872945172,-0.81933594,0.24902344,0.29296875,-42.9375,30.25,-21.9375
55,55,1727872945212,-0.8847656,0.16601562,0.328125,-23.9375,0.40625,-11.125
56,56,1727872945252,-0.7314453,0.12890625,0.36328125,-24.96875,4.625,2.0
57,57,1727872945292,-1.0507812,0.08300781,0.45703125,-12.65625,25.625,0.65625
58,58,1727872945332,-1.3818359,0.14160156,0.24804688,10.65625,-27.90625,26.28125
59,59,1727872945372,-1.1533203,0.140625,0.22558594,-8.9375,-15.40625,20.6875
60,60,1727872945412,-1.7089844,-0.31152344,0.4140625,-14.3125,-63.1875,10.84375
61,61,1727872945452,-0.9169922,0.030273438,0.39453125,0.0,-45.84375,15.84375
62,62,1727872945492,-1.0644531,-0.18164062,0.45703125,16.78125,1.15625,-22.53125
63,63,1727872945532,-1.0712891,0.034179688,0.26953125,15.5,22.5625,-46.09375
64,64,1727872945572,-0.94140625,-0.034179688,0.20996094,21.59375,38.375,-17.84375
65,65,1727872945612,-0.7626953,0.083984375,0.29589844,24.21875,39.46875,-24.6875
66,66,1727872945652,-0.9296875,-0.037109375,0.20898438,7.25,36.46875,-11.4375
67,67,1727872945692,-0.828125,-0.0068359375,0.28125,-10.8125,23.4375,-0.25
68,68,1727872945732,-0.83203125,-0.045898438,0.39648438,-14.1875,13.78125,0.0
69,69,1727872945772,-0.6347656,0.029296875,0.040039062,-5.9375,-15.75,14.625
70,70,1727872945812,-0.7011719,0.064453125,0.41503906,46.375,-17.46875,24.28125
71,71,1727872945852,-0.8339844,-0.14453125,0.21191406,2.3125,-18.09375,19.03125
72,72,1727872945892,-0.6953125,0.047851562,0.30566406,19.625,-26.625,23.46875
73,73,1727872945932,-0.90234375,0.013671875,0.4169922,26.0,-49.03125,37.875
74,74,1727872945972,-0.96875,0.08496094,0.3701172,11.21875,-65.3125,44.34375
75,75,1727872946012,-1.4472656,-0.05859375,0.5019531,34.09375,-89.0625,19.6875
76,76,1727872946052,-1.0175781,0.265625,0.5361328,66.6875,-51.21875,28.4375
77,77,1727872946092,-1.7021484,0.47851562,0.5996094,59.875,-78.03125,5.90625
78,78,1727872946132,-0.83984375,0.40820312,0.42871094,36.53125,-22.78125,0.15625
79,79,1727872946172,-0.9375,0.24511719,0.45898438,22.5625,-13.6875,5.78125
80,80,1727872946212,-0.85253906,0.28027344,0.36132812,1.9375,-3.5625,-3.0
81,81,1727872946252,-0.71191406,0.23730469,0.34960938,2.25,41.3125,-8.5
82,82,1727872946292,-0.61621094,0.20117188,0.36035156,-11.5,50.71875,-9.40625
83,83,1727872946332,-0.60253906,0.09863281,0.30664062,-11.71875,47.09375,-19.375
84,84,1727872946372,-0.6513672,0.20117188,0.3720703,-40.59375,83.78125,-43.96875
85,85,1727872946412,-0.8173828,0.091796875,0.2626953,-40.71875,63.9375,-47.0
86,86,1727872946452,-0.578125,0.1875,0.1328125,-29.75,51.6875,-41.40625
87,87,1727872946492,-0.8564453,0.21875,0.48242188,-31.625,60.90625,-33.9375
88,88,1727872946532,-0.76660156,0.24414062,0.33398438,-37.5625,20.125,-3.75
89,89,1727872946572,-1.1464844,0.08105469,0.25683594,56.9375,-45.71875,5.78125
90,90,1727872946612,-1.3935547,0.045898438,0.2529297,23.90625,-75.34375,35.625
91,91,1727872946652,-1.3935547,0.013671875,0.2998047,-43.34375,7.84375,15.96875
92,92,1727872946692,-1.4248047,-0.043945312,0.40527344,-13.9375,-86.5,38.8125
93,93,1727872946732,-0.96777344,-0.2626953,0.5527344,-21.3125,-32.25,18.0625
94,94,1727872946772,-1.1728516,-0.083984375,0.45214844,-9.53125,15.65625,-46.40625
95,95,1727872946812,-0.9980469,0.20507812,0.3720703,5.34375,44.25,-14.125
96,96,1727872946852,-0.8730469,0.025390625,0.41503906,-6.84375,44.71875,-13.9375
97,97,1727872946892,-0.8496094,-0.08105469,0.29882812,-24.6875,49.25,-29.625
98,98,1727872946932,-0.89941406,0.020507812,0.3623047,-10.28125,56.375,-21.25
99,99,1727872946972,-0.83496094,0.029296875,0.26757812,-8.875,39.90625,-11.90625
100,100,1727872947012,-0.75878906,0.0546875,0.28710938,-2.09375,18.78125,1.5
101,101,1727872947052,-0.83203125,-0.0048828125,0.33398438,-7.9375,-1.59375,12.375
102,102,1727872947092,-0.7089844,-0.041015625,0.140625,11.65625,-13.9375,12.5
103,103,1727872947132,-0.6308594,-0.06640625,0.20703125,45.625,-36.5,27.5
104,104,1727872947172,-0.7167969,-0.12207031,0.34277344,51.5,-41.65625,16.84375
105,105,1727872947212,-0.828125,-0.057617188,0.5625,63.15625,-22.78125,3.59375
106,106,1727872947252,-0.82910156,-0.06640625,0.4921875,48.25,-12.34375,12.625
107,107,1727872947292,-0.85839844,-0.083984375,0.47460938,51.0625,-11.4375,19.5625
108,108,1727872947332,-1.3320312,0.040039062,0.33789062,59.0625,-42.5625,-7.9375
109,109,1727872947372,-1.4736328,0.30859375,0.328125,39.53125,-65.8125,-16.25
110,110,1727872947412,-0.984375,0.3486328,0.53515625,46.5,-31.75,3.90625
111,111,1727872947452,-1.6123047,0.11328125,0.578125,14.5625,-99.75,15.5
112,112,1727872947492,-1.0703125,0.22753906,0.39648438,48.875,-36.9375,-20.84375
113,113,1727872947532,-0.7519531,0.103515625,0.34277344,64.5,32.15625,-16.375
114,114,1727872947572,-0.7519531,0.16992188,0.29003906,90.875,-4.65625,-8.0625
115,115,1727872947612,-0.6503906,0.19628906,0.28710938,70.0625,-10.5625,-20.84375
116,116,1727872947652,-0.68652344,0.09277344,0.30273438,45.34375,26.0,-43.09375
117,117,1727872947692,-0.7285156,0.14160156,0.4169922,16.9375,23.125,-45.1875
118,118,1727872947732,-0.68847656,0.20605469,0.421875,-17.84375,34.84375,-41.28125
119,119,1727872947772,-0.81152344,0.15722656,0.36328125,-7.78125,39.65625,-38.15625
120,120,1727872947812,-0.63183594,0.025390625,0.25976562,9.25,16.15625,-36.09375
121,121,1727872947852,-0.71777344,0.10058594,0.20507812,-9.34375,24.46875,-47.625
122,122,1727872947892,-0.6875,0.24511719,0.33691406,20.1875,4.8125,-37.0
123,123,1727872947932,-0.63964844,0.22851562,0.26464844,-6.4375,6.40625,-20.78125
124,124,1727872947972,-0.7548828,0.20019531,0.2919922,-7.15625,2.1875,-22.21875
125,125,1727872948012,-0.6923828,0.12109375,0.40722656,0.59375,-1.1875,-13.1875
126,126,1727872948052,-0.859375,0.1015625,0.5048828,-32.96875,33.96875,-17.21875
127,127,1727872948092,-1.4355469,0.22070312,0.3935547,-46.09375,40.4375,-15.21875
128,128,1727872948132,-1.5039062,0.26660156,-0.049804688,-19.59375,-14.84375,43.4375
129,129,1727872948172,-1.2626953,-0.21386719,0.41601562,-46.875,3.53125,19.75
130,130,1727872948212,-1.765625,-0.3095703,0.42871094,-19.84375,2.25,-8.6875
131,131,1727872948252,-1.0986328,-0.16992188,0.43066406,22.3125,2.375,-20.03125
132,132,1727872948292,-0.87890625,-0.05859375,0.14160156,-20.46875,35.3125,-48.84375
133,133,1727872948332,-0.8535156,0.19921875,0.045898438,-22.21875,62.375,-35.0
134,134,1727872948372,-0.85546875,-0.048828125,0.29882812,7.125,61.25,-26.875
135,135,1727872948412,-0.7861328,-0.032226562,0.2265625,-25.90625,31.1875,-19.53125
136,136,1727872948452,-0.95996094,-0.018554688,0.3779297,17.6875,17.75,-2.15625
137,137,1727872948492,-0.86816406,-0.20703125,0.33984375,19.6875,-3.3125,21.15625
138,138,1727872948532,-0.7529297,-0.099609375,0.2890625,19.15625,-14.40625,16.78125
139,139,1727872948572,-0.6894531,0.09667969,0.203125,61.375,-12.03125,4.125
140,140,1727872948612,-0.6425781,-0.022460938,0.2265625,30.0625,-22.28125,19.9375
141,141,1727872948652,-0.7783203,0.043945312,0.3330078,57.96875,-30.78125,26.84375
142,142,1727872948692,-0.7001953,-0.14355469,0.26660156,25.25,-18.375,19.21875
143,143,1727872948732,-0.7089844,-0.068359375,0.20996094,32.9375,-14.0625,5.34375
144,144,1727872948772,-0.9746094,0.06640625,0.35839844,50.15625,-43.65625,20.5625
145,145,1727872948812,-1.3085938,-0.029296875,0.26953125,44.0,-74.71875,17.75
146,146,1727872948852,-1.5908203,0.051757812,0.32226562,43.8125,-97.0625,21.34375
147,147,1727872948892,-1.5576172,0.65625,0.51660156,34.28125,-89.6875,35.25
148,148,1727872948932,-1.2099609,0.33398438,0.75683594,22.875,-37.0625,20.5625
149,149,1727872948972,-1.1005859,0.34960938,0.65722656,10.53125,-36.15625,20.25
150,150,1727872949012,-0.7480469,0.29296875,0.4013672,36.96875,-25.59375,4.8125
151,151,1727872949052,-0.61621094,0.10253906,0.23632812,15.1875,48.375,-12.40625
152,152,1727872949092,-0.6152344,0.2841797,0.38964844,9.8125,65.84375,-24.90625
153,153,1727872949132,-0.6455078,0.20214844,0.3388672,5.0625,54.5625,-25.96875
154,154,1727872949172,-0.6982422,0.17480469,0.3408203,-29.75,82.4375,-44.21875
155,155,1727872949212,-0.7138672,0.15527344,0.43554688,-38.71875,80.125,-48.53125
156,156,1727872949252,-0.63671875,-0.17285156,0.07324219,-6.84375,17.0,-41.8125
157,157,1727872949292,-0.64746094,0.22265625,0.23046875,-26.8125,45.875,-50.375
158,158,1727872949332,-0.9267578,0.4638672,0.27929688,-55.3125,63.875,-27.1875
159,159,1727872949372,-0.9589844,0.20703125,0.4658203,-10.5625,-4.90625,4.4375
160,160,1727872949412,-0.78808594,0.09765625,0.12597656,-12.59375,-6.0,15.96875
161,161,1727872949452,-1.4033203,0.04296875,0.3095703,21.71875,-1.53125,19.5625
162,162,1727872949492,-1.4863281,-0.015625,0.017578125,11.46875,-88.28125,46.25
163,163,1727872949532,-1.3349609,-0.27734375,0.5722656,-11.78125,-81.875,5.78125
164,164,1727872949572,-0.90527344,-0.15917969,0.49414062,40.9375,-60.5625,7.5
165,165,1727872949612,-1.1357422,-0.0126953125,0.44335938,40.875,-12.46875,-19.5
166,166,1727872949652,-1.1855469,0.15136719,0.453125,10.84375,53.375,-44.28125
167,167,1727872949692,-0.8857422,0.10058594,0.22363281,-5.3125,65.96875,-33.71875
168,168,1727872949732,-0.7548828,-0.08105469,0.19824219,22.09375,41.3125,-20.71875
169,169,1727872949772,-0.8359375,-0.041992188,0.19140625,28.0,51.625,-12.53125
170,170,1727872949812,-0.84277344,-0.03515625,0.36523438,24.03125,42.28125,-9.15625
171,171,1727872949852,-0.7949219,0.029296875,0.29492188,2.78125,32.03125,-6.96875
172,172,1727872949892,-0.8359375,0.05859375,0.42578125,5.78125,19.53125,12.25
173,173,1727872949932,-0.73046875,-0.13183594,0.28027344,17.8125,-6.59375,22.125
174,174,1727872949972,-0.78027344,0.4609375,0.6455078,12.0625,27.28125,-21.5
175,175,1727872950012,-1.0400391,0.20996094,0.7246094,58.625,-14.40625,-15.75
176,176,1727872950052,-1.5771484,0.2265625,0.3232422,52.84375,-38.90625,-11.375
177,177,1727872950092,-1.2099609,0.24609375,0.12011719,-1.34375,18.28125,13.84375
178,178,1727872950132,-0.59765625,-0.13476562,0.06640625,43.5,25.8125,-0.9375
179,179,1727872950172,-0.79003906,-0.30664062,0.056640625,10.375,4.25,-41.8125
180,180,1727872950212,-1.1455078,0.099609375,-0.12011719,20.1875,59.25,-60.9375
181,181,1727872950252,-1.0644531,0.23046875,0.29492188,11.59375,41.4375,-40.0625
182,182,1727872950292,-0.9199219,0.072265625,0.07324219,23.96875,0.78125,-23.625
183,183,1727872950332,-0.9921875,-0.15527344,0.17675781,7.5,8.46875,-33.875
184,184,1727872950372,-0.94140625,-0.030273438,0.15722656,32.40625,25.5,-42.3125
185,185,1727872950412,-0.99609375,0.0,0.19140625,40.8125,35.625,-40.25
186,186,1727872950452,-1.0429688,-0.03515625,0.17578125,29.15625,9.5,-27.46875
187,187,1727872950492,-0.9863281,0.049804688,0.18652344,21.15625,-4.96875,-18.5625
188,188,1727872950532,-0.91503906,0.024414062,0.203125,6.5,-8.25,-7.78125
189,189,1727872950572,-0.9042969,-0.059570312,0.15625,20.1875,-11.96875,3.90625
190,190,1727872950612,-0.890625,0.025390625,0.23925781,8.96875,-9.0625,6.875
191,191,1727872950652,-0.7529297,0.00390625,0.076171875,-1.78125,-13.6875,12.25
192,192,1727872950692,-0.7314453,-0.032226562,0.18066406,1.3125,-17.59375,23.65625
193,193,1727872950732,-0.6152344,-0.024414062,0.265625,4.5,-7.46875,23.65625
194,194,1727872950772,-0.81152344,0.041015625,0.2265625,12.3125,-12.71875,25.75
195,195,1727872950812,-0.7988281,-0.0146484375,0.34765625,13.34375,-7.03125,25.125
196,196,1727872950852,-0.7050781,-0.053710938,0.46484375,13.65625,-7.71875,3.59375
197,197,1727872950892,-0.9824219,-0.123046875,0.42578125,1.28125,-6.125,1.09375
198,198,1727872950932,-1.4433594,-0.043945312,0.052734375,18.34375,-26.3125,-1.25
199,199,1727872950972,-1.4609375,0.2685547,0.001953125,23.375,-105.71875,10.71875
200,200,1727872951012,-1.5917969,0.5263672,0.171875,24.21875,-154.9375,27.8125
201,201,1727872951052,-1.0234375,0.032226562,0.5917969,44.78125,-51.96875,44.46875
202,202,1727872951092,-1.0195312,0.2783203,0.3642578,-13.125,-42.5,29.28125
203,203,1727872951132,-1.3134766,0.54785156,0.51171875,24.15625,-105.53125,30.5
204,204,1727872951172,-0.6923828,0.12402344,0.41210938,24.75,-13.3125,18.21875
205,205,1727872951212,-0.70214844,0.20996094,0.49902344,6.34375,20.375,15.0625
206,206,1727872951252,-0.55859375,0.23925781,0.4169922,13.90625,-5.9375,8.46875
207,207,1727872951292,-0.36523438,0.17285156,0.30371094,22.5,33.3125,-10.40625
208,208,1727872951332,-0.46777344,0.029296875,0.3125,4.8125,84.9375,-40.96875
209,209,1727872951372,-0.49804688,0.083984375,0.5048828,-22.59375,73.78125,-54.03125
210,210,1727872951412,-0.86035156,0.17578125,0.47265625,-57.21875,46.625,-76.3125
211,211,1727872951452,-0.8857422,0.31152344,0.36328125,-63.5,84.34375,-94.375
212,212,1727872951492,-0.75,0.44140625,0.18847656,-16.75,43.5625,1.15625
213,213,1727872951532,-0.7480469,0.055664062,0.32226562,19.6875,-37.84375,28.71875
214,214,1727872951572,-1.7246094,0.12402344,0.30664062,33.96875,-0.75,14.75
215,215,1727872951612,-1.6894531,-0.25195312,0.46777344,32.5625,-58.65625,40.625
216,216,1727872951652,-1.4785156,0.041015625,0.6689453,1.09375,-46.34375,-15.59375
217,217,1727872951692,-1.0107422,0.028320312,0.4248047,-8.5625,-19.53125,1.09375
218,218,1727872951732,-1.2617188,0.018554688,0.60546875,1.8125,13.28125,-20.84375
219,219,1727872951772,-1.0292969,-0.0390625,0.21289062,-45.96875,44.28125,-33.71875
220,220,1727872951812,-0.8066406,-0.00390625,0.23242188,-9.96875,59.3125,-26.1875
221,221,1727872951852,-0.7080078,0.057617188,0.28222656,-5.25,52.46875,-27.96875
222,222,1727872951892,-0.80566406,-0.03515625,0.15527344,-2.28125,33.4375,-9.15625
223,223,1727872951932,-0.74609375,-0.078125,0.25097656,-9.78125,17.3125,2.125
224,224,1727872951972,-0.58984375,-0.0048828125,0.3173828,-22.15625,-5.5625,3.21875
225,225,1727872952012,-0.66503906,0.01171875,0.32910156,17.6875,-12.71875,2.71875
226,226,1727872952052,-0.6796875,0.076171875,0.2421875,14.15625,-33.71875,34.40625
227,227,1727872952092,-0.7216797,-0.12792969,0.2998047,36.65625,-43.40625,38.875
228,228,1727872952132,-0.73046875,-0.08691406,0.49121094,6.03125,-27.71875,26.90625
229,229,1727872952172,-1.1943359,-0.087890625,0.3671875,28.4375,-41.03125,26.65625
230,230,1727872952212,-1.3203125,0.13964844,0.5126953,23.1875,-83.6875,21.34375
231,231,1727872952252,-1.2333984,-0.005859375,0.48535156,49.96875,-86.0,5.21875
232,232,1727872952292,-1.1845703,0.43066406,0.5673828,64.1875,-30.90625,11.40625
233,233,1727872952332,-1.4121094,0.66503906,0.54785156,34.28125,-10.21875,0.03125
234,234,1727872952372,-1.0234375,0.390625,0.3046875,34.78125,-2.6875,6.46875
235,235,1727872952412,-0.9638672,0.19042969,0.36621094,19.09375,3.03125,5.125
236,236,1727872952452,-0.8496094,0.34277344,0.39160156,-13.8125,21.59375,-6.78125
237,237,1727872952492,-0.7734375,0.25097656,0.4111328,-17.96875,31.0,16.40625
238,238,1727872952532,-0.6542969,0.13671875,0.40039062,-25.59375,28.0,11.40625
239,239,1727872952572,-0.6191406,0.12792969,0.3955078,-31.375,46.0,-5.875
240,240,1727872952612,-0.5839844,0.14160156,0.31933594,-28.59375,58.875,-22.90625
241,241,1727872952652,-0.58203125,0.061523438,0.3935547,-14.65625,46.25,-21.1875
242,242,1727872952692,-0.5966797,0.111328125,0.19335938,-43.03125,58.75,-51.71875
243,243,1727872952732,-0.76953125,0.13085938,0.3017578,-27.90625,72.5625,-54.9375
244,244,1727872952772,-0.8017578,0.20605469,0.4345703,-48.40625,48.03125,-28.875
245,245,1727872952812,-0.9238281,0.18652344,0.2939453,-22.71875,6.9375,-8.125
246,246,1727872952852,-1.4960938,0.14257812,0.15527344,33.0625,-25.21875,7.8125
247,247,1727872952892,-1.2724609,0.17578125,0.2265625,-26.75,-51.21875,35.8125
248,248,1727872952932,-1.5039062,0.005859375,0.171875,-38.34375,-64.21875,18.53125
249,249,1727872952972,-1.1201172,-0.0546875,0.5058594,-25.46875,-64.15625,14.375
250,250,1727872953012,-0.95214844,-0.31640625,0.63964844,1.21875,15.3125,3.34375
251,251,1727872953052,-1.2382812,0.083984375,0.43164062,-2.34375,19.34375,-23.9375
252,252,1727872953092,-0.984375,0.12988281,0.34179688,-1.40625,64.6875,-14.71875
253,253,1727872953132,-0.9189453,-0.1015625,0.2626953,-29.0625,66.6875,-28.53125
254,254,1727872953172,-0.88964844,0.0146484375,0.036132812,-26.125,57.71875,-19.59375
255,255,1727872953212,-0.7910156,-0.0126953125,0.11230469,-1.53125,26.28125,0.96875
256,256,1727872953252,-0.625,0.0087890625,0.080078125,-17.59375,11.21875,7.6875
257,257,1727872953292,-0.7480469,0.061523438,0.34179688,-1.53125,-18.9375,24.28125
258,258,1727872953332,-0.66015625,0.0234375,0.36816406,-3.375,-64.78125,46.0
259,259,1727872953372,-0.4873047,-0.060546875,0.27441406,-26.5,-42.125,27.28125
260,260,1727872953412,-0.8408203,-0.1484375,0.22363281,14.875,-70.15625,16.9375
261,261,1727872953452,-0.28222656,0.23046875,0.6201172,31.65625,-53.25,43.0
262,262,1727872953492,-1.1923828,0.0,0.55078125,29.90625,-46.65625,44.53125
263,263,1727872953532,-1.9404297,0.07421875,0.3671875,37.21875,-69.03125,22.09375
264,264,1727872953572,-1.4179688,0.55078125,0.5996094,-8.5625,-60.8125,-5.75
265,265,1727872953612,-1.2666016,0.47460938,0.56933594,29.9375,-51.15625,-7.71875
266,266,1727872953652,-1.0175781,0.4375,0.6982422,-10.5625,-23.21875,7.125
267,267,1727872953692,-1.1083984,0.12695312,0.58984375,7.96875,-23.28125,15.0625
268,268,1727872953732,-0.7470703,0.115234375,0.32421875,41.65625,18.53125,2.90625
269,269,1727872953772,-0.6660156,0.32226562,0.4169922,30.3125,44.40625,-0.6875
270,270,1727872953812,-0.6582031,0.2607422,0.5048828,12.75,42.15625,6.875
271,271,1727872953852,-0.68359375,0.14941406,0.42382812,-20.78125,57.90625,-1.90625
272,272,1727872953892,-0.72265625,0.17773438,0.29296875,-23.75,67.71875,-23.4375
273,273,1727872953932,-0.5488281,0.13964844,0.30273438,-15.59375,69.875,-33.09375
274,274,1727872953972,-0.67871094,-0.0107421875,0.25976562,-42.75,59.90625,-44.5
275,275,1727872954012,-0.66796875,0.26171875,0.18457031,-60.75,81.15625,-66.25
276,276,1727872954052,-0.7548828,0.26660156,0.34570312,-35.90625,28.3125,-24.6875
277,277,1727872954092,-0.7753906,0.123046875,0.5810547,-14.3125,2.65625,5.21875
278,278,1727872954132,-0.9169922,0.109375,0.16503906,31.59375,-39.5625,1.3125
279,279,1727872954172,-1.7246094,0.20214844,0.13867188,19.8125,-40.1875,47.46875
280,280,1727872954212,-1.0390625,-0.026367188,0.3095703,28.5625,-68.375,45.40625
281,281,1727872954252,-1.7119141,0.111328125,0.5341797,-12.71875,-85.46875,-12.34375
282,282,1727872954292,-0.89160156,-0.06347656,0.5439453,22.09375,-61.59375,9.5
283,283,1727872954332,-1.1044922,-0.12207031,0.5810547,4.9375,48.6875,-26.8125
284,284,1727872954372,-1.21875,0.3984375,0.47558594,21.65625,18.34375,-47.5625
285,285,1727872954412,-0.9248047,0.06347656,0.28222656,4.375,57.59375,-20.84375
286,286,1727872954452,-0.765625,-0.16113281,0.24023438,-11.0625,62.5,-25.34375
287,287,1727872954492,-0.6904297,0.1171875,0.16894531,-2.59375,61.5625,-20.28125
288,288,1727872954532,-0.8486328,0.0390625,0.29101562,18.78125,47.03125,4.25
289,289,1727872954572,-0.74902344,0.0390625,0.24609375,-13.25,20.5,11.59375
290,290,1727872954612,-0.6855469,0.19824219,0.3125,-12.78125,-14.25,22.5625
291,291,1727872954652,-0.7109375,-0.0048828125,0.27441406,6.15625,-27.71875,28.625
292,292,1727872954692,-0.78027344,-0.140625,0.33496094,6.625,-32.84375,21.03125
293,293,1727872954732,-0.55859375,0.013671875,0.34375,16.46875,-10.21875,20.25
294,294,1727872954772,-0.7216797,-0.07128906,0.38183594,8.84375,-13.125,16.84375
295,295,1727872954812,-1.2480469,0.0703125,0.10546875,-2.59375,-53.125,20.375
296,296,1727872954852,-1.2705078,0.296875,0.45214844,19.46875,-117.625,25.3125
297,297,1727872954892,-1.5878906,0.22167969,0.58496094,56.0625,-99.375,31.90625
298,298,1727872954932,-1.265625,0.4404297,0.5410156,45.53125,-69.40625,25.5625
299,299,1727872954972,-1.109375,0.609375,0.59472656,75.59375,-8.1875,5.21875
300,300,1727872955012,-1.1181641,0.33789062,0.5263672,42.28125,-3.0,5.0
301,301,1727872955052,-0.7578125,0.33398438,0.35058594,35.75,30.8125,-21.75
302,302,1727872955092,-0.6386719,0.28710938,0.34375,2.84375,53.4375,-27.1875
303,303,1727872955132,-0.6357422,0.24804688,0.265625,-3.3125,47.03125,-25.90625
304,304,1727872955172,-0.65722656,0.265625,0.26757812,-17.40625,70.78125,-42.75
305,305,1727872955212,-0.6669922,0.14257812,0.3330078,-43.40625,89.15625,-34.5625
306,306,1727872955252,-0.65625,-0.03125,0.12988281,-46.03125,28.0,-47.5625
307,307,1727872955292,-0.8125,0.2626953,0.19628906,-26.125,38.125,-55.875
308,308,1727872955332,-0.8359375,0.41796875,0.3076172,-50.96875,39.84375,-34.4375
309,309,1727872955372,-0.67871094,0.10253906,0.421875,-32.0,-16.25,2.96875
310,310,1727872955412,-0.66308594,0.016601562,0.2939453,-9.84375,-12.90625,-1.46875
311,311,1727872955452,-1.09375,0.1953125,0.25097656,-6.59375,19.6875,-1.71875
312,312,1727872955492,-1.5351562,0.22558594,0.1796875,4.375,-13.125,36.96875
313,313,1727872955532,-1.2763672,0.091796875,0.20214844,-40.53125,-13.9375,19.09375
314,314,1727872955572,-1.7041016,-0.32226562,0.7050781,-2.34375,-90.09375,13.84375
315,315,1727872955612,-1.0126953,-0.2578125,0.50097656,17.6875,-7.65625,6.15625
316,316,1727872955652,-1.0380859,0.05859375,0.28320312,34.28125,-3.5625,-42.3125
317,317,1727872955692,-1.0693359,0.14648438,0.2919922,43.625,44.125,-32.4375
318,318,1727872955732,-0.87402344,-0.024414062,0.3232422,30.9375,51.0,-29.1875
319,319,1727872955772,-0.7597656,-0.07324219,0.099609375,-2.6875,57.34375,-27.25
320,320,1727872955812,-0.79589844,0.05078125,0.12109375,-10.21875,62.375,-16.75
321,321,1727872955852,-0.7939453,0.07421875,0.28027344,-10.21875,-22.84375,13.65625
322,322,1727872955892,-0.6435547,-0.09375,0.10839844,-26.6875,-40.3125,8.71875
323,323,1727872955932,-0.63671875,-0.11035156,0.23730469,19.625,-22.59375,15.0625
324,324,1727872955972,-0.76660156,-0.08300781,0.29785156,41.65625,-18.75,14.5
325,325,1727872956012,-0.6669922,-0.0078125,0.35253906,44.0,4.75,14.15625
326,326,1727872956052,-0.7246094,0.03125,0.17578125,39.0,-2.9375,3.21875
327,327,1727872956092,-0.79785156,0.14648438,0.40625,47.78125,-9.46875,7.125
328,328,1727872956132,-1.5078125,0.028320312,0.12011719,34.46875,-31.375,7.625
329,329,1727872956172,-1.5400391,0.08203125,0.19042969,41.25,-83.28125,5.53125
330,330,1727872956212,-1.4609375,0.75097656,0.25878906,8.09375,-98.03125,24.09375
331,331,1727872956252,-1.4414062,0.34277344,0.53125,47.53125,-64.40625,31.0
332,332,1727872956292,-0.8808594,0.22460938,0.56347656,12.875,-51.28125,25.6875
333,333,1727872956332,-1.0322266,0.296875,0.44628906,-0.5625,-30.71875,19.40625
334,334,1727872956372,-0.78222656,0.28125,0.29785156,31.65625,-8.125,11.15625
335,335,1727872956412,-0.6308594,0.059570312,0.23535156,44.1875,33.84375,2.78125
336,336,1727872956452,-0.6542969,0.29296875,0.27148438,15.84375,40.4375,-16.0
337,337,1727872956492,-0.7158203,0.26757812,0.23046875,0.34375,35.15625,-18.9375
338,338,1727872956532,-0.71972656,0.21875,0.25195312,-11.625,51.5625,-30.15625
339,339,1727872956572,-1.1552734,0.2890625,0.12988281,-49.28125,52.15625,38.75
340,340,1727872956612,-1.2675781,-0.24316406,0.5576172,-74.96875,-71.0,14.3125
341,341,1727872956652,-1.2617188,-0.18652344,0.2939453,-35.78125,-49.5,0.03125
342,342,1727872956692,-1.1523438,-0.12597656,0.40234375,34.46875,0.09375,-10.4375
343,343,1727872956732,-0.92578125,0.12988281,0.13964844,8.71875,47.84375,-28.75
344,344,1727872956772,-0.91308594,0.40722656,0.10253906,41.96875,23.46875,-21.9375
345,345,1727872956812,-0.8486328,0.09375,0.328125,-2.28125,56.875,-21.5625
346,346,1727872956852,-0.8359375,0.018554688,0.21875,-37.1875,32.46875,-23.40625
347,347,1727872956892,-0.85546875,-0.13769531,0.23339844,-10.8125,28.78125,-1.84375
348,348,1727872956932,-0.7910156,-0.024414062,0.35351562,17.75,6.46875,9.5625
349,349,1727872956972,-0.6972656,0.08105469,0.2861328,19.03125,-24.0,17.375
350,350,1727872957012,-0.7324219,-0.041015625,0.28710938,42.53125,-35.21875,22.03125
351,351,1727872957052,-0.63378906,-0.0126953125,0.1328125,26.28125,-33.875,12.9375
352,352,1727872957092,-0.6640625,-0.037109375,0.25195312,48.03125,-29.625,15.71875
353,353,1727872957132,-0.77734375,0.0146484375,0.44726562,45.625,-33.875,14.09375
354,354,1727872957172,-1.1357422,0.12109375,0.41992188,22.8125,-31.6875,17.5
355,355,1727872957212,-1.3251953,0.10644531,0.42871094,35.3125,-65.75,16.65625
356,356,1727872957252,-1.5292969,0.09277344,0.56152344,51.9375,-89.0625,10.1875
357,357,1727872957292,-1.3515625,0.59472656,0.3876953,51.1875,-54.34375,20.1875
358,358,1727872957332,-1.1806641,0.4267578,0.46972656,48.75,-51.78125,20.1875
359,359,1727872957372,-0.8251953,0.3154297,0.48339844,34.53125,-48.78125,20.1875
360,360,1727872957412,-0.89160156,0.29003906,0.41796875,28.84375,-25.59375,14.625
361,361,1727872957452,-0.8300781,0.2685547,0.30664062,22.6875,17.5,0.71875
362,362,1727872957492,-0.6845703,0.3173828,0.390625,3.78125,30.4375,-6.71875
363,363,1727872957532,-0.72753906,0.29785156,0.3515625,-9.0,29.53125,-7.9375
364,364,1727872957572,-0.6777344,0.2548828,0.37304688,-21.5,54.25,-14.71875
365,365,1727872957612,-0.6542969,0.1484375,0.3466797,-27.34375,73.71875,-35.0
366,366,1727872957652,-0.46191406,0.111328125,0.34765625,-19.375,59.375,-22.78125
367,367,1727872957692,-0.6875,0.10546875,0.18652344,-26.125,35.8125,-44.3125
368,368,1727872957732,-0.76464844,0.31640625,0.37304688,-35.90625,68.71875,-56.71875
369,369,1727872957772,-0.67871094,0.38378906,0.31054688,-24.625,34.21875,-20.59375
370,370,1727872957812,-0.7470703,0.26464844,0.24121094,3.71875,-0.8125,7.25
371,371,1727872957852,-1.5625,0.15332031,0.23242188,28.25,-23.21875,15.1875
372,372,1727872957892,-1.265625,-0.0068359375,0.15820312,-47.9375,-22.34375,41.5
373,373,1727872957932,-1.0283203,0.16308594,0.48828125,-58.90625,-27.3125,0.90625
374,374,1727872957972,-1.453125,-0.09765625,0.65527344,-19.5,-80.8125,24.28125
375,375,1727872958012,-1.3408203,-0.16601562,0.5966797,12.0,-6.0625,8.71875
376,376,1727872958052,-1.0615234,0.2607422,0.49023438,4.875,23.53125,-34.6875
377,377,1727872958092,-0.9667969,0.10839844,0.28515625,3.78125,23.4375,-28.28125
378,378,1727872958132,-0.8623047,-0.04296875,0.24316406,-5.03125,51.1875,-34.4375
379,379,1727872958172,-0.8222656,0.038085938,0.18554688,-12.15625,46.8125,-31.875
380,380,1727872958212,-0.7792969,0.078125,0.19824219,2.125,36.96875,-4.84375
381,381,1727872958252,-0.6738281,0.103515625,0.2919922,-11.4375,15.90625,8.03125
382,382,1727872958292,-0.8076172,0.034179688,0.3408203,-7.8125,11.75,7.625
383,383,1727872958332,-0.6201172,0.07421875,0.21386719,-3.25,-3.1875,16.84375
384,384,1727872958372,-0.70996094,-0.07519531,0.3251953,18.34375,-30.28125,27.28125
385,385,1727872958412,-0.74316406,-0.0029296875,0.2578125,13.65625,-22.40625,19.6875
386,386,1727872958452,-0.73046875,0.12011719,0.51171875,32.53125,-17.46875,15.96875
387,387,1727872958492,-1.2548828,-0.14160156,0.14941406,32.5625,-70.625,49.1875
388,388,1727872958532,-1.3730469,0.25390625,0.5361328,29.28125,-103.65625,30.25
389,389,1727872958572,-1.1298828,0.23242188,0.28125,46.8125,-99.75,32.53125
390,390,1727872958612,-1.328125,0.6279297,0.47265625,15.5625,-77.71875,28.4375
391,391,1727872958652,-1.3183594,0.54589844,0.7060547,20.0,-37.375,-0.1875
392,392,1727872958692,-0.9394531,0.26953125,0.640625,5.71875,-28.03125,24.8125
393,393,1727872958732,-0.78027344,0.18847656,0.5,27.875,2.1875,9.25
394,394,1727872958772,-0.6669922,0.33007812,0.35058594,19.625,35.4375,-5.9375
395,395,1727872958812,-0.546875,0.32128906,0.2529297,14.875,63.03125,-11.78125
396,396,1727872958852,-0.64941406,0.32128906,0.32714844,-14.34375,64.0625,-18.375
397,397,1727872958892,-0.67285156,0.29492188,0.39257812,-42.875,79.09375,-34.3125
398,398,1727872958932,-0.6484375,0.12011719,0.34765625,-56.40625,79.34375,-36.8125
399,399,1727872958972,-0.59765625,0.11035156,0.30664062,-56.09375,34.21875,-36.5625
400,400,1727872959012,-0.7753906,0.23828125,0.17285156,-57.15625,36.25,-62.5
401,401,1727872959052,-0.7060547,0.29882812,0.18457031,-9.90625,71.28125,-27.0
402,402,1727872959092,-0.70214844,0.17382812,0.6044922,5.65625,4.0,3.71875
403,403,1727872959132,-1.2373047,0.20996094,0.2421875,18.90625,2.0,-10.8125
404,404,1727872959172,-1.7285156,0.27148438,0.0390625,20.8125,-46.28125,33.75
405,405,1727872959212,-0.99121094,-0.16308594,0.38183594,-39.1875,-40.40625,16.53125
406,406,1727872959252,-1.8164062,0.080078125,0.5966797,-11.6875,-64.15625,4.0625
407,407,1727872959292,-0.95214844,0.23242188,0.53808594,20.84375,-33.84375,17.75
408,408,1727872959332,-1.0644531,-0.27929688,0.23535156,-19.84375,-0.4375,-16.9375
409,409,1727872959372,-1.0234375,0.33007812,0.375,-12.71875,41.0,-45.25
410,410,1727872959412,-0.90234375,0.016601562,0.20996094,-1.0,56.9375,-10.8125
411,411,1727872959452,-0.7734375,-0.046875,0.21289062,-28.6875,43.1875,-15.15625
412,412,1727872959492,-0.89453125,0.14160156,0.25585938,-11.4375,35.9375,1.6875
413,413,1727872959532,-0.9326172,0.060546875,0.38964844,-24.84375,23.0,16.53125
414,414,1727872959572,-0.85058594,-0.10058594,0.26171875,-41.34375,14.21875,5.90625
415,415,1727872959612,-0.62890625,0.123046875,0.119140625,-29.125,-2.59375,-1.25
416,416,1727872959652,-0.73828125,0.0146484375,0.26757812,34.03125,-20.53125,20.375
417,417,1727872959692,-0.7783203,-0.06738281,0.23730469,50.53125,-37.125,28.78125
418,418,1727872959732,-0.7939453,0.036132812,0.3798828,29.59375,-18.75,26.0
419,419,1727872959772,-0.7578125,0.0859375,0.4736328,8.40625,-7.21875,5.125
420,420,1727872959812,-0.97753906,-0.047851562,0.35058594,22.8125,-25.84375,22.75
421,421,1727872959852,-1.2509766,0.07519531,0.42285156,23.0,-77.53125,26.34375
422,422,1727872959892,-1.3076172,0.25683594,0.4140625,60.90625,-85.78125,7.8125
423,423,1727872959932,-1.15625,0.4140625,0.33007812,35.4375,-54.40625,37.9375
424,424,1727872959972,-1.4853516,0.54003906,0.61328125,35.375,-54.03125,20.5625
425,425,1727872960012,-0.9951172,0.34277344,0.5,24.40625,-15.625,9.375
426,426,1727872960052,-0.86328125,0.24707031,0.38964844,-2.6875,20.625,-4.78125
427,427,1727872960092,-0.828125,0.3359375,0.33789062,14.625,5.53125,-7.46875
428,428,1727872960132,-0.6982422,0.25390625,0.27441406,10.25,27.28125,0.09375
429,429,1727872960172,-0.63183594,0.21875,0.18359375,3.03125,47.15625,-3.25
430,430,1727872960212,-0.5390625,0.20898438,0.20214844,1.3125,38.875,-6.0625
431,431,1727872960252,-0.6044922,0.22167969,0.3701172,-25.53125,68.21875,-28.65625
432,432,1727872960292,-0.9638672,0.15039062,0.390625,-30.59375,51.9375,-43.84375
433,433,1727872960332,-0.6435547,0.030273438,0.21777344,-34.0,43.25,-42.8125
434,434,1727872960372,-0.8642578,0.28710938,0.33789062,-35.65625,68.90625,-59.65625
435,435,1727872960412,-0.75,0.45703125,0.27539062,-56.53125,18.28125,-18.03125
436,436,1727872960452,-0.77441406,-0.015625,0.29882812,-15.03125,-1.25,15.65625
437,437,1727872960492,-0.8222656,0.1484375,0.40527344,-21.75,-1.125,4.0
438,438,1727872960532,-1.578125,0.2626953,0.25,-18.75,-24.5,21.09375
439,439,1727872960572,-1.3662109,0.30371094,0.23730469,-17.46875,-37.4375,43.75
440,440,1727872960612,-0.9277344,-0.068359375,0.41210938,-56.28125,-34.9375,7.8125
441,441,1727872960652,-1.6425781,-0.19335938,0.67089844,-25.28125,-37.4375,-7.21875
442,442,1727872960692,-1.1269531,0.0126953125,0.4970703,7.84375,-5.21875,0.34375
443,443,1727872960732,-0.9111328,-0.14355469,0.2783203,4.875,31.46875,-42.8125
444,444,1727872960772,-0.8925781,0.17871094,0.17089844,38.5,21.40625,-40.125
445,445,1727872960812,-0.9375,0.030273438,0.23144531,41.78125,39.21875,-22.78125
446,446,1727872960852,-0.78125,-0.0146484375,0.15527344,5.90625,49.0,-26.1875
447,447,1727872960892,-0.5683594,0.23632812,0.45410156,-72.59375,87.09375,-48.96875
448,448,1727872960932,-0.9345703,0.24511719,0.61035156,-84.5,99.96875,-62.5625
449,449,1727872960972,-0.8105469,0.2861328,0.3857422,-48.28125,35.9375,-57.375
450,450,1727872961012,-0.6435547,0.041015625,0.11621094,-14.96875,8.65625,-27.0
451,451,1727872961052,-0.6611328,0.20996094,0.27734375,-29.0,32.03125,-6.25
452,452,1727872961092,-0.65625,0.33203125,0.3408203,-44.625,32.03125,-11.0625
453,453,1727872961132,-1.2421875,0.17773438,0.16113281,-4.21875,23.71875,6.6875
454,454,1727872961172,-1.4130859,0.041015625,0.24121094,24.875,-52.09375,39.71875
455,455,1727872961212,-1.1152344,0.041015625,0.23632812,-50.0625,-26.875,6.09375
456,456,1727872961252,-1.9951172,-0.16015625,0.43554688,23.59375,-69.34375,51.3125
457,457,1727872961292,-1.0097656,0.00390625,0.65625,8.21875,-3.5,11.15625
458,458,1727872961332,-1.2480469,0.111328125,0.32226562,-9.28125,1.8125,-42.0625
459,459,1727872961372,-1.1376953,0.11816406,0.3984375,3.78125,32.6875,-17.78125
460,460,1727872961412,-0.86621094,-0.0009765625,0.3125,3.09375,57.59375,-14.71875
461,461,1727872961452,-0.8496094,0.0009765625,0.15722656,-8.0,46.90625,-19.25
462,462,1727872961492,-0.78027344,0.07910156,0.22460938,0.15625,43.25,-17.65625
463,463,1727872961532,-0.8300781,0.078125,0.26464844,-11.625,44.0625,-8.6875
464,464,1727872961572,-0.74609375,0.095703125,0.31445312,-9.59375,18.34375,7.25
465,465,1727872961612,-0.70410156,0.02734375,0.16601562,-19.84375,-5.21875,20.4375
466,466,1727872961652,-0.79589844,0.17480469,0.31835938,14.3125,-15.625,26.96875
467,467,1727872961692,-0.7392578,-0.06933594,0.19921875,1.9375,-31.09375,37.34375
468,468,1727872961732,-0.67089844,-0.024414062,0.34765625,-1.125,-15.09375,16.78125
469,469,1727872961772,-0.69628906,0.0546875,0.36132812,4.625,-13.03125,27.03125
470,470,1727872961812,-1.1191406,-0.051757812,0.38476562,25.125,-43.96875,34.65625
471,471,1727872961852,-1.3242188,0.01953125,0.48046875,19.03125,-80.15625,8.03125
472,472,1727872961892,-1.5498047,0.064453125,0.24902344,79.625,-93.09375,-4.21875
473,473,1727872961932,-1.3691406,0.7480469,0.5498047,99.96875,-53.59375,26.90625
474,474,1727872961972,-1.2832031,0.6660156,0.50878906,45.6875,-35.59375,23.0
475,475,1727872962012,-0.82910156,0.5185547,0.4111328,17.125,-13.6875,8.46875
476,476,1727872962052,-0.8925781,0.22460938,0.28515625,28.96875,-16.96875,0.46875
477,477,1727872962092,-0.6230469,0.045898438,0.40820312,44.96875,22.125,-23.5625
478,478,1727872962132,-0.5839844,0.2890625,0.24023438,30.75,35.375,-22.96875
479,479,1727872962172,-0.6220703,0.4091797,0.24902344,-1.46875,51.75,-30.59375
480,480,1727872962212,-0.73535156,0.22070312,0.26367188,-39.1875,59.625,-43.96875
481,481,1727872962252,-0.68066406,0.059570312,0.28710938,-61.1875,61.375,-40.53125
482,482,1727872962292,-0.6689453,0.12988281,0.087890625,-62.21875,42.96875,-54.59375
483,483,1727872962332,-0.7783203,0.3671875,0.3544922,-69.96875,35.875,-41.875
484,484,1727872962372,-0.72753906,0.25683594,0.265625,-73.0,14.6875,1.625
485,485,1727872962412,-0.7792969,0.051757812,0.39160156,4.8125,-36.625,16.84375
486,486,1727872962452,-1.265625,0.14257812,0.37890625,7.96875,-7.65625,2.84375
487,487,1727872962492,-1.4326172,0.06542969,0.1171875,-17.15625,-49.75,31.28125
488,488,1727872962532,-1.2324219,0.09667969,0.43847656,15.65625,-42.875,18.53125
489,489,1727872962572,-1.6435547,0.16113281,0.3935547,-39.03125,-78.1875,31.34375
490,490,1727872962612,-0.88671875,-0.11816406,0.55371094,9.09375,-4.78125,9.375
491,491,1727872962652,-1.2675781,0.107421875,0.3779297,-12.53125,26.03125,-44.8125
492,492,1727872962692,-0.9316406,0.3984375,0.23535156,-6.0625,49.59375,-15.8125
493,493,1727872962732,-0.8144531,-0.009765625,0.34179688,-28.28125,67.6875,-13.03125
494,494,1727872962772,-0.80078125,0.087890625,0.20019531,-33.34375,58.59375,-25.03125
495,495,1727872962812,-0.84277344,0.08496094,0.29882812,-5.3125,53.75,3.09375
496,496,1727872962852,-0.8046875,-0.030273438,0.2939453,-10.6875,27.28125,12.5
497,497,1727872962892,-0.7763672,0.14355469,0.33496094,-26.8125,4.875,13.65625
498,498,1727872962932,-0.67578125,0.043945312,0.19335938,17.3125,-35.34375,21.65625
499,499,1727872962972,-0.6582031,-0.017578125,0.375,42.21875,-49.15625,17.875
500,500,1727872963012,-0.70214844,-0.03515625,0.3017578,49.65625,-45.375,17.875
501,501,1727872963052,-0.73828125,0.064453125,0.3232422,31.125,-19.0625,26.53125
502,502,1727872963092,-0.95214844,0.20117188,0.4248047,44.90625,-56.34375,30.4375
503,503,1727872963132,-1.2558594,0.2578125,0.54785156,4.5,-69.40625,27.625
504,504,1727872963172,-1.3583984,0.16601562,0.37402344,23.90625,-95.59375,27.5
505,505,1727872963212,-1.3496094,0.5019531,0.56152344,27.34375,-76.5625,19.5625
506,506,1727872963252,-1.2041016,0.4951172,0.6982422,24.03125,-46.46875,5.78125
507,507,1727872963292,-0.9746094,0.4580078,0.46875,19.28125,-12.96875,4.875
508,508,1727872963332,-0.7919922,0.23632812,0.41601562,37.75,-3.3125,12.25
509,509,1727872963372,-0.66503906,0.22265625,0.3125,33.25,33.8125,-6.125
510,510,1727872963412,-0.5419922,0.36328125,0.39648438,25.1875,43.375,-3.6875
511,511,1727872963452,-0.65722656,0.35742188,0.38085938,2.90625,41.3125,-8.0625
512,512,1727872963492,-0.5605469,0.2265625,0.35742188,-20.84375,65.84375,-23.6875
513,513,1727872963532,-0.45117188,0.13964844,0.37109375,-45.125,95.6875,-50.0
514,514,1727872963572,-0.8173828,0.12402344,0.25878906,-53.96875,51.0,-60.6875
515,515,1727872963612,-0.75390625,0.3466797,0.09375,-72.78125,44.34375,-44.09375
516,516,1727872963652,-0.6074219,0.47851562,0.33984375,-37.84375,58.40625,-41.34375
517,517,1727872963692,-0.76953125,0.11816406,0.43359375,19.03125,-21.875,12.375
518,518,1727872963732,-1.4033203,0.23046875,0.23632812,6.5625,13.96875,-1.3125
519,519,1727872963772,-1.3984375,0.0048828125,0.20214844,-1.40625,-58.78125,44.25
520,520,1727872963812,-1.4121094,-0.0625,0.2783203,-39.375,-37.1875,9.8125
521,521,1727872963852,-1.3027344,0.15429688,0.51953125,-11.1875,-60.4375,23.3125
522,522,1727872963892,-1.1738281,0.0126953125,0.46191406,4.5,-12.53125,6.8125
523,523,1727872963932,-1.0615234,0.07324219,0.22851562,-12.21875,10.3125,-29.96875
524,524,1727872963972,-0.9501953,0.15429688,0.25390625,-5.875,48.375,-30.21875
525,525,1727872964012,-0.81640625,0.08496094,0.23046875,-2.46875,51.625,-20.78125
526,526,1727872964052,-0.7324219,0.060546875,0.109375,-16.0,42.65625,-16.875
527,527,1727872964092,-0.7705078,0.040039062,0.26757812,2.65625,36.46875,-7.15625
528,528,1727872964132,-0.8408203,0.029296875,0.22558594,-0.625,21.21875,4.6875
529,529,1727872964172,-0.78125,0.12109375,0.2861328,7.0625,-9.96875,15.3125
530,530,1727872964212,-0.7470703,0.095703125,0.5058594,17.25,-27.78125,22.5
531,531,1727872964252,-0.7314453,-0.103515625,0.14453125,17.4375,-18.5625,17.5625
532,532,1727872964292,-0.70214844,0.08105469,0.45703125,32.9375,-25.96875,21.71875
533,533,1727872964332,-0.8076172,-0.0009765625,0.3828125,31.0625,-33.34375,12.1875
534,534,1727872964372,-0.87402344,0.06933594,0.44433594,5.59375,-14.40625,8.84375
535,535,1727872964412,-1.2216797,0.16503906,0.39746094,41.625,-81.8125,19.21875
536,536,1727872964452,-1.4775391,-0.01171875,0.3935547,72.6875,-76.8125,-9.0625
537,537,1727872964492,-1.1572266,0.65234375,0.22558594,44.40625,-74.34375,2.65625
538,538,1727872964532,-1.3242188,0.62890625,0.5410156,51.4375,-78.375,6.21875
539,539,1727872964572,-0.85546875,0.42089844,0.5996094,5.34375,-32.65625,16.34375
540,540,1727872964612,-0.9628906,0.29492188,0.4921875,5.34375,-1.59375,15.625
541,541,1727872964652,-0.7402344,0.2783203,0.41210938,35.625,17.625,8.28125
542,542,1727872964692,-0.5732422,0.22265625,0.38085938,31.53125,34.65625,4.6875
543,543,1727872964732,-0.53222656,0.33007812,0.32714844,1.15625,44.53125,-7.09375
544,544,1727872964772,-0.5566406,0.24804688,0.3173828,-23.625,78.65625,-30.46875
545,545,1727872964812,-0.6503906,0.17382812,0.3779297,-24.1875,101.0,-53.96875
546,546,1727872964852,-0.7158203,0.038085938,0.27734375,-24.84375,66.625,-48.90625
547,547,1727872964892,-0.5019531,0.21191406,0.041015625,-61.84375,59.1875,-64.09375
548,548,1727872964932,-0.71777344,0.31445312,0.27734375,-24.625,27.5625,-14.25
549,549,1727872964972,-0.7529297,0.12597656,0.42871094,-28.9375,-23.5,17.5
550,550,1727872965012,-1.2148438,0.28125,0.34570312,20.5,17.75,2.4375
551,551,1727872965052,-1.4794922,0.140625,-0.07714844,-17.71875,-25.84375,47.09375
552,552,1727872965092,-1.578125,0.051757812,0.55078125,-40.53125,-14.0,-0.5625
553,553,1727872965132,-1.2714844,0.0,0.19628906,-9.84375,-50.375,5.21875
554,554,1727872965172,-0.9794922,-0.080078125,0.5498047,15.125,-9.78125,2.65625
555,555,1727872965212,-1.2324219,0.20898438,0.27148438,-10.75,17.25,-54.40625
556,556,1727872965252,-0.95410156,0.109375,0.13085938,5.90625,65.34375,-13.03125
557,557,1727872965292,-0.7714844,0.0087890625,0.26464844,-3.5,50.46875,-18.8125
558,558,1727872965332,-0.7324219,0.109375,0.09863281,-15.34375,54.1875,-19.25
559,559,1727872965372,-0.9267578,-0.00390625,0.38378906,7.375,50.15625,-13.875
560,560,1727872965412,-0.9326172,-0.051757812,0.37109375,4.125,37.8125,-9.28125
561,561,1727872965452,-0.85839844,0.051757812,0.30273438,15.84375,1.15625,6.03125
562,562,1727872965492,-0.6875,0.23730469,0.4169922,1.3125,12.375,-14.71875
563,563,1727872965532,-0.6669922,0.123046875,0.33007812,-20.84375,32.9375,-26.0625
564,564,1727872965572,-0.7158203,0.10253906,0.25585938,-49.40625,49.25,-48.84375
565,565,1727872965612,-0.72558594,0.26953125,0.24414062,-40.0625,27.6875,-50.25
566,566,1727872965652,-0.66308594,0.39257812,0.21777344,-7.03125,20.3125,-16.25
567,567,1727872965692,-0.8408203,-0.036132812,0.27148438,11.40625,24.8125,-0.5
568,568,1727872965732,-0.64941406,0.27734375,0.3466797,-22.34375,17.5,-10.9375
569,569,1727872965772,-0.8691406,0.1953125,0.23730469,4.6875,-14.125,-6.78125
570,570,1727872965812,-1.6230469,0.17480469,0.06738281,28.4375,-22.21875,18.40625
571,571,1727872965852,-1.4853516,0.103515625,0.041992188,-30.34375,-37.25,58.53125
572,572,1727872965892,-1.6123047,0.11816406,0.7578125,-7.46875,-117.15625,-4.09375
573,573,1727872965932,-1.0107422,-0.04296875,0.41796875,-34.0625,-21.8125,2.4375
574,574,1727872965972,-1.1503906,0.3251953,0.5205078,44.65625,16.15625,-15.59375
575,575,1727872966012,-1.0136719,0.22070312,0.3046875,0.09375,54.84375,-6.125
576,576,1727872966052,-0.8222656,0.13769531,0.3701172,-1.96875,40.09375,-13.5
577,577,1727872966092,-0.6826172,-0.10058594,0.16308594,-10.03125,66.09375,-36.03125
578,578,1727872966132,-0.80566406,0.048828125,0.4033203,-8.1875,60.59375,-29.125
579,579,1727872966172,-0.8408203,0.01953125,0.38964844,28.71875,27.6875,-2.34375
580,580,1727872966212,-0.7373047,0.04296875,0.24121094,8.09375,-6.96875,17.5
581,581,1727872966252,-0.61328125,0.4345703,0.29882812,26.34375,-30.15625,21.65625
582,582,1727872966292,-0.7607422,-0.05859375,0.2939453,25.125,-35.59375,29.15625
583,583,1727872966332,-0.67285156,-0.103515625,0.35351562,27.03125,-20.46875,4.4375
584,584,1727872966372,-0.7080078,0.06738281,0.296875,9.625,-0.125,11.28125
585,585,1727872966412,-0.7109375,0.05078125,0.1640625,21.53125,-25.34375,26.34375
586,586,1727872966452,-1.1845703,0.25390625,0.42578125,9.1875,-80.71875,25.625
587,587,1727872966492,-1.7587891,0.3623047,0.2861328,-5.03125,-136.5625,27.8125
588,588,1727872966532,-0.9091797,0.49316406,0.50097656,51.125,-93.15625,42.90625
589,589,1727872966572,-1.6650391,0.5625,0.89160156,-39.6875,-59.9375,24.59375
590,590,1727872966612,-1.2724609,0.5341797,0.90527344,36.4375,-79.65625,24.21875
591,591,1727872966652,-0.7636719,0.115234375,0.50878906,50.65625,21.09375,9.03125
592,592,1727872966692,-0.6064453,0.20507812,0.29492188,52.21875,36.125,-16.625
593,593,1727872966732,-0.46679688,0.49804688,0.23339844,45.40625,37.34375,-23.75
594,594,1727872966772,-0.5292969,0.2783203,0.24609375,9.5,64.8125,-25.65625
595,595,1727872966812,-0.6767578,0.17480469,0.2919922,-19.53125,75.0,-27.1875
596,596,1727872966852,-0.69140625,0.3154297,0.453125,-39.125,71.75,-39.03125
597,597,1727872966892,-0.6279297,0.20703125,0.40429688,-27.34375,41.71875,-40.65625
598,598,1727872966932,-0.6113281,0.20410156,0.17675781,-60.0625,39.96875,-62.8125
599,599,1727872966972,-0.87597656,0.3017578,0.20800781,-34.25,39.84375,-38.15625
600,600,1727872967012,-0.7890625,0.2919922,0.41015625,-11.6875,43.0625,-8.9375
601,601,1727872967052,-0.7763672,0.24414062,0.29003906,-27.0,7.84375,4.3125
602,602,1727872967092,-0.7441406,0.20117188,0.4189453,-19.1875,4.8125,2.3125
603,603,1727872967132,-1.5195312,0.15722656,0.013671875,-23.34375,-29.25,30.375
604,604,1727872967172,-1.1347656,0.19433594,0.55078125,-0.125,-19.25,28.0
605,605,1727872967212,-1.9541016,-0.1328125,0.3828125,-7.78125,-100.53125,55.53125
606,606,1727872967252,-0.90234375,0.015625,0.72265625,-12.28125,-22.59375,28.71875
607,607,1727872967292,-1.1894531,-0.020507812,0.46679688,27.6875,-12.53125,-40.53125
608,608,1727872967332,-1.1064453,0.22070312,0.23730469,3.46875,36.96875,-40.40625
609,609,1727872967372,-0.75878906,0.17285156,0.26660156,12.625,59.90625,-28.875
610,610,1727872967412,-0.8095703,0.052734375,0.16894531,-1.84375,45.5625,-14.90625
611,611,1727872967452,-0.8017578,0.10253906,0.19726562,2.65625,45.8125,-3.5
612,612,1727872967492,-0.7050781,0.053710938,0.2421875,-4.15625,30.5,1.4375
613,613,1727872967532,-0.75,0.06542969,0.3330078,6.15625,0.71875,11.03125
614,614,1727872967572,-0.6298828,0.15722656,0.35058594,27.21875,-32.0,24.34375
615,615,1727872967612,-0.83203125,-0.12207031,0.328125,33.375,-30.90625,35.5625
616,616,1727872967652,-0.66796875,0.018554688,0.33789062,27.4375,-23.03125,23.84375
617,617,1727872967692,-0.5625,0.13867188,0.32421875,15.375,-19.125,10.84375
618,618,1727872967732,-1.1308594,0.115234375,0.38867188,23.46875,-40.3125,9.6875
619,619,1727872967772,-1.3984375,0.1484375,0.43847656,25.0,-91.875,15.96875
620,620,1727872967812,-1.2958984,0.4140625,0.38378906,20.84375,-60.1875,-1.25
621,621,1727872967852,-1.4208984,0.5048828,0.30371094,47.78125,-78.03125,4.8125
622,622,1727872967892,-1.2763672,0.51660156,0.50878906,30.8125,-43.21875,15.625
623,623,1727872967932,-0.9345703,0.4248047,0.5449219,6.40625,-22.59375,26.65625
624,624,1727872967972,-0.8769531,0.328125,0.4423828,30.75,-11.0625,4.125
625,625,1727872968012,-0.75,0.3408203,0.27734375,16.90625,13.0,-2.8125
626,626,1727872968052,-0.6279297,0.34375,0.29101562,18.125,32.875,0.09375
627,627,1727872968092,-0.63671875,0.23828125,0.4248047,2.5625,45.53125,-5.3125
628,628,1727872968132,-0.67871094,0.2841797,0.41796875,-24.25,68.09375,-22.71875
629,629,1727872968172,-0.7519531,0.24804688,0.33007812,-24.25,70.46875,-42.0625
630,630,1727872968212,-0.7373047,0.16015625,0.3798828,-24.6875,59.6875,-30.21875
631,631,1727872968252,-0.70996094,0.16796875,0.22265625,-69.46875,42.96875,-46.9375
632,632,1727872968292,-0.7529297,0.34960938,0.26171875,-51.34375,58.8125,-42.5
633,633,1727872968332,-0.8652344,0.2841797,0.33984375,-38.96875,26.90625,-23.21875
634,634,1727872968372,-0.79589844,0.115234375,0.31445312,-17.65625,-22.53125,6.34375
635,635,1727872968412,-0.5625,0.14746094,0.37109375,-15.34375,-31.09375,14.9375
636,636,1727872968452,-1.0488281,0.20019531,0.38085938,-19.125,20.5,2.375
637,637,1727872968492,-1.4980469,0.5498047,0.19042969,15.65625,-29.1875,30.9375
638,638,1727872968532,-1.0439453,0.20410156,0.056640625,-37.90625,8.78125,44.0
639,639,1727872968572,-1.4912109,0.016601562,0.51660156,-75.46875,-5.3125,-2.28125
640,640,1727872968612,-1.2294922,0.06933594,0.32226562,-52.09375,-36.8125,31.40625
641,641,1727872968652,-1.1191406,-0.23535156,0.61035156,2.5,-10.9375,5.90625
642,642,1727872968692,-1.0849609,0.20800781,0.2734375,6.34375,35.09375,-66.59375
643,643,1727872968732,-0.88183594,0.27929688,0.16894531,22.03125,38.8125,-23.9375
644,644,1727872968772,-0.7949219,0.0126953125,0.20019531,-1.59375,45.34375,-26.875
645,645,1727872968812,-0.8261719,0.06640625,0.11230469,-19.3125,45.53125,-19.71875
646,646,1727872968852,-0.79296875,0.119140625,0.3095703,9.6875,30.375,-0.75
647,647,1727872968892,-0.88378906,0.10546875,0.35351562,-1.78125,9.5,11.71875
648,648,1727872968932,-0.76660156,0.09375,0.21386719,10.53125,-8.75,17.875
649,649,1727872968972,-0.48046875,-0.12109375,0.08300781,15.25,-44.875,29.15625
650,650,1727872969012,-0.64160156,0.044921875,0.19238281,15.0,-53.125,18.34375
651,651,1727872969052,-0.80859375,0.041992188,0.2939453,40.6875,-52.6875,28.84375
652,652,1727872969092,-0.62597656,0.16796875,0.5517578,-2.9375,-21.6875,25.3125
653,653,1727872969132,-1.4248047,0.10058594,0.33203125,2.59375,-74.1875,19.625
654,654,1727872969172,-1.3232422,0.3076172,0.36621094,46.90625,-102.5625,18.65625
655,655,1727872969212,-1.1904297,0.4091797,0.5214844,8.65625,-46.875,23.90625
656,656,1727872969252,-1.6318359,0.6191406,0.75878906,18.0625,-89.8125,14.3125
657,657,1727872969292,-0.9082031,0.5234375,0.74316406,42.09375,-24.25,26.71875
658,658,1727872969332,-1.0263672,0.2841797,0.48828125,37.03125,12.9375,17.0
659,659,1727872969372,-0.74609375,0.27929688,0.3935547,34.21875,28.375,-8.25
660,660,1727872969412,-0.65234375,0.42773438,0.2783203,32.75,40.21875,-17.03125
661,661,1727872969452,-0.7832031,0.25683594,0.36621094,-7.03125,36.84375,-15.34375
662,662,1727872969492,-1.0117188,0.23242188,0.34277344,-22.71875,29.53125,-3.375
663,663,1727872969532,-1.4541016,0.38964844,0.3388672,19.53125,-17.34375,4.6875
664,664,1727872969572,-1.4736328,0.13085938,0.12011719,0.34375,-49.03125,48.09375
665,665,1727872969612,-1.1679688,0.0068359375,0.2763672,-28.9375,-20.53125,28.375
666,666,1727872969652,-1.5507812,0.01171875,0.4169922,-15.75,-54.09375,19.40625
667,667,1727872969692,-1.0615234,-0.052734375,0.60546875,2.0,13.84375,-0.875
668,668,1727872969732,-1.0273438,0.07910156,0.19238281,-1.71875,6.875,-42.8125
669,669,1727872969772,-0.9189453,0.2548828,0.12207031,11.9375,36.375,-29.875
670,670,1727872969812,-0.796875,0.0234375,0.3125,5.90625,54.125,-20.84375
671,671,1727872969852,-0.8144531,0.0625,0.16601562,-8.0,45.6875,-22.84375
672,672,1727872969892,-0.8515625,0.11425781,0.31054688,26.0,28.78125,-6.375
673,673,1727872969932,-0.84375,-0.00390625,0.4033203,20.84375,6.28125,8.46875
674,674,1727872969972,-0.69140625,0.016601562,0.27929688,13.34375,-10.5,8.71875
675,675,1727872970012,-0.6152344,0.15722656,0.27246094,49.65625,-27.78125,23.0
676,676,1727872970052,-0.6855469,0.16992188,0.14550781,56.25,-27.46875,36.3125
677,677,1727872970092,-0.8125,0.11328125,0.40429688,48.375,-23.09375,38.5
678,678,1727872970132,-0.64941406,0.091796875,0.25683594,21.96875,-17.40625,14.9375
679,679,1727872970172,-0.90527344,0.171875,0.28027344,-10.8125,-19.59375,24.71875
680,680,1727872970212,-1.4873047,0.2939453,0.4453125,-5.09375,-120.3125,22.3125
681,681,1727872970252,-1.4794922,0.24121094,0.43359375,31.90625,-109.75,8.90625
682,682,1727872970292,-1.2480469,0.5029297,0.64746094,17.375,-74.96875,24.15625
683,683,1727872970332,-1.0498047,0.62109375,0.60058594,26.59375,-33.78125,15.0625
684,684,1727872970372,-0.9277344,0.5410156,0.4765625,36.84375,-37.0625,16.09375
685,685,1727872970412,-0.7607422,0.18652344,0.34960938,22.625,15.71875,11.03125
686,686,1727872970452,-0.74121094,0.38085938,0.39648438,4.875,46.5625,-7.875
687,687,1727872970492,-0.7324219,0.48828125,0.35058594,13.84375,26.90625,4.75
688,688,1727872970532,-0.7128906,0.32910156,0.44433594,-14.0625,45.28125,4.125
689,689,1727872970572,-0.7734375,0.30859375,0.47851562,-54.40625,64.375,-12.46875
690,690,1727872970612,-0.76953125,0.32421875,0.34960938,-45.0,61.15625,-32.5
691,691,1727872970652,-0.6357422,0.09472656,0.37890625,-29.4375,53.8125,-12.53125
692,692,1727872970692,-0.6123047,0.08105469,0.23828125,-51.78125,62.78125,-47.9375
693,693,1727872970732,-0.8388672,0.2626953,0.13085938,-41.6875,52.0625,-58.71875
694,694,1727872970772,-0.7441406,0.29003906,0.37597656,-6.375,36.0625,-21.6875
695,695,1727872970812,-0.79003906,0.22851562,0.40429688,-11.78125,10.96875,-13.625
696,696,1727872970852,-0.7363281,0.16015625,0.36328125,-5.875,-28.34375,-7.71875
697,697,1727872970892,-0.8720703,0.16796875,0.42382812,-5.875,-5.75,0.40625
698,698,1727872970932,-1.3535156,0.31054688,0.4423828,6.9375,-4.28125,-0.8125
699,699,1727872970972,-1.1484375,0.38671875,0.08496094,-22.53125,3.46875,14.5
700,700,1727872971012,-1.1689453,0.001953125,0.3544922,-8.0,-22.0,19.21875
701,701,1727872971052,-1.8125,0.057617188,0.19335938,1.4375,-8.5625,20.375
702,702,1727872971092,-0.9355469,-0.020507812,0.54589844,8.84375,6.5625,-0.5
703,703,1727872971132,-0.9921875,0.1015625,0.23046875,4.9375,6.9375,-50.5
704,704,1727872971172,-0.93847656,0.15039062,0.13671875,30.3125,29.21875,-29.875
705,705,1727872971212,-0.8359375,0.00390625,0.24414062,17.375,48.5625,-27.0625
706,706,1727872971252,-0.8955078,0.11621094,0.16015625,38.5625,15.65625,-12.46875
707,707,1727872971292,-0.87597656,0.109375,0.328125,36.0,26.65625,-10.4375
708,708,1727872971332,-0.90625,-0.0029296875,0.27539062,22.875,26.90625,-2.59375
709,709,1727872971372,-0.85253906,0.12988281,0.29492188,17.1875,25.875,-0.25
710,710,1727872971412,-0.8417969,0.140625,0.328125,23.53125,7.5,10.84375
711,711,1727872971452,-0.7060547,-0.01171875,0.22167969,-1.53125,16.28125,8.03125
712,712,1727872971492,-0.7871094,0.0009765625,0.27441406,14.375,9.9375,11.59375
