,timestamp,accel_x,accel_y,accel_z,gyro_x,gyro_y,gyro_z
0,1727265429367,-0.9716797,-0.022460938,0.022460938,-60.5625,-63.75,0.09375
1,1727265429424,-0.890625,-0.083984375,-0.056640625,-70.9375,-16.5,-12.90625
2,1727265429453,-0.79589844,0.17089844,0.076171875,0.34375,20.90625,-3.625
3,1727265429488,-0.89160156,0.14355469,0.13671875,33.3125,19.15625,11.53125
4,1727265429544,-0.9560547,0.14746094,0.0078125,22.5,36.65625,2.0
5,1727265429577,-1.1650391,0.2705078,0.16113281,62.125,59.4375,2.0
6,1727265429612,-1.2207031,0.234375,0.4267578,81.40625,36.4375,8.46875
7,1727265429664,-0.9482422,0.07324219,0.0390625,-23.875,-8.4375,-6.65625
8,1727265429724,-0.8310547,0.21386719,-0.08886719,4.1875,18.34375,-5.75
9,1727265429754,-1.0039062,0.21972656,0.068359375,44.96875,31.96875,11.03125
10,1727265429787,-1.0878906,-0.14257812,-0.0107421875,15.96875,35.8125,11.71875
11,1727265429814,-1.0390625,0.1484375,0.13769531,77.4375,8.84375,7.5
12,1727265429848,-1.0292969,0.06738281,0.04296875,53.375,8.15625,2.375
13,1727265429904,-0.9970703,0.055664062,-0.09375,37.15625,-3.875,-3.375
14,1727265429933,-1.0263672,0.16699219,0.01171875,40.34375,4.3125,-2.46875
15,1727265429968,-1.046875,0.21777344,0.07128906,38.4375,-1.0625,2.0
16,1727265430024,-1.0,-0.029296875,-0.068359375,7.75,-11.3125,4.1875
17,1727265430055,-0.91503906,-0.061523438,0.017578125,16.21875,-11.1875,1.5
18,1727265430089,-0.9199219,0.10449219,-0.043945312,14.3125,-15.53125,0.28125
19,1727265430144,-0.98828125,0.20214844,-0.016601562,14.09375,-2.15625,12.1875
20,1727265430174,-0.8486328,-0.0068359375,0.038085938,-35.46875,-13.03125,12.9375
21,1727265430204,-0.95996094,0.31152344,0.15234375,32.5625,-4.59375,18.0625
22,1727265430263,-0.703125,0.091796875,0.18457031,-55.0,-52.5,33.625
23,1727265430294,-0.65527344,0.078125,0.15917969,-22.40625,-68.875,37.34375
24,1727265430323,-0.71875,-0.27148438,0.051757812,-107.8125,-71.65625,18.53125
25,1727265430384,-1.4033203,-0.12988281,0.39160156,-119.09375,-77.71875,-50.3125
26,1727265430414,-1.5810547,0.30371094,0.13867188,-80.09375,-126.25,-91.6875
27,1727265430449,-1.8320312,1.2041016,0.28125,34.84375,-61.59375,-54.75
28,1727265430507,-1.1669922,0.08691406,0.23828125,-25.15625,-27.65625,-12.28125
29,1727265430534,-0.9248047,-0.044921875,-0.0068359375,-91.5625,25.0625,-30.34375
30,1727265430564,-0.9394531,0.068359375,0.23046875,6.15625,2.5,-17.71875
31,1727265430623,-0.7783203,0.17578125,0.2529297,50.8125,4.375,-13.4375
32,1727265430654,-0.65722656,0.19433594,0.2529297,41.375,23.3125,-10.875
33,1727265430684,-0.7128906,0.41308594,0.23828125,21.90625,47.03125,1.625
34,1727265430774,-0.828125,0.21972656,0.2998047,-4.78125,51.3125,22.375
35,1727265430806,-0.828125,0.14257812,0.27246094,-58.5,40.5,33.375
36,1727265430833,-0.9638672,-0.078125,0.15136719,-36.8125,26.78125,49.84375
37,1727265430865,-0.91503906,-0.30371094,0.11230469,47.71875,15.5625,44.65625
38,1727265430893,-0.7548828,-0.12207031,0.24023438,54.0,38.0625,16.40625
39,1727265430923,-0.91015625,-0.0126953125,0.23242188,-4.71875,33.3125,-8.875
40,1727265430984,-1.0126953,0.14746094,0.38671875,-41.28125,51.1875,-18.9375
41,1727265431014,-0.9277344,0.0859375,0.48535156,-9.78125,9.625,-8.1875
42,1727265431046,-1.1923828,0.001953125,0.18554688,-22.40625,12.0,-6.0
43,1727265431104,-1.2705078,0.2109375,-0.5,-90.28125,-20.875,-37.25
44,1727265431135,-1.8876953,-0.23144531,1.0498047,-191.25,62.71875,-50.78125
45,1727265431166,-1.3066406,0.16503906,0.2421875,-18.375,4.625,-17.46875
46,1727265431254,-1.1708984,0.44433594,-0.46875,70.71875,-54.53125,18.65625
47,1727265431284,-1.2353516,0.01953125,-0.20800781,131.40625,17.5625,38.6875
48,1727265431319,-1.0859375,0.0107421875,0.11621094,-27.34375,28.4375,4.8125
49,1727265431343,-0.90234375,0.15527344,-0.041015625,50.71875,10.71875,19.15625
50,1727265431402,-0.9169922,0.041015625,0.051757812,21.40625,28.5,17.875
51,1727265431408,-0.8886719,0.1015625,0.033203125,16.78125,13.59375,8.59375
52,1727265431463,-0.91503906,0.14355469,0.05859375,5.78125,20.5,8.15625
53,1727265431494,-1.0625,0.005859375,0.03125,-6.4375,13.78125,8.15625
54,1727265431530,-1.0253906,0.01953125,0.048828125,-2.34375,-3.0,1.875
55,1727265431588,-0.98339844,0.09375,-0.10253906,17.5625,-10.5,5.21875
56,1727265431643,-0.8730469,0.033203125,-0.14453125,35.25,-2.28125,10.1875
57,1727265431708,-0.796875,0.026367188,-0.041015625,49.375,13.40625,9.8125
58,1727265431733,-1.2753906,-0.040039062,0.14941406,-30.03125,32.34375,-7.34375
59,1727265431764,-0.8417969,0.30078125,0.2109375,-9.0,-2.46875,-6.71875
60,1727265431797,-0.9765625,0.0703125,-0.0009765625,-9.34375,-9.65625,21.28125
61,1727265431824,-1.0097656,-0.0234375,0.016601562,-22.65625,-9.96875,16.15625
62,1727265431853,-0.85546875,-0.15332031,-0.03125,-24.625,-15.21875,16.21875
63,1727265431913,-0.8183594,-0.0546875,0.103515625,-33.34375,-12.84375,11.40625
64,1727265431944,-0.6582031,-0.12109375,0.09277344,13.90625,-38.65625,5.53125
65,1727265431974,-0.81933594,0.24023438,0.016601562,5.96875,-34.25,-14.46875
66,1727265432004,-1.5810547,-0.08105469,-0.14257812,20.125,-27.0,-10.34375
67,1727265432064,-1.6181641,-0.013671875,0.64160156,-200.34375,-20.03125,-92.375
68,1727265432094,-1.4238281,0.8125,0.16210938,23.65625,-95.34375,-70.625
69,1727265432124,-1.4355469,0.32714844,0.22460938,-33.71875,-64.78125,-34.3125
70,1727265432189,-1.2207031,0.26367188,0.13867188,-14.0,-46.21875,-9.34375
71,1727265432214,-1.0302734,0.021484375,0.13964844,-19.78125,-19.5,5.90625
72,1727265432245,-0.85839844,-0.026367188,0.12109375,13.53125,0.21875,5.78125
73,1727265432308,-0.69140625,0.2109375,0.16210938,60.65625,-1.84375,11.71875
74,1727265432335,-0.68652344,0.25878906,0.13085938,63.78125,11.15625,26.53125
75,1727265432432,-0.80078125,0.18066406,0.16210938,37.28125,34.09375,31.28125
76,1727265432453,-0.9033203,0.17773438,0.2626953,0.71875,36.78125,27.34375
77,1727265432484,-0.9765625,-0.03125,0.2421875,-38.28125,23.53125,20.8125
78,1727265432514,-0.9394531,-0.099609375,0.15429688,3.28125,-1.40625,14.75
79,1727265432549,-0.93359375,0.07910156,0.13476562,49.90625,2.0,12.5
80,1727265432574,-0.8408203,0.080078125,0.3876953,-1.84375,37.875,10.46875
81,1727265432604,-0.7519531,0.0029296875,0.21875,29.46875,8.15625,13.15625
82,1727265432664,-0.8154297,0.0048828125,0.051757812,3.21875,10.84375,-3.5
83,1727265432695,-0.8671875,0.07421875,0.28125,-9.65625,40.9375,-8.6875
84,1727265432788,-0.74316406,0.00390625,0.38867188,-29.75,32.21875,-16.625
85,1727265432814,-1.2548828,0.08984375,0.34570312,-44.15625,47.65625,-31.21875
86,1727265432844,-1.4013672,0.47753906,-0.080078125,-20.34375,-5.21875,-53.96875
87,1727265432875,-1.6210938,0.11425781,-0.19140625,-177.5625,-39.9375,-29.625
88,1727265432904,-1.2158203,0.30664062,-0.21875,-57.875,-29.6875,-11.0
89,1727265432934,-1.1347656,0.15820312,-0.2578125,147.25,-10.40625,36.375
90,1727265432965,-1.0849609,0.00390625,-0.06347656,79.21875,15.3125,27.03125
91,1727265433028,-1.1386719,-0.07128906,0.099609375,28.3125,35.5,13.53125
92,1727265433054,-0.9003906,0.19238281,0.040039062,23.71875,24.59375,10.1875
93,1727265433084,-0.8652344,0.09863281,-0.020507812,11.15625,19.15625,18.0625
94,1727265433144,-1.0048828,0.049804688,0.02734375,-7.71875,28.375,15.96875
95,1727265433177,-1.0244141,0.12207031,0.091796875,10.59375,21.59375,19.9375
96,1727265433204,-0.9814453,0.048828125,0.016601562,7.25,7.625,20.84375
97,1727265433268,-1.0390625,-0.044921875,0.045898438,-17.34375,14.875,15.5
98,1727265433302,-0.93847656,-0.021484375,-0.04296875,7.6875,4.25,9.125
99,1727265433324,-0.9609375,0.11425781,-0.06640625,14.75,8.90625,4.6875
100,1727265433384,-0.9824219,0.17089844,0.0087890625,10.375,9.5625,8.46875
101,1727265433421,-0.8251953,0.08496094,0.01953125,2.375,2.5,9.375
102,1727265433445,-0.703125,0.10839844,0.1015625,-7.65625,-8.75,4.75
103,1727265433541,-0.9169922,0.24121094,0.19335938,-24.96875,-13.5,-1.25
104,1727265433563,-1.2070312,0.0107421875,-0.22167969,64.5,-24.84375,33.6875
105,1727265433595,-0.64160156,-0.68359375,0.25,-136.3125,1.75,23.53125
106,1727265433624,-0.76953125,0.06347656,0.64746094,-59.21875,-68.5,-48.28125
107,1727265433654,-1.4814453,0.22753906,-0.24707031,119.1875,-105.78125,-48.96875
108,1727265433713,-1.5351562,0.14453125,0.375,-184.9375,-44.375,-113.0
109,1727265433744,-1.5634766,0.7265625,0.12597656,-5.5,-83.75,-90.46875
110,1727265433774,-1.5117188,0.2109375,0.17773438,-42.5,-30.90625,-48.0
111,1727265433833,-1.1669922,-0.0048828125,0.11621094,-16.375,-9.28125,-24.84375
112,1727265433864,-0.8857422,0.030273438,0.12207031,5.78125,8.84375,-6.90625
113,1727265433901,-0.6738281,0.13085938,0.14355469,83.65625,-7.71875,14.09375
114,1727265433954,-0.66308594,0.32421875,0.1796875,107.90625,2.71875,30.9375
115,1727265433986,-0.72265625,0.3876953,0.15820312,77.125,30.0625,40.34375
116,1727265434014,-0.8984375,0.16601562,0.32421875,15.1875,33.1875,44.53125
117,1727265434073,-1.1230469,-0.046875,0.24316406,19.53125,-3.8125,35.625
118,1727265434103,-1.0507812,-0.0126953125,0.234375,22.625,4.875,29.71875
119,1727265434139,-0.9189453,0.021484375,0.19433594,22.6875,-1.0625,22.3125
120,1727265434193,-0.8652344,0.02734375,0.23730469,9.8125,24.71875,13.53125
121,1727265434224,-0.6777344,0.064453125,0.24707031,4.125,25.1875,12.1875
122,1727265434258,-0.64941406,0.10449219,0.25195312,10.46875,11.40625,10.59375
123,1727265434314,-0.8388672,-0.0068359375,0.16015625,4.375,17.3125,4.875
124,1727265434344,-0.8515625,0.047851562,0.171875,-11.6875,36.65625,-9.53125
125,1727265434378,-1.1845703,0.16796875,0.33691406,-25.65625,45.9375,-17.96875
126,1727265434434,-1.4130859,0.13671875,-0.09472656,-90.34375,-3.96875,-40.90625
127,1727265434464,-1.5371094,0.36132812,1.0703125,-93.34375,82.6875,-55.0
128,1727265434498,-1.2314453,0.09667969,-0.091796875,-91.1875,-25.71875,-35.53125
129,1727265434558,-1.0429688,0.3701172,-0.3623047,6.8125,-25.59375,9.5
130,1727265434583,-1.4677734,-0.2607422,-0.21484375,79.875,19.21875,32.8125
131,1727265434619,-1.1191406,0.17382812,0.14453125,-31.21875,28.375,-6.3125
132,1727265434673,-0.9716797,0.33007812,-0.08300781,74.6875,-2.875,23.0
133,1727265434705,-0.94140625,0.06640625,-0.08496094,42.96875,21.46875,25.1875
134,1727265434740,-0.91796875,0.103515625,-0.016601562,25.5,25.6875,19.6875
135,1727265434794,-0.9199219,0.107421875,0.0068359375,24.46875,21.65625,19.8125
136,1727265434826,-1.0419922,0.09765625,0.068359375,-7.28125,27.625,20.8125
137,1727265434854,-1.03125,0.055664062,0.017578125,-16.9375,17.625,13.65625
138,1727265434916,-1.0029297,-0.037109375,0.045898438,-9.84375,7.96875,10.0625
139,1727265434944,-0.9716797,0.08105469,0.06640625,6.6875,9.125,3.03125
140,1727265434979,-0.8955078,0.13476562,-0.037109375,34.03125,-0.625,10.1875
141,1727265435034,-1.0517578,-0.016601562,-0.0859375,16.65625,12.25,12.25
142,1727265435064,-0.9169922,0.030273438,-0.0009765625,-0.0625,8.78125,4.3125
143,1727265435094,-0.9560547,0.17773438,0.01953125,18.0,2.5625,5.21875
144,1727265435154,-0.9033203,0.040039062,0.140625,-9.84375,0.90625,5.59375
145,1727265435186,-0.70996094,0.19433594,0.016601562,29.03125,-30.78125,11.71875
146,1727265435214,-0.7949219,-0.022460938,-0.10644531,21.96875,-19.96875,23.65625
147,1727265435274,-0.9638672,0.0029296875,-0.0048828125,-43.53125,2.78125,1.21875
148,1727265435304,-0.8730469,-0.265625,0.21484375,-64.65625,-10.5625,-12.34375
149,1727265435339,-1.3359375,0.119140625,0.16894531,-46.40625,-37.125,-61.21875
150,1727265435394,-1.5341797,0.20507812,0.11816406,-19.65625,-53.84375,-47.6875
151,1727265435424,-1.5322266,0.36621094,0.2783203,-14.46875,-66.0,-66.71875
152,1727265435458,-1.4082031,0.55371094,0.041992188,-20.40625,-63.4375,-53.59375
153,1727265435575,-1.1660156,0.3564453,0.15234375,-43.90625,-33.78125,-33.9375
154,1727265435609,-1.15625,0.2421875,0.15332031,-26.625,-15.15625,-5.15625
155,1727265435634,-0.88671875,0.032226562,0.02734375,-25.53125,-1.78125,-1.125
156,1727265435664,-0.7246094,0.13769531,0.14355469,22.375,-10.9375,8.59375
157,1727265435694,-0.6933594,0.21875,0.09472656,51.0625,-13.03125,16.9375
158,1727265435728,-0.7578125,0.14550781,0.12402344,32.75,14.8125,26.0
159,1727265435755,-0.89160156,0.072265625,0.19042969,-1.3125,11.875,24.40625
160,1727265435814,-0.96972656,0.10449219,0.13378906,-26.0625,12.5625,21.78125
161,1727265435844,-0.9375,-0.08105469,0.25195312,5.40625,1.09375,30.375
162,1727265435904,-0.8535156,-0.19921875,0.19042969,37.65625,-6.3125,28.65625
163,1727265435934,-0.9013672,-0.087890625,0.23828125,36.25,24.28125,18.65625
164,1727265435964,-0.79003906,-0.16894531,0.3642578,24.65625,25.8125,9.5
165,1727265435994,-0.70703125,0.0078125,0.11621094,27.625,11.15625,-3.1875
166,1727265436025,-0.7734375,0.16015625,0.21289062,27.34375,23.0,-6.78125
167,1727265436054,-0.8925781,0.19628906,0.41015625,10.84375,13.59375,-2.46875
168,1727265436114,-1.3886719,0.20117188,0.38671875,-38.78125,18.96875,-11.125
169,1727265436145,-1.3339844,0.4248047,-0.53808594,-40.65625,-11.4375,-37.3125
170,1727265436174,-1.40625,-0.029296875,0.11816406,-116.90625,11.875,-19.84375
171,1727265436234,-1.4833984,0.40820312,0.07519531,9.3125,-8.3125,0.15625
172,1727265436264,-1.2822266,0.057617188,-0.15625,65.84375,-1.53125,16.34375
173,1727265436298,-1.0742188,0.0068359375,-0.080078125,61.875,12.0625,8.15625
174,1727265436354,-0.9902344,0.109375,-0.060546875,41.84375,25.4375,8.15625
175,1727265436384,-0.8828125,0.13964844,-0.005859375,19.5625,26.53125,13.96875
176,1727265436414,-0.88183594,0.060546875,-0.06347656,13.84375,22.9375,17.0625
177,1727265436479,-0.98339844,0.08105469,0.0859375,-18.875,34.40625,14.21875
178,1727265436507,-1.0410156,0.033203125,0.0107421875,2.65625,15.65625,11.03125
179,1727265436534,-0.9824219,0.083984375,0.05078125,-12.84375,4.875,0.90625
180,1727265436598,-1.0029297,0.24902344,-0.0029296875,21.78125,-1.25,9.25
181,1727265436624,-1.1328125,0.078125,-0.095703125,34.46875,0.0,20.84375
182,1727265436688,-1.0078125,0.02734375,-0.040039062,2.84375,7.90625,16.90625
183,1727265436715,-0.7832031,0.049804688,-0.11816406,6.28125,8.15625,14.375
184,1727265436746,-0.8720703,0.123046875,-0.10058594,12.75,17.375,10.0625
185,1727265436774,-1.0498047,0.034179688,-0.022460938,-11.5625,44.28125,13.0
186,1727265436835,-0.5859375,0.13671875,0.22851562,-44.9375,15.0,7.8125
187,1727265436864,-1.0322266,-0.029296875,0.20507812,-40.375,1.6875,7.90625
188,1727265436894,-0.7265625,-0.33007812,0.23144531,-57.5,-31.9375,-6.90625
189,1727265436959,-0.6347656,0.24121094,0.060546875,30.4375,-75.5625,-23.34375
190,1727265436984,-1.1582031,0.16503906,-0.20898438,44.25,-60.875,-14.125
191,1727265437044,-1.7285156,-0.37597656,0.16796875,-95.21875,-36.09375,-67.46875
192,1727265437074,-1.9189453,0.6513672,0.42089844,-95.53125,-62.9375,-102.625
193,1727265437105,-1.3769531,0.70996094,0.16796875,-18.875,-69.96875,-66.46875
194,1727265437134,-1.2265625,0.38476562,0.09667969,-40.90625,-48.125,-24.75
195,1727265437198,-1.2509766,-0.0546875,0.16503906,-94.375,14.15625,-16.75
196,1727265437225,-0.92578125,-0.18652344,0.07421875,-19.53125,-3.96875,-9.46875
197,1727265437254,-0.77734375,0.01953125,0.12988281,52.90625,-22.90625,3.34375
198,1727265437318,-0.58203125,0.25878906,0.061523438,85.0625,-24.5625,13.71875
199,1727265437344,-0.703125,0.20507812,0.11328125,60.28125,15.3125,21.96875
200,1727265437374,-0.86621094,0.059570312,0.15820312,34.90625,32.28125,23.3125
201,1727265437439,-1.0439453,-0.00390625,0.22265625,4.375,26.34375,16.53125
202,1727265437465,-1.0947266,-0.052734375,0.296875,-4.65625,27.6875,14.875
203,1727265437494,-0.9638672,-0.08496094,0.16503906,-3.96875,22.8125,9.8125
204,1727265437558,-0.89746094,0.10253906,0.17382812,22.5,16.28125,15.3125
205,1727265437584,-0.8828125,0.10546875,0.17382812,33.84375,18.78125,29.53125
206,1727265437614,-0.9091797,0.0078125,0.23535156,19.625,16.40625,30.3125
207,1727265437679,-0.80078125,0.001953125,0.16113281,5.90625,3.21875,14.09375
208,1727265437704,-0.71972656,0.08691406,0.14160156,0.34375,9.6875,6.15625
209,1727265437734,-0.7314453,-0.013671875,0.16308594,-5.625,8.78125,10.71875
210,1727265437794,-0.8359375,-0.033203125,0.18359375,-6.0625,18.78125,9.6875
211,1727265437824,-1.2275391,-0.1015625,0.3388672,-3.375,57.34375,8.03125
212,1727265437854,-1.1074219,0.08300781,-0.6201172,-68.125,-67.34375,-40.125
213,1727265437919,-2.0,0.27246094,1.2763672,-70.15625,345.6875,-18.4375
214,1727265437948,-1.4882812,0.030273438,0.09082031,-26.8125,-3.25,2.5
215,1727265437974,-1.1318359,0.39257812,-0.50390625,94.59375,-88.09375,13.03125
216,1727265438038,-0.9589844,0.040039062,-0.36035156,157.9375,8.71875,34.46875
217,1727265438094,-1.15625,0.2998047,-0.05078125,23.53125,48.875,10.59375
218,1727265438124,-0.9902344,0.20703125,0.25097656,-6.125,24.28125,13.96875
219,1727265438157,-0.765625,0.140625,-0.12695312,3.59375,-1.3125,18.53125
220,1727265438184,-0.79589844,0.15527344,-0.12207031,-45.96875,37.46875,9.03125
221,1727265438243,-0.8222656,0.12792969,0.09375,-26.75,33.5,20.625
222,1727265438309,-0.96191406,0.103515625,0.001953125,8.71875,15.0,24.59375
223,1727265438333,-0.9589844,-0.02734375,-0.09277344,-12.59375,11.65625,23.84375
224,1727265438364,-0.8339844,-0.018554688,-0.095703125,1.3125,11.03125,22.9375
225,1727265438394,-0.65625,0.037109375,-0.076171875,39.71875,16.90625,18.96875
226,1727265438423,-1.1123047,0.19042969,-0.15917969,30.1875,38.875,22.875
227,1727265438454,-0.8027344,-0.078125,0.10839844,-75.8125,47.15625,14.15625
228,1727265438514,-0.78808594,0.19042969,0.3095703,-44.75,-12.65625,8.46875
229,1727265438548,-0.8330078,0.08300781,-0.15234375,118.9375,-28.34375,43.6875
230,1727265438576,-1.0546875,-0.23144531,-0.10839844,45.03125,37.03125,44.125
231,1727265438638,-0.9707031,0.09277344,0.42285156,-128.1875,-0.9375,21.09375
232,1727265438668,-1.5722656,0.08496094,-0.16894531,159.71875,-65.375,33.3125
233,1727265438696,-1.953125,-0.24121094,-0.2626953,83.71875,-131.1875,-56.21875
234,1727265438755,-2.0,0.6464844,-0.40820312,31.65625,-183.71875,-153.59375
235,1727265438784,-1.2451172,1.2861328,-0.18164062,-32.3125,-41.8125,-46.15625
236,1727265438814,-1.2275391,0.5419922,0.23828125,-166.28125,-67.40625,-60.875
237,1727265438908,-1.0,0.20214844,0.033203125,-6.53125,-72.90625,-29.6875
238,1727265438936,-1.0195312,0.17480469,-0.0859375,-13.5625,-38.09375,-36.5
239,1727265438965,-0.7890625,-0.049804688,-0.10546875,16.59375,-37.0625,-26.03125
240,1727265438994,-0.72753906,0.17480469,0.17382812,17.0,-35.78125,-38.03125
241,1727265439028,-0.7236328,0.27734375,0.115234375,36.96875,-47.625,-35.21875
242,1727265439054,-0.7265625,0.2890625,0.10449219,21.28125,-35.84375,-24.96875
243,1727265439115,-0.73339844,0.06933594,0.27148438,4.8125,-20.21875,-8.0625
244,1727265439149,-0.76464844,-0.15527344,0.14746094,-10.75,-4.90625,1.625
245,1727265439174,-0.75878906,-0.24121094,0.17578125,8.71875,16.09375,2.0
246,1727265439234,-0.89746094,-0.27148438,0.38085938,41.84375,27.9375,0.53125
247,1727265439264,-1.1220703,-0.3173828,0.55859375,10.0625,26.53125,-21.4375
248,1727265439324,-0.9628906,-0.28222656,0.55078125,48.625,-17.71875,-26.25
249,1727265439354,-0.62890625,-0.078125,0.265625,71.03125,-17.78125,-16.125
250,1727265439384,-0.8076172,0.12109375,0.21191406,59.8125,40.4375,2.5
251,1727265439414,-1.0078125,0.60546875,0.5263672,22.6875,39.78125,20.375
252,1727265439474,-2.0,-0.12597656,1.1708984,-7.8125,19.6875,46.375
253,1727265439504,-0.5292969,0.15527344,-0.8017578,-111.53125,-64.15625,-59.90625
254,1727265439538,-0.5566406,0.44726562,-0.359375,45.34375,-43.03125,28.5625
255,1727265439594,-1.4921875,0.109375,-0.32421875,83.84375,81.65625,49.90625
256,1727265439628,-1.2675781,-0.27441406,0.33398438,-51.59375,50.28125,-1.1875
257,1727265439654,-0.8105469,0.37890625,0.06738281,47.96875,12.0625,15.3125
258,1727265439744,-0.84765625,0.3251953,0.059570312,58.15625,23.3125,39.40625
259,1727265439781,-0.9785156,-0.07324219,0.021484375,-11.0625,56.1875,23.375
260,1727265439805,-1.0527344,-0.14550781,0.21191406,-65.5625,41.84375,-2.59375
261,1727265439834,-0.9013672,0.09765625,-0.026367188,-9.46875,26.53125,-1.84375
262,1727265439869,-1.0234375,0.13476562,-0.0029296875,-7.71875,37.34375,6.9375
263,1727265439895,-1.203125,0.08300781,0.2841797,-48.53125,30.3125,1.8125
264,1727265439955,-1.0097656,0.3095703,-0.087890625,37.15625,-6.71875,12.0625
265,1727265440014,-0.8964844,-0.020507812,-0.125,9.375,15.0,13.03125
266,1727265440073,-0.9589844,0.01953125,-0.028320312,-24.6875,30.5625,8.15625
267,1727265440104,-0.9765625,0.20117188,0.08496094,-29.4375,22.25,12.9375
268,1727265440133,-0.9550781,0.040039062,-0.03515625,-19.78125,23.46875,21.65625
269,1727265440164,-1.0087891,0.033203125,0.041992188,-50.4375,14.4375,13.40625
270,1727265440194,-0.95996094,0.09667969,-0.029296875,-24.0,8.40625,11.59375
271,1727265440231,-0.8798828,0.06347656,-0.032226562,-33.53125,13.34375,12.75
272,1727265440258,-0.671875,0.13183594,0.024414062,-24.4375,5.0625,17.3125
273,1727265440374,-0.6923828,0.038085938,0.016601562,1.4375,3.21875,29.9375
274,1727265440404,-0.8144531,-0.29589844,0.16796875,-72.03125,-11.96875,3.03125
275,1727265440434,-0.8017578,-0.20996094,0.48242188,-83.4375,-47.0625,-21.75
276,1727265440464,-1.3525391,0.35351562,0.0029296875,-8.5,-84.90625,-69.34375
277,1727265440555,-1.7265625,0.099609375,-0.31347656,113.375,-145.875,-53.59375
278,1727265440585,-1.7490234,0.7519531,0.07910156,-27.71875,-56.28125,-55.4375
279,1727265440617,-1.4121094,0.4716797,0.140625,-10.6875,-9.28125,-25.09375
280,1727265440645,-1.21875,0.3515625,0.36914062,-116.21875,1.15625,-27.1875
281,1727265440677,-1.0771484,0.3095703,0.28808594,-1.59375,-42.96875,-18.9375
282,1727265440707,-0.91503906,-0.05078125,0.12988281,-63.5625,-0.875,-18.75
283,1727265440734,-0.77734375,0.060546875,0.06933594,11.53125,-16.625,-12.40625
284,1727265440763,-0.7109375,0.11328125,0.103515625,32.09375,-9.28125,-1.84375
285,1727265440793,-0.6591797,0.08203125,0.13476562,20.625,6.28125,0.53125
286,1727265440854,-0.7128906,0.05078125,0.13964844,8.90625,19.875,6.8125
287,1727265440886,-0.8232422,0.07421875,0.21777344,10.59375,22.8125,23.53125
288,1727265440914,-0.8066406,0.11035156,0.27929688,17.1875,27.625,41.625
289,1727265440945,-0.67285156,0.059570312,0.061523438,10.71875,35.875,48.875
290,1727265440977,-0.94433594,-0.22851562,0.05078125,48.8125,19.21875,43.125
291,1727265441064,-0.9589844,-0.09277344,0.2919922,26.78125,31.25,20.375
292,1727265441094,-1.0332031,-0.11328125,0.40625,9.125,43.6875,7.5625
293,1727265441132,-0.921875,-0.001953125,0.4091797,-7.53125,26.53125,-9.28125
294,1727265441154,-1.0048828,0.16015625,0.4423828,33.84375,20.5,-5.21875
295,1727265441184,-1.2138672,0.29296875,-0.49902344,-10.9375,-36.6875,-36.625
296,1727265441216,-2.0,0.040039062,1.1972656,-58.0625,230.03125,-41.8125
297,1727265441274,-0.9902344,0.12597656,0.1875,-9.0,-44.15625,-52.03125
298,1727265441304,-1.1259766,0.65722656,-0.47753906,103.375,-43.34375,5.90625
299,1727265441337,-1.2392578,0.18066406,-0.3486328,134.375,19.21875,31.65625
300,1727265441394,-1.0507812,-0.0009765625,0.12402344,-77.84375,19.6875,8.71875
301,1727265441429,-0.95214844,-0.020507812,-0.0048828125,27.375,18.53125,16.28125
302,1727265441455,-0.92578125,0.0087890625,-0.0126953125,14.21875,35.4375,17.375
303,1727265441514,-0.9121094,0.049804688,-0.06347656,11.53125,29.21875,8.15625
304,1727265441544,-0.98535156,0.23828125,0.056640625,-8.875,42.65625,8.03125
305,1727265441578,-1.0722656,0.14355469,0.15527344,-22.125,30.1875,20.8125
306,1727265441634,-1.015625,-0.032226562,-0.0146484375,2.96875,-13.5,18.71875
307,1727265441669,-1.078125,0.005859375,-0.19628906,3.34375,6.03125,4.875
308,1727265441700,-0.8828125,0.091796875,-0.08105469,-14.25,30.0,3.03125
309,1727265441754,-0.9580078,0.3046875,0.14160156,-9.53125,13.78125,11.15625
310,1727265441785,-1.0527344,0.021484375,-0.11425781,14.75,-14.34375,25.3125
311,1727265441817,-0.91015625,-0.0546875,-0.037109375,-20.875,19.6875,7.90625
312,1727265441874,-0.5703125,0.20800781,0.0009765625,-37.84375,-2.625,4.9375
313,1727265441904,-1.1708984,0.01171875,-0.020507812,-64.09375,-1.34375,0.15625
314,1727265441934,-0.76464844,0.10839844,0.15527344,-69.0,-23.15625,-8.4375
315,1727265441993,-0.6777344,-0.080078125,0.087890625,5.59375,-39.8125,18.0
316,1727265442025,-0.7207031,-0.20996094,0.15332031,-16.75,-52.4375,-10.5625
317,1727265442084,-1.4160156,-0.018554688,0.048828125,4.375,-46.9375,-48.59375
318,1727265442114,-1.6806641,-0.12890625,0.45214844,-109.4375,-66.0625,-109.34375
319,1727265442145,-1.7050781,0.76660156,0.0859375,35.3125,-121.46875,-95.21875
320,1727265442175,-1.5185547,0.62597656,-0.043945312,-37.90625,-50.0,-43.21875
321,1727265442234,-1.2939453,-0.03515625,0.35253906,-60.6875,-12.65625,-33.15625
322,1727265442264,-0.88183594,0.028320312,-0.03125,-7.875,-17.15625,-13.375
323,1727265442294,-0.76660156,-0.038085938,0.18261719,32.75,-12.21875,11.40625
324,1727265442357,-0.6542969,0.13574219,0.14453125,75.59375,-6.0,22.5625
325,1727265442384,-0.67285156,0.23339844,0.16796875,74.875,22.3125,23.96875
326,1727265442448,-0.7607422,0.23925781,0.203125,65.40625,39.71875,30.5625
327,1727265442474,-0.9609375,0.14941406,0.2734375,15.84375,25.375,26.90625
328,1727265442504,-1.1650391,-0.032226562,0.33789062,-14.0,14.03125,18.90625
329,1727265442534,-1.0234375,-0.119140625,0.14941406,-23.03125,8.09375,11.15625
330,1727265442596,-0.80566406,0.0048828125,0.083984375,17.875,1.15625,9.125
331,1727265442654,-0.8779297,-0.026367188,0.1875,32.09375,17.0,16.40625
332,1727265442688,-0.9589844,-0.02734375,0.26757812,16.53125,30.75,9.25
333,1727265442714,-0.80371094,0.022460938,0.21289062,9.6875,20.1875,7.8125
334,1727265442745,-0.6767578,-0.0087890625,-0.078125,10.25,4.6875,10.0625
335,1727265442776,-0.85546875,0.11425781,0.0087890625,19.21875,47.15625,8.59375
336,1727265442834,-1.0449219,0.20410156,0.50683594,-0.6875,75.3125,16.40625
337,1727265442863,-1.0986328,0.15039062,0.23632812,0.53125,10.71875,11.59375
338,1727265442893,-1.3847656,0.23925781,0.13671875,-66.40625,46.8125,-5.8125
339,1727265442959,-1.0908203,0.055664062,-0.34570312,-106.28125,5.59375,-23.15625
340,1727265442985,-1.7539062,-0.14648438,0.671875,-217.65625,101.96875,-52.9375
341,1727265443048,-1.3154297,0.20117188,-0.13867188,57.65625,-39.75,-7.53125
342,1727265443074,-1.2158203,0.26171875,-0.36132812,94.53125,-44.375,13.96875
343,1727265443104,-1.0986328,0.16699219,-0.13964844,89.46875,13.65625,15.71875
344,1727265443134,-1.0058594,0.20800781,0.10546875,44.59375,20.125,16.9375
345,1727265443194,-0.9042969,0.14746094,-0.03125,20.84375,-0.3125,17.0
346,1727265443224,-0.9169922,0.05078125,-0.11328125,42.65625,6.8125,16.84375
347,1727265443253,-0.89160156,0.107421875,-0.0087890625,15.71875,21.03125,9.8125
348,1727265443314,-0.91308594,0.24023438,0.12402344,-13.5,19.6875,8.59375
349,1727265443345,-0.8886719,0.087890625,-0.01953125,-7.875,-11.78125,15.71875
350,1727265443374,-1.1132812,-0.001953125,-0.12011719,-11.71875,-3.1875,11.71875
351,1727265443438,-1.0664062,0.10839844,0.025390625,-10.5,14.15625,15.84375
352,1727265443464,-0.8330078,0.017578125,0.06542969,-0.6875,-4.21875,21.46875
353,1727265443494,-0.67285156,-0.0703125,-0.05859375,12.125,-9.53125,16.9375
354,1727265443554,-0.92578125,-0.049804688,0.09472656,-45.65625,9.3125,6.09375
355,1727265443584,-0.6699219,-0.10839844,0.17089844,-77.40625,-26.5,-6.78125
356,1727265443615,-0.6064453,0.23339844,-0.055664062,-20.875,-52.875,-14.125
357,1727265443682,-1.3232422,-0.18261719,-0.068359375,-77.03125,-32.59375,-36.21875
358,1727265443705,-1.7470703,-0.07324219,0.46972656,-140.46875,-21.3125,-90.59375
359,1727265443798,-1.6542969,0.7089844,0.111328125,35.5625,-83.6875,-73.75
360,1727265443824,-1.5410156,0.45703125,0.4248047,-12.78125,-36.15625,-35.21875
361,1727265443854,-1.0527344,0.2890625,0.07910156,-32.5,-23.34375,-25.65625
362,1727265443887,-1.0527344,0.09277344,0.2265625,-49.03125,2.59375,-21.8125
363,1727265443914,-0.9951172,-0.03515625,0.26464844,9.3125,-17.84375,-15.28125
364,1727265443944,-0.8564453,0.068359375,0.13476562,35.625,-16.875,-9.15625
365,1727265443974,-0.69921875,0.29003906,0.15234375,59.1875,-19.125,1.3125
366,1727265444064,-0.6767578,0.20214844,0.12109375,38.5,-0.3125,23.78125
367,1727265444095,-0.8808594,0.08203125,0.13769531,25.3125,16.84375,33.6875
368,1727265444134,-0.9921875,0.07421875,0.19921875,15.71875,26.71875,26.46875
369,1727265444154,-0.9716797,0.07519531,0.2841797,-6.5,40.9375,24.15625
370,1727265444185,-0.9248047,-0.1015625,0.15332031,21.65625,19.46875,28.5
371,1727265444219,-0.81640625,0.026367188,0.13769531,37.28125,0.53125,18.40625
372,1727265444275,-0.9316406,0.109375,0.25585938,12.75,37.875,14.625
373,1727265444310,-0.8232422,-0.043945312,0.23632812,-10.9375,26.28125,16.78125
374,1727265444334,-0.79785156,-0.018554688,0.10058594,8.71875,12.625,10.46875
375,1727265444396,-0.91308594,-0.017578125,0.12402344,21.34375,25.0,4.875
376,1727265444424,-0.8886719,0.05078125,0.31152344,-4.84375,48.5625,1.75
377,1727265444456,-0.73535156,0.013671875,0.23535156,-22.65625,10.40625,-0.6875
378,1727265444517,-1.2646484,0.08984375,0.06640625,-8.125,16.15625,-7.71875
379,1727265444544,-1.3857422,0.37597656,-0.27441406,1.375,-16.8125,-42.125
380,1727265444575,-2.0,-0.09863281,0.57128906,-215.65625,66.40625,-52.125
381,1727265444638,-0.9560547,0.55859375,0.04296875,15.5625,-50.5625,-41.46875
382,1727265444670,-1.1152344,0.25683594,-0.49902344,166.3125,-66.1875,32.34375
383,1727265444694,-1.3037109,-0.0546875,-0.26367188,174.0625,9.8125,28.3125
384,1727265444758,-0.9550781,0.1953125,0.11621094,-48.21875,41.25,-11.90625
385,1727265444784,-0.9189453,0.23632812,0.06933594,41.0625,6.5625,18.84375
386,1727265444814,-0.96875,0.103515625,-0.043945312,27.375,7.25,22.3125
387,1727265444874,-0.95410156,0.099609375,-0.080078125,21.09375,16.65625,17.0625
388,1727265444933,-0.87597656,0.21582031,0.045898438,-31.5,28.0,9.8125
389,1727265444967,-1.0654297,0.14453125,-0.016601562,-1.1875,13.09375,20.25
390,1727265445001,-0.9873047,-0.09667969,-0.030273438,-4.84375,6.21875,13.65625
391,1727265445024,-1.0087891,0.1484375,-0.078125,10.125,-0.625,4.6875
392,1727265445056,-1.0,0.125,-0.078125,1.375,1.625,7.375
393,1727265445113,-0.8378906,0.087890625,-0.043945312,13.40625,4.875,10.0625
394,1727265445144,-1.2646484,0.11328125,-0.07910156,26.78125,14.875,6.03125
395,1727265445175,-0.9941406,-0.030273438,0.017578125,-39.5625,16.46875,3.09375
396,1727265445234,-0.859375,0.39160156,0.051757812,-0.1875,5.1875,2.90625
397,1727265445295,-1.0146484,0.026367188,-0.16503906,27.8125,-1.53125,20.96875
398,1727265445324,-0.8964844,-0.068359375,0.048828125,-23.4375,24.75,8.84375
399,1727265445359,-0.9345703,0.24121094,0.07421875,-24.1875,10.125,9.6875
400,1727265445388,-0.93652344,-0.07324219,0.041992188,-21.375,-2.75,17.875
401,1727265445414,-0.828125,-0.18847656,0.19921875,-36.46875,-12.71875,-0.3125
402,1727265445509,-0.8486328,0.30664062,-0.09863281,33.96875,-48.28125,7.90625
403,1727265445534,-0.9580078,-0.12792969,-0.19238281,103.5625,-21.0,43.4375
404,1727265445568,-1.1386719,-0.3798828,0.49121094,-174.34375,-7.15625,-38.34375
405,1727265445594,-1.5380859,0.29492188,0.5097656,-22.0,-90.96875,-90.03125
406,1727265445629,-1.2763672,0.5576172,0.08300781,34.90625,-139.84375,-106.59375
407,1727265445657,-1.3515625,0.84375,-0.296875,-30.34375,-120.3125,-57.09375
408,1727265445714,-1.40625,-0.049804688,0.13085938,-99.5625,13.46875,-41.03125
409,1727265445745,-1.1455078,0.06542969,0.19238281,-40.46875,-6.1875,-45.375
410,1727265445778,-0.8515625,0.11328125,0.107421875,40.34375,-21.5625,-15.6875
411,1727265445835,-0.6308594,0.18457031,0.12207031,85.25,-23.03125,12.5
412,1727265445864,-0.6328125,0.296875,0.13671875,86.53125,1.3125,28.625
413,1727265445924,-0.7607422,0.36816406,0.07421875,62.375,43.8125,35.9375
414,1727265445954,-0.81933594,0.18457031,0.23535156,12.25,51.125,39.34375
415,1727265445988,-0.8955078,0.09667969,0.19921875,-4.40625,34.71875,34.03125
416,1727265446014,-0.9785156,-0.08300781,0.16796875,-8.4375,19.75,24.15625
417,1727265446074,-0.8564453,-0.15039062,0.18457031,32.46875,13.03125,20.5
418,1727265446104,-0.8496094,-0.13085938,0.2685547,12.375,13.15625,3.65625
419,1727265446147,-0.7890625,-0.0625,0.16503906,12.625,10.84375,-8.5625
420,1727265446197,-0.8222656,0.052734375,0.21386719,-24.84375,34.78125,-17.21875
421,1727265446225,-0.93652344,0.21875,0.36523438,-12.90625,34.46875,-7.03125
422,1727265446261,-1.3056641,-0.10839844,0.056640625,-43.28125,33.4375,-2.21875
423,1727265446314,-1.3974609,0.54589844,-0.38476562,-37.1875,-0.0625,-43.78125
424,1727265446378,-1.8457031,-0.23242188,0.10449219,-221.34375,-21.375,-27.0
425,1727265446404,-0.8535156,0.35351562,0.040039062,-51.15625,-32.84375,-30.09375
426,1727265446433,-1.3017578,0.25,-0.44921875,156.84375,-32.96875,42.96875
427,1727265446464,-1.1533203,-0.061523438,-0.061523438,36.84375,38.125,14.5
428,1727265446500,-0.9589844,0.35351562,0.16796875,1.875,26.84375,10.375
429,1727265446554,-0.8027344,0.13085938,-0.057617188,73.15625,-4.46875,33.25
430,1727265446584,-1.09375,-0.10546875,-0.051757812,48.09375,19.46875,30.0625
431,1727265446615,-0.92089844,0.0859375,0.049804688,31.84375,29.84375,13.84375
432,1727265446674,-0.9316406,0.23730469,0.0625,-1.34375,20.25,18.78125
433,1727265446704,-1.0742188,0.005859375,0.07421875,-8.5625,11.53125,19.21875
434,1727265446738,-1.0048828,0.0625,-0.061523438,18.90625,-3.6875,8.84375
435,1727265446794,-0.99121094,0.21289062,-0.022460938,20.84375,3.90625,15.84375
436,1727265446831,-0.8359375,0.06640625,0.0029296875,20.25,-6.1875,22.03125
437,1727265446858,-0.93359375,-0.030273438,0.0087890625,-17.15625,3.28125,11.9375
438,1727265446917,-0.94140625,-0.07714844,0.16699219,-66.1875,16.78125,-4.28125
439,1727265446944,-0.81347656,0.09472656,0.111328125,-16.625,-28.34375,-2.9375
440,1727265446980,-0.54003906,0.09765625,0.048828125,-65.4375,-47.25,-10.28125
441,1727265447034,-0.8847656,0.32617188,-0.23925781,-2.34375,-46.21875,16.34375
442,1727265447064,-0.9013672,-1.0615234,0.24609375,-30.71875,24.34375,29.15625
443,1727265447125,-1.6289062,0.35546875,0.72753906,-176.21875,-26.8125,-125.1875
444,1727265447154,-1.8261719,0.4736328,-0.017578125,-13.4375,-111.09375,-77.21875
445,1727265447218,-1.5859375,0.7294922,0.4951172,-23.40625,-30.09375,-65.1875
446,1727265447244,-1.2558594,0.45996094,0.001953125,-28.21875,-43.09375,-30.78125
447,1727265447275,-1.3779297,0.040039062,0.37890625,-80.53125,4.9375,-11.625
448,1727265447304,-0.9941406,0.13476562,0.16601562,-10.5,-7.71875,-3.0625
449,1727265447368,-0.87597656,0.22558594,0.25683594,29.40625,-19.0625,10.71875
450,1727265447396,-0.8671875,0.23046875,0.17285156,35.09375,1.5625,26.09375
451,1727265447429,-0.6855469,0.16308594,0.060546875,23.71875,16.28125,28.84375
452,1727265447454,-0.65234375,0.11425781,0.14746094,18.0625,27.375,26.34375
453,1727265447514,-0.73535156,-0.009765625,0.111328125,-16.875,45.75,22.09375
454,1727265447545,-0.7519531,-0.09765625,0.061523438,-11.5,43.5,23.3125
455,1727265447574,-0.8623047,-0.09082031,0.203125,23.0,32.03125,15.96875
456,1727265447634,-0.8935547,-0.041015625,0.14550781,68.96875,11.8125,20.96875
457,1727265447664,-0.94140625,0.03125,0.17382812,55.21875,22.75,14.15625
458,1727265447694,-0.9707031,-0.047851562,0.36132812,11.8125,34.40625,8.15625
459,1727265447755,-0.93066406,0.032226562,0.2939453,-11.71875,18.78125,-7.53125
460,1727265447784,-0.8955078,0.061523438,0.4453125,-50.625,32.9375,-4.90625
461,1727265447814,-1.015625,-0.059570312,-0.5097656,-56.84375,-45.1875,-21.25
462,1727265447874,-2.0,0.7080078,1.0097656,-11.125,135.59375,-47.9375
463,1727265447905,-1.234375,0.16601562,-0.09472656,48.875,-14.78125,-44.03125
464,1727265447934,-1.2089844,0.7128906,-0.5449219,95.6875,-75.46875,6.5625
465,1727265447994,-1.5507812,-0.17382812,-0.09082031,117.46875,44.25,42.59375
466,1727265448024,-1.0478516,0.078125,0.17285156,-13.1875,7.4375,0.96875
467,1727265448115,-0.9375,0.29492188,-0.034179688,129.0625,-11.125,25.0625
468,1727265448144,-0.828125,0.057617188,-0.103515625,90.0,-0.375,30.75
469,1727265448178,-0.8623047,0.13183594,-0.055664062,49.84375,27.09375,18.84375
470,1727265448204,-0.8847656,0.18359375,0.036132812,30.625,30.125,14.375
471,1727265448235,-0.9355469,0.31445312,0.09863281,-32.71875,37.9375,11.8125
472,1727265448264,-1.0205078,0.0107421875,-0.01171875,0.34375,7.8125,20.5625
473,1727265448294,-0.98828125,0.015625,-0.0126953125,-16.96875,11.75,6.8125
474,1727265448354,-0.9892578,0.04296875,-0.10058594,-1.53125,3.28125,6.6875
475,1727265448384,-0.6640625,0.044921875,0.01171875,-7.09375,1.28125,6.09375
476,1727265448420,-1.0400391,0.22949219,0.10644531,-16.75,7.0625,-0.8125
477,1727265448474,-0.859375,-0.030273438,0.125,-53.0625,6.625,3.90625
478,1727265448504,-0.7441406,0.07324219,0.10449219,-79.0625,-23.03125,-11.5
479,1727265448534,-0.703125,0.28808594,-0.12207031,-35.84375,-29.1875,0.46875
480,1727265448597,-0.8378906,-0.36523438,0.10839844,-42.75,5.84375,0.0
481,1727265448625,-1.1259766,-0.064453125,-0.0107421875,-60.3125,-8.0,-31.5
482,1727265448655,-1.6777344,-0.29003906,0.53027344,-135.6875,-18.375,-81.5
483,1727265448718,-1.8212891,0.5214844,0.22363281,31.78125,-100.0,-92.25
484,1727265448744,-1.5810547,0.64746094,-0.001953125,11.65625,-91.09375,-58.84375
485,1727265448774,-1.0302734,0.2109375,-0.05078125,-95.65625,-13.1875,-37.4375
486,1727265448834,-1.2587891,-0.15625,0.14941406,-100.46875,9.3125,-16.6875
487,1727265448864,-1.0429688,-0.15039062,0.115234375,-16.5625,-0.9375,-27.65625
488,1727265448928,-0.7089844,0.07714844,0.059570312,45.15625,-7.8125,-6.4375
489,1727265448957,-0.6933594,0.1796875,0.14160156,55.28125,6.9375,18.65625
490,1727265448984,-0.62597656,0.18652344,0.12792969,58.40625,8.28125,35.4375
491,1727265449044,-0.76660156,0.072265625,0.13378906,43.0625,13.96875,49.84375
492,1727265449078,-0.7988281,0.00390625,0.107421875,15.5625,14.5,47.40625
493,1727265449104,-0.78222656,-0.044921875,0.061523438,75.59375,-11.0,41.5625
494,1727265449168,-0.7998047,-0.08496094,0.24804688,55.46875,0.0,34.03125
495,1727265449194,-1.0009766,-0.17480469,0.20019531,38.4375,3.40625,22.875
496,1727265449224,-0.98828125,-0.18457031,0.2734375,-10.21875,24.75,-2.09375
497,1727265449284,-1.1113281,-0.08105469,0.44628906,-37.4375,39.53125,-18.5625
498,1727265449314,-0.81640625,-0.018554688,0.15820312,-9.96875,17.125,-11.71875
499,1727265449345,-1.1904297,0.28808594,0.064453125,-22.71875,18.28125,-13.0625
500,1727265449405,-1.6640625,0.3876953,0.27539062,-23.6875,20.625,0.65625
501,1727265449434,-1.2519531,-0.29101562,-0.27929688,56.5625,23.71875,-35.90625
502,1727265449498,-1.4042969,0.7548828,0.49121094,-119.8125,55.59375,-21.1875
503,1727265449529,-1.4316406,0.171875,-0.083984375,215.125,-77.59375,50.46875
504,1727265449559,-1.1904297,0.13964844,-0.30566406,117.90625,-10.09375,29.03125
505,1727265449618,-1.0224609,0.115234375,-0.12402344,32.75,10.59375,13.03125
506,1727265449644,-0.9433594,0.14160156,0.029296875,11.9375,28.84375,13.28125
507,1727265449674,-0.8496094,0.18164062,0.00390625,19.875,28.125,16.78125
508,1727265449705,-0.8017578,0.15429688,0.047851562,-10.4375,29.40625,18.40625
509,1727265449764,-0.7832031,0.19042969,0.09472656,-11.1875,16.34375,18.0625
510,1727265449798,-0.8691406,0.01953125,-0.001953125,0.34375,2.0,17.4375
511,1727265449825,-0.9472656,0.02734375,-0.06347656,-21.6875,7.75,6.8125
512,1727265449888,-0.8496094,0.055664062,-0.0146484375,-19.71875,5.96875,5.34375
513,1727265449918,-0.7480469,0.033203125,0.033203125,-14.0625,-0.8125,2.0
514,1727265449944,-1.2402344,0.35058594,-0.07519531,-0.4375,8.84375,-2.6875
515,1727265450004,-0.8183594,0.053710938,-0.049804688,6.5625,3.40625,16.84375
516,1727265450039,-0.5488281,-0.14550781,0.40625,-123.78125,8.53125,-4.34375
517,1727265450066,-0.7011719,0.2763672,-0.19042969,-173.78125,2.4375,-14.78125
518,1727265450126,-1.1113281,-0.56933594,0.84472656,-211.5,77.0625,-25.71875
519,1727265450154,-1.6005859,0.19824219,-0.14550781,34.59375,-76.90625,-74.78125
520,1727265450184,-1.5205078,0.5859375,-0.041992188,158.375,-134.71875,-34.125
521,1727265450244,-1.5800781,0.15917969,0.032226562,-1.78125,-43.78125,-28.65625
522,1727265450275,-1.3759766,0.23144531,0.20019531,-68.3125,7.0625,-39.6875
523,1727265450308,-1.0634766,0.18066406,0.06640625,-46.65625,8.96875,-27.90625
524,1727265450364,-1.1689453,-0.051757812,0.140625,-29.5,12.125,-19.25
525,1727265450399,-0.9033203,0.053710938,0.111328125,20.1875,4.6875,-14.25
526,1727265450427,-0.66015625,0.20996094,0.07714844,58.09375,2.125,-4.21875
527,1727265450487,-0.6699219,0.14453125,0.0625,43.1875,15.96875,7.125
528,1727265450514,-0.6796875,0.13867188,0.047851562,34.09375,28.78125,10.1875
529,1727265450549,-0.77441406,0.12011719,0.055664062,44.34375,21.03125,23.4375
530,1727265450604,-0.7763672,0.12890625,0.047851562,49.125,1.6875,31.40625
531,1727265450635,-0.9267578,0.14941406,0.18359375,95.25,-12.46875,40.5625
532,1727265450694,-0.9814453,-0.03125,0.16308594,42.28125,-8.0,34.15625
533,1727265450724,-1.0771484,-0.14550781,0.16308594,-40.25,19.34375,2.65625
534,1727265450755,-0.97558594,-0.08496094,0.33496094,-44.5,21.21875,1.375
535,1727265450818,-0.8339844,-0.16015625,-0.025390625,17.5625,-28.8125,-0.9375
536,1727265450844,-1.0380859,0.06933594,0.09863281,-2.59375,33.90625,-7.15625
537,1727265450877,-1.2158203,-0.053710938,0.296875,-50.125,72.4375,7.5
538,1727265450909,-1.1904297,0.14746094,-0.23535156,-12.15625,-22.46875,-21.75
539,1727265450964,-1.1552734,0.15527344,0.19726562,-114.09375,105.8125,-30.46875
540,1727265450994,-1.7578125,0.36035156,0.24121094,34.84375,43.0,-3.375
541,1727265451025,-1.0478516,0.359375,0.057617188,-14.78125,-51.15625,-20.28125
542,1727265451085,-1.1162109,0.3154297,-0.39257812,146.59375,-88.09375,21.90625
543,1727265451119,-1.2246094,-0.09667969,-0.29492188,181.875,-4.34375,33.4375
544,1727265451144,-1.0097656,0.12011719,0.0029296875,19.875,22.875,3.90625
545,1727265451234,-0.8935547,0.20117188,0.036132812,34.09375,14.21875,12.375
546,1727265451268,-0.88964844,0.15039062,-0.076171875,25.1875,11.40625,16.78125
547,1727265451294,-0.9160156,0.19335938,-0.015625,5.21875,26.65625,12.625
548,1727265451324,-0.9404297,0.21777344,0.09082031,9.6875,15.65625,18.40625
549,1727265451355,-0.96972656,0.08984375,0.02734375,-2.40625,1.9375,21.90625
550,1727265451384,-0.9736328,-0.046875,0.044921875,-13.03125,-0.9375,16.84375
551,1727265451444,-0.7294922,0.02734375,-0.07128906,7.75,-5.5625,12.0625
552,1727265451474,-0.78027344,0.052734375,-0.078125,36.4375,-4.78125,25.5
553,1727265451537,-0.9560547,-0.32226562,0.27246094,-95.0,42.84375,11.9375
554,1727265451567,-0.58496094,0.064453125,0.18847656,-34.0,-55.8125,-19.84375
555,1727265451599,-0.7558594,0.23925781,0.0107421875,50.21875,-52.625,-13.75
556,1727265451632,-1.3935547,-0.013671875,-0.19726562,89.53125,-47.1875,15.84375
557,1727265451684,-1.6777344,-0.40527344,0.21582031,-106.78125,-12.78125,-59.28125
558,1727265451714,-1.7197266,0.40722656,0.42382812,-111.53125,-34.4375,-96.875
559,1727265451775,-1.4658203,0.81347656,0.24023438,83.1875,-87.40625,-78.375
560,1727265451804,-1.1123047,0.8066406,0.17871094,87.4375,-97.1875,-9.40625
561,1727265451835,-0.9873047,0.15234375,-0.13085938,29.09375,-38.53125,24.75
562,1727265451864,-0.7451172,-0.047851562,0.044921875,-49.5625,5.34375,11.03125
563,1727265451925,-0.77734375,0.23535156,0.21875,25.9375,3.34375,11.71875
564,1727265451955,-0.7363281,0.2890625,0.14941406,48.375,7.25,18.53125
565,1727265451984,-0.7832031,0.3203125,0.06933594,24.03125,17.875,19.15625
566,1727265452044,-0.8964844,0.20996094,0.14746094,-5.5625,29.65625,25.25
567,1727265452074,-1.0097656,0.19726562,0.26660156,-11.375,32.40625,30.9375
568,1727265452105,-1.1054688,-0.024414062,0.33984375,32.8125,11.15625,41.71875
569,1727265452164,-0.9814453,-0.10449219,0.2841797,18.53125,14.625,20.375
570,1727265452195,-0.9970703,0.061523438,0.2998047,-27.96875,24.71875,-7.28125
571,1727265452224,-1.0263672,0.06640625,0.31640625,-34.0,28.0625,-11.625
572,1727265452284,-0.9082031,-0.020507812,0.16503906,-38.40625,25.1875,-14.71875
573,1727265452316,-0.8183594,-0.08984375,0.034179688,-14.53125,-4.03125,-10.625
574,1727265452344,-0.765625,0.091796875,0.0703125,18.96875,10.46875,-6.53125
575,1727265452404,-0.74902344,0.16894531,0.07714844,14.3125,13.28125,-0.75
576,1727265452434,-0.828125,0.119140625,0.19140625,14.625,36.0625,3.90625
577,1727265452466,-0.7685547,0.064453125,0.19335938,-28.875,34.53125,-0.375
578,1727265452554,-0.98535156,0.061523438,0.16992188,-21.0,37.21875,-5.3125
579,1727265452588,-1.5117188,0.14453125,0.21289062,-61.34375,36.78125,-23.40625
580,1727265452614,-1.3251953,0.4423828,0.2705078,-39.3125,28.84375,-34.1875
581,1727265452644,-1.4462891,0.3017578,-0.111328125,-21.8125,-32.5625,-19.90625
582,1727265452674,-1.2666016,0.29492188,-0.3564453,-8.5625,-47.0,-11.96875
583,1727265452704,-1.1953125,0.20703125,-0.25976562,63.46875,-32.4375,6.03125
584,1727265452764,-1.0341797,0.19433594,-0.26171875,91.71875,-5.375,18.53125
585,1727265452794,-1.1113281,0.16894531,-0.047851562,12.75,31.96875,19.875
586,1727265452829,-1.0498047,0.001953125,0.10546875,0.53125,23.25,17.1875
587,1727265452884,-0.88183594,0.16894531,0.059570312,-0.125,20.5625,11.40625
588,1727265452919,-0.83691406,0.16113281,-0.017578125,-25.09375,15.90625,11.40625
589,1727265452944,-0.8847656,0.1171875,0.0546875,-3.875,11.875,18.34375
590,1727265453004,-0.95703125,0.04296875,-0.032226562,28.125,5.0,16.09375
591,1727265453035,-1.0507812,0.07910156,-0.0703125,13.84375,3.71875,13.84375
592,1727265453064,-1.0322266,0.11621094,0.06542969,-9.53125,10.96875,10.0625
593,1727265453125,-0.8691406,0.06640625,-0.041992188,16.59375,-9.0,8.21875
594,1727265453154,-0.9746094,0.3154297,0.025390625,3.90625,6.46875,5.40625
595,1727265453185,-1.0302734,0.06347656,-0.16992188,-7.46875,9.09375,16.15625
596,1727265453275,-0.6513672,0.0107421875,0.0625,-26.375,13.53125,10.0625
597,1727265453305,-1.1943359,0.21386719,0.03125,-28.34375,11.875,9.03125
598,1727265453334,-0.6738281,-0.25585938,0.1953125,-90.90625,-8.125,2.65625
599,1727265453364,-0.5917969,0.1171875,-0.044921875,52.59375,-43.65625,-8.375
600,1727265453395,-0.8378906,-0.043945312,-0.2734375,85.5,-8.75,3.59375
601,1727265453424,-1.1328125,-0.35058594,0.12988281,-183.375,16.78125,-62.03125
602,1727265453485,-1.4326172,-0.029296875,0.31445312,-25.59375,-26.25,-64.46875
603,1727265453514,-1.7714844,0.27148438,0.1640625,9.1875,-71.90625,-95.34375
604,1727265453544,-1.6611328,0.73339844,-0.07128906,32.625,-72.90625,-63.5
605,1727265453604,-1.3466797,0.32226562,0.28515625,-55.125,-16.4375,-33.9375
606,1727265453635,-1.1240234,0.35058594,0.12011719,-1.71875,-25.09375,-9.84375
607,1727265453669,-1.0136719,-0.14453125,0.0078125,0.28125,-16.3125,-1.90625
608,1727265453730,-0.7080078,0.12988281,0.18652344,11.65625,-8.5625,-3.875
609,1727265453755,-0.61035156,0.29101562,0.11230469,71.03125,-30.46875,24.9375
610,1727265453786,-0.6777344,0.3388672,0.055664062,29.90625,-9.21875,39.40625
611,1727265453844,-0.92089844,0.27441406,0.16210938,-42.5,18.1875,40.375
612,1727265453904,-0.95410156,-0.13574219,0.11816406,-40.59375,-2.59375,35.625
613,1727265453935,-0.93066406,-0.30273438,0.099609375,10.0,-4.90625,35.8125
614,1727265453964,-0.8339844,-0.22070312,0.14453125,96.59375,-37.625,29.59375
615,1727265453994,-0.8769531,-0.013671875,0.20214844,43.75,20.5,4.0
616,1727265454059,-0.83984375,0.16113281,0.3984375,27.75,42.96875,3.78125
617,1727265454084,-0.6533203,-0.045898438,0.107421875,3.40625,14.875,-6.125
618,1727265454117,-0.71875,0.043945312,0.2685547,-22.125,43.875,-11.84375
619,1727265454146,-1.2099609,0.14648438,0.01171875,-8.1875,15.375,-16.4375
620,1727265454204,-1.5625,0.6386719,0.33789062,-44.28125,40.15625,-31.4375
621,1727265454235,-1.6474609,-0.24316406,0.032226562,-110.0,-10.8125,-17.21875
622,1727265454264,-0.9814453,0.6796875,-0.4248047,-11.0,-44.15625,-34.25
623,1727265454324,-1.5009766,0.07324219,-0.076171875,152.4375,4.375,43.25
624,1727265454354,-1.0810547,0.047851562,-0.171875,42.03125,22.5,10.1875
625,1727265454384,-0.9121094,0.12109375,0.12792969,45.5625,18.34375,13.15625
626,1727265454444,-0.8857422,0.025390625,0.041992188,37.46875,5.78125,21.65625
627,1727265454475,-0.90234375,0.08203125,-0.045898438,28.90625,31.96875,18.125
628,1727265454504,-0.9550781,0.001953125,0.06640625,17.0,26.34375,16.90625
629,1727265454565,-1.0390625,0.07324219,0.064453125,-17.96875,32.8125,9.25
630,1727265454654,-1.0527344,0.18945312,0.1640625,-0.75,20.8125,12.375
631,1727265454684,-1.0410156,0.115234375,-0.048828125,18.1875,2.0,18.125
632,1727265454715,-0.9433594,0.01171875,-0.055664062,17.3125,-3.625,15.4375
633,1727265454744,-0.9609375,0.11425781,-0.07910156,28.3125,-2.625,6.9375
634,1727265454774,-0.9189453,0.19335938,-0.06542969,11.28125,4.4375,3.78125
635,1727265454808,-0.91796875,0.16308594,-0.00390625,-22.15625,15.90625,2.5
636,1727265454834,-0.83203125,0.13867188,0.041015625,-26.0625,11.875,4.0
637,1727265454865,-0.6484375,0.12402344,0.049804688,-13.5,0.96875,14.625
638,1727265454955,-0.8564453,-0.13867188,0.076171875,-65.8125,-23.9375,2.65625
639,1727265454996,-0.6611328,0.13769531,0.0029296875,-28.59375,-38.96875,-4.21875
640,1727265455033,-0.88378906,-0.20996094,-0.13574219,29.9375,-35.96875,4.5625
641,1727265455044,-1.671875,-0.13476562,0.099609375,-129.53125,-26.25,-76.0
642,1727265455074,-1.7763672,0.32910156,0.22753906,-22.53125,-58.1875,-74.90625
643,1727265455109,-1.5615234,0.6464844,0.22070312,-28.28125,-51.71875,-62.5
644,1727265455164,-1.2441406,0.34960938,0.10546875,-19.78125,-72.03125,-29.4375
645,1727265455194,-1.0810547,0.29882812,0.16699219,-21.375,-16.5625,-2.03125
646,1727265455224,-0.9472656,0.17089844,0.107421875,14.21875,-15.03125,7.90625
647,1727265455290,-0.83496094,0.14257812,0.19335938,36.78125,-14.65625,7.125
648,1727265455314,-0.8095703,0.24316406,0.16015625,79.40625,-20.71875,15.0625
649,1727265455344,-0.7705078,0.24023438,0.09082031,64.625,-5.375,18.53125
650,1727265455404,-0.87597656,0.13085938,0.15917969,2.25,24.65625,12.9375
651,1727265455437,-0.91503906,0.0703125,0.19238281,-5.8125,8.15625,6.5625
652,1727265455494,-0.9970703,0.23632812,0.21289062,-18.03125,11.875,4.0625
653,1727265455525,-0.9482422,0.028320312,0.20605469,-1.96875,11.875,17.375
654,1727265455554,-0.88378906,0.005859375,0.15136719,32.53125,-8.625,24.03125
655,1727265455584,-0.8642578,0.11425781,0.10839844,22.4375,8.46875,19.875
656,1727265455648,-1.0224609,0.026367188,0.30664062,-1.96875,41.375,12.25
657,1727265455675,-0.97265625,-0.07324219,0.2841797,-1.40625,18.1875,3.53125
658,1727265455704,-0.9199219,0.048828125,0.18457031,-6.78125,19.75,-7.78125
659,1727265455825,-0.83691406,0.0625,0.23925781,-25.53125,28.5,-13.3125
660,1727265455885,-0.6689453,-0.030273438,-0.09277344,-18.09375,-3.0,-14.65625
661,1727265455914,-0.8300781,0.15429688,0.22363281,9.03125,54.4375,-11.5625
662,1727265455981,-0.80078125,0.04296875,0.3095703,-8.9375,5.28125,-3.25
663,1727265456004,-0.96191406,0.13671875,0.06347656,-22.40625,2.25,-6.84375
664,1727265456035,-1.4355469,0.009765625,-0.29101562,-58.84375,17.5625,-22.90625
665,1727265456064,-1.4824219,0.35058594,0.5888672,-64.15625,125.40625,-33.40625
666,1727265456094,-1.8212891,-0.034179688,0.42382812,-141.5625,-26.8125,-21.0625
667,1727265456129,-0.8691406,0.42871094,-0.41503906,10.40625,-65.625,-18.375
668,1727265456154,-1.2255859,0.11621094,-0.43945312,122.59375,-27.125,29.46875
669,1727265456185,-1.1650391,-0.13183594,0.22558594,18.40625,81.40625,10.84375
670,1727265456214,-0.9638672,0.3388672,0.13378906,46.25,-21.3125,15.625
671,1727265456244,-0.8955078,0.057617188,-0.083984375,43.875,-5.75,25.875
672,1727265456276,-0.9501953,0.034179688,-0.053710938,7.375,15.71875,17.6875
673,1727265456336,-0.87597656,0.12890625,-0.0107421875,-2.625,25.875,10.1875
674,1727265456366,-0.96875,0.203125,0.06640625,-11.78125,26.96875,12.0625
675,1727265456394,-1.1142578,-0.0087890625,0.16894531,-21.125,23.375,14.875
676,1727265456424,-0.9013672,0.0,-0.09375,23.90625,-24.625,10.0625
677,1727265456484,-1.0898438,0.0068359375,-0.18261719,20.0,14.5,6.46875
678,1727265456514,-1.0048828,0.17773438,0.11328125,-17.71875,27.21875,3.03125
679,1727265456546,-0.9716797,0.12207031,-0.08105469,32.6875,-9.40625,17.1875
680,1727265456608,-1.0947266,-0.001953125,-0.036132812,-13.25,20.4375,11.40625
681,1727265456634,-0.8486328,0.17578125,0.0234375,-8.125,0.84375,6.9375
682,1727265456694,-0.9941406,0.09277344,-0.15625,38.5625,0.15625,16.21875
683,1727265456724,-0.9794922,0.0048828125,0.037109375,-12.59375,17.5625,11.59375
684,1727265456755,-0.828125,0.10644531,0.10839844,-28.75,-6.96875,5.21875
685,1727265456785,-1.0527344,0.09277344,-0.041992188,5.46875,-5.875,7.90625
686,1727265456844,-0.96875,0.044921875,-0.14746094,18.46875,-3.5,23.90625
687,1727265456874,-0.6201172,-0.18359375,0.25,-49.75,3.34375,12.375
688,1727265456908,-0.6308594,-0.1796875,0.49609375,-77.09375,-53.71875,-16.6875
689,1727265456964,-0.8955078,0.25976562,-0.09765625,36.90625,-73.0,-36.03125
690,1727265456998,-1.6347656,-0.08496094,0.00390625,-44.03125,-57.5,-73.9375
691,1727265457028,-1.5595703,0.31640625,0.22265625,-38.46875,-73.375,-81.9375
692,1727265457089,-1.5966797,0.7597656,-0.048828125,62.59375,-89.8125,-45.5
693,1727265457116,-1.53125,0.30664062,0.21875,-9.53125,-32.4375,-22.59375
694,1727265457144,-1.1201172,0.15625,0.0625,-26.1875,-3.375,-22.28125
695,1727265457204,-1.0380859,0.041992188,0.10253906,10.53125,-0.375,-10.4375
696,1727265457235,-0.7402344,0.083984375,0.13671875,65.34375,-7.40625,-1.84375
697,1727265457264,-0.5527344,0.24707031,0.11328125,81.03125,-7.21875,10.1875
698,1727265457356,-0.5908203,0.3232422,0.15136719,74.875,9.5625,24.03125
699,1727265457385,-0.7470703,0.3095703,0.11425781,26.71875,24.34375,41.25
700,1727265457415,-0.9736328,0.1640625,0.22753906,-37.84375,37.03125,45.8125
701,1727265457444,-1.1572266,-0.020507812,0.29785156,-4.28125,6.40625,42.59375
702,1727265457474,-1.0986328,-0.18554688,0.21972656,30.5625,-5.625,39.15625
703,1727265457504,-0.9453125,-0.17382812,0.20898438,27.625,11.71875,12.1875
704,1727265457568,-0.87402344,0.09277344,0.2548828,-19.3125,21.09375,-10.28125
705,1727265457594,-0.8808594,0.078125,0.3173828,-19.0,27.9375,-14.1875
706,1727265457624,-0.79296875,0.12890625,0.24414062,-27.46875,17.5,-15.21875
707,1727265457684,-0.7597656,0.030273438,0.025390625,9.75,-4.34375,-3.0625
708,1727265457714,-0.7441406,-0.037109375,0.25976562,-13.625,51.625,-6.1875
709,1727265457744,-0.87109375,0.2109375,0.2919922,-9.78125,23.4375,-8.875
710,1727265457804,-1.484375,0.24902344,0.3408203,-28.15625,36.78125,-9.59375
711,1727265457836,-0.97265625,0.18261719,-0.53222656,8.96875,-18.8125,-28.875
712,1727265457864,-2.0,0.27441406,0.8769531,-218.875,108.1875,-60.125
713,1727265457924,-0.93066406,0.23828125,-0.33691406,9.3125,-57.9375,-18.8125
714,1727265457954,-1.2939453,0.34472656,-0.46875,61.1875,-60.4375,19.46875
715,1727265457985,-1.171875,-0.029296875,-0.09863281,75.125,57.65625,23.0625
716,1727265458045,-1.2216797,0.1796875,0.05078125,-14.3125,10.40625,2.65625
717,1727265458074,-1.0039062,0.16894531,0.055664062,43.8125,-5.25,18.21875
718,1727265458104,-0.82714844,0.099609375,-0.052734375,-7.34375,10.78125,19.21875
719,1727265458164,-0.75683594,-0.072265625,-0.30371094,-91.9375,-4.46875,5.90625
720,1727265458194,-0.8515625,0.09277344,0.140625,26.84375,1.15625,21.46875
721,1727265458229,-0.98828125,0.0029296875,-0.12792969,54.84375,10.25,21.78125
722,1727265458284,-1.1386719,0.068359375,0.087890625,-8.75,26.03125,13.28125
723,1727265458314,-0.96972656,-0.046875,0.06347656,20.0625,-0.5,9.6875
724,1727265458345,-1.0664062,0.18945312,0.0390625,18.78125,3.34375,6.09375
725,1727265458404,-0.88183594,0.037109375,-0.0546875,9.75,-8.6875,13.53125
726,1727265458434,-0.8486328,0.080078125,-0.109375,35.1875,0.78125,11.40625
727,1727265458470,-1.1347656,0.08984375,-0.07910156,8.15625,30.6875,11.40625
728,1727265458525,-0.9082031,0.02734375,0.125,-52.1875,12.8125,2.3125
729,1727265458555,-0.61035156,0.1640625,0.21582031,-38.15625,-19.71875,2.4375
730,1727265458614,-1.0175781,0.3984375,-0.12890625,-28.6875,-30.59375,17.5625
731,1727265458645,-0.8466797,-0.064453125,0.1015625,-41.34375,-18.09375,8.71875
732,1727265458674,-0.64160156,-0.0029296875,0.01953125,-16.6875,-24.25,14.375
733,1727265458704,-1.2851562,-0.21484375,0.087890625,-50.6875,-12.21875,-31.15625
734,1727265458794,-1.5859375,-0.021484375,0.12011719,-25.59375,-38.40625,-71.125
735,1727265458830,-1.7099609,0.3955078,0.19921875,-7.40625,-53.59375,-82.46875
736,1727265458855,-1.4023438,0.5751953,0.13769531,17.125,-52.4375,-47.1875
737,1727265458884,-1.171875,0.24023438,0.11328125,-7.40625,-45.25,-33.71875
738,1727265458915,-1.1357422,0.23242188,0.2783203,-34.875,-33.84375,-21.8125
739,1727265458974,-0.9628906,0.036132812,0.11621094,6.03125,-34.1875,-17.84375
740,1727265459005,-0.6894531,0.16308594,0.038085938,25.625,-23.21875,-7.59375
741,1727265459034,-0.6591797,0.17089844,0.028320312,36.78125,-1.0,12.25
742,1727265459065,-0.6660156,0.16503906,0.09277344,13.84375,18.40625,24.8125
743,1727265459124,-0.82714844,0.15136719,0.099609375,9.375,32.28125,32.875
744,1727265459162,-0.9941406,0.10253906,0.18652344,-0.9375,29.15625,30.8125
745,1727265459185,-1.0537109,0.051757812,0.203125,17.0,11.28125,28.84375
746,1727265459244,-1.1220703,-0.056640625,0.33398438,33.0625,14.3125,28.5625
747,1727265459364,-0.99316406,-0.078125,0.2265625,2.65625,-9.84375,8.71875
748,1727265459396,-0.9472656,-0.06347656,0.25878906,-15.625,12.1875,-3.6875
749,1727265459425,-0.90722656,-0.07910156,0.2919922,9.5,12.5,-3.96875
750,1727265459455,-0.8730469,-0.026367188,0.12207031,19.8125,0.15625,-8.75
751,1727265459484,-0.84277344,0.16796875,0.11621094,-19.71875,27.875,-9.125
752,1727265459516,-0.62890625,0.018554688,0.08984375,-25.21875,16.34375,0.15625
753,1727265459544,-0.7578125,0.21386719,0.24804688,5.78125,46.0625,2.0625
754,1727265459574,-1.25,0.13671875,0.3251953,-1.25,50.59375,-2.53125
755,1727265459638,-1.1728516,0.3173828,-0.36328125,39.96875,-33.09375,-22.125
756,1727265459694,-2.0,-0.034179688,0.69628906,-334.25,90.0,-70.6875
757,1727265459728,-0.86328125,0.41796875,-0.052734375,-26.875,-72.40625,-41.40625
758,1727265459754,-1.2070312,0.27246094,-0.5878906,192.96875,-81.125,37.21875
759,1727265459814,-1.2509766,0.032226562,-0.32226562,203.28125,23.65625,31.125
760,1727265459844,-1.0107422,-0.0107421875,0.11230469,-139.46875,20.84375,-17.21875
761,1727265459875,-0.9121094,0.21777344,0.08105469,58.59375,13.28125,21.40625
762,1727265459904,-1.0244141,-0.057617188,-0.05078125,73.53125,4.0625,25.75
763,1727265459935,-0.9238281,0.087890625,-0.12011719,41.0625,20.625,6.8125
764,1727265459964,-0.96484375,0.23828125,0.119140625,2.1875,29.59375,4.6875
765,1727265459998,-1.0898438,0.024414062,0.0703125,9.5625,4.375,21.15625
766,1727265460028,-0.9326172,-0.051757812,-0.041992188,36.4375,-11.6875,17.875
767,1727265460084,-0.8457031,0.03515625,-0.037109375,50.34375,-0.1875,12.5
768,1727265460115,-0.93359375,0.0625,-0.0546875,19.5625,6.46875,8.84375
769,1727265460146,-0.7626953,0.0625,0.111328125,6.21875,5.34375,9.5
