,timestamp,accel_x,accel_y,accel_z,gyro_x,gyro_y,gyro_z
0,1727265525246,-0.85839844,0.13671875,0.25097656,-25.09375,-31.5625,1.375
1,1727265525275,-0.7871094,0.053710938,0.11816406,-56.46875,-43.46875,5.34375
2,1727265525338,-0.625,-0.09765625,-0.08691406,-38.71875,-66.1875,5.34375
3,1727265525371,-0.94433594,-0.24414062,0.08984375,2.0625,-46.53125,-8.25
4,1727265525395,-1.5820312,-0.13378906,0.09863281,2.59375,-55.5625,-42.0625
5,1727265525489,-2.0,0.16894531,0.6044922,-65.8125,-52.625,-97.5
6,1727265525516,-1.6748047,0.70996094,0.19921875,-4.53125,-57.9375,-57.03125
7,1727265525545,-0.98046875,0.3955078,0.12695312,12.3125,-59.03125,-16.5625
8,1727265525576,-1.1396484,0.119140625,0.20019531,-2.15625,-21.0,6.5625
9,1727265525605,-0.86621094,-0.047851562,0.09375,10.53125,-11.1875,1.3125
10,1727265525636,-0.67089844,0.33691406,0.13867188,21.15625,4.0625,-4.09375
11,1727265525695,-0.7050781,0.3173828,0.13378906,66.28125,2.5,18.53125
12,1727265525725,-0.8144531,0.3046875,0.23730469,30.875,21.40625,22.5
13,1727265525760,-0.8779297,0.14257812,0.26464844,-5.25,28.78125,20.4375
14,1727265525815,-0.9482422,0.16992188,0.15722656,-36.5625,41.125,9.125
15,1727265525875,-1.0517578,-0.036132812,0.1484375,-6.4375,29.71875,17.625
16,1727265525905,-1.0234375,-0.07714844,0.28320312,-40.65625,47.53125,6.8125
17,1727265525941,-1.0078125,0.107421875,0.28027344,-8.5,29.40625,5.46875
18,1727265525967,-0.79003906,0.032226562,0.22558594,47.84375,8.15625,19.40625
19,1727265525996,-0.8251953,0.06542969,0.07714844,29.46875,17.5,3.53125
20,1727265526055,-0.86035156,0.15039062,0.18066406,-2.875,46.0625,-5.9375
21,1727265526085,-0.87402344,0.08691406,0.22070312,-2.34375,32.34375,7.5
22,1727265526116,-0.75,-0.13769531,0.13574219,-19.375,21.90625,5.34375
23,1727265526175,-0.7607422,-0.00390625,0.041015625,-36.6875,22.875,-12.15625
24,1727265526205,-0.8310547,0.20605469,0.49023438,-37.0,64.5,-17.84375
25,1727265526236,-1.4013672,0.38183594,0.328125,-12.21875,-5.6875,-3.96875
26,1727265526296,-1.5087891,0.22851562,-0.4765625,-51.71875,-19.84375,-15.40625
27,1727265526328,-1.46875,0.13476562,0.2578125,-218.59375,-38.03125,-57.09375
28,1727265526355,-1.1171875,0.4296875,-0.36914062,-6.4375,-39.875,11.40625
29,1727265526416,-1.3925781,0.052734375,-0.3095703,53.375,-6.3125,50.8125
30,1727265526446,-1.1289062,-0.34765625,-0.0107421875,29.40625,60.78125,23.71875
31,1727265526475,-0.8955078,-0.19140625,0.12597656,15.1875,26.71875,1.3125
32,1727265526535,-0.81640625,0.16503906,-0.09765625,56.9375,27.5,5.59375
33,1727265526565,-1.0273438,0.2529297,0.083984375,8.71875,53.28125,10.1875
34,1727265526599,-1.0126953,0.17382812,0.16601562,12.5,19.34375,16.65625
35,1727265526657,-0.99121094,0.055664062,-0.0048828125,6.5625,10.1875,17.75
36,1727265526688,-1.0527344,0.037109375,-0.016601562,6.15625,2.125,11.8125
37,1727265526719,-0.953125,0.038085938,-0.08496094,30.75,0.40625,5.21875
38,1727265526775,-1.015625,0.08496094,-0.061523438,7.8125,4.1875,1.21875
39,1727265526806,-1.0126953,0.17285156,-0.04296875,-4.78125,7.75,5.59375
40,1727265526836,-1.0009766,0.06640625,-0.07324219,0.84375,-0.125,11.28125
41,1727265526925,-0.93847656,0.047851562,-0.022460938,0.84375,6.5625,7.5
42,1727265526962,-0.96972656,0.06738281,-0.07910156,-1.59375,-0.8125,-1.34375
43,1727265526986,-0.9814453,0.19921875,-0.072265625,24.65625,8.03125,0.53125
44,1727265527015,-0.6953125,0.17871094,0.13964844,-54.875,-3.0,4.3125
45,1727265527045,-0.9628906,0.3203125,-0.18847656,24.21875,-18.875,26.78125
46,1727265527076,-1.0097656,-0.24316406,-0.091796875,9.9375,13.96875,37.15625
47,1727265527176,-0.5605469,-0.087890625,0.40527344,-123.90625,-16.6875,2.375
48,1727265527200,-0.6035156,0.296875,0.013671875,18.46875,-52.4375,10.375
49,1727265527288,-1.1152344,-0.30566406,0.021484375,-5.75,-32.375,-3.75
50,1727265527315,-1.6923828,0.053710938,0.0009765625,-69.59375,-40.90625,-63.90625
51,1727265527349,-1.7373047,0.14453125,0.08984375,1.5625,-77.59375,-67.34375
52,1727265527376,-1.7099609,0.6591797,0.18652344,14.3125,-58.84375,-59.28125
53,1727265527408,-1.1513672,0.34765625,0.028320312,1.09375,-47.9375,-25.84375
54,1727265527435,-0.9013672,0.30273438,0.17382812,1.03125,-33.34375,-17.78125
55,1727265527465,-0.7636719,0.15136719,0.12011719,42.09375,-36.6875,-5.25
56,1727265527495,-0.7626953,0.09863281,0.034179688,44.25,-26.125,-4.28125
57,1727265527526,-0.82128906,0.19042969,0.03125,54.0,-8.125,-5.21875
58,1727265527555,-0.8017578,0.2890625,0.09472656,36.53125,7.90625,7.375
59,1727265527615,-0.9003906,0.2529297,0.15136719,4.3125,23.71875,19.15625
60,1727265527645,-0.96875,0.27148438,0.25878906,-26.9375,34.78125,20.8125
61,1727265527706,-0.91796875,0.11328125,0.2998047,-42.375,28.5625,28.96875
62,1727265527767,-1.0605469,-0.11816406,0.17871094,-100.53125,-18.03125,27.5625
63,1727265527795,-1.125,-0.23730469,0.35839844,-11.125,18.96875,10.84375
64,1727265527885,-1.0146484,-0.125,0.25976562,34.53125,2.90625,2.0
65,1727265527915,-0.8496094,0.0029296875,0.08496094,18.71875,-1.84375,-8.5625
66,1727265527952,-0.95703125,0.061523438,0.18261719,30.6875,23.71875,-9.53125
67,1727265527976,-0.9638672,0.04296875,0.28125,-9.15625,32.28125,-13.75
68,1727265528005,-0.75097656,0.055664062,-0.10253906,-7.28125,-1.84375,-13.75
69,1727265528036,-0.9013672,0.24511719,0.091796875,-7.03125,50.8125,-13.875
70,1727265528066,-0.94140625,0.26367188,0.44335938,-20.28125,24.46875,4.6875
71,1727265528096,-0.7597656,-0.05859375,0.11816406,-14.0625,-1.40625,18.21875
72,1727265528126,-0.7832031,-0.061523438,0.10546875,-53.59375,8.28125,-0.25
73,1727265528155,-1.3046875,-0.016601562,0.23730469,-33.28125,45.6875,-5.875
74,1727265528216,-1.3339844,0.22265625,-0.12988281,15.25,-0.75,-23.28125
75,1727265528245,-1.6523438,0.25195312,0.20117188,-81.5625,-6.375,-22.15625
76,1727265528277,-1.0800781,0.18261719,0.13085938,-22.65625,-32.65625,-9.28125
77,1727265528366,-1.2236328,0.18457031,-0.46484375,155.875,-56.96875,25.625
78,1727265528425,-1.1728516,-0.18652344,-0.076171875,75.96875,46.0625,21.65625
79,1727265528485,-1.0361328,0.099609375,0.0625,12.5,26.40625,-2.75
80,1727265528517,-0.96972656,0.1484375,0.10546875,53.75,19.46875,15.5625
81,1727265528550,-0.8955078,0.12011719,-0.091796875,14.5,18.78125,13.96875
82,1727265528575,-0.95410156,0.20117188,0.05078125,4.75,28.84375,10.71875
83,1727265528605,-0.88964844,0.059570312,0.059570312,-10.8125,12.4375,11.9375
84,1727265528665,-0.9707031,0.16113281,0.029296875,0.96875,9.6875,9.03125
85,1727265528725,-1.1240234,0.034179688,-0.08203125,5.46875,12.75,14.375
86,1727265528756,-0.9921875,0.0234375,0.016601562,-22.90625,9.75,7.6875
87,1727265528818,-1.0292969,0.13183594,0.043945312,-7.875,2.65625,8.90625
88,1727265528848,-0.97265625,0.016601562,-0.08496094,5.84375,-5.03125,11.71875
89,1727265528877,-0.7949219,0.060546875,-0.12988281,19.15625,3.09375,12.0625
90,1727265528905,-1.0527344,0.13378906,-0.013671875,4.5625,23.0625,6.15625
91,1727265528935,-0.9794922,0.0078125,0.08300781,-51.96875,10.125,10.84375
92,1727265528965,-0.67089844,0.15625,0.057617188,-5.15625,-17.34375,14.9375
93,1727265529025,-0.7246094,0.013671875,0.00390625,-4.21875,-24.4375,26.28125
94,1727265529057,-1.1269531,-0.49414062,-0.0546875,-4.03125,15.78125,23.65625
95,1727265529085,-0.6640625,-0.27246094,0.5576172,-100.28125,-32.65625,-28.28125
96,1727265529115,-1.2880859,0.49804688,-0.06640625,119.625,-103.96875,-44.9375
97,1727265529145,-1.5576172,-0.08691406,-0.115234375,23.375,-68.1875,-53.78125
98,1727265529175,-1.5869141,0.4921875,0.28125,-154.75,-50.0,-103.78125
99,1727265529205,-1.375,0.70410156,-0.041992188,42.59375,-61.46875,-50.5
100,1727265529236,-1.2724609,0.22363281,0.032226562,28.0625,-32.375,-15.8125
101,1727265529295,-0.8457031,0.17578125,-0.087890625,27.6875,-16.0625,-1.65625
102,1727265529326,-0.9140625,0.123046875,0.21191406,13.21875,-0.5,0.78125
103,1727265529355,-0.8808594,0.22167969,0.20507812,56.9375,-0.3125,10.25
104,1727265529416,-0.79003906,0.28125,0.14746094,49.25,-0.125,10.59375
105,1727265529445,-0.7949219,0.20507812,0.19433594,29.53125,5.34375,24.28125
106,1727265529479,-0.9980469,0.21289062,0.2939453,-12.28125,8.21875,20.4375
107,1727265529536,-1.0117188,0.12011719,0.24707031,-47.4375,22.125,16.65625
108,1727265529570,-0.94628906,-0.041992188,0.103515625,-65.6875,17.6875,11.28125
109,1727265529603,-1.0175781,-0.06542969,0.09863281,-12.15625,18.34375,11.53125
110,1727265529656,-1.0390625,-0.01953125,0.19335938,4.6875,22.625,9.5
111,1727265529686,-0.8955078,-0.05078125,0.203125,-9.21875,10.40625,1.6875
112,1727265529716,-0.85058594,0.01953125,0.1171875,6.9375,15.1875,0.15625
113,1727265529776,-0.8652344,0.16210938,0.35253906,2.3125,27.15625,1.15625
114,1727265529805,-0.62109375,0.0625,0.13183594,-0.25,-4.21875,6.15625
115,1727265529836,-0.7441406,0.06738281,-0.016601562,23.84375,9.25,9.25
116,1727265529896,-0.88378906,0.14257812,0.21582031,7.125,32.9375,9.9375
117,1727265529927,-0.8730469,-0.018554688,0.25390625,-28.53125,23.1875,8.03125
118,1727265529985,-1.3701172,0.14160156,0.4951172,-63.6875,51.125,-10.6875
119,1727265530050,-1.2060547,0.46191406,-0.42285156,-32.125,-12.34375,-25.21875
120,1727265530106,-1.2724609,-0.12890625,0.053710938,-165.1875,-3.125,-23.34375
121,1727265530136,-1.5029297,0.2763672,0.15820312,-82.34375,38.1875,-22.90625
122,1727265530168,-1.4179688,0.06542969,-0.42089844,22.4375,-17.59375,13.03125
123,1727265530196,-1.1044922,0.0029296875,0.095703125,0.71875,1.3125,1.6875
124,1727265530226,-1.0576172,0.18847656,-0.23046875,88.0625,-17.90625,13.15625
125,1727265530255,-0.9970703,0.05078125,-0.16210938,50.71875,13.59375,18.34375
126,1727265530285,-0.9169922,0.12109375,-0.0146484375,37.65625,32.53125,15.71875
127,1727265530316,-0.828125,0.12890625,0.024414062,-8.5,24.15625,9.8125
128,1727265530376,-1.0419922,0.12890625,-0.025390625,12.9375,23.78125,17.375
129,1727265530406,-1.0126953,0.041992188,-0.033203125,-1.59375,19.9375,16.21875
130,1727265530435,-0.96875,-0.08300781,0.119140625,-37.90625,25.5,5.34375
131,1727265530555,-1.1572266,0.0390625,-0.09082031,7.4375,-3.0625,-1.3125
132,1727265530586,-1.0390625,0.09472656,-0.060546875,26.21875,-0.5625,6.46875
133,1727265530616,-1.0117188,0.18359375,-0.0703125,60.40625,-8.0625,12.5
134,1727265530705,-1.0205078,0.13476562,-0.08886719,46.5,-6.65625,12.25
135,1727265530737,-0.93652344,0.15332031,-0.12890625,18.125,7.90625,4.9375
136,1727265530766,-0.97265625,0.23242188,-0.08300781,-1.125,27.09375,2.0
137,1727265530796,-0.99609375,0.34277344,0.10546875,-40.3125,49.90625,5.40625
138,1727265530856,-0.93359375,0.08691406,0.0,-44.5,-6.59375,19.15625
139,1727265530892,-1.0332031,-0.12207031,-0.11035156,-28.09375,2.1875,15.71875
140,1727265530918,-1.0566406,-0.16113281,-0.12011719,-6.65625,4.25,0.03125
141,1727265530945,-0.89160156,0.109375,0.016601562,-11.96875,8.78125,-10.09375
142,1727265530976,-0.91796875,0.15039062,0.033203125,1.3125,-22.65625,-2.21875
143,1727265531005,-0.9111328,0.1015625,-0.07910156,19.875,-28.59375,3.40625
144,1727265531036,-0.9277344,0.16015625,-0.12207031,7.96875,-23.5,11.8125
145,1727265531065,-0.75390625,-0.16113281,0.171875,-65.75,-7.65625,11.15625
146,1727265531096,-0.703125,-0.061523438,0.15429688,-1.65625,-52.03125,-0.3125
147,1727265531134,-0.8017578,-0.119140625,-0.0625,18.21875,-57.625,-20.53125
148,1727265531186,-1.3378906,-0.125,0.28125,-0.0625,-48.78125,-55.75
149,1727265531215,-1.4013672,0.17578125,0.30273438,-33.40625,-93.09375,-93.53125
150,1727265531246,-1.5078125,0.53808594,0.0048828125,111.4375,-116.84375,-66.78125
151,1727265531277,-1.6025391,0.60058594,-0.00390625,16.28125,-77.09375,-52.4375
152,1727265531335,-1.3613281,0.13769531,0.14550781,-39.5625,-16.3125,-26.8125
153,1727265531370,-1.1123047,-0.15039062,0.18164062,-16.9375,-1.96875,3.65625
154,1727265531400,-0.7734375,0.0390625,0.0625,63.03125,-40.1875,1.5
155,1727265531455,-0.6621094,0.31640625,0.16210938,108.375,-23.21875,5.40625
156,1727265531489,-0.54296875,0.40234375,0.1328125,80.84375,15.1875,11.9375
157,1727265531516,-0.59375,0.3671875,0.13867188,29.9375,48.3125,37.03125
158,1727265531575,-0.91796875,0.19335938,0.2734375,-16.625,52.96875,48.4375
159,1727265531616,-1.1787109,0.009765625,0.60546875,-63.96875,42.59375,24.03125
160,1727265531642,-1.0205078,-0.16992188,0.20410156,-13.375,22.03125,6.8125
161,1727265531695,-0.79003906,0.0390625,0.03515625,-33.03125,31.28125,0.46875
162,1727265531730,-0.7314453,-0.07714844,0.3388672,-29.96875,37.34375,13.71875
163,1727265531785,-0.7265625,-0.07519531,0.33691406,42.53125,-18.3125,11.8125
164,1727265531816,-0.84375,0.07324219,0.18066406,54.125,2.5,4.0
165,1727265531849,-0.7529297,-0.06542969,0.20800781,-14.34375,34.65625,-12.96875
166,1727265531875,-1.0888672,0.26367188,0.27539062,-30.03125,48.875,-28.8125
167,1727265531936,-1.4228516,-0.016601562,0.036132812,-103.46875,-19.125,-33.78125
168,1727265531970,-1.5009766,0.3857422,-0.06640625,71.28125,41.125,-35.125
169,1727265531997,-1.3125,0.12207031,0.69921875,-123.0625,14.28125,-47.6875
170,1727265532055,-1.2265625,0.6855469,-0.5175781,88.0625,-92.53125,7.25
171,1727265532085,-1.5292969,-0.14550781,-0.076171875,135.90625,24.34375,45.9375
172,1727265532115,-1.015625,-0.30859375,-0.06542969,-17.96875,15.65625,18.65625
173,1727265532175,-0.8828125,0.045898438,0.080078125,11.40625,30.125,6.9375
174,1727265532205,-0.8066406,0.12402344,0.020507812,42.40625,15.625,23.0625
175,1727265532240,-0.9160156,-0.08496094,-0.083984375,33.75,23.78125,15.84375
176,1727265532326,-1.0058594,0.06347656,0.12695312,-47.25,66.09375,2.125
177,1727265532360,-1.0449219,0.028320312,0.22265625,-31.4375,20.3125,16.21875
178,1727265532385,-0.9873047,-0.19726562,-0.041992188,31.125,-6.0625,18.1875
179,1727265532415,-1.0224609,0.0234375,-0.00390625,30.4375,2.375,9.125
180,1727265532445,-1.0244141,0.09277344,0.038085938,45.8125,0.0,12.5
181,1727265532476,-1.0410156,0.14160156,0.025390625,43.0,0.65625,17.1875
182,1727265532537,-0.8652344,0.123046875,0.060546875,5.0625,-12.28125,20.5625
183,1727265532565,-0.97558594,0.021484375,0.03515625,1.5625,-2.09375,18.0625
184,1727265532596,-0.8046875,0.016601562,0.17871094,-35.96875,-4.40625,13.28125
185,1727265532657,-0.93847656,0.01953125,-0.018554688,39.28125,-23.9375,30.4375
186,1727265532687,-0.76171875,-0.3330078,0.0087890625,2.0,-12.21875,30.625
187,1727265532746,-0.67089844,0.07421875,0.052734375,-9.84375,-31.5,-3.125
188,1727265532777,-0.9003906,0.0,-0.0126953125,72.1875,-40.71875,-2.15625
189,1727265532805,-1.7382812,-0.18847656,0.12890625,43.0625,-55.6875,-65.5625
190,1727265532836,-1.6064453,0.546875,0.12207031,-27.84375,-70.5625,-88.46875
191,1727265532895,-1.4541016,0.94921875,0.17675781,-45.84375,-69.34375,-71.625
192,1727265532927,-1.3945312,0.57421875,0.35839844,-53.375,-26.375,-27.1875
193,1727265532960,-1.0888672,0.068359375,-0.0546875,-45.25,-66.96875,-2.40625
194,1727265533016,-1.1328125,0.026367188,0.42285156,-79.46875,-14.3125,-6.71875
195,1727265533048,-0.7998047,0.14160156,0.040039062,38.0625,-38.53125,6.21875
196,1727265533076,-0.65234375,0.31835938,0.09472656,34.34375,-9.65625,20.96875
197,1727265533136,-0.6933594,0.23144531,0.0048828125,20.125,22.9375,35.3125
198,1727265533166,-0.7138672,0.14550781,0.048828125,17.6875,47.34375,33.75
199,1727265533200,-0.8886719,0.13378906,0.15429688,17.75,49.375,23.71875
200,1727265533257,-0.9609375,0.16015625,0.23535156,-26.75,36.84375,17.625
201,1727265533286,-0.9970703,-0.08984375,0.27246094,-22.0,28.3125,18.40625
202,1727265533321,-0.97265625,-0.08496094,0.22753906,52.90625,3.65625,20.125
203,1727265533376,-0.9863281,-0.024414062,0.12792969,-0.625,24.15625,2.65625
204,1727265533410,-0.90234375,0.09375,0.359375,-24.125,30.625,-0.3125
205,1727265533439,-0.8378906,-0.13476562,0.24609375,6.8125,6.5625,-1.84375
206,1727265533495,-0.8886719,0.024414062,0.23828125,-17.59375,23.46875,-12.78125
207,1727265533526,-0.78027344,0.06542969,0.21386719,-50.84375,28.90625,-18.4375
208,1727265533560,-0.90234375,0.08984375,0.23144531,2.65625,24.65625,-3.8125
209,1727265533617,-1.3740234,0.032226562,0.103515625,-14.1875,17.125,-10.03125
210,1727265533646,-1.6601562,0.4970703,-0.28027344,-11.625,14.4375,-49.46875
211,1727265533680,-1.2119141,0.057617188,0.6279297,-291.09375,-41.59375,-61.78125
212,1727265533735,-0.92871094,0.51171875,-0.234375,43.875,-44.5,-12.28125
213,1727265533766,-1.3271484,0.23925781,-0.4765625,149.21875,-37.5625,38.0
214,1727265533796,-1.0732422,-0.23730469,-0.12011719,79.5625,42.84375,35.09375
215,1727265533885,-1.0722656,0.053710938,0.21875,-80.53125,46.75,2.78125
216,1727265533918,-0.9814453,0.119140625,0.013671875,69.25,2.1875,24.15625
217,1727265533950,-0.96972656,0.0078125,-0.18261719,67.625,3.03125,19.75
218,1727265533975,-0.8798828,0.22753906,0.01171875,-7.71875,48.3125,11.53125
219,1727265534006,-0.9638672,0.17480469,0.18261719,-29.5625,34.90625,16.90625
220,1727265534039,-0.953125,0.052734375,0.10839844,-17.21875,7.5625,16.9375
221,1727265534095,-1.0761719,0.06347656,-0.06640625,5.34375,1.875,17.75
222,1727265534125,-1.0566406,-0.064453125,-0.07910156,-3.875,8.28125,16.15625
223,1727265534156,-0.96191406,0.02734375,0.09667969,-12.84375,14.3125,11.9375
224,1727265534215,-0.9189453,0.09863281,-0.03515625,30.6875,-12.28125,18.21875
225,1727265534245,-0.9160156,0.047851562,-0.115234375,34.28125,-1.84375,17.75
226,1727265534275,-0.6503906,0.068359375,0.03125,-7.40625,10.65625,9.25
227,1727265534336,-0.61035156,0.16894531,0.009765625,24.40625,-15.875,14.3125
228,1727265534395,-0.8339844,-0.10058594,-0.015625,44.78125,-9.65625,21.53125
229,1727265534426,-0.76171875,0.041015625,0.19042969,-87.0,-16.8125,-7.53125
230,1727265534456,-1.2539062,0.12109375,-0.025390625,81.78125,-58.71875,0.21875
231,1727265534485,-1.5615234,-0.4423828,0.21484375,-48.34375,-40.0625,-51.65625
232,1727265534516,-1.5957031,0.7011719,0.36035156,-9.21875,-96.6875,-99.6875
233,1727265534606,-1.6767578,0.60839844,-0.08984375,76.53125,-88.28125,-63.84375
234,1727265534636,-1.4277344,0.3173828,0.09863281,-90.65625,-45.5,-10.6875
235,1727265534673,-1.0195312,0.09082031,-0.00390625,-30.09375,-35.84375,6.5625
236,1727265534702,-0.78027344,0.1484375,0.17480469,-11.71875,-4.53125,-20.03125
237,1727265534726,-0.73339844,0.17285156,0.20996094,11.59375,23.375,-20.875
238,1727265534755,-0.69433594,0.27246094,0.018554688,77.6875,7.90625,-2.6875
239,1727265534816,-0.67285156,0.20019531,0.0703125,49.0625,26.71875,14.3125
240,1727265534845,-0.6738281,0.15136719,0.1171875,45.53125,36.90625,24.15625
241,1727265534906,-0.8408203,0.07910156,0.2890625,13.15625,24.40625,16.53125
242,1727265534938,-1.1142578,-0.33789062,0.64453125,-10.75,28.71875,-0.9375
243,1727265534967,-1.0009766,-0.46191406,0.20703125,-27.53125,-23.4375,-46.46875
244,1727265534996,-0.8095703,0.0107421875,0.10449219,-18.75,-54.9375,-51.53125
245,1727265535056,-0.5625,0.07421875,0.34472656,41.4375,-29.5625,-20.28125
246,1727265535085,-0.57128906,0.032226562,0.13476562,33.96875,-24.90625,-13.8125
247,1727265535115,-0.7890625,-0.059570312,0.51464844,3.84375,-20.53125,-18.6875
248,1727265535182,-0.8652344,-0.23535156,0.5234375,-18.625,-5.375,-11.0
249,1727265535207,-0.91503906,-0.34179688,0.61328125,-23.5,16.9375,-22.28125
250,1727265535235,-2.0,-1.5751953,1.7519531,-184.59375,-27.125,-107.0
251,1727265535302,0.4794922,1.1835938,1.1835938,77.1875,-80.8125,-45.96875
252,1727265535328,-0.83203125,0.2626953,-0.8359375,101.5625,-43.21875,104.71875
253,1727265535355,-2.0,0.70214844,-0.5800781,78.0625,119.3125,69.5625
254,1727265535419,-0.9140625,-0.4560547,0.6611328,-189.34375,135.59375,20.3125
255,1727265535445,-0.81347656,0.6220703,-0.38378906,90.75,20.84375,46.8125
256,1727265535476,-1.0068359,0.43066406,-0.0048828125,-33.53125,100.75,63.71875
257,1727265535535,-0.9980469,-0.234375,0.061523438,-60.3125,89.28125,69.125
258,1727265535566,-0.99609375,-0.068359375,0.18652344,-33.09375,33.6875,33.3125
259,1727265535596,-0.8359375,0.03125,-0.001953125,-17.84375,34.46875,20.4375
260,1727265535656,-0.9453125,0.125,-0.11816406,-3.4375,23.84375,11.71875
261,1727265535685,-0.88183594,0.14160156,-0.024414062,-27.0625,38.625,14.5
262,1727265535715,-0.96191406,0.095703125,0.0390625,-53.53125,35.09375,11.40625
263,1727265535775,-1.0175781,0.076171875,-0.053710938,-43.59375,23.53125,17.4375
264,1727265535806,-0.95996094,0.13574219,-0.041992188,-43.09375,25.125,16.53125
265,1727265535837,-0.9501953,0.125,0.0107421875,-49.21875,29.03125,23.4375
266,1727265535985,-0.98046875,0.016601562,-0.076171875,-12.59375,-3.75,25.1875
267,1727265536015,-0.90625,0.083984375,0.0048828125,-3.625,21.09375,19.9375
268,1727265536048,-1.1601562,0.12695312,0.08203125,-26.03125,6.75,15.96875
269,1727265536076,-1.0419922,-0.24023438,0.23339844,-66.71875,-6.1875,22.375
270,1727265536105,-1.46875,0.15820312,0.39941406,-71.90625,-45.71875,-23.28125
271,1727265536196,-1.2324219,0.022460938,-0.27246094,144.9375,-136.6875,-18.375
272,1727265536256,-1.4111328,0.4580078,-0.3671875,175.40625,-119.65625,-76.0
273,1727265536286,-1.2753906,0.5751953,-0.4013672,-8.3125,-20.9375,-63.125
274,1727265536316,-1.1669922,0.51171875,0.37597656,-139.71875,51.3125,-76.90625
275,1727265536345,-1.1005859,0.68652344,0.09765625,-11.375,-58.1875,-36.03125
276,1727265536380,-0.89160156,0.20214844,-0.053710938,-15.75,-46.71875,-20.46875
277,1727265536406,-0.8857422,0.0107421875,-0.07714844,26.28125,-42.25,-24.125
278,1727265536436,-0.91308594,0.18652344,-0.0029296875,41.125,-33.65625,-34.0625
279,1727265536466,-0.85058594,0.35253906,0.12402344,59.125,-38.71875,-24.375
280,1727265536496,-0.80566406,0.35253906,0.11328125,16.34375,-29.0625,-30.96875
281,1727265536526,-0.7714844,0.18261719,0.12402344,-15.625,-11.84375,-16.625
282,1727265536556,-0.84277344,0.107421875,0.20117188,-36.40625,0.28125,-3.875
283,1727265536586,-0.83984375,-0.009765625,0.15136719,-27.25,-3.375,5.78125
284,1727265536622,-0.7558594,-0.048828125,0.10253906,-11.71875,4.25,14.9375
285,1727265536653,-0.71484375,-0.095703125,0.078125,-3.6875,27.9375,20.625
286,1727265536676,-0.7939453,0.0068359375,0.080078125,28.65625,41.4375,25.0
287,1727265536740,-0.90625,0.119140625,0.17675781,30.5625,56.25,18.0
288,1727265536768,-1.0791016,-0.10058594,0.42773438,-33.53125,53.875,5.40625
289,1727265536795,-1.0673828,-0.13964844,0.07910156,-56.03125,51.375,-14.3125
290,1727265536890,-0.7363281,0.12792969,0.22265625,-47.0625,26.0,-15.46875
291,1727265536916,-0.6845703,0.12207031,0.3642578,-10.34375,2.3125,4.0
292,1727265536945,-1.1933594,0.18164062,0.19433594,-49.625,30.4375,6.46875
293,1727265536977,-1.3759766,0.14160156,-0.19921875,-10.8125,6.75,6.46875
294,1727265537006,-2.0,-0.13769531,0.72753906,-91.09375,61.09375,-5.03125
295,1727265537036,-0.89746094,0.28222656,-0.40429688,15.90625,-69.53125,-16.8125
296,1727265537099,-1.453125,0.21875,-0.46289062,130.65625,-42.9375,23.46875
297,1727265537126,-1.2441406,-0.036132812,-0.20605469,142.9375,19.03125,23.84375
298,1727265537158,-0.99902344,0.16210938,0.06738281,-46.15625,26.53125,-7.21875
299,1727265537276,-0.8671875,0.4267578,0.1328125,12.375,27.9375,17.875
300,1727265537306,-0.9277344,0.10449219,-0.038085938,73.03125,6.6875,37.75
301,1727265537338,-0.94628906,-0.04296875,-0.040039062,33.5625,20.5625,26.28125
302,1727265537371,-0.8515625,0.16015625,0.064453125,-16.3125,28.5625,16.65625
303,1727265537396,-0.8486328,0.07910156,0.12109375,-20.09375,18.65625,22.4375
304,1727265537425,-0.90527344,-0.25,0.18359375,-32.65625,14.8125,16.65625
305,1727265537456,-0.8886719,-0.1015625,0.1328125,-11.6875,4.8125,-5.75
306,1727265537489,-0.9736328,0.049804688,0.06640625,-4.84375,-2.875,-3.90625
307,1727265537515,-0.6357422,-0.12597656,0.119140625,-16.75,-26.0625,-0.6875
308,1727265537575,-0.6923828,0.2705078,-0.045898438,24.28125,-49.03125,-7.78125
309,1727265537605,-0.7597656,-0.29589844,0.021484375,-32.4375,-23.9375,-4.03125
310,1727265537636,-1.5859375,0.060546875,0.20898438,-132.53125,-12.78125,-86.25
311,1727265537695,-1.5107422,0.005859375,0.14648438,-60.75,-56.21875,-70.03125
312,1727265537725,-2.0,0.453125,0.4580078,36.125,-56.65625,-70.3125
313,1727265537755,-1.2236328,0.29589844,-0.09667969,1.9375,-55.9375,-30.96875
314,1727265537815,-1.0546875,0.24023438,0.08105469,-39.9375,-20.59375,-19.125
315,1727265537876,-1.1308594,0.18164062,0.37304688,-9.125,0.46875,-10.03125
316,1727265537906,-0.7607422,0.17871094,0.17382812,19.15625,-4.96875,-4.15625
317,1727265537935,-0.76660156,0.24707031,0.16015625,34.03125,3.09375,15.96875
318,1727265537971,-0.72558594,0.33496094,0.14648438,46.875,-10.75,37.59375
319,1727265537995,-0.8466797,0.17871094,0.08691406,8.84375,18.0625,45.03125
320,1727265538089,-1.0351562,0.09082031,0.19433594,-71.1875,49.375,32.5625
321,1727265538122,-0.98339844,-0.17871094,0.12695312,-63.0625,33.5625,27.75
322,1727265538146,-0.9560547,-0.078125,0.025390625,14.5,18.65625,31.0625
323,1727265538175,-1.0888672,0.0048828125,0.32128906,43.125,11.28125,31.25
324,1727265538265,-1.0498047,-0.09472656,0.34960938,-2.21875,10.125,17.3125
325,1727265538302,-1.0019531,-0.10058594,0.18945312,11.75,-5.15625,9.6875
326,1727265538335,-0.85546875,-0.060546875,0.08300781,7.8125,4.75,-8.625
327,1727265538385,-0.9638672,0.0234375,0.37695312,-57.28125,29.53125,-19.90625
328,1727265538415,-0.7480469,-0.00390625,0.16894531,-17.59375,-19.96875,-4.09375
329,1727265538445,-0.68652344,0.033203125,0.0625,11.40625,9.03125,-2.46875
330,1727265538475,-0.79003906,0.0703125,0.17675781,57.1875,8.21875,12.375
331,1727265538505,-0.8847656,-0.055664062,0.23144531,30.9375,15.0625,4.375
332,1727265538540,-1.2216797,0.21191406,0.3232422,-26.6875,27.875,-16.9375
333,1727265538566,-1.3339844,0.2890625,-0.33398438,59.90625,-9.71875,-21.875
334,1727265538600,-1.9277344,0.18554688,0.65234375,-139.1875,64.6875,-45.78125
335,1727265538656,-1.0908203,0.5263672,-0.23046875,59.6875,-77.71875,0.46875
336,1727265538686,-1.2509766,-0.119140625,-0.33984375,108.8125,-23.40625,31.84375
337,1727265538720,-1.1083984,0.04296875,-0.16015625,89.15625,20.4375,10.59375
338,1727265538776,-0.94433594,0.041992188,-0.01171875,63.78125,28.5,6.6875
339,1727265538807,-0.8955078,0.10058594,0.07714844,26.46875,34.71875,6.03125
340,1727265538835,-0.84765625,0.12011719,-0.038085938,28.25,22.1875,12.0625
341,1727265538896,-1.0527344,0.13671875,-0.13183594,10.71875,30.25,7.625
342,1727265538926,-1.0458984,0.19433594,0.05859375,-41.21875,62.71875,9.6875
343,1727265538956,-1.0888672,0.17089844,0.2421875,-22.125,29.53125,22.8125
344,1727265539015,-0.99902344,-0.11816406,-0.12792969,32.34375,-34.4375,27.09375
345,1727265539046,-0.93359375,0.10058594,-0.18847656,15.3125,16.21875,8.46875
346,1727265539080,-1.0439453,0.14257812,0.05078125,-46.15625,39.40625,1.75
347,1727265539165,-1.0556641,-0.0048828125,-0.021484375,-8.0,-13.4375,4.9375
348,1727265539201,-1.0087891,0.125,-0.23730469,63.15625,-19.65625,1.75
349,1727265539226,-0.9511719,0.17578125,-0.10253906,19.46875,8.03125,-3.1875
350,1727265539256,-0.9921875,0.21972656,-0.018554688,23.0,8.28125,-4.53125
351,1727265539286,-1.0058594,0.19433594,0.095703125,-8.1875,7.84375,-0.6875
352,1727265539320,-1.0644531,0.0,-0.11425781,-34.875,-8.1875,11.15625
353,1727265539376,-0.9658203,-0.032226562,-0.08496094,-38.15625,9.875,17.5625
354,1727265539406,-0.9345703,-0.015625,-0.064453125,-19.90625,6.5,12.375
355,1727265539440,-0.9785156,-0.0048828125,0.015625,-23.09375,16.46875,6.09375
356,1727265539561,-0.9423828,0.016601562,0.034179688,-21.9375,0.78125,-1.53125
357,1727265539586,-0.65527344,0.23632812,0.27734375,-42.875,-32.4375,-4.65625
358,1727265539616,-0.4970703,0.15917969,-0.0078125,33.3125,-52.625,16.40625
359,1727265539653,-0.72558594,-0.017578125,-0.20019531,18.46875,-47.5625,19.625
360,1727265539683,-0.90625,-0.21191406,-0.18652344,54.625,-6.96875,15.96875
361,1727265539717,-1.7148438,-0.54296875,0.46777344,-213.03125,-26.875,-89.1875
362,1727265539737,-1.8027344,0.30566406,0.45996094,10.3125,-123.1875,-126.125
363,1727265539773,-1.8535156,0.89941406,-0.125,50.09375,-106.8125,-100.78125
364,1727265539810,-1.2148438,0.61328125,0.10058594,-75.09375,-45.90625,-21.25
365,1727265539856,-1.0517578,-0.046875,-0.0029296875,-45.65625,-54.9375,-23.6875
366,1727265539885,-0.9736328,-0.06347656,0.22265625,-32.1875,-8.4375,-27.46875
367,1727265539920,-0.5996094,0.064453125,0.049804688,52.21875,-24.3125,-4.96875
368,1727265539975,-0.5654297,0.30566406,0.0048828125,69.1875,-4.96875,14.75
369,1727265540009,-0.6669922,0.37109375,-0.0234375,63.53125,34.53125,36.90625
370,1727265540095,-0.8417969,0.30273438,0.020507812,55.46875,66.28125,52.96875
371,1727265540126,-1.1748047,0.17675781,0.40527344,9.9375,50.34375,45.46875
372,1727265540160,-1.3222656,-0.11816406,0.5263672,25.4375,2.0625,40.6875
373,1727265540189,-1.0751953,-0.13183594,0.28222656,29.03125,3.90625,30.75
374,1727265540215,-1.0546875,-0.001953125,0.18847656,-81.5,33.1875,-2.875
375,1727265540246,-1.0888672,0.09375,0.54296875,-51.59375,57.59375,-8.0625
376,1727265540276,-0.87597656,-0.20996094,0.09472656,-2.75,14.28125,-1.46875
377,1727265540336,-0.7871094,-0.08984375,-0.029296875,15.65625,-3.8125,-17.40625
378,1727265540370,-0.66015625,0.24414062,-0.043945312,-3.0625,15.65625,-14.40625
379,1727265540430,-0.84277344,0.14355469,0.27929688,9.375,45.09375,10.71875
380,1727265540456,-0.7949219,0.064453125,0.16015625,14.8125,19.5625,6.8125
381,1727265540486,-0.8076172,0.056640625,0.25585938,-25.34375,29.78125,5.90625
382,1727265540545,-1.1923828,0.10839844,0.0703125,-42.1875,27.21875,-18.625
383,1727265540576,-1.2539062,0.30859375,-0.30371094,-56.03125,3.84375,-34.5625
384,1727265540606,-1.3964844,0.12011719,0.26464844,-119.59375,24.8125,-25.71875
385,1727265540669,-1.5654297,-0.052734375,0.013671875,-87.1875,-24.96875,-7.78125
386,1727265540696,-0.9902344,0.115234375,-0.31152344,39.21875,-52.6875,1.8125
387,1727265540756,-1.1298828,0.09863281,-0.28222656,102.09375,-6.375,25.875
388,1727265540785,-1.2431641,0.029296875,-0.049804688,25.6875,40.21875,13.03125
389,1727265540823,-0.9482422,0.13867188,0.06542969,19.15625,15.84375,13.84375
390,1727265540846,-0.88183594,0.15332031,-0.013671875,49.65625,13.96875,25.0
391,1727265540910,-0.9433594,0.087890625,-0.06933594,11.03125,20.25,18.96875
392,1727265540935,-0.95703125,0.017578125,0.043945312,-0.3125,16.46875,13.96875
393,1727265540996,-0.9472656,0.14648438,0.064453125,6.5625,12.375,12.25
394,1727265541030,-1.0839844,0.05859375,-0.11425781,14.28125,5.21875,13.03125
395,1727265541062,-1.0087891,0.0703125,0.02734375,-3.1875,3.9375,9.375
396,1727265541087,-1.0117188,0.15332031,-0.030273438,21.84375,0.71875,12.375
397,1727265541146,-0.9658203,0.107421875,-0.056640625,0.03125,0.78125,13.71875
398,1727265541176,-0.9453125,0.1484375,-0.0068359375,-9.125,4.25,12.75
399,1727265541206,-0.76660156,0.07910156,-0.21777344,35.4375,-10.09375,25.5
400,1727265541266,-0.8808594,0.046875,-0.1953125,38.375,16.9375,20.3125
401,1727265541296,-1.0810547,-0.08496094,0.10644531,-74.125,57.96875,-1.40625
402,1727265541327,-0.51171875,0.21875,0.5107422,-124.53125,-17.15625,-12.53125
403,1727265541385,-0.5878906,0.2607422,-0.06542969,33.375,-60.625,4.3125
404,1727265541476,-1.0224609,-0.21484375,-0.234375,44.90625,-25.28125,3.03125
405,1727265541506,-1.4951172,-0.4951172,0.09863281,-145.875,-7.03125,-72.21875
406,1727265541536,-1.6201172,-0.026367188,0.4638672,-113.46875,-46.46875,-111.71875
407,1727265541567,-1.578125,0.6191406,-0.11816406,119.0,-107.625,-70.5
408,1727265541596,-1.3427734,0.7109375,0.00390625,42.15625,-58.5,-34.625
409,1727265541631,-1.1269531,0.10546875,-0.041992188,-46.875,0.34375,-22.84375
410,1727265541656,-1.2783203,0.030273438,0.17089844,-70.625,0.59375,-25.59375
411,1727265541687,-1.1445312,-0.041015625,0.107421875,-17.59375,2.3125,-15.09375
412,1727265541745,-0.81152344,0.14453125,0.14453125,38.5,-18.25,-8.3125
413,1727265541776,-0.70996094,0.24902344,0.13964844,59.90625,-22.65625,9.6875
414,1727265541810,-0.6640625,0.23535156,0.119140625,57.78125,-19.0625,26.71875
415,1727265541865,-0.87597656,0.12597656,0.19921875,22.6875,12.0625,32.21875
416,1727265541896,-1.0380859,0.02734375,0.21679688,-25.40625,18.96875,24.9375
417,1727265541926,-1.0556641,-0.109375,0.20019531,-17.59375,15.375,19.5625
418,1727265541985,-1.0087891,-0.17089844,0.078125,-1.71875,13.0,12.25
419,1727265542016,-0.94140625,-0.0078125,0.24121094,-16.625,12.3125,5.34375
420,1727265542047,-1.0068359,0.01171875,0.265625,-17.53125,16.46875,4.5625
421,1727265542106,-0.9765625,-0.07910156,0.19042969,-14.34375,14.5625,4.375
422,1727265542140,-0.9638672,-0.083984375,0.15820312,-3.6875,14.09375,6.28125
423,1727265542166,-0.9003906,-0.057617188,0.15136719,-15.40625,11.34375,-0.75
424,1727265542226,-0.8652344,-0.0146484375,0.12792969,-7.9375,19.40625,4.9375
425,1727265542260,-0.8076172,-0.048828125,0.034179688,1.375,12.625,3.21875
426,1727265542288,-0.90625,0.16796875,0.265625,2.25,45.9375,0.96875
427,1727265542376,-0.8232422,0.083984375,0.3095703,-0.5,1.3125,11.15625
428,1727265542405,-0.6738281,-0.14453125,-0.068359375,-13.625,-13.0625,8.71875
429,1727265542438,-1.0439453,0.09472656,0.2265625,-43.78125,53.375,-9.34375
430,1727265542466,-1.2988281,0.05859375,0.18457031,-124.96875,-15.28125,-10.03125
431,1727265542500,-1.3027344,0.17089844,-0.23144531,47.03125,-0.875,4.8125
432,1727265542526,-1.5449219,-0.3857422,0.27734375,-83.09375,54.96875,-10.15625
433,1727265542585,-1.2548828,0.25390625,0.16503906,44.25,-61.90625,-24.6875
434,1727265542616,-1.1875,0.27441406,-0.37890625,194.125,-55.25,10.25
435,1727265542647,-1.1357422,0.15625,-0.2861328,170.03125,-16.3125,27.28125
436,1727265542736,-1.0400391,-0.0107421875,-0.036132812,23.71875,47.59375,15.1875
437,1727265542766,-0.94140625,0.06738281,-0.00390625,6.46875,26.46875,9.5
438,1727265542796,-0.83203125,0.14746094,-0.020507812,10.0625,31.84375,16.65625
439,1727265542829,-0.9326172,0.15820312,-0.09375,1.03125,35.25,19.40625
440,1727265542889,-0.9970703,0.15429688,0.18457031,-30.46875,43.875,24.21875
441,1727265542916,-0.9560547,-0.060546875,0.11328125,-3.75,-6.125,23.96875
442,1727265542976,-1.0117188,-0.015625,-0.0107421875,10.375,1.3125,11.8125
443,1727265543009,-0.8144531,0.026367188,-0.034179688,17.25,-13.5,11.40625
444,1727265543036,-1.0126953,-0.033203125,0.0146484375,1.3125,5.46875,6.46875
445,1727265543066,-0.8359375,0.041992188,0.1171875,-9.65625,-3.6875,1.5
446,1727265543096,-0.8388672,0.11328125,0.045898438,2.84375,-25.46875,1.375
447,1727265543126,-0.95996094,0.0,0.013671875,7.96875,-28.8125,4.0
448,1727265543186,-0.578125,-0.119140625,0.17773438,1.75,-31.5,-0.9375
449,1727265543215,-0.7783203,0.1171875,-0.0625,-21.75,-49.625,-29.96875
450,1727265543306,-1.484375,-0.19042969,-0.022460938,68.28125,-42.375,-22.21875
451,1727265543335,-1.6943359,-0.1015625,0.23242188,-97.96875,-41.09375,-84.90625
452,1727265543366,-1.4082031,0.6738281,0.32910156,15.375,-60.0,-64.40625
453,1727265543398,-1.5048828,0.5986328,0.15625,-44.21875,-42.5625,-39.0625
454,1727265543425,-1.2890625,0.19042969,0.19335938,-46.03125,-39.625,-13.4375
455,1727265543456,-1.1904297,0.028320312,0.26757812,-49.9375,-31.625,-2.15625
456,1727265543485,-0.88964844,0.20117188,0.09375,-5.25,-14.84375,0.65625
457,1727265543545,-0.8066406,0.22558594,0.16015625,1.75,-2.8125,11.9375
458,1727265543577,-0.7441406,0.10253906,0.18945312,32.21875,0.0,24.8125
459,1727265543606,-0.7236328,0.01953125,0.13671875,21.09375,9.6875,23.25
460,1727265543665,-0.81347656,-0.013671875,0.19628906,-5.4375,25.375,11.71875
461,1727265543730,-0.8886719,0.0009765625,0.16894531,5.78125,20.5625,11.53125
462,1727265543758,-0.9238281,-0.0703125,0.21679688,-20.65625,27.8125,4.0625
463,1727265543815,-0.9746094,0.064453125,0.25976562,-6.3125,32.75,8.21875
464,1727265543876,-1.0712891,0.12597656,0.21582031,29.59375,21.15625,19.40625
465,1727265543906,-0.93652344,-0.03515625,0.21191406,11.9375,10.0625,23.59375
466,1727265543944,-0.9003906,-0.08496094,0.15429688,-9.65625,13.46875,14.3125
467,1727265543965,-0.85058594,-0.030273438,0.19140625,-1.65625,12.0,7.375
468,1727265544003,-0.8652344,-0.030273438,0.19628906,-28.28125,32.625,0.34375
469,1727265544026,-0.9482422,-0.16503906,0.33496094,-16.1875,32.5625,7.625
470,1727265544055,-0.81347656,-0.06738281,0.140625,27.4375,-13.75,-2.6875
471,1727265544086,-0.76953125,0.20800781,0.19921875,25.75,24.15625,-2.46875
472,1727265544147,-0.91015625,-0.11425781,0.047851562,-38.78125,-2.8125,-2.21875
473,1727265544176,-1.4990234,0.3388672,-0.17773438,22.4375,42.09375,-18.09375
474,1727265544210,-1.7480469,-0.0859375,0.38085938,-196.65625,21.28125,-48.90625
475,1727265544266,-0.9628906,0.23925781,-0.18847656,-19.3125,-40.375,-33.59375
476,1727265544296,-1.1894531,0.3095703,-0.4189453,201.28125,-64.40625,20.0
477,1727265544328,-1.3759766,-0.13769531,0.09082031,114.5625,77.875,35.75
478,1727265544385,-1.0517578,0.19726562,0.07714844,23.71875,7.125,14.8125
479,1727265544416,-0.91503906,-0.00390625,-0.013671875,70.3125,1.3125,21.65625
480,1727265544450,-0.91503906,0.12988281,-0.111328125,9.25,30.25,12.75
481,1727265544506,-0.9638672,0.22949219,0.16015625,0.21875,39.96875,10.25
482,1727265544536,-0.9501953,0.18554688,0.095703125,-4.03125,6.75,16.9375
483,1727265544566,-0.91308594,0.043945312,0.018554688,13.09375,-7.28125,20.4375
484,1727265544625,-1.0029297,-0.08496094,-0.06640625,20.25,-0.4375,15.71875
485,1727265544662,-1.0791016,0.10644531,0.087890625,5.78125,11.28125,4.875
486,1727265544688,-0.953125,0.13574219,-0.017578125,10.125,-3.375,10.0625
487,1727265544746,-0.9082031,0.05078125,-0.10839844,6.15625,7.25,14.3125
488,1727265544776,-1.0185547,0.107421875,0.076171875,-41.34375,25.3125,9.25
489,1727265544807,-0.84765625,0.10253906,0.06542969,3.40625,3.53125,19.09375
490,1727265544866,-0.8125,0.0029296875,0.051757812,7.6875,0.15625,15.0625
491,1727265544896,-0.79003906,0.07324219,0.25976562,-49.03125,-11.125,-3.5625
492,1727265544926,-0.5761719,0.1953125,0.11621094,23.125,-42.9375,5.0
493,1727265544986,-0.59277344,-0.12109375,0.18457031,-1.25,-43.40625,3.46875
494,1727265545017,-0.9941406,0.140625,-0.10449219,-31.5,-55.625,-29.96875
495,1727265545048,-1.8125,-0.2529297,-0.034179688,-43.78125,-30.46875,-46.46875
496,1727265545106,-1.5703125,0.45410156,0.54003906,-81.4375,-40.71875,-69.78125
497,1727265545199,-1.4882812,0.2919922,-0.17578125,88.4375,-72.03125,-30.28125
498,1727265545227,-1.5039062,0.234375,0.14746094,-46.21875,18.78125,-39.1875
499,1727265545286,-1.0791016,0.20117188,0.115234375,-56.15625,7.96875,-30.65625
500,1727265545316,-1.1552734,-0.125,-0.0068359375,-32.78125,32.28125,-15.6875
501,1727265545346,-0.8701172,0.03515625,0.2529297,-21.875,17.6875,-12.71875
502,1727265545406,-0.7792969,0.16796875,0.14550781,42.84375,-6.0625,-2.75
503,1727265545436,-0.8222656,0.15332031,0.123046875,28.65625,3.90625,3.71875
504,1727265545496,-0.8535156,0.061523438,0.14355469,17.0,10.25,6.34375
505,1727265545526,-0.91503906,0.0390625,0.11425781,22.25,-1.84375,12.25
506,1727265545556,-0.8730469,0.11035156,0.13867188,41.65625,-8.125,21.46875
507,1727265545588,-0.8388672,0.14257812,0.11035156,39.09375,-8.0,26.40625
508,1727265545645,-0.78222656,0.19140625,0.10546875,46.5625,0.21875,31.0
509,1727265545682,-0.8769531,0.091796875,0.15625,30.75,2.5625,44.28125
510,1727265545710,-0.94433594,-0.16601562,0.11328125,27.15625,-2.21875,38.1875
511,1727265545740,-0.9560547,-0.2919922,0.08496094,17.5625,27.15625,18.40625
512,1727265545765,-0.8457031,-0.103515625,0.045898438,-41.21875,34.15625,-17.34375
513,1727265545829,-0.91503906,0.15136719,0.24316406,-9.46875,60.15625,-24.0625
514,1727265545856,-1.1269531,0.15429688,0.55859375,-11.125,33.375,-4.28125
515,1727265545916,-0.94628906,0.21972656,0.15332031,30.4375,-12.03125,5.21875
516,1727265545946,-1.0888672,0.3623047,-0.19726562,-39.1875,-11.78125,2.3125
517,1727265546005,-1.3730469,-0.048828125,-0.19335938,-35.65625,7.84375,1.875
518,1727265546040,-2.0,-0.3046875,0.3828125,-213.21875,96.1875,-28.40625
519,1727265546066,-0.83984375,0.37597656,-0.24414062,40.375,-32.25,-17.46875
520,1727265546097,-1.0898438,0.2841797,-0.2626953,147.4375,-26.03125,9.6875
521,1727265546126,-1.1933594,-0.0703125,-0.09667969,108.125,40.21875,25.5625
522,1727265546158,-0.9238281,0.15527344,0.13574219,-10.34375,22.3125,2.0
523,1727265546186,-0.8496094,0.13085938,-0.01953125,62.1875,-5.75,17.4375
524,1727265546216,-1.0332031,0.10449219,-0.12988281,27.6875,15.71875,16.84375
525,1727265546246,-0.94433594,0.06640625,-0.09472656,-48.71875,38.625,5.0
526,1727265546307,-0.9296875,0.099609375,0.2421875,-64.28125,47.03125,2.125
527,1727265546337,-1.0332031,0.13378906,-0.033203125,16.28125,-7.09375,13.71875
528,1727265546371,-0.9980469,0.0390625,-0.17382812,17.5,-12.46875,15.0
529,1727265546430,-1.0205078,0.095703125,-0.08300781,24.875,4.3125,11.40625
530,1727265546455,-1.0371094,0.20214844,-0.06738281,-17.03125,5.59375,9.375
531,1727265546516,-0.8203125,0.07421875,-0.015625,-15.875,1.28125,13.96875
532,1727265546552,-1.0126953,0.061523438,0.119140625,-49.625,5.71875,-0.6875
533,1727265546576,-1.0117188,0.18261719,-0.14257812,-25.03125,-7.65625,12.25
534,1727265546606,-0.71875,-0.19824219,0.068359375,2.59375,-7.34375,21.03125
535,1727265546666,-0.5644531,0.1015625,0.3173828,-86.4375,-31.5,-10.75
536,1727265546695,-0.66503906,0.10644531,-0.23730469,140.1875,-71.84375,42.28125
537,1727265546725,-0.9013672,-0.20019531,-0.20019531,91.78125,-8.5625,32.15625
538,1727265546786,-1.640625,-0.39160156,0.028320312,-123.5625,34.46875,-71.5625
539,1727265546816,-2.0,0.30078125,0.77734375,-330.71875,-4.84375,-134.53125
540,1727265546846,-1.6855469,0.95996094,0.13085938,135.53125,-96.03125,-71.90625
541,1727265546966,-1.2460938,0.2841797,-0.26757812,50.21875,-89.8125,-10.5625
542,1727265547030,-1.0009766,-0.059570312,-0.13183594,-68.375,-10.28125,-35.40625
543,1727265547056,-0.92285156,0.19042969,0.25976562,-27.59375,-6.0,-23.09375
544,1727265547086,-0.7011719,0.22363281,0.08886719,65.96875,-23.6875,-5.03125
545,1727265547116,-0.6386719,0.32226562,0.10839844,63.53125,-17.78125,8.90625
546,1727265547152,-0.81152344,0.3544922,0.14648438,64.0625,-4.46875,26.40625
547,1727265547176,-0.8466797,0.17089844,0.0625,27.5625,7.625,33.625
548,1727265547211,-1.0009766,0.107421875,0.19628906,-30.40625,31.25,26.15625
549,1727265547236,-1.0957031,-0.04296875,0.21484375,-26.9375,25.4375,15.0
550,1727265547266,-0.9794922,-0.06640625,0.13378906,6.5625,2.0,16.65625
551,1727265547301,-0.8730469,-0.099609375,0.06542969,2.1875,-10.28125,6.9375
552,1727265547327,-0.88671875,0.033203125,0.12695312,23.46875,19.5625,3.71875
553,1727265547386,-0.828125,0.021484375,0.16015625,14.21875,19.09375,5.0
554,1727265547416,-0.7792969,-0.043945312,0.10253906,7.90625,13.03125,4.875
555,1727265547446,-0.91796875,-0.12695312,0.026367188,28.5,14.28125,8.03125
556,1727265547506,-0.87597656,0.14453125,0.099609375,25.1875,40.21875,-4.46875
557,1727265547536,-0.84277344,0.34960938,0.41601562,-18.6875,61.4375,-3.5
558,1727265547600,-1.2441406,0.060546875,0.2705078,3.21875,8.84375,17.5
559,1727265547626,-1.1640625,0.041015625,-0.43945312,-80.46875,-19.1875,-33.34375
560,1727265547686,-1.1884766,0.2783203,0.45214844,-82.65625,116.6875,-31.25
561,1727265547716,-1.7392578,0.0078125,0.009765625,-119.875,-1.96875,-15.21875
562,1727265547751,-1.0537109,0.14160156,-0.20996094,5.46875,-26.8125,-18.75
563,1727265547776,-1.1884766,0.22949219,-0.3720703,155.8125,-47.0625,22.875
564,1727265547836,-1.0390625,0.0703125,-0.11328125,97.6875,18.125,24.71875
565,1727265547896,-0.91015625,0.31152344,0.091796875,23.0625,24.75,11.71875
566,1727265547926,-0.8535156,0.19433594,0.0146484375,40.9375,-0.8125,15.5
567,1727265547961,-0.9355469,0.12792969,-0.2265625,13.96875,5.65625,11.8125
568,1727265548022,-0.99609375,0.14355469,-0.18847656,-43.65625,49.25,10.0625
569,1727265548046,-1.0517578,0.051757812,0.4404297,-58.59375,75.0,18.34375
570,1727265548076,-1.0351562,0.021484375,-0.12011719,34.09375,-31.4375,24.9375
571,1727265548107,-0.9609375,-0.06640625,-0.14746094,25.875,5.21875,15.3125
572,1727265548166,-1.0224609,0.11035156,-0.078125,0.96875,15.4375,6.5625
573,1727265548200,-0.8623047,0.11328125,0.015625,-8.0,3.84375,8.59375
574,1727265548285,-0.9189453,0.20019531,0.0048828125,-9.53125,-11.125,4.75
575,1727265548402,-1.0009766,0.10644531,-0.09375,-18.875,-0.9375,10.71875
576,1727265548405,-0.84765625,-0.09277344,0.07421875,-85.40625,-6.71875,-4.15625
577,1727265548466,-0.7128906,-0.00390625,0.05859375,-21.4375,-20.59375,0.53125
578,1727265548527,-0.6845703,-0.043945312,0.049804688,-37.625,-33.875,0.0
579,1727265548555,-0.8408203,-0.3388672,0.18261719,-1.53125,-35.21875,-15.28125
580,1727265548586,-1.4736328,-0.033203125,0.20898438,-90.78125,-34.875,-85.34375
581,1727265548616,-1.6240234,0.296875,0.23925781,-27.0,-93.8125,-88.46875
582,1727265548646,-1.7011719,0.63964844,-0.06542969,40.75,-94.5,-44.28125
583,1727265548675,-1.4091797,0.20019531,0.20507812,-48.21875,-28.875,-36.34375
584,1727265548711,-1.2792969,0.33007812,0.038085938,-30.96875,-9.15625,-28.09375
585,1727265548774,-0.9785156,-0.018554688,0.17773438,-52.5,19.46875,-7.9375
586,1727265548795,-0.76171875,0.0087890625,0.123046875,27.5625,-13.4375,1.4375
587,1727265548826,-0.66503906,0.18457031,0.12597656,71.875,-21.6875,14.28125
588,1727265548856,-0.64160156,0.35058594,0.115234375,77.5,-8.0625,18.21875
589,1727265548887,-0.7060547,0.17675781,0.1015625,26.46875,31.34375,32.9375
590,1727265548916,-0.9433594,0.005859375,0.20703125,-27.0,28.1875,33.0
591,1727265548976,-1.0810547,-0.08203125,0.18652344,28.625,4.25,34.90625
592,1727265549036,-1.09375,-0.17089844,0.25878906,17.0,17.75,28.78125
593,1727265549066,-0.9140625,-0.14453125,0.29296875,43.9375,-8.5625,20.0625
594,1727265549095,-0.8964844,-0.08984375,0.22070312,42.34375,-0.9375,10.46875
595,1727265549130,-0.86328125,0.057617188,0.23046875,19.21875,8.90625,0.78125
596,1727265549156,-0.80566406,0.08203125,0.20507812,16.34375,5.34375,3.90625
597,1727265549185,-0.7060547,0.055664062,0.0068359375,5.0625,4.75,-3.125
598,1727265549220,-0.83203125,0.01953125,0.17382812,-36.875,54.0,-8.0625
599,1727265549246,-0.9423828,-0.0146484375,0.45410156,-53.0625,60.34375,-6.3125
600,1727265549279,-1.0,-0.10253906,-0.19628906,-76.84375,-23.09375,-32.5625
601,1727265549366,-1.6113281,0.4326172,-0.40527344,37.28125,58.53125,-44.9375
602,1727265549398,-1.71875,0.19433594,0.5283203,-330.75,5.46875,-56.59375
603,1727265549428,-0.92578125,0.48046875,-0.46679688,101.0625,-101.28125,1.875
604,1727265549486,-1.1474609,0.06738281,-0.49609375,158.0,-35.15625,32.34375
605,1727265549546,-1.2998047,-0.16601562,-0.119140625,114.59375,48.15625,19.625
606,1727265549611,-1.0488281,0.32910156,0.15917969,-55.5,18.71875,-10.28125
607,1727265549640,-0.9423828,0.11328125,-0.10253906,88.71875,-11.375,26.84375
608,1727265549669,-0.921875,0.06542969,-0.055664062,24.46875,23.0,17.5
609,1727265549696,-0.99609375,0.15429688,0.055664062,14.28125,26.0,18.125
610,1727265549731,-0.93847656,0.07714844,-0.0029296875,-6.71875,11.21875,18.34375
611,1727265549756,-0.9746094,0.0078125,0.057617188,-1.125,17.25,23.65625
612,1727265549787,-1.0039062,-0.07519531,0.06347656,27.34375,4.9375,20.625
613,1727265549823,-0.8417969,0.053710938,0.0087890625,49.0625,-3.75,8.84375
614,1727265549848,-0.9472656,0.21386719,0.0703125,15.5625,-1.25,12.9375
615,1727265549875,-1.0068359,-0.029296875,0.06542969,-4.90625,0.84375,14.5
616,1727265549906,-0.9355469,0.02734375,0.024414062,3.28125,-4.40625,9.6875
617,1727265549940,-0.83496094,-0.0234375,0.049804688,-26.1875,-1.34375,6.6875
618,1727265549965,-0.8154297,-0.056640625,0.080078125,-41.46875,-12.96875,2.0
619,1727265550030,-0.6816406,-0.02734375,0.043945312,2.90625,-31.3125,0.21875
620,1727265550086,-0.73828125,-0.10839844,-0.0107421875,14.3125,-17.46875,-2.40625
621,1727265550116,-1.5722656,0.0126953125,0.23339844,-37.5,-31.03125,-64.59375
622,1727265550148,-1.4921875,0.31347656,0.11230469,3.59375,-52.3125,-45.0
623,1727265550176,-1.8291016,0.41503906,0.2705078,7.4375,-64.96875,-63.3125
624,1727265550206,-1.5556641,0.49316406,0.13378906,-46.09375,-33.15625,-52.4375
625,1727265550267,-1.0605469,0.26171875,0.12890625,-99.5625,-18.25,-39.875
626,1727265550296,-1.1650391,0.19335938,0.2578125,-26.9375,-25.84375,-12.84375
627,1727265550356,-0.8544922,0.0087890625,0.10839844,18.0,-17.53125,-0.5625
628,1727265550386,-0.75390625,0.08300781,0.078125,40.625,-17.53125,12.0625
629,1727265550417,-0.6464844,0.26171875,0.07714844,50.40625,-7.53125,17.875
630,1727265550446,-0.6777344,0.21582031,0.01953125,40.5,6.5625,28.0
631,1727265550506,-0.9013672,0.14257812,0.10058594,16.34375,35.4375,29.53125
632,1727265550570,-0.9921875,0.09667969,0.27734375,-11.375,21.90625,22.625
633,1727265550596,-1.0019531,-0.078125,0.203125,-26.03125,23.25,16.34375
634,1727265550655,-0.9560547,-0.20410156,0.12109375,6.15625,8.03125,8.03125
635,1727265550686,-0.8925781,0.068359375,0.11035156,-6.65625,6.40625,4.375
636,1727265550716,-0.88378906,0.030273438,0.39746094,15.5,25.4375,17.4375
637,1727265550753,-0.87402344,-0.080078125,0.25390625,22.8125,8.46875,20.0625
638,1727265550780,-0.8183594,-0.026367188,0.087890625,38.4375,13.15625,12.0625
639,1727265550809,-0.8300781,0.038085938,0.078125,21.78125,24.46875,-3.5
640,1727265550902,-0.9248047,-0.1328125,0.16113281,-47.9375,54.1875,-12.40625
641,1727265550926,-1.0419922,-0.05078125,0.016601562,-77.71875,43.3125,-30.34375
642,1727265550960,-1.2431641,0.22558594,0.12695312,-114.6875,29.09375,-48.59375
643,1727265550986,-1.2724609,0.32910156,0.05859375,-11.125,49.59375,-2.15625
644,1727265551050,-1.9736328,-0.099609375,0.45703125,-187.09375,2.65625,-16.4375
645,1727265551077,-1.1630859,0.7763672,-0.07421875,76.09375,-87.53125,-28.59375
646,1727265551106,-1.1552734,0.099609375,-0.5595703,208.90625,-56.46875,38.125
647,1727265551136,-1.0097656,-0.10449219,-0.15722656,157.03125,11.28125,27.5
648,1727265551166,-1.0527344,0.09082031,-0.041015625,29.40625,21.34375,-1.59375
649,1727265551226,-0.9248047,0.2109375,-0.017578125,-27.40625,32.34375,10.1875
650,1727265551257,-0.8955078,0.12109375,-0.041992188,5.34375,24.28125,17.875
651,1727265551286,-1.0351562,0.078125,-0.083984375,-0.4375,30.0,6.6875
652,1727265551346,-0.91796875,0.16113281,0.12109375,-62.21875,29.59375,-0.875
653,1727265551380,-0.9082031,0.15820312,0.052734375,1.75,-11.25,14.375
654,1727265551405,-1.1044922,0.064453125,-0.1875,51.8125,-15.59375,20.125
655,1727265551466,-0.95703125,0.03125,-0.12988281,23.65625,1.6875,14.875
656,1727265551496,-0.8701172,0.21289062,0.037109375,-21.8125,12.9375,14.3125
657,1727265551556,-1.1865234,0.07421875,-0.017578125,-0.0625,4.3125,17.75
658,1727265551586,-0.88378906,-0.08300781,-0.11230469,-14.1875,5.71875,15.0625
659,1727265551616,-0.5107422,0.047851562,-0.020507812,5.90625,4.9375,12.375
660,1727265551646,-1.1337891,-0.10644531,0.041992188,-27.65625,25.8125,3.59375
661,1727265551706,-0.7597656,-0.1640625,0.111328125,-44.09375,-8.875,-9.28125
662,1727265551736,-0.6074219,0.13574219,0.4296875,-61.1875,-53.59375,-28.6875
663,1727265551766,-0.8378906,0.4140625,-0.234375,104.71875,-84.4375,-6.0625
664,1727265551826,-1.8183594,-0.63378906,0.06738281,-29.4375,-5.21875,-49.46875
665,1727265551886,-1.9042969,0.21191406,0.7841797,-320.6875,-0.5625,-141.75
666,1727265551916,-2.0,0.7832031,-0.13378906,93.90625,-131.0625,-86.1875
667,1727265551946,-1.1679688,0.06640625,-0.07128906,-30.90625,-30.21875,-39.9375
668,1727265551977,-0.88671875,0.119140625,0.17089844,-41.75,23.3125,-13.4375
669,1727265552006,-0.7060547,-0.0087890625,0.0146484375,44.34375,-5.03125,2.375
670,1727265552096,-0.50390625,0.15234375,0.068359375,105.5,-27.34375,27.28125
671,1727265552126,-0.61621094,0.3095703,0.018554688,115.875,-9.15625,40.625
672,1727265552156,-0.9169922,0.30078125,0.072265625,76.71875,26.46875,49.3125
673,1727265552187,-1.1289062,0.21191406,0.3154297,59.375,-5.75,42.15625
674,1727265552215,-1.3447266,-0.22265625,0.28710938,17.625,17.0625,31.46875
675,1727265552246,-1.0791016,-0.03125,0.23242188,-95.84375,29.46875,-14.25
676,1727265552306,-0.9140625,0.029296875,0.3955078,-74.46875,38.9375,-16.0
677,1727265552336,-1.0371094,-0.2890625,0.234375,-68.1875,-8.1875,-15.6875
678,1727265552401,-0.9472656,-0.21679688,0.0048828125,-8.3125,2.5,-25.34375
679,1727265552426,-0.7451172,0.040039062,0.03125,11.59375,5.59375,-11.0
680,1727265552456,-0.7294922,0.20507812,0.09082031,26.34375,6.21875,17.0625
681,1727265552486,-0.8046875,0.015625,0.1796875,26.0,17.1875,32.21875
682,1727265552546,-0.69921875,0.08300781,0.14355469,32.09375,5.59375,21.90625
683,1727265552577,-0.82421875,0.12890625,0.20117188,-2.875,19.5625,14.5
684,1727265552636,-0.875,-0.038085938,0.115234375,-3.5,0.21875,20.125
685,1727265552726,-0.78222656,0.080078125,0.3251953,-8.5,2.78125,15.3125
686,1727265552757,-1.1542969,-0.15722656,0.06542969,-29.375,-7.875,6.8125
687,1727265552786,-1.8808594,0.12011719,-0.48046875,13.21875,-5.21875,-33.03125
688,1727265552905,-1.8779297,-0.021484375,0.9433594,-408.09375,89.21875,-71.625
689,1727265552936,-0.9824219,0.4375,-0.50390625,113.875,-77.28125,0.21875
690,1727265552965,-1.1035156,0.15234375,-0.33984375,189.3125,-30.71875,31.59375
691,1727265552996,-1.2705078,0.0029296875,-0.12988281,106.0,23.96875,16.53125
692,1727265553026,-0.96972656,0.25976562,0.27734375,-1.40625,40.03125,-4.15625
693,1727265553056,-0.7988281,0.107421875,-0.08691406,56.375,-12.15625,16.34375
694,1727265553090,-0.8535156,0.14941406,-0.07714844,27.625,20.3125,13.15625
695,1727265553117,-0.91308594,0.14746094,0.0,-1.84375,32.21875,10.375
696,1727265553176,-1.0351562,0.07421875,-0.046875,-14.65625,24.8125,14.3125
697,1727265553236,-1.0,-0.030273438,0.024414062,-9.65625,26.53125,18.1875
698,1727265553297,-1.125,0.07128906,0.17089844,-1.84375,21.09375,7.5
699,1727265553326,-0.8535156,0.14550781,-0.1328125,45.15625,-17.53125,15.0625
700,1727265553357,-1.0419922,-0.022460938,0.009765625,-0.375,2.59375,12.625
701,1727265553386,-0.9902344,0.036132812,-0.024414062,-36.5,1.28125,1.5
702,1727265553419,-0.8203125,0.13964844,-0.06640625,10.65625,-13.375,0.78125
703,1727265553476,-0.9736328,0.16992188,0.0029296875,-16.5625,-1.71875,6.15625
704,1727265553507,-0.86035156,-0.13476562,0.18554688,-61.0,-11.0625,6.21875
705,1727265553536,-0.69628906,0.13183594,0.10449219,-48.46875,-28.21875,-2.875
706,1727265553566,-0.7919922,-0.21582031,0.11425781,-26.625,-39.125,14.625
707,1727265553660,-1.03125,0.043945312,0.21582031,-73.1875,-52.5625,-40.25
708,1727265553688,-1.5966797,-0.28222656,-0.078125,-27.84375,-103.59375,-63.25
709,1727265553716,-1.7490234,0.17285156,0.34960938,-104.625,-80.03125,-123.5625
710,1727265553747,-1.8115234,0.7705078,-0.057617188,62.0625,-80.03125,-76.96875
711,1727265553836,-1.1669922,0.16210938,0.21582031,-19.53125,-1.59375,-30.96875
712,1727265553866,-0.79785156,0.16308594,0.06347656,18.21875,-7.03125,-18.8125
713,1727265553896,-0.7890625,0.095703125,0.14453125,42.28125,4.0,10.375
714,1727265553927,-0.74121094,0.22558594,0.060546875,86.09375,7.5625,30.75
715,1727265553956,-0.7294922,0.29882812,0.10839844,68.09375,34.53125,33.5625
716,1727265553986,-0.84375,0.099609375,0.072265625,64.125,31.84375,40.5625
717,1727265554018,-1.0634766,0.10839844,0.3017578,28.625,35.625,17.375
718,1727265554046,-1.1835938,-0.044921875,0.3828125,5.78125,21.28125,14.625
719,1727265554081,-1.0146484,0.005859375,0.18847656,-14.78125,-2.625,0.65625
720,1727265554105,-0.8701172,0.16113281,0.26660156,-8.0,5.0,3.59375
721,1727265554136,-0.86621094,-0.09863281,0.22753906,-15.03125,5.40625,11.15625
722,1727265554171,-0.8701172,-0.14941406,0.14160156,9.6875,4.375,8.46875
723,1727265554202,-0.8125,-0.060546875,0.040039062,11.03125,10.84375,3.90625
724,1727265554226,-0.7402344,-0.18164062,0.022460938,-2.9375,19.40625,4.0625
725,1727265554257,-0.8203125,0.056640625,-0.064453125,19.21875,21.59375,-13.1875
726,1727265554315,-0.8564453,0.44726562,0.6015625,-44.5,132.90625,-11.375
727,1727265554346,-1.0087891,0.21777344,0.4013672,38.25,-28.8125,33.375
728,1727265554376,-1.6210938,-0.0029296875,-0.038085938,-11.5,29.53125,16.9375
729,1727265554406,-1.2617188,0.18554688,-0.42871094,-83.8125,2.59375,-32.3125
730,1727265554465,-1.6972656,-0.43652344,0.4453125,-275.65625,71.28125,-42.25
731,1727265554496,-0.9472656,0.11230469,-0.14746094,73.53125,-56.59375,-30.65625
732,1727265554526,-1.2363281,0.2998047,-0.2685547,122.90625,-16.75,2.5
733,1727265554590,-1.0429688,0.2705078,-0.06347656,86.03125,17.375,8.59375
734,1727265554617,-1.0146484,0.18261719,0.03125,51.75,17.0625,14.5
735,1727265554646,-0.9980469,0.09277344,-0.08496094,24.9375,4.9375,15.71875
736,1727265554705,-0.9824219,0.072265625,-0.099609375,34.78125,19.75,20.0625
737,1727265554740,-0.89746094,0.06738281,-0.08984375,-27.40625,39.0625,14.5
738,1727265554825,-1.0390625,0.06640625,0.11035156,-49.40625,46.25,20.0
739,1727265554860,-1.0302734,-0.040039062,0.09277344,-13.9375,10.65625,22.9375
740,1727265554886,-1.0009766,-0.009765625,-0.087890625,13.53125,-4.78125,16.15625
741,1727265554916,-1.0917969,0.032226562,-0.16113281,34.03125,0.71875,17.875
742,1727265554948,-1.0009766,0.13574219,-0.022460938,15.0625,7.6875,12.0625
743,1727265554978,-0.9355469,0.13769531,-0.05859375,20.25,-2.625,8.21875
744,1727265555036,-0.9121094,0.13671875,-0.029296875,-4.78125,7.75,0.40625
745,1727265555069,-0.8066406,0.16210938,-0.038085938,-3.6875,6.75,0.96875
746,1727265555127,-0.7832031,-0.0078125,0.13671875,-42.0625,6.75,1.03125
747,1727265555157,-0.9169922,-0.021484375,-0.06933594,-18.03125,-9.28125,12.5
748,1727265555186,-0.5732422,-0.25097656,0.15234375,-51.09375,-27.25,1.4375
749,1727265555220,-1.0019531,0.22753906,-0.111328125,1.28125,-25.40625,4.875
750,1727265555245,-0.82910156,-0.70996094,0.18652344,-49.625,-14.78125,6.03125
751,1727265555306,-1.4560547,0.3720703,0.11230469,-39.625,-35.15625,-71.1875
752,1727265555341,-1.7744141,0.028320312,-0.047851562,95.5,-99.1875,-55.25
753,1727265555395,-1.8251953,0.54003906,0.22753906,20.90625,-87.78125,-85.46875
754,1727265555426,-1.3271484,0.5888672,-0.02734375,36.59375,-61.96875,-40.96875
755,1727265555460,-1.0703125,0.28515625,0.037109375,-48.71875,-53.125,-24.1875
756,1727265555489,-1.0712891,0.107421875,0.16796875,-31.09375,-27.1875,-3.125
757,1727265555554,-0.73828125,0.05078125,0.11425781,35.875,-23.5,8.59375
758,1727265555577,-0.609375,0.1796875,-0.018554688,77.6875,-10.21875,24.59375
759,1727265555636,-0.7089844,0.22460938,-0.0029296875,78.21875,26.15625,25.75
760,1727265555666,-0.81933594,0.26660156,0.072265625,61.375,55.40625,22.6875
761,1727265555696,-0.9863281,0.234375,0.3720703,-5.3125,44.0,13.65625
762,1727265555756,-1.1445312,0.053710938,0.35839844,10.0625,6.875,20.0
763,1727265555786,-1.1386719,0.049804688,0.32910156,15.125,-2.40625,20.5625
764,1727265555816,-0.8808594,0.017578125,0.19042969,-15.34375,-11.25,15.0
765,1727265555881,-0.8720703,-0.06933594,0.09082031,-33.59375,0.15625,1.15625
766,1727265555906,-0.81933594,-0.020507812,0.19433594,-4.96875,1.625,-5.8125
767,1727265555937,-0.8251953,-0.0078125,0.13574219,-3.0,17.5625,-0.125
768,1727265555999,-0.8564453,-0.038085938,0.26367188,-32.96875,68.78125,1.09375
