,Unnamed: 0,timestamp,accel_x,accel_y,accel_z,gyro_x,gyro_y,gyro_z
0,0,1727174712775,-0.8779297,-0.091796875,0.30859375,-11.6875,29.28125,-4.71875
1,1,1727174712815,-1.0595703,0.08984375,0.21386719,-3.53125,18.0625,-5.09375
2,2,1727174712855,-1.4824219,0.08105469,0.07128906,-9.25,36.375,-5.34375
3,3,1727174712895,-1.2871094,-0.22558594,0.265625,-26.09375,-7.375,-14.625
4,4,1727174712935,-1.6640625,-0.08984375,0.55859375,-98.0,-10.8125,-52.09375
5,5,1727174712975,-0.73046875,0.14160156,-0.27246094,-7.0,-30.09375,-30.78125
6,6,1727174713015,-0.92871094,-0.029296875,-0.20800781,59.53125,-11.125,14.0
7,7,1727174713055,-1.2470703,-0.43847656,-0.08886719,62.8125,6.21875,1.1875
8,8,1727174713095,-1.0859375,0.16308594,0.00390625,-31.40625,35.9375,-2.09375
9,9,1727174713135,-1.1289062,0.14257812,0.06738281,37.9375,28.0625,23.03125
10,10,1727174713175,-0.9970703,0.140625,-0.072265625,43.46875,24.34375,28.21875
11,11,1727174713215,-0.93359375,-0.1953125,-0.12402344,13.8125,34.53125,28.0625
12,12,1727174713255,-0.9248047,-0.06933594,-0.04296875,30.90625,34.1875,15.59375
13,13,1727174713295,-0.94433594,0.1328125,0.14355469,18.8125,24.65625,9.4375
14,14,1727174713335,-0.9589844,0.036132812,-0.0009765625,45.0,13.78125,10.46875
15,15,1727174713375,-0.98339844,-0.0859375,-0.123046875,47.25,6.59375,11.9375
16,16,1727174713415,-0.96875,-0.07910156,-0.109375,41.71875,11.46875,7.90625
17,17,1727174713455,-0.9003906,0.041015625,0.0146484375,0.5625,10.0,0.03125
18,18,1727174713495,-0.9189453,0.026367188,-0.018554688,0.9375,-2.09375,-0.4375
19,19,1727174713535,-0.8408203,-0.057617188,0.045898438,-25.90625,-16.53125,-7.71875
20,20,1727174713575,-0.79296875,-0.033203125,0.31152344,-59.3125,-35.34375,-22.1875
21,21,1727174713615,-0.88183594,0.044921875,-0.41015625,40.5,-83.125,-26.40625
22,22,1727174713655,-0.8154297,-0.083984375,-0.14746094,-35.625,-34.625,-12.53125
23,23,1727174713695,-0.79589844,-0.24414062,0.052734375,-73.78125,-11.53125,-20.59375
24,24,1727174713735,-0.8769531,0.017578125,-0.04296875,-97.9375,3.96875,-27.0
25,25,1727174713775,-0.70703125,-0.11328125,0.12890625,-73.15625,-26.8125,-30.0625
26,26,1727174713815,-0.89160156,-0.16113281,0.029296875,-4.8125,-17.59375,-24.375
27,27,1727174713855,-0.81933594,-0.3486328,-0.0087890625,27.4375,-34.90625,-18.8125
28,28,1727174713895,-1.2685547,-0.049804688,-0.07421875,33.96875,-38.09375,-36.9375
29,29,1727174713935,-1.7441406,-0.3544922,0.2861328,-56.25,-27.28125,-47.28125
30,30,1727174713975,-1.2734375,0.0068359375,0.4921875,-49.65625,-35.65625,-68.9375
31,31,1727174714015,-0.9296875,0.21777344,0.14257812,-18.65625,-33.28125,-39.6875
32,32,1727174714055,-0.9589844,-0.27734375,0.11425781,2.78125,-9.15625,6.125
33,33,1727174714095,-1.1435547,-0.40429688,0.26757812,-13.15625,-1.96875,9.875
34,34,1727174714135,-0.953125,-0.12109375,0.32128906,22.84375,-5.25,24.625
35,35,1727174714175,-1.0351562,-0.21191406,0.20507812,25.40625,-2.6875,25.5625
36,36,1727174714215,-1.0,-0.25683594,0.2783203,-11.03125,5.125,10.96875
37,37,1727174714255,-0.99609375,-0.27441406,0.36132812,-10.65625,-3.53125,-2.71875
38,38,1727174714295,-0.984375,-0.27441406,0.22558594,3.125,-14.09375,-11.375
39,39,1727174714335,-1.0361328,-0.35058594,0.21972656,-12.3125,-16.71875,-24.1875
40,40,1727174714375,-0.8652344,-0.08886719,0.22851562,-27.875,-11.0625,-32.5625
41,41,1727174714415,-0.7392578,-0.08691406,0.18847656,-6.15625,-8.65625,-13.875
42,42,1727174714455,-0.83496094,-0.17285156,0.16113281,-4.9375,-11.0625,-2.28125
43,43,1727174714495,-0.8232422,-0.19726562,0.17871094,-0.46875,-7.21875,3.40625
44,44,1727174714535,-0.76171875,-0.057617188,0.14453125,10.8125,-2.125,6.625
45,45,1727174714575,-0.7626953,-0.0234375,0.19628906,-2.90625,9.15625,15.96875
46,46,1727174714615,-0.74609375,-0.16503906,0.12207031,-4.8125,24.15625,27.3125
47,47,1727174714655,-0.76660156,-0.14453125,0.17089844,-12.125,23.0625,31.40625
48,48,1727174714695,-0.6923828,-0.103515625,0.13378906,17.125,25.5625,37.15625
49,49,1727174714735,-0.61328125,-0.17773438,0.08496094,43.96875,20.75,42.28125
50,50,1727174714775,-0.7871094,-0.17675781,0.17578125,70.40625,24.09375,44.78125
51,51,1727174714815,-0.8652344,0.06542969,0.15625,48.1875,35.8125,35.1875
52,52,1727174714855,-1.0107422,-0.10253906,0.24511719,68.9375,18.84375,41.40625
53,53,1727174714895,-0.9609375,-0.22949219,0.33789062,-5.15625,33.1875,28.0
54,54,1727174714935,-1.0654297,-0.28125,0.07128906,-6.5625,27.9375,11.8125
55,55,1727174714975,-1.0253906,0.055664062,0.3515625,5.40625,51.375,7.53125
56,56,1727174715015,-1.0683594,-0.30859375,0.15917969,-22.3125,16.65625,8.65625
57,57,1727174715055,-1.2783203,0.13867188,0.12597656,-3.53125,27.875,-8.8125
58,58,1727174715095,-1.21875,0.26953125,0.3173828,-67.78125,-4.46875,-22.25
59,59,1727174715135,-1.6328125,-0.4013672,0.39648438,-130.84375,-16.90625,-45.375
60,60,1727174715175,-0.7402344,0.3017578,-0.022460938,14.375,-26.0,-17.3125
61,61,1727174715215,-1.1191406,-0.20703125,-0.3203125,64.96875,-17.65625,14.3125
62,62,1727174715255,-1.0478516,-0.33984375,-0.10644531,69.71875,10.75,12.375
63,63,1727174715295,-1.0654297,-0.05078125,-0.12011719,65.15625,1.53125,-1.90625
64,64,1727174715335,-1.0371094,0.21386719,0.015625,12.59375,15.75,2.59375
65,65,1727174715375,-0.9863281,0.009765625,-0.03515625,18.875,20.125,12.4375
66,66,1727174715415,-0.9277344,-0.0859375,-0.046875,18.28125,21.90625,14.4375
67,67,1727174715455,-0.9873047,-0.017578125,0.078125,1.96875,22.03125,10.59375
68,68,1727174715495,-0.9667969,-0.017578125,0.02734375,13.8125,17.03125,12.375
69,69,1727174715535,-0.9482422,-0.052734375,-0.022460938,15.34375,14.40625,11.9375
70,70,1727174715575,-0.9628906,-0.09472656,-0.05078125,27.25,14.59375,13.28125
71,71,1727174715615,-0.9160156,-0.0859375,0.0087890625,24.8125,6.40625,7.78125
72,72,1727174715655,-0.8574219,-0.08105469,0.08105469,16.0625,-3.1875,-3.375
73,73,1727174715695,-0.86328125,-0.053710938,0.060546875,-11.34375,-17.09375,-17.25
74,74,1727174715735,-0.8671875,-0.09765625,0.123046875,-23.53125,-34.6875,-22.375
75,75,1727174715775,-0.79589844,-0.044921875,0.087890625,-32.875,-38.59375,-31.65625
76,76,1727174715815,-0.8251953,0.01953125,-0.046875,-31.28125,-30.53125,-20.09375
77,77,1727174715855,-0.8339844,-0.17773438,-0.06640625,-38.96875,-21.90625,-13.03125
78,78,1727174715895,-0.97265625,-0.28222656,0.013671875,-35.3125,-17.59375,-24.6875
79,79,1727174715935,-0.8779297,0.03515625,0.056640625,-30.875,-13.75,-18.8125
80,80,1727174715975,-0.8359375,-0.16503906,0.028320312,-12.78125,-25.28125,-16.5
81,81,1727174716015,-0.8564453,-0.2939453,-0.030273438,-6.09375,-20.09375,-13.40625
82,82,1727174716055,-0.7714844,-0.2783203,0.10253906,1.53125,-33.15625,-20.53125
83,83,1727174716095,-1.0849609,-0.27441406,-0.06347656,19.0,-28.1875,-18.03125
84,84,1727174716135,-1.3183594,-0.234375,0.18261719,33.03125,-28.875,-41.90625
85,85,1727174716175,-1.2685547,-0.1484375,0.28515625,-16.75,-20.8125,-41.28125
86,86,1727174716215,-1.1025391,-0.0625,0.28808594,9.0625,-32.40625,-43.65625
87,87,1727174716255,-1.53125,-0.38867188,0.30566406,-18.21875,-21.84375,-55.1875
88,88,1727174716295,-0.9785156,0.001953125,0.29101562,-12.4375,-2.5625,-38.46875
89,89,1727174716335,-1.1152344,-0.27441406,0.21972656,-16.03125,-3.0,-16.125
90,90,1727174716375,-1.0527344,-0.28320312,0.3046875,6.90625,-5.1875,-6.9375
91,91,1727174716415,-0.86621094,-0.047851562,0.2109375,31.46875,-4.46875,4.84375
92,92,1727174716455,-0.8046875,-0.06738281,0.26464844,6.90625,-8.125,5.09375
93,93,1727174716495,-0.7988281,-0.18945312,0.22558594,-5.53125,-5.5,9.75
94,94,1727174716535,-0.77246094,-0.16601562,0.17675781,0.375,-0.0625,11.8125
95,95,1727174716575,-0.7890625,-0.15527344,0.2265625,-6.9375,4.34375,14.0625
96,96,1727174716615,-0.8154297,-0.171875,0.23242188,-21.65625,8.34375,16.5625
97,97,1727174716655,-0.81640625,-0.21582031,0.22265625,-18.21875,5.96875,24.625
98,98,1727174716695,-0.81933594,-0.2109375,0.21191406,-9.125,9.40625,32.25
99,99,1727174716735,-0.80371094,-0.18554688,0.16992188,-4.875,14.53125,38.625
100,100,1727174716775,-0.7636719,-0.20214844,0.16113281,11.375,13.5,41.65625
101,101,1727174716815,-0.73828125,-0.16308594,0.091796875,51.59375,20.25,39.78125
102,102,1727174716855,-0.7861328,-0.045898438,0.21484375,55.375,31.90625,38.78125
103,103,1727174716895,-0.8808594,0.0146484375,0.043945312,14.5,28.875,32.875
104,104,1727174716935,-0.9140625,-0.30078125,0.2109375,-8.46875,19.65625,40.6875
105,105,1727174716975,-0.859375,-0.38671875,0.20703125,-1.6875,23.25,23.78125
106,106,1727174717015,-0.98339844,-0.18261719,0.16699219,20.96875,32.03125,10.90625
107,107,1727174717055,-0.8798828,0.020507812,0.3955078,3.3125,23.0625,6.9375
108,108,1727174717095,-0.84277344,-0.11621094,-0.032226562,19.84375,6.34375,-0.09375
109,109,1727174717135,-0.9189453,-0.06542969,0.04296875,9.125,34.46875,-1.25
110,110,1727174717175,-1.1542969,-0.29003906,0.3466797,-59.0,26.78125,-6.4375
111,111,1727174717215,-1.1044922,0.13964844,-0.22460938,-3.53125,30.625,-14.125
112,112,1727174717255,-1.6640625,0.2890625,0.73339844,0.15625,18.3125,-7.96875
113,113,1727174717295,-1.1015625,-0.26367188,-0.9082031,120.75,-63.0,-35.5625
114,114,1727174717335,-0.9355469,0.26660156,-0.1328125,-79.8125,-2.25,-16.5625
115,115,1727174717375,-1.2441406,-0.033203125,-0.16699219,152.78125,-9.34375,24.09375
116,116,1727174717415,-1.1572266,-0.0087890625,-0.061523438,43.84375,15.125,25.5
117,117,1727174717455,-0.9453125,-0.0234375,-0.119140625,41.09375,22.9375,18.40625
118,118,1727174717495,-0.92578125,0.10058594,0.08105469,-35.75,45.59375,11.03125
119,119,1727174717535,-0.8730469,-0.12402344,-0.025390625,-49.46875,26.53125,16.09375
120,120,1727174717575,-0.9160156,-0.18359375,0.0146484375,20.53125,28.0625,17.1875
121,121,1727174717615,-0.9951172,-0.17089844,-0.0546875,29.9375,23.0,15.96875
122,122,1727174717655,-0.94140625,-0.0703125,0.076171875,18.09375,20.4375,9.5625
123,123,1727174717695,-0.921875,0.0234375,0.14355469,16.8125,4.21875,-4.0
124,124,1727174717735,-0.8984375,-0.0234375,-0.08300781,19.90625,-9.78125,-3.5
125,125,1727174717775,-0.89746094,-0.19433594,0.0048828125,-16.34375,-7.09375,-5.875
126,126,1727174717815,-0.8466797,-0.1484375,0.08496094,-28.46875,-20.5,-23.34375
127,127,1727174717855,-0.8222656,-0.14550781,0.034179688,-5.09375,-36.5,-27.25
128,128,1727174717895,-0.83984375,0.06542969,-0.001953125,-28.0,-29.1875,-32.0625
129,129,1727174717935,-0.8261719,-0.091796875,-0.07128906,-19.15625,-30.09375,-18.46875
130,130,1727174717975,-0.8798828,-0.107421875,0.026367188,-36.71875,-22.21875,-23.84375
131,131,1727174718015,-0.9091797,-0.025390625,0.059570312,-29.03125,-21.84375,-29.3125
132,132,1727174718055,-0.8955078,-0.053710938,0.044921875,-15.71875,-34.6875,-19.0
133,133,1727174718095,-0.8964844,-0.20019531,-0.0009765625,-47.53125,-19.28125,-17.46875
134,134,1727174718135,-0.9199219,-0.18652344,0.043945312,-25.5,-19.96875,-14.625
135,135,1727174718175,-0.9707031,-0.3857422,0.0068359375,5.03125,-27.59375,-13.5625
136,136,1727174718215,-1.1103516,-0.3720703,0.119140625,-8.84375,-38.75,-32.875
137,137,1727174718255,-1.0761719,-0.30371094,0.24121094,-10.34375,-34.71875,-37.4375
138,138,1727174718295,-1.3007812,-0.3486328,0.2685547,-6.875,-41.6875,-60.03125
139,139,1727174718335,-1.4472656,-0.28515625,0.30664062,-8.40625,-23.1875,-71.875
140,140,1727174718375,-0.85546875,0.051757812,0.27441406,-27.375,-3.3125,-51.0
141,141,1727174718415,-1.1425781,-0.29003906,0.23046875,-27.8125,-11.34375,-23.78125
142,142,1727174718455,-1.0605469,-0.2685547,0.30371094,6.5625,0.96875,-1.4375
143,143,1727174718495,-0.9746094,-0.20898438,0.24804688,24.0,-6.0,8.46875
144,144,1727174718535,-0.90527344,-0.19628906,0.25976562,5.8125,-4.9375,15.1875
145,145,1727174718575,-0.8046875,-0.26367188,0.18847656,3.9375,-1.96875,11.9375
146,146,1727174718615,-0.7548828,-0.23046875,0.20703125,2.40625,1.40625,13.71875
147,147,1727174718655,-0.7705078,-0.28222656,0.24023438,-5.15625,-1.46875,21.21875
148,148,1727174718695,-0.7314453,-0.22851562,0.17382812,11.375,0.84375,26.65625
149,149,1727174718735,-0.78808594,-0.1953125,0.20117188,15.78125,1.21875,32.6875
150,150,1727174718775,-0.8173828,-0.23242188,0.15722656,12.59375,12.4375,34.46875
151,151,1727174718815,-0.85253906,-0.13085938,0.20800781,-1.75,23.96875,36.65625
152,152,1727174718855,-0.83984375,-0.18652344,0.23535156,-4.8125,21.90625,38.71875
153,153,1727174718895,-0.8623047,-0.2705078,0.12402344,10.28125,16.0625,38.90625
154,154,1727174718935,-0.8652344,-0.26660156,0.17480469,48.59375,23.6875,39.65625
155,155,1727174718975,-0.8457031,-0.095703125,0.20214844,50.0625,36.9375,32.3125
156,156,1727174719015,-0.7890625,-0.12890625,0.11035156,52.03125,13.0625,25.78125
157,157,1727174719055,-0.7861328,-0.10449219,0.25,2.15625,16.78125,24.21875
158,158,1727174719095,-0.7871094,-0.11816406,0.1796875,11.0625,13.78125,11.03125
159,159,1727174719135,-0.8183594,-0.052734375,0.14746094,16.125,18.4375,9.8125
160,160,1727174719175,-0.85058594,-0.109375,0.17578125,3.125,13.375,8.65625
161,161,1727174719215,-0.9511719,-0.12109375,0.13964844,11.875,12.03125,2.90625
162,162,1727174719255,-1.0078125,0.0009765625,0.26757812,-3.46875,17.9375,-0.5625
163,163,1727174719295,-1.0029297,-0.19042969,0.24511719,-31.15625,12.625,-1.5
164,164,1727174719335,-1.2783203,-0.029296875,0.17773438,5.8125,30.21875,1.6875
165,165,1727174719375,-1.0634766,0.14941406,0.018554688,-21.28125,3.09375,0.65625
166,166,1727174719415,-1.0996094,0.040039062,0.119140625,15.21875,11.46875,8.09375
167,167,1727174719455,-1.9716797,-0.43652344,0.20800781,-140.53125,19.09375,-31.875
168,168,1727174719495,-0.8876953,0.28808594,0.16015625,40.65625,-25.6875,-18.8125
169,169,1727174719535,-1.1337891,0.11328125,-0.390625,100.96875,-13.84375,23.78125
170,170,1727174719575,-1.0849609,0.07910156,-0.19628906,89.75,51.5,31.84375
171,171,1727174719615,-0.85253906,-0.091796875,-0.1328125,-45.75,30.6875,26.34375
172,172,1727174719655,-0.8925781,-0.034179688,-0.020507812,-68.53125,76.46875,12.65625
173,173,1727174719695,-1.0039062,0.016601562,0.115234375,-34.9375,38.15625,17.3125
174,174,1727174719735,-0.92089844,-0.20117188,-0.11035156,27.0,7.0,23.21875
175,175,1727174719775,-0.9707031,-0.091796875,-0.15234375,27.78125,19.53125,8.28125
176,176,1727174719815,-1.0039062,0.091796875,0.07519531,-0.59375,29.0,4.84375
177,177,1727174719855,-1.0,-0.053710938,-0.044921875,12.40625,-0.96875,7.3125
178,178,1727174719895,-0.95996094,-0.040039062,-0.21386719,34.8125,-5.8125,3.875
179,179,1727174719935,-0.97558594,0.064453125,-0.07910156,3.875,7.125,2.59375
180,180,1727174719975,-0.9765625,-0.021484375,-0.09667969,8.8125,-0.3125,4.1875
181,181,1727174720015,-0.9824219,-0.07714844,-0.028320312,8.4375,-4.75,-0.40625
182,182,1727174720055,-0.92578125,-0.05078125,0.072265625,-5.65625,-17.46875,-7.71875
183,183,1727174720095,-0.8798828,-0.08886719,0.015625,-10.21875,-30.875,-16.03125
184,184,1727174720135,-0.79785156,-0.115234375,0.08203125,-7.78125,-44.8125,-20.40625
185,185,1727174720175,-0.7607422,-0.15136719,0.10253906,-32.75,-88.03125,-44.875
186,186,1727174720215,-0.7314453,0.22949219,-0.375,93.28125,-40.03125,-24.875
187,187,1727174720255,-0.91503906,-0.14453125,0.24707031,-145.84375,-27.03125,-36.875
188,188,1727174720295,-0.8105469,0.109375,-0.1484375,32.0,-29.65625,-23.84375
189,189,1727174720335,-0.9111328,-0.234375,0.12792969,-64.8125,-26.0625,-17.96875
190,190,1727174720375,-1.0234375,-0.18261719,0.06738281,-47.53125,-19.0,-28.71875
191,191,1727174720415,-1.0029297,-0.15234375,0.10546875,-21.71875,-14.46875,-17.59375
192,192,1727174720455,-1.0087891,-0.16113281,-0.048828125,10.9375,-22.59375,-14.5625
193,193,1727174720495,-1.0878906,-0.3466797,0.01171875,8.5,-14.28125,-11.0
194,194,1727174720535,-1.2304688,-0.18359375,0.13183594,-4.1875,-30.78125,-39.15625
195,195,1727174720575,-1.0878906,-0.06347656,0.0625,3.3125,-27.53125,-22.71875
196,196,1727174720615,-1.65625,-0.29492188,0.12988281,-7.5625,-3.125,-24.4375
197,197,1727174720655,-0.9111328,-0.16894531,0.27734375,-0.34375,-8.125,-15.65625
198,198,1727174720695,-0.96191406,-0.17480469,0.32714844,-23.71875,-24.1875,-19.0625
199,199,1727174720735,-1.0615234,-0.20507812,0.34277344,-20.78125,-24.78125,-25.65625
200,200,1727174720775,-1.0712891,-0.19433594,0.28125,-32.6875,-11.90625,-22.59375
201,201,1727174720815,-0.9296875,-0.26660156,0.111328125,-25.25,-16.96875,-17.53125
202,202,1727174720855,-0.9140625,-0.31640625,0.111328125,24.75,-27.96875,-6.8125
203,203,1727174720895,-0.86621094,-0.12792969,0.21191406,21.6875,-11.84375,-2.78125
204,204,1727174720935,-0.8232422,-0.09472656,0.234375,10.875,-11.125,-7.03125
205,205,1727174720975,-0.85839844,-0.1015625,0.30664062,-12.1875,-8.65625,-2.09375
206,206,1727174721015,-0.8847656,-0.26953125,0.17675781,-23.21875,-3.90625,3.9375
207,207,1727174721055,-0.7919922,-0.29492188,0.20703125,-18.96875,0.71875,7.1875
208,208,1727174721095,-0.76171875,-0.27734375,0.17285156,0.6875,3.0,16.5625
209,209,1727174721135,-0.75097656,-0.20019531,0.12890625,14.59375,13.125,24.21875
210,210,1727174721175,-0.78125,-0.11328125,0.13769531,2.15625,27.34375,27.5625
211,211,1727174721215,-0.8027344,-0.14941406,0.1328125,-6.21875,35.8125,34.46875
212,212,1727174721255,-0.7763672,-0.2578125,0.107421875,12.71875,38.9375,40.375
213,213,1727174721295,-0.69628906,-0.27246094,0.051757812,56.1875,43.5,35.75
214,214,1727174721335,-0.68652344,-0.03515625,0.14648438,79.0,44.0,32.625
215,215,1727174721375,-0.8300781,0.10058594,0.26953125,68.0,31.78125,38.90625
216,216,1727174721415,-0.9716797,-0.059570312,0.24511719,73.03125,9.28125,35.625
217,217,1727174721455,-1.0019531,-0.22070312,0.16992188,6.5,17.28125,21.75
218,218,1727174721495,-0.9160156,-0.17675781,0.2109375,-19.3125,18.96875,11.3125
219,219,1727174721535,-0.9941406,-0.14550781,0.12402344,5.4375,13.96875,2.125
220,220,1727174721575,-0.98828125,-0.13476562,0.32128906,-1.875,19.46875,-2.09375
221,221,1727174721615,-1.0361328,-0.13476562,0.3046875,2.28125,12.6875,-2.40625
222,222,1727174721655,-1.0498047,0.10058594,-0.13964844,58.625,0.125,5.21875
223,223,1727174721695,-1.2919922,0.40527344,0.33691406,46.71875,39.0625,5.15625
224,224,1727174721735,-1.1650391,0.0146484375,-0.17675781,-9.875,-4.8125,-1.375
225,225,1727174721775,-1.7412109,-0.26464844,-0.021484375,-17.3125,38.5625,-3.3125
226,226,1727174721815,-0.9824219,-0.055664062,0.13085938,-75.65625,1.15625,-2.09375
227,227,1727174721855,-1.0644531,0.037109375,-0.14257812,95.0,3.96875,21.28125
228,228,1727174721895,-0.9033203,0.07128906,-0.38476562,80.96875,18.3125,10.46875
229,229,1727174721935,-0.8535156,-0.036132812,-0.07519531,-84.625,52.0625,8.09375
230,230,1727174721975,-1.0820312,-0.07421875,0.15722656,-64.75,40.65625,11.5
231,231,1727174722015,-0.96972656,-0.051757812,-0.005859375,41.40625,10.4375,18.59375
232,232,1727174722055,-0.94140625,-0.0703125,-0.10253906,17.65625,7.0,10.53125
233,233,1727174722095,-0.97265625,-0.056640625,-0.11328125,12.84375,6.34375,6.03125
234,234,1727174722135,-0.96972656,-0.0107421875,-0.12792969,11.9375,2.6875,4.0
235,235,1727174722175,-0.9824219,0.043945312,-0.0234375,8.125,4.21875,3.03125
236,236,1727174722215,-0.9501953,-0.017578125,-0.18945312,12.21875,0.71875,3.5625
237,237,1727174722255,-0.9638672,-0.03125,-0.048828125,0.21875,5.90625,-0.34375
238,238,1727174722295,-0.9589844,0.024414062,-0.013671875,8.4375,-3.0,-3.8125
239,239,1727174722335,-0.9453125,0.009765625,0.051757812,-5.71875,-14.03125,-5.15625
240,240,1727174722375,-0.92089844,-0.15820312,-0.10058594,-2.0,-19.40625,-8.75
241,241,1727174722415,-0.86621094,-0.0048828125,0.095703125,-21.03125,-11.1875,-19.875
242,242,1727174722455,-0.81347656,-0.032226562,0.17382812,-34.28125,-47.0625,-21.4375
243,243,1727174722495,-0.84765625,-0.125,-0.109375,-9.0,-53.03125,-29.75
244,244,1727174722535,-0.8730469,0.08105469,0.041015625,-22.5,-30.9375,-15.34375
245,245,1727174722575,-0.88671875,-0.13183594,0.15429688,-48.125,-32.46875,-11.8125
246,246,1727174722615,-0.8935547,-0.09472656,-0.07714844,2.21875,-28.625,-15.40625
247,247,1727174722655,-0.8457031,-0.08691406,-0.018554688,-29.46875,-20.15625,-13.5625
248,248,1727174722695,-0.90234375,-0.17480469,0.06347656,-65.90625,-13.1875,-17.25
249,249,1727174722735,-0.94628906,-0.21875,0.046875,-41.3125,-5.1875,-13.75
250,250,1727174722775,-0.8359375,-0.31152344,-0.001953125,-18.96875,-7.28125,-10.84375
251,251,1727174722815,-0.9511719,-0.36621094,0.03125,2.40625,-5.0,-12.34375
252,252,1727174722855,-1.25,-0.44140625,0.22070312,-9.125,-14.15625,-29.3125
253,253,1727174722895,-1.2675781,-0.22558594,0.18359375,10.21875,-27.09375,-48.96875
254,254,1727174722935,-1.4492188,-0.03125,-0.061523438,89.6875,-39.96875,-42.875
255,255,1727174722975,-1.1005859,0.08105469,0.20117188,98.78125,-7.5,-12.34375
256,256,1727174723015,-0.9394531,0.10253906,0.22949219,9.53125,-1.53125,-12.90625
257,257,1727174723055,-1.1748047,-0.12792969,0.40820312,-67.90625,-7.34375,-25.28125
258,258,1727174723095,-0.9873047,-0.10546875,0.4873047,-35.5625,-9.21875,-23.46875
259,259,1727174723135,-0.93652344,-0.25390625,0.11328125,7.59375,-21.78125,-9.1875
260,260,1727174723175,-1.0068359,-0.28222656,0.19042969,23.75,-39.0,-3.5625
261,261,1727174723215,-0.8613281,-0.10644531,0.19042969,30.46875,-30.03125,-3.9375
262,262,1727174723255,-0.8144531,-0.091796875,0.19726562,-0.03125,-8.78125,-9.4375
263,263,1727174723295,-0.85546875,-0.21777344,0.14941406,-12.3125,-7.5625,-7.21875
264,264,1727174723335,-0.8066406,-0.25585938,0.23144531,0.21875,-7.75,-3.375
265,265,1727174723375,-0.8076172,-0.140625,0.23339844,5.75,2.375,2.34375
266,266,1727174723415,-0.81933594,-0.14453125,0.19921875,-0.34375,6.78125,5.96875
267,267,1727174723455,-0.8642578,-0.20410156,0.171875,6.5,14.40625,13.53125
268,268,1727174723495,-0.8535156,-0.203125,0.24804688,-3.75,23.8125,16.28125
269,269,1727174723535,-0.8378906,-0.15039062,0.18164062,1.4375,21.25,22.375
270,270,1727174723575,-0.82910156,-0.18359375,0.22070312,2.03125,20.125,28.21875
271,271,1727174723615,-0.85058594,-0.14550781,0.17871094,1.4375,32.09375,27.75
272,272,1727174723655,-0.8515625,-0.13085938,0.15234375,4.125,29.15625,29.09375
273,273,1727174723695,-0.8515625,-0.19140625,0.15917969,40.375,28.9375,35.375
274,274,1727174723735,-0.81640625,-0.0859375,0.087890625,65.15625,37.71875,34.53125
275,275,1727174723775,-0.7939453,-0.09082031,0.16015625,48.1875,20.6875,29.46875
276,276,1727174723815,-0.7089844,-0.16894531,0.11035156,16.5,18.96875,21.28125
277,277,1727174723855,-0.6748047,-0.16601562,0.11621094,19.5,9.03125,12.1875
278,278,1727174723895,-0.8046875,-0.0146484375,0.19921875,13.09375,17.5625,4.125
279,279,1727174723935,-0.9355469,-0.038085938,0.18652344,-24.5,15.875,-1.0625
280,280,1727174723975,-0.95996094,-0.1171875,0.080078125,-31.84375,10.90625,2.84375
281,281,1727174724015,-1.265625,-0.12792969,0.30664062,-6.625,22.28125,2.78125
282,282,1727174724055,-1.0712891,-0.099609375,0.24609375,-41.3125,6.46875,-3.4375
283,283,1727174724095,-1.3466797,-0.15136719,0.18847656,-28.96875,23.5,2.21875
284,284,1727174724135,-1.1816406,-0.091796875,-0.06347656,-5.84375,24.09375,0.875
285,285,1727174724175,-1.5058594,-0.078125,0.0625,-21.28125,5.0625,-17.59375
286,286,1727174724215,-1.046875,-0.0146484375,-0.45996094,-46.125,-13.3125,-21.625
287,287,1727174724255,-0.85546875,0.21777344,-0.080078125,52.21875,9.59375,15.59375
288,288,1727174724295,-1.1835938,0.029296875,-0.16308594,99.5625,9.875,31.78125
289,289,1727174724335,-0.91503906,-0.24609375,0.009765625,-34.53125,23.8125,34.65625
290,290,1727174724375,-0.91015625,-0.0390625,-0.05859375,-10.71875,23.375,16.625
291,291,1727174724415,-1.0625,0.053710938,0.0,25.53125,18.1875,10.34375
292,292,1727174724455,-1.0253906,-0.09277344,-0.009765625,-5.03125,3.28125,14.3125
293,293,1727174724495,-0.9013672,-0.0234375,-0.14746094,41.21875,16.28125,17.1875
294,294,1727174724535,-0.97265625,0.064453125,-0.14648438,22.59375,29.90625,12.71875
295,295,1727174724575,-0.9277344,0.06640625,0.029296875,2.875,25.21875,16.5
296,296,1727174724615,-0.97558594,-0.033203125,-0.10546875,19.84375,15.4375,16.34375
297,297,1727174724655,-0.95703125,0.0078125,-0.056640625,2.40625,15.75,8.40625
298,298,1727174724695,-0.9814453,-0.10644531,-0.041992188,-7.0,9.15625,2.90625
299,299,1727174724735,-0.9345703,-0.080078125,0.10058594,74.375,33.5625,43.5625
300,300,1727174724775,-0.9658203,-0.16015625,0.056640625,101.71875,41.4375,40.875
301,301,1727174724815,-0.95703125,-0.22265625,-0.07128906,-53.4375,-15.03125,-28.21875
302,302,1727174724855,-0.8251953,-0.23730469,0.08496094,-13.84375,-30.8125,-26.34375
303,303,1727174724895,-0.9736328,-0.24316406,0.053710938,15.40625,-26.625,-24.875
304,304,1727174724935,-0.8720703,-0.41308594,0.047851562,-7.84375,-22.59375,-14.4375
305,305,1727174724975,-0.7988281,-0.06933594,-0.017578125,32.0,-33.28125,-30.0625
306,306,1727174725015,-1.1201172,-0.4033203,-0.0009765625,-23.78125,-16.375,-22.96875
307,307,1727174725055,-1.2412109,-0.15722656,0.17773438,-11.5625,-16.90625,-52.21875
308,308,1727174725095,-1.5917969,-0.32714844,0.2763672,-15.78125,-1.96875,-47.5625
309,309,1727174725135,-1.1630859,-0.18652344,0.35546875,25.84375,18.71875,-17.46875
310,310,1727174725175,-0.8310547,0.001953125,0.28125,5.6875,6.53125,-0.4375
311,311,1727174725215,-1.03125,-0.3720703,0.40039062,0.5,-8.25,10.46875
312,312,1727174725255,-0.9042969,-0.17089844,0.28808594,19.4375,-13.3125,13.34375
313,313,1727174725295,-0.9082031,-0.2705078,0.25976562,0.8125,-11.125,15.40625
314,314,1727174725335,-0.9160156,-0.36621094,0.21484375,5.21875,-19.71875,8.15625
315,315,1727174725375,-0.8330078,-0.24023438,0.20117188,-2.65625,-18.5,6.5
316,316,1727174725415,-0.9082031,-0.34960938,0.18652344,-4.1875,-4.09375,2.78125
317,317,1727174725455,-0.8701172,-0.2998047,0.15820312,-2.78125,-0.25,1.125
318,318,1727174725495,-0.9423828,-0.3564453,0.2734375,4.0,2.125,-1.0
319,319,1727174725535,-0.91308594,-0.24804688,0.22167969,1.3125,3.90625,-8.03125
320,320,1727174725575,-0.9638672,-0.3486328,0.22753906,3.375,-2.3125,-16.0625
321,321,1727174725615,-0.875,-0.24707031,0.24511719,3.0,-3.96875,-19.375
322,322,1727174725655,-0.8017578,-0.13769531,0.171875,15.40625,-8.25,-12.59375
323,323,1727174725695,-0.86621094,-0.123046875,0.24511719,-0.71875,3.34375,-1.0
324,324,1727174725735,-0.9140625,-0.19433594,0.18652344,1.0,-2.75,0.46875
325,325,1727174725775,-0.8642578,-0.15234375,0.30273438,-0.28125,-4.53125,5.65625
326,326,1727174725815,-0.8466797,-0.12597656,0.234375,-11.625,4.9375,12.59375
327,327,1727174725855,-0.82128906,-0.20800781,0.21386719,-22.75,7.6875,19.3125
328,328,1727174725895,-0.8105469,-0.23535156,0.123046875,-10.59375,12.09375,24.3125
329,329,1727174725935,-0.7558594,-0.14453125,0.17480469,0.3125,15.875,31.40625
330,330,1727174725975,-0.7988281,-0.099609375,0.15234375,18.09375,17.8125,34.46875
331,331,1727174726015,-0.90722656,-0.13671875,0.140625,14.4375,21.90625,39.09375
332,332,1727174726055,-0.8798828,-0.2734375,0.13867188,38.21875,22.6875,40.125
333,333,1727174726095,-0.78515625,-0.07324219,0.11621094,74.375,28.5,30.125
334,334,1727174726135,-0.7558594,0.0068359375,0.17675781,49.21875,29.15625,33.0
335,335,1727174726175,-0.73339844,-0.20019531,0.17089844,28.03125,8.34375,31.53125
336,336,1727174726215,-0.69921875,-0.20996094,0.16503906,-13.65625,18.25,12.4375
337,337,1727174726255,-0.80859375,-0.17480469,0.13085938,27.96875,30.15625,5.53125
338,338,1727174726295,-1.1962891,-0.020507812,0.33398438,40.84375,31.6875,0.65625
339,339,1727174726335,-0.9169922,-0.27539062,0.21777344,-1.1875,8.0,5.59375
340,340,1727174726375,-1.2138672,-0.14648438,0.14355469,-8.53125,20.1875,-5.21875
341,341,1727174726415,-1.2011719,-0.051757812,0.42871094,-65.15625,33.625,-12.0
342,342,1727174726455,-1.2451172,0.24121094,-0.041015625,53.1875,3.59375,-2.71875
343,343,1727174726495,-1.9716797,-0.49902344,0.75390625,-119.96875,-21.1875,-24.6875
344,344,1727174726535,-0.7207031,0.31347656,-0.28027344,103.59375,-30.78125,-7.59375
345,345,1727174726575,-0.984375,0.059570312,-0.22363281,78.03125,-6.78125,26.65625
346,346,1727174726615,-1.0820312,0.07128906,-0.21484375,85.96875,27.8125,37.34375
347,347,1727174726655,-0.92578125,-0.20800781,-0.15136719,-22.25,48.53125,25.65625
348,348,1727174726695,-0.88671875,-0.048828125,0.17480469,-58.28125,86.53125,12.71875
349,349,1727174726735,-0.96484375,0.17675781,0.140625,-8.21875,32.96875,14.625
350,350,1727174726775,-0.9628906,-0.10253906,-0.07910156,-30.3125,6.46875,14.4375
351,351,1727174726815,-1.0263672,-0.25878906,-0.072265625,-22.875,6.78125,8.59375
352,352,1727174726855,-0.9511719,-0.07128906,-0.09277344,12.65625,8.90625,-5.53125
353,353,1727174726895,-0.984375,0.111328125,-0.09082031,8.6875,2.6875,-4.59375
354,354,1727174726935,-0.984375,0.057617188,-0.12988281,-9.5,8.40625,-1.0
355,355,1727174726975,-0.9863281,-0.015625,-0.14355469,-12.4375,8.0,3.5
356,356,1727174727015,-0.95996094,0.001953125,-0.10644531,9.90625,7.0,1.9375
357,357,1727174727055,-1.0,0.038085938,-0.13085938,10.21875,6.15625,4.6875
358,358,1727174727095,-0.99902344,0.018554688,-0.055664062,-6.15625,4.625,6.09375
359,359,1727174727135,-0.95214844,-0.04296875,-0.171875,11.125,-6.96875,4.25
360,360,1727174727175,-0.97265625,-0.0126953125,-0.16894531,17.40625,-4.21875,2.40625
361,361,1727174727215,-0.9736328,0.029296875,-0.18554688,14.90625,4.03125,2.1875
362,362,1727174727255,-0.9863281,0.03125,-0.060546875,11.0625,0.1875,4.1875
363,363,1727174727295,-0.9609375,-0.01953125,-0.056640625,13.9375,-2.375,1.9375
364,364,1727174727335,-0.9316406,-0.0068359375,-0.024414062,4.96875,-14.09375,-4.71875
365,365,1727174727375,-0.96875,-0.015625,-0.06347656,-4.125,-13.0625,-6.875
366,366,1727174727415,-0.9482422,-0.06738281,-0.08496094,0.5625,-14.03125,-7.59375
367,367,1727174727455,-0.9003906,-0.103515625,-0.09667969,9.90625,-20.09375,-12.78125
368,368,1727174727495,-0.80371094,0.00390625,0.2626953,-64.625,-39.0625,-30.46875
369,369,1727174727535,-0.7529297,0.07421875,0.08496094,-16.59375,-70.3125,-32.3125
370,370,1727174727575,-0.75097656,-0.13085938,-0.12890625,-50.5625,-53.59375,-32.1875
371,371,1727174727615,-0.7919922,-0.08203125,-0.064453125,-46.84375,-29.90625,-32.5
372,372,1727174727655,-0.8535156,-0.047851562,-0.12207031,-42.75,-9.15625,-31.875
373,373,1727174727695,-0.9160156,-0.23730469,0.16992188,-45.375,-38.09375,-32.6875
374,374,1727174727735,-0.9267578,-0.17871094,0.041992188,-40.03125,-25.625,-29.0625
375,375,1727174727775,-0.9873047,-0.21289062,0.032226562,-14.4375,-13.96875,-26.5625
376,376,1727174727815,-1.0302734,-0.07714844,0.013671875,19.25,-26.25,-24.25
377,377,1727174727855,-1.0722656,-0.39257812,0.12011719,1.125,-29.78125,-20.53125
378,378,1727174727895,-1.1826172,-0.0390625,-0.13671875,15.40625,-34.90625,-47.625
379,379,1727174727935,-1.7792969,-0.28125,0.08300781,-3.09375,-0.6875,-41.84375
380,380,1727174727975,-0.9667969,-0.018554688,0.21679688,-33.0625,27.71875,-18.59375
381,381,1727174728015,-0.9003906,-0.099609375,0.24511719,-12.3125,2.75,26.71875
382,382,1727174728055,-1.1982422,-0.43066406,0.31640625,15.53125,-12.6875,14.9375
383,383,1727174728095,-0.8574219,-0.040039062,0.21972656,1.25,-11.84375,8.15625
384,384,1727174728135,-0.83496094,-0.22070312,0.18261719,-4.9375,-7.5625,29.8125
385,385,1727174728175,-1.0771484,-0.37597656,0.23535156,18.5625,-29.0,16.625
386,386,1727174728215,-0.87890625,-0.19042969,0.19921875,0.6875,-26.875,-1.6875
387,387,1727174728255,-0.76464844,-0.13378906,0.07128906,-21.15625,-9.59375,-2.90625
388,388,1727174728295,-0.86621094,-0.28222656,0.17089844,-16.40625,-4.71875,4.25
389,389,1727174728335,-0.89941406,-0.25,0.19433594,1.125,-6.84375,6.5
390,390,1727174728375,-0.9238281,-0.2548828,0.2705078,-1.1875,-7.5625,-0.28125
391,391,1727174728415,-0.9824219,-0.3125,0.265625,-13.34375,0.71875,-7.84375
392,392,1727174728455,-0.9707031,-0.3720703,0.30273438,-19.625,-1.71875,-16.1875
393,393,1727174728495,-0.95996094,-0.3154297,0.2734375,-5.40625,-9.53125,-24.375
394,394,1727174728535,-0.93652344,-0.28710938,0.23339844,-4.75,-9.03125,-29.5
395,395,1727174728575,-0.84765625,-0.18652344,0.22949219,6.4375,-13.1875,-28.96875
396,396,1727174728615,-0.7998047,-0.12597656,0.20507812,17.78125,-10.4375,-15.59375
397,397,1727174728655,-0.85058594,-0.115234375,0.24902344,10.53125,-6.34375,-1.84375
398,398,1727174728695,-0.8701172,-0.18359375,0.2529297,12.78125,-7.21875,4.1875
399,399,1727174728735,-0.81347656,-0.07910156,0.31835938,-10.21875,2.25,9.5
400,400,1727174728775,-0.8457031,-0.17578125,0.23632812,-8.09375,0.3125,17.375
401,401,1727174728815,-0.88378906,-0.18847656,0.24121094,-10.0,6.96875,21.15625
402,402,1727174728855,-0.8671875,-0.24804688,0.18359375,-4.6875,13.71875,26.53125
403,403,1727174728895,-0.9746094,-0.001953125,-0.080078125,3.6875,8.96875,1.5
404,404,1727174728935,-0.9980469,0.0048828125,-0.13964844,-1.6875,1.53125,2.53125
405,405,1727174728975,-0.9482422,-0.0087890625,-0.13867188,11.8125,0.53125,3.5625
406,406,1727174729015,-0.9814453,0.009765625,-0.12890625,11.0625,-5.3125,0.78125
407,407,1727174729055,-0.95410156,0.037109375,-0.13378906,12.71875,-3.59375,-2.46875
408,408,1727174729095,-0.9814453,-0.046875,-0.06933594,-1.4375,-7.4375,-1.25
409,409,1727174729135,-0.9248047,-0.0546875,-0.119140625,12.53125,-10.125,-4.3125
410,410,1727174729175,-0.9482422,-0.10253906,0.1015625,-3.15625,-18.9375,-12.28125
411,411,1727174729215,-0.8828125,-0.13671875,0.05859375,4.28125,-44.9375,-24.25
412,412,1727174729255,-0.75390625,0.10546875,0.14257812,-12.75,-63.53125,-35.25
413,413,1727174729295,-0.6875,0.12109375,0.025390625,-13.40625,-64.40625,-25.59375
414,414,1727174729335,-0.8671875,-0.14453125,-0.12207031,-54.84375,-50.125,-27.6875
415,415,1727174729375,-0.88183594,-0.12597656,-0.18652344,-72.1875,-12.875,-23.28125
416,416,1727174729415,-0.9199219,-0.19628906,0.3076172,-101.78125,-22.03125,-31.6875
417,417,1727174729455,-0.984375,0.04296875,-0.099609375,-40.5625,-22.40625,-32.8125
418,418,1727174729495,-0.984375,-0.14941406,0.06738281,-27.625,-11.90625,-14.0
419,419,1727174729535,-0.98828125,-0.37402344,-0.02734375,-0.03125,-12.15625,-13.8125
420,420,1727174729575,-0.9716797,-0.23730469,0.0390625,12.90625,-16.4375,-21.03125
421,421,1727174729615,-0.9433594,-0.14257812,0.15234375,-17.125,-10.3125,-13.5625
422,422,1727174729655,-1.171875,-0.35253906,0.359375,-24.03125,-38.40625,-36.65625
423,423,1727174729695,-0.8027344,-0.041015625,-0.16015625,-2.71875,-46.34375,-29.4375
424,424,1727174729735,-1.8818359,-0.48339844,0.047851562,-18.0,-31.5,-50.375
425,425,1727174729775,-1.0556641,0.01953125,0.12988281,13.5,27.15625,-9.4375
426,426,1727174729815,-0.75390625,-0.072265625,0.18945312,-4.375,23.5,23.46875
427,427,1727174729855,-0.7001953,-0.14941406,0.32226562,-1.875,1.28125,26.46875
428,428,1727174729895,-0.8876953,-0.203125,0.2705078,4.46875,-8.65625,17.6875
429,429,1727174729935,-0.97753906,-0.17871094,0.21386719,-8.53125,-15.03125,4.0
430,430,1727174729975,-0.9814453,-0.296875,0.09082031,-4.5,-11.84375,7.65625
431,431,1727174730015,-0.8652344,-0.17480469,0.14453125,1.53125,-4.65625,11.375
432,432,1727174730055,-0.8964844,-0.28222656,0.19140625,-4.0625,8.84375,13.53125
433,433,1727174730095,-0.97753906,-0.4013672,0.2265625,-8.9375,4.9375,4.125
434,434,1727174730135,-0.93066406,-0.2763672,0.265625,2.84375,-5.875,-4.1875
435,435,1727174730175,-0.91308594,-0.2705078,0.21289062,-3.53125,-9.34375,-11.375
436,436,1727174730215,-0.9951172,-0.30371094,0.25585938,-12.84375,-9.28125,-20.34375
437,437,1727174730255,-1.0078125,-0.30859375,0.27148438,-27.25,-6.71875,-30.46875
438,438,1727174730295,-0.9746094,-0.30664062,0.16796875,-23.78125,-11.40625,-40.0625
439,439,1727174730335,-0.9326172,-0.34179688,0.2109375,-12.3125,-15.03125,-42.875
440,440,1727174730375,-0.85058594,-0.14453125,0.19238281,1.84375,-15.75,-36.21875
441,441,1727174730415,-0.80078125,-0.1640625,0.13085938,6.5,-10.875,-16.75
442,442,1727174730455,-0.85839844,-0.2109375,0.25585938,-2.78125,-4.65625,-3.75
443,443,1727174730495,-0.8066406,-0.20507812,0.13378906,2.59375,-0.375,3.6875
444,444,1727174730535,-0.7607422,-0.12890625,0.20507812,2.9375,0.1875,15.0625
445,445,1727174730575,-0.77734375,-0.13183594,0.17089844,-5.21875,10.1875,23.53125
446,446,1727174730615,-0.73828125,-0.125,0.095703125,-19.3125,19.28125,33.84375
447,447,1727174730655,-0.67578125,-0.16601562,0.08886719,-17.75,26.84375,45.3125
448,448,1727174730695,-0.6035156,-0.22753906,0.025390625,-2.46875,32.71875,49.59375
449,449,1727174730735,-0.63183594,-0.34375,0.095703125,43.65625,38.25,55.5625
450,450,1727174730775,-0.8466797,-0.18945312,0.17480469,155.78125,26.125,58.3125
451,451,1727174730815,-0.9423828,0.02734375,0.39160156,140.15625,38.75,49.40625
452,452,1727174730855,-0.97265625,0.17773438,0.20605469,-64.375,49.5,7.96875
453,453,1727174730895,-0.9765625,0.01953125,0.11425781,1.71875,23.1875,26.65625
454,454,1727174730935,-0.92285156,-0.13964844,-0.19433594,65.15625,14.71875,28.65625
455,455,1727174730975,-0.9951172,-0.056640625,-0.037109375,38.28125,35.9375,14.875
456,456,1727174731015,-0.9628906,0.107421875,0.107421875,18.40625,34.84375,10.15625
457,457,1727174731055,-0.95410156,0.08203125,-0.045898438,-4.3125,24.15625,9.8125
458,458,1727174731095,-0.9345703,0.0146484375,-0.10253906,-19.3125,18.625,11.4375
459,459,1727174731135,-0.9658203,-0.140625,-0.06542969,8.75,10.6875,10.65625
460,460,1727174731175,-0.9794922,-0.021484375,-0.041992188,14.25,6.71875,1.5
461,461,1727174731215,-0.97753906,-0.015625,-0.13867188,16.125,-0.75,-1.375
462,462,1727174731255,-0.9746094,0.055664062,-0.025390625,7.46875,4.75,-4.34375
463,463,1727174731295,-0.96875,-0.08300781,-0.19824219,12.96875,-7.5625,-0.6875
464,464,1727174731335,-0.9609375,-0.06933594,-0.057617188,9.34375,3.71875,-2.90625
465,465,1727174731375,-0.9707031,-0.046875,-0.111328125,22.125,-3.375,-1.84375
466,466,1727174731415,-0.9423828,0.0,-0.009765625,11.75,-5.5625,-7.46875
467,467,1727174731455,-0.9375,-0.032226562,-0.0087890625,6.125,-21.1875,-6.9375
468,468,1727174731495,-0.85839844,-0.15722656,0.0234375,-1.75,-24.84375,-11.375
469,469,1727174731535,-0.85839844,-0.16015625,0.016601562,-26.65625,-37.0,-31.6875
470,470,1727174731575,-0.79003906,0.12402344,0.13769531,-43.625,-43.15625,-30.40625
471,471,1727174731615,-0.7861328,-0.078125,-0.08105469,-7.0625,-39.96875,-21.4375
472,472,1727174731655,-0.859375,-0.07421875,-0.08691406,-40.4375,-21.96875,-26.03125
473,473,1727174731695,-0.85253906,-0.125,0.016601562,-59.65625,-18.0625,-16.3125
474,474,1727174731735,-0.77734375,-0.22460938,0.0107421875,-84.21875,-21.90625,-29.4375
475,475,1727174731775,-0.9375,-0.15039062,0.016601562,-36.96875,-7.75,-21.5625
476,476,1727174731815,-0.9355469,-0.296875,0.009765625,-0.03125,-15.09375,-18.6875
477,477,1727174731855,-0.9736328,-0.09277344,-0.021484375,21.9375,-27.28125,-20.71875
478,478,1727174731895,-1.2421875,-0.41015625,0.015625,-11.03125,-22.96875,-17.1875
479,479,1727174731935,-1.3671875,-0.3251953,0.2861328,-33.625,-22.53125,-51.90625
480,480,1727174731975,-1.2294922,0.0078125,0.095703125,13.09375,-29.96875,-29.5
481,481,1727174732015,-1.2832031,-0.18652344,0.12402344,44.21875,-18.0625,-15.03125
482,482,1727174732055,-1.09375,-0.0078125,0.15625,11.1875,-6.90625,-2.90625
483,483,1727174732095,-0.9765625,-0.0029296875,0.13476562,-9.125,8.71875,13.65625
484,484,1727174732135,-0.9609375,-0.12890625,0.19140625,2.34375,6.65625,23.65625
485,485,1727174732175,-0.9316406,-0.22167969,0.23730469,-2.0,5.375,25.5625
486,486,1727174732215,-0.92871094,-0.19335938,0.17382812,0.3125,-8.84375,16.9375
487,487,1727174732255,-0.9277344,-0.17871094,0.16894531,-10.0,-10.8125,11.4375
488,488,1727174732295,-0.89160156,-0.22070312,0.14453125,-2.96875,-9.9375,9.0625
489,489,1727174732335,-0.9169922,-0.21777344,0.15917969,3.875,-6.28125,7.53125
490,490,1727174732375,-0.92578125,-0.22558594,0.17773438,-2.40625,-3.25,5.71875
491,491,1727174732415,-0.9482422,-0.2626953,0.20996094,-10.125,-1.09375,-0.8125
492,492,1727174732455,-1.0058594,-0.2783203,0.25390625,-10.90625,-0.375,-10.9375
493,493,1727174732495,-0.9902344,-0.24511719,0.24511719,-16.53125,-5.4375,-21.25
494,494,1727174732535,-1.0087891,-0.24023438,0.21777344,-14.03125,-15.6875,-25.78125
495,495,1727174732575,-0.9267578,-0.14355469,0.22753906,-4.1875,-17.71875,-27.90625
496,496,1727174732615,-0.890625,-0.0703125,0.14257812,0.625,-14.78125,-20.09375
497,497,1727174732655,-0.9375,-0.1875,0.19824219,-13.78125,-13.25,-17.34375
498,498,1727174732695,-0.8828125,-0.17773438,0.20898438,-4.75,-12.03125,-10.28125
499,499,1727174732735,-0.83691406,-0.11816406,0.11230469,6.1875,-8.0,-2.78125
500,500,1727174732775,-0.8457031,-0.10449219,0.16796875,-9.1875,2.8125,7.53125
501,501,1727174732815,-0.80371094,-0.12597656,0.08203125,-3.15625,13.25,19.25
502,502,1727174732855,-0.7548828,-0.15527344,0.11328125,-6.03125,23.0625,28.125
503,503,1727174732895,-0.73046875,-0.109375,0.099609375,-5.09375,23.1875,38.1875
504,504,1727174732935,-0.7167969,-0.17675781,0.076171875,37.6875,28.3125,47.21875
505,505,1727174732975,-0.6669922,-0.10546875,0.029296875,81.5,30.4375,36.53125
506,506,1727174733015,-0.6748047,-0.09863281,0.13964844,68.375,47.84375,39.71875
507,507,1727174733055,-0.7939453,-0.16699219,0.1015625,83.9375,30.4375,34.34375
508,508,1727174733095,-0.9628906,0.01953125,0.33691406,32.5,23.625,22.6875
509,509,1727174733135,-0.98828125,-0.23632812,0.28125,-3.09375,26.25,15.90625
510,510,1727174733175,-0.85546875,-0.061523438,0.043945312,-89.46875,-24.78125,-27.84375
511,511,1727174733215,-0.84472656,-0.14941406,-0.11621094,-10.90625,-24.1875,-16.03125
512,512,1727174733255,-0.94628906,-0.16113281,0.10644531,-75.34375,-13.4375,-26.21875
513,513,1727174733295,-1.1318359,-0.3203125,0.1015625,-34.03125,-14.09375,-7.59375
514,514,1727174733335,-0.89746094,-0.26367188,-0.030273438,-8.84375,-16.84375,-19.25
515,515,1727174733375,-1.2197266,-0.10449219,-0.033203125,40.71875,-34.0625,-30.84375
516,516,1727174733415,-1.4160156,-0.20019531,0.20507812,-41.90625,-21.71875,-36.03125
517,517,1727174733455,-1.0712891,0.041992188,0.14941406,-28.125,-25.875,-40.75
518,518,1727174733495,-1.265625,-0.02734375,0.009765625,29.0625,-31.5625,-26.15625
519,519,1727174733535,-1.1875,-0.099609375,0.13378906,7.03125,5.84375,2.65625
520,520,1727174733575,-0.9199219,-0.051757812,0.24414062,-8.53125,12.6875,13.78125
521,521,1727174733615,-0.8378906,-0.08300781,0.30078125,-6.03125,3.71875,19.375
522,522,1727174733655,-0.84277344,-0.125,0.16503906,14.84375,-4.8125,22.6875
523,523,1727174733695,-0.9169922,-0.15527344,0.16503906,5.28125,-10.5625,18.40625
524,524,1727174733735,-0.9892578,-0.22949219,0.1015625,-3.34375,-4.65625,14.375
525,525,1727174733775,-0.97265625,-0.20605469,0.1796875,-6.875,1.15625,7.90625
526,526,1727174733815,-0.9326172,-0.203125,0.140625,-11.46875,4.375,5.28125
527,527,1727174733855,-0.9345703,-0.22070312,0.17382812,-4.5,2.1875,4.25
528,528,1727174733895,-1.0009766,-0.25683594,0.22167969,2.46875,-2.4375,0.53125
529,529,1727174733935,-1.03125,-0.28027344,0.25390625,-17.4375,-8.3125,-12.53125
530,530,1727174733975,-1.0390625,-0.34375,0.30371094,-46.1875,-11.125,-28.71875
531,531,1727174734015,-1.0322266,-0.24804688,0.20996094,-20.5,-20.75,-44.09375
532,532,1727174734055,-0.8720703,-0.17285156,0.15234375,-11.21875,-26.0625,-47.03125
533,533,1727174734095,-0.8095703,-0.10449219,0.07519531,-9.8125,-13.0,-30.1875
534,534,1727174734135,-0.91308594,-0.22558594,0.17089844,-6.625,-7.8125,-18.8125
535,535,1727174734175,-0.8017578,-0.12597656,0.17285156,2.84375,-8.1875,-10.875
536,536,1727174734215,-0.75,-0.0625,0.16015625,6.5625,-2.5625,6.9375
537,537,1727174734255,-0.75390625,-0.111328125,0.12597656,3.5625,9.40625,18.90625
538,538,1727174734295,-0.734375,-0.08105469,0.091796875,-24.15625,29.0,31.90625
539,539,1727174734335,-0.7158203,-0.12988281,0.10449219,-34.9375,40.875,46.25
540,540,1727174734375,-0.57910156,-0.24023438,0.10449219,-21.21875,39.25,55.28125
541,541,1727174734415,-0.49804688,-0.3310547,0.005859375,77.0625,21.46875,49.21875
542,542,1727174734455,-0.7998047,0.10839844,0.12988281,138.5,38.25,41.0625
543,543,1727174734495,-1.0625,-0.13183594,0.26660156,34.9375,42.78125,41.34375
544,544,1727174734535,-0.9980469,-0.35351562,0.20507812,-59.5625,17.28125,25.1875
545,545,1727174734575,-1.1972656,-0.07421875,0.21679688,30.84375,20.3125,19.09375
546,546,1727174734615,-0.8564453,-0.26660156,0.18847656,-64.5625,-0.6875,17.25
547,547,1727174734655,-1.0693359,-0.12988281,0.015625,1.3125,11.03125,8.09375
548,548,1727174734695,-1.4560547,0.0029296875,-0.24023438,80.21875,31.125,8.8125
549,549,1727174734735,-1.1835938,0.11230469,-0.10058594,-84.5625,7.9375,-17.0
550,550,1727174734775,-0.9511719,-0.15136719,0.17871094,-150.0625,-11.84375,-30.96875
551,551,1727174734815,-1.4375,0.27929688,-0.0234375,42.9375,22.59375,-1.1875
552,552,1727174734855,-1.2548828,-0.14746094,-0.24902344,146.9375,-32.40625,21.875
553,553,1727174734895,-0.9140625,-0.17871094,-0.044921875,-12.90625,-16.53125,10.96875
554,554,1727174734935,-1.0869141,0.10839844,-0.234375,66.375,18.71875,12.5
555,555,1727174734975,-0.91308594,0.08496094,-0.1953125,-25.96875,37.15625,4.78125
556,556,1727174735015,-0.92089844,0.099609375,0.016601562,-78.65625,50.96875,12.125
557,557,1727174735055,-0.97753906,-0.095703125,0.016601562,-2.53125,21.78125,25.71875
558,558,1727174735095,-0.93359375,-0.16113281,-0.07714844,28.28125,16.84375,23.28125
559,559,1727174735135,-0.95214844,-0.059570312,-0.12597656,25.78125,14.34375,13.09375
560,560,1727174735175,-0.96875,0.01171875,-0.203125,15.28125,11.59375,9.75
561,561,1727174735215,-0.9785156,0.068359375,-0.0009765625,5.625,17.4375,6.25
562,562,1727174735255,-0.9501953,0.024414062,-0.22753906,31.21875,-0.0625,6.625
563,563,1727174735295,-0.98828125,0.07128906,-0.15039062,7.59375,5.90625,4.0
564,564,1727174735335,-0.9716797,-0.0029296875,-0.115234375,6.125,3.65625,6.375
565,565,1727174735375,-0.9707031,-0.0029296875,-0.13378906,24.6875,-0.8125,5.65625
566,566,1727174735415,-0.9628906,0.033203125,-0.095703125,14.90625,-1.84375,1.5
567,567,1727174735455,-0.99316406,0.00390625,-0.119140625,11.375,-6.40625,1.75
568,568,1727174735495,-0.9638672,-0.0087890625,-0.18261719,19.5625,-4.8125,2.53125
569,569,1727174735535,-0.96484375,0.02734375,-0.095703125,9.34375,-5.25,0.40625
570,570,1727174735575,-0.9746094,0.0107421875,-0.068359375,7.78125,-9.46875,0.65625
571,571,1727174735615,-0.9667969,0.0048828125,-0.15234375,10.9375,-6.28125,0.34375
572,572,1727174735655,-0.9277344,-0.041992188,-0.01171875,-20.0,-12.46875,-0.4375
573,573,1727174735695,-0.83496094,-0.17578125,0.103515625,-40.625,-43.46875,-13.625
574,574,1727174735735,-0.87402344,-0.06738281,0.0029296875,-21.53125,-65.0625,-35.65625
575,575,1727174735775,-0.640625,0.24609375,0.04296875,-6.6875,-77.21875,-18.75
576,576,1727174735815,-0.8857422,-0.140625,-0.14941406,70.34375,-42.78125,-17.53125
577,577,1727174735855,-0.8076172,0.017578125,0.18066406,-78.40625,-33.34375,-30.125
578,578,1727174735895,-0.8330078,0.08886719,-0.3095703,6.75,-24.46875,-13.9375
579,579,1727174735935,-0.92578125,-0.27734375,0.032226562,-47.15625,-11.90625,-29.3125
580,580,1727174735975,-0.9169922,-0.06347656,-0.0009765625,-45.15625,-11.53125,-25.53125
581,581,1727174736015,-1.0664062,-0.2841797,0.13476562,-5.34375,-16.4375,-22.0625
582,582,1727174736055,-0.9296875,-0.0068359375,0.051757812,-17.6875,-15.03125,-30.125
583,583,1727174736095,-1.1845703,-0.30664062,0.14257812,-35.8125,-21.125,-35.4375
584,584,1727174736135,-1.4355469,-0.040039062,-0.022460938,18.6875,-33.75,-47.3125
585,585,1727174736175,-1.4960938,-0.08691406,-0.045898438,14.0,-4.15625,-28.71875
586,586,1727174736215,-1.0136719,-0.07714844,0.2705078,0.5625,19.65625,-3.1875
587,587,1727174736255,-0.7685547,0.22363281,0.2734375,-4.5625,12.625,14.5
588,588,1727174736295,-1.1289062,-0.29101562,0.33203125,-39.34375,-0.375,12.5
589,589,1727174736335,-1.0302734,-0.1875,0.17285156,-6.28125,-9.90625,9.25
590,590,1727174736375,-0.8496094,-0.16601562,0.059570312,-11.34375,-6.65625,19.75
591,591,1727174736415,-0.9140625,-0.2529297,0.09472656,3.625,-8.71875,18.28125
592,592,1727174736455,-0.9267578,-0.24316406,0.23632812,-21.59375,-0.375,3.5625
593,593,1727174736495,-0.89746094,-0.2529297,0.17382812,-18.0,1.8125,-2.59375
594,594,1727174736535,-0.95214844,-0.3251953,0.15722656,-11.5,-5.3125,-5.625
595,595,1727174736575,-0.9921875,-0.2734375,0.19042969,-9.1875,-11.0625,-13.8125
596,596,1727174736615,-1.0039062,-0.265625,0.25097656,-15.25,-16.53125,-26.03125
597,597,1727174736655,-0.98535156,-0.23535156,0.24023438,-24.9375,-15.375,-32.75
598,598,1727174736695,-0.9326172,-0.20019531,0.19433594,-25.4375,-16.59375,-34.5
599,599,1727174736735,-0.83203125,-0.18554688,0.08886719,-5.96875,-15.03125,-22.5625
600,600,1727174736775,-0.94921875,-0.20898438,0.20410156,-2.65625,-9.21875,-15.59375
601,601,1727174736815,-0.90625,-0.23925781,0.123046875,2.09375,-11.34375,-14.25
602,602,1727174736855,-0.8378906,-0.19042969,0.23046875,11.8125,-17.34375,-7.40625
603,603,1727174736895,-0.8125,-0.16015625,0.16113281,-4.125,0.96875,0.65625
604,604,1727174736935,-0.8017578,-0.22558594,0.15527344,0.5625,5.4375,12.4375
605,605,1727174736975,-0.77246094,-0.18847656,0.09472656,2.09375,18.3125,22.3125
606,606,1727174737015,-0.8251953,-0.18066406,0.14160156,-0.96875,26.71875,30.90625
607,607,1727174737055,-0.80566406,-0.14453125,0.10058594,6.125,32.71875,37.8125
608,608,1727174737095,-0.7734375,-0.13867188,0.059570312,32.5625,32.53125,42.75
609,609,1727174737135,-0.7285156,-0.13867188,0.078125,62.9375,39.53125,42.15625
610,610,1727174737175,-0.71972656,0.052734375,0.07519531,85.46875,44.0625,39.65625
611,611,1727174737215,-0.7783203,-0.09082031,0.16015625,76.8125,21.3125,46.25
612,612,1727174737255,-0.9316406,-0.12402344,0.14941406,37.5625,15.5,23.21875
613,613,1727174737295,-1.1484375,-0.056640625,0.2998047,-20.84375,20.4375,14.9375
614,614,1727174737335,-0.88378906,-0.16601562,0.028320312,-34.90625,5.375,11.9375
615,615,1727174737375,-0.74902344,-0.20800781,0.15527344,-52.15625,9.8125,8.53125
616,616,1727174737415,-0.9316406,0.044921875,0.35253906,-29.21875,2.5625,-1.0625
617,617,1727174737455,-1.2675781,0.038085938,0.15332031,-15.125,7.125,0.34375
618,618,1727174737495,-1.5332031,0.030273438,-0.3798828,30.0625,-2.25,8.40625
619,619,1727174737535,-1.0068359,0.1171875,-0.16113281,-40.3125,-4.65625,3.34375
620,620,1727174737575,-1.4892578,-0.31445312,-0.30273438,-269.5,-3.3125,-9.71875
621,621,1727174737615,-0.6894531,-0.08300781,0.123046875,-112.96875,8.46875,0.40625
622,622,1727174737655,-1.2363281,-0.17675781,-0.15625,136.96875,-2.9375,24.5
623,623,1727174737695,-0.98828125,0.07421875,0.08300781,30.96875,4.21875,22.125
624,624,1727174737735,-0.84277344,0.009765625,-0.103515625,50.75,-1.21875,22.375
625,625,1727174737775,-0.9873047,0.0009765625,-0.16796875,-8.09375,23.75,13.84375
626,626,1727174737815,-0.9082031,-0.0234375,-0.1015625,-48.75,28.125,12.59375
627,627,1727174737855,-0.9794922,-0.08984375,0.028320312,0.9375,33.75,22.8125
628,628,1727174737895,-0.98828125,-0.119140625,-0.025390625,21.875,20.0625,20.375
629,629,1727174737935,-0.9638672,0.01171875,0.016601562,22.59375,9.59375,12.90625
630,630,1727174737975,-0.9873047,-0.043945312,-0.09277344,-0.34375,-0.96875,5.46875
631,631,1727174738015,-0.9824219,-0.06933594,-0.13085938,-16.46875,-1.65625,-3.0625
632,632,1727174738055,-0.97265625,-0.047851562,-0.0234375,0.4375,4.375,-3.375
633,633,1727174738095,-0.96484375,-0.038085938,-0.13476562,22.59375,-3.78125,-1.3125
634,634,1727174738135,-0.93652344,0.028320312,-0.115234375,24.125,-1.65625,-4.78125
635,635,1727174738175,-0.984375,0.051757812,-0.08691406,26.75,2.3125,-4.3125
636,636,1727174738215,-0.9785156,0.080078125,0.041015625,20.09375,-1.71875,-3.875
637,637,1727174738255,-0.9501953,-0.037109375,-0.18261719,34.9375,-11.0625,0.65625
638,638,1727174738295,-0.99316406,-0.033203125,-0.14453125,34.1875,0.59375,4.375
639,639,1727174738335,-0.9863281,-0.061523438,0.0126953125,13.21875,12.6875,4.4375
640,640,1727174738375,-0.921875,0.0625,-0.01953125,19.75,1.46875,-2.40625
641,641,1727174738415,-0.9511719,-0.07324219,-0.12109375,22.53125,-14.46875,-0.6875
642,642,1727174738455,-0.91015625,-0.048828125,-0.05859375,11.25,-7.625,-8.15625
643,643,1727174738495,-0.84472656,-0.10546875,-0.0078125,-0.40625,-17.71875,-17.0625
644,644,1727174738535,-0.8359375,-0.00390625,0.13574219,-45.15625,-26.3125,-31.15625
645,645,1727174738575,-0.8105469,0.07128906,-0.018554688,-19.21875,-41.875,-23.78125
646,646,1727174738615,-0.7246094,-0.072265625,0.06933594,-37.03125,-35.53125,-15.46875
647,647,1727174738655,-0.86816406,-0.099609375,-0.041992188,-5.15625,-30.78125,-22.90625
648,648,1727174738695,-0.87890625,-0.059570312,-0.038085938,-29.21875,-24.28125,-11.375
649,649,1727174738735,-0.92089844,-0.16113281,-0.076171875,-3.75,-28.875,-7.96875
650,650,1727174738775,-1.0410156,-0.23046875,0.111328125,-6.9375,-26.25,-4.0
651,651,1727174738815,-0.9345703,-0.115234375,-0.046875,16.4375,-27.96875,3.15625
652,652,1727174738855,-1.0009766,-0.4169922,-0.036132812,-10.0625,-24.25,-7.53125
653,653,1727174738895,-1.1699219,-0.3828125,0.12109375,-6.875,-33.5625,-28.84375
654,654,1727174738935,-1.6904297,-0.22070312,-0.005859375,58.75,-37.25,-82.25
655,655,1727174738975,-1.1318359,0.32128906,0.19726562,75.40625,-11.40625,-32.5625
656,656,1727174739015,-1.0273438,0.06933594,0.12109375,20.40625,-2.5,-30.40625
657,657,1727174739055,-1.0361328,-0.0087890625,0.20898438,-50.40625,7.5,-21.3125
658,658,1727174739095,-1.0,-0.030273438,0.3203125,-34.65625,24.65625,-11.875
659,659,1727174739135,-0.89453125,-0.0625,0.21679688,39.75,12.5625,6.25
660,660,1727174739175,-0.9394531,-0.24121094,0.21289062,33.84375,-4.21875,8.53125
661,661,1727174739215,-0.86621094,-0.19140625,-0.022460938,-28.90625,-18.75,-25.46875
662,662,1727174739255,-0.93359375,-0.119140625,-0.21289062,-47.90625,-2.25,-32.625
663,663,1727174739295,-0.98339844,-0.16894531,0.0234375,-83.84375,-4.21875,-32.96875
664,664,1727174739335,-0.9355469,-0.20507812,-0.03515625,23.34375,-15.03125,-24.6875
665,665,1727174739375,-1.0351562,-0.24609375,-0.046875,22.90625,-14.59375,-16.625
666,666,1727174739415,-0.91308594,-0.23632812,0.05859375,-8.71875,-16.90625,-12.96875
667,667,1727174739455,-0.9814453,-0.17285156,0.032226562,19.96875,-27.96875,-25.46875
668,668,1727174739495,-1.1357422,-0.3720703,0.025390625,-18.46875,-23.9375,-37.5625
669,669,1727174739535,-1.4414062,-0.18554688,0.09375,-44.78125,-10.5625,-56.46875
670,670,1727174739575,-1.1914062,-0.15429688,0.28222656,31.5625,0.65625,-20.46875
671,671,1727174739615,-0.890625,-0.111328125,0.15136719,33.53125,-9.34375,-3.5
672,672,1727174739655,-1.1474609,-0.3408203,0.25097656,0.15625,-19.53125,-17.1875
673,673,1727174739695,-0.9375,-0.12207031,0.2861328,6.84375,-8.90625,-12.53125
674,674,1727174739735,-0.8515625,-0.21484375,0.17285156,-12.96875,-6.03125,0.03125
675,675,1727174739775,-0.92578125,-0.2890625,0.13769531,9.90625,-7.21875,9.875
676,676,1727174739815,-0.9892578,-0.3486328,0.20410156,18.5625,-4.53125,6.5625
677,677,1727174739855,-1.0224609,-0.4267578,0.20996094,12.53125,-0.96875,-11.25
678,678,1727174739895,-0.98046875,-0.3095703,0.25,14.0625,-5.3125,-21.3125
679,679,1727174739935,-0.80566406,-0.051757812,0.13183594,18.875,-8.4375,-14.0625
680,680,1727174739975,-0.8466797,-0.0048828125,0.16113281,-1.3125,0.78125,-0.8125
681,681,1727174740015,-0.8857422,-0.20605469,0.171875,-24.75,4.375,4.90625
682,682,1727174740055,-0.80371094,-0.18945312,0.2109375,-10.1875,-3.1875,12.65625
683,683,1727174740095,-0.7392578,-0.07128906,0.11425781,-7.78125,-4.46875,20.65625
684,684,1727174740135,-0.70996094,-0.14257812,0.10839844,-23.59375,5.78125,28.28125
685,685,1727174740175,-0.66796875,-0.20019531,0.11621094,-14.8125,14.34375,37.625
686,686,1727174740215,-0.6640625,-0.07910156,0.1953125,11.375,7.0625,43.0
687,687,1727174740255,-0.63671875,-0.044921875,0.1171875,37.3125,-4.59375,41.78125
688,688,1727174740295,-0.67285156,-0.26464844,-0.029296875,55.4375,5.90625,51.0
689,689,1727174740335,-0.8652344,-0.25878906,0.052734375,40.71875,35.875,42.625
690,690,1727174740375,-0.98339844,-0.19433594,0.25390625,36.03125,33.25,34.28125
691,691,1727174740415,-0.96777344,-0.31347656,0.3642578,22.46875,29.125,24.5625
692,692,1727174740455,-0.93847656,-0.14160156,0.27929688,-1.75,18.6875,5.34375
693,693,1727174740495,-1.0947266,-0.11621094,0.4111328,-25.1875,18.3125,-0.21875
694,694,1727174740535,-1.2861328,-0.5878906,0.018554688,-78.28125,2.0,-30.53125
695,695,1727174740575,-1.0703125,0.38378906,-0.0703125,87.3125,2.875,-23.53125
696,696,1727174740615,-0.9316406,0.018554688,-0.040039062,-81.71875,-8.25,-32.6875
697,697,1727174740655,-1.5136719,-0.15234375,0.48046875,-49.96875,-21.84375,-22.90625
698,698,1727174740695,-1.1806641,0.07519531,-0.25976562,79.25,2.875,-17.84375
699,699,1727174740735,-1.1337891,-0.13574219,-0.25390625,-22.8125,13.53125,15.125
700,700,1727174740775,-1.1962891,-0.25,0.036132812,-1.625,19.71875,1.6875
701,701,1727174740815,-1.1474609,0.20703125,0.03125,31.5,17.8125,17.5
702,702,1727174740855,-1.0341797,-0.037109375,-0.001953125,24.4375,26.1875,33.4375
703,703,1727174740895,-1.0166016,-0.047851562,-0.020507812,24.125,34.125,40.125
704,704,1727174740935,-0.9394531,-0.026367188,-0.056640625,32.96875,43.8125,46.4375
705,705,1727174740975,-0.99609375,-0.028320312,-0.043945312,40.0,38.15625,47.875
706,706,1727174741015,-0.88183594,-0.078125,0.0,56.96875,35.8125,40.25
707,707,1727174741055,-0.8535156,-0.16113281,-0.11816406,24.96875,22.9375,20.1875
708,708,1727174741095,-0.8330078,-0.0390625,0.018554688,-28.96875,29.0625,5.96875
709,709,1727174741135,-0.984375,-0.017578125,-0.0048828125,-9.375,12.9375,7.53125
710,710,1727174741175,-0.97558594,-0.099609375,-0.095703125,15.21875,3.59375,6.625
711,711,1727174741215,-0.9560547,-0.09277344,-0.10253906,14.96875,-4.71875,-1.5625
712,712,1727174741255,-0.91796875,-0.013671875,-0.036132812,4.15625,-11.0,-8.6875
713,713,1727174741295,-0.9707031,-0.09082031,-0.03515625,6.5625,-6.71875,-8.8125
714,714,1727174741335,-0.86816406,-0.09082031,-0.1015625,20.78125,-21.25,-12.0625
715,715,1727174741375,-0.7705078,-0.19433594,0.1796875,-87.25,-40.53125,-33.71875
716,716,1727174741415,-0.7607422,0.0,0.032226562,-33.375,-34.90625,-43.3125
717,717,1727174741455,-0.8261719,0.05078125,-0.15722656,12.78125,-22.53125,-27.78125
718,718,1727174741495,-0.796875,-0.06542969,-0.0048828125,-37.03125,-27.78125,-21.9375
719,719,1727174741535,-1.0039062,-0.041992188,-0.20214844,30.78125,-8.0625,-18.28125
720,720,1727174741575,-0.8798828,-0.12402344,-0.072265625,-38.8125,-6.53125,-17.65625
721,721,1727174741615,-0.8779297,-0.009765625,-0.08984375,0.15625,-24.125,-25.21875
722,722,1727174741655,-0.9892578,-0.24902344,-0.057617188,-10.125,-13.0625,-17.96875
723,723,1727174741695,-0.89746094,0.0068359375,-0.08203125,8.03125,-24.34375,-26.6875
724,724,1727174741735,-1.2402344,-0.32617188,0.05859375,-3.40625,-35.90625,-23.78125
725,725,1727174741775,-1.4804688,-0.3466797,0.3779297,-98.0625,-32.96875,-74.65625
726,726,1727174741815,-0.99121094,0.12597656,0.020507812,-13.34375,-17.40625,-45.8125
727,727,1727174741855,-1.2099609,-0.5263672,0.08496094,37.0,-21.625,-5.40625
728,728,1727174741895,-1.0146484,-0.14453125,0.17480469,18.9375,-26.6875,-13.28125
729,729,1727174741935,-0.9326172,-0.0107421875,0.21582031,-0.15625,-17.53125,-6.5625
730,730,1727174741975,-0.9941406,-0.19042969,0.11230469,-30.5,5.4375,9.4375
731,731,1727174742015,-0.9394531,-0.29492188,0.16308594,-11.875,5.5625,20.71875
732,732,1727174742055,-0.94433594,-0.2861328,0.15234375,15.46875,-1.53125,21.09375
733,733,1727174742095,-0.9873047,-0.30078125,0.1796875,21.625,-4.9375,11.375
734,734,1727174742135,-0.95214844,-0.24902344,0.23632812,5.34375,-2.75,-1.5625
735,735,1727174742175,-1.0078125,-0.28808594,0.2109375,1.4375,-2.9375,-10.53125
736,736,1727174742215,-0.95703125,-0.23242188,0.16894531,-12.6875,-5.625,-14.6875
737,737,1727174742255,-0.9140625,-0.1640625,0.18359375,-21.09375,-10.3125,-18.59375
738,738,1727174742295,-0.82910156,-0.111328125,0.103515625,-5.15625,-8.5625,-11.375
739,739,1727174742335,-0.8515625,-0.14160156,0.14453125,-1.4375,-6.78125,0.59375
740,740,1727174742375,-0.8466797,-0.17675781,0.16113281,-2.0625,-11.28125,4.125
741,741,1727174742415,-0.7998047,-0.060546875,0.13574219,9.78125,-9.65625,12.1875
742,742,1727174742455,-0.7871094,-0.08105469,0.14355469,-0.03125,2.3125,19.5625
743,743,1727174742495,-0.78808594,-0.15332031,0.14550781,-12.125,16.96875,29.46875
744,744,1727174742535,-0.82910156,-0.26367188,0.13769531,0.9375,20.25,37.15625
745,745,1727174742575,-0.74316406,-0.14746094,0.12792969,22.375,12.5625,35.3125
746,746,1727174742615,-0.6220703,-0.2265625,0.06347656,57.5625,-4.21875,33.65625
747,747,1727174742655,-0.7207031,-0.09765625,0.0390625,54.90625,9.9375,25.125
748,748,1727174742695,-0.8574219,-0.16015625,0.25976562,50.625,27.78125,29.875
749,749,1727174742735,-0.90234375,-0.29003906,0.12695312,60.03125,28.4375,25.0
750,750,1727174742775,-1.0078125,-0.1640625,0.20019531,30.90625,29.65625,13.15625
751,751,1727174742815,-1.0810547,0.04296875,0.2763672,24.6875,33.1875,7.375
752,752,1727174742855,-1.0751953,-0.07421875,0.26171875,6.78125,18.6875,13.03125
753,753,1727174742895,-1.1630859,-0.0146484375,0.17382812,-0.78125,32.46875,11.875
754,754,1727174742935,-1.1367188,-0.07128906,-0.25390625,46.65625,24.53125,15.34375
755,755,1727174742975,-1.1962891,0.43652344,0.2783203,-37.03125,51.625,3.5625
756,756,1727174743015,-1.4902344,-0.099609375,-0.068359375,-11.09375,11.34375,8.21875
757,757,1727174743055,-1.1875,-0.20703125,-0.1484375,-112.15625,-2.125,-1.375
758,758,1727174743095,-0.78125,0.001953125,0.029296875,75.40625,8.0625,4.5625
759,759,1727174743135,-0.8955078,0.059570312,-0.21484375,59.53125,-3.78125,5.71875
