,Unnamed: 0,timestamp,accel_x,accel_y,accel_z,gyro_x,gyro_y,gyro_z
0,0,1727899288364,-0.9765625,0.07519531,-0.12402344,-14.5,1.8125,1.4375
1,1,1727899288404,-0.99316406,0.078125,-0.068359375,-7.0625,2.5,2.46875
2,2,1727899288444,-1.0185547,0.05859375,-0.09277344,-9.6875,3.28125,2.15625
3,3,1727899288484,-0.99609375,0.09667969,-0.087890625,-8.75,1.75,2.15625
4,4,1727899288524,-0.9902344,0.026367188,-0.095703125,-9.125,2.875,2.03125
5,5,1727899288564,-1.0136719,0.06347656,-0.12890625,-7.84375,5.78125,2.34375
6,6,1727899288604,-0.9863281,0.017578125,-0.12792969,-12.65625,14.15625,-0.90625
7,7,1727899288644,-0.9785156,0.059570312,-0.16601562,-15.90625,18.1875,-1.6875
8,8,1727899288684,-1.0097656,0.087890625,-0.09667969,-7.09375,11.96875,1.0
9,9,1727899288724,-1.0126953,0.08984375,-0.07421875,-11.8125,4.28125,2.28125
10,10,1727899288764,-1.0498047,0.06738281,-0.041992188,-8.8125,-4.875,4.78125
11,11,1727899288804,-1.0087891,0.12890625,-0.01953125,-9.3125,-12.59375,7.34375
12,12,1727899288844,-0.9980469,0.09863281,0.005859375,-6.3125,-20.75,9.90625
13,13,1727899288884,-1.0224609,0.12792969,0.0107421875,-3.1875,-32.0,12.65625
14,14,1727899288924,-1.1318359,0.14648438,0.018554688,-2.65625,-34.25,10.34375
15,15,1727899288964,-1.0966797,0.16699219,-0.020507812,-6.0625,-43.40625,3.1875
16,16,1727899289004,-1.0234375,0.14941406,0.057617188,9.90625,-73.5625,7.71875
17,17,1727899289044,-1.0722656,0.15332031,0.0859375,16.5,-77.59375,19.90625
18,18,1727899289084,-0.9667969,0.18261719,0.103515625,44.96875,-79.15625,26.5
19,19,1727899289124,-0.8798828,0.14453125,0.10449219,43.5,-54.8125,26.625
20,20,1727899289164,-1.0224609,0.13964844,-0.0146484375,28.71875,-48.03125,27.65625
21,21,1727899289204,-0.89160156,0.20117188,0.14746094,9.8125,-22.34375,10.6875
22,22,1727899289244,-0.8925781,0.15332031,0.14941406,-10.65625,-5.8125,-0.21875
23,23,1727899289284,-0.83691406,0.15332031,0.123046875,-21.28125,8.84375,-5.90625
24,24,1727899289324,-0.8105469,0.20996094,0.11328125,-35.90625,21.34375,-7.90625
25,25,1727899289364,-0.8125,0.20800781,0.17089844,-30.125,23.4375,-3.15625
26,26,1727899289404,-0.7890625,0.25585938,0.24804688,-2.59375,23.25,10.8125
27,27,1727899289444,-0.9609375,0.18554688,0.36816406,-3.4375,7.1875,3.125
28,28,1727899289484,-0.85253906,0.09082031,0.34277344,-14.6875,6.21875,-11.5625
29,29,1727899289524,-0.71484375,0.13085938,0.15136719,-5.15625,4.8125,8.3125
30,30,1727899289564,-0.80566406,0.109375,0.16210938,32.125,8.1875,11.75
31,31,1727899289604,-0.8496094,0.08496094,0.047851562,18.71875,52.46875,-10.1875
32,32,1727899289644,-0.9394531,0.31640625,0.051757812,37.6875,34.34375,-15.71875
33,33,1727899289684,-1.0449219,0.30078125,0.140625,63.21875,14.65625,-14.1875
34,34,1727899289724,-1.0390625,0.13769531,0.07128906,9.125,18.90625,-39.21875
35,35,1727899289764,-0.9355469,0.48632812,0.033203125,-4.125,20.0625,-39.65625
36,36,1727899289804,-1.4726562,0.23046875,0.12207031,38.65625,7.4375,-20.375
37,37,1727899289844,-1.4628906,0.5126953,-0.09765625,-126.0,47.84375,-26.71875
38,38,1727899289884,-1.0410156,0.024414062,-0.23828125,7.46875,-14.96875,16.1875
39,39,1727899289924,-1.2294922,-0.16992188,-0.06738281,37.3125,-2.25,2.78125
40,40,1727899289964,-1.2158203,-0.23339844,-0.08691406,-34.625,32.03125,-24.09375
41,41,1727899290004,-1.0097656,-0.059570312,-0.15332031,-3.1875,40.8125,-38.375
42,42,1727899290044,-0.98046875,0.16308594,-0.0859375,0.03125,29.65625,-39.46875
43,43,1727899290084,-0.98535156,0.0703125,0.018554688,1.3125,6.9375,-16.6875
44,44,1727899290124,-0.9921875,-0.01953125,0.07714844,-11.375,7.25,-8.34375
45,45,1727899290164,-0.9941406,-0.060546875,0.052734375,-12.59375,11.65625,-6.75
46,46,1727899290204,-0.9951172,-0.0048828125,0.12792969,-9.71875,11.15625,-10.78125
47,47,1727899290244,-0.9560547,0.11035156,0.16894531,-16.3125,-4.53125,-2.46875
48,48,1727899290284,-0.8046875,0.13964844,0.17382812,-26.59375,-45.59375,10.28125
49,49,1727899290324,-0.9814453,-0.0009765625,0.33007812,31.09375,-80.4375,32.375
50,50,1727899290364,-0.70703125,-0.08691406,-0.16210938,-54.84375,-47.5625,-2.40625
51,51,1727899290404,-0.52734375,-0.16308594,-0.16992188,32.5,-79.90625,0.03125
52,52,1727899290444,-1.1503906,-0.09082031,0.2841797,92.8125,-87.21875,34.375
53,53,1727899290484,-0.7080078,0.5019531,0.16113281,37.875,-83.0,14.59375
54,54,1727899290524,-1.1142578,-0.1875,0.3359375,-20.0625,-45.1875,25.59375
55,55,1727899290564,-1.1816406,-0.0703125,0.3671875,-13.40625,-42.375,6.3125
56,56,1727899290604,-1.4326172,-0.11621094,0.5048828,41.71875,-59.6875,1.90625
57,57,1727899290644,-1.2714844,0.32421875,0.42578125,44.78125,-60.6875,16.3125
58,58,1727899290684,-1.6074219,0.33496094,0.49609375,63.21875,-102.71875,54.09375
59,59,1727899290724,-1.0517578,0.1171875,0.32226562,95.78125,-78.0,46.28125
60,60,1727899290764,-0.66308594,0.021484375,0.14648438,77.65625,-42.25,32.0625
61,61,1727899290804,-0.9433594,0.11816406,0.26464844,63.6875,-31.6875,16.3125
62,62,1727899290844,-0.67285156,0.2998047,0.20703125,41.40625,-18.875,0.5
63,63,1727899290884,-0.6748047,0.33496094,0.18652344,-9.0,8.40625,-11.625
64,64,1727899290924,-0.76464844,0.2578125,0.17871094,-19.625,36.75,-15.3125
65,65,1727899290964,-0.59277344,0.33691406,0.23242188,-44.15625,71.65625,-7.375
66,66,1727899291004,-0.55371094,0.19921875,0.12890625,-43.4375,94.15625,4.0
67,67,1727899291044,-0.9111328,0.15917969,0.33007812,-38.78125,92.28125,38.21875
68,68,1727899291084,-0.7734375,0.14550781,0.37890625,-41.34375,47.65625,-10.46875
69,69,1727899291124,-0.63671875,-0.017578125,0.3984375,-25.25,32.59375,-26.40625
70,70,1727899291164,-0.91796875,-0.021484375,0.22949219,6.75,88.4375,-5.15625
71,71,1727899291204,-1.1494141,0.29296875,0.12207031,-19.625,96.5625,-56.0
72,72,1727899291244,-1.0224609,0.3486328,0.21289062,75.21875,33.5625,-50.15625
73,73,1727899291284,-1.0478516,0.5107422,0.17382812,35.0625,29.96875,-39.96875
74,74,1727899291324,-1.4111328,0.67089844,-0.06738281,-47.40625,64.625,-33.78125
75,75,1727899291364,-0.8095703,0.07519531,0.032226562,38.375,-4.09375,4.40625
76,76,1727899291404,-1.8798828,0.12597656,-0.16503906,-39.34375,27.8125,14.0
77,77,1727899291444,-1.234375,-0.14648438,0.296875,119.59375,-82.15625,4.59375
78,78,1727899291484,-0.8828125,-0.16699219,0.2705078,3.5,-5.25,-23.28125
79,79,1727899291524,-1.0664062,-0.13769531,-0.33984375,-132.28125,92.65625,-55.28125
80,80,1727899291564,-0.8984375,0.2529297,-0.36035156,-17.71875,43.8125,-38.3125
81,81,1727899291604,-1.0751953,0.037109375,0.087890625,123.09375,-6.21875,-2.78125
82,82,1727899291644,-0.9423828,0.04296875,0.13769531,-8.6875,45.15625,-19.6875
83,83,1727899291684,-1.0214844,0.09667969,0.13085938,17.5,8.53125,-11.625
84,84,1727899291724,-0.8964844,0.2763672,0.2939453,0.40625,-26.25,4.71875
85,85,1727899291764,-0.87890625,0.06640625,0.10644531,-51.90625,-43.9375,14.3125
86,86,1727899291804,-0.8515625,-0.08496094,0.08203125,-15.15625,-50.25,4.71875
87,87,1727899291844,-0.73828125,-0.08496094,-0.15136719,-7.09375,-73.84375,-0.65625
88,88,1727899291884,-0.7626953,0.1328125,0.17382812,43.5,-91.0625,19.6875
89,89,1727899291924,-1.0839844,-0.07324219,0.21679688,14.625,-67.03125,8.25
90,90,1727899291964,-0.7792969,0.2841797,0.1640625,-27.96875,-34.375,2.15625
91,91,1727899292004,-1.0332031,-0.10253906,0.28125,-2.59375,-43.21875,23.21875
92,92,1727899292044,-1.2099609,-0.083984375,0.36914062,2.34375,-24.65625,27.96875
93,93,1727899292084,-1.2783203,-0.013671875,0.50390625,17.65625,-26.875,19.625
94,94,1727899292124,-1.4023438,0.4140625,0.42285156,35.4375,-71.96875,52.03125
95,95,1727899292164,-1.4716797,0.3984375,0.390625,71.5,-106.9375,80.96875
96,96,1727899292204,-0.92285156,-0.1484375,0.14160156,60.40625,-53.34375,25.59375
97,97,1727899292244,-0.8544922,-0.14453125,0.13574219,81.15625,-37.0,20.78125
98,98,1727899292284,-0.80859375,0.33984375,0.19140625,75.15625,-24.96875,9.90625
99,99,1727899292324,-0.68359375,0.3310547,0.12011719,27.6875,-7.03125,-14.5625
100,100,1727899292364,-0.74121094,0.13867188,0.20996094,18.59375,11.78125,-22.0625
101,101,1727899292404,-0.57421875,0.20996094,0.12792969,4.5,41.5,-30.125
102,102,1727899292444,-0.5605469,0.21582031,0.05859375,-41.78125,86.59375,-26.78125
103,103,1727899292484,-0.8457031,0.06347656,0.13867188,-17.59375,109.125,-15.125
104,104,1727899292524,-1.0136719,0.076171875,0.34960938,8.15625,80.9375,-16.8125
105,105,1727899292564,-0.69628906,0.34960938,0.5136719,18.21875,28.0625,-31.15625
106,106,1727899292604,-0.8408203,0.31445312,0.13671875,19.0625,56.15625,-10.71875
107,107,1727899292644,-1.0595703,0.22363281,-0.08300781,2.09375,25.09375,-1.875
108,108,1727899292684,-1.1181641,0.265625,0.18457031,87.4375,-1.59375,-19.375
109,109,1727899292724,-1.0117188,0.33984375,0.21289062,-2.71875,21.71875,-30.0625
110,110,1727899292764,-1.2949219,0.25585938,0.01953125,10.96875,29.40625,-19.4375
111,111,1727899292804,-1.3095703,0.53515625,-0.038085938,5.34375,21.96875,-11.5625
112,112,1727899292844,-0.93359375,0.39257812,-0.060546875,-36.71875,6.90625,4.90625
113,113,1727899292884,-1.0097656,-0.42578125,0.07714844,90.71875,-27.21875,7.09375
114,114,1727899292924,-1.8535156,0.38671875,0.4794922,-7.46875,-14.46875,-15.0625
115,115,1727899292964,-0.69921875,0.09765625,-0.038085938,-7.96875,14.21875,-3.53125
116,116,1727899293004,-1.0791016,-0.34375,-0.013671875,28.59375,0.46875,-17.625
117,117,1727899293044,-1.0722656,0.296875,0.013671875,6.5625,-4.53125,-26.96875
118,118,1727899293084,-0.8515625,0.10644531,0.14355469,67.28125,-8.5,-3.34375
119,119,1727899293124,-1.0380859,-0.19921875,0.22363281,12.0,0.0625,-23.125
120,120,1727899293164,-0.8730469,0.095703125,0.12011719,44.59375,-13.125,-23.78125
121,121,1727899293204,-0.8359375,0.27929688,0.24511719,54.40625,-20.15625,-13.96875
122,122,1727899293244,-0.92578125,0.15917969,0.20605469,28.90625,-26.875,0.25
123,123,1727899293284,-0.90234375,0.06347656,-0.021484375,8.28125,-15.8125,3.5625
124,124,1727899293324,-1.0078125,-0.13964844,0.20605469,37.8125,-7.28125,-16.875
125,125,1727899293364,-0.8027344,0.19726562,0.043945312,13.71875,-21.0625,-4.625
126,126,1727899293404,-1.0097656,0.04296875,0.18261719,57.40625,-16.59375,11.1875
127,127,1727899293444,-1.0068359,0.047851562,0.09667969,28.34375,-9.53125,-1.9375
128,128,1727899293484,-0.8183594,0.08300781,0.22851562,62.71875,-15.875,10.28125
129,129,1727899293524,-1.0488281,0.032226562,0.14453125,34.6875,15.5,3.8125
130,130,1727899293564,-0.96875,-0.0087890625,0.14453125,33.40625,20.75,0.15625
131,131,1727899293604,-0.88671875,-0.047851562,0.16992188,39.65625,34.96875,-9.875
132,132,1727899293644,-1.0361328,0.0029296875,0.2529297,42.03125,52.78125,-18.03125
133,133,1727899293684,-1.0185547,0.27148438,0.3330078,45.6875,42.90625,-14.5625
134,134,1727899293724,-1.4423828,-0.2685547,0.3564453,82.125,14.65625,-21.90625
135,135,1727899293764,-1.5683594,0.64746094,0.22265625,104.875,-48.90625,9.71875
136,136,1727899293804,-1.0361328,0.03515625,0.25097656,150.53125,-104.25,61.0625
137,137,1727899293844,-1.3320312,-0.56640625,0.046875,189.3125,-85.09375,73.375
138,138,1727899293884,-1.5634766,-0.02734375,0.12011719,142.84375,-93.03125,44.03125
139,139,1727899293924,-1.0849609,-0.21386719,0.12597656,103.65625,-88.09375,14.71875
140,140,1727899293964,-0.8310547,-0.17089844,0.203125,156.84375,-88.6875,-1.125
141,141,1727899294004,-0.89160156,-0.12207031,0.08886719,177.59375,-91.5625,-11.5
142,142,1727899294044,-0.84277344,0.14746094,0.16992188,142.0625,-64.09375,-16.40625
143,143,1727899294084,-0.9707031,0.19042969,0.10253906,145.40625,-61.03125,-16.9375
144,144,1727899294124,-0.92285156,0.09765625,0.22265625,124.1875,-57.4375,-22.4375
145,145,1727899294164,-0.9375,0.13769531,0.13769531,93.15625,-47.6875,-24.46875
146,146,1727899294204,-0.8330078,0.23632812,0.1640625,91.875,-52.9375,-24.21875
147,147,1727899294244,-0.74316406,0.23046875,0.21875,74.625,-56.21875,-27.75
148,148,1727899294284,-0.7548828,0.13964844,0.27441406,69.1875,-43.84375,-31.78125
149,149,1727899294324,-0.87402344,0.14746094,0.40429688,74.375,-31.5625,-38.3125
150,150,1727899294364,-1.0908203,0.21386719,0.57128906,118.875,-51.09375,-43.875
151,151,1727899294404,-0.8183594,0.26367188,0.31445312,128.625,-52.1875,-35.4375
152,152,1727899294444,-0.37402344,0.37304688,-0.056640625,118.3125,-62.875,-21.59375
153,153,1727899294484,-0.80566406,0.2685547,0.5859375,95.0,-66.65625,-48.625
154,154,1727899294524,-0.7685547,0.09375,0.119140625,61.5,-4.03125,-23.34375
155,155,1727899294564,-0.6953125,0.25585938,0.38378906,100.5,-5.0,-30.9375
156,156,1727899294604,-0.8339844,0.2861328,0.203125,82.0625,19.46875,-27.25
157,157,1727899294644,-0.76660156,0.33691406,0.33398438,54.0,16.71875,-34.34375
158,158,1727899294684,-0.984375,0.25683594,0.29882812,38.375,50.15625,-22.0
159,159,1727899294724,-0.87402344,0.61621094,0.19140625,20.125,25.8125,0.375
160,160,1727899294764,-1.7197266,0.72753906,0.43066406,10.21875,8.0625,12.65625
161,161,1727899294804,-1.0214844,0.0107421875,0.234375,-81.8125,-11.0,-81.09375
162,162,1727899294844,-1.6640625,0.3310547,0.18066406,-49.84375,76.40625,5.875
163,163,1727899294884,-0.6376953,0.24609375,0.028320312,46.0,-41.09375,6.84375
164,164,1727899294924,-0.9160156,-0.5449219,0.12988281,44.28125,15.1875,-31.15625
165,165,1727899294964,-1.25,-0.09375,0.10546875,-46.84375,83.96875,-48.875
166,166,1727899295004,-0.84375,0.7001953,0.03515625,-6.0625,58.96875,-46.5
167,167,1727899295044,-1.0322266,0.119140625,-0.041015625,24.03125,62.875,-24.5625
168,168,1727899295084,-1.0927734,-0.17675781,-0.06738281,39.78125,48.875,-30.5
169,169,1727899295124,-0.953125,0.09667969,-0.072265625,7.34375,27.75,-52.71875
170,170,1727899295164,-0.98339844,0.25878906,0.119140625,51.53125,-3.96875,-36.40625
171,171,1727899295204,-0.9892578,0.0546875,-0.041992188,-14.8125,32.21875,-26.90625
172,172,1727899295244,-0.90722656,0.11621094,0.0029296875,15.71875,-0.625,-19.6875
173,173,1727899295284,-1.0390625,-0.08203125,0.06933594,-2.78125,12.3125,-18.65625
174,174,1727899295324,-0.91503906,0.10449219,-0.009765625,-10.71875,8.90625,-17.375
175,175,1727899295364,-0.8808594,0.20605469,0.06542969,20.84375,-25.8125,4.84375
176,176,1727899295404,-0.8232422,0.046875,0.27929688,14.5,-66.09375,12.59375
177,177,1727899295444,-0.765625,-0.05859375,0.015625,-21.4375,-65.5,-6.5
178,178,1727899295484,-0.86328125,0.16992188,-0.17382812,-6.9375,-40.21875,10.6875
179,179,1727899295524,-0.8203125,-0.0087890625,0.09472656,25.96875,-61.96875,12.53125
180,180,1727899295564,-0.83203125,0.25976562,0.26464844,32.0,-64.875,25.96875
181,181,1727899295604,-1.1767578,-0.33203125,0.21679688,-11.4375,-35.96875,9.59375
182,182,1727899295644,-0.9873047,0.12011719,0.31152344,-13.21875,-19.0625,-7.125
183,183,1727899295684,-1.3535156,0.005859375,0.23339844,41.40625,-31.0625,16.9375
184,184,1727899295724,-1.1669922,0.28320312,0.40527344,49.15625,-39.5,29.5625
185,185,1727899295764,-1.2958984,0.4326172,0.26367188,51.375,-72.09375,77.65625
186,186,1727899295804,-1.5341797,0.45410156,0.29003906,88.28125,-73.84375,119.34375
187,187,1727899295844,-1.0761719,-0.125,0.19824219,108.6875,-64.40625,69.40625
188,188,1727899295884,-0.80371094,0.123046875,0.21191406,52.875,-41.3125,47.6875
189,189,1727899295924,-0.9433594,0.22558594,0.2685547,52.71875,-44.375,32.84375
190,190,1727899295964,-0.7216797,0.33496094,0.22949219,32.625,-32.46875,10.75
191,191,1727899296004,-0.57128906,0.265625,0.15625,24.4375,1.53125,-4.25
192,192,1727899296044,-0.57910156,0.2939453,0.14746094,-11.8125,38.375,-15.25
193,193,1727899296084,-0.69433594,0.32421875,0.12695312,-49.65625,62.375,-24.15625
194,194,1727899296124,-0.58984375,0.22167969,0.16503906,-74.75,100.59375,-29.15625
195,195,1727899296164,-0.703125,0.021484375,0.3623047,-49.40625,117.90625,-24.625
196,196,1727899296204,-0.8457031,0.32714844,0.33984375,-50.1875,69.03125,-22.5
197,197,1727899296244,-0.78515625,0.33789062,0.31445312,2.96875,57.25,-28.3125
198,198,1727899296284,-1.0898438,0.16113281,0.08984375,17.90625,49.5625,-24.5
199,199,1727899296324,-1.0800781,0.3173828,0.16601562,5.28125,35.21875,-59.1875
200,200,1727899296364,-1.2324219,0.47265625,0.12695312,-14.6875,62.3125,-59.0
201,201,1727899296404,-1.2275391,0.7050781,0.01953125,-15.96875,32.09375,-36.78125
202,202,1727899296444,-1.2285156,0.27929688,0.04296875,17.25,11.09375,-15.84375
203,203,1727899296484,-1.2246094,0.060546875,0.11328125,-57.09375,31.65625,-32.15625
204,204,1727899296524,-0.8359375,-0.025390625,-0.13574219,-12.96875,25.625,-21.59375
205,205,1727899296564,-1.4101562,-0.087890625,-0.103515625,15.0,24.71875,-19.75
206,206,1727899296604,-1.2763672,0.18945312,-0.022460938,-25.59375,19.84375,-19.9375
207,207,1727899296644,-0.9580078,-0.12109375,0.02734375,31.21875,-2.5625,-12.0
208,208,1727899296684,-0.9980469,-0.12207031,-0.2685547,-56.1875,18.1875,-31.40625
209,209,1727899296724,-1.015625,0.07519531,0.11035156,20.0,-17.34375,-15.53125
210,210,1727899296764,-0.8779297,0.13476562,0.04296875,-20.71875,4.625,-18.78125
211,211,1727899296804,-0.8339844,-0.0087890625,-0.0029296875,1.0625,-23.5625,-10.53125
212,212,1727899296844,-0.96191406,0.041992188,0.36035156,55.875,-87.90625,-0.34375
213,213,1727899296884,-0.6796875,0.03515625,-0.16601562,28.0,-58.125,-16.03125
214,214,1727899296924,-0.7138672,0.115234375,0.24902344,36.40625,-97.25,12.65625
215,215,1727899296964,-1.0585938,-0.03125,0.1640625,-4.65625,-67.875,-0.53125
216,216,1727899297004,-0.6904297,0.0390625,0.13183594,-5.78125,-53.71875,2.78125
217,217,1727899297044,-1.171875,-0.22363281,0.4091797,-5.28125,-34.3125,13.03125
218,218,1727899297084,-1.0722656,-0.03515625,0.43359375,28.0625,-51.03125,7.96875
219,219,1727899297124,-1.2099609,0.3408203,0.5917969,54.21875,-63.96875,49.21875
220,220,1727899297164,-1.2597656,0.2841797,0.40625,60.28125,-86.25,75.875
221,221,1727899297204,-1.765625,0.29785156,0.5371094,73.53125,-103.875,127.09375
222,222,1727899297244,-1.0820312,-0.27246094,0.28125,85.71875,-55.5625,49.65625
223,223,1727899297284,-0.73046875,0.21386719,0.24414062,71.8125,-30.84375,29.5
224,224,1727899297324,-0.7949219,0.30566406,0.11328125,51.59375,-11.90625,12.28125
225,225,1727899297364,-0.6308594,0.27246094,0.060546875,41.34375,5.0,1.53125
226,226,1727899297404,-0.61621094,0.22949219,0.1328125,32.4375,24.09375,0.4375
227,227,1727899297444,-0.6816406,0.40527344,0.16796875,-28.78125,70.0625,-14.6875
228,228,1727899297484,-0.6699219,0.3095703,0.16992188,-69.125,102.65625,-21.53125
229,229,1727899297524,-0.6767578,0.0068359375,0.18652344,-43.5,109.0,-16.28125
230,230,1727899297564,-1.0449219,-0.06347656,0.19238281,-21.15625,103.03125,-13.96875
231,231,1727899297604,-1.078125,0.32421875,0.421875,-0.75,80.0625,-61.9375
232,232,1727899297644,-0.703125,0.44335938,0.5625,19.375,39.0,-42.53125
233,233,1727899297684,-0.92089844,0.25097656,0.07324219,-23.78125,25.6875,-28.78125
234,234,1727899297724,-0.9169922,0.19921875,-0.072265625,-14.4375,31.71875,-38.8125
235,235,1727899297764,-1.0058594,0.42773438,0.109375,62.40625,2.9375,-33.125
236,236,1727899297804,-1.2197266,0.39746094,-0.029296875,-9.5,39.53125,-37.15625
237,237,1727899297844,-1.3310547,0.3076172,0.00390625,-5.8125,47.40625,-30.6875
238,238,1727899297884,-1.0205078,0.08691406,0.049804688,-31.34375,16.40625,-21.09375
239,239,1727899297924,-1.1640625,-0.09277344,-0.16894531,8.03125,21.78125,-3.34375
240,240,1727899297964,-1.7744141,0.016601562,0.27539062,25.71875,-47.0625,-18.21875
241,241,1727899298004,-0.8613281,0.26367188,-0.018554688,-7.46875,-2.8125,-10.125
242,242,1727899298044,-1.1181641,-0.5107422,-0.3173828,-26.09375,37.59375,-19.9375
243,243,1727899298084,-0.97558594,0.27539062,-0.10058594,-1.875,-9.96875,-29.875
244,244,1727899298124,-0.83496094,0.19042969,0.091796875,13.9375,-4.78125,-5.90625
245,245,1727899298164,-1.0507812,-0.16894531,0.041015625,-1.6875,4.21875,-11.5625
246,246,1727899298204,-0.77441406,0.028320312,0.14355469,22.90625,-10.3125,-15.46875
247,247,1727899298244,-1.1230469,0.20996094,0.15429688,13.9375,-9.40625,-4.0
248,248,1727899298284,-0.875,0.12402344,-0.043945312,40.3125,-36.375,4.125
249,249,1727899298324,-0.8847656,-0.08105469,0.0146484375,10.34375,-33.21875,19.4375
250,250,1727899298364,-0.9394531,0.0068359375,0.15234375,23.28125,-40.84375,19.75
251,251,1727899298404,-0.89453125,0.20800781,0.15722656,38.3125,-61.53125,27.25
252,252,1727899298444,-0.7167969,-0.17871094,0.064453125,-41.21875,-19.125,11.9375
253,253,1727899298484,-1.2382812,0.0234375,0.40429688,32.5625,-46.46875,22.46875
254,254,1727899298524,-0.79785156,0.19238281,0.33007812,22.125,-30.03125,0.875
255,255,1727899298564,-0.9111328,0.10449219,0.25878906,3.15625,-21.5,16.0625
256,256,1727899298604,-0.98535156,0.13085938,0.30664062,31.46875,-32.0,27.0625
257,257,1727899298644,-1.3066406,0.37890625,0.43847656,47.875,-82.34375,66.84375
258,258,1727899298684,-1.5107422,0.46777344,0.4248047,118.0625,-130.3125,136.6875
259,259,1727899298724,-1.5917969,-0.0087890625,0.3017578,66.1875,-100.78125,90.28125
260,260,1727899298764,-0.9013672,-0.060546875,0.3203125,43.625,-46.6875,2.21875
261,261,1727899298804,-0.671875,0.20214844,0.16308594,30.1875,-21.6875,-9.9375
262,262,1727899298844,-0.78222656,0.19140625,0.0859375,8.75,-10.3125,-28.84375
263,263,1727899298884,-0.765625,0.19140625,0.17480469,23.53125,18.125,-48.8125
264,264,1727899298924,-0.53125,0.22460938,0.048828125,25.53125,39.84375,-55.21875
265,265,1727899298964,-0.49121094,0.25683594,0.06933594,-25.71875,94.65625,-39.15625
266,266,1727899299004,-0.78808594,0.20410156,-0.0078125,-11.5625,117.0625,-8.46875
267,267,1727899299044,-1.3056641,0.1796875,0.16601562,32.25,98.625,-45.9375
268,268,1727899299084,-0.68652344,0.5390625,0.6738281,-4.1875,18.90625,-37.5625
269,269,1727899299124,-0.9238281,0.20410156,0.27148438,53.5,25.9375,-7.375
270,270,1727899299164,-1.0244141,-0.057617188,-0.14257812,27.5625,-5.375,-13.53125
271,271,1727899299204,-0.98339844,0.21386719,0.3955078,-3.625,-6.53125,-57.0625
272,272,1727899299244,-0.9082031,0.40429688,-0.044921875,-30.90625,69.875,-57.0
273,273,1727899299284,-1.1621094,0.4326172,-0.038085938,60.09375,-0.6875,-17.5
274,274,1727899299324,-1.3964844,0.48339844,0.024414062,-29.75,35.875,-12.4375
275,275,1727899299364,-1.1669922,0.22460938,-0.06347656,-28.46875,-9.34375,21.5625
276,276,1727899299404,-1.4355469,-0.18554688,0.4140625,54.78125,-96.4375,24.96875
277,277,1727899299444,-1.3154297,0.22949219,-0.1015625,-53.8125,-1.21875,0.9375
278,278,1727899299484,-1.0380859,-0.049804688,-0.13671875,18.21875,10.0625,0.3125
279,279,1727899299524,-1.0507812,-0.091796875,-0.18359375,-39.28125,14.65625,-28.46875
280,280,1727899299564,-0.9267578,0.20703125,-0.10058594,11.03125,14.03125,-22.25
281,281,1727899299604,-0.91015625,0.15234375,0.043945312,57.78125,-2.09375,-7.90625
282,282,1727899299644,-0.86816406,0.030273438,0.171875,35.25,-0.875,-6.75
283,283,1727899299684,-0.96191406,0.13085938,0.028320312,-18.9375,18.4375,-8.71875
284,284,1727899299724,-0.9121094,0.18554688,0.26171875,60.03125,-13.625,6.3125
285,285,1727899299764,-1.0117188,0.06933594,0.13671875,-24.4375,-2.03125,7.21875
286,286,1727899299804,-0.9814453,0.038085938,0.10449219,1.6875,-5.25,2.9375
287,287,1727899299844,-0.8935547,0.17285156,0.057617188,8.03125,0.53125,5.34375
288,288,1727899299884,-1.1015625,0.26464844,0.07128906,14.375,-6.125,26.5
289,289,1727899299924,-0.8808594,-0.07128906,0.1328125,14.9375,-18.1875,18.28125
290,290,1727899299964,-0.9394531,-0.02734375,0.07421875,21.75,4.4375,5.625
291,291,1727899300004,-1.0,0.3779297,0.19042969,36.03125,-23.25,18.40625
292,292,1727899300044,-0.88964844,0.24511719,0.15625,21.28125,-25.15625,26.03125
293,293,1727899300084,-0.8173828,-0.2783203,0.033203125,13.09375,8.40625,1.59375
294,294,1727899300124,-0.8105469,-0.057617188,0.025390625,46.28125,17.8125,-19.15625
295,295,1727899300164,-0.86621094,0.21972656,0.22851562,62.03125,3.21875,-20.375
296,296,1727899300204,-0.9794922,0.08105469,0.296875,64.53125,-5.125,-21.65625
297,297,1727899300244,-0.9453125,0.10449219,0.3486328,67.40625,10.90625,-20.78125
298,298,1727899300284,-0.9345703,0.27539062,0.23144531,67.46875,18.90625,-19.21875
299,299,1727899300324,-1.3847656,-0.20507812,0.18457031,104.59375,-4.59375,-21.9375
300,300,1727899300364,-1.6259766,0.5673828,-0.03515625,82.4375,-39.4375,-12.375
301,301,1727899300404,-1.4511719,-0.038085938,0.23925781,155.3125,-114.375,52.4375
302,302,1727899300444,-1.8789062,-0.7597656,-0.017578125,186.0,-93.5,26.8125
303,303,1727899300484,-0.9814453,0.12792969,0.11425781,140.90625,-109.9375,17.65625
304,304,1727899300524,-0.9902344,-0.15527344,0.08984375,146.40625,-105.09375,-5.65625
305,305,1727899300564,-0.88378906,-0.09277344,0.1953125,169.53125,-99.8125,-8.28125
306,306,1727899300604,-0.9003906,-0.25,0.17089844,162.6875,-107.0625,-21.65625
307,307,1727899300644,-0.9765625,-0.01171875,0.12695312,138.15625,-79.28125,-32.15625
308,308,1727899300684,-0.9628906,0.09472656,0.19335938,158.78125,-82.78125,-36.96875
309,309,1727899300724,-0.828125,0.22753906,0.23632812,135.03125,-60.0,-34.78125
310,310,1727899300764,-0.85253906,0.33007812,0.19726562,118.0,-54.8125,-12.84375
311,311,1727899300804,-0.7158203,0.3515625,0.23730469,77.59375,-45.84375,-0.96875
312,312,1727899300844,-0.70214844,0.22949219,0.21386719,41.59375,-22.96875,0.03125
313,313,1727899300884,-0.6689453,0.103515625,0.2734375,37.09375,-2.625,-7.71875
314,314,1727899300924,-0.7060547,0.07128906,0.43554688,10.40625,27.15625,-27.1875
315,315,1727899300964,-0.8535156,0.14257812,0.57714844,-8.5625,20.0,-37.8125
316,316,1727899301004,-0.9609375,0.3076172,0.43847656,78.21875,14.75,-45.5625
317,317,1727899301044,-0.6689453,0.30664062,0.46777344,84.75,-82.65625,-6.3125
318,318,1727899301084,-0.6767578,0.40820312,0.4326172,47.53125,-45.90625,-30.75
319,319,1727899301124,-0.6357422,-0.23828125,0.2685547,78.21875,-9.09375,-35.5625
320,320,1727899301164,-0.87402344,0.36523438,0.3955078,68.5,13.71875,-23.21875
321,321,1727899301204,-0.75390625,0.25976562,0.4013672,69.0625,12.6875,-37.21875
322,322,1727899301244,-1.0019531,0.3154297,0.29003906,70.28125,27.34375,-17.125
323,323,1727899301284,-0.97558594,0.31640625,0.3955078,71.625,21.78125,-21.78125
324,324,1727899301324,-0.8769531,0.3486328,0.3466797,73.40625,38.4375,-12.84375
325,325,1727899301364,-1.7304688,0.4921875,0.54003906,34.28125,-23.75,30.125
326,326,1727899301404,-1.2392578,0.3828125,0.115234375,-12.96875,4.8125,-57.15625
327,327,1727899301444,-0.5751953,-0.018554688,0.0625,35.0625,-20.4375,-49.25
328,328,1727899301484,-1.390625,-0.07421875,0.3173828,-32.875,65.84375,21.875
329,329,1727899301524,-1.1738281,0.19628906,0.043945312,4.0625,59.0,-14.09375
330,330,1727899301564,-0.79296875,0.3251953,0.123046875,32.9375,21.71875,-12.90625
331,331,1727899301604,-1.1171875,0.037109375,0.057617188,-54.15625,85.75,-31.46875
332,332,1727899301644,-1.0380859,0.13085938,-0.0126953125,-29.03125,95.75,-35.125
333,333,1727899301684,-1.0146484,0.17578125,-0.0859375,28.0,51.6875,-34.03125
334,334,1727899301724,-1.0458984,0.20507812,0.025390625,65.46875,12.03125,-30.1875
335,335,1727899301764,-1.0019531,0.038085938,0.16601562,54.40625,0.25,-30.5625
336,336,1727899301804,-1.0205078,-0.059570312,-0.051757812,0.21875,21.34375,-39.84375
337,337,1727899301844,-0.95410156,0.27929688,0.0087890625,13.65625,-7.5,-38.84375
338,338,1727899301884,-0.87109375,0.21289062,0.045898438,31.84375,-17.28125,-4.75
339,339,1727899301924,-0.8730469,0.11328125,0.17773438,32.0,-47.625,12.84375
340,340,1727899301964,-0.7128906,0.27246094,0.07421875,-50.9375,-48.84375,23.21875
341,341,1727899302004,-0.67089844,0.09765625,0.2626953,79.3125,-91.9375,51.53125
342,342,1727899302044,-0.9238281,0.09472656,0.091796875,-55.09375,-22.71875,43.0
343,343,1727899302084,-0.85253906,0.171875,-0.11816406,10.53125,-51.875,24.375
344,344,1727899302124,-1.0927734,-0.01953125,0.25585938,64.90625,-66.71875,33.34375
345,345,1727899302164,-0.90625,0.23925781,0.19824219,2.96875,-31.5625,4.53125
346,346,1727899302204,-1.0771484,0.09765625,0.18457031,-2.46875,-17.03125,19.75
347,347,1727899302244,-1.0419922,0.05078125,0.34179688,-20.0625,12.6875,-7.65625
348,348,1727899302284,-1.3291016,0.09277344,0.37695312,-18.71875,23.0625,-14.875
349,349,1727899302324,-1.2128906,0.4873047,0.40625,36.71875,-35.46875,16.75
350,350,1727899302364,-1.2998047,0.5966797,0.26464844,55.625,-60.3125,62.03125
351,351,1727899302404,-1.0644531,0.5732422,0.17382812,76.3125,-84.53125,99.8125
352,352,1727899302444,-1.1494141,-0.024414062,0.21972656,48.375,-63.71875,92.84375
353,353,1727899302484,-1.046875,0.17675781,0.34570312,52.875,-53.15625,50.3125
354,354,1727899302524,-0.8984375,0.26953125,0.2841797,48.0625,-53.53125,25.34375
355,355,1727899302564,-0.70410156,0.3310547,0.28320312,14.125,-54.9375,4.46875
356,356,1727899302604,-0.6748047,0.29003906,0.15527344,8.53125,-43.15625,-5.53125
357,357,1727899302644,-0.62402344,0.26171875,0.18164062,-1.96875,-20.875,-19.8125
358,358,1727899302684,-0.57910156,0.3515625,0.12402344,-28.03125,26.1875,-33.625
359,359,1727899302724,-0.56152344,0.35351562,0.03515625,-65.28125,66.28125,-35.4375
360,360,1727899302764,-0.47460938,0.25,0.033203125,-54.59375,110.59375,-37.8125
361,361,1727899302804,-0.87109375,0.17089844,0.21582031,-35.90625,152.34375,-51.75
362,362,1727899302844,-0.87402344,0.23144531,0.3125,-33.21875,95.28125,-43.25
363,363,1727899302884,-1.0361328,0.34570312,0.3955078,20.40625,35.15625,-40.375
364,364,1727899302924,-0.94628906,0.29296875,0.25195312,-24.8125,48.21875,-45.34375
365,365,1727899302964,-0.9658203,0.22753906,0.3564453,12.90625,6.90625,-35.125
366,366,1727899303004,-1.0039062,0.16894531,-0.060546875,-6.9375,75.25,-47.09375
367,367,1727899303044,-1.3886719,0.3408203,-0.16699219,-53.1875,65.5,-61.8125
368,368,1727899303084,-1.1445312,0.45214844,0.20605469,147.0625,-49.375,-18.84375
369,369,1727899303124,-1.2246094,0.27929688,-0.09765625,-80.0,118.34375,-32.21875
370,370,1727899303164,-0.9980469,0.099609375,-0.3564453,-15.15625,26.125,-19.5
371,371,1727899303204,-1.5058594,-0.056640625,0.032226562,52.53125,-18.0,-0.09375
372,372,1727899303244,-1.1416016,-0.08496094,0.11230469,-14.8125,-19.78125,-18.59375
373,373,1727899303284,-0.89941406,0.044921875,-0.29296875,-49.09375,-1.90625,-15.3125
374,374,1727899303324,-0.9003906,-0.17871094,-0.41503906,-13.53125,15.875,-17.125
375,375,1727899303364,-0.9003906,0.1015625,-0.036132812,-5.875,-5.25,-16.15625
376,376,1727899303404,-0.98046875,0.078125,0.091796875,0.15625,-22.46875,-0.59375
377,377,1727899303444,-0.94628906,0.043945312,0.2265625,22.5625,-51.03125,10.59375
378,378,1727899303484,-0.75,0.06347656,0.18261719,-5.15625,-51.9375,9.3125
379,379,1727899303524,-1.0898438,0.001953125,0.10253906,12.25,-33.625,13.3125
380,380,1727899303564,-0.78515625,-0.053710938,-0.18261719,9.0625,-24.0,-8.28125
381,381,1727899303604,-0.8144531,0.4482422,0.2705078,59.90625,-79.0,40.5
382,382,1727899303644,-0.9980469,-0.041992188,0.111328125,5.59375,-32.125,23.21875
383,383,1727899303684,-0.98046875,0.07519531,0.23730469,-5.46875,-48.90625,21.75
384,384,1727899303724,-0.92089844,0.10546875,0.34375,11.75,-28.4375,13.625
385,385,1727899303764,-1.0097656,-0.16308594,0.24316406,-27.125,-15.25,-4.3125
386,386,1727899303804,-0.9472656,0.34960938,0.2890625,16.9375,-40.15625,16.9375
387,387,1727899303844,-1.09375,-0.047851562,0.21875,-7.84375,-9.53125,14.25
388,388,1727899303884,-1.1914062,0.022460938,0.38964844,14.4375,-31.0625,22.25
389,389,1727899303924,-1.2177734,0.296875,0.40234375,57.90625,-63.90625,43.0
390,390,1727899303964,-1.2617188,0.5214844,0.4140625,81.03125,-101.09375,73.875
391,391,1727899304004,-1.3115234,0.20800781,0.26757812,64.5,-93.875,59.53125
392,392,1727899304044,-0.74316406,0.09765625,0.23242188,58.375,-53.28125,26.28125
393,393,1727899304084,-0.9785156,0.11230469,0.29882812,56.125,-32.65625,30.46875
394,394,1727899304124,-0.7763672,0.39746094,0.22070312,46.28125,-19.46875,2.59375
395,395,1727899304164,-0.7060547,0.3623047,0.20605469,10.03125,-16.84375,-10.71875
396,396,1727899304204,-0.6611328,0.24121094,0.19335938,10.96875,0.59375,-18.78125
397,397,1727899304244,-0.6376953,0.30371094,0.18359375,-15.21875,38.09375,-23.84375
398,398,1727899304284,-0.6074219,0.3251953,0.21582031,-41.65625,78.0625,-19.9375
399,399,1727899304324,-0.7392578,0.16699219,0.25976562,-22.96875,99.59375,-11.9375
400,400,1727899304364,-1.1425781,0.23242188,0.28710938,-52.875,114.5625,-10.125
401,401,1727899304404,-0.8222656,0.25390625,0.3984375,-10.84375,72.9375,-29.9375
402,402,1727899304444,-0.80566406,0.28320312,0.25585938,42.875,66.21875,-19.6875
403,403,1727899304484,-0.8046875,0.20117188,0.10058594,8.15625,25.9375,-12.90625
404,404,1727899304524,-0.6220703,0.3359375,0.041015625,-19.6875,46.6875,-43.75
405,405,1727899304564,-1.2480469,0.42285156,0.19824219,75.46875,-7.75,2.40625
406,406,1727899304604,-0.92089844,0.22265625,0.033203125,-20.78125,29.90625,-24.40625
407,407,1727899304644,-1.1611328,0.47753906,0.076171875,-16.9375,12.03125,-35.4375
408,408,1727899304684,-1.2626953,0.40234375,0.2421875,0.40625,22.625,-23.96875
409,409,1727899304724,-1.1347656,0.26464844,0.009765625,-62.84375,33.1875,-14.625
410,410,1727899304764,-1.2207031,0.15039062,0.10449219,18.21875,-23.0625,-5.65625
411,411,1727899304804,-1.5712891,0.2529297,0.3564453,24.3125,-41.9375,-1.875
412,412,1727899304844,-0.85839844,-0.056640625,0.16113281,-37.8125,3.15625,-8.21875
413,413,1727899304884,-1.0791016,-0.34570312,-0.4501953,-5.65625,57.84375,-33.78125
414,414,1727899304924,-1.0498047,0.3017578,-0.18359375,25.46875,13.0625,-31.34375
415,415,1727899304964,-0.9199219,0.11425781,-0.12207031,43.84375,31.71875,-24.625
416,416,1727899305004,-1.0449219,-0.005859375,-0.09863281,-4.84375,28.25,-27.125
417,417,1727899305044,-0.9375,0.16210938,0.0859375,25.78125,7.8125,-19.09375
418,418,1727899305084,-0.921875,0.14257812,0.12402344,-22.71875,10.5,-11.40625
419,419,1727899305124,-0.9892578,0.044921875,0.22851562,-20.46875,-15.5625,-2.0
420,420,1727899305164,-0.87402344,0.022460938,0.12890625,-39.65625,-25.8125,-7.0625
421,421,1727899305204,-0.76953125,-0.115234375,0.0234375,-38.59375,-40.03125,-10.28125
422,422,1727899305244,-0.8642578,0.19433594,0.016601562,51.96875,-95.09375,2.34375
423,423,1727899305284,-0.6591797,0.19921875,0.028320312,-39.28125,-67.3125,4.78125
424,424,1727899305324,-1.1386719,-0.22070312,0.2421875,-7.53125,-60.0625,16.625
425,425,1727899305364,-0.8652344,0.032226562,0.08691406,-17.3125,-40.65625,-13.09375
426,426,1727899305404,-0.9736328,-0.17089844,0.25976562,8.5625,-16.78125,-3.875
427,427,1727899305444,-1.0673828,0.0,0.37695312,-4.375,-0.0625,-0.96875
428,428,1727899305484,-1.2207031,-0.15917969,0.23925781,1.875,-12.40625,-2.125
429,429,1727899305524,-1.4150391,0.26171875,0.5839844,43.375,-64.71875,27.90625
430,430,1727899305564,-1.4628906,0.5292969,0.23925781,44.03125,-113.90625,64.65625
431,431,1727899305604,-1.0976562,0.13964844,0.33398438,114.46875,-97.90625,68.6875
432,432,1727899305644,-0.8798828,-0.119140625,0.08984375,80.53125,-34.3125,56.28125
433,433,1727899305684,-1.0917969,0.19140625,0.20898438,91.40625,-27.53125,50.375
434,434,1727899305724,-0.7548828,0.26171875,0.19238281,64.3125,-22.53125,30.40625
435,435,1727899305764,-0.67578125,0.20605469,0.23632812,57.21875,-27.28125,19.96875
436,436,1727899305804,-0.7294922,0.24023438,0.28710938,18.34375,2.0625,-4.75
437,437,1727899305844,-0.7080078,0.33691406,0.28125,-14.625,30.375,-23.84375
438,438,1727899305884,-0.7441406,0.2763672,0.2705078,-30.125,57.6875,-26.28125
439,439,1727899305924,-0.7939453,0.20996094,0.18164062,-30.84375,89.84375,-21.46875
440,440,1727899305964,-0.9316406,0.07910156,0.234375,0.875,105.875,-16.8125
441,441,1727899306004,-1.0537109,0.31640625,0.33496094,-28.15625,70.5,-23.90625
442,442,1727899306044,-0.8300781,0.4423828,0.24511719,11.5625,43.75,-30.1875
443,443,1727899306084,-0.84277344,0.27246094,0.14648438,26.59375,25.5,-18.40625
444,444,1727899306124,-0.75,0.15429688,0.09375,24.9375,11.90625,-14.1875
445,445,1727899306164,-0.859375,0.203125,0.23925781,43.90625,-0.875,-13.34375
446,446,1727899306204,-0.9316406,0.12792969,-0.036132812,15.03125,35.34375,-35.8125
447,447,1727899306244,-0.9316406,0.2861328,0.057617188,17.84375,42.0625,-62.59375
448,448,1727899306284,-1.3261719,0.7138672,0.28320312,75.34375,-10.3125,-18.96875
449,449,1727899306324,-0.95996094,0.16015625,-0.005859375,-59.34375,21.84375,-16.875
450,450,1727899306364,-1.5673828,0.08984375,0.022460938,48.625,-20.34375,32.84375
451,451,1727899306404,-1.6054688,-0.01953125,0.33398438,1.875,-35.28125,-1.4375
452,452,1727899306444,-0.88964844,0.18164062,0.16308594,19.875,-40.03125,-9.75
453,453,1727899306484,-1.1337891,-0.4453125,-0.28515625,10.78125,30.09375,-26.46875
454,454,1727899306524,-0.9658203,0.20898438,-0.20507812,10.53125,19.71875,-43.3125
455,455,1727899306564,-0.87597656,0.23828125,0.2578125,76.5,-2.6875,-15.0
456,456,1727899306604,-1.0039062,-0.044921875,0.053710938,5.28125,24.71875,-22.9375
457,457,1727899306644,-0.9951172,0.24023438,0.3125,71.5,-11.25,-12.5625
458,458,1727899306684,-0.7919922,0.26367188,0.18652344,10.15625,-0.90625,-2.0625
459,459,1727899306724,-0.953125,-0.18066406,-0.017578125,5.53125,0.65625,3.0
460,460,1727899306764,-0.87402344,0.07421875,0.045898438,61.90625,-23.0625,4.40625
461,461,1727899306804,-0.8251953,0.19335938,0.21289062,28.59375,-7.8125,16.5
462,462,1727899306844,-0.96972656,0.01953125,0.09667969,66.9375,-49.09375,34.625
463,463,1727899306884,-0.8847656,-0.0048828125,0.34179688,46.1875,-48.21875,18.9375
464,464,1727899306924,-0.8417969,0.19628906,0.14746094,60.28125,-42.65625,24.5625
465,465,1727899306964,-0.82421875,-0.18945312,-0.0048828125,61.0625,5.78125,-2.96875
466,466,1727899307004,-1.125,-0.12402344,0.11816406,34.09375,28.5,-19.15625
467,467,1727899307044,-0.92578125,0.4326172,0.28808594,42.8125,31.90625,-23.46875
468,468,1727899307084,-1.1728516,0.1328125,0.40722656,53.3125,20.6875,-19.5625
469,469,1727899307124,-0.953125,0.22167969,0.38867188,65.59375,25.25,-10.0625
470,470,1727899307164,-1.5341797,-0.20996094,0.45898438,107.625,8.1875,-15.84375
471,471,1727899307204,-1.5908203,0.44140625,0.18066406,143.59375,-47.90625,6.25
472,472,1727899307244,-1.4042969,-0.3623047,0.05859375,190.875,-104.625,43.0625
473,473,1727899307284,-1.2753906,-0.32910156,-0.17675781,187.53125,-95.96875,30.0
474,474,1727899307324,-1.0859375,0.32910156,0.16894531,142.3125,-99.875,17.84375
475,475,1727899307364,-0.8828125,-0.11621094,0.103515625,128.21875,-77.59375,15.09375
476,476,1727899307404,-0.9091797,-0.16796875,0.24316406,128.8125,-86.0,6.75
477,477,1727899307444,-0.8496094,0.07519531,0.18847656,146.6875,-59.46875,4.46875
478,478,1727899307484,-0.96191406,0.12890625,0.15722656,144.3125,-49.75,3.3125
479,479,1727899307524,-0.95703125,0.16894531,0.15625,116.1875,-54.375,-5.84375
480,480,1727899307564,-0.8798828,0.19335938,0.15136719,94.28125,-53.34375,-5.59375
481,481,1727899307604,-0.8720703,0.2265625,0.18847656,68.28125,-57.8125,-6.28125
482,482,1727899307644,-0.7324219,0.08203125,0.28515625,67.53125,-59.625,-18.53125
483,483,1727899307684,-0.71484375,0.024414062,0.28808594,64.78125,-51.03125,-33.375
484,484,1727899307724,-0.8359375,0.13378906,0.34765625,49.34375,-30.78125,-38.6875
485,485,1727899307764,-0.84375,0.19238281,0.33398438,77.25,-30.9375,-38.5
486,486,1727899307804,-0.93066406,0.20605469,0.33007812,105.0625,-20.5625,-38.375
487,487,1727899307844,-0.7128906,0.4921875,0.22363281,113.6875,-79.28125,-7.96875
488,488,1727899307884,-0.609375,0.30566406,0.37695312,80.34375,-55.90625,-42.65625
489,489,1727899307924,-0.64160156,-0.171875,0.37402344,96.96875,-29.59375,-31.65625
490,490,1727899307964,-0.79785156,0.17675781,0.17382812,99.21875,12.375,-29.875
491,491,1727899308004,-0.8330078,0.36132812,0.20898438,116.125,8.84375,-37.8125
492,492,1727899308044,-1.0136719,0.5390625,0.13671875,89.8125,14.71875,-11.03125
493,493,1727899308084,-0.8251953,0.54003906,0.453125,85.53125,-17.84375,-38.375
494,494,1727899308124,-0.7109375,0.3203125,0.18945312,41.59375,30.21875,-17.9375
495,495,1727899308164,-1.5224609,0.4609375,0.26660156,11.09375,25.09375,-1.1875
496,496,1727899308204,-1.3984375,0.4189453,0.234375,-59.34375,35.5625,-63.21875
497,497,1727899308244,-1.6201172,0.48632812,0.234375,-12.40625,-8.3125,-4.125
498,498,1727899308284,-0.8359375,0.17871094,0.01171875,-19.5,11.78125,-9.375
499,499,1727899308324,-1.0498047,-0.18359375,-0.05078125,-25.90625,53.40625,-32.875
500,500,1727899308364,-1.171875,0.107421875,0.06933594,1.5,59.1875,-9.4375
501,501,1727899308404,-0.91796875,0.31835938,0.203125,-15.84375,97.28125,-34.59375
502,502,1727899308444,-1.1181641,0.17089844,-0.015625,-9.625,99.59375,-35.0
503,503,1727899308484,-0.8964844,-0.025390625,-0.14257812,0.40625,52.0,-41.65625
504,504,1727899308524,-1.0859375,-0.009765625,-0.08984375,15.96875,30.8125,-41.78125
505,505,1727899308564,-1.0380859,0.07910156,-0.018554688,21.6875,11.96875,-43.75
506,506,1727899308604,-0.95996094,0.16699219,0.0029296875,25.78125,3.71875,-35.75
507,507,1727899308644,-0.96484375,0.080078125,-0.099609375,2.46875,16.59375,-22.6875
508,508,1727899308684,-0.8828125,0.099609375,-0.01953125,15.78125,-11.59375,-14.1875
509,509,1727899308724,-0.83691406,0.041015625,0.09277344,13.34375,-17.71875,-11.46875
510,510,1727899308764,-1.1640625,0.23632812,0.3017578,-43.1875,-38.28125,1.25
511,511,1727899308804,-0.75683594,0.36035156,0.47558594,32.75,-95.46875,24.5625
512,512,1727899308844,-0.6298828,-0.125,-0.061523438,-71.4375,-30.03125,20.09375
513,513,1727899308884,-1.1240234,-0.14941406,0.060546875,40.6875,-85.75,15.34375
514,514,1727899308924,-0.78027344,0.12597656,-0.07324219,-19.75,-82.46875,-3.65625
515,515,1727899308964,-0.8808594,0.14257812,0.2607422,14.6875,-64.28125,0.375
516,516,1727899309004,-0.8154297,0.11621094,0.14746094,-17.375,-56.84375,11.75
517,517,1727899309044,-1.1083984,-0.19824219,0.38476562,-22.90625,2.6875,12.71875
518,518,1727899309084,-1.1923828,-0.10546875,0.24804688,-7.59375,-14.34375,10.21875
519,519,1727899309124,-1.2714844,0.020507812,0.38964844,44.53125,-29.90625,14.0
520,520,1727899309164,-1.6162109,0.26367188,0.52246094,41.78125,-55.5,26.21875
521,521,1727899309204,-1.390625,0.578125,0.36132812,55.34375,-90.21875,50.4375
522,522,1727899309244,-0.8310547,0.3671875,0.31054688,55.28125,-67.6875,58.3125
523,523,1727899309284,-0.84765625,-0.11230469,0.22070312,55.875,-68.96875,56.90625
524,524,1727899309324,-0.8496094,0.19335938,0.2998047,74.3125,-44.4375,25.09375
525,525,1727899309364,-0.85058594,0.19042969,0.3408203,66.0,-40.03125,26.5625
526,526,1727899309404,-0.75097656,0.2939453,0.25976562,43.84375,-28.375,9.78125
527,527,1727899309444,-0.7158203,0.37109375,0.23339844,13.59375,-7.9375,-5.34375
528,528,1727899309484,-0.64746094,0.2939453,0.23242188,-18.46875,16.71875,-17.875
529,529,1727899309524,-0.5859375,0.31835938,0.203125,-60.625,57.78125,-29.15625
530,530,1727899309564,-0.5732422,0.27148438,0.033203125,-58.25,98.375,-27.375
531,531,1727899309604,-0.7392578,0.033203125,0.18066406,-44.59375,125.25,-16.34375
532,532,1727899309644,-1.0019531,0.055664062,0.3173828,-57.09375,131.84375,-23.53125
533,533,1727899309684,-0.9042969,0.39941406,0.49023438,3.8125,38.09375,-22.9375
534,534,1727899309724,-0.7236328,0.2861328,0.2421875,2.0,53.09375,-20.5
535,535,1727899309764,-0.8769531,0.12207031,0.24316406,37.09375,28.0625,-5.40625
536,536,1727899309804,-1.1191406,0.09375,0.07910156,40.5625,16.96875,-29.15625
537,537,1727899309844,-0.97753906,0.28710938,0.095703125,-4.25,48.875,-49.25
538,538,1727899309884,-1.1259766,0.50390625,0.044921875,35.75,14.09375,-36.90625
539,539,1727899309924,-1.4277344,0.5332031,-0.037109375,3.15625,49.875,-25.375
540,540,1727899309964,-1.2480469,0.25195312,0.055664062,-11.25,14.34375,-3.46875
541,541,1727899310004,-1.0263672,-0.037109375,0.125,7.96875,-24.59375,3.25
542,542,1727899310044,-1.4140625,-0.06640625,-0.087890625,-14.0625,1.03125,-7.5
543,543,1727899310084,-1.1542969,0.171875,0.13574219,18.65625,-24.1875,-6.375
544,544,1727899310124,-0.98828125,-0.055664062,-0.11425781,0.15625,21.40625,-14.125
545,545,1727899310164,-1.0517578,-0.19921875,-0.24707031,-33.28125,61.15625,-39.15625
546,546,1727899310204,-0.88964844,0.14355469,-0.16601562,20.25,40.875,-36.71875
547,547,1727899310244,-1.0107422,0.09277344,0.119140625,45.25,21.28125,-23.59375
548,548,1727899310284,-0.9892578,-0.0087890625,-0.045898438,-26.46875,46.25,-28.78125
549,549,1727899310324,-1.0996094,-0.02734375,0.07128906,-8.5,25.875,-26.53125
550,550,1727899310364,-1.0058594,0.21679688,0.10253906,-6.9375,-12.40625,-10.96875
551,551,1727899310404,-0.828125,0.16308594,0.26757812,4.90625,-59.5625,6.25
552,552,1727899310444,-1.0292969,-0.048828125,0.18261719,-45.8125,-55.0625,-1.375
553,553,1727899310484,-0.8095703,-0.19140625,-0.26757812,-5.46875,-30.65625,-26.59375
554,554,1727899310524,-0.57910156,0.12695312,0.033203125,30.84375,-108.15625,5.8125
555,555,1727899310564,-1.0917969,0.12207031,0.15039062,43.1875,-102.3125,38.65625
556,556,1727899310604,-0.8183594,-0.18066406,0.06542969,22.5,-67.4375,-3.75
557,557,1727899310644,-0.88378906,0.16015625,0.42382812,-4.78125,-36.75,12.46875
558,558,1727899310684,-1.1201172,-0.08691406,0.34765625,14.875,-64.65625,15.03125
559,559,1727899310724,-0.79296875,0.0048828125,0.4033203,14.0625,-49.375,16.75
560,560,1727899310764,-1.3037109,-0.0234375,0.44628906,4.625,-59.40625,30.0625
561,561,1727899310804,-1.3623047,0.2939453,0.5830078,46.96875,-100.71875,60.09375
562,562,1727899310844,-1.3583984,0.17871094,0.4609375,80.71875,-107.78125,78.375
563,563,1727899310884,-1.0634766,0.19726562,0.3701172,60.34375,-76.46875,37.1875
564,564,1727899310924,-0.78125,0.04296875,0.3564453,35.90625,-32.15625,6.0
565,565,1727899310964,-0.8564453,0.13671875,0.265625,48.1875,-21.25,11.875
566,566,1727899311004,-0.6464844,0.31640625,0.27441406,59.90625,-4.65625,-0.09375
567,567,1727899311044,-0.6435547,0.28710938,0.22265625,30.3125,13.46875,4.46875
568,568,1727899311084,-0.66796875,0.2705078,0.203125,4.375,44.125,-9.4375
569,569,1727899311124,-0.69140625,0.3671875,0.23535156,-45.4375,74.15625,-15.1875
570,570,1727899311164,-0.65234375,0.22460938,0.22558594,-68.03125,101.5,-16.75
571,571,1727899311204,-0.7089844,-0.072265625,0.27148438,-34.4375,120.28125,-4.5625
572,572,1727899311244,-1.1005859,0.009765625,0.31054688,-72.0,133.40625,4.71875
573,573,1727899311284,-0.96191406,0.3544922,0.36914062,-25.3125,75.625,-37.46875
574,574,1727899311324,-0.8876953,0.35742188,0.34472656,15.96875,59.75,-24.15625
575,575,1727899311364,-0.90625,0.22558594,0.11425781,9.125,21.71875,-14.5625
576,576,1727899311404,-0.8574219,0.2265625,0.12792969,46.34375,7.5,-10.34375
577,577,1727899311444,-1.1503906,0.12890625,0.038085938,32.0,24.96875,-36.28125
578,578,1727899311484,-1.0898438,0.3671875,0.109375,-12.0,44.625,-57.78125
579,579,1727899311524,-1.3935547,0.20214844,0.29296875,10.53125,35.28125,-39.78125
580,580,1727899311564,-1.2724609,0.31445312,-0.30078125,-128.4375,93.875,-23.78125
581,581,1727899311604,-0.8701172,0.15527344,-0.13183594,67.125,-30.59375,20.28125
582,582,1727899311644,-1.3261719,-0.41210938,-0.0078125,44.59375,-10.5625,-5.28125
583,583,1727899311684,-1.2734375,0.10058594,0.03515625,-114.40625,43.375,-40.3125
584,584,1727899311724,-1.0019531,0.068359375,-0.11035156,35.1875,-7.03125,1.84375
585,585,1727899311764,-0.9238281,-0.2734375,-0.19433594,-21.75,8.65625,-16.46875
586,586,1727899311804,-0.9736328,0.06933594,-0.20898438,-37.03125,23.3125,-27.75
587,587,1727899311844,-0.95214844,0.07910156,0.049804688,32.125,2.875,-8.78125
588,588,1727899311884,-1.0175781,-0.043945312,-0.022460938,-14.625,23.0625,-10.21875
589,589,1727899311924,-0.9892578,0.060546875,0.041992188,1.8125,15.75,-12.96875
590,590,1727899311964,-0.99121094,0.14941406,0.13183594,2.0,4.6875,-3.65625
591,591,1727899312004,-0.93652344,-0.041015625,-0.060546875,-29.25,3.03125,-2.59375
592,592,1727899312044,-1.0302734,0.12109375,0.12109375,15.0,-40.59375,8.6875
593,593,1727899312084,-0.9423828,-0.055664062,0.25683594,-13.28125,-52.1875,-10.78125
594,594,1727899312124,-0.7783203,-0.029296875,-0.13085938,-30.375,-57.125,-14.25
595,595,1727899312164,-0.6875,0.41992188,0.31152344,101.53125,-130.1875,38.90625
596,596,1727899312204,-0.96972656,-0.43847656,-0.18847656,-59.34375,-33.46875,13.3125
597,597,1727899312244,-1.0234375,-0.23925781,0.25585938,73.40625,-81.125,-17.5
598,598,1727899312284,-0.7753906,0.21484375,0.1796875,38.3125,-62.25,-4.875
599,599,1727899312324,-0.9501953,0.05859375,0.2783203,18.03125,-41.15625,2.09375
600,600,1727899312364,-1.0019531,0.01953125,0.14648438,1.6875,-21.96875,5.9375
601,601,1727899312404,-1.3408203,-0.119140625,0.46484375,19.4375,-21.78125,17.78125
602,602,1727899312444,-1.3623047,0.23632812,0.5488281,48.4375,-71.40625,39.28125
603,603,1727899312484,-1.2802734,0.6425781,0.37695312,56.25,-101.875,86.25
604,604,1727899312524,-1.2275391,0.19824219,0.33496094,41.34375,-66.78125,65.375
605,605,1727899312564,-0.8574219,-0.3173828,0.2607422,72.25,-38.59375,35.78125
606,606,1727899312604,-0.9394531,0.076171875,0.234375,73.15625,-18.5625,18.875
607,607,1727899312644,-0.76171875,0.45117188,0.2578125,53.9375,-10.125,7.40625
608,608,1727899312684,-0.68652344,0.30371094,0.22167969,11.5,3.71875,-4.96875
609,609,1727899312724,-0.74902344,0.21777344,0.25683594,-6.375,18.5,-11.46875
610,610,1727899312764,-0.67089844,0.22460938,0.23339844,-17.0,38.03125,-13.96875
611,611,1727899312804,-0.66796875,0.31054688,0.17773438,-43.375,68.0,-13.09375
612,612,1727899312844,-0.67871094,0.23144531,0.14550781,-39.21875,88.96875,-6.875
613,613,1727899312884,-0.93359375,0.041992188,0.31152344,-34.28125,105.84375,6.1875
614,614,1727899312924,-0.9248047,0.0048828125,0.3486328,-3.3125,83.84375,-19.5
615,615,1727899312964,-1.0087891,0.24511719,0.23535156,26.71875,64.25,-31.78125
616,616,1727899313004,-0.8095703,0.32617188,0.19238281,9.3125,54.875,-41.0
617,617,1727899313044,-0.9902344,0.28222656,0.1171875,50.5,16.28125,-8.21875
618,618,1727899313084,-1.0458984,0.41601562,0.12890625,59.34375,3.90625,-25.625
619,619,1727899313124,-0.86035156,0.21679688,0.06933594,7.71875,24.65625,-23.65625
620,620,1727899313164,-1.0517578,0.06542969,-0.068359375,62.59375,13.71875,-24.03125
621,621,1727899313204,-1.3046875,0.5527344,-0.0546875,19.9375,37.21875,-39.40625
622,622,1727899313244,-0.8720703,0.2763672,0.43652344,29.03125,-57.9375,-3.8125
623,623,1727899313284,-1.9414062,0.09277344,-0.12988281,-68.03125,12.9375,7.96875
624,624,1727899313324,-0.9404297,0.09472656,0.11035156,76.3125,-49.8125,4.65625
625,625,1727899313364,-1.1074219,-0.38476562,-0.21289062,-14.1875,11.90625,-2.96875
626,626,1727899313404,-0.9941406,0.10449219,-0.3388672,-41.28125,16.03125,-40.375
627,627,1727899313444,-0.77734375,0.3232422,-0.06347656,92.25,-9.84375,-3.15625
628,628,1727899313484,-1.1191406,0.017578125,0.22949219,7.78125,18.78125,-0.21875
629,629,1727899313524,-0.9140625,0.03125,-0.0703125,8.625,3.65625,3.4375
630,630,1727899313564,-0.8701172,0.14550781,0.26953125,113.375,-23.75,13.4375
631,631,1727899313604,-1.0058594,-0.15625,0.0625,-35.84375,22.53125,-9.0625
632,632,1727899313644,-0.859375,0.13964844,0.028320312,39.21875,-8.25,-2.375
633,633,1727899313684,-1.0615234,0.16699219,0.12792969,30.0625,-18.75,12.78125
634,634,1727899313724,-0.9111328,0.10058594,0.17285156,10.09375,-28.375,20.96875
635,635,1727899313764,-0.7109375,-0.25390625,-0.051757812,48.5625,-17.03125,15.28125
636,636,1727899313804,-0.5673828,-0.609375,-0.16503906,43.0,37.40625,-45.34375
637,637,1727899313844,-1.8554688,0.7138672,0.51660156,93.0625,-56.71875,19.6875
638,638,1727899313884,-0.20117188,0.9267578,0.2548828,83.28125,-70.25,4.28125
639,639,1727899313924,-1.3222656,-0.6640625,-0.00390625,22.96875,31.5625,30.0625
640,640,1727899313964,-0.9902344,0.0126953125,0.2578125,30.625,-1.90625,-2.96875
641,641,1727899314004,-0.7529297,0.42773438,0.12988281,43.3125,33.125,-14.03125
642,642,1727899314044,-1.0527344,-0.09277344,0.17382812,65.21875,46.8125,-11.15625
643,643,1727899314084,-1.0185547,-0.053710938,0.24804688,42.03125,55.0,-32.875
644,644,1727899314124,-0.953125,0.33691406,0.3388672,49.28125,34.53125,-18.46875
645,645,1727899314164,-1.6835938,-0.25976562,0.15625,84.625,-4.15625,-2.90625
646,646,1727899314204,-1.4091797,0.62402344,-0.0009765625,108.78125,-84.1875,19.4375
647,647,1727899314244,-1.4453125,-0.7392578,-0.23925781,165.3125,-68.625,35.78125
648,648,1727899314284,-1.5859375,0.076171875,0.0029296875,160.5625,-126.21875,54.09375
649,649,1727899314324,-1.2021484,0.040039062,0.08984375,113.0,-110.1875,20.28125
650,650,1727899314364,-0.80566406,-0.043945312,0.025390625,121.6875,-91.25,5.09375
651,651,1727899314404,-0.7265625,-0.047851562,0.12011719,172.59375,-79.65625,6.75
652,652,1727899314444,-0.89941406,-0.06347656,0.12207031,148.21875,-76.46875,4.71875
653,653,1727899314484,-0.9863281,0.026367188,0.2685547,139.0,-58.90625,-9.875
654,654,1727899314524,-0.99609375,0.045898438,0.14355469,137.71875,-66.03125,-28.59375
655,655,1727899314564,-0.890625,0.08984375,0.3359375,98.84375,-70.3125,-30.1875
656,656,1727899314604,-0.9501953,0.107421875,0.29101562,81.21875,-60.96875,-39.96875
657,657,1727899314644,-0.8574219,0.20410156,0.2529297,99.03125,-63.71875,-38.125
658,658,1727899314684,-0.6230469,0.25878906,0.19628906,85.71875,-60.90625,-28.71875
659,659,1727899314724,-0.6435547,0.15820312,0.17773438,77.375,-42.0,-26.15625
660,660,1727899314764,-0.6015625,0.078125,0.35742188,80.0,-31.3125,-35.9375
661,661,1727899314804,-0.81152344,0.018554688,0.6230469,85.0,-18.25,-50.75
662,662,1727899314844,-0.7089844,0.06738281,0.4482422,108.375,-24.84375,-43.0
663,663,1727899314884,-0.6845703,0.42285156,0.14941406,132.96875,-46.21875,-27.09375
664,664,1727899314924,-0.5908203,0.27929688,0.5263672,126.0,-71.46875,-46.0625
665,665,1727899314964,-0.7871094,-0.18066406,0.12890625,103.25,19.78125,-27.5
666,666,1727899315004,-0.8691406,0.28515625,0.25390625,136.875,34.59375,-16.8125
667,667,1727899315044,-0.8876953,0.7158203,0.18261719,72.40625,31.4375,-18.15625
668,668,1727899315084,-0.82421875,0.5361328,0.33007812,79.25,38.15625,-28.40625
669,669,1727899315124,-1.5732422,0.35058594,0.12109375,-18.40625,28.375,12.09375
670,670,1727899315164,-1.6650391,0.5908203,0.40625,-27.25,-5.9375,-49.46875
671,671,1727899315204,-1.5625,0.38183594,0.48339844,-36.34375,-53.09375,-10.65625
672,672,1727899315244,-0.43652344,-0.107421875,-0.32226562,7.71875,20.0,0.75
673,673,1727899315284,-1.4804688,-0.46484375,0.0625,-38.3125,100.09375,-33.125
674,674,1727899315324,-1.1171875,0.6230469,0.2109375,8.8125,35.8125,-2.65625
675,675,1727899315364,-0.86328125,0.33203125,0.123046875,-0.625,55.46875,-33.25
676,676,1727899315404,-1.1396484,0.0078125,0.02734375,-40.96875,120.21875,-48.6875
677,677,1727899315444,-0.9707031,-0.08886719,-0.2607422,-1.0,98.375,-40.875
678,678,1727899315484,-0.94628906,0.09667969,-0.12207031,65.9375,32.71875,-48.25
679,679,1727899315524,-0.98828125,0.064453125,0.01171875,60.53125,5.3125,-44.59375
680,680,1727899315564,-1.0068359,0.18945312,-0.041992188,5.53125,28.1875,-45.5625
681,681,1727899315604,-0.93847656,0.24121094,-0.041992188,4.96875,8.78125,-24.875
682,682,1727899315644,-1.0351562,0.06738281,0.013671875,10.28125,-2.9375,-1.8125
683,683,1727899315684,-0.9277344,0.14648438,-0.02734375,-12.0,-5.3125,0.09375
684,684,1727899315724,-0.9658203,0.15136719,0.15527344,-4.65625,-30.21875,8.125
685,685,1727899315764,-0.9345703,0.060546875,0.08496094,-75.84375,-16.25,-2.40625
686,686,1727899315804,-0.69921875,0.0859375,-0.041992188,-59.78125,-38.75,5.03125
687,687,1727899315844,-0.73535156,0.052734375,0.25195312,29.15625,-110.0625,54.71875
688,688,1727899315884,-1.03125,-0.15527344,-0.040039062,15.0,-59.625,11.5
689,689,1727899315924,-0.7363281,-0.06542969,0.17382812,4.84375,-87.34375,-8.59375
690,690,1727899315964,-0.8496094,0.5205078,0.17578125,38.71875,-71.90625,34.25
691,691,1727899316004,-1.265625,-0.44921875,0.29785156,-25.1875,-34.4375,9.34375
692,692,1727899316044,-0.85839844,0.24121094,0.18261719,1.25,-44.4375,10.65625
693,693,1727899316084,-1.3603516,-0.119140625,0.51464844,22.5625,-27.34375,21.75
694,694,1727899316124,-1.7568359,0.0029296875,0.41210938,50.4375,-72.75,-5.46875
695,695,1727899316164,-0.99902344,0.6777344,0.28710938,101.40625,-109.25,33.90625
696,696,1727899316204,-0.96972656,0.5126953,0.4248047,69.375,-80.15625,63.1875
697,697,1727899316244,-1.0703125,0.0859375,0.2607422,64.90625,-60.0625,44.8125
698,698,1727899316284,-0.8417969,0.11621094,0.31152344,67.40625,-34.5,29.4375
699,699,1727899316324,-0.8144531,0.25878906,0.29003906,60.53125,-33.34375,24.5625
700,700,1727899316364,-0.74316406,0.40039062,0.2685547,41.28125,-34.0625,9.59375
701,701,1727899316404,-0.7138672,0.3623047,0.28320312,7.21875,-17.78125,1.65625
702,702,1727899316444,-0.73046875,0.27246094,0.23242188,-9.5625,9.9375,-10.78125
703,703,1727899316484,-0.67578125,0.38671875,0.18261719,-31.53125,33.5,-17.75
704,704,1727899316524,-0.6660156,0.35058594,0.1796875,-50.03125,58.53125,-21.34375
705,705,1727899316564,-0.6611328,0.16699219,0.27148438,-61.5,96.0,-20.3125
706,706,1727899316604,-0.89746094,0.1171875,0.31640625,-23.09375,120.34375,-9.9375
707,707,1727899316644,-1.0439453,0.18554688,0.22167969,-67.53125,122.375,-22.5625
708,708,1727899316684,-0.80078125,0.22167969,0.28320312,-45.5,97.71875,-44.53125
709,709,1727899316724,-0.90722656,0.15722656,0.27734375,1.125,79.03125,-24.28125
710,710,1727899316764,-0.984375,0.28222656,0.23828125,43.3125,-0.625,-8.71875
711,711,1727899316804,-0.71777344,0.2783203,0.18359375,8.21875,-6.71875,-5.03125
712,712,1727899316844,-0.9453125,0.08203125,0.09082031,37.875,21.46875,-13.96875
713,713,1727899316884,-0.96484375,0.045898438,-0.009765625,7.53125,54.8125,-44.71875
714,714,1727899316924,-1.1796875,0.18945312,0.0625,35.5625,36.5,-57.34375
715,715,1727899316964,-1.2089844,0.6074219,0.02734375,-9.125,68.0625,-59.125
716,716,1727899317004,-1.15625,0.26757812,0.109375,26.65625,30.4375,-22.875
717,717,1727899317044,-1.2832031,0.32617188,0.00390625,-67.53125,31.78125,-9.4375
718,718,1727899317084,-1.2099609,-0.056640625,-0.1640625,-7.0,21.78125,12.65625
719,719,1727899317124,-1.4482422,-0.21484375,-0.044921875,47.46875,-3.125,2.40625
720,720,1727899317164,-1.0488281,0.064453125,-0.040039062,-16.75,13.25,-14.03125
721,721,1727899317204,-0.9121094,-0.19628906,-0.4267578,3.21875,24.65625,-21.03125
722,722,1727899317244,-1.0078125,0.14257812,-0.16210938,5.21875,9.15625,-30.625
723,723,1727899317284,-0.91015625,0.28710938,-0.0107421875,27.625,-19.125,-4.0625
724,724,1727899317324,-0.9658203,0.020507812,0.119140625,18.90625,-13.96875,3.1875
725,725,1727899317364,-0.9316406,-0.053710938,-0.018554688,-31.71875,7.0625,-5.96875
726,726,1727899317404,-1.0048828,0.14453125,0.13964844,7.1875,-32.96875,6.125
727,727,1727899317444,-0.953125,0.13671875,0.25976562,4.90625,-45.53125,3.125
728,728,1727899317484,-0.68359375,0.061523438,-0.18457031,-48.5625,-39.875,6.0625
729,729,1727899317524,-0.8203125,0.037109375,0.14453125,22.84375,-82.9375,24.5
730,730,1727899317564,-0.9863281,0.041015625,0.13867188,6.4375,-65.3125,7.09375
731,731,1727899317604,-0.94433594,0.0107421875,-0.068359375,-19.75,-45.0,10.46875
732,732,1727899317644,-0.94628906,-0.005859375,0.32910156,11.4375,-42.90625,15.875
733,733,1727899317684,-0.9667969,0.024414062,0.10839844,13.59375,-39.0625,15.40625
734,734,1727899317724,-0.84375,0.0703125,0.34277344,-8.03125,-14.09375,11.0625
735,735,1727899317764,-0.99902344,0.11425781,0.28222656,-22.4375,-30.28125,22.1875
736,736,1727899317804,-1.4414062,-0.04296875,0.44628906,-8.40625,-36.1875,39.5
737,737,1727899317844,-1.4873047,0.23730469,0.4423828,99.875,-117.75,64.46875
738,738,1727899317884,-1.3349609,0.58984375,0.36523438,69.71875,-109.375,79.90625
739,739,1727899317924,-1.1015625,0.1328125,0.20996094,59.1875,-76.90625,61.46875
740,740,1727899317964,-0.82421875,0.19921875,0.28515625,42.5625,-26.4375,29.9375
741,741,1727899318004,-0.84472656,0.2734375,0.18261719,55.5625,-8.4375,10.46875
742,742,1727899318044,-0.5888672,0.32714844,0.09863281,40.375,-3.96875,-0.65625
743,743,1727899318084,-0.6484375,0.2783203,0.1640625,0.9375,13.375,1.71875
744,744,1727899318124,-0.6904297,0.32421875,0.1953125,-24.125,36.8125,-14.125
745,745,1727899318164,-0.7089844,0.32421875,0.25683594,-45.125,59.875,-21.65625
746,746,1727899318204,-0.7216797,0.14648438,0.359375,-55.5,86.71875,-16.03125
747,747,1727899318244,-0.9160156,0.0029296875,0.19921875,-14.0625,109.75,-32.375
748,748,1727899318284,-0.85546875,0.15820312,0.31445312,-72.0,89.28125,-47.78125
749,749,1727899318324,-0.98339844,0.3330078,0.21484375,-23.96875,86.96875,-49.28125
750,750,1727899318364,-0.81933594,0.39160156,0.21582031,-7.53125,54.5,-36.21875
751,751,1727899318404,-0.83691406,0.2705078,0.107421875,58.0,6.28125,-3.40625
752,752,1727899318444,-1.0449219,0.078125,0.08496094,9.1875,28.6875,-35.375
753,753,1727899318484,-1.0546875,0.119140625,0.12695312,24.8125,28.125,-45.09375
754,754,1727899318524,-1.1171875,0.3701172,-0.03125,-50.5625,63.96875,-66.25
755,755,1727899318564,-1.3115234,0.23632812,0.15527344,42.5625,23.6875,-20.78125
756,756,1727899318604,-1.3037109,0.10449219,-0.07910156,-73.9375,62.375,-33.25
757,757,1727899318644,-1.0136719,0.18457031,-0.17285156,-13.625,27.875,-13.59375
758,758,1727899318684,-1.3027344,-0.13183594,-0.3076172,66.3125,40.21875,-2.125
759,759,1727899318724,-1.2998047,-0.0703125,-0.20117188,5.40625,41.125,-16.34375
