,Unnamed: 0,timestamp,accel_x,accel_y,accel_z,gyro_x,gyro_y,gyro_z
0,0,1728027241851,-0.9921875,0.005859375,-0.060546875,1.3125,5.25,-1.1875
1,1,1728027241891,-1.0097656,0.0048828125,-0.052734375,0.28125,2.03125,0.46875
2,2,1728027241931,-1.0,-0.044921875,-0.08203125,9.0,-0.59375,-0.9375
3,3,1728027241971,-0.9394531,0.013671875,-0.06347656,5.59375,1.21875,-5.28125
4,4,1728027242011,-0.953125,0.001953125,-0.024414062,-15.34375,-2.90625,-8.6875
5,5,1728027242051,-0.8408203,0.038085938,0.01953125,-31.84375,-5.90625,-12.90625
6,6,1728027242091,-0.7861328,-0.08300781,0.099609375,-36.84375,-10.59375,-15.34375
7,7,1728027242131,-0.82421875,-0.09863281,-0.041015625,-8.5625,-11.03125,-19.3125
8,8,1728027242171,-1.0429688,-0.13085938,0.0087890625,19.9375,-8.0,-10.8125
9,9,1728027242211,-0.9140625,-0.057617188,-0.048828125,35.4375,-27.28125,-15.59375
10,10,1728027242251,-0.9873047,-0.0546875,-0.09375,39.46875,-26.59375,-13.875
11,11,1728027242291,-0.97558594,-0.07421875,-0.10449219,4.1875,-23.5625,-12.28125
12,12,1728027242331,-0.9980469,-0.2841797,-0.020507812,-19.1875,-17.6875,-14.96875
13,13,1728027242371,-0.84375,-0.5966797,0.055664062,-22.625,-58.09375,-59.53125
14,14,1728027242411,-0.58691406,-0.15234375,0.10253906,-2.65625,-85.9375,-92.0625
15,15,1728027242451,-0.9267578,-0.2607422,-0.076171875,-28.78125,-75.0625,-137.0
16,16,1728027242491,-2.0,0.040039062,0.32714844,-89.3125,1.125,-115.0
17,17,1728027242531,-0.89746094,-0.08691406,0.1015625,33.46875,-5.375,-25.28125
18,18,1728027242571,-1.1962891,-0.5,0.35058594,28.65625,12.28125,25.1875
19,19,1728027242611,-0.8935547,-0.12890625,0.39648438,74.90625,1.84375,25.125
20,20,1728027242651,-0.7519531,0.1171875,0.20800781,79.375,15.75,38.90625
21,21,1728027242691,-0.5410156,0.13476562,0.16503906,35.5,34.4375,50.625
22,22,1728027242731,-0.7705078,-0.15332031,0.23144531,2.46875,39.375,61.25
23,23,1728027242771,-0.88964844,-0.16308594,0.16308594,13.875,35.28125,61.125
24,24,1728027242811,-0.69628906,-0.025390625,0.16796875,46.65625,33.21875,43.75
25,25,1728027242851,-0.81933594,-0.109375,0.0546875,71.0,13.9375,43.5
26,26,1728027242891,-0.80859375,0.009765625,0.15625,26.15625,37.3125,29.21875
27,27,1728027242931,-0.9550781,-0.026367188,0.2734375,24.03125,25.15625,34.78125
28,28,1728027242971,-1.0947266,-0.14160156,0.21972656,20.28125,23.9375,21.21875
29,29,1728027243011,-1.0097656,-0.06542969,0.13574219,-0.59375,11.0,14.0625
30,30,1728027243051,-1.3837891,0.08691406,0.25,-61.25,35.21875,2.53125
31,31,1728027243091,-1.1425781,0.15039062,-0.15625,19.8125,-6.21875,-10.34375
32,32,1728027243131,-0.7998047,0.22167969,-0.18652344,-0.21875,-20.0625,-13.625
33,33,1728027243171,-2.0,0.0546875,-0.2529297,44.46875,31.0625,15.90625
34,34,1728027243211,-0.78808594,-0.14453125,0.08105469,-173.75,-30.3125,-1.0625
35,35,1728027243251,-1.2275391,-0.09277344,-0.0625,93.15625,16.625,24.34375
36,36,1728027243291,-0.9375,-0.052734375,-0.029296875,47.5,8.75,8.71875
37,37,1728027243331,-0.7988281,0.048828125,-0.0625,31.09375,-6.21875,1.375
38,38,1728027243371,-0.85058594,0.15722656,-0.047851562,-16.8125,8.8125,-3.5625
39,39,1728027243411,-0.92578125,0.040039062,-0.05078125,-22.75,15.625,7.1875
40,40,1728027243451,-0.93359375,-0.12988281,0.07128906,-58.75,8.8125,2.53125
41,41,1728027243491,-0.86328125,-0.13378906,-0.08691406,-57.28125,-20.4375,-0.03125
42,42,1728027243531,-0.7441406,-0.20605469,-0.0234375,39.34375,-6.53125,5.53125
43,43,1728027243571,-0.8935547,-0.06542969,-0.09765625,43.78125,-27.46875,-7.34375
44,44,1728027243611,-0.8925781,-0.0078125,0.125,-26.34375,-6.875,-7.59375
45,45,1728027243651,-0.87109375,-0.0068359375,-0.17480469,64.125,-44.71875,5.40625
46,46,1728027243691,-0.9589844,-0.10449219,-0.057617188,55.8125,-6.75,12.1875
47,47,1728027243731,-1.0625,-0.25585938,0.15527344,-18.71875,-2.5625,-11.25
48,48,1728027243771,-1.0869141,-0.3125,0.31054688,-6.0625,-62.1875,-34.5
49,49,1728027243811,-1.0419922,-0.09082031,0.12207031,11.75,-104.71875,-94.625
50,50,1728027243851,-1.5351562,0.25390625,-0.16113281,16.15625,-105.09375,-66.625
51,51,1728027243891,-1.890625,0.24707031,-0.061523438,-33.0,-24.84375,-48.65625
52,52,1728027243931,-1.3896484,-0.40722656,0.13964844,83.34375,-25.0,-60.09375
53,53,1728027243971,-0.6064453,0.109375,0.265625,53.375,-2.0625,-34.03125
54,54,1728027244011,-1.0068359,-0.14257812,0.15820312,56.5,17.71875,-30.59375
55,55,1728027244051,-1.0117188,-0.11328125,0.13476562,75.03125,12.59375,-30.40625
56,56,1728027244091,-0.7919922,-0.030273438,0.20703125,95.90625,5.4375,-27.625
57,57,1728027244131,-0.76171875,0.038085938,0.20703125,83.03125,11.53125,-15.53125
58,58,1728027244171,-0.8339844,-0.078125,0.18359375,53.625,25.03125,-5.28125
59,59,1728027244211,-0.80859375,-0.08300781,0.19140625,48.96875,28.6875,8.09375
60,60,1728027244251,-0.88671875,-0.115234375,0.15332031,54.71875,21.9375,22.3125
61,61,1728027244291,-0.8847656,-0.0078125,0.20214844,48.625,27.28125,28.65625
62,62,1728027244331,-0.9003906,-0.076171875,0.15820312,27.25,39.75,30.0
63,63,1728027244371,-0.7109375,-0.047851562,0.09863281,16.375,49.28125,20.125
64,64,1728027244411,-0.63378906,-0.08496094,0.13769531,30.1875,51.53125,15.40625
65,65,1728027244451,-0.87890625,-0.060546875,0.08691406,22.625,35.21875,12.125
66,66,1728027244491,-0.9902344,-0.14257812,0.08300781,1.0625,43.90625,13.28125
67,67,1728027244531,-1.0546875,-0.13476562,0.09863281,-4.96875,57.6875,21.78125
68,68,1728027244571,-1.0996094,-0.12109375,0.15820312,-14.625,30.34375,26.40625
69,69,1728027244611,-0.9716797,-0.19433594,0.08300781,-22.5,10.5625,25.3125
70,70,1728027244651,-0.9589844,0.005859375,0.24902344,50.8125,19.53125,4.8125
71,71,1728027244691,-1.1376953,0.17871094,-0.057617188,114.71875,-20.8125,-35.0
72,72,1728027244731,-2.0,0.61816406,-0.3095703,31.53125,-106.6875,-57.15625
73,73,1728027244771,-0.6123047,0.08886719,-0.21386719,-111.65625,142.21875,13.78125
74,74,1728027244811,-1.5605469,-0.171875,-0.24707031,-12.96875,10.5,26.34375
75,75,1728027244851,-0.98535156,-0.056640625,0.051757812,12.53125,43.90625,15.28125
76,76,1728027244891,-0.7529297,0.103515625,0.00390625,12.34375,3.375,12.84375
77,77,1728027244931,-0.80371094,0.18652344,-0.009765625,-8.75,13.6875,10.09375
78,78,1728027244971,-1.0664062,0.07714844,-0.08886719,-7.1875,3.0625,26.96875
79,79,1728027245011,-0.96777344,-0.21777344,0.018554688,2.53125,13.5,30.75
80,80,1728027245051,-1.0048828,-0.2529297,-0.13671875,32.0625,-7.1875,22.375
81,81,1728027245091,-0.9863281,-0.21191406,-0.07128906,41.15625,3.90625,12.5
82,82,1728027245131,-0.88378906,-0.03125,-0.009765625,2.78125,-12.5,-5.53125
83,83,1728027245171,-0.7636719,0.040039062,0.034179688,-36.53125,-12.625,-9.65625
84,84,1728027245211,-0.79785156,-0.09472656,-0.06542969,26.65625,-3.96875,-2.09375
85,85,1728027245251,-0.78515625,-0.171875,0.0146484375,58.125,-16.53125,-0.8125
86,86,1728027245291,-0.8955078,-0.021484375,-0.16601562,62.03125,-41.84375,1.125
87,87,1728027245331,-0.8544922,-0.022460938,-0.16992188,91.15625,-20.8125,21.8125
88,88,1728027245371,-1.0664062,-0.37890625,-0.01953125,-33.90625,3.125,6.25
89,89,1728027245411,-0.9628906,-0.47265625,0.115234375,12.125,-51.5,-30.71875
90,90,1728027245451,-0.8173828,-0.23339844,0.2548828,3.03125,-100.6875,-91.09375
91,91,1728027245491,-0.87597656,0.021484375,-0.072265625,27.875,-100.15625,-130.28125
92,92,1728027245531,-2.0,0.4013672,0.34277344,-37.5625,-20.625,-96.40625
93,93,1728027245571,-1.6152344,-0.17578125,0.01953125,63.9375,-25.125,-48.3125
94,94,1728027245611,-1.2119141,-0.14453125,0.2939453,57.59375,-26.0,-44.53125
95,95,1728027245651,-0.9716797,0.16992188,0.33691406,78.46875,2.875,-26.5
96,96,1728027245691,-0.6816406,0.37695312,0.10546875,62.46875,22.40625,-7.03125
97,97,1728027245731,-0.33984375,0.14257812,0.20117188,17.78125,33.53125,31.34375
98,98,1728027245771,-0.63183594,-0.00390625,0.15429688,50.3125,27.65625,46.25
99,99,1728027245811,-0.9667969,-0.07421875,0.28222656,50.8125,36.15625,41.1875
100,100,1728027245851,-0.8486328,-0.18847656,0.14355469,91.9375,17.03125,34.8125
101,101,1728027245891,-1.0517578,-0.09375,0.30078125,53.625,35.90625,33.59375
102,102,1728027245931,-0.8876953,0.0546875,0.29785156,41.78125,0.875,25.625
103,103,1728027245971,-0.7949219,-0.05859375,0.32910156,14.5625,12.84375,15.53125
104,104,1728027246011,-0.87109375,-0.078125,0.17578125,-19.875,41.15625,2.46875
105,105,1728027246051,-0.7578125,-0.1875,0.18652344,-53.375,24.96875,4.1875
106,106,1728027246091,-0.73535156,-0.028320312,0.32617188,-30.125,12.03125,10.65625
107,107,1728027246131,-1.1982422,-0.15136719,0.14257812,55.375,-7.9375,13.78125
108,108,1728027246171,-1.4990234,0.1171875,-0.21875,85.53125,0.8125,-33.78125
109,109,1728027246211,-0.92285156,0.50390625,-0.16308594,-38.0625,-62.5625,-43.84375
110,110,1728027246251,-2.0,0.3955078,-0.26367188,-140.21875,106.46875,-2.53125
111,111,1728027246291,-1.0263672,-0.2607422,0.015625,-53.75,4.03125,12.90625
112,112,1728027246331,-1.2773438,-0.11230469,-0.27441406,30.78125,-5.90625,43.96875
113,113,1728027246371,-0.7890625,-0.20800781,-0.11816406,41.28125,41.9375,44.53125
114,114,1728027246411,-0.8027344,-0.076171875,0.0078125,15.46875,29.375,19.8125
115,115,1728027246451,-0.9082031,0.12402344,0.076171875,-9.5,22.90625,15.1875
116,116,1728027246491,-0.9326172,0.049804688,-0.034179688,40.3125,4.28125,24.15625
117,117,1728027246531,-0.9736328,-0.15039062,-0.140625,22.4375,1.34375,16.34375
118,118,1728027246571,-0.99316406,-0.1875,-0.08105469,10.28125,15.34375,10.0625
119,119,1728027246611,-1.0273438,-0.041015625,0.0078125,-11.1875,2.6875,-6.4375
120,120,1728027246651,-0.97265625,0.01171875,-0.060546875,44.65625,-10.5,-1.71875
121,121,1728027246691,-0.8828125,0.05078125,-0.045898438,25.375,-13.0,-4.0
122,122,1728027246731,-0.8203125,0.017578125,-0.08203125,-6.0625,-13.71875,-9.3125
123,123,1728027246771,-0.9404297,-0.040039062,-0.049804688,-8.5,-4.03125,-7.34375
124,124,1728027246811,-0.81152344,-0.045898438,-0.09765625,50.3125,-12.875,2.84375
125,125,1728027246851,-0.80078125,-0.107421875,0.0087890625,15.65625,-8.28125,-4.78125
126,126,1728027246891,-0.84277344,-0.03515625,-0.047851562,16.75,1.34375,-11.375
127,127,1728027246931,-1.0839844,-0.12109375,-0.09277344,56.84375,-17.03125,7.1875
128,128,1728027246971,-0.92285156,-0.43847656,0.22460938,-6.125,-27.5625,-14.84375
129,129,1728027247011,-0.79785156,-0.22851562,0.21777344,16.21875,-91.3125,-72.90625
130,130,1728027247051,-0.9267578,-0.1640625,0.111328125,-5.9375,-90.4375,-115.25
131,131,1728027247091,-1.7001953,0.064453125,-0.15722656,12.71875,-78.46875,-110.8125
132,132,1728027247131,-2.0,0.109375,0.0859375,-5.84375,17.78125,-67.34375
133,133,1728027247171,-1.2519531,-0.14160156,0.11230469,51.375,8.3125,-53.375
134,134,1728027247211,-0.9248047,-0.1015625,0.2783203,59.90625,-3.40625,-27.0
135,135,1728027247251,-0.8173828,0.11230469,0.19726562,100.1875,-4.75,-19.125
136,136,1728027247291,-0.5810547,0.29003906,0.06542969,50.3125,22.40625,11.09375
137,137,1728027247331,-0.71191406,-0.06542969,0.16796875,24.03125,25.46875,14.4375
138,138,1728027247371,-0.8515625,0.10449219,0.16699219,55.4375,22.09375,29.6875
139,139,1728027247411,-0.85058594,-0.0029296875,0.18261719,30.84375,37.5,39.03125
140,140,1728027247451,-0.8964844,-0.22949219,0.16503906,13.46875,47.125,31.40625
141,141,1728027247491,-0.9814453,-0.15917969,0.24316406,17.65625,29.6875,37.15625
142,142,1728027247531,-0.84472656,0.034179688,0.2685547,63.875,3.1875,30.125
143,143,1728027247571,-0.8388672,-0.07910156,0.1953125,31.09375,10.9375,15.46875
144,144,1728027247611,-0.7910156,-0.0859375,0.013671875,-10.96875,30.65625,9.6875
145,145,1728027247651,-0.90234375,-0.09375,0.18847656,-61.75,33.6875,15.65625
146,146,1728027247691,-0.91796875,-0.13769531,0.32421875,-18.84375,7.34375,30.375
147,147,1728027247731,-0.8847656,-0.111328125,0.12402344,20.96875,17.28125,20.59375
148,148,1728027247771,-0.81347656,0.009765625,0.2685547,-7.90625,22.34375,11.03125
149,149,1728027247811,-1.2558594,0.0234375,-0.33007812,42.375,-0.71875,0.71875
150,150,1728027247851,-1.234375,0.27539062,-0.17089844,90.1875,-21.21875,-23.65625
151,151,1728027247891,-2.0,0.12011719,0.0107421875,-110.6875,69.59375,-14.0
152,152,1728027247931,-1.2578125,0.07910156,-0.20996094,-139.875,-12.75,-10.9375
153,153,1728027247971,-1.4003906,-0.125,-0.10449219,43.0,54.15625,34.46875
154,154,1728027248011,-0.7919922,-0.091796875,0.00390625,-4.125,20.75,19.6875
155,155,1728027248051,-0.60253906,0.0078125,0.022460938,-7.28125,3.90625,1.625
156,156,1728027248091,-0.6923828,0.09472656,-0.041992188,-26.09375,3.3125,-6.5
157,157,1728027248131,-1.0576172,0.11230469,-0.13867188,-101.84375,9.71875,-0.5625
158,158,1728027248171,-0.99609375,-0.047851562,-0.045898438,-37.6875,28.28125,23.15625
159,159,1728027248211,-0.92089844,-0.35546875,-0.037109375,-27.125,-4.5,22.0625
160,160,1728027248251,-0.8730469,-0.296875,-0.083984375,-7.96875,-10.59375,-3.0625
161,161,1728027248291,-0.85253906,-0.09375,0.01171875,13.53125,-12.6875,-19.4375
162,162,1728027248331,-0.7480469,-0.0087890625,-0.07714844,52.21875,-31.4375,-6.375
163,163,1728027248371,-1.0117188,-0.07910156,-0.23242188,80.90625,-9.4375,5.34375
164,164,1728027248411,-0.88183594,-0.20214844,0.056640625,74.5625,22.65625,3.46875
165,165,1728027248451,-0.8154297,0.08496094,-0.0625,40.0,-11.40625,-32.96875
166,166,1728027248491,-1.0048828,-0.22558594,-0.0078125,16.4375,2.8125,-16.125
167,167,1728027248531,-0.9375,-0.3798828,0.11035156,-26.53125,-39.125,-56.96875
168,168,1728027248571,-1.2373047,-0.103515625,0.24804688,10.09375,-45.8125,-104.03125
169,169,1728027248611,-1.9414062,0.3623047,0.040039062,18.21875,-79.03125,-73.5
170,170,1728027248651,-1.3261719,0.13671875,0.19726562,-106.78125,-47.0,-89.875
171,171,1728027248691,-1.4042969,-0.5595703,0.08984375,-16.5,-37.84375,-47.8125
172,172,1728027248731,-1.0175781,-0.13769531,0.19140625,62.46875,-52.28125,9.375
173,173,1728027248771,-0.62890625,0.1796875,0.18359375,48.75,-25.625,38.5
174,174,1728027248811,-0.52246094,0.23730469,0.109375,-34.5625,-6.03125,40.875
175,175,1728027248851,-0.5527344,-0.060546875,0.07324219,-36.71875,15.15625,60.34375
176,176,1728027248891,-0.6933594,-0.23046875,0.049804688,-38.78125,25.78125,43.1875
177,177,1728027248931,-0.7910156,-0.28320312,0.024414062,-21.40625,23.75,35.375
178,178,1728027248971,-0.7060547,-0.22070312,0.0390625,-12.96875,19.0,20.0
179,179,1728027249011,-0.7636719,-0.15136719,0.18652344,34.875,-0.84375,23.21875
180,180,1728027249051,-0.85839844,-0.13476562,0.051757812,56.78125,12.53125,21.15625
181,181,1728027249091,-0.75878906,-0.091796875,0.18359375,-7.125,27.71875,21.59375
182,182,1728027249131,-1.2568359,0.15136719,0.4111328,9.96875,31.9375,8.71875
183,183,1728027249171,-1.7246094,0.22753906,0.234375,-17.25,50.65625,-47.25
184,184,1728027249211,-1.1464844,-0.033203125,-0.12988281,-11.3125,-6.875,-29.25
185,185,1728027249251,-1.7607422,-0.2783203,-0.15429688,-33.0,25.59375,21.59375
186,186,1728027249291,-1.2734375,0.07519531,-0.21679688,-104.46875,-17.6875,7.1875
187,187,1728027249331,-1.234375,-0.078125,-0.080078125,-44.71875,10.4375,46.4375
188,188,1728027249371,-0.9667969,-0.13085938,-0.021484375,-6.125,-2.125,35.0625
189,189,1728027249411,-0.8417969,-0.068359375,-0.032226562,25.0,-13.34375,30.5625
190,190,1728027249451,-0.8720703,-0.024414062,-0.02734375,45.0,3.90625,36.59375
191,191,1728027249491,-0.8701172,-0.20898438,-0.045898438,35.78125,1.46875,25.4375
192,192,1728027249531,-0.7998047,-0.14941406,-0.033203125,27.25,6.0,10.0
193,193,1728027249571,-0.68847656,-0.16308594,0.08496094,21.6875,2.8125,2.84375
194,194,1728027249611,-0.7841797,-0.15917969,-0.17773438,39.53125,-20.5,0.28125
195,195,1728027249651,-0.8144531,-0.14453125,-0.01953125,46.46875,-2.5625,-6.0
196,196,1728027249691,-0.8847656,-0.06933594,-0.041992188,58.6875,-16.53125,-6.3125
197,197,1728027249731,-0.9140625,-0.21875,0.005859375,50.875,-37.28125,-9.96875
198,198,1728027249771,-0.83496094,-0.29589844,0.119140625,-10.28125,-75.625,-39.21875
199,199,1728027249811,-1.1416016,-0.20703125,0.21191406,-8.28125,-105.21875,-89.6875
200,200,1728027249851,-1.4365234,0.14160156,0.15722656,19.0625,-59.6875,-86.09375
201,201,1728027249891,-2.0,0.328125,0.21679688,-4.0,39.375,-118.4375
202,202,1728027249931,-1.5966797,-0.3154297,0.16894531,20.65625,25.78125,-58.375
203,203,1728027249971,-1.0507812,0.033203125,0.2705078,47.8125,-3.71875,-13.4375
204,204,1728027250011,-0.7441406,0.16015625,0.22558594,121.0,-3.59375,5.78125
205,205,1728027250051,-0.6230469,0.059570312,0.14453125,75.65625,18.375,26.34375
206,206,1728027250091,-0.53222656,0.115234375,0.16113281,18.03125,20.875,36.78125
207,207,1728027250131,-0.74316406,-0.022460938,0.18359375,34.75,12.34375,45.03125
208,208,1728027250171,-0.8232422,-0.12011719,0.19042969,52.09375,31.625,35.25
209,209,1728027250211,-0.8173828,-0.21289062,0.057617188,50.5625,42.125,24.15625
210,210,1728027250251,-0.71777344,0.10546875,0.16601562,117.78125,15.875,14.3125
211,211,1728027250291,-0.78515625,0.076171875,0.4140625,102.09375,18.4375,25.5625
212,212,1728027250331,-0.85058594,-0.17382812,0.16308594,24.375,16.0625,18.78125
213,213,1728027250371,-0.9658203,-0.017578125,0.23339844,-1.125,38.21875,-0.5
214,214,1728027250411,-0.7314453,-0.0029296875,0.06640625,-29.625,2.625,-1.5
215,215,1728027250451,-1.1728516,0.016601562,0.09863281,25.84375,21.4375,4.96875
216,216,1728027250491,-1.3896484,0.21679688,-0.2548828,7.53125,-91.53125,-30.40625
217,217,1728027250531,-1.6835938,0.11328125,0.0146484375,-64.71875,119.59375,-34.8125
218,218,1728027250571,-1.3095703,0.30859375,-0.04296875,-86.46875,-61.21875,-24.875
219,219,1728027250611,-1.3105469,0.0546875,-0.25878906,28.21875,-24.34375,1.625
220,220,1728027250651,-1.0400391,-0.18164062,-0.10253906,77.375,84.90625,44.96875
221,221,1728027250691,-0.765625,-0.16308594,0.19140625,48.625,89.0625,36.0625
222,222,1728027250731,-0.8203125,0.0390625,-0.037109375,28.59375,-11.09375,20.3125
223,223,1728027250771,-0.95996094,0.08886719,-0.045898438,22.6875,2.75,25.3125
224,224,1728027250811,-0.8232422,-0.12207031,-0.04296875,-21.34375,-20.5625,16.6875
225,225,1728027250851,-0.7861328,-0.17773438,-0.16113281,7.59375,-1.15625,18.78125
226,226,1728027250891,-0.69628906,-0.20410156,0.025390625,49.78125,11.71875,15.0
227,227,1728027250931,-0.7871094,-0.17578125,-0.0146484375,20.21875,-6.59375,-9.375
228,228,1728027250971,-0.8574219,-0.08984375,-0.051757812,54.34375,-10.5625,-1.84375
229,229,1728027251011,-1.1005859,-0.33789062,-0.045898438,76.875,-18.78125,3.625
230,230,1728027251051,-0.99316406,-0.2861328,0.24023438,-20.28125,-31.0,-27.5625
231,231,1728027251091,-0.90234375,-0.18457031,0.10253906,31.15625,-94.78125,-60.875
232,232,1728027251131,-1.1933594,-0.15039062,-0.09375,42.09375,-83.1875,-103.71875
233,233,1728027251171,-2.0,0.24707031,-0.17578125,35.96875,-67.4375,-116.28125
234,234,1728027251211,-1.3818359,0.14257812,0.234375,-42.09375,31.125,-74.90625
235,235,1728027251251,-1.4277344,-0.21875,0.20019531,91.875,2.4375,-53.3125
236,236,1728027251291,-1.0419922,0.1171875,0.14746094,105.9375,-13.21875,-17.25
237,237,1728027251331,-0.58203125,0.26757812,0.05859375,95.125,-1.34375,6.09375
238,238,1728027251371,-0.48242188,0.28320312,0.18261719,33.40625,18.6875,27.875
239,239,1728027251411,-0.6279297,0.095703125,0.1484375,42.8125,19.46875,33.125
240,240,1728027251451,-0.7011719,0.07324219,0.1171875,44.9375,25.40625,44.84375
241,241,1728027251491,-0.7216797,-0.10546875,0.12695312,22.84375,16.625,39.46875
242,242,1728027251531,-1.1064453,-0.11425781,0.19140625,9.1875,24.65625,33.125
243,243,1728027251571,-0.9042969,-0.119140625,0.24023438,51.53125,5.125,51.84375
244,244,1728027251611,-0.7480469,-0.10253906,0.20019531,15.21875,6.34375,25.0625
245,245,1728027251651,-0.7578125,-0.08984375,0.053710938,31.59375,28.28125,15.96875
246,246,1728027251691,-1.0527344,-0.07421875,0.5644531,-18.21875,18.8125,-1.5625
247,247,1728027251731,-0.80859375,-0.038085938,0.171875,7.59375,-27.625,14.75
248,248,1728027251771,-1.3476562,0.10449219,0.3408203,22.375,18.8125,-12.28125
249,249,1728027251811,-1.9082031,0.5605469,-0.0546875,24.3125,-54.90625,-42.25
250,250,1728027251851,-0.4140625,0.3544922,-0.19824219,-32.3125,-72.1875,-26.5
251,251,1728027251891,-2.0,0.28515625,-0.3828125,-68.375,-5.90625,18.96875
252,252,1728027251931,-1.3554688,-0.39648438,-0.01953125,20.28125,152.71875,45.15625
253,253,1728027251971,-1.0742188,-0.29101562,0.0009765625,-83.46875,44.25,36.21875
254,254,1728027252011,-0.7519531,-0.21484375,0.15429688,2.09375,44.125,39.34375
255,255,1728027252051,-0.86816406,0.0009765625,-0.016601562,104.8125,-3.28125,20.84375
256,256,1728027252091,-0.8955078,-0.02734375,0.013671875,81.625,-6.28125,12.4375
257,257,1728027252131,-0.78515625,-0.087890625,0.01171875,60.28125,-16.65625,10.46875
258,258,1728027252171,-0.8408203,-0.119140625,-0.10839844,38.0,-10.5625,1.25
259,259,1728027252211,-0.83203125,-0.19140625,-0.064453125,18.40625,4.03125,-5.09375
260,260,1728027252251,-0.74121094,-0.171875,-0.08105469,2.46875,-18.53125,-17.28125
261,261,1728027252291,-0.8359375,-0.09863281,-0.12792969,37.625,-12.1875,-16.625
262,262,1728027252331,-0.8984375,0.020507812,-0.052734375,62.03125,-10.4375,-3.6875
263,263,1728027252371,-1.0058594,-0.07910156,-0.028320312,66.0625,-24.28125,-2.40625
264,264,1728027252411,-0.85839844,-0.24902344,-0.022460938,41.34375,-40.875,-15.46875
265,265,1728027252451,-1.0351562,-0.26953125,0.14453125,4.65625,-51.375,-73.8125
266,266,1728027252491,-1.625,-0.123046875,0.21582031,13.6875,-69.875,-118.5
267,267,1728027252531,-2.0,0.4638672,0.24121094,18.65625,-28.0,-109.03125
268,268,1728027252571,-1.3447266,0.22753906,0.3701172,-32.5,7.09375,-45.0625
269,269,1728027252611,-1.3828125,-0.18164062,0.41210938,48.3125,-23.5,-30.71875
270,270,1728027252651,-0.8857422,0.33007812,0.2607422,70.28125,-25.625,-1.71875
271,271,1728027252691,-0.53515625,0.3515625,0.14648438,24.1875,4.78125,8.65625
272,272,1728027252731,-0.52734375,0.21875,0.01953125,-21.28125,31.75,33.59375
273,273,1728027252771,-0.4921875,0.08203125,0.19628906,7.28125,35.34375,46.71875
274,274,1728027252811,-0.5683594,-0.17773438,0.07714844,-13.09375,42.0625,66.5
275,275,1728027252851,-0.73339844,-0.48632812,-0.034179688,51.84375,13.875,54.0625
276,276,1728027252891,-0.87597656,-0.0078125,0.3671875,105.25,10.3125,22.6875
277,277,1728027252931,-0.8496094,0.01171875,0.11230469,87.375,-3.28125,18.21875
278,278,1728027252971,-0.96191406,-0.19921875,0.3857422,-3.5625,21.3125,12.125
279,279,1728027253011,-1.1845703,0.078125,0.2783203,-57.46875,27.34375,-24.0
280,280,1728027253051,-1.4892578,0.4169922,0.15820312,23.84375,14.125,-28.71875
281,281,1728027253091,-1.3310547,0.42285156,-0.2421875,42.875,-104.25,-12.53125
282,282,1728027253131,-1.9111328,-0.078125,-0.11328125,-24.6875,117.3125,-19.0
283,283,1728027253171,-1.328125,-0.27441406,-0.10839844,-182.21875,35.03125,27.1875
284,284,1728027253211,-1.3535156,-0.23730469,-0.030273438,37.625,32.0625,51.75
285,285,1728027253251,-0.8046875,-0.26171875,-0.005859375,61.375,15.6875,44.28125
286,286,1728027253291,-0.6933594,-0.14160156,0.025390625,80.53125,11.5,14.75
287,287,1728027253331,-0.8984375,0.08300781,0.034179688,40.6875,9.28125,-5.9375
288,288,1728027253371,-0.8027344,0.12792969,0.06347656,22.75,-1.40625,0.34375
289,289,1728027253411,-0.7636719,-0.026367188,-0.08984375,37.75,-19.53125,13.09375
290,290,1728027253451,-0.80859375,-0.18164062,-0.09863281,13.53125,-0.0625,13.03125
291,291,1728027253491,-0.8642578,-0.29101562,-0.013671875,4.375,0.25,-2.28125
292,292,1728027253531,-0.8642578,-0.00390625,-0.12695312,49.59375,-27.03125,-13.5625
293,293,1728027253571,-0.8515625,0.06347656,0.015625,62.28125,-17.375,-7.65625
294,294,1728027253611,-1.0400391,-0.11230469,0.072265625,36.46875,-19.21875,-14.25
295,295,1728027253651,-0.8964844,-0.21777344,0.27441406,-49.96875,-62.0,-40.5
296,296,1728027253691,-0.7988281,-0.20507812,0.43945312,-97.03125,-138.0625,-94.4375
297,297,1728027253731,-1.09375,-0.3876953,0.13964844,-70.90625,-133.65625,-150.90625
298,298,1728027253771,-2.0,-0.25585938,0.44726562,-17.3125,-76.59375,-142.65625
299,299,1728027253811,-1.3515625,0.44921875,0.3076172,121.1875,-70.0625,-29.375
300,300,1728027253851,-1.2900391,-0.1796875,0.57421875,-50.6875,33.75,4.375
301,301,1728027253891,-0.93066406,0.09667969,0.38964844,35.25,46.34375,-3.625
302,302,1728027253931,-0.6777344,0.23730469,0.33203125,73.15625,27.65625,1.0625
303,303,1728027253971,-0.2607422,0.123046875,0.23242188,20.90625,25.53125,45.4375
304,304,1728027254011,-0.3095703,0.17773438,0.19628906,3.5,37.78125,63.09375
305,305,1728027254051,-0.7363281,-0.034179688,0.16699219,-12.125,67.28125,67.59375
306,306,1728027254091,-0.94140625,-0.5683594,0.001953125,-17.0,30.40625,46.3125
307,307,1728027254131,-0.8769531,-0.46484375,0.115234375,27.8125,63.5625,45.5625
308,308,1728027254171,-0.859375,0.16113281,0.23730469,78.65625,55.5625,14.8125
309,309,1728027254211,-0.9423828,-0.043945312,0.4267578,119.46875,16.375,39.53125
310,310,1728027254251,-0.625,-0.140625,0.19335938,-21.875,41.03125,12.0625
311,311,1728027254291,-1.2832031,0.12109375,0.19238281,8.15625,24.0625,-6.96875
312,312,1728027254331,-1.9375,0.3408203,-0.068359375,21.03125,-8.09375,-51.65625
313,313,1728027254371,-0.8984375,0.14355469,-0.14550781,-35.96875,-7.9375,-20.28125
314,314,1728027254411,-1.4951172,-0.25976562,-0.107421875,-142.90625,44.9375,17.6875
315,315,1728027254451,-1.5107422,0.020507812,-0.18847656,-29.28125,-1.875,23.78125
316,316,1728027254491,-1.1289062,-0.0546875,-0.06738281,27.0,27.71875,41.40625
317,317,1728027254531,-0.8457031,-0.06933594,0.0078125,33.125,15.28125,39.65625
318,318,1728027254571,-0.8125,-0.01171875,0.021484375,35.625,24.0,35.0625
319,319,1728027254611,-0.72753906,-0.025390625,-0.028320312,32.0,0.25,32.625
320,320,1728027254651,-0.8544922,-0.016601562,-0.013671875,35.5,11.96875,28.125
321,321,1728027254691,-0.7939453,-0.171875,0.0107421875,-23.90625,2.03125,23.96875
322,322,1728027254731,-0.7705078,-0.28027344,-0.0009765625,-66.25,-8.09375,7.375
323,323,1728027254771,-0.64453125,-0.3017578,0.055664062,-6.0625,-12.8125,-4.65625
324,324,1728027254811,-0.8388672,-0.26464844,-0.16894531,83.53125,-31.125,-9.90625
325,325,1728027254851,-0.8798828,-0.06542969,-0.09863281,97.0625,-26.0,-8.3125
326,326,1728027254891,-1.0361328,-0.18066406,-0.15820312,70.15625,-38.375,1.25
327,327,1728027254931,-0.8486328,-0.4111328,0.1328125,-32.3125,-95.8125,-49.78125
328,328,1728027254971,-1.1826172,-0.3310547,0.40527344,-48.4375,-93.875,-146.1875
329,329,1728027255011,-1.9648438,-0.06542969,0.2548828,24.1875,-87.40625,-144.375
330,330,1728027255051,-2.0,0.546875,0.20800781,32.4375,-30.8125,-74.96875
331,331,1728027255091,-1.3066406,-0.22558594,0.25878906,68.6875,-5.25,-54.90625
332,332,1728027255131,-0.94921875,0.08886719,0.115234375,107.03125,10.21875,-24.75
333,333,1728027255171,-0.5234375,0.19726562,0.16503906,104.03125,32.1875,-20.03125
334,334,1728027255211,-0.3876953,0.22070312,0.095703125,115.9375,33.40625,9.3125
335,335,1728027255251,-0.43652344,0.23046875,0.13964844,58.1875,47.9375,34.03125
336,336,1728027255291,-0.56933594,-0.030273438,0.1484375,49.03125,49.28125,42.03125
337,337,1728027255331,-0.78808594,-0.1796875,0.25878906,38.375,26.125,20.59375
338,338,1728027255371,-1.0429688,-0.26757812,0.24707031,61.96875,36.28125,13.90625
339,339,1728027255411,-1.0566406,-0.14941406,0.29492188,75.21875,5.5625,19.09375
340,340,1728027255451,-0.9248047,-0.2607422,0.2705078,45.875,24.1875,15.78125
341,341,1728027255491,-0.95996094,-0.18945312,0.18847656,67.78125,13.3125,17.0625
342,342,1728027255531,-1.3554688,0.053710938,0.46191406,22.25,24.84375,-4.65625
343,343,1728027255571,-1.46875,0.33691406,-0.39648438,-56.25,-33.625,-42.8125
344,344,1728027255611,-0.61328125,0.36816406,-0.25683594,-96.59375,-99.53125,-27.96875
345,345,1728027255651,-0.86816406,0.2607422,-0.390625,-27.625,-14.75,2.65625
346,346,1728027255691,-1.9355469,0.14550781,-0.13183594,149.6875,117.8125,108.5
347,347,1728027255731,-0.87402344,0.31152344,1.1728516,69.90625,152.0625,85.375
348,348,1728027255771,-0.96777344,-0.25,0.10449219,-20.125,31.25,35.0625
349,349,1728027255811,-0.77246094,-0.119140625,-0.041992188,208.09375,-26.53125,56.125
350,350,1728027255851,-0.99316406,-0.087890625,-0.13769531,162.5625,-0.84375,28.0
351,351,1728027255891,-0.93066406,0.119140625,-0.16503906,67.71875,-20.125,21.34375
352,352,1728027255931,-0.5673828,0.16699219,-0.1015625,1.875,10.625,18.15625
353,353,1728027255971,-0.7919922,0.22265625,-0.07910156,-8.625,31.6875,20.59375
354,354,1728027256011,-1.0869141,0.1171875,-0.0068359375,-4.0625,42.125,32.6875
355,355,1728027256051,-1.1142578,-0.076171875,0.015625,-39.15625,25.15625,38.125
356,356,1728027256091,-1.2148438,-0.12890625,-0.15039062,82.5,-26.84375,44.40625
357,357,1728027256131,-1.2763672,-0.28027344,0.0390625,71.875,0.5625,34.875
358,358,1728027256171,-1.2626953,-0.25097656,0.18457031,2.03125,-47.96875,-7.78125
359,359,1728027256211,-1.2998047,-0.18945312,0.19824219,-29.03125,-122.84375,-72.90625
360,360,1728027256251,-1.2216797,0.34472656,0.01953125,-42.4375,-109.90625,-125.09375
361,361,1728027256291,-1.4501953,0.49804688,0.18164062,-86.875,-44.4375,-117.34375
362,362,1728027256331,-1.0078125,0.28320312,-0.018554688,8.75,4.34375,-96.8125
363,363,1728027256371,-1.1152344,-0.048828125,-0.029296875,9.75,-2.5625,-89.625
364,364,1728027256411,-1.0166016,-0.2998047,0.06738281,80.0625,-28.6875,-98.96875
365,365,1728027256451,-0.9785156,0.14941406,0.0126953125,113.5,-18.84375,-105.0
366,366,1728027256491,-0.7988281,0.26171875,0.02734375,134.625,-29.09375,-90.53125
367,367,1728027256531,-0.73046875,0.4169922,0.057617188,99.40625,-20.5625,-57.625
368,368,1728027256571,-0.6015625,0.13574219,0.18652344,22.125,17.84375,-27.96875
369,369,1728027256611,-0.60253906,-0.0546875,0.080078125,13.75,36.09375,-1.5
370,370,1728027256651,-0.7783203,-0.31347656,0.12988281,19.4375,28.40625,15.0
371,371,1728027256691,-0.8964844,-0.4951172,0.13964844,84.6875,-4.25,33.90625
372,372,1728027256731,-1.0253906,-0.44921875,0.19042969,109.46875,8.0,25.3125
373,373,1728027256771,-1.2373047,-0.52441406,0.421875,55.5,28.21875,-19.625
374,374,1728027256811,-0.86816406,-0.40429688,0.46777344,31.40625,27.0625,-55.0625
375,375,1728027256851,-0.9003906,-0.21582031,0.24316406,25.25,50.96875,-2.53125
376,376,1728027256891,-1.9462891,-0.5078125,-0.4716797,-18.9375,45.46875,11.4375
377,377,1728027256931,-0.65722656,0.8095703,-0.12890625,110.5,-102.65625,-12.65625
378,378,1728027256971,-0.2734375,0.4453125,-0.3828125,-120.46875,67.21875,27.375
379,379,1728027257011,-1.578125,0.5,-0.2578125,6.6875,25.875,97.09375
380,380,1728027257051,-1.2050781,-0.08886719,0.17578125,160.625,70.4375,88.28125
381,381,1728027257091,-1.046875,0.09375,-0.15234375,-88.03125,17.28125,75.125
382,382,1728027257131,-0.9199219,0.115234375,-0.11230469,-74.1875,37.90625,72.59375
383,383,1728027257171,-0.9707031,-0.028320312,-0.09472656,-27.625,39.625,74.0
384,384,1728027257211,-0.93652344,-0.0703125,0.12011719,60.6875,21.1875,70.90625
385,385,1728027257251,-0.8984375,-0.030273438,-0.0048828125,77.53125,-0.46875,43.875
386,386,1728027257291,-0.7988281,-0.001953125,-0.033203125,60.28125,2.875,24.8125
387,387,1728027257331,-0.9248047,0.07910156,-0.040039062,35.5625,8.125,16.625
388,388,1728027257371,-0.97558594,0.13183594,-0.056640625,28.96875,-1.15625,21.03125
389,389,1728027257411,-1.0234375,0.09277344,-0.068359375,16.3125,10.15625,33.125
390,390,1728027257451,-1.1611328,-0.0546875,-0.064453125,5.53125,26.0,35.625
391,391,1728027257491,-1.203125,-0.16210938,-0.08203125,22.84375,22.90625,29.34375
392,392,1728027257531,-1.4541016,-0.6191406,0.48632812,-274.875,-129.5,-37.5625
393,393,1728027257571,-1.3212891,0.0009765625,-0.33984375,89.75,-130.96875,-95.71875
394,394,1728027257611,-1.3867188,0.033203125,-0.37597656,85.59375,-81.03125,-135.59375
395,395,1728027257651,-1.4042969,0.22558594,-0.26367188,107.4375,-75.71875,-99.75
396,396,1728027257691,-1.0507812,-0.15429688,-0.21679688,69.71875,-7.1875,-113.1875
397,397,1728027257731,-1.1015625,0.12695312,-0.12890625,86.28125,-34.21875,-88.09375
398,398,1728027257771,-0.8808594,0.18847656,-0.29101562,101.21875,11.25,-79.84375
399,399,1728027257811,-0.83691406,0.045898438,-0.055664062,184.96875,-24.09375,-70.9375
400,400,1728027257851,-0.66015625,0.27441406,-0.16601562,165.3125,-18.59375,-42.375
401,401,1728027257891,-0.671875,0.4375,-0.0078125,93.65625,31.8125,-29.9375
402,402,1728027257931,-0.8203125,0.16699219,0.08886719,70.46875,49.625,-17.0
403,403,1728027257971,-0.796875,0.140625,0.13183594,75.71875,48.09375,9.4375
404,404,1728027258011,-0.8642578,-0.052734375,0.018554688,82.78125,34.125,34.78125
405,405,1728027258051,-0.9609375,-0.24511719,0.04296875,69.90625,22.84375,33.1875
406,406,1728027258091,-0.9873047,-0.29589844,-0.07128906,45.5625,66.71875,16.34375
407,407,1728027258131,-1.2041016,-0.8066406,-0.14648438,35.625,88.6875,-50.1875
408,408,1728027258171,-1.3027344,0.3125,0.7421875,-17.65625,38.09375,12.625
409,409,1728027258211,-2.0,0.15234375,-1.0146484,102.09375,-92.625,-13.15625
410,410,1728027258251,-0.18554688,0.30859375,-0.12988281,59.53125,55.8125,-48.53125
411,411,1728027258291,-1.1679688,0.59277344,-0.18457031,-79.4375,-62.1875,2.90625
412,412,1728027258331,-1.1591797,0.51660156,-0.083984375,63.5625,27.28125,28.34375
413,413,1728027258371,-0.9785156,0.17382812,-0.06933594,67.21875,21.6875,64.375
414,414,1728027258411,-0.81640625,-0.1015625,-0.07714844,153.90625,52.6875,69.25
415,415,1728027258451,-0.9824219,-0.24121094,-0.0146484375,-20.0,-5.65625,20.0625
416,416,1728027258491,-0.96484375,0.0009765625,-0.091796875,-4.5625,28.03125,14.625
417,417,1728027258531,-0.8730469,0.053710938,-0.020507812,-21.15625,11.5,7.71875
418,418,1728027258571,-1.0185547,-0.12011719,-0.038085938,-6.9375,5.6875,2.28125
419,419,1728027258611,-1.0019531,0.034179688,-0.043945312,16.21875,-13.53125,-5.28125
420,420,1728027258651,-0.8613281,0.0234375,-0.12695312,16.875,-8.65625,2.46875
421,421,1728027258691,-0.6689453,-0.053710938,0.12890625,-64.84375,8.5,-8.09375
422,422,1728027258731,-0.8310547,-0.052734375,-0.07714844,-5.59375,6.0,-9.53125
423,423,1728027258771,-0.84472656,-0.16699219,0.09765625,27.5,-16.09375,-8.5625
424,424,1728027258811,-0.9267578,0.064453125,-0.16601562,26.15625,-18.78125,-20.53125
425,425,1728027258851,-0.84765625,-0.032226562,-0.0087890625,42.4375,-17.75,7.96875
426,426,1728027258891,-0.9873047,-0.083984375,-0.0126953125,7.65625,-10.4375,-15.28125
427,427,1728027258931,-0.92089844,-0.40234375,0.123046875,-49.65625,-33.5,-31.34375
428,428,1728027258971,-0.890625,-0.29785156,0.29296875,-59.34375,-74.8125,-109.03125
429,429,1728027259011,-1.6259766,0.0146484375,-0.043945312,-50.6875,-74.34375,-122.75
430,430,1728027259051,-2.0,0.40527344,0.040039062,-16.6875,-14.21875,-49.59375
431,431,1728027259091,-1.4248047,-0.11230469,0.1953125,6.4375,-3.65625,-32.875
432,432,1728027259131,-0.89160156,-0.08886719,0.21972656,40.875,-22.375,-16.5625
433,433,1728027259171,-0.53515625,0.06738281,0.22167969,58.0625,-13.96875,10.59375
434,434,1728027259211,-0.6484375,0.18261719,0.046875,35.0625,15.6875,32.8125
435,435,1728027259251,-0.6357422,0.13574219,0.17578125,-2.46875,30.03125,57.59375
436,436,1728027259291,-0.7939453,-0.005859375,0.12402344,14.9375,30.03125,63.34375
437,437,1728027259331,-0.8857422,-0.095703125,0.12109375,33.46875,19.46875,60.15625
438,438,1728027259371,-0.9277344,-0.23046875,0.16308594,-6.75,37.1875,44.78125
439,439,1728027259411,-0.73535156,-0.14550781,0.046875,28.90625,27.34375,28.96875
440,440,1728027259451,-0.73046875,0.05859375,0.21582031,38.25,25.78125,19.875
441,441,1728027259491,-0.8808594,-0.020507812,0.17578125,17.5625,24.4375,22.0625
442,442,1728027259531,-0.9707031,-0.033203125,0.107421875,-46.46875,29.96875,8.40625
443,443,1728027259571,-0.7988281,-0.12792969,0.037109375,-21.6875,16.6875,12.5625
444,444,1728027259611,-1.1689453,0.13378906,0.5390625,-8.9375,39.625,4.75
445,445,1728027259651,-1.2060547,0.11328125,-0.29589844,79.0,-60.96875,-16.0625
446,446,1728027259691,-1.6806641,0.38867188,-0.17871094,27.6875,-31.59375,-35.4375
447,447,1728027259731,-0.99121094,-0.1796875,-0.11425781,-288.65625,-1.8125,-14.0625
448,448,1728027259771,-1.6259766,-0.033203125,-0.29003906,78.65625,-28.75,36.65625
449,449,1728027259811,-1.1298828,-0.16308594,0.013671875,44.90625,55.84375,33.375
450,450,1728027259851,-0.7294922,-0.057617188,-0.0009765625,4.53125,23.09375,18.53125
451,451,1728027259891,-0.7675781,0.06933594,0.05078125,-3.09375,25.46875,4.4375
452,452,1728027259931,-0.90527344,0.17285156,-0.04296875,7.34375,-3.78125,5.78125
453,453,1728027259971,-0.8359375,-0.05078125,-0.05078125,30.84375,0.1875,12.96875
454,454,1728027260011,-0.60839844,-0.11230469,-0.05078125,-14.1875,-3.03125,5.65625
455,455,1728027260051,-0.7597656,-0.24023438,-0.11621094,9.1875,1.46875,2.96875
456,456,1728027260091,-0.84375,-0.38183594,0.04296875,-59.40625,-8.96875,-21.4375
457,457,1728027260131,-0.9091797,0.017578125,-0.13867188,34.75,-11.40625,-9.4375
458,458,1728027260171,-0.93359375,-0.07910156,-0.091796875,96.53125,-16.65625,14.375
459,459,1728027260211,-1.1748047,-0.25683594,0.09375,16.625,4.21875,-4.65625
460,460,1728027260251,-0.9082031,-0.21972656,0.2685547,-7.125,-54.375,-51.65625
461,461,1728027260291,-1.1455078,-0.060546875,0.19042969,19.3125,-109.59375,-83.53125
462,462,1728027260331,-1.2734375,0.15136719,-0.10839844,-30.1875,-106.9375,-106.65625
463,463,1728027260371,-2.0,0.49121094,0.029296875,-11.9375,-49.96875,-77.65625
464,464,1728027260411,-1.1230469,-0.25878906,-0.1015625,28.21875,-9.4375,-57.46875
465,465,1728027260451,-1.1748047,-0.20996094,0.22167969,67.15625,-18.3125,-16.375
466,466,1728027260491,-0.92285156,-0.05859375,0.140625,107.9375,19.78125,-37.875
467,467,1728027260531,-0.328125,0.23144531,0.091796875,82.375,22.78125,2.96875
468,468,1728027260571,-0.31347656,0.052734375,0.24316406,47.625,31.875,23.71875
469,469,1728027260611,-0.7626953,-0.21289062,0.24902344,44.59375,35.34375,38.125
470,470,1728027260651,-0.8251953,-0.08105469,0.14453125,80.46875,11.71875,48.5625
471,471,1728027260691,-0.73046875,-0.024414062,0.12988281,72.46875,13.875,47.59375
472,472,1728027260731,-0.9550781,-0.099609375,0.13769531,63.8125,24.4375,47.53125
473,473,1728027260771,-0.7783203,-0.083984375,0.24902344,38.53125,16.90625,50.40625
474,474,1728027260811,-0.92871094,-0.14746094,0.34277344,57.40625,20.03125,11.75
475,475,1728027260851,-0.7294922,-0.24511719,0.10546875,22.75,0.1875,0.03125
476,476,1728027260891,-0.6513672,0.099609375,0.10449219,18.84375,15.75,-13.875
477,477,1728027260931,-1.0224609,0.072265625,0.07519531,-4.65625,27.96875,-15.03125
478,478,1728027260971,-1.34375,0.4658203,-0.09375,-21.46875,7.15625,-36.65625
479,479,1728027261011,-1.8642578,0.5722656,-0.37304688,-60.75,-76.09375,-26.8125
480,480,1728027261051,-0.9160156,-0.5371094,0.11328125,-95.625,353.96875,9.25
481,481,1728027261091,-2.0,-0.12011719,-0.1796875,2.34375,13.625,63.15625
482,482,1728027261131,-0.9892578,-0.15820312,-0.15527344,85.84375,-24.9375,41.40625
483,483,1728027261171,-0.8066406,-0.109375,-0.20117188,63.3125,0.0625,36.15625
484,484,1728027261211,-0.68359375,-0.056640625,0.037109375,80.84375,34.6875,24.6875
485,485,1728027261251,-1.0234375,0.029296875,-0.07324219,98.71875,-13.28125,15.53125
486,486,1728027261291,-0.8066406,-0.0087890625,-0.021484375,60.46875,-11.09375,11.34375
487,487,1728027261331,-0.7626953,0.0107421875,-0.068359375,53.0,-15.25,4.25
488,488,1728027261371,-0.9042969,-0.07519531,-0.12792969,16.75,-16.78125,4.375
489,489,1728027261411,-0.77441406,-0.14941406,-0.109375,16.375,-8.59375,-1.96875
490,490,1728027261451,-0.66308594,-0.07910156,-0.0087890625,-47.75,-26.78125,-19.75
491,491,1728027261491,-0.8330078,0.025390625,-0.10253906,71.875,-6.65625,-9.71875
492,492,1728027261531,-0.875,-0.14257812,-0.0146484375,46.125,-9.09375,-7.96875
493,493,1728027261571,-1.0556641,-0.29296875,0.020507812,-6.625,6.125,-25.65625
494,494,1728027261611,-1.1269531,-0.2998047,0.10058594,5.78125,-38.75,-57.40625
495,495,1728027261651,-1.4306641,-0.13769531,0.16992188,13.40625,-70.25,-109.03125
496,496,1728027261691,-1.8613281,0.3544922,0.083984375,8.4375,-76.03125,-87.84375
497,497,1728027261731,-1.6181641,0.080078125,0.123046875,-19.125,-13.1875,-44.09375
498,498,1728027261771,-1.265625,-0.26367188,0.068359375,37.75,-21.28125,-44.9375
499,499,1728027261811,-1.0107422,-0.0234375,0.15136719,53.25,-15.96875,-9.65625
500,500,1728027261851,-0.64453125,0.05078125,0.10839844,56.5,5.9375,-6.4375
501,501,1728027261891,-0.5566406,0.049804688,0.140625,24.0625,18.75,10.21875
502,502,1728027261931,-0.76660156,-0.20019531,0.17382812,39.9375,10.25,13.09375
503,503,1728027261971,-0.77441406,-0.009765625,0.12011719,53.4375,10.3125,23.78125
504,504,1728027262011,-0.82128906,0.056640625,0.115234375,44.40625,19.71875,36.40625
505,505,1728027262051,-0.80859375,-0.053710938,0.1171875,24.1875,22.15625,38.84375
506,506,1728027262091,-0.8769531,-0.21972656,0.14648438,31.28125,26.625,33.375
507,507,1728027262131,-0.8222656,-0.12207031,0.18164062,55.09375,23.75,24.4375
508,508,1728027262171,-0.82421875,0.001953125,0.29882812,62.84375,18.25,15.25
509,509,1728027262211,-0.7890625,-0.0859375,-0.022460938,56.96875,8.0,13.78125
510,510,1728027262251,-0.84765625,-0.044921875,0.21679688,-33.65625,59.28125,6.25
511,511,1728027262291,-0.8183594,-0.045898438,0.22070312,-16.4375,20.75,5.90625
512,512,1728027262331,-1.015625,0.091796875,0.20410156,33.125,14.28125,4.375
513,513,1728027262371,-1.2714844,0.20410156,-0.2265625,57.03125,-57.65625,-15.21875
514,514,1728027262411,-1.8974609,0.37304688,-0.3701172,59.53125,-43.25,-23.15625
515,515,1728027262451,-1.1386719,-0.47558594,0.17773438,-197.1875,210.03125,-13.75
516,516,1728027262491,-1.5810547,0.11816406,-0.20703125,39.28125,-25.0625,26.09375
517,517,1728027262531,-1.0351562,-0.06542969,-0.034179688,93.09375,22.71875,29.59375
518,518,1728027262571,-0.7763672,-0.09863281,-0.07324219,46.125,-9.21875,18.46875
519,519,1728027262611,-0.73046875,0.0146484375,-0.06640625,23.46875,13.9375,9.6875
520,520,1728027262651,-0.9921875,0.10058594,-0.083984375,27.6875,15.28125,11.28125
521,521,1728027262691,-0.8847656,0.0107421875,0.14355469,-23.40625,22.03125,20.25
522,522,1728027262731,-0.9951172,-0.18847656,-0.13964844,27.8125,-6.21875,19.875
523,523,1728027262771,-1.0146484,-0.23925781,-0.08691406,16.375,5.1875,11.5625
524,524,1728027262811,-0.9003906,-0.018554688,0.032226562,-54.53125,-10.90625,-17.28125
525,525,1728027262851,-0.7871094,0.032226562,-0.026367188,39.9375,-20.8125,-2.03125
526,526,1728027262891,-0.6542969,-0.053710938,-0.057617188,39.46875,-24.21875,-4.78125
527,527,1728027262931,-0.84765625,-0.1484375,-0.1640625,38.90625,-7.625,-4.28125
528,528,1728027262971,-0.87597656,-0.22363281,-0.018554688,27.4375,-7.125,-6.8125
529,529,1728027263011,-0.96875,-0.16601562,0.07324219,43.96875,-7.125,-6.5625
530,530,1728027263051,-0.83984375,-0.25390625,0.16699219,15.65625,-50.09375,-16.5
531,531,1728027263091,-1.1660156,-0.3642578,0.41210938,-60.15625,-76.71875,-106.46875
532,532,1728027263131,-1.4863281,0.04296875,0.0068359375,44.09375,-126.9375,-130.46875
533,533,1728027263171,-2.0,0.6796875,0.14746094,-14.875,-51.875,-103.28125
534,534,1728027263211,-1.1308594,-0.034179688,0.015625,-8.40625,-12.125,-62.71875
535,535,1728027263251,-1.4072266,-0.42773438,0.20898438,17.375,-18.71875,-42.1875
536,536,1728027263291,-0.8808594,0.07714844,0.13574219,97.0625,-27.15625,-31.8125
537,537,1728027263331,-0.55078125,0.3359375,0.08203125,53.1875,-3.15625,3.09375
538,538,1728027263371,-0.19140625,0.20019531,0.12402344,20.78125,10.5,21.15625
539,539,1728027263411,-0.7138672,-0.05078125,0.13867188,-1.9375,29.625,27.625
540,540,1728027263451,-0.76171875,-0.009765625,0.12988281,30.0,47.5,35.0
541,541,1728027263491,-0.82128906,-0.18554688,0.08300781,27.125,38.84375,33.65625
542,542,1728027263531,-1.0136719,-0.15039062,0.17675781,33.78125,30.53125,51.0625
543,543,1728027263571,-1.0839844,-0.115234375,0.3564453,20.78125,35.96875,44.71875
544,544,1728027263611,-0.74609375,-0.1796875,0.036132812,35.1875,39.125,33.5
545,545,1728027263651,-0.6748047,-0.00390625,0.25585938,22.84375,32.78125,20.90625
546,546,1728027263691,-0.91796875,-0.087890625,0.18945312,1.8125,40.125,19.4375
547,547,1728027263731,-0.9951172,-0.10644531,0.12402344,-60.5625,45.65625,14.1875
548,548,1728027263771,-0.87890625,-0.17773438,0.11230469,-16.875,19.96875,28.0625
549,549,1728027263811,-1.5595703,-0.0234375,0.27441406,-12.1875,34.6875,2.59375
550,550,1728027263851,-1.0839844,0.26464844,0.07128906,35.0,-1.15625,-34.4375
551,551,1728027263891,-1.8271484,0.25585938,-0.30273438,16.75,-51.6875,-36.28125
552,552,1728027263931,-1.0859375,-0.10644531,-0.17480469,-121.96875,34.0625,-10.9375
553,553,1728027263971,-1.4599609,-0.064453125,-0.20898438,7.46875,7.6875,29.09375
554,554,1728027264011,-0.98828125,-0.06640625,-0.08496094,53.125,27.59375,26.84375
555,555,1728027264051,-0.69628906,0.036132812,-0.024414062,15.34375,20.75,14.25
556,556,1728027264091,-0.6533203,0.123046875,-0.016601562,-48.75,33.03125,4.1875
557,557,1728027264131,-1.0146484,0.024414062,0.08203125,-60.53125,51.40625,17.125
558,558,1728027264171,-0.9501953,-0.09375,-0.0625,-12.1875,-28.4375,23.0
559,559,1728027264211,-0.8417969,-0.3076172,-0.0625,26.53125,-10.0625,24.75
560,560,1728027264251,-0.8125,-0.40820312,-0.06738281,-21.34375,-9.03125,-1.5625
561,561,1728027264291,-0.82714844,-0.07519531,-0.06347656,5.9375,-18.53125,-22.0625
562,562,1728027264331,-0.88964844,-0.024414062,-0.08691406,80.21875,-23.65625,-10.875
563,563,1728027264371,-0.7861328,-0.06933594,-0.022460938,48.625,-12.375,-8.875
564,564,1728027264411,-0.98046875,-0.017578125,-0.103515625,32.625,-11.9375,-6.25
565,565,1728027264451,-1.0195312,-0.1953125,0.0146484375,27.1875,-11.40625,3.5625
566,566,1728027264491,-1.0283203,-0.45996094,0.15429688,-35.4375,-35.15625,-45.625
567,567,1728027264531,-0.890625,-0.049804688,0.2607422,-16.6875,-88.71875,-104.40625
568,568,1728027264571,-1.2666016,0.0078125,0.051757812,-61.0,-71.53125,-123.625
569,569,1728027264611,-2.0,0.37402344,0.23535156,-41.59375,-32.09375,-73.4375
570,570,1728027264651,-1.3125,-0.18554688,0.17578125,-37.09375,-12.3125,-73.5
571,571,1728027264691,-1.2080078,-0.30078125,0.29589844,21.34375,-29.84375,-0.03125
572,572,1728027264731,-0.87890625,0.057617188,0.18945312,51.59375,-16.21875,17.6875
573,573,1728027264771,-0.4501953,0.12109375,0.16503906,15.03125,10.21875,33.71875
574,574,1728027264811,-0.38867188,0.08300781,0.083984375,-14.9375,22.84375,66.375
575,575,1728027264851,-0.79003906,-0.22460938,0.17480469,-17.125,42.1875,46.84375
576,576,1728027264891,-0.92285156,-0.23339844,0.09863281,27.3125,4.15625,45.5
577,577,1728027264931,-0.86035156,-0.08203125,0.016601562,74.3125,9.46875,61.25
578,578,1728027264971,-0.92871094,-0.14648438,0.22363281,28.84375,29.1875,62.84375
579,579,1728027265011,-0.7470703,-0.22070312,0.26464844,6.4375,45.25,34.03125
580,580,1728027265051,-0.74121094,-0.076171875,0.14160156,15.28125,41.40625,9.0625
581,581,1728027265091,-0.91015625,0.07714844,0.24609375,39.6875,5.1875,16.28125
582,582,1728027265131,-0.9121094,0.055664062,0.17480469,26.875,15.875,25.1875
583,583,1728027265171,-0.89941406,-0.018554688,0.21582031,-20.59375,22.96875,17.875
584,584,1728027265211,-1.3105469,-0.032226562,-0.3095703,-14.25,-7.8125,-18.40625
585,585,1728027265251,-1.5830078,0.34179688,-0.28320312,49.46875,-39.0,-42.5625
586,586,1728027265291,-1.3583984,-0.10253906,-0.06738281,-173.5,34.125,1.75
587,587,1728027265331,-1.5283203,-0.15527344,-0.25683594,-117.46875,1.21875,18.34375
588,588,1728027265371,-1.3447266,-0.23730469,0.028320312,35.90625,59.34375,44.78125
589,589,1728027265411,-0.77441406,-0.09863281,0.0029296875,2.59375,3.1875,24.9375
590,590,1728027265451,-0.72753906,0.0126953125,-0.0126953125,43.1875,8.0,15.40625
591,591,1728027265491,-0.9345703,0.17382812,-0.08691406,-2.96875,11.0625,5.40625
592,592,1728027265531,-0.89160156,-0.02734375,0.022460938,15.34375,18.75,25.0625
593,593,1728027265571,-0.82910156,-0.17382812,-0.06347656,-19.75,-25.0625,15.0625
594,594,1728027265611,-0.8183594,-0.18457031,-0.0546875,-0.21875,6.0625,10.65625
595,595,1728027265651,-0.6347656,-0.18554688,-0.087890625,-11.375,-13.28125,-0.8125
596,596,1728027265691,-0.6435547,-0.22949219,-0.09667969,56.125,3.5,-3.6875
597,597,1728027265731,-0.96191406,-0.35742188,-0.013671875,41.78125,-12.25,-10.75
598,598,1728027265771,-0.9160156,0.029296875,0.0,91.875,-16.21875,-4.84375
599,599,1728027265811,-0.9609375,-0.17578125,0.026367188,58.1875,-22.4375,-1.125
600,600,1728027265851,-0.9013672,-0.35742188,0.1484375,7.40625,-64.625,-36.9375
601,601,1728027265891,-1.1142578,-0.2919922,0.11035156,-3.21875,-79.59375,-127.40625
602,602,1728027265931,-2.0,0.10546875,-0.12792969,87.125,-100.6875,-131.5625
603,603,1728027265971,-2.0,0.64160156,0.2626953,-99.53125,11.96875,-47.375
604,604,1728027266011,-1.3935547,-0.3642578,0.08886719,81.03125,-21.46875,-50.875
605,605,1728027266051,-1.1796875,-0.0234375,0.13476562,72.59375,-26.84375,-19.1875
606,606,1728027266091,-0.72753906,0.34179688,0.18945312,89.5625,-22.75,-3.8125
607,607,1728027266131,-0.5673828,0.2763672,0.052734375,25.25,23.375,31.78125
608,608,1728027266171,-0.54003906,0.034179688,0.15136719,11.5,32.25,44.78125
609,609,1728027266211,-0.6660156,0.07519531,0.09082031,54.46875,33.03125,46.59375
610,610,1728027266251,-0.7753906,-0.10839844,0.109375,27.9375,28.9375,42.875
611,611,1728027266291,-0.8652344,-0.3125,0.1015625,67.84375,29.0,35.3125
612,612,1728027266331,-0.8623047,0.009765625,0.24707031,76.8125,20.6875,23.15625
613,613,1728027266371,-0.7949219,0.041015625,0.23046875,64.0625,5.8125,27.75
614,614,1728027266411,-0.8310547,-0.115234375,0.14257812,41.71875,25.65625,26.28125
615,615,1728027266451,-0.73535156,-0.123046875,0.12011719,-11.5625,43.34375,1.25
616,616,1728027266491,-0.86816406,0.0546875,0.26757812,-22.84375,10.3125,-6.84375
617,617,1728027266531,-1.53125,0.0,0.091796875,-35.625,3.3125,-40.3125
618,618,1728027266571,-1.6035156,0.59765625,-0.2890625,-4.3125,-68.15625,-62.34375
619,619,1728027266611,-1.0439453,0.34472656,-0.25097656,-91.34375,-13.21875,-10.03125
620,620,1728027266651,-1.5009766,-0.29101562,0.0009765625,-35.90625,181.71875,45.375
621,621,1728027266691,-1.3671875,-0.2421875,-0.09277344,-62.09375,-10.71875,31.59375
622,622,1728027266731,-0.9609375,-0.13964844,0.020507812,37.375,29.625,34.21875
623,623,1728027266771,-0.7011719,-0.009765625,-0.0126953125,69.625,0.6875,21.28125
624,624,1728027266811,-0.8779297,0.08496094,-0.041992188,33.53125,12.9375,16.09375
625,625,1728027266851,-0.98535156,0.037109375,0.020507812,34.6875,24.96875,24.09375
626,626,1728027266891,-0.8925781,-0.16699219,-0.026367188,34.34375,-9.3125,16.625
627,627,1728027266931,-0.9863281,-0.12890625,-0.080078125,15.78125,6.3125,17.625
628,628,1728027266971,-0.9501953,-0.19238281,-0.021484375,7.84375,1.21875,10.96875
629,629,1728027267011,-0.796875,-0.087890625,-0.052734375,36.09375,-10.84375,1.4375
630,630,1728027267051,-0.6972656,-0.078125,-0.05859375,-5.40625,-23.90625,-8.5625
631,631,1728027267091,-0.8251953,-0.08984375,-0.03515625,31.34375,-8.21875,-11.75
632,632,1728027267131,-0.9316406,-0.12597656,-0.13574219,52.53125,-17.4375,-5.46875
633,633,1728027267171,-0.9121094,-0.1796875,-0.07324219,33.53125,-27.40625,-12.78125
634,634,1728027267211,-0.99121094,-0.1640625,0.13964844,12.59375,-32.34375,-25.0625
635,635,1728027267251,-0.77441406,-0.44140625,0.27734375,-41.78125,-96.71875,-70.875
636,636,1728027267291,-0.82714844,-0.19433594,0.13378906,20.21875,-128.03125,-133.8125
637,637,1728027267331,-1.8398438,-0.13964844,0.0126953125,23.78125,-86.34375,-142.90625
638,638,1728027267371,-2.0,0.12011719,0.37109375,-16.625,45.46875,-43.90625
639,639,1728027267411,-0.9501953,0.0078125,0.07714844,51.53125,32.125,-93.46875
640,640,1728027267451,-1.4697266,-0.20703125,0.34375,82.5,18.5625,-32.125
641,641,1728027267491,-0.78808594,0.31054688,0.22070312,120.625,21.875,-21.1875
642,642,1728027267531,-0.41015625,0.171875,0.17285156,59.59375,42.75,20.125
643,643,1728027267571,-0.63671875,-0.07519531,0.21679688,56.4375,23.4375,29.8125
644,644,1728027267611,-0.9033203,-0.12792969,0.28808594,45.0625,32.46875,22.1875
645,645,1728027267651,-0.8925781,-0.123046875,0.14160156,62.96875,32.0,19.9375
646,646,1728027267691,-0.93359375,-0.109375,0.21386719,30.0625,38.9375,32.6875
647,647,1728027267731,-0.9423828,-0.09667969,0.3017578,65.53125,7.21875,42.625
648,648,1728027267771,-0.8828125,-0.020507812,0.3046875,50.9375,23.4375,36.65625
649,649,1728027267811,-0.84765625,-0.024414062,0.29589844,8.625,28.46875,30.25
650,650,1728027267851,-0.7919922,-0.1015625,0.13476562,-6.25,12.53125,19.1875
651,651,1728027267891,-0.7734375,-0.08300781,0.12597656,-9.5,19.59375,14.3125
652,652,1728027267931,-0.90625,-0.04296875,0.3095703,0.34375,31.03125,22.9375
653,653,1728027267971,-0.7783203,-0.072265625,0.28222656,-4.65625,14.71875,17.875
654,654,1728027268011,-0.6513672,-0.078125,0.10546875,-0.15625,12.65625,10.90625
655,655,1728027268051,-0.7734375,0.12011719,0.14550781,27.25,36.875,-3.0
656,656,1728027268091,-1.6113281,0.37597656,-0.39257812,43.78125,-67.4375,-23.21875
657,657,1728027268131,-2.0,-0.18457031,0.6894531,-16.625,78.1875,-40.90625
658,658,1728027268171,-0.3955078,-0.034179688,-0.3857422,-39.71875,-66.75,-4.28125
659,659,1728027268211,-2.0,-0.24609375,-0.2548828,72.78125,37.65625,40.125
660,660,1728027268251,-0.984375,-0.0234375,0.041992188,-61.3125,42.25,25.625
661,661,1728027268291,-0.7841797,0.015625,0.12988281,-15.96875,42.0,37.21875
662,662,1728027268331,-0.609375,0.08203125,0.01953125,28.78125,13.75,27.6875
663,663,1728027268371,-0.8408203,0.16601562,-0.024414062,-3.6875,15.5,25.6875
664,664,1728027268411,-1.0068359,0.001953125,0.034179688,-1.75,32.3125,38.4375
665,665,1728027268451,-1.0419922,-0.22167969,-0.12011719,27.0,-13.59375,36.65625
666,666,1728027268491,-1.0830078,-0.20800781,-0.076171875,-3.875,14.90625,25.375
667,667,1728027268531,-0.9199219,-0.14160156,-0.099609375,1.3125,-6.59375,5.78125
668,668,1728027268571,-0.9277344,-0.076171875,-0.061523438,31.34375,3.78125,-6.125
669,669,1728027268611,-0.8017578,-0.060546875,-0.02734375,-15.28125,-13.0,-14.125
670,670,1728027268651,-0.6982422,-0.020507812,0.060546875,-21.46875,-26.71875,-18.15625
671,671,1728027268691,-0.9511719,-0.049804688,-0.083984375,51.71875,-11.09375,-12.65625
672,672,1728027268731,-0.9658203,-0.07421875,-0.15039062,42.875,-21.0,-1.96875
673,673,1728027268771,-0.7705078,-0.10644531,0.0234375,39.09375,-23.375,2.25
674,674,1728027268811,-0.8925781,-0.13085938,-0.07519531,48.125,-22.21875,-12.0625
675,675,1728027268851,-1.0751953,-0.25195312,-0.018554688,51.53125,-22.9375,-2.28125
676,676,1728027268891,-0.7285156,-0.5205078,0.3701172,-35.1875,-85.75,-61.3125
677,677,1728027268931,-1.0253906,-0.05859375,0.15722656,49.78125,-111.6875,-153.65625
678,678,1728027268971,-2.0,0.35742188,0.061523438,-52.40625,-63.21875,-114.65625
679,679,1728027269011,-1.4677734,0.20214844,0.16796875,-12.84375,14.0625,-41.40625
680,680,1728027269051,-1.5361328,-0.41992188,0.27246094,62.65625,0.5,-55.125
681,681,1728027269091,-0.8730469,0.00390625,0.19921875,85.53125,9.78125,-46.21875
682,682,1728027269131,-0.59765625,0.31445312,0.16796875,104.28125,-7.25,-18.5625
683,683,1728027269171,-0.5058594,0.20507812,0.16992188,43.5625,24.5,7.78125
684,684,1728027269211,-0.6064453,0.056640625,0.16210938,21.8125,23.375,17.0
685,685,1728027269251,-0.7753906,0.03125,0.12597656,41.21875,19.53125,25.96875
686,686,1728027269291,-0.7792969,0.09082031,0.1015625,25.59375,41.625,38.78125
687,687,1728027269331,-0.8720703,-0.10546875,0.13671875,13.59375,44.6875,46.25
688,688,1728027269371,-0.9169922,-0.34179688,0.2548828,29.28125,29.6875,55.21875
689,689,1728027269411,-0.6953125,-0.23632812,0.12988281,63.875,21.0625,29.15625
690,690,1728027269451,-0.9345703,-0.13378906,0.2783203,64.71875,17.28125,2.78125
691,691,1728027269491,-0.67089844,-0.053710938,-0.18066406,39.6875,21.625,5.28125
692,692,1728027269531,-0.9609375,0.28515625,0.38964844,22.375,65.5,12.0625
693,693,1728027269571,-1.2158203,0.13769531,0.36914062,-8.40625,10.6875,43.125
694,694,1728027269611,-1.1230469,-0.3125,0.0703125,-19.3125,16.3125,28.40625
695,695,1728027269651,-1.3720703,0.1484375,0.059570312,-22.75,31.9375,-28.53125
696,696,1728027269691,-1.6953125,0.3720703,-0.19726562,7.96875,-14.9375,-35.0
697,697,1728027269731,-0.7519531,0.20410156,-0.087890625,-89.21875,25.21875,-5.8125
698,698,1728027269771,-1.4599609,0.037109375,-0.21875,-35.84375,-36.84375,30.375
699,699,1728027269811,-1.1601562,-0.16992188,-0.11621094,87.1875,53.0625,32.3125
700,700,1728027269851,-0.7783203,0.020507812,0.0126953125,-15.34375,46.09375,9.125
701,701,1728027269891,-0.7910156,0.03125,-0.001953125,-47.8125,26.375,8.78125
702,702,1728027269931,-0.9638672,-0.0107421875,0.06542969,-24.25,37.1875,13.46875
703,703,1728027269971,-0.9267578,-0.16894531,0.029296875,-20.53125,-3.65625,9.3125
704,704,1728027270011,-0.91308594,-0.18945312,-0.083984375,-2.15625,-2.4375,-0.21875
705,705,1728027270051,-0.8808594,-0.16894531,-0.044921875,-4.5625,-2.75,-7.78125
706,706,1728027270091,-0.8330078,-0.056640625,-0.12792969,-6.625,-11.71875,-12.90625
707,707,1728027270131,-0.83496094,0.001953125,0.01171875,45.375,-8.78125,-6.90625
708,708,1728027270171,-0.7216797,0.099609375,-0.13867188,41.96875,-14.625,-18.9375
709,709,1728027270211,-0.6113281,0.17578125,-0.040039062,51.90625,-12.8125,0.28125
710,710,1728027270251,-0.98046875,-0.12695312,-0.057617188,7.15625,-13.28125,-9.90625
711,711,1728027270291,-0.9501953,-0.3359375,0.0390625,-42.34375,2.75,-32.4375
712,712,1728027270331,-0.9169922,-0.47460938,0.057617188,-22.125,-49.375,-57.875
713,713,1728027270371,-1.2314453,-0.26464844,0.16796875,-19.375,-61.5625,-124.40625
714,714,1728027270411,-1.7705078,0.107421875,0.12695312,-35.0625,-65.71875,-96.34375
715,715,1728027270451,-2.0,0.14453125,0.20410156,12.84375,-33.0,-59.28125
716,716,1728027270491,-1.0800781,0.22753906,0.14160156,10.09375,-32.53125,-33.28125
717,717,1728027270531,-1.1503906,-0.09472656,0.30664062,-2.53125,-15.0625,-2.59375
718,718,1728027270571,-0.7011719,0.12402344,0.14550781,38.25,-13.0625,21.03125
719,719,1728027270611,-0.56347656,0.15722656,0.13085938,-10.28125,7.34375,51.6875
720,720,1728027270651,-0.609375,-0.0087890625,0.1015625,14.1875,16.0625,60.59375
721,721,1728027270691,-0.7939453,-0.10644531,0.11816406,-3.4375,14.15625,52.21875
722,722,1728027270731,-0.8300781,-0.4404297,0.022460938,12.25,12.09375,37.21875
723,723,1728027270771,-0.7939453,-0.15332031,0.08984375,52.34375,24.59375,40.375
724,724,1728027270811,-0.93652344,-0.009765625,0.23339844,47.75,8.25,33.71875
725,725,1728027270851,-0.8652344,0.03125,0.3330078,51.25,21.875,40.4375
726,726,1728027270891,-0.7216797,-0.16894531,0.1640625,39.65625,3.90625,31.53125
727,727,1728027270931,-0.7910156,0.013671875,0.19726562,17.25,3.6875,5.78125
728,728,1728027270971,-0.96972656,0.10449219,0.24707031,-0.9375,26.625,-20.84375
729,729,1728027271011,-1.3046875,0.11328125,-0.32226562,55.8125,-15.75,-50.9375
730,730,1728027271051,-2.0,0.23535156,0.2607422,-60.53125,85.9375,-54.28125
731,731,1728027271091,-0.70996094,0.203125,-0.4326172,-132.34375,9.34375,-35.53125
732,732,1728027271131,-1.7089844,0.016601562,-0.32128906,-20.78125,-29.21875,32.15625
733,733,1728027271171,-1.2060547,-0.2607422,-0.076171875,62.28125,69.15625,53.875
734,734,1728027271211,-1.0976562,-0.20117188,0.0087890625,-21.6875,5.125,32.21875
735,735,1728027271251,-0.8984375,0.107421875,-0.052734375,28.46875,5.4375,31.40625
736,736,1728027271291,-0.8955078,0.060546875,0.0,55.4375,3.625,37.15625
737,737,1728027271331,-0.85839844,-0.0859375,-0.095703125,25.71875,-2.0,32.8125
738,738,1728027271371,-0.9189453,-0.22460938,-0.09667969,25.53125,18.8125,28.65625
739,739,1728027271411,-0.8652344,-0.1171875,0.00390625,-61.6875,10.9375,3.28125
740,740,1728027271451,-0.9042969,-0.15039062,-0.022460938,-62.46875,8.4375,2.90625
741,741,1728027271491,-0.8359375,-0.16992188,-0.07324219,-19.25,4.59375,-1.65625
742,742,1728027271531,-0.7324219,-0.20410156,0.021484375,-26.8125,-15.0625,-17.59375
743,743,1728027271571,-0.8388672,-0.06542969,-0.08105469,62.15625,-16.21875,-9.125
744,744,1728027271611,-0.7714844,-0.01953125,0.14746094,13.65625,-22.75,-26.5625
745,745,1728027271651,-0.9199219,0.028320312,-0.15820312,25.3125,-30.8125,-13.8125
746,746,1728027271691,-0.8886719,-0.43945312,0.27441406,-61.0,-42.78125,-21.625
747,747,1728027271731,-0.75390625,-0.5126953,0.28027344,-54.78125,-92.40625,-103.46875
748,748,1728027271771,-0.7373047,-0.18652344,0.13183594,-19.4375,-94.28125,-148.28125
749,749,1728027271811,-2.0,-0.18652344,0.27441406,-59.84375,-17.4375,-130.5625
750,750,1728027271851,-1.3779297,0.0546875,0.20703125,48.5625,-30.4375,-45.8125
751,751,1728027271891,-1.3515625,-0.17382812,0.36132812,42.09375,-17.03125,-11.6875
752,752,1728027271931,-1.0458984,0.06640625,0.4794922,56.125,7.6875,-9.84375
753,753,1728027271971,-0.73535156,0.22753906,0.18847656,44.90625,16.5,3.75
754,754,1728027272011,-0.37109375,0.14746094,0.07910156,0.9375,32.78125,48.6875
755,755,1728027272051,-0.57421875,0.13378906,0.18945312,-6.3125,21.6875,73.84375
756,756,1728027272091,-0.890625,-0.056640625,0.20117188,-12.46875,49.03125,66.9375
757,757,1728027272131,-0.7519531,-0.3466797,0.11816406,-0.6875,16.625,57.96875
758,758,1728027272171,-0.8691406,-0.40625,0.037109375,41.71875,31.375,35.6875
759,759,1728027272211,-0.86621094,-0.056640625,0.16699219,50.25,20.875,23.09375
