,Unnamed: 0,timestamp,accel_x,accel_y,accel_z,gyro_x,gyro_y,gyro_z
0,0,1727710914554,-1.0996094,-0.19726562,0.2783203,-34.71875,-30.59375,3.15625
1,1,1727710914594,-0.85253906,-0.3486328,0.10546875,0.9375,-65.5,4.0625
2,2,1727710914633,-0.58496094,-0.27246094,-0.22363281,117.09375,-80.21875,3.875
3,3,1727710914677,-0.65527344,-0.11425781,-0.036132812,92.25,-15.03125,-0.625
4,4,1727710914714,-0.65234375,-0.19042969,0.14941406,22.59375,-20.28125,14.25
5,5,1727710914753,-1.0078125,-0.087890625,0.2939453,36.21875,-59.75,8.21875
6,6,1727710914793,-1.0185547,-0.25097656,0.052734375,-23.53125,-63.84375,21.6875
7,7,1727710914834,-1.2509766,-0.6689453,0.06933594,5.75,-86.125,12.59375
8,8,1727710914894,-1.8535156,-0.6328125,0.4892578,137.53125,-128.90625,-35.125
9,9,1727710914913,-1.4101562,0.07519531,0.23828125,114.90625,-165.21875,8.40625
10,10,1727710914953,-1.1416016,0.2548828,0.0126953125,50.8125,-113.28125,-23.40625
11,11,1727710914993,-1.2822266,-0.4033203,0.22070312,7.46875,-58.59375,-49.78125
12,12,1727710915033,-0.45410156,-0.48535156,0.14453125,20.03125,-22.46875,-31.09375
13,13,1727710915073,-0.37890625,0.2705078,0.21875,-18.90625,10.0,-3.875
14,14,1727710915113,-0.5048828,0.19238281,0.10546875,-28.96875,49.78125,-5.71875
15,15,1727710915153,-0.61328125,0.3466797,0.080078125,-49.84375,66.03125,7.0
16,16,1727710915192,-0.6425781,0.15820312,0.19140625,-60.59375,75.4375,5.09375
17,17,1727710915233,-0.4501953,-0.5234375,0.20996094,-137.0,71.15625,35.75
18,18,1727710915273,-0.875,-0.5126953,0.28027344,-2.1875,74.34375,30.84375
19,19,1727710915313,-1.2128906,-0.5048828,0.6464844,-35.0,88.5625,59.46875
20,20,1727710915374,-0.9082031,-0.234375,0.016601562,-199.3125,68.09375,-35.4375
21,21,1727710915393,-1.4277344,0.07519531,0.009765625,10.9375,-31.6875,18.84375
22,22,1727710915434,-1.4794922,-0.53222656,-0.0029296875,10.46875,36.6875,37.875
23,23,1727710915473,-0.60253906,0.20410156,0.0146484375,-10.28125,33.25,-17.0625
24,24,1727710915513,-1.5117188,-0.30273438,-0.20996094,19.75,35.28125,52.9375
25,25,1727710915553,-1.7392578,-0.7636719,0.5527344,75.03125,145.8125,0.65625
26,26,1727710915592,-0.5957031,-0.1015625,-0.3095703,-112.15625,-48.28125,-11.1875
27,27,1727710915633,-0.640625,-0.27148438,0.03515625,90.90625,-69.40625,14.8125
28,28,1727710915673,-0.9580078,-0.29589844,0.21191406,-8.40625,9.5,-21.75
29,29,1727710915713,-0.8378906,0.05078125,0.043945312,13.875,-23.5625,-1.8125
30,30,1727710915753,-0.73339844,-0.11230469,0.10546875,22.71875,-39.25,4.0
31,31,1727710915793,-0.58496094,-0.16015625,-0.049804688,51.71875,-37.3125,6.1875
32,32,1727710915833,-0.9746094,-0.5576172,0.19042969,27.0625,-25.875,7.40625
33,33,1727710915894,-1.1591797,-0.7207031,0.4189453,47.625,-49.03125,-4.65625
34,34,1727710915912,-1.9912109,-0.4248047,0.7050781,156.6875,-141.3125,-33.65625
35,35,1727710915953,-1.3544922,0.609375,0.42578125,95.53125,-190.3125,-22.25
36,36,1727710915993,-1.5087891,-0.4814453,0.17675781,95.3125,-157.84375,-26.21875
37,37,1727710916033,-0.5175781,-0.16601562,-0.08105469,52.5625,-72.15625,-47.15625
38,38,1727710916073,-0.27929688,0.08203125,0.21289062,16.3125,-1.78125,-29.8125
39,39,1727710916113,-0.3017578,-0.016601562,0.16699219,-41.125,54.6875,-35.625
40,40,1727710916153,-0.15039062,-0.015625,-0.08496094,-64.84375,128.40625,-20.78125
41,41,1727710916192,-0.64941406,-0.10253906,0.078125,-72.125,147.875,46.84375
42,42,1727710916232,-0.61621094,-0.19824219,0.08984375,-109.96875,97.65625,59.3125
43,43,1727710916274,-1.8857422,-0.98046875,0.036132812,-144.375,66.34375,145.125
44,44,1727710916313,-1.0859375,0.35546875,1.0097656,-47.65625,76.03125,-72.0
45,45,1727710916373,-0.7050781,-0.08886719,0.4716797,-195.21875,10.25,-33.46875
46,46,1727710916393,-1.2617188,-0.24511719,-0.66796875,-117.84375,13.40625,29.09375
47,47,1727710916433,-1.0849609,-0.3359375,0.28515625,55.8125,49.1875,22.0
48,48,1727710916473,-1.9111328,-0.484375,0.13085938,46.96875,32.53125,26.21875
49,49,1727710916513,-0.8359375,-0.6201172,-0.26367188,-89.40625,-21.375,-23.84375
50,50,1727710916555,-0.8828125,-0.08691406,-0.057617188,63.8125,-27.46875,1.5625
51,51,1727710916593,-0.78222656,-0.1484375,-0.20117188,22.4375,27.625,2.96875
52,52,1727710916633,-1.1689453,-0.14941406,0.091796875,57.15625,26.84375,19.6875
53,53,1727710916673,-0.94921875,-0.025390625,0.29589844,1.84375,24.09375,7.84375
54,54,1727710916713,-0.796875,0.029296875,0.37304688,-54.25,-8.625,-6.75
55,55,1727710916753,-0.453125,-0.11816406,0.0,-51.5,-42.25,0.71875
56,56,1727710916793,-0.8613281,-0.6308594,-0.14941406,21.8125,-35.03125,17.25
57,57,1727710916833,-0.8457031,-0.8105469,0.01953125,28.21875,-8.875,-2.28125
58,58,1727710916893,-0.9140625,-0.53125,0.19238281,60.5625,-23.625,12.96875
59,59,1727710916914,-1.6308594,-0.4951172,0.7685547,103.28125,-87.34375,-12.53125
60,60,1727710916953,-1.7402344,-0.09667969,0.5498047,159.9375,-188.90625,-35.75
61,61,1727710916993,-1.2382812,0.1015625,-0.125,73.8125,-180.90625,-38.34375
62,62,1727710917033,-0.9638672,-0.022460938,0.20605469,24.375,-101.21875,-55.15625
63,63,1727710917073,-0.69921875,-0.4013672,0.013671875,43.34375,-25.875,-54.90625
64,64,1727710917114,-0.38964844,0.001953125,0.11425781,31.6875,37.53125,-34.625
65,65,1727710917154,-0.19335938,0.37890625,0.17675781,-70.53125,90.1875,-12.71875
66,66,1727710917193,-0.5986328,0.13671875,0.16894531,-89.53125,115.90625,51.65625
67,67,1727710917253,-0.68652344,-0.34765625,-0.103515625,-94.34375,131.71875,66.8125
68,68,1727710917273,-0.9082031,-0.3251953,-0.13085938,-59.71875,33.6875,83.40625
69,69,1727710917314,-1.8808594,-0.53222656,0.31445312,23.9375,107.03125,22.84375
70,70,1727710917373,-0.96972656,-0.6142578,0.97558594,-139.9375,7.6875,-33.96875
71,71,1727710917393,-1.2294922,0.33789062,-0.24511719,-236.90625,10.0625,-23.28125
72,72,1727710917433,-1.2275391,-0.1953125,0.4033203,109.34375,-10.5,32.625
73,73,1727710917473,-1.3164062,-0.66503906,0.59277344,-10.15625,58.59375,19.875
74,74,1727710917514,-0.3330078,-0.013671875,-0.86816406,-110.09375,86.125,-33.28125
75,75,1727710917553,-1.2109375,0.10546875,-0.140625,103.34375,54.75,18.15625
76,76,1727710917593,-1.8662109,-0.49609375,0.41992188,116.0,122.5,14.5
77,77,1727710917633,-0.9716797,-0.15722656,-0.08984375,-103.125,-23.4375,-3.6875
78,78,1727710917675,-0.9316406,-0.1875,-0.14257812,-80.78125,-99.625,5.21875
79,79,1727710917713,-0.82128906,-0.36035156,0.49414062,5.09375,-1.90625,-27.0
80,80,1727710917753,-0.83984375,-0.044921875,-0.10058594,67.28125,-25.65625,-4.59375
81,81,1727710917796,-0.60253906,0.07324219,-0.18164062,83.59375,-16.0,34.625
82,82,1727710917835,-0.8330078,-0.5234375,0.009765625,78.5,-0.6875,6.9375
83,83,1727710917892,-0.9921875,-0.6191406,0.09863281,84.875,-29.3125,-21.9375
84,84,1727710917913,-0.8671875,-0.11621094,0.4658203,65.6875,-44.1875,-2.84375
85,85,1727710917954,-0.9453125,-0.25585938,0.19824219,21.09375,-66.40625,16.03125
86,86,1727710917993,-1.5771484,-0.2939453,0.23925781,130.34375,-109.15625,-30.3125
87,87,1727710918035,-1.4082031,-0.0390625,0.13085938,205.46875,-159.5625,-19.625
88,88,1727710918073,-1.1367188,-0.26953125,0.052734375,91.8125,-115.4375,-14.0625
89,89,1727710918113,-0.63671875,-0.33691406,0.06738281,24.6875,-48.90625,-20.84375
90,90,1727710918159,-0.8310547,-0.2265625,0.07324219,-39.90625,5.59375,21.46875
91,91,1727710918193,-0.21679688,0.018554688,-0.06542969,-2.0,68.84375,-20.78125
92,92,1727710918233,-0.036132812,0.01171875,0.20703125,-65.09375,107.03125,6.4375
93,93,1727710918276,-0.37304688,-0.2578125,0.09863281,-156.84375,107.0,24.03125
94,94,1727710918313,-1.5712891,-0.27148438,0.33007812,-106.59375,126.75,105.25
95,95,1727710918372,-1.5947266,-0.40625,0.82421875,-24.15625,110.9375,-50.8125
96,96,1727710918396,-1.1181641,0.46289062,0.060546875,-51.0,17.03125,-48.0
97,97,1727710918434,-1.3046875,0.51953125,-0.0146484375,-23.40625,80.875,6.0
98,98,1727710918473,-1.1230469,-0.2939453,0.8486328,47.6875,68.71875,-4.96875
99,99,1727710918517,-1.0009766,-0.34765625,-0.6591797,-142.6875,-91.8125,70.15625
100,100,1727710918553,-1.9912109,-1.0439453,0.23632812,276.5625,141.21875,-26.9375
101,101,1727710918592,-0.5751953,-0.21582031,-0.296875,-9.4375,-26.4375,-12.78125
102,102,1727710918636,-0.7392578,-0.09375,-0.06738281,53.71875,26.125,11.4375
103,103,1727710918673,-0.9746094,-0.041992188,0.0126953125,24.625,35.4375,15.96875
104,104,1727710918713,-0.8359375,-0.068359375,-0.036132812,-5.90625,-2.5,13.03125
105,105,1727710918757,-0.73828125,-0.32617188,0.19238281,-1.375,-30.53125,28.90625
106,106,1727710918793,-0.77441406,-0.28125,-0.07324219,-31.15625,-24.53125,17.90625
107,107,1727710918833,-0.8847656,-0.41992188,-0.12207031,44.625,-2.5625,21.40625
108,108,1727710918893,-0.8623047,-0.28515625,0.20019531,125.9375,-8.3125,9.8125
109,109,1727710918914,-1.1142578,-0.6298828,0.25683594,88.59375,-26.5,2.71875
110,110,1727710918953,-1.5039062,-0.6972656,0.421875,92.375,-93.625,-27.0
111,111,1727710918995,-1.6396484,-0.44140625,0.13574219,165.1875,-97.3125,-62.96875
112,112,1727710919034,-1.2841797,-0.7314453,-0.5253906,298.0625,-50.375,-138.40625
113,113,1727710919073,-1.7246094,-0.4423828,0.01171875,219.4375,-54.15625,-90.0
114,114,1727710919114,-0.90625,-0.5498047,-0.47558594,174.03125,15.96875,-112.40625
115,115,1727710919153,-0.55859375,0.08203125,-0.16015625,191.3125,22.09375,-72.0625
116,116,1727710919193,-0.6689453,0.4189453,-0.111328125,129.96875,57.71875,-24.3125
117,117,1727710919237,-0.7597656,0.18164062,-0.02734375,85.46875,78.40625,-37.9375
118,118,1727710919273,-0.77441406,-0.06542969,0.25976562,45.90625,68.65625,-8.03125
119,119,1727710919312,-1.1113281,0.08105469,0.30371094,21.09375,8.59375,31.59375
120,120,1727710919372,-1.0634766,-0.14257812,0.62890625,82.65625,41.375,19.5
121,121,1727710919393,-1.0839844,-0.30371094,0.7714844,138.875,42.84375,-36.65625
122,122,1727710919433,-0.5019531,-0.07519531,0.14257812,-45.9375,23.0625,-30.53125
123,123,1727710919474,-1.15625,0.16113281,-0.29492188,-106.71875,56.3125,51.3125
124,124,1727710919512,-1.9912109,-0.21191406,-0.16699219,-50.34375,53.34375,95.0625
125,125,1727710919552,-0.40039062,-0.19433594,0.26464844,126.0625,-64.03125,-21.625
126,126,1727710919596,-0.8720703,0.00390625,-0.42089844,8.6875,51.5625,-26.59375
127,127,1727710919634,-0.90625,-0.040039062,0.103515625,-55.59375,73.59375,-33.40625
128,128,1727710919674,-1.0927734,-0.022460938,-0.43554688,-26.09375,4.25,8.75
129,129,1727710919717,-1.0605469,-0.4736328,0.08300781,-16.15625,10.3125,-11.75
130,130,1727710919752,-0.7607422,-0.3564453,-0.11035156,0.28125,1.03125,-12.46875
131,131,1727710919793,-0.9423828,-0.33203125,-0.12792969,24.25,21.53125,3.3125
132,132,1727710919837,-0.9589844,-0.14648438,-0.047851562,18.40625,40.625,-1.90625
133,133,1727710919892,-1.0576172,-0.16503906,0.037109375,-0.71875,35.5,-2.40625
134,134,1727710919912,-1.1582031,-0.19726562,0.24707031,1.1875,15.5625,-6.625
135,135,1727710919953,-1.1054688,-0.34277344,0.19628906,9.375,-28.28125,8.03125
136,136,1727710919993,-0.6123047,-0.24023438,-0.049804688,-50.9375,-59.03125,-36.34375
137,137,1727710920039,-0.40429688,-0.0625,-0.30078125,84.625,-117.375,16.625
138,138,1727710920074,-0.8564453,-0.23242188,-0.080078125,42.1875,-35.59375,0.46875
139,139,1727710920114,-0.83691406,-0.70703125,0.3232422,101.15625,-71.375,-13.15625
140,140,1727710920152,-0.9873047,-0.1875,0.42089844,93.40625,-80.8125,6.6875
141,141,1727710920193,-1.3974609,-0.17480469,0.76660156,128.25,-161.15625,11.3125
142,142,1727710920234,-1.4570312,0.40039062,0.70703125,46.46875,-220.28125,32.375
143,143,1727710920273,-1.7001953,-0.6669922,0.16015625,45.375,-146.0625,-69.71875
144,144,1727710920313,-0.82128906,-0.5498047,0.12011719,38.71875,-55.84375,-72.34375
145,145,1727710920373,-0.6064453,-0.32714844,0.053710938,32.1875,33.125,-25.1875
146,146,1727710920393,-0.16796875,0.034179688,0.20410156,-26.53125,86.0625,-44.78125
147,147,1727710920433,-0.064453125,0.51464844,0.060546875,-132.3125,136.15625,-1.25
148,148,1727710920473,-0.8925781,0.04296875,-0.31347656,-123.5,127.0,83.96875
149,149,1727710920512,-1.4033203,-0.1953125,0.17578125,27.375,93.9375,99.46875
150,150,1727710920553,-1.2158203,-0.8769531,1.3183594,60.75,83.0625,-3.8125
151,151,1727710920594,-0.61816406,0.07714844,0.5517578,-125.28125,9.28125,-35.0
152,152,1727710920634,-1.1396484,-0.22070312,-0.3623047,-160.5625,-30.03125,-38.46875
153,153,1727710920673,-1.5488281,0.07519531,0.08886719,16.1875,83.78125,-31.84375
154,154,1727710920713,-1.4863281,-1.0849609,0.13574219,-36.53125,75.25,12.0
155,155,1727710920754,-0.97753906,-0.051757812,-0.32714844,-36.90625,-8.625,22.84375
156,156,1727710920793,-1.3583984,-0.4345703,-0.107421875,59.15625,103.3125,15.53125
157,157,1727710920833,-0.9980469,-0.36523438,-0.076171875,6.125,65.125,-7.34375
158,158,1727710920893,-0.9609375,-0.19238281,-0.020507812,-17.90625,-29.90625,3.4375
159,159,1727710920913,-0.87597656,-0.30859375,0.115234375,-10.78125,-49.4375,18.9375
160,160,1727710920953,-0.74609375,-0.18652344,0.24511719,31.03125,-6.0625,-9.90625
161,161,1727710920993,-0.88378906,-0.049804688,-0.005859375,13.4375,-13.3125,-0.875
162,162,1727710921033,-0.65234375,-0.34960938,-0.037109375,36.59375,-20.03125,18.46875
163,163,1727710921074,-0.81347656,-0.7402344,-0.022460938,47.25,-20.28125,12.46875
164,164,1727710921114,-1.0478516,-0.33789062,0.21875,101.84375,-8.1875,-4.0
165,165,1727710921153,-0.83203125,-0.27929688,0.28125,59.65625,-21.5,1.375
166,166,1727710921194,-0.9433594,-0.34570312,0.2783203,42.3125,-12.40625,13.65625
167,167,1727710921233,-1.3173828,-0.30859375,-0.0126953125,86.9375,-44.9375,10.21875
168,168,1727710921273,-1.5400391,-0.10253906,0.4189453,143.40625,-110.1875,1.625
169,169,1727710921313,-1.2636719,-0.10644531,0.29101562,166.78125,-130.6875,-16.4375
170,170,1727710921373,-0.7246094,-0.41015625,0.05859375,21.5625,-116.15625,-24.0625
171,171,1727710921393,-0.66503906,-0.8720703,-0.07910156,72.21875,-8.25,-155.25
172,172,1727710921433,-0.69140625,-0.5419922,0.0625,49.8125,16.03125,-68.5625
173,173,1727710921472,-0.3623047,0.009765625,0.15722656,19.8125,60.78125,-46.34375
174,174,1727710921513,-0.6015625,0.022460938,-0.0546875,-41.1875,102.34375,-14.25
175,175,1727710921553,-1.1298828,0.040039062,-0.028320312,-30.875,128.59375,-11.3125
176,176,1727710921593,-0.9667969,-0.080078125,0.27929688,0.6875,68.40625,21.34375
177,177,1727710921633,-1.3164062,-1.6035156,-0.037109375,-120.9375,47.53125,208.03125
178,178,1727710921673,-0.9423828,0.39746094,0.6972656,-10.90625,62.5625,4.71875
179,179,1727710921713,-0.8408203,-0.49804688,0.5986328,3.8125,-30.46875,6.75
180,180,1727710921753,-1.2978516,-0.6220703,-0.328125,9.3125,-7.28125,4.71875
181,181,1727710921793,-1.2558594,-0.54003906,0.51171875,1.0625,49.375,-7.46875
182,182,1727710921833,-0.9238281,-0.23925781,-0.45117188,1.1875,-3.0625,42.5625
183,183,1727710921893,-1.7050781,-0.47851562,-0.064453125,125.8125,46.5625,33.40625
184,184,1727710921914,-1.0292969,-0.53125,-0.087890625,3.5625,30.25,-18.9375
185,185,1727710921953,-0.9189453,0.0,-0.22363281,13.375,11.78125,-34.34375
186,186,1727710921994,-0.88378906,-0.087890625,-0.19921875,25.96875,54.0625,-7.0
187,187,1727710922033,-0.83984375,-0.07714844,-0.16992188,39.75,66.8125,2.53125
188,188,1727710922073,-0.859375,-0.09082031,-0.0029296875,9.125,60.0625,8.6875
189,189,1727710922113,-0.8457031,-0.20117188,-0.0126953125,-10.46875,54.3125,14.9375
190,190,1727710922153,-0.94433594,-0.21484375,-0.14257812,-30.3125,25.625,17.25
191,191,1727710922193,-1.0644531,-0.40722656,-0.001953125,0.4375,19.875,28.90625
192,192,1727710922234,-1.0742188,-0.6123047,0.046875,7.46875,18.375,14.125
193,193,1727710922273,-1.3955078,-0.81152344,-0.21972656,27.65625,-9.28125,-4.0625
194,194,1727710922313,-1.3574219,-0.42578125,-0.10546875,87.5,-31.1875,-7.84375
195,195,1727710922373,-0.9863281,-0.15039062,0.15039062,111.53125,-66.21875,12.375
196,196,1727710922392,-0.765625,-0.087890625,0.19042969,111.21875,-119.46875,10.03125
197,197,1727710922433,-1.2363281,-0.3408203,0.09277344,99.9375,-101.625,-15.78125
198,198,1727710922474,-1.2832031,-0.43554688,-0.73828125,148.8125,-88.3125,-19.375
199,199,1727710922513,-0.828125,-0.8154297,-0.044921875,265.09375,-87.96875,-137.40625
200,200,1727710922553,-1.2431641,-0.15917969,0.00390625,167.5625,-91.0,-45.4375
201,201,1727710922593,-0.9892578,-0.022460938,0.2265625,131.25,-71.65625,-51.40625
202,202,1727710922634,-0.9189453,0.038085938,0.02734375,98.71875,-62.875,-39.15625
203,203,1727710922673,-0.6748047,0.13476562,0.15625,84.4375,-61.40625,-33.53125
204,204,1727710922713,-0.42382812,-0.015625,0.20898438,55.5,-39.3125,-35.25
205,205,1727710922753,-0.26660156,-0.08203125,0.22851562,-3.15625,4.25,-26.03125
206,206,1727710922793,-0.35839844,-0.08300781,0.13476562,-13.15625,43.5,-5.46875
207,207,1727710922834,-0.296875,-0.095703125,0.12597656,-13.78125,70.90625,1.1875
208,208,1727710922893,-0.5595703,-0.08300781,0.22558594,-35.3125,73.90625,2.46875
209,209,1727710922913,-1.0898438,-0.40820312,0.4765625,-66.9375,98.5,-27.4375
210,210,1727710922952,-1.2490234,-0.6347656,0.26660156,-122.28125,89.59375,-33.78125
211,211,1727710922993,-0.7470703,-0.040039062,0.2783203,-100.8125,27.34375,42.8125
212,212,1727710923034,-1.0927734,-0.73535156,0.25,-62.84375,8.09375,125.34375
213,213,1727710923073,-1.6210938,-0.0068359375,0.20703125,-69.125,90.125,-4.25
214,214,1727710923113,-0.7783203,-0.234375,-0.61621094,-71.21875,85.8125,30.1875
215,215,1727710923154,-1.9912109,-0.21582031,0.19042969,41.34375,40.875,79.125
216,216,1727710923193,-0.51660156,-0.04296875,-0.31445312,-20.125,-0.9375,-17.4375
217,217,1727710923233,-0.7011719,-0.4560547,-0.36035156,-21.9375,37.15625,0.46875
218,218,1727710923273,-0.8652344,-0.18457031,-0.17480469,-11.4375,64.75,0.9375
219,219,1727710923313,-0.91308594,-0.040039062,-0.107421875,30.0,44.53125,22.4375
220,220,1727710923374,-1.1083984,-0.21191406,0.08886719,13.75,35.5625,32.0625
221,221,1727710923395,-1.1552734,-0.21484375,0.35546875,-71.5,-8.75,-5.46875
222,222,1727710923433,-0.86035156,-0.23828125,0.5566406,-175.21875,-22.03125,-43.25
223,223,1727710923473,-0.45703125,0.25195312,-0.39648438,139.71875,-107.0,-46.96875
224,224,1727710923512,-0.5361328,-0.24023438,0.044921875,154.0625,-87.34375,9.0625
225,225,1727710923553,-0.88964844,-0.40722656,0.14355469,37.625,-42.96875,19.6875
226,226,1727710923593,-0.8876953,-0.79003906,0.07421875,20.59375,-27.59375,4.5
227,227,1727710923633,-0.84375,-0.30078125,0.375,78.03125,-37.1875,9.90625
228,228,1727710923673,-1.2910156,-0.26464844,0.39160156,61.375,-63.96875,3.3125
229,229,1727710923713,-1.9111328,-0.2607422,0.55859375,94.4375,-142.65625,-33.46875
230,230,1727710923752,-1.3828125,-0.0703125,0.12402344,79.4375,-159.375,-20.0
231,231,1727710924013,-1.3896484,-0.671875,0.018554688,86.15625,-112.6875,-64.71875
232,232,1727710924026,-0.6142578,-0.078125,0.0068359375,36.65625,-44.75,-47.8125
233,233,1727710924035,-0.40527344,-0.08886719,0.2685547,33.46875,3.15625,-40.1875
234,234,1727710924040,-0.10253906,0.095703125,0.15527344,-59.5,62.96875,-21.8125
235,235,1727710924047,-0.19238281,0.049804688,-0.022460938,-88.0,132.0,-1.8125
236,236,1727710924053,-0.5449219,0.0703125,-0.08984375,-89.9375,139.9375,32.5
237,237,1727710924234,-0.8076172,-0.6171875,0.12988281,-57.15625,109.0,38.3125
238,238,1727710924252,-1.9912109,-0.65234375,0.45214844,-96.28125,81.15625,170.0
239,239,1727710924256,-1.0097656,-0.29492188,0.8017578,-23.96875,36.0,-44.40625
240,240,1727710924262,-0.81933594,0.17480469,0.107421875,-28.46875,3.71875,-6.5
241,241,1727710924288,-1.40625,0.3251953,-0.45703125,-83.46875,77.8125,18.34375
242,242,1727710924294,-1.1503906,-0.38476562,0.3251953,119.03125,34.21875,28.59375
243,243,1727710924298,-1.015625,0.18261719,-0.3720703,-52.84375,7.75,9.0
244,244,1727710924313,-1.7841797,-0.30078125,-0.03125,165.0,124.25,-27.9375
245,245,1727710924373,-1.2236328,-0.4189453,-0.31835938,-121.75,29.71875,-12.1875
246,246,1727710924396,-0.5263672,-0.16601562,-0.16308594,33.84375,-18.25,16.03125
247,247,1727710924433,-0.80371094,-0.3017578,0.24707031,44.09375,-51.65625,-6.1875
248,248,1727710924472,-0.9472656,0.061523438,0.23339844,-44.84375,-26.75,-29.03125
249,249,1727710924516,-0.81640625,-0.061523438,0.091796875,-17.1875,-33.03125,-17.90625
250,250,1727710924553,-0.82128906,-0.39453125,0.09765625,6.5625,-52.25,25.46875
251,251,1727710924594,-0.7607422,-0.7714844,-0.053710938,12.40625,-51.875,-17.3125
252,252,1727710924637,-0.82128906,-0.5419922,0.40234375,82.59375,-61.21875,5.65625
253,253,1727710924673,-1.6728516,-0.40039062,0.5888672,95.84375,-120.625,-5.71875
254,254,1727710924713,-1.5673828,0.09765625,0.41210938,111.0,-174.3125,-12.71875
255,255,1727710924756,-1.2304688,0.12207031,0.26464844,52.15625,-135.875,-10.90625
256,256,1727710924793,-1.2314453,-0.63964844,0.08691406,110.0,-93.46875,-33.40625
257,257,1727710924834,-0.46972656,0.08496094,0.26464844,42.625,-17.21875,-15.40625
258,258,1727710924893,-0.35253906,0.15527344,0.09765625,-42.75,53.28125,-30.71875
259,259,1727710924913,0.0390625,0.111328125,-0.0146484375,-84.75,123.28125,-24.75
260,260,1727710924954,-0.13378906,-0.049804688,0.0703125,-128.9375,145.3125,25.1875
261,261,1727710924997,-0.53808594,-0.4501953,0.05859375,-81.46875,100.21875,47.875
262,262,1727710925033,-1.9726562,-0.5341797,0.3857422,-92.1875,67.75,152.25
263,263,1727710925073,-1.2460938,0.18164062,0.8144531,-57.21875,76.84375,-70.46875
264,264,1727710925116,-0.7285156,0.09863281,0.52734375,-105.5,44.90625,-83.09375
265,265,1727710925153,-1.4550781,0.3359375,-0.29101562,-100.25,13.46875,36.40625
266,266,1727710925193,-1.234375,-0.6035156,0.46679688,107.3125,-2.34375,37.4375
267,267,1727710925238,-1.1894531,-0.18554688,-0.52246094,-26.03125,-33.28125,51.90625
268,268,1727710925273,-1.9912109,-0.69140625,0.18359375,9.59375,182.59375,-2.65625
269,269,1727710925313,-0.74316406,-0.44433594,-0.30664062,-27.8125,34.59375,2.65625
270,270,1727710925372,-0.6455078,0.068359375,-0.18359375,-30.875,32.65625,-1.0
271,271,1727710925393,-1.1123047,-0.1484375,0.00390625,-1.625,40.8125,22.96875
272,272,1727710925434,-1.0332031,-0.21777344,0.2265625,-61.5,-11.125,-10.03125
273,273,1727710925476,-0.5341797,0.018554688,0.24609375,-79.5625,-55.0,-30.4375
274,274,1727710925513,-0.58496094,-0.2841797,-0.21289062,-9.6875,-33.09375,-21.4375
275,275,1727710925554,-0.8613281,-0.60839844,-0.25683594,103.1875,-20.28125,-16.75
276,276,1727710925596,-0.9785156,-0.5908203,0.30371094,110.9375,-67.5,-23.34375
277,277,1727710925633,-1.1582031,-0.2109375,0.5019531,147.65625,-117.625,-14.0625
278,278,1727710925673,-1.3037109,0.040039062,0.4453125,147.59375,-168.59375,-25.34375
279,279,1727710925716,-1.3974609,0.49414062,0.15136719,40.5,-147.09375,-17.3125
280,280,1727710925753,-1.3076172,-1.3740234,-0.005859375,162.75,-127.8125,-68.5625
281,281,1727710925794,-0.5751953,0.5185547,0.3330078,4.34375,-37.25,-22.625
282,282,1727710925834,-0.671875,-0.20214844,0.16015625,-30.5,40.625,-46.34375
283,283,1727710925894,-0.12597656,-0.16601562,0.09472656,-72.3125,120.96875,-39.21875
284,284,1727710925913,0.0087890625,0.14746094,0.06933594,-112.71875,156.0,31.53125
285,285,1727710925952,-0.5292969,-0.38671875,0.08203125,-23.40625,74.40625,32.8125
286,286,1727710925993,-1.3681641,-0.6796875,0.17578125,25.65625,64.4375,110.4375
287,287,1727710926033,-1.5292969,0.19726562,0.61035156,13.75,19.59375,31.46875
288,288,1727710926073,-1.0810547,0.60839844,0.00390625,-176.125,70.4375,-57.59375
289,289,1727710926113,-1.3681641,-0.0029296875,0.21679688,126.84375,72.375,36.71875
290,290,1727710926155,-1.1376953,-0.3984375,0.44921875,-78.15625,18.0625,-3.1875
291,291,1727710926193,-1.9365234,-0.35546875,-0.5263672,36.34375,-35.09375,51.25
292,292,1727710926232,-0.67089844,-0.57714844,0.072265625,-67.59375,-19.65625,-21.6875
293,293,1727710926272,-0.6621094,-0.3203125,-0.14648438,97.5625,-4.59375,11.5
294,294,1727710926314,-0.9746094,-0.56933594,0.06933594,31.46875,60.78125,25.78125
295,295,1727710926373,-1.0615234,-0.10839844,0.009765625,-30.375,79.15625,-3.875
296,296,1727710926394,-0.7050781,-0.26367188,0.35058594,37.0,19.59375,18.71875
297,297,1727710926433,-1.0722656,-0.18261719,0.13574219,-21.65625,-17.40625,41.0
298,298,1727710926473,-0.6113281,-0.08300781,-0.20800781,24.5625,-14.53125,12.0625
299,299,1727710926514,-0.75,-0.5048828,-0.009765625,49.03125,17.625,8.15625
300,300,1727710926553,-0.8652344,-0.32714844,0.0126953125,57.59375,-0.75,-2.34375
301,301,1727710926594,-1.1621094,-0.19140625,0.20898438,95.84375,-47.6875,-8.40625
302,302,1727710926633,-1.6865234,-0.06738281,0.5048828,150.71875,-145.75,-11.8125
303,303,1727710926674,-1.2480469,0.16894531,0.36914062,97.5625,-175.3125,-12.59375
304,304,1727710926716,-1.5185547,-0.7441406,-0.032226562,153.71875,-159.875,-42.9375
305,305,1727710926753,-0.96972656,-0.087890625,0.0078125,73.21875,-79.40625,-106.34375
306,306,1727710926793,-0.8095703,-0.4638672,0.041992188,102.125,-22.46875,-94.34375
307,307,1727710926833,-0.33984375,0.140625,0.07128906,61.96875,30.1875,-43.4375
308,308,1727710926894,-0.25,0.10253906,0.07421875,21.375,81.28125,-39.65625
309,309,1727710926913,-0.7919922,0.060546875,-0.1171875,-38.96875,148.3125,-11.375
310,310,1727710926953,-0.75,0.017578125,-0.12890625,-62.78125,148.4375,39.78125
311,311,1727710926994,-1.4550781,-0.5126953,0.10644531,-132.125,38.3125,137.0625
312,312,1727710927033,-1.84375,0.15625,1.6279297,156.75,119.6875,-10.90625
313,313,1727710927073,-0.82714844,-0.23535156,0.96484375,-169.03125,31.4375,-90.0625
314,314,1727710927113,-1.390625,0.7089844,-1.34375,38.46875,-168.78125,-3.09375
315,315,1727710927154,-1.9912109,-0.53125,0.63671875,311.1875,174.90625,198.875
316,316,1727710927193,-0.73535156,-0.8544922,-0.1640625,56.25,20.125,-25.78125
317,317,1727710927232,-1.1289062,-0.375,-0.12109375,-6.6875,-10.5,-63.375
318,318,1727710927279,-0.7294922,-0.046875,-0.4892578,-15.25,9.28125,-32.75
319,319,1727710927316,-0.8232422,0.21875,-0.18066406,80.15625,104.59375,-17.4375
320,320,1727710927373,-0.9169922,-0.22167969,0.016601562,57.09375,76.84375,27.0625
321,321,1727710927393,-0.9902344,-0.125,0.09472656,-14.5625,70.71875,11.5625
322,322,1727710927433,-1.0224609,-0.15039062,0.049804688,-30.4375,43.6875,2.96875
323,323,1727710927474,-0.9296875,-0.45410156,-0.07421875,21.75,44.78125,6.625
324,324,1727710927513,-0.95214844,-1.2441406,-0.3154297,-26.28125,3.03125,9.84375
325,325,1727710927554,-0.9873047,-0.39648438,-0.0546875,-23.21875,20.0625,8.46875
326,326,1727710927593,-0.8925781,-0.43945312,-0.044921875,106.65625,6.34375,12.90625
327,327,1727710927634,-1.0908203,-0.36523438,0.0078125,78.625,21.09375,7.96875
328,328,1727710927673,-1.3662109,-0.5878906,-0.0087890625,63.6875,-36.8125,17.3125
329,329,1727710927714,-1.3457031,-0.32226562,0.030273438,102.0625,-92.21875,-4.25
330,330,1727710927753,-1.0019531,-0.045898438,0.23730469,136.9375,-97.96875,-5.78125
331,331,1727710927793,-1.2919922,-0.11816406,0.24609375,55.5,-102.84375,-5.875
332,332,1727710927834,-1.7919922,-0.30371094,-1.1220703,100.96875,-84.0,-27.0625
333,333,1727710927893,-0.7792969,-0.41601562,0.119140625,189.90625,-95.40625,-100.90625
334,334,1727710927913,-0.8720703,-0.31445312,-0.0625,194.59375,-74.90625,-71.3125
335,335,1727710927953,-0.82421875,0.08105469,0.12792969,112.375,-77.03125,-33.90625
336,336,1727710927993,-0.7050781,-0.041015625,0.055664062,87.0,-43.71875,-46.96875
337,337,1727710928033,-0.56152344,0.28320312,0.1953125,50.0,-25.09375,-26.625
338,338,1727710928073,-0.44628906,0.18359375,0.21972656,18.28125,6.03125,-16.15625
339,339,1727710928113,-0.5175781,-0.38964844,0.22070312,6.0625,33.1875,-3.5625
340,340,1727710928153,-0.25683594,-0.16210938,0.19140625,-18.65625,63.84375,9.25
341,341,1727710928193,-0.37890625,-0.24023438,0.30566406,-19.9375,105.34375,-20.125
342,342,1727710928233,-1.1601562,-0.7060547,0.68066406,-40.03125,77.625,-34.75
343,343,1727710928273,-0.7529297,-0.20996094,0.36914062,-147.8125,51.0625,-21.875
344,344,1727710928314,-0.70703125,0.10644531,-0.0009765625,-121.5625,44.90625,69.625
345,345,1727710928373,-1.28125,-0.23242188,0.15527344,52.5625,34.84375,110.9375
346,346,1727710928393,-1.8427734,0.4296875,0.25585938,-67.3125,133.96875,-54.78125
347,347,1727710928454,-1.3349609,-0.4482422,0.8955078,177.5625,42.03125,-16.03125
348,348,1727710928473,-0.6875,-0.013671875,-0.8105469,-260.21875,-39.375,38.125
349,349,1727710928535,-1.7265625,-0.48632812,0.06347656,58.96875,53.625,31.03125
350,350,1727710928553,-0.6826172,-0.7890625,-0.060546875,-75.34375,21.15625,-31.40625
351,351,1727710928613,-0.62890625,0.2265625,-0.17382812,20.34375,10.25,9.84375
352,352,1727710928633,-1.3056641,-0.4501953,0.17578125,36.21875,25.4375,9.5
353,353,1727710928695,-0.76953125,-0.328125,-0.021484375,-20.0,24.28125,-20.71875
354,354,1727710928714,-0.6582031,0.0390625,0.26367188,2.71875,-40.125,8.6875
355,355,1727710928773,-0.8984375,-0.31933594,0.48632812,-99.65625,-75.4375,40.5
356,356,1727710928793,-0.7910156,-0.23632812,0.20800781,38.84375,-12.28125,-4.0
357,357,1727710928853,-1.0771484,-0.3203125,0.24023438,75.21875,-63.5,-2.09375
358,358,1727710928893,-1.0126953,-0.37695312,0.42578125,84.4375,-109.6875,-3.1875
359,359,1727710928913,-1.2880859,0.10644531,0.61621094,75.71875,-149.125,2.78125
360,360,1727710928973,-1.4882812,-0.6142578,-0.0126953125,108.71875,-162.65625,1.3125
361,361,1727710929014,-1.2382812,-0.24316406,0.061523438,117.21875,-113.71875,-68.625
362,362,1727710929052,-0.62402344,0.10546875,0.21582031,2.78125,-34.3125,-22.78125
363,363,1727710929073,-0.609375,-0.3095703,0.2548828,-39.03125,21.46875,-24.25
364,364,1727710929133,-0.36816406,-0.17480469,0.0087890625,-55.6875,88.1875,-42.9375
365,365,1727710929173,-0.38378906,-0.08300781,0.18261719,-74.6875,117.25,19.4375
366,366,1727710929213,-0.6220703,-0.0703125,0.078125,-147.0625,105.6875,70.78125
367,367,1727710929254,-0.84277344,-0.14746094,0.2763672,-74.0,51.0,55.625
368,368,1727710929293,-1.9912109,-0.5703125,0.5527344,3.625,151.78125,93.125
369,369,1727710929334,-0.9248047,-0.20410156,0.78222656,-191.125,72.25,-82.90625
370,370,1727710929374,-1.3037109,0.1796875,-0.28125,-12.90625,-16.5625,20.28125
371,371,1727710929413,-1.1962891,-0.4140625,0.125,7.21875,9.5625,29.6875
372,372,1727710929453,-1.0722656,-0.1484375,-0.62890625,-19.09375,-57.5,35.3125
373,373,1727710929493,-1.8242188,-0.26757812,0.109375,174.875,75.96875,54.28125
374,374,1727710929535,-0.8515625,-0.7421875,0.2998047,41.09375,49.84375,-45.0
375,375,1727710929573,-0.6542969,-0.08300781,-0.2109375,13.75,1.625,-3.625
376,376,1727710929613,-0.7597656,-0.33496094,-0.0703125,3.9375,3.15625,20.34375
377,377,1727710929653,-0.88378906,-0.3173828,0.16503906,-12.84375,12.0625,24.4375
378,378,1727710929693,-0.7783203,0.001953125,0.13183594,-0.28125,18.4375,2.03125
379,379,1727710929737,-0.93066406,-0.10449219,0.059570312,31.28125,10.375,13.03125
380,380,1727710929773,-0.7167969,-0.22558594,0.05859375,12.34375,-5.625,35.4375
381,381,1727710929814,-0.7558594,-0.5888672,-0.048828125,58.4375,-28.8125,34.34375
382,382,1727710929873,-0.8154297,-0.4169922,0.08203125,67.09375,-11.25,8.53125
383,383,1727710929893,-1.0957031,-0.48046875,0.0029296875,103.96875,-33.59375,0.21875
384,384,1727710929936,-1.5546875,-0.6796875,0.43164062,118.4375,-97.3125,-34.21875
385,385,1727710929973,-1.9677734,-0.3203125,0.31835938,107.03125,-146.875,-61.96875
386,386,1727710930013,-1.2529297,-0.37695312,-0.076171875,229.40625,-88.5625,-144.9375
387,387,1727710930054,-1.1865234,-0.5966797,0.19335938,191.5,-72.46875,-105.6875
388,388,1727710930094,-1.1689453,-0.44335938,-0.40722656,204.96875,-22.59375,-126.5625
389,389,1727710930134,-0.8779297,-0.080078125,-0.09082031,202.46875,2.75,-100.0625
390,390,1727710930174,-0.6533203,0.28125,0.12890625,113.5,34.59375,-68.28125
391,391,1727710930214,-0.78125,0.47070312,-0.059570312,88.21875,41.3125,-46.96875
392,392,1727710930254,-0.49316406,0.13476562,0.053710938,55.875,57.5,-58.0
393,393,1727710930293,-0.8925781,-0.33007812,0.38964844,51.65625,64.125,-4.96875
394,394,1727710930334,-1.0947266,-0.16601562,0.37695312,34.09375,82.8125,16.75
395,395,1727710930374,-1.0957031,-0.45410156,0.73339844,93.90625,52.96875,-34.21875
396,396,1727710930413,-0.8652344,-0.5488281,0.3779297,42.1875,9.4375,-44.875
397,397,1727710930453,-0.7519531,-0.1640625,0.25683594,37.0625,30.6875,-30.0
398,398,1727710930493,-1.3300781,0.0234375,0.25,0.9375,76.59375,-8.03125
399,399,1727710930535,-1.9912109,-0.9970703,-0.26757812,-94.9375,63.90625,47.15625
400,400,1727710930572,-0.3046875,-0.04296875,0.25195312,24.8125,2.125,22.90625
401,401,1727710930635,-0.5683594,0.030273438,-0.6142578,-31.21875,-21.0,77.25
402,402,1727710930653,-1.4082031,-0.0146484375,0.16796875,7.03125,95.28125,48.6875
403,403,1727710930693,-0.74609375,-0.26660156,-0.3935547,-137.125,51.5625,-7.71875
404,404,1727710930734,-1.0527344,-0.40820312,-0.16796875,55.4375,-33.21875,33.0
405,405,1727710930774,-0.7949219,-0.33496094,0.0048828125,20.78125,66.625,-23.03125
406,406,1727710930814,-0.9941406,-0.2705078,0.15722656,-1.1875,36.78125,4.96875
407,407,1727710930853,-1.0185547,-0.13183594,-0.048828125,-37.6875,39.96875,-2.03125
408,408,1727710930893,-1.1435547,-0.17089844,0.25195312,-29.15625,12.4375,-16.5
409,409,1727710930934,-0.9091797,-0.29589844,0.20410156,-69.4375,-13.25,-42.625
410,410,1727710930973,-0.53222656,-0.171875,-0.09667969,10.53125,-45.40625,-8.5625
411,411,1727710931014,-0.84375,-0.25878906,-0.00390625,103.84375,-46.75,25.3125
412,412,1727710931053,-0.90527344,-0.43945312,-0.19921875,54.03125,-12.15625,0.875
413,413,1727710931093,-0.81347656,-0.17871094,0.033203125,64.0,-9.53125,0.65625
414,414,1727710931134,-0.9267578,-0.3330078,0.23339844,14.84375,-16.125,9.0625
415,415,1727710931173,-0.82128906,-0.36914062,0.07421875,18.15625,-25.03125,4.0625
416,416,1727710931215,-0.8652344,-0.37402344,-0.15625,45.625,-24.90625,10.15625
417,417,1727710931255,-1.1416016,-0.515625,0.20019531,64.71875,-42.4375,2.53125
418,418,1727710931293,-1.5332031,-0.37109375,0.56640625,152.375,-121.53125,-6.75
419,419,1727710931333,-1.4541016,0.21386719,0.14453125,81.6875,-157.71875,-24.625
420,420,1727710931393,-1.1679688,-0.3642578,0.0390625,133.5,-138.125,-62.34375
421,421,1727710931414,-0.953125,0.3095703,0.4169922,64.71875,-79.1875,-74.0625
422,422,1727710931454,-0.578125,-0.5048828,0.064453125,66.4375,-30.84375,-54.78125
423,423,1727710931494,-0.26953125,0.26464844,0.18554688,21.4375,12.6875,-14.375
424,424,1727710931533,-0.51660156,0.0126953125,0.29882812,-44.34375,52.90625,-4.0625
425,425,1727710931573,-0.8173828,0.16210938,-0.13671875,-57.90625,105.21875,12.84375
426,426,1727710931614,-0.58984375,0.125,0.3095703,-38.90625,116.375,2.28125
427,427,1727710931654,-0.38476562,-0.31835938,0.3388672,-139.875,94.78125,45.625
428,428,1727710931693,-1.5908203,-0.484375,0.3330078,-83.0,76.65625,119.84375
429,429,1727710931733,-1.1835938,-0.076171875,0.70996094,38.65625,102.28125,-29.5
430,430,1727710931773,-1.0263672,-0.12890625,0.56933594,-126.625,38.0625,-47.875
431,431,1727710931814,-1.4111328,0.021484375,-0.2783203,-131.5625,61.40625,12.90625
432,432,1727710931853,-1.5742188,-0.4423828,0.24023438,60.25,25.0625,2.09375
433,433,1727710931893,-0.55078125,0.099609375,-0.46484375,-170.3125,-19.0,-21.40625
434,434,1727710931934,-1.9912109,-0.13867188,-0.18652344,155.25,-27.0625,46.71875
435,435,1727710931974,-0.7216797,-0.7558594,0.74316406,95.375,44.65625,-44.71875
436,436,1727710932015,-0.9375,0.045898438,-0.7451172,-133.09375,39.0,-8.625
437,437,1727710932053,-0.7050781,-0.16601562,0.0126953125,25.40625,13.46875,13.09375
438,438,1727710932095,-0.78222656,-0.08203125,0.13476562,26.15625,-0.875,24.75
439,439,1727710932153,-1.2158203,-0.23242188,0.072265625,-1.5,21.28125,17.4375
440,440,1727710932173,-0.16992188,-0.3203125,0.37402344,-5.90625,-54.03125,-11.375
441,441,1727710932214,-1.0400391,0.18164062,-0.0048828125,-19.8125,-54.75,23.21875
442,442,1727710932253,-0.94628906,-0.8496094,0.048828125,15.53125,-56.28125,-5.875
443,443,1727710932297,-0.6972656,-0.69140625,0.057617188,56.0625,-51.78125,-10.15625
444,444,1727710932334,-1.2646484,-0.40039062,0.4091797,110.375,-90.21875,-2.40625
445,445,1727710932374,-1.8300781,0.09375,0.6386719,127.90625,-164.8125,-7.15625
446,446,1727710932414,-1.0966797,0.25195312,0.18066406,37.25,-115.375,-17.71875
447,447,1727710932453,-1.2226562,-0.50390625,-0.041015625,56.96875,-67.5625,-57.46875
448,448,1727710932496,-0.5214844,-0.07128906,0.20410156,45.0625,-24.5,-21.75
449,449,1727710932534,-0.60839844,0.09082031,0.22070312,-18.78125,27.75,-39.75
450,450,1727710932573,-0.36328125,0.09667969,-0.015625,-71.375,94.59375,-32.75
451,451,1727710932617,-0.7480469,-0.3798828,0.14355469,-51.0625,101.96875,61.0
452,452,1727710932653,-0.7451172,-0.5439453,0.2109375,-163.5,64.9375,82.3125
453,453,1727710932694,-1.0224609,0.19726562,0.11816406,-88.125,120.59375,-37.875
454,454,1727710932735,-1.6347656,-0.28808594,1.3623047,122.75,77.5,-10.15625
455,455,1727710932773,-0.8222656,-0.23242188,0.3671875,-182.59375,-7.53125,-36.71875
456,456,1727710932814,-1.0068359,-0.1484375,-0.7792969,-126.75,-25.15625,55.75
457,457,1727710932855,-1.5976562,-0.27929688,0.84277344,181.40625,49.375,80.40625
458,458,1727710932913,-1.0830078,-0.265625,-0.36132812,-138.46875,-23.625,5.9375
459,459,1727710932933,-1.8222656,-0.7705078,-0.09765625,32.5,116.625,16.21875
460,460,1727710932974,-1.0908203,-0.05078125,-0.27734375,-79.25,21.78125,-25.59375
461,461,1727710933014,-0.7128906,0.052734375,-0.12597656,17.34375,75.0625,-6.1875
462,462,1727710933053,-0.91308594,-0.119140625,-0.0859375,2.59375,39.0625,18.09375
463,463,1727710933096,-0.93652344,-0.23828125,0.15917969,39.9375,1.9375,17.375
464,464,1727710933133,-1.1171875,-0.30664062,0.48046875,-68.53125,-15.875,-12.90625
465,465,1727710933174,-0.40722656,0.09472656,-0.4248047,0.875,-14.34375,-41.78125
466,466,1727710933217,-0.58984375,0.047851562,-0.0546875,190.03125,-78.25,31.40625
467,467,1727710933253,-0.96191406,-0.62402344,-0.06738281,19.0625,-30.40625,1.8125
468,468,1727710933293,-0.75878906,-0.29101562,0.34472656,79.5625,-71.46875,-0.9375
469,469,1727710933337,-0.93066406,-0.15039062,0.083984375,2.21875,-44.75,-0.03125
470,470,1727710933374,-1.6113281,-0.62402344,0.38671875,70.625,-116.90625,-13.28125
471,471,1727710933414,-1.4501953,-0.16992188,0.3857422,125.8125,-149.84375,-32.875
472,472,1727710933456,-1.1611328,-0.10644531,0.15332031,101.84375,-100.90625,-8.5
473,473,1727710933494,-1.2148438,-0.015625,0.18066406,38.53125,-56.40625,-13.09375
474,474,1727710933534,-0.6816406,-0.056640625,0.20996094,10.21875,-8.8125,-22.625
475,475,1727710933575,-0.22265625,-0.099609375,0.0390625,-34.875,47.21875,-13.8125
476,476,1727710933614,-0.3310547,0.1484375,0.06738281,-106.0,93.625,20.34375
477,477,1727710933673,-0.8964844,-0.24707031,0.14160156,-81.34375,68.59375,64.53125
478,478,1727710933696,-0.7363281,-0.26757812,0.21582031,-112.40625,98.5,8.46875
479,479,1727710933734,-0.6015625,0.3408203,0.13378906,-65.34375,92.46875,6.0625
480,480,1727710933773,-1.9570312,-0.78125,0.9794922,159.5,105.28125,124.78125
481,481,1727710933816,-0.8222656,-0.19921875,0.6064453,-266.46875,36.0625,-85.65625
482,482,1727710933853,-1.2265625,0.14257812,-0.640625,-105.5,6.71875,9.1875
483,483,1727710933893,-1.1669922,-0.19726562,-0.13085938,34.15625,28.25,32.5625
484,484,1727710933936,-1.1289062,-0.2548828,0.23730469,151.9375,51.1875,32.5
485,485,1727710933973,-1.1777344,-0.020507812,-0.3642578,-78.34375,-37.4375,5.78125
486,486,1727710934013,-1.9912109,-1.1191406,0.6308594,154.625,154.65625,23.40625
487,487,1727710934055,-0.63671875,-0.3408203,-0.6152344,-341.53125,-76.5,-73.75
488,488,1727710934094,-0.53125,-0.119140625,-0.057617188,103.125,-11.59375,13.65625
489,489,1727710934134,-1.3398438,-0.041992188,0.26660156,29.4375,20.3125,16.375
490,490,1727710934176,-0.9921875,-0.13476562,0.20703125,-37.5,40.53125,-17.125
491,491,1727710934214,-0.6933594,-0.16894531,0.17773438,-20.0,-14.84375,6.0
492,492,1727710934253,-0.7421875,-0.58203125,-0.076171875,46.71875,-42.125,18.78125
493,493,1727710934295,-0.71875,-0.51660156,0.018554688,124.15625,-17.96875,-8.28125
494,494,1727710934333,-0.95214844,-0.13867188,-0.028320312,48.0625,-3.4375,12.84375
495,495,1727710934374,-0.9267578,-0.16210938,0.3203125,44.9375,-15.9375,13.9375
496,496,1727710934433,-1.4023438,-0.46875,0.21484375,51.96875,-76.59375,19.5625
497,497,1727710934453,-1.4921875,0.71484375,0.56640625,60.25,-155.59375,36.34375
498,498,1727710934493,-1.4765625,0.056640625,0.40722656,118.3125,-196.1875,25.84375
499,499,1727710934536,-1.1796875,-0.2734375,0.13671875,91.15625,-138.9375,-31.65625
500,500,1727710934574,-1.0693359,-0.8544922,0.072265625,66.375,-53.34375,-88.03125
501,501,1727710934613,-0.5908203,-0.27246094,0.22363281,37.0,-5.4375,-56.59375
502,502,1727710934653,-0.33203125,-0.026367188,0.19335938,31.8125,45.46875,-43.71875
503,503,1727710934694,-0.11035156,0.27148438,0.11816406,-32.25,96.5625,-26.15625
504,504,1727710934735,-0.43164062,0.15625,0.00390625,-102.03125,122.25,8.40625
505,505,1727710934773,-0.9140625,-0.18164062,0.111328125,-68.21875,110.46875,71.5625
506,506,1727710934813,-1.4941406,-0.6513672,-0.041015625,-125.65625,43.5625,117.21875
507,507,1727710934853,-1.1894531,-0.046875,0.7392578,119.34375,90.25,13.09375
508,508,1727710934894,-1.0136719,-0.02734375,0.91015625,-131.25,53.59375,-44.28125
509,509,1727710934934,-1.5292969,0.2265625,-0.6894531,-206.9375,-40.34375,37.25
510,510,1727710934972,-1.5224609,-0.73046875,0.58691406,131.4375,83.0625,53.6875
511,511,1727710935015,-1.2890625,-0.20507812,-0.62402344,-109.90625,-26.625,1.625
512,512,1727710935053,-1.5078125,-0.6582031,0.3798828,141.25,109.90625,-26.03125
513,513,1727710935093,-0.71875,-0.059570312,-0.5673828,-4.96875,-13.5625,-0.03125
514,514,1727710935133,-0.5517578,-0.18554688,0.0068359375,44.59375,7.6875,18.53125
515,515,1727710935193,-0.99316406,-0.07714844,0.017578125,19.84375,38.625,15.40625
516,516,1727710935213,-0.8359375,-0.08300781,0.10839844,33.15625,10.65625,22.90625
517,517,1727710935253,-0.8076172,-0.20898438,-0.009765625,8.5625,-2.15625,36.03125
518,518,1727710935293,-0.8847656,-0.3701172,-0.0107421875,15.78125,12.1875,33.90625
519,519,1727710935333,-0.7861328,-0.37695312,-0.061523438,30.25,5.1875,25.25
520,520,1727710935373,-0.9638672,-0.33398438,0.1484375,57.46875,-0.875,24.4375
521,521,1727710935413,-1.28125,-0.6503906,0.25878906,99.03125,-28.4375,-0.40625
522,522,1727710935453,-1.4560547,-0.54296875,0.25683594,120.8125,-86.625,-39.28125
523,523,1727710935494,-1.5273438,-0.14746094,0.05078125,117.5,-103.59375,-43.4375
524,524,1727710935534,-1.3691406,-0.52246094,-0.31054688,196.75,-51.40625,-56.5
525,525,1727710935574,-1.5566406,-1.0566406,0.036132812,253.5,-32.90625,-109.09375
526,526,1727710935614,-1.0332031,0.13867188,-0.7011719,177.625,-13.4375,-52.8125
527,527,1727710935654,-0.7529297,0.17773438,-0.08105469,204.0625,3.65625,-64.25
528,528,1727710935693,-0.84375,0.2783203,-0.1015625,151.09375,37.96875,-50.6875
529,529,1727710935734,-0.6455078,0.14160156,-0.053710938,114.34375,42.71875,-52.28125
530,530,1727710935773,-0.98339844,-0.061523438,0.15234375,30.0,44.3125,-22.4375
531,531,1727710935815,-1.3710938,-0.10644531,0.34765625,76.625,3.96875,-1.90625
532,532,1727710935853,-0.8808594,-0.080078125,0.5917969,97.375,-19.3125,-23.59375
533,533,1727710935894,-0.9003906,-0.6269531,0.50878906,97.25,-25.03125,-49.28125
534,534,1727710935954,-0.69140625,-0.59765625,0.234375,27.90625,-4.59375,-65.03125
535,535,1727710935974,-0.35351562,-0.061523438,0.19824219,36.09375,18.46875,-58.125
536,536,1727710936013,-1.9375,-0.22460938,-0.087890625,-29.40625,111.8125,5.21875
537,537,1727710936053,-1.4658203,-0.4736328,0.4765625,38.71875,21.46875,40.1875
538,538,1727710936093,-0.036132812,0.70703125,-0.34277344,-73.28125,6.71875,32.9375
539,539,1727710936133,-1.1035156,0.14746094,0.038085938,2.71875,9.09375,75.90625
540,540,1727710936174,-1.4775391,-0.9921875,-0.4091797,-50.15625,46.25,46.71875
541,541,1727710936214,-0.7597656,0.10449219,0.19238281,-32.15625,71.28125,-18.8125
542,542,1727710936253,-1.2128906,-0.47753906,-0.00390625,-41.84375,28.8125,12.78125
543,543,1727710936294,-0.8359375,-0.2685547,-0.037109375,-40.875,33.25,-16.8125
544,544,1727710936334,-0.9482422,-0.17871094,-0.09375,15.71875,28.625,10.96875
545,545,1727710936374,-1.0390625,-0.15429688,-0.040039062,39.03125,40.28125,2.28125
546,546,1727710936413,-1.0791016,-0.16503906,0.33789062,-10.0625,84.40625,-19.1875
547,547,1727710936454,-0.8330078,-0.1640625,0.06933594,-55.15625,-38.875,-10.71875
548,548,1727710936494,-0.6542969,-0.21582031,0.009765625,-98.0,-18.6875,-26.875
549,549,1727710936534,-0.7753906,-0.14648438,0.09375,-8.71875,-48.78125,13.75
550,550,1727710936574,-0.9658203,-0.27441406,0.0029296875,62.46875,-20.46875,10.15625
551,551,1727710936613,-0.546875,-0.24023438,0.09277344,61.5,-18.5,-4.84375
552,552,1727710936653,-1.1357422,-0.28125,0.11816406,10.15625,-25.53125,6.0
553,553,1727710936733,-0.8496094,-0.22949219,0.07910156,14.3125,-43.09375,13.875
554,554,1727710936739,-1.2285156,-0.4189453,0.20410156,29.875,-88.375,20.25
555,555,1727710936773,-1.7509766,0.2705078,0.77246094,61.59375,-157.90625,5.84375
556,556,1727710936814,-1.6044922,-0.34765625,0.15234375,110.0625,-199.34375,2.0
557,557,1727710936853,-0.9111328,0.14453125,0.21289062,65.5,-124.53125,-47.875
558,558,1727710936893,-0.9638672,-0.32617188,0.07519531,32.375,-56.09375,-49.09375
559,559,1727710936933,-0.6308594,-0.12109375,0.18066406,24.1875,-3.84375,-38.25
560,560,1727710936974,-0.3935547,0.05078125,0.25585938,7.03125,49.5625,-33.53125
561,561,1727710937013,-0.453125,0.045898438,0.045898438,-29.15625,77.25,-11.5
562,562,1727710937054,-0.5732422,0.13964844,0.19238281,-67.59375,93.5625,30.3125
563,563,1727710937093,-0.76953125,-0.14355469,0.10644531,-156.84375,116.625,18.71875
564,564,1727710937134,-1.2724609,-0.27734375,0.32910156,6.5625,95.875,29.34375
565,565,1727710937175,-0.8222656,-0.28027344,0.8183594,-34.875,65.59375,10.03125
566,566,1727710937214,-1.0449219,-0.13964844,-0.12792969,-161.28125,34.59375,3.6875
567,567,1727710937253,-1.2675781,0.30371094,0.06640625,-59.4375,11.90625,-12.96875
568,568,1727710937293,-1.6474609,-0.54003906,0.3955078,52.09375,63.59375,8.5625
569,569,1727710937334,-0.734375,-0.0107421875,-0.31347656,-132.65625,-6.71875,13.75
570,570,1727710937374,-1.3173828,-0.107421875,-0.4345703,95.0,18.0625,31.46875
571,571,1727710937414,-1.875,-0.49804688,0.2109375,138.4375,191.40625,13.46875
572,572,1727710937477,-0.77734375,-0.0703125,-0.33398438,-67.84375,40.8125,6.6875
573,573,1727710937493,-0.8310547,-0.40039062,0.21679688,10.875,-1.59375,32.875
574,574,1727710937534,-0.76953125,0.021484375,0.14257812,-30.0,-41.15625,-6.5
575,575,1727710937573,-0.7939453,-0.15332031,0.053710938,-90.96875,-32.53125,-10.46875
576,576,1727710937615,-0.49804688,-0.20214844,-0.087890625,0.625,-27.0,11.5
577,577,1727710937653,-0.79589844,-0.44726562,-0.03125,6.5625,-3.5,6.0625
578,578,1727710937694,-0.85058594,-0.31933594,0.057617188,44.75,-12.53125,-5.8125
579,579,1727710937733,-1.0566406,-0.31640625,0.28320312,60.03125,-66.0625,-1.96875
580,580,1727710937774,-1.4873047,-0.5800781,0.3955078,124.40625,-121.28125,-22.0625
581,581,1727710937814,-1.6015625,0.53808594,0.5263672,91.03125,-168.46875,-24.6875
582,582,1727710937853,-1.4267578,-0.8720703,0.12988281,123.625,-161.875,-27.625
583,583,1727710937893,-1.0107422,-0.40527344,-0.17773438,109.6875,-79.34375,-103.1875
584,584,1727710937933,-0.8408203,-0.24609375,0.16601562,109.8125,-18.625,-84.875
585,585,1727710937974,-0.453125,-0.09472656,0.09472656,55.875,35.75,-64.25
586,586,1727710938014,-0.08984375,-0.01171875,0.15039062,24.5625,97.71875,-45.75
587,587,1727710938053,-0.5595703,0.11230469,-0.11425781,-52.90625,165.09375,10.59375
588,588,1727710938094,-0.9951172,0.0146484375,-0.028320312,-40.875,148.90625,23.84375
589,589,1727710938134,-0.94140625,-0.3671875,0.0703125,-17.875,114.90625,59.40625
590,590,1727710938175,-1.9912109,-0.7441406,0.765625,28.84375,33.8125,174.96875
591,591,1727710938233,-0.8535156,0.32226562,0.4560547,-124.84375,56.15625,-71.4375
592,592,1727710938253,-0.9628906,0.49316406,-0.29101562,75.28125,-69.03125,-18.71875
593,593,1727710938293,-1.5048828,-0.6298828,-0.24511719,122.71875,30.3125,60.09375
594,594,1727710938334,-0.88671875,-0.37890625,0.16601562,-3.03125,-3.4375,16.625
595,595,1727710938377,-1.2626953,-0.111328125,-0.42382812,99.375,-33.75,16.03125
596,596,1727710938415,-1.7958984,-0.98339844,0.60839844,102.75,198.90625,-35.1875
597,597,1727710938454,-0.8876953,0.037109375,-0.27441406,-24.625,-25.03125,-46.28125
598,598,1727710938494,-0.86621094,-0.09277344,-0.40039062,2.59375,53.59375,-15.40625
599,599,1727710938533,-0.9189453,-0.20019531,-0.041992188,74.90625,89.78125,10.46875
600,600,1727710938573,-0.91796875,-0.0048828125,-0.0146484375,9.96875,55.40625,6.625
601,601,1727710938617,-0.9316406,-0.080078125,-0.0625,-8.8125,35.6875,7.71875
602,602,1727710938654,-0.8730469,-0.4345703,-0.064453125,-34.21875,25.5,10.90625
603,603,1727710938694,-0.9951172,-0.18554688,0.11035156,0.15625,25.25,14.3125
604,604,1727710938735,-0.984375,-0.5419922,-0.09667969,9.84375,6.75,18.65625
605,605,1727710938774,-1.0556641,-0.33984375,-0.043945312,38.15625,25.375,15.71875
606,606,1727710938813,-1.171875,-0.5439453,-0.032226562,43.0625,8.21875,13.8125
607,607,1727710938856,-1.2753906,-0.56152344,-0.078125,63.5625,-10.6875,9.5
608,608,1727710938895,-1.2861328,-0.22558594,0.07324219,92.0625,-55.96875,3.5
609,609,1727710938934,-0.85253906,-0.022460938,0.06738281,95.59375,-122.625,-4.0625
610,610,1727710938993,-1.0898438,-0.119140625,0.265625,128.75,-89.96875,-14.0625
611,611,1727710939014,-1.4404297,-0.25,-0.10058594,59.28125,-129.40625,-12.0
612,612,1727710939100,-1.5224609,-0.43847656,-0.35742188,211.9375,-45.53125,-98.53125
613,613,1727710939106,-0.8261719,-0.72558594,-0.020507812,211.3125,-53.0,-126.5
614,614,1727710939295,-1.0136719,-0.103515625,0.072265625,171.59375,-76.78125,-28.84375
615,615,1727710939300,-0.91503906,-0.016601562,0.026367188,122.71875,-54.15625,-40.5625
616,616,1727710939305,-0.8652344,0.234375,0.20019531,95.46875,-61.53125,-37.0625
617,617,1727710939310,-0.609375,0.08300781,0.14257812,66.78125,-44.5,-37.625
618,618,1727710939315,-0.3515625,-0.06347656,0.23535156,38.0,-6.46875,-42.6875
619,619,1727710939375,-0.28710938,-0.21875,0.32617188,-15.40625,40.6875,-12.0625
620,620,1727710939381,-0.36523438,-0.13085938,0.24707031,-34.46875,104.84375,0.34375
621,621,1727710939455,-0.6982422,-0.17285156,0.23144531,-72.71875,118.09375,-8.8125
622,622,1727710939466,-1.1035156,-0.49609375,0.296875,-82.0,92.875,-25.125
623,623,1727710939535,-1.0058594,-0.29003906,0.36328125,-42.6875,19.75,-13.15625
624,624,1727710939540,-0.84277344,-0.24023438,0.22460938,-10.59375,-2.9375,4.90625
625,625,1727710939614,-0.68652344,0.20703125,0.048828125,-95.3125,13.65625,10.71875
626,626,1727710939619,-0.7597656,0.09765625,0.19921875,-86.46875,34.09375,69.0625
627,627,1727710939697,-1.6894531,-0.61035156,0.31640625,-46.25,98.875,114.15625
628,628,1727710939702,-1.2832031,-0.5126953,0.12792969,-56.625,66.34375,38.0625
629,629,1727710939753,-1.3271484,-0.15625,-0.5498047,18.53125,144.53125,2.84375
630,630,1727710939774,-1.9912109,-0.68847656,0.8574219,127.84375,41.90625,12.46875
631,631,1727710939818,-0.6152344,0.44433594,-0.25195312,-98.71875,-38.84375,-12.53125
632,632,1727710939853,-0.76953125,-0.29003906,-0.28222656,-95.6875,-4.65625,16.28125
633,633,1727710939894,-0.6923828,-0.31054688,-0.024414062,30.46875,-2.9375,-3.625
634,634,1727710939937,-1.0761719,-0.21582031,-0.22363281,18.5625,48.15625,3.9375
635,635,1727710939974,-0.9267578,-0.24804688,-0.14160156,11.8125,42.53125,15.53125
636,636,1727710940013,-0.8417969,-0.19628906,0.38671875,-18.90625,-9.78125,5.09375
637,637,1727710940056,-0.9716797,-0.21386719,0.3203125,-19.4375,-55.0625,-13.21875
638,638,1727710940095,-0.6035156,-0.28027344,0.11425781,-125.09375,-75.21875,-6.3125
639,639,1727710940173,-0.7080078,-0.5625,-0.21386719,106.28125,-64.84375,-7.78125
640,640,1727710940177,-0.9824219,-0.5517578,0.10253906,106.53125,-42.125,-18.8125
641,641,1727710940255,-1.2470703,-0.25878906,0.32421875,123.0625,-105.25,-22.90625
642,642,1727710940259,-1.921875,-0.23925781,0.5292969,169.09375,-177.3125,-53.125
643,643,1727710940298,-1.2324219,0.06640625,0.15429688,72.15625,-160.53125,-51.0
644,644,1727710940334,-1.0644531,-0.5410156,0.34277344,105.1875,-96.9375,-59.40625
645,645,1727710940374,-0.61328125,0.072265625,0.11621094,76.625,-17.09375,-38.90625
646,646,1727710940415,-0.45996094,0.013671875,0.15039062,3.5625,44.53125,-27.6875
647,647,1727710940453,-0.33496094,0.0029296875,0.051757812,-65.46875,100.28125,-11.25
648,648,1727710940514,-0.36914062,-0.029296875,-0.034179688,-80.40625,148.1875,25.84375
649,649,1727710940535,-0.6484375,-0.42578125,0.022460938,-70.46875,104.90625,78.65625
650,650,1727710940573,-0.8544922,-0.016601562,0.20800781,-108.0625,52.1875,61.90625
651,651,1727710940614,-1.9716797,-0.5810547,0.60546875,50.375,109.5,53.0
652,652,1727710940654,-1.0507812,-0.18359375,0.71972656,-108.9375,35.875,-52.75
653,653,1727710940694,-0.9140625,0.31054688,-0.08691406,-89.75,-3.90625,-15.71875
654,654,1727710940734,-1.5566406,0.15820312,-0.46972656,11.25,-4.78125,63.03125
655,655,1727710940774,-1.1152344,-0.5126953,0.21191406,99.3125,62.90625,61.90625
656,656,1727710940813,-0.99121094,-0.06542969,-0.37304688,62.8125,31.53125,40.375
657,657,1727710941615,-1.9697266,-0.57128906,0.11816406,43.65625,100.15625,-23.03125
658,658,1727710941620,-1.2363281,-0.19726562,0.044921875,-88.53125,20.4375,-20.65625
659,659,1727710941626,-0.45507812,-0.11328125,-0.31835938,7.46875,1.40625,8.21875
660,660,1727710941632,-0.6386719,-0.31445312,-0.14257812,-14.1875,4.125,10.90625
661,661,1727710941637,-1.2480469,-0.17285156,0.2109375,-88.71875,65.3125,-27.1875
662,662,1727710941641,-0.6484375,-0.064453125,0.15234375,-28.84375,-69.15625,-11.375
663,663,1727710941645,-0.76953125,-0.2578125,-0.16210938,-42.03125,-8.75,-14.5
664,664,1727710941651,-0.6386719,-0.43652344,-0.140625,110.1875,-54.9375,-15.90625
665,665,1727710941654,-0.78027344,-0.03515625,0.14746094,67.78125,-55.3125,-5.875
666,666,1727710941658,-0.98828125,-0.35351562,0.33496094,33.84375,-56.40625,-0.875
667,667,1727710941666,-1.4248047,-0.63183594,0.3251953,106.15625,-126.40625,-22.375
668,668,1727710941670,-1.6269531,0.14550781,0.6123047,149.6875,-187.03125,-15.15625
669,669,1727710941673,-1.5566406,-0.60839844,0.16015625,107.125,-179.09375,-10.03125
670,670,1727710941677,-0.9345703,0.029296875,0.0146484375,78.4375,-106.75,-63.4375
671,671,1727710941681,-0.671875,-0.059570312,0.26367188,13.15625,-25.59375,-46.21875
672,672,1727710941685,-0.42382812,-0.17675781,0.18066406,-13.15625,41.96875,-29.4375
673,673,1727710941687,-0.07910156,0.005859375,0.07910156,-74.625,112.40625,-13.53125
674,674,1727710941690,-0.4951172,0.14257812,-0.033203125,-130.03125,128.21875,58.625
675,675,1727710941694,-1.0595703,-0.48632812,-0.12011719,-90.96875,80.125,59.90625
676,676,1727710941697,-0.96484375,0.095703125,0.23730469,-80.40625,68.59375,31.40625
677,677,1727710941701,-1.6669922,-0.28710938,0.90234375,22.53125,126.5625,56.0625
678,678,1727710941704,-0.71484375,-0.115234375,0.76171875,-186.0,44.65625,-33.15625
679,679,1727710941733,-1.1748047,-0.087890625,-0.11328125,0.15625,-22.09375,19.875
680,680,1727710941773,-1.2167969,-0.9248047,-0.6484375,-44.96875,72.8125,-47.28125
681,681,1727710941813,-1.1943359,-0.13378906,-0.12402344,66.3125,-39.125,-8.15625
682,682,1727710941854,-1.2070312,0.1328125,0.03515625,-49.96875,-5.125,75.40625
683,683,1727710941893,-1.8417969,-0.27441406,-0.38378906,38.28125,37.09375,37.1875
684,684,1727710941933,-0.82421875,-0.4580078,0.028320312,18.5625,85.0625,5.46875
685,685,1727710941974,-0.8535156,-0.12695312,-0.07128906,-35.625,11.28125,15.65625
686,686,1727710942036,-0.890625,-0.055664062,-0.022460938,-87.1875,7.1875,6.0625
687,687,1727710942053,-0.78222656,0.0126953125,0.2763672,-37.5,1.34375,-3.75
688,688,1727710942093,-1.2685547,-0.21582031,0.07714844,-46.5,9.15625,-19.8125
689,689,1727710942134,-0.22949219,-0.21875,-0.17480469,3.9375,-72.75,-15.84375
690,690,1727710942174,-0.9121094,-0.5957031,0.17773438,92.0625,-54.5,-36.40625
691,691,1727710942213,-1.0019531,-0.4189453,0.25878906,119.53125,-55.625,-17.4375
692,692,1727710942254,-0.55371094,-0.038085938,0.07421875,58.1875,-49.15625,-4.59375
693,693,1727710942294,-1.3183594,-0.5214844,0.4921875,67.59375,-87.28125,-8.34375
694,694,1727710942334,-1.5771484,-0.026367188,0.53027344,118.1875,-140.5,-23.84375
695,695,1727710942374,-1.2626953,0.025390625,0.14550781,114.03125,-126.53125,-19.8125
696,696,1727710942414,-1.1982422,-0.36132812,0.087890625,78.03125,-95.78125,-18.28125
697,697,1727710942454,-0.8857422,-0.20996094,0.17480469,1.625,4.6875,-41.96875
698,698,1727710942494,-0.6933594,-0.30859375,0.23925781,-14.0625,32.34375,-29.6875
699,699,1727710942534,-0.25195312,-0.009765625,0.13378906,-79.125,76.65625,-9.90625
700,700,1727710942575,-0.7167969,-0.25195312,0.22949219,-27.3125,71.9375,57.28125
701,701,1727710942637,-1.0673828,-0.29296875,0.21289062,-12.625,38.5,22.84375
702,702,1727710942693,-0.68847656,0.14453125,0.20214844,-35.6875,55.90625,-11.3125
703,703,1727710942697,-0.90527344,-0.05859375,0.27148438,5.5625,60.40625,21.28125
704,704,1727710942733,-1.0361328,-0.32226562,0.5175781,5.75,102.15625,62.21875
705,705,1727710942793,-0.90527344,-0.018554688,0.3515625,-125.28125,34.34375,0.59375
706,706,1727710942854,-1.4257812,0.033203125,-0.20214844,-117.34375,55.46875,29.6875
707,707,1727710942857,-1.2783203,-0.36816406,0.49023438,61.0625,52.65625,2.65625
708,708,1727710942893,-0.8544922,-0.29003906,0.123046875,-35.375,-1.65625,4.125
709,709,1727710942933,-1.0136719,0.18359375,-0.38964844,-80.125,-20.53125,-0.03125
710,710,1727710942974,-1.9912109,-0.31640625,-0.048828125,164.375,145.25,30.3125
711,711,1727710943014,-0.6904297,-0.59765625,0.09765625,-71.5,-8.625,-28.65625
712,712,1727710943054,-0.6269531,0.047851562,-0.0009765625,91.09375,-16.90625,9.375
713,713,1727710943095,-1.1132812,-0.2763672,0.10839844,29.8125,0.0,21.75
714,714,1727710943133,-0.85546875,0.078125,0.17675781,35.46875,-6.34375,3.28125
715,715,1727710943174,-0.8828125,-0.01953125,0.25683594,-53.5625,18.125,-6.0
716,716,1727710943213,-0.6767578,-0.19335938,0.09082031,-64.375,-17.34375,13.46875
717,717,1727710943254,-0.7783203,-0.5751953,-0.17480469,3.5625,-2.5,4.375
718,718,1727710943293,-0.82421875,-0.14257812,-0.0126953125,60.4375,1.9375,2.78125
719,719,1727710943333,-0.890625,-0.27929688,0.12890625,35.375,-22.40625,4.5
720,720,1727710943374,-1.4560547,-0.5498047,0.42089844,54.90625,-86.8125,-7.96875
721,721,1727710943415,-1.8291016,0.06933594,0.9140625,150.46875,-175.84375,3.03125
722,722,1727710943454,-1.9814453,-0.5126953,0.25,258.25,-185.875,-61.0625
723,723,1727710943494,-0.625,-0.32714844,0.0009765625,91.03125,-122.6875,-76.09375
724,724,1727710943554,-0.7705078,-0.4970703,0.16015625,60.21875,-49.75,-83.28125
725,725,1727710943573,-0.9609375,-0.42382812,-0.05859375,66.5625,12.375,-77.40625
726,726,1727710943614,-0.16601562,0.18359375,0.296875,-2.53125,66.46875,-62.09375
727,727,1727710943653,-0.54785156,0.07519531,0.1171875,-30.125,131.65625,-1.75
728,728,1727710943694,-0.9375,-0.033203125,0.0546875,-46.4375,113.03125,69.5625
729,729,1727710943734,-1.2402344,-0.92578125,0.09375,-23.46875,33.4375,107.875
730,730,1727710943774,-1.5234375,0.28515625,0.65527344,-53.625,73.15625,2.84375
731,731,1727710943814,-0.91503906,-0.11230469,1.0380859,77.59375,68.15625,-23.40625
732,732,1727710943874,-0.44140625,-0.36914062,0.15429688,125.8125,-37.1875,-31.71875
733,733,1727710943894,-0.24316406,0.2529297,-0.25390625,41.65625,-27.78125,2.71875
734,734,1727710943933,-0.8330078,-0.07910156,0.20117188,-7.1875,58.53125,49.71875
735,735,1727710943974,-1.9912109,-0.046875,-0.41992188,-47.09375,34.84375,120.875
736,736,1727710944015,-0.69921875,-0.5214844,-0.099609375,101.28125,51.25,-20.53125
737,737,1727710944054,-1.6884766,-1.109375,0.26464844,-61.375,8.34375,-89.1875
738,738,1727710944094,-0.9316406,-0.05859375,-0.5,54.46875,-35.21875,-31.875
739,739,1727710944134,-0.9326172,-0.24902344,-0.29296875,43.0625,28.875,-20.0
740,740,1727710944174,-0.9580078,0.17578125,-0.23242188,46.40625,99.46875,-8.6875
741,741,1727710944214,-0.8642578,-0.17480469,0.056640625,75.78125,62.90625,21.9375
742,742,1727710944257,-0.9316406,0.09082031,0.09765625,-11.5625,75.25,-7.96875
743,743,1727710944314,-0.91308594,-0.038085938,0.15917969,-32.5625,47.84375,0.65625
744,744,1727710944333,-0.87890625,-0.38183594,0.08203125,-43.875,-5.8125,17.5
745,745,1727710944374,-0.9902344,-0.90625,0.06738281,30.1875,0.34375,9.1875
746,746,1727710944414,-1.4482422,-0.83203125,0.08300781,48.125,-21.625,3.6875
747,747,1727710944454,-1.3925781,-0.47753906,0.099609375,102.5625,-97.3125,-12.34375
748,748,1727710944495,-0.98339844,0.03515625,0.12695312,150.96875,-136.90625,-9.71875
749,749,1727710944534,-1.015625,-0.14355469,0.23339844,175.0625,-87.09375,-7.84375
750,750,1727710944573,-1.6630859,-0.3623047,-0.42578125,190.75,-125.875,36.03125
751,751,1727710944616,-1.2158203,-0.12890625,-0.24414062,108.46875,-83.25,-102.6875
752,752,1727710944654,-0.8027344,-0.1796875,0.043945312,135.71875,-60.75,-115.375
753,753,1727710944694,-0.73339844,-0.2607422,0.038085938,182.15625,-60.5625,-73.46875
754,754,1727710944733,-0.7988281,-0.2861328,0.06933594,81.6875,-15.34375,-51.53125
755,755,1727710944774,-0.9003906,0.28125,-0.0146484375,59.59375,19.34375,-31.15625
756,756,1727710944813,-0.6953125,0.18261719,0.33203125,14.0,20.1875,-33.46875
757,757,1727710944857,-0.59277344,-0.12792969,0.1875,-15.46875,43.6875,-23.59375
758,758,1727710944894,-0.68652344,-0.42382812,-0.10644531,70.625,89.53125,-10.40625
759,759,1727710944934,-1.0175781,-0.30566406,0.11816406,-0.59375,111.25,-13.21875
