,Unnamed: 0,timestamp,accel_x,accel_y,accel_z,gyro_x,gyro_y,gyro_z
0,0,1727404726182,0.068359375,0.96875,-0.18847656,8.125,-5.9375,1.25
1,1,1727404726222,0.080078125,0.953125,-0.171875,9.71875,-4.8125,0.09375
2,2,1727404726262,0.13085938,0.9609375,-0.16113281,9.34375,-1.71875,-1.0625
3,3,1727404726302,0.15136719,0.9580078,-0.17871094,8.5625,6.78125,-0.6875
4,4,1727404726342,0.10253906,0.9472656,-0.19824219,8.5,13.71875,-0.875
5,5,1727404726382,0.12109375,0.95703125,-0.22753906,7.625,13.40625,-1.90625
6,6,1727404726422,0.06933594,0.95214844,-0.21679688,5.25,12.8125,-4.3125
7,7,1727404726462,0.11035156,0.9658203,-0.2421875,0.875,13.40625,-6.0
8,8,1727404726502,0.09082031,0.9433594,-0.28710938,0.1875,19.09375,-4.90625
9,9,1727404726542,0.078125,0.94433594,-0.25976562,3.5,15.0,-2.03125
10,10,1727404726582,0.018554688,1.0292969,-0.28808594,3.25,3.15625,4.1875
11,11,1727404726622,0.009765625,0.9482422,-0.33398438,2.8125,5.0625,7.34375
12,12,1727404726662,0.15722656,0.96777344,-0.19726562,1.0625,-6.21875,7.96875
13,13,1727404726702,0.14453125,0.94433594,-0.24414062,5.0625,28.1875,4.0
14,14,1727404726742,0.04296875,0.9609375,-0.18554688,6.65625,39.46875,0.21875
15,15,1727404726782,-0.041992188,0.9736328,-0.17578125,0.9375,35.875,-4.53125
16,16,1727404726822,0.0087890625,0.9609375,-0.20019531,-1.34375,36.0,-7.03125
17,17,1727404726862,0.02734375,0.9873047,-0.19628906,2.21875,42.65625,-4.3125
18,18,1727404726902,0.017578125,1.0214844,-0.1875,3.6875,29.40625,13.46875
19,19,1727404726942,0.09277344,1.0361328,-0.21386719,6.3125,13.3125,34.09375
20,20,1727404726982,0.1328125,1.1035156,-0.38183594,8.96875,4.09375,42.5625
21,21,1727404727022,0.19140625,1.4423828,-0.41992188,15.875,-4.9375,30.78125
22,22,1727404727062,0.045898438,1.6162109,-0.07128906,-10.25,17.375,11.375
23,23,1727404727102,0.028320312,1.3173828,0.15917969,-62.90625,49.0625,-37.0
24,24,1727404727142,-0.6035156,1.0976562,0.26660156,-117.125,67.1875,-103.0
25,25,1727404727182,-0.4111328,1.078125,-0.265625,-83.53125,95.15625,-146.4375
26,26,1727404727222,0.29296875,0.98535156,-0.2998047,-58.65625,-40.21875,-115.4375
27,27,1727404727262,0.30664062,1.0839844,-0.2890625,2.5,-2.3125,-122.34375
28,28,1727404727302,-0.7988281,1.5214844,0.4814453,7.21875,39.59375,-200.71875
29,29,1727404727342,0.3251953,1.0361328,0.016601562,-2.84375,76.09375,-203.28125
30,30,1727404727382,0.06933594,0.5292969,-0.04296875,2.6875,17.21875,-154.15625
31,31,1727404727422,-0.20605469,0.55371094,0.061523438,-2.96875,-6.78125,-104.9375
32,32,1727404727462,-0.12207031,0.4609375,0.19628906,-33.75,-54.875,-44.28125
33,33,1727404727502,-0.24023438,0.24023438,-0.28320312,-2.625,-30.71875,29.03125
34,34,1727404727542,-0.5527344,0.3515625,-0.40625,31.375,27.65625,83.59375
35,35,1727404727582,-0.12207031,0.97265625,-0.15625,47.9375,-2.9375,121.125
36,36,1727404727622,-1.3154297,2.0,-0.8779297,150.34375,-33.6875,125.71875
37,37,1727404727662,-0.8154297,1.3544922,0.5498047,104.625,-25.03125,79.5625
38,38,1727404727702,0.43945312,0.087890625,-0.026367188,34.25,-127.625,61.75
39,39,1727404727742,0.84472656,1.0292969,0.056640625,42.625,-2.4375,117.71875
40,40,1727404727782,-0.11425781,1.2294922,0.080078125,48.0,64.875,72.65625
41,41,1727404727822,0.15722656,0.8251953,-0.17675781,16.78125,63.78125,86.21875
42,42,1727404727862,-0.24121094,0.7675781,-0.21191406,5.1875,-45.71875,108.875
43,43,1727404727902,-0.89453125,0.9482422,-0.22558594,-9.6875,21.125,64.5625
44,44,1727404727942,-0.4111328,1.0634766,-0.01171875,15.28125,6.09375,27.3125
45,45,1727404727982,-0.18457031,0.78027344,-0.29296875,-19.71875,-26.5625,-0.875
46,46,1727404728022,0.3720703,1.140625,-0.12597656,19.46875,33.9375,-15.71875
47,47,1727404728062,0.46289062,1.2519531,-0.24316406,25.40625,14.15625,53.0625
48,48,1727404728102,-0.06640625,1.3115234,-0.13769531,18.8125,26.96875,90.0625
49,49,1727404728142,-0.49902344,1.4501953,0.030273438,-11.40625,-19.0,89.8125
50,50,1727404728182,-0.33496094,1.1376953,-0.07910156,-50.28125,-48.03125,34.59375
51,51,1727404728222,0.11035156,1.0761719,0.09277344,-55.21875,-33.03125,-32.625
52,52,1727404728262,-0.2919922,0.9667969,-0.05078125,-57.4375,161.25,-127.71875
53,53,1727404728302,-0.5019531,1.1816406,-0.17773438,-18.90625,54.625,-169.8125
54,54,1727404728342,0.42773438,1.3994141,-0.06640625,-70.84375,-3.84375,-161.46875
55,55,1727404728382,0.41503906,1.1826172,0.41601562,60.375,66.09375,-119.28125
56,56,1727404728422,-0.091796875,1.2451172,-0.2578125,-63.46875,-66.96875,-179.65625
57,57,1727404728462,0.060546875,1.0693359,0.12207031,-25.375,57.125,-168.78125
58,58,1727404728502,0.123046875,0.45996094,0.028320312,-19.09375,8.21875,-118.5
59,59,1727404728542,-0.12011719,0.41308594,0.07714844,-23.3125,-29.375,-65.9375
60,60,1727404728582,-0.28320312,0.234375,0.045898438,-43.9375,-47.3125,1.375
61,61,1727404728622,-0.5058594,0.14257812,-0.6455078,33.34375,19.71875,69.125
62,62,1727404728662,-0.1640625,0.64746094,0.5449219,16.4375,57.0,104.71875
63,63,1727404728702,-1.46875,2.0,-1.0361328,99.875,-33.28125,58.03125
64,64,1727404728742,-0.46191406,1.0488281,0.1640625,22.34375,-99.90625,79.3125
65,65,1727404728782,0.2998047,0.29296875,-0.07128906,70.9375,-48.15625,81.9375
66,66,1727404728822,0.4013672,1.3554688,0.12890625,50.84375,14.40625,101.21875
67,67,1727404728862,-0.24316406,1.2412109,0.048828125,15.5,30.5625,74.0
68,68,1727404728902,0.20703125,0.90527344,-0.18164062,0.75,25.5,70.34375
69,69,1727404728942,0.08496094,0.7451172,-0.20214844,21.5625,45.15625,97.625
70,70,1727404728982,-0.10058594,0.91796875,-0.20214844,-10.84375,-11.0,85.125
71,71,1727404729022,-0.58691406,1.1142578,-0.22558594,22.28125,-10.25,61.125
72,72,1727404729062,-0.3798828,0.7480469,-0.12402344,-1.5625,17.75,25.0625
73,73,1727404729102,-0.16796875,0.9160156,-0.17578125,6.125,7.0,-2.96875
74,74,1727404729142,-0.021484375,1.2070312,-0.2607422,11.90625,23.3125,-15.09375
75,75,1727404729182,0.45996094,1.046875,-0.2890625,30.84375,46.6875,28.15625
76,76,1727404729222,-0.23925781,1.4941406,-0.09277344,33.6875,16.21875,88.59375
77,77,1727404729262,-0.45898438,1.4638672,-0.041992188,-11.71875,-13.1875,79.25
78,78,1727404729302,-0.140625,1.2050781,-0.13964844,-39.40625,-61.59375,26.34375
79,79,1727404729342,0.25390625,1.1054688,0.17773438,-63.53125,-12.9375,-40.375
80,80,1727404729382,-0.59277344,0.91503906,-0.3330078,-55.46875,168.8125,-133.8125
81,81,1727404729422,-0.29589844,1.0830078,0.09765625,-26.40625,-1.90625,-166.03125
82,82,1727404729462,0.59765625,1.2587891,-0.09765625,-90.875,-6.125,-137.125
83,83,1727404729502,-0.043945312,1.1777344,0.19726562,57.8125,50.21875,-135.84375
84,84,1727404729542,-0.50683594,1.2539062,-0.29003906,-44.96875,39.1875,-199.71875
85,85,1727404729582,0.17382812,0.78222656,0.072265625,-24.71875,44.5,-150.25
86,86,1727404729622,0.103515625,0.44433594,-0.0107421875,-17.25,-4.53125,-114.28125
87,87,1727404729662,-0.07910156,0.42382812,0.08105469,-35.5,-38.65625,-45.25
88,88,1727404729702,-0.375,0.3095703,-0.34765625,-12.25,-35.96875,25.0
89,89,1727404729742,-0.5527344,0.23046875,-0.48339844,59.15625,36.3125,75.84375
90,90,1727404729782,-0.15136719,0.7910156,0.45996094,27.40625,20.375,113.75
91,91,1727404729822,-1.0078125,2.0,0.3564453,50.65625,88.1875,55.75
92,92,1727404729862,0.18847656,0.51171875,-0.27441406,-29.34375,-180.0,68.8125
93,93,1727404729902,0.46972656,0.48046875,0.036132812,49.28125,-24.84375,94.9375
94,94,1727404729942,0.03125,1.4521484,-0.0087890625,53.78125,44.71875,91.34375
95,95,1727404729982,-0.16503906,1.0712891,0.005859375,-3.28125,30.5625,47.65625
96,96,1727404730022,0.16503906,0.76660156,-0.23828125,13.8125,15.375,80.125
97,97,1727404730062,-0.0390625,0.921875,-0.19726562,0.0,-0.75,100.8125
98,98,1727404730102,-0.39453125,1.1113281,-0.19433594,-5.375,-24.125,86.71875
99,99,1727404730142,-0.47558594,0.85839844,-0.13476562,-6.8125,-29.375,52.59375
100,100,1727404730182,-0.19140625,0.68359375,-0.2265625,1.90625,2.8125,12.1875
101,101,1727404730222,-0.030273438,0.9736328,0.0078125,26.875,38.4375,-2.90625
102,102,1727404730262,-0.15332031,1.0947266,-0.1640625,12.84375,18.5625,-0.40625
103,103,1727404730302,-0.068359375,1.2392578,-0.18847656,17.46875,14.71875,25.25
104,104,1727404730342,0.16503906,1.1103516,-0.17675781,21.875,3.59375,71.5625
105,105,1727404730382,0.0,1.3886719,-0.296875,4.71875,-33.5625,85.65625
106,106,1727404730422,-0.10644531,1.375,0.06933594,-29.53125,-43.34375,44.21875
107,107,1727404730462,-0.0068359375,1.2148438,0.21875,-70.65625,-14.96875,-26.28125
108,108,1727404730502,-0.3154297,0.9238281,-0.107421875,-70.1875,92.875,-108.0
109,109,1727404730542,-0.46191406,1.1787109,-0.15722656,-24.65625,95.40625,-162.8125
110,110,1727404730582,0.24511719,1.3408203,-0.032226562,-71.34375,-1.40625,-153.40625
111,111,1727404730622,0.2763672,1.2099609,0.6748047,64.15625,172.59375,-155.96875
112,112,1727404730662,-0.19335938,1.03125,-0.23925781,-91.125,-81.625,-146.5625
113,113,1727404730702,-0.0078125,1.0410156,0.080078125,-27.21875,47.90625,-168.25
114,114,1727404730742,0.111328125,0.4658203,-0.005859375,-33.625,-4.59375,-117.53125
115,115,1727404730782,0.001953125,0.34375,0.09082031,-31.46875,-22.28125,-53.90625
116,116,1727404730822,-0.2421875,0.4033203,0.0625,-36.84375,-23.5,11.4375
117,117,1727404730862,-0.36816406,0.3017578,-0.58691406,14.78125,20.125,76.28125
118,118,1727404730902,-0.3486328,0.6669922,0.0068359375,52.5,60.34375,107.8125
119,119,1727404730942,-1.4423828,1.9775391,-0.8408203,157.25,11.34375,81.9375
120,120,1727404730982,-0.7216797,1.3769531,0.66796875,69.34375,15.5625,64.25
121,121,1727404731022,0.38476562,0.15234375,-0.10449219,38.34375,-86.90625,65.65625
122,122,1727404731062,0.6230469,0.9482422,0.16503906,40.125,52.1875,104.59375
123,123,1727404731102,-0.22949219,1.3417969,-0.10546875,33.03125,74.6875,89.6875
124,124,1727404731142,-0.061523438,0.95703125,-0.19824219,4.96875,33.5,56.625
125,125,1727404731182,-0.0146484375,0.7841797,-0.19335938,20.28125,41.0,75.34375
126,126,1727404731222,-0.107421875,0.8623047,-0.23730469,9.46875,83.5,73.71875
127,127,1727404731262,-0.46191406,1.2949219,-0.2421875,19.46875,24.78125,56.84375
128,128,1727404731302,-0.36523438,0.7685547,-0.20703125,6.40625,16.78125,37.8125
129,129,1727404731342,-0.18066406,0.8222656,-0.16894531,20.6875,57.78125,9.0625
130,130,1727404731382,-0.10449219,1.0429688,-0.0703125,23.8125,22.03125,-1.90625
131,131,1727404731422,0.05859375,1.1152344,-0.19140625,25.21875,53.28125,-11.25
132,132,1727404731462,0.33789062,0.98828125,-0.28515625,20.75,43.6875,25.5
133,133,1727404731502,-0.13671875,1.2197266,-0.25683594,18.03125,23.375,76.3125
134,134,1727404731542,-0.12207031,1.3613281,-0.10449219,3.5625,6.03125,71.03125
135,135,1727404731582,-0.25,1.4345703,-0.13476562,-31.0,-24.3125,36.09375
136,136,1727404731622,-0.044921875,1.25,0.015625,-53.9375,-10.25,-39.28125
137,137,1727404731662,-0.37695312,0.9082031,-0.31054688,-33.1875,154.21875,-122.90625
138,138,1727404731702,-0.5341797,1.3017578,0.19628906,-19.15625,44.0625,-165.0
139,139,1727404731742,0.4169922,1.1943359,-0.0703125,-89.78125,-49.5625,-153.28125
140,140,1727404731782,0.6845703,1.4423828,0.30566406,30.71875,99.0,-127.28125
141,141,1727404731822,-0.2685547,1.1015625,-0.28125,-64.0625,-32.46875,-152.125
142,142,1727404731862,0.2529297,1.0830078,0.234375,-15.125,135.8125,-191.3125
143,143,1727404731902,0.09082031,0.71191406,0.02734375,-28.125,48.6875,-156.53125
144,144,1727404731942,-0.059570312,0.6328125,0.09277344,-52.1875,-17.40625,-105.125
145,145,1727404731982,-0.016601562,0.24902344,-0.051757812,-49.125,-33.40625,-29.75
146,146,1727404732022,-0.26757812,0.13964844,-0.29589844,-26.84375,-3.90625,50.8125
147,147,1727404732062,-0.8574219,0.3984375,-0.4111328,-23.78125,23.0,80.21875
148,148,1727404732102,-0.08886719,0.7763672,0.3544922,25.34375,43.6875,101.40625
149,149,1727404732142,-0.70703125,2.0,-1.2119141,116.15625,-70.625,78.78125
150,150,1727404732182,-0.8613281,1.0800781,0.3173828,98.15625,139.21875,33.96875
151,151,1727404732222,0.34472656,0.5214844,0.0029296875,27.15625,-44.5,70.84375
152,152,1727404732262,0.39257812,1.0234375,0.02734375,17.28125,30.03125,120.625
153,153,1727404732302,-0.3203125,1.4140625,-0.09375,9.46875,73.3125,84.625
154,154,1727404732342,0.12792969,0.8701172,-0.33007812,3.78125,0.46875,56.625
155,155,1727404732382,-0.0146484375,0.8076172,-0.265625,-4.875,-18.625,71.6875
156,156,1727404732422,-0.032226562,0.9189453,-0.34375,10.8125,47.71875,72.59375
157,157,1727404732462,-0.44628906,1.2900391,-0.31152344,33.53125,50.40625,55.9375
158,158,1727404732502,-0.47265625,0.8261719,0.034179688,29.125,93.0,31.34375
159,159,1727404732542,-0.1484375,0.8466797,-0.44921875,16.1875,28.4375,-18.75
160,160,1727404732582,0.2763672,0.9248047,0.13574219,43.53125,129.28125,-24.6875
161,161,1727404732622,-0.028320312,1.0644531,-0.20507812,11.0,76.15625,12.78125
162,162,1727404732662,-0.22070312,1.1074219,-0.19921875,1.96875,59.5625,17.0625
163,163,1727404732702,0.037109375,1.0693359,-0.26171875,-2.1875,32.71875,46.59375
164,164,1727404732742,0.23046875,1.2666016,-0.33496094,0.625,40.03125,62.34375
165,165,1727404732782,0.14453125,1.4033203,-0.26660156,-3.28125,25.125,48.5625
166,166,1727404732822,0.09765625,1.3242188,-0.061523438,-26.34375,47.84375,15.65625
167,167,1727404732862,-0.17773438,1.1015625,-0.034179688,-42.59375,100.21875,-45.3125
168,168,1727404732902,-0.4716797,0.94140625,-0.043945312,-36.25,85.8125,-109.875
169,169,1727404732942,-0.34277344,1.1464844,0.021484375,-22.28125,4.3125,-139.5625
170,170,1727404732982,0.5029297,1.1357422,-0.057617188,-83.59375,-3.90625,-124.53125
171,171,1727404733022,0.15234375,1.0341797,0.24316406,9.09375,170.28125,-119.0
172,172,1727404733062,-0.095703125,0.9296875,-0.14257812,-41.0,31.625,-136.4375
173,173,1727404733102,-0.3544922,1.1572266,0.08886719,-41.90625,74.21875,-171.09375
174,174,1727404733142,0.16601562,0.71191406,-0.0107421875,-50.40625,-3.4375,-132.96875
175,175,1727404733182,0.09863281,0.59277344,0.07128906,-27.75,4.75,-99.15625
176,176,1727404733222,-0.049804688,0.36914062,0.07324219,-34.46875,-16.3125,-32.5
177,177,1727404733262,-0.20410156,0.3935547,-0.14453125,-20.5625,-2.8125,31.46875
178,178,1727404733302,-0.6152344,0.54003906,-0.5214844,20.65625,48.34375,75.78125
179,179,1727404733342,-0.29003906,0.6640625,0.021484375,52.6875,73.0,97.6875
180,180,1727404733382,-1.4199219,2.0,0.08300781,29.0625,41.875,-68.9375
181,181,1727404733422,0.08203125,0.4716797,-0.3720703,-39.40625,-187.4375,74.0625
182,182,1727404733462,0.2705078,0.46679688,0.046875,104.875,16.78125,82.4375
183,183,1727404733502,0.029296875,1.5068359,0.10546875,48.40625,34.1875,94.46875
184,184,1727404733542,-0.22949219,0.97265625,0.11328125,11.3125,40.9375,45.625
185,185,1727404733582,0.22460938,0.79003906,-0.20800781,2.09375,5.65625,50.4375
186,186,1727404733622,-0.044921875,0.8388672,-0.30664062,-0.53125,8.0625,86.8125
187,187,1727404733662,-0.15527344,0.9658203,-0.24316406,6.90625,85.3125,73.34375
188,188,1727404733702,-0.8720703,1.4267578,-0.23046875,22.84375,-21.90625,51.3125
189,189,1727404733742,-0.30859375,0.8251953,-0.1953125,-18.53125,28.875,13.40625
190,190,1727404733782,-0.20214844,1.1113281,-0.42285156,23.75,52.65625,-14.375
191,191,1727404733822,0.515625,1.3193359,-0.20703125,30.84375,60.34375,10.34375
192,192,1727404733862,0.31445312,1.0917969,-0.09863281,22.03125,66.46875,93.78125
193,193,1727404733902,-0.45410156,1.4199219,-0.103515625,1.125,67.6875,96.84375
194,194,1727404733942,-0.6816406,1.2421875,0.0234375,-20.5625,39.25,62.59375
195,195,1727404733982,-0.12792969,0.9511719,-0.06347656,-41.6875,-32.78125,-4.3125
196,196,1727404734022,0.24414062,0.95214844,-0.19042969,-24.03125,58.71875,-61.0
197,197,1727404734062,-0.28222656,0.9345703,-0.14941406,-22.8125,136.84375,-110.125
198,198,1727404734102,-0.33496094,1.1367188,0.24707031,-17.5625,-8.5,-130.21875
199,199,1727404734142,0.3779297,1.0107422,-0.15527344,-51.875,-26.875,-101.59375
200,200,1727404734182,0.7060547,1.0146484,0.057617188,-6.40625,88.8125,-74.3125
201,201,1727404734222,0.25585938,0.84375,0.16992188,-15.75,87.8125,-70.28125
202,202,1727404734262,-0.6279297,0.9589844,-0.06542969,-13.59375,135.75,-110.125
203,203,1727404734302,0.15332031,0.54785156,0.06542969,-23.1875,83.125,-76.625
204,204,1727404734342,-0.057617188,0.6142578,-0.06933594,-15.8125,32.71875,-43.0
205,205,1727404734382,-0.08886719,0.66503906,-0.12011719,-16.34375,17.6875,-17.96875
206,206,1727404734422,0.11425781,0.55859375,-0.13671875,1.53125,24.78125,28.15625
207,207,1727404734462,-0.11425781,0.58691406,-0.08300781,14.15625,-19.59375,104.53125
208,208,1727404734502,-0.6796875,1.1835938,0.115234375,26.4375,18.5625,106.78125
209,209,1727404734542,-1.2255859,1.4921875,-0.19238281,43.71875,-45.125,51.0
210,210,1727404734582,-0.375,1.1054688,-0.24121094,13.75,-51.34375,19.5
211,211,1727404734622,0.68652344,1.1113281,0.1171875,51.9375,28.8125,21.6875
212,212,1727404734662,-0.2548828,1.2431641,-0.12792969,-14.15625,-51.9375,26.40625
213,213,1727404734702,0.2421875,0.86328125,-0.32128906,-14.40625,46.375,14.625
214,214,1727404734742,0.28710938,0.8144531,-0.2685547,45.90625,104.5625,-2.28125
215,215,1727404734782,0.37304688,0.94140625,-0.35351562,81.625,174.6875,1.3125
216,216,1727404734822,0.0234375,0.9042969,-0.3125,18.25,11.59375,64.0
217,217,1727404734862,-0.03125,0.8359375,-0.34179688,23.375,-57.0625,49.40625
218,218,1727404734902,0.20019531,0.9560547,-0.17480469,29.125,83.125,17.3125
219,219,1727404734942,0.016601562,0.92871094,-0.24902344,22.21875,119.3125,15.0625
220,220,1727404734982,-0.13671875,0.9140625,-0.27539062,17.59375,78.96875,18.09375
221,221,1727404735022,-0.21582031,0.91796875,-0.19921875,11.90625,55.0,18.40625
222,222,1727404735062,0.12695312,0.92871094,-0.23828125,23.75,27.71875,34.8125
223,223,1727404735102,0.06542969,0.8769531,-0.3828125,17.09375,-16.375,61.375
224,224,1727404735142,-0.07128906,0.9267578,-0.3125,14.78125,-27.15625,51.5625
225,225,1727404735182,-0.15527344,0.9863281,-0.39453125,15.40625,8.21875,13.71875
226,226,1727404735222,-0.10058594,1.1591797,-0.2998047,8.96875,46.625,-2.46875
227,227,1727404735262,-0.265625,1.1757812,-0.25195312,-0.84375,66.40625,-17.375
228,228,1727404735302,-0.12988281,1.1748047,-0.11328125,-27.875,29.53125,-41.96875
229,229,1727404735342,-0.037109375,1.2597656,0.1484375,-92.6875,32.65625,-80.78125
230,230,1727404735382,-0.11035156,1.1445312,0.109375,-139.34375,62.5,-146.375
231,231,1727404735422,0.4501953,1.3251953,0.056640625,-115.90625,74.8125,-181.59375
232,232,1727404735462,0.8515625,1.2939453,0.0546875,-59.25,117.125,-175.4375
233,233,1727404735502,0.19921875,1.0068359,-0.0087890625,-5.46875,237.125,-70.78125
234,234,1727404735542,-0.39257812,0.9160156,-0.076171875,-0.84375,54.75,-56.78125
235,235,1727404735582,-0.19433594,0.5957031,-0.10839844,-0.1875,28.75,-71.3125
236,236,1727404735622,0.041015625,0.5732422,0.022460938,22.65625,0.40625,-54.46875
237,237,1727404735662,0.060546875,0.5029297,-0.06640625,-8.21875,-67.375,-4.375
238,238,1727404735702,-0.034179688,0.41601562,-0.06347656,4.34375,-94.0625,67.28125
239,239,1727404735742,-0.6767578,1.2158203,0.16796875,27.90625,-150.40625,97.03125
240,240,1727404735782,-1.4951172,1.6318359,0.5644531,7.40625,-8.0625,0.21875
241,241,1727404735822,-0.11816406,0.8535156,-0.078125,-1.28125,-41.4375,-25.0625
242,242,1727404735862,0.9560547,0.7207031,-0.20703125,58.78125,23.125,-1.84375
243,243,1727404735902,-0.13769531,2.0,-0.19042969,-61.4375,-44.9375,44.09375
244,244,1727404735942,0.1953125,0.52246094,-0.35742188,26.3125,88.625,35.9375
245,245,1727404735982,0.4169922,0.6933594,-0.3671875,62.4375,122.5,31.71875
246,246,1727404736022,0.375,1.1904297,-0.41015625,41.75,43.5625,62.40625
247,247,1727404736062,0.016601562,1.0830078,-0.35253906,62.5625,-15.15625,79.5625
248,248,1727404736102,-0.16015625,0.77246094,-0.09863281,23.09375,97.28125,70.59375
249,249,1727404736142,-0.13378906,0.8798828,-0.24121094,67.34375,59.3125,36.78125
250,250,1727404736182,0.01171875,0.8457031,-0.3046875,35.28125,50.71875,22.875
251,251,1727404736222,0.20019531,0.9404297,-0.021484375,44.625,90.6875,34.6875
252,252,1727404736262,-0.14160156,0.95703125,-0.37304688,11.1875,-15.625,49.59375
253,253,1727404736302,0.064453125,0.94433594,-0.33691406,45.0,31.4375,40.9375
254,254,1727404736342,-0.115234375,0.9892578,-0.17480469,13.75,1.34375,40.3125
255,255,1727404736382,-0.21875,0.5371094,0.076171875,-11.65625,22.28125,88.15625
256,256,1727404736422,0.33789062,0.74609375,-0.14550781,46.9375,44.4375,99.875
257,257,1727404736462,0.044921875,1.5302734,-0.18554688,55.0625,69.15625,108.0625
258,258,1727404736502,-0.40722656,1.0791016,-0.083984375,-6.15625,54.625,57.53125
259,259,1727404736542,0.07910156,0.96875,-0.27929688,14.53125,44.65625,113.125
260,260,1727404736582,0.15234375,0.7089844,-0.24804688,17.03125,58.09375,62.09375
261,261,1727404736622,-0.38183594,0.99609375,-0.42773438,-23.78125,-40.28125,92.25
262,262,1727404736662,-1.0292969,1.0751953,-0.17089844,84.96875,90.3125,65.40625
263,263,1727404736702,-0.22949219,0.92089844,-0.140625,7.75,179.5,-38.78125
264,264,1727404736742,0.53515625,1.1318359,-0.037109375,26.8125,91.375,-13.21875
265,265,1727404736782,0.11035156,1.2363281,-0.15234375,16.625,72.5625,78.15625
266,266,1727404736822,-0.265625,1.0576172,-0.18164062,4.28125,39.4375,84.3125
267,267,1727404736862,-0.2685547,1.3759766,-0.044921875,-19.34375,9.6875,71.8125
268,268,1727404736902,-0.0029296875,1.0107422,-0.005859375,-35.9375,6.21875,4.3125
269,269,1727404736942,0.01171875,0.90234375,-0.046875,-39.59375,142.03125,-74.125
270,270,1727404736982,-0.62890625,0.9736328,0.080078125,-50.65625,150.25,-147.3125
271,271,1727404737022,-0.07324219,1.2089844,0.06640625,-44.53125,1.6875,-143.9375
272,272,1727404737062,0.6191406,1.3349609,0.059570312,-71.21875,132.125,-135.59375
273,273,1727404737102,0.0,0.9814453,0.37109375,7.15625,127.25,-118.1875
274,274,1727404737142,-0.32910156,1.2089844,-0.140625,-70.25,38.9375,-159.5
275,275,1727404737182,-0.034179688,0.86328125,0.11621094,-49.78125,62.625,-138.03125
276,276,1727404737222,0.013671875,0.56933594,0.06738281,-47.84375,19.15625,-109.03125
277,277,1727404737262,-0.08105469,0.48242188,0.037109375,-47.78125,-1.15625,-57.46875
278,278,1727404737302,-0.11328125,0.2734375,-0.0068359375,-39.0625,-11.96875,9.625
279,279,1727404737342,-0.3984375,0.48632812,-0.36035156,9.28125,11.59375,74.5625
280,280,1727404737382,-0.6308594,0.7714844,-0.25683594,37.0,65.375,101.90625
281,281,1727404737422,-1.9609375,2.0,-0.6220703,141.96875,29.53125,43.5
282,282,1727404737462,-0.19042969,1.0908203,0.10644531,8.8125,-118.0,56.84375
283,283,1727404737502,0.3486328,0.15917969,-0.13574219,104.625,-29.3125,53.5
284,284,1727404737542,0.18652344,1.3203125,0.34765625,56.09375,43.5,97.75
285,285,1727404737582,-0.4580078,1.1113281,0.12988281,23.5625,28.5625,71.9375
286,286,1727404737622,0.19824219,0.7734375,-0.10058594,4.40625,18.5625,28.28125
287,287,1727404737662,0.045898438,0.69628906,-0.2919922,15.40625,25.25,79.1875
288,288,1727404737702,-0.14648438,0.8486328,-0.26953125,13.75,86.3125,81.8125
289,289,1727404737742,-0.97753906,1.5078125,-0.21777344,40.46875,-0.625,57.28125
290,290,1727404737782,-0.2421875,0.8378906,-0.12109375,-22.09375,20.6875,14.125
291,291,1727404737822,-0.09277344,0.99121094,-0.5126953,-15.25,37.28125,-9.375
292,292,1727404737862,0.28125,1.3740234,0.068359375,24.84375,112.40625,-10.53125
293,293,1727404737902,0.5263672,1.0771484,-0.20996094,14.71875,75.8125,60.875
294,294,1727404737942,-0.0703125,1.2929688,-0.17382812,-2.25,67.875,101.21875
295,295,1727404737982,-0.62890625,1.2929688,0.07128906,-18.375,38.25,78.65625
296,296,1727404738022,-0.3623047,1.2568359,-0.057617188,-37.9375,12.6875,25.71875
297,297,1727404738062,0.14941406,0.91503906,0.10449219,-57.1875,36.1875,-45.25
298,298,1727404738102,-0.15625,0.9033203,-0.13574219,-22.8125,141.53125,-113.6875
299,299,1727404738142,-0.22167969,1.2734375,0.49804688,-49.5,34.40625,-151.9375
300,300,1727404738182,0.20703125,1.2255859,0.17285156,-106.4375,-43.46875,-124.1875
301,301,1727404738222,0.71484375,1.1230469,-0.15429688,-72.1875,121.21875,-107.4375
302,302,1727404738262,-0.14453125,1.0048828,0.109375,-3.03125,96.96875,-82.5
303,303,1727404738302,-0.41601562,1.0244141,0.37597656,-13.21875,122.78125,-120.09375
304,304,1727404738342,-0.064453125,0.97265625,0.12207031,-63.21875,16.0,-114.53125
305,305,1727404738382,-0.11621094,0.8388672,0.27148438,-45.59375,29.96875,-102.6875
306,306,1727404738422,-0.16015625,0.7236328,0.08105469,-49.5625,13.53125,-88.09375
307,307,1727404738462,-0.19238281,0.5019531,0.03125,-36.5625,16.53125,-61.0625
308,308,1727404738502,-0.41308594,0.46484375,0.018554688,-22.3125,19.71875,-28.46875
309,309,1727404738542,-0.45996094,0.52441406,0.09082031,-4.6875,10.8125,-4.375
310,310,1727404738582,-0.63964844,0.6464844,0.091796875,0.6875,5.375,1.3125
311,311,1727404738622,-0.6376953,0.6533203,0.22558594,0.8125,-5.5625,5.40625
312,312,1727404738662,-0.54785156,0.7109375,0.32910156,2.15625,11.96875,2.46875
313,313,1727404738702,-0.52246094,0.65234375,0.22851562,-3.78125,29.03125,-7.34375
314,314,1727404738742,-0.5234375,0.71875,0.16113281,-5.90625,27.71875,-1.125
315,315,1727404738782,-0.6298828,0.7705078,0.15722656,10.6875,33.1875,9.6875
316,316,1727404738822,-0.69140625,0.7451172,0.12695312,16.84375,19.15625,21.8125
317,317,1727404738862,-0.97265625,1.0058594,0.22949219,18.3125,5.84375,17.71875
318,318,1727404738902,-1.2519531,1.4472656,0.3828125,24.1875,-10.625,-32.5
319,319,1727404738942,-0.5419922,0.6386719,0.05078125,-27.875,-38.21875,33.53125
320,320,1727404738982,-0.37890625,0.51660156,0.0390625,11.96875,-32.28125,89.5625
321,321,1727404739022,-0.37402344,1.1279297,0.24316406,28.5,42.40625,67.71875
322,322,1727404739062,0.12011719,0.9716797,-0.0146484375,20.75,36.75,90.0625
323,323,1727404739102,0.017578125,1.1240234,-0.10449219,47.5,82.8125,97.375
324,324,1727404739142,-0.16894531,1.1748047,-0.1171875,57.1875,60.40625,91.34375
325,325,1727404739182,-0.03125,1.1845703,-0.068359375,47.0,57.5625,86.15625
326,326,1727404739222,0.107421875,1.0234375,-0.056640625,14.65625,26.0,86.09375
327,327,1727404739262,0.22949219,0.7871094,-0.23046875,12.65625,37.21875,77.0
328,328,1727404739302,0.13183594,0.8388672,-0.22167969,23.25,36.4375,100.875
329,329,1727404739342,-0.45117188,1.3662109,-0.43847656,2.09375,38.375,102.34375
330,330,1727404739382,-0.9394531,0.9082031,-0.051757812,170.84375,-27.46875,68.40625
331,331,1727404739422,-0.42578125,0.96875,-0.048828125,17.21875,151.0625,-34.5625
332,332,1727404739462,0.203125,0.9482422,-0.16015625,10.375,56.28125,-37.125
333,333,1727404739502,0.19433594,1.0517578,-0.115234375,20.875,54.9375,6.75
334,334,1727404739542,-0.07421875,1.1640625,-0.21484375,16.125,51.09375,21.53125
335,335,1727404739582,0.14257812,1.1572266,-0.17871094,17.21875,43.09375,43.75
336,336,1727404739622,0.10058594,1.3847656,-0.24609375,8.0,15.8125,56.3125
337,337,1727404739662,0.040039062,1.4394531,-0.15625,-12.125,-6.125,33.59375
338,338,1727404739702,-0.05859375,1.2714844,0.12695312,-61.6875,21.40625,-22.125
339,339,1727404739742,-0.3017578,1.0185547,-0.10449219,-70.0625,94.71875,-98.53125
340,340,1727404739782,-0.43359375,1.1152344,-0.18359375,-34.46875,66.09375,-144.0
341,341,1727404739822,0.14257812,1.1640625,0.001953125,-85.25,-29.65625,-143.03125
342,342,1727404739862,0.34472656,1.2431641,0.26660156,15.40625,148.75,-160.0
343,343,1727404739902,-0.0126953125,1.0927734,-0.20019531,-80.25,-61.65625,-162.4375
344,344,1727404739942,-0.171875,1.1650391,0.21679688,-44.59375,89.21875,-184.28125
345,345,1727404739982,0.23144531,0.5058594,-0.017578125,-49.125,-25.46875,-122.53125
346,346,1727404740022,-0.04296875,0.3798828,-0.01953125,-34.15625,-18.875,-68.75
347,347,1727404740062,-0.18066406,0.31347656,0.12207031,-47.46875,-42.375,0.21875
348,348,1727404740102,-0.34570312,0.17871094,-0.45214844,-3.34375,-8.96875,68.46875
349,349,1727404740142,-0.16601562,0.53222656,0.16015625,58.3125,57.96875,105.0
350,350,1727404740182,-2.0,2.0,-0.88671875,128.3125,1.03125,67.0625
351,351,1727404740222,-0.60839844,0.984375,0.45214844,47.4375,-11.25,84.6875
352,352,1727404740262,0.24804688,0.22851562,-0.19042969,50.125,-77.03125,81.5625
353,353,1727404740302,0.41503906,1.1923828,-0.051757812,58.0625,33.8125,88.40625
354,354,1727404740342,-0.21972656,1.2763672,0.0146484375,28.34375,47.96875,61.875
355,355,1727404740382,0.171875,0.96191406,-0.19726562,3.25,16.09375,50.375
356,356,1727404740422,-0.013671875,0.7441406,-0.15820312,15.09375,20.5625,81.875
357,357,1727404740462,-0.23730469,0.92871094,-0.21679688,11.25,3.90625,76.4375
358,358,1727404740502,-0.49902344,1.2001953,-0.15820312,11.0,-27.09375,63.6875
359,359,1727404740542,-0.2763672,0.80859375,-0.12011719,-18.375,-70.6875,35.96875
360,360,1727404740582,-0.08300781,0.8798828,-0.3544922,25.21875,21.28125,-2.03125
361,361,1727404740622,0.061523438,1.1132812,0.009765625,25.46875,29.34375,-0.09375
362,362,1727404740662,0.22070312,1.1396484,-0.15917969,27.125,51.6875,18.21875
363,363,1727404740702,0.009765625,1.1748047,-0.21386719,21.5,21.125,67.65625
364,364,1727404740742,-0.22265625,1.2705078,-0.24316406,15.28125,5.125,86.71875
365,365,1727404740782,-0.14648438,1.4267578,-0.21582031,-7.5,-44.5,54.46875
366,366,1727404740822,0.09082031,1.2490234,0.032226562,-39.78125,-24.90625,-1.1875
367,367,1727404740862,-0.07128906,1.0654297,0.08203125,-41.96875,65.84375,-57.78125
368,368,1727404740902,-0.5439453,0.8671875,-0.16210938,-56.1875,107.0625,-122.65625
369,369,1727404740942,-0.19628906,1.1054688,-0.07519531,-54.96875,-57.125,-142.125
370,370,1727404740982,0.4970703,1.2822266,-0.34765625,-45.03125,39.78125,-139.96875
371,371,1727404741022,-0.13476562,1.0693359,0.5703125,102.4375,164.3125,-154.75
372,372,1727404741062,-0.1484375,1.0976562,-0.21289062,-89.03125,-73.75,-171.28125
373,373,1727404741102,0.1171875,0.8222656,0.09472656,-28.375,13.0,-139.96875
374,374,1727404741142,0.16503906,0.41796875,-0.0068359375,-40.8125,-31.5,-102.375
375,375,1727404741182,-0.09765625,0.51464844,0.045898438,-33.8125,-40.65625,-42.625
376,376,1727404741222,-0.2548828,0.29589844,-0.08300781,-33.5625,-42.5,14.375
377,377,1727404741262,-0.3642578,0.29101562,-0.5292969,43.15625,7.1875,63.5
378,378,1727404741302,-0.42285156,0.9433594,0.4013672,42.375,61.8125,82.1875
379,379,1727404741342,-0.42773438,2.0,0.32128906,52.5,23.1875,62.0
380,380,1727404741382,-0.07519531,0.64941406,-0.20703125,-4.03125,-114.1875,77.5
381,381,1727404741422,0.203125,0.71777344,0.057617188,64.9375,14.8125,93.34375
382,382,1727404741462,-0.029296875,1.4765625,-0.034179688,47.0,39.90625,90.5625
383,383,1727404741502,-0.119140625,1.0429688,-0.08691406,2.15625,11.71875,59.125
384,384,1727404741542,0.20214844,0.87402344,-0.24609375,1.84375,-9.84375,75.40625
385,385,1727404741582,-0.040039062,0.8339844,-0.17089844,16.78125,27.71875,88.78125
386,386,1727404741622,-0.20898438,1.0771484,-0.07324219,13.625,15.1875,78.34375
387,387,1727404741662,-0.25585938,0.96972656,-0.048828125,-21.15625,-43.46875,74.4375
388,388,1727404741702,-0.25976562,0.76464844,-0.27148438,-36.625,-67.3125,50.75
389,389,1727404741742,-0.31445312,0.9013672,-0.08691406,35.03125,34.65625,6.4375
390,390,1727404741782,-0.10058594,1.0761719,-0.22167969,25.40625,7.4375,-7.0
391,391,1727404741822,0.328125,1.1220703,-0.15527344,31.8125,15.0625,28.90625
392,392,1727404741862,-0.021484375,1.2158203,-0.11328125,21.4375,-0.875,67.0625
393,393,1727404741902,-0.0625,1.4726562,-0.20410156,2.09375,-25.46875,64.0
394,394,1727404741942,-0.04296875,1.3623047,-0.016601562,-30.3125,-30.71875,32.5
395,395,1727404741982,-0.07910156,1.1337891,0.17285156,-59.25,19.65625,-41.09375
396,396,1727404742022,-0.4033203,1.0292969,0.10253906,-85.1875,59.0625,-109.28125
397,397,1727404742062,-0.45410156,0.9980469,-0.35546875,-43.4375,25.5625,-152.625
398,398,1727404742102,0.32910156,1.2294922,-0.25195312,-62.1875,-45.1875,-137.96875
399,399,1727404742142,0.1796875,1.2011719,0.6738281,146.125,168.28125,-152.375
400,400,1727404742182,-0.29589844,1.1650391,-0.1953125,-65.90625,-77.9375,-176.53125
401,401,1727404742222,0.099609375,1.0332031,0.09765625,-9.9375,43.375,-166.28125
402,402,1727404742262,0.078125,0.63964844,0.0625,-2.625,-0.6875,-134.78125
403,403,1727404742302,-0.06347656,0.5058594,0.08691406,-16.53125,-40.84375,-63.5625
404,404,1727404742342,-0.2265625,0.44921875,-0.09472656,-41.375,-56.78125,22.625
405,405,1727404742382,-0.37109375,0.28125,-0.8564453,53.1875,7.1875,99.65625
406,406,1727404742422,0.1875,0.38378906,0.45507812,45.53125,59.0,127.96875
407,407,1727404742462,-1.3515625,2.0,-0.26660156,63.4375,-42.4375,-11.0
408,408,1727404742502,0.111328125,0.44726562,-0.10253906,-33.75,-204.40625,81.21875
409,409,1727404742542,0.6113281,-0.024414062,0.08300781,53.71875,-26.0,79.625
410,410,1727404742582,0.32617188,1.3652344,-0.025390625,53.40625,46.75,96.09375
411,411,1727404742622,-0.45214844,1.3427734,0.0107421875,24.0,80.9375,64.3125
412,412,1727404742662,0.14355469,0.75390625,-0.24902344,8.0625,6.53125,78.53125
413,413,1727404742702,-0.08203125,0.75390625,-0.23242188,-20.1875,-56.84375,94.09375
414,414,1727404742742,-0.2998047,1.0283203,-0.15234375,13.0625,52.84375,57.28125
415,415,1727404742782,-0.34375,1.0839844,-0.13085938,-16.96875,-42.90625,49.09375
416,416,1727404742822,-0.16503906,0.8730469,-0.38085938,-1.03125,-9.28125,7.53125
417,417,1727404742862,0.34277344,1.0839844,-0.22558594,19.71875,10.4375,-5.03125
418,418,1727404742902,0.24707031,1.0205078,-0.22167969,38.84375,37.59375,49.90625
419,419,1727404742942,-0.19238281,1.3066406,-0.07128906,34.5625,46.0,84.4375
420,420,1727404742982,-0.47070312,1.4130859,-0.15820312,-14.46875,-42.90625,91.78125
421,421,1727404743022,-0.0029296875,1.2978516,-0.0703125,-48.5625,-61.53125,33.25
422,422,1727404743062,0.037109375,1.2304688,0.21875,-51.5625,-16.4375,-50.0
423,423,1727404743102,-0.3798828,0.9394531,-0.0234375,-35.375,140.5625,-141.9375
424,424,1727404743142,-0.25585938,1.21875,-0.07519531,-31.0625,54.875,-183.3125
425,425,1727404743182,0.3876953,1.4189453,0.046875,-99.0,4.03125,-145.09375
426,426,1727404743222,0.38378906,1.1503906,0.51464844,-0.125,117.5625,-152.375
427,427,1727404743262,-0.21777344,1.0751953,-0.36328125,-81.53125,-15.875,-151.15625
428,428,1727404743302,-0.12402344,1.1005859,0.23339844,-44.1875,94.21875,-172.9375
429,429,1727404743342,0.21582031,0.375,-0.038085938,-41.0,-4.65625,-131.5625
430,430,1727404743382,-0.032226562,0.34472656,0.06933594,-36.125,-17.15625,-72.34375
431,431,1727404743422,-0.2421875,0.25390625,-0.053710938,-31.78125,-22.53125,0.03125
432,432,1727404743462,-0.3857422,0.12597656,-0.25878906,18.9375,19.34375,69.8125
433,433,1727404743502,-0.8154297,0.63183594,-0.33789062,52.375,47.125,94.09375
434,434,1727404743542,-0.78027344,1.6357422,1.3701172,68.6875,76.90625,104.34375
435,435,1727404743582,-0.030273438,0.88671875,0.34960938,-2.4375,5.375,77.90625
436,436,1727404743622,0.38378906,0.22265625,-0.27441406,12.875,-49.5625,78.09375
437,437,1727404743662,0.0126953125,0.9355469,0.13867188,89.90625,105.09375,89.15625
438,438,1727404743702,-0.16894531,1.4296875,0.036132812,33.8125,67.4375,66.9375
439,439,1727404743742,0.02734375,0.9814453,-0.12207031,11.96875,37.46875,66.875
440,440,1727404743782,0.034179688,0.7939453,-0.25585938,12.46875,14.9375,71.6875
441,441,1727404743822,-0.03125,0.9482422,-0.27734375,17.28125,63.21875,63.375
442,442,1727404743862,0.041015625,1.046875,-0.25195312,35.03125,87.28125,60.875
443,443,1727404743902,-0.14648438,1.0214844,-0.2685547,26.125,64.5,74.6875
444,444,1727404743942,-0.49316406,0.8300781,-0.23339844,34.1875,22.34375,59.71875
445,445,1727404743982,-0.4267578,0.9628906,-0.2841797,29.125,78.375,9.3125
446,446,1727404744022,-0.21875,0.95214844,-0.20800781,49.21875,122.96875,-36.65625
447,447,1727404744062,0.3154297,0.94140625,-0.08886719,46.21875,89.34375,-30.25
448,448,1727404744102,0.21875,1.2460938,-0.099609375,16.90625,65.375,25.90625
449,449,1727404744142,0.08984375,1.0292969,-0.24511719,7.625,72.5625,43.125
450,450,1727404744182,0.017578125,1.1630859,-0.21484375,9.40625,52.1875,69.6875
451,451,1727404744222,0.080078125,1.4580078,-0.12402344,1.0,42.65625,63.3125
452,452,1727404744262,-0.28125,1.2519531,-0.18066406,-19.9375,34.78125,11.3125
453,453,1727404744302,0.03125,1.1386719,-0.14257812,-21.34375,66.875,-78.875
454,454,1727404744342,-0.10449219,1.0576172,-0.17578125,-10.1875,152.71875,-136.5
455,455,1727404744382,-0.46679688,0.92871094,0.043945312,-10.65625,45.40625,-122.9375
456,456,1727404744422,0.32617188,1.0722656,0.068359375,-64.0625,7.5,-150.90625
457,457,1727404744462,0.7011719,1.2773438,0.20019531,-23.3125,147.75,-163.59375
458,458,1727404744502,-0.06542969,1.1914062,0.018554688,9.40625,138.46875,-201.0625
459,459,1727404744542,-0.07421875,0.9707031,-0.30859375,-28.0,102.09375,-187.71875
460,460,1727404744582,-0.23242188,1.0664062,0.018554688,-51.8125,69.28125,-149.4375
461,461,1727404744622,-0.026367188,0.6953125,-0.0048828125,-47.59375,16.90625,-101.90625
462,462,1727404744662,-0.125,0.41015625,-0.025390625,-50.40625,-11.84375,-45.0
463,463,1727404744702,-0.13867188,0.28222656,-0.21484375,-55.46875,-11.3125,16.28125
464,464,1727404744742,-0.5361328,0.35839844,-0.2548828,-34.90625,5.0,46.46875
465,465,1727404744782,-0.49609375,0.70214844,-0.2783203,5.0625,44.125,66.8125
466,466,1727404744822,-0.98535156,1.6982422,-0.20507812,65.125,66.78125,63.6875
467,467,1727404744862,-0.47851562,1.2255859,0.42382812,25.34375,50.40625,70.34375
468,468,1727404744902,0.07714844,0.5419922,-0.140625,-2.75,-93.15625,93.71875
469,469,1727404744942,0.27539062,1.0527344,0.115234375,51.71875,26.25,103.5625
470,470,1727404744982,-0.10644531,1.1298828,0.064453125,34.75,44.5,77.625
471,471,1727404745022,-0.0234375,0.92285156,-0.18945312,5.4375,25.1875,74.6875
472,472,1727404745062,0.041015625,0.7998047,-0.2783203,-11.78125,-14.96875,96.40625
473,473,1727404745102,-0.20605469,0.9482422,-0.16113281,8.125,13.71875,87.8125
474,474,1727404745142,-0.4189453,1.0869141,-0.07421875,34.96875,33.875,77.90625
475,475,1727404745182,-0.18652344,0.92285156,-0.057617188,-18.78125,-78.25,55.5
476,476,1727404745222,-0.028320312,0.74121094,-0.47265625,-9.375,4.375,20.46875
477,477,1727404745262,-0.018554688,1.1005859,0.11425781,29.90625,37.34375,9.5
478,478,1727404745302,0.10058594,0.9736328,-0.33496094,22.78125,27.8125,15.28125
479,479,1727404745342,0.23925781,1.1005859,-0.19921875,25.78125,39.84375,48.5625
480,480,1727404745382,-0.23339844,1.4316406,-0.08886719,8.5625,28.0,63.5
481,481,1727404745422,-0.36132812,1.5205078,-0.07421875,-23.4375,-5.6875,45.875
482,482,1727404745462,0.12011719,1.1582031,0.12207031,-60.46875,-1.96875,-26.875
483,483,1727404745502,-0.28222656,0.98828125,0.1484375,-54.90625,60.28125,-85.34375
484,484,1727404745542,-0.8466797,0.8886719,-0.28027344,-28.96875,83.84375,-146.9375
485,485,1727404745582,0.0703125,1.2773438,0.0107421875,-48.28125,-28.9375,-197.21875
486,486,1727404745622,0.5410156,1.5107422,0.72558594,22.46875,94.96875,-172.5
487,487,1727404745662,0.30371094,1.0537109,-0.28320312,-66.28125,-22.03125,-177.28125
488,488,1727404745702,-0.609375,1.5019531,0.11230469,-38.0,108.15625,-214.5
489,489,1727404745742,0.07714844,0.75683594,0.049804688,-30.375,28.1875,-159.09375
490,490,1727404745782,-0.033203125,0.59472656,0.080078125,-45.75,-35.53125,-95.125
491,491,1727404745822,-0.03125,0.3251953,-0.06640625,-71.71875,-69.34375,8.40625
492,492,1727404745862,-0.2265625,0.15429688,-0.6230469,-3.40625,8.78125,123.375
493,493,1727404745902,-0.43652344,0.3486328,-0.37597656,90.09375,54.4375,153.59375
494,494,1727404745942,-0.73828125,0.6015625,0.83984375,122.03125,80.6875,151.65625
495,495,1727404745982,0.22851562,1.8466797,0.6201172,0.375,50.09375,91.46875
496,496,1727404746022,0.3876953,-0.20117188,-0.19433594,-14.15625,-83.0,75.71875
497,497,1727404746062,0.4736328,0.5175781,0.055664062,45.65625,97.21875,92.25
498,498,1727404746102,-0.060546875,1.9707031,-0.24707031,20.15625,113.46875,104.65625
499,499,1727404746142,-0.049804688,1.0263672,-0.2109375,21.0625,40.875,74.9375
500,500,1727404746182,-0.14550781,0.66796875,-0.3359375,12.09375,-35.96875,97.5625
501,501,1727404746222,-0.27539062,0.8701172,-0.34277344,50.0625,126.34375,59.1875
502,502,1727404746262,-0.22070312,0.99121094,-0.21875,54.46875,145.75,33.0625
503,503,1727404746302,-0.001953125,0.8173828,-0.3232422,25.65625,110.21875,0.09375
504,504,1727404746342,0.11621094,0.89453125,-0.038085938,69.65625,166.0,-2.34375
505,505,1727404746382,0.17773438,1.0244141,-0.091796875,12.28125,46.4375,25.53125
506,506,1727404746422,0.12402344,0.8232422,-0.328125,-10.96875,49.4375,24.3125
507,507,1727404746462,0.20898438,0.8535156,-0.35253906,14.0625,57.71875,19.625
508,508,1727404746502,0.07128906,0.9980469,-0.16015625,4.34375,26.125,33.53125
509,509,1727404746542,-0.021484375,0.9296875,-0.19726562,-0.21875,3.40625,30.3125
510,510,1727404746582,0.07910156,0.94921875,-0.24316406,10.03125,22.21875,17.90625
511,511,1727404746622,0.1796875,1.0039062,-0.16308594,11.1875,2.3125,26.65625
512,512,1727404746662,0.12207031,0.9863281,-0.24804688,14.28125,-37.53125,46.25
513,513,1727404746702,-0.15234375,0.8964844,-0.44726562,19.71875,-26.375,29.8125
514,514,1727404746742,0.08203125,0.9326172,-0.24023438,16.6875,-10.25,-0.03125
515,515,1727404746782,0.053710938,0.98828125,-0.32617188,16.5625,15.1875,-9.5
516,516,1727404746822,0.016601562,1.1650391,-0.23632812,31.25,38.9375,-8.875
517,517,1727404746862,0.022460938,1.1855469,-0.15820312,12.59375,31.3125,-11.75
518,518,1727404746902,0.0146484375,1.0537109,-0.119140625,-8.21875,25.8125,-40.4375
519,519,1727404746942,-0.038085938,1.1884766,-0.0107421875,-81.65625,39.375,-92.0625
520,520,1727404746982,0.07714844,1.21875,-0.12597656,-117.25,58.71875,-137.53125
521,521,1727404747022,0.2939453,1.1376953,-0.08496094,-74.75,92.15625,-157.1875
522,522,1727404747062,0.33398438,1.1064453,0.09863281,-59.6875,120.40625,-161.34375
523,523,1727404747102,0.50878906,1.4853516,0.052734375,-44.84375,123.90625,-107.03125
524,524,1727404747142,0.103515625,0.8925781,-0.15332031,-39.125,25.6875,-64.84375
525,525,1727404747182,-0.12402344,0.77441406,-0.20507812,-26.40625,2.25,-73.03125
526,526,1727404747222,0.01171875,0.72558594,-0.14160156,-5.0625,28.875,-75.78125
527,527,1727404747262,0.10253906,0.6171875,-0.059570312,-20.375,-36.5,-23.21875
528,528,1727404747302,0.140625,0.43945312,-0.024414062,-8.28125,-57.375,41.53125
529,529,1727404747342,0.06738281,0.52734375,0.0625,17.96875,-51.34375,111.0
530,530,1727404747382,-0.49902344,1.6796875,0.578125,-18.40625,-64.59375,115.09375
531,531,1727404747422,-2.0,1.7119141,0.49414062,49.15625,88.0625,-106.46875
532,532,1727404747462,0.11230469,0.80859375,0.057617188,30.40625,-31.375,-50.375
533,533,1727404747502,0.47070312,0.57910156,-0.33007812,18.4375,-8.6875,17.84375
534,534,1727404747542,0.41015625,2.0,1.2431641,-51.5625,73.3125,84.8125
535,535,1727404747582,-0.48535156,1.6455078,-0.3779297,-54.25,-91.8125,-0.09375
536,536,1727404747622,0.81152344,0.27734375,-0.31347656,30.96875,-5.4375,4.71875
537,537,1727404747662,0.7060547,0.6953125,-0.32421875,129.71875,145.5,40.1875
538,538,1727404747702,0.13964844,1.3173828,-0.10546875,94.4375,101.3125,86.09375
539,539,1727404747742,-0.025390625,0.8095703,-0.3046875,-12.3125,-43.78125,60.9375
540,540,1727404747782,-0.11621094,0.96484375,-0.43945312,36.9375,-7.34375,47.8125
541,541,1727404747822,-0.203125,0.87890625,-0.39941406,66.21875,-4.03125,47.59375
542,542,1727404747862,0.2861328,0.92089844,-0.265625,56.96875,52.96875,17.5
543,543,1727404747902,0.45410156,0.95703125,0.0,35.40625,48.03125,47.15625
544,544,1727404747942,-0.37597656,0.9560547,-0.3701172,13.375,78.125,31.53125
545,545,1727404747982,0.0087890625,0.98339844,-0.3466797,37.90625,53.9375,13.71875
546,546,1727404748022,0.12792969,0.94921875,-0.18359375,26.8125,-14.34375,33.84375
547,547,1727404748062,-0.2734375,0.953125,-0.35253906,19.71875,33.1875,24.75
548,548,1727404748102,-0.07128906,0.99902344,-0.28710938,7.15625,23.0,6.5625
549,549,1727404748142,0.078125,1.0644531,-0.2548828,-4.375,23.8125,-0.40625
550,550,1727404748182,-0.1328125,1.0810547,-0.31347656,-15.1875,52.90625,-8.75
551,551,1727404748222,-0.18261719,1.1523438,-0.009765625,-31.78125,39.71875,-42.25
552,552,1727404748262,-0.07324219,1.2080078,-0.056640625,-88.71875,38.5625,-88.21875
553,553,1727404748302,0.1015625,1.2695312,0.0625,-148.625,58.34375,-154.75
554,554,1727404748342,0.49902344,1.2041016,-0.14453125,-99.78125,118.40625,-184.90625
555,555,1727404748382,0.74121094,1.3867188,0.15332031,-36.3125,143.96875,-150.71875
556,556,1727404748422,0.12109375,0.9003906,-0.14746094,-19.65625,125.53125,-46.15625
557,557,1727404748462,-0.60058594,1.0527344,-0.0126953125,-4.3125,-4.71875,-50.3125
558,558,1727404748502,0.048828125,0.85253906,-0.061523438,-7.0,-2.25,-92.0625
559,559,1727404748542,0.24707031,0.65527344,-0.15136719,4.84375,-40.65625,-64.0625
560,560,1727404748582,0.35742188,0.4794922,-0.1875,-8.84375,-56.46875,-7.59375
561,561,1727404748622,0.26367188,0.39941406,0.0703125,14.53125,-33.28125,59.46875
562,562,1727404748662,0.10546875,0.8925781,0.14160156,29.78125,-57.125,109.96875
563,563,1727404748702,-0.7705078,1.7509766,0.23144531,34.375,24.46875,89.09375
564,564,1727404748742,-1.3632812,1.0117188,0.13671875,58.46875,68.0,19.875
565,565,1727404748782,-0.48632812,0.9707031,0.12988281,12.46875,102.84375,-37.0
566,566,1727404748822,0.5683594,0.8886719,0.0,37.25,-1.28125,14.75
567,567,1727404748862,0.0126953125,1.2207031,-0.0087890625,-52.46875,-144.28125,69.3125
568,568,1727404748902,-0.3857422,1.9208984,0.13378906,42.3125,137.4375,-5.28125
569,569,1727404748942,0.049804688,0.8457031,-0.29785156,35.46875,116.75,3.5625
570,570,1727404748982,-0.06347656,1.015625,-0.26367188,3.5625,49.5,26.15625
571,571,1727404749022,-0.23535156,1.0302734,-0.15625,14.125,34.90625,25.53125
572,572,1727404749062,0.030273438,0.9296875,-0.23046875,11.59375,32.28125,18.53125
573,573,1727404749102,0.02734375,0.93359375,-0.18261719,11.53125,25.5,17.4375
574,574,1727404749142,0.07128906,0.94628906,-0.24414062,6.125,27.09375,22.25
575,575,1727404749182,0.095703125,0.9111328,-0.21679688,11.4375,38.6875,27.9375
576,576,1727404749222,0.109375,0.9091797,-0.328125,18.4375,38.3125,34.28125
577,577,1727404749262,0.080078125,0.97558594,-0.3017578,16.5,42.28125,34.875
578,578,1727404749302,0.07714844,1.0009766,-0.34570312,10.15625,36.75,22.6875
579,579,1727404749342,0.11328125,1.3837891,-0.3017578,16.1875,46.25,-0.6875
580,580,1727404749382,0.08300781,1.4873047,-0.25585938,7.15625,90.375,-29.09375
581,581,1727404749422,0.10839844,1.4677734,-0.07910156,-26.96875,98.3125,-48.5
582,582,1727404749462,0.09472656,1.1357422,-0.0048828125,-71.34375,106.6875,-88.21875
583,583,1727404749502,0.038085938,1.2050781,0.06347656,-97.28125,99.25,-120.09375
584,584,1727404749542,-0.0234375,0.9375,-0.06640625,-80.5625,135.25,-133.5
585,585,1727404749582,0.103515625,1.0185547,0.055664062,-48.28125,61.8125,-114.90625
586,586,1727404749622,0.26171875,0.9873047,-0.040039062,-47.40625,114.9375,-104.75
587,587,1727404749662,0.08300781,0.9589844,-0.16210938,16.1875,74.625,-97.0625
588,588,1727404749702,-0.5341797,1.0957031,0.24414062,-37.90625,73.0625,-158.40625
589,589,1727404749742,-0.203125,0.83203125,-0.028320312,-31.125,29.46875,-136.5625
590,590,1727404749782,-0.18847656,0.8310547,0.09765625,-42.96875,1.9375,-113.78125
591,591,1727404749822,-0.09667969,0.67871094,0.10839844,-34.71875,-23.03125,-82.5
592,592,1727404749862,-0.11425781,0.45410156,0.049804688,-27.9375,-30.46875,-40.25
593,593,1727404749902,-0.18261719,0.3828125,0.064453125,-20.25,-11.25,0.71875
594,594,1727404749942,-0.38671875,0.48632812,0.01953125,-13.84375,-3.78125,25.53125
595,595,1727404749982,-0.5595703,0.5390625,-0.1015625,15.4375,28.75,27.125
596,596,1727404750022,-0.58691406,0.8095703,-0.024414062,56.78125,50.46875,32.6875
597,597,1727404750062,-0.5878906,0.98828125,0.171875,42.1875,-2.8125,55.5625
598,598,1727404750102,-1.7578125,2.0,0.095703125,6.46875,6.59375,-41.59375
599,599,1727404750142,-0.16015625,0.6767578,0.35742188,-16.78125,-13.875,33.84375
600,600,1727404750182,-0.25195312,0.83203125,-0.12890625,6.0,-6.53125,84.875
601,601,1727404750222,-0.32910156,1.4638672,-0.024414062,37.96875,32.90625,100.0
602,602,1727404750262,-0.45507812,1.0712891,0.06738281,25.46875,9.5625,89.625
603,603,1727404750302,0.0048828125,0.9589844,-0.07519531,14.34375,-13.125,74.3125
604,604,1727404750342,0.09375,0.86816406,-0.08105469,50.71875,16.84375,94.15625
605,605,1727404750382,0.036132812,0.8105469,-0.12597656,42.90625,42.09375,90.4375
606,606,1727404750422,-0.024414062,1.0009766,-0.095703125,36.75,26.25,70.09375
607,607,1727404750462,0.02734375,0.93359375,-0.17773438,16.1875,18.0,68.625
608,608,1727404750502,-0.28027344,1.0664062,-0.23144531,9.46875,-8.25,75.65625
609,609,1727404750542,-0.17578125,0.89746094,-0.1953125,55.84375,51.5,41.0625
610,610,1727404750582,-0.10253906,0.85546875,-0.07128906,42.5,63.65625,17.5625
611,611,1727404750622,0.020507812,0.9199219,-0.083984375,17.71875,37.15625,10.28125
612,612,1727404750662,-0.032226562,0.9267578,-0.18066406,6.96875,6.53125,15.59375
613,613,1727404750702,-0.0390625,1.0009766,-0.16894531,9.15625,25.125,12.375
614,614,1727404750742,-0.06542969,0.9316406,-0.20019531,8.6875,5.125,15.96875
615,615,1727404750782,0.0146484375,1.0166016,-0.09082031,4.59375,-5.4375,20.71875
616,616,1727404750822,0.044921875,0.92089844,-0.21484375,-2.625,-6.28125,13.71875
617,617,1727404750862,0.18554688,0.95996094,-0.21582031,2.9375,10.75,6.6875
618,618,1727404750902,0.25097656,1.0625,-0.24707031,15.40625,34.90625,12.78125
619,619,1727404750942,0.15429688,1.0722656,-0.41503906,11.125,25.5625,33.125
620,620,1727404750982,0.3720703,1.2910156,-0.2783203,8.5625,-11.0625,39.875
621,621,1727404751022,0.01171875,1.4833984,-0.26464844,-11.65625,-15.3125,22.3125
622,622,1727404751062,-0.018554688,1.2753906,0.056640625,-35.03125,15.625,-20.15625
623,623,1727404751102,-0.23144531,1.0888672,0.041992188,-60.40625,66.03125,-73.625
624,624,1727404751142,-0.5205078,0.9589844,-0.22949219,-39.28125,69.28125,-124.125
625,625,1727404751182,-0.047851562,1.1269531,-0.076171875,-30.03125,2.3125,-150.59375
626,626,1727404751222,0.4501953,1.4453125,0.15429688,-65.46875,59.375,-150.71875
627,627,1727404751262,0.32128906,1.2158203,0.30664062,-22.75,55.90625,-125.46875
628,628,1727404751302,-0.171875,1.1757812,-0.03515625,-84.03125,27.09375,-173.78125
629,629,1727404751342,0.060546875,0.9345703,0.08691406,-70.25,71.71875,-163.90625
630,630,1727404751382,-0.033203125,0.72558594,-0.0029296875,-71.65625,39.84375,-131.4375
631,631,1727404751422,-0.0546875,0.5253906,0.0,-65.71875,-5.5625,-96.59375
632,632,1727404751462,-0.10253906,0.20898438,-0.072265625,-70.3125,-27.21875,-31.53125
633,633,1727404751502,-0.25878906,0.20410156,-0.15917969,-37.28125,-4.875,18.21875
634,634,1727404751542,-0.54589844,0.38671875,0.076171875,-3.96875,26.84375,36.78125
635,635,1727404751582,-0.9316406,0.7265625,-0.020507812,14.84375,33.0625,36.40625
636,636,1727404751622,-0.5566406,0.828125,0.15722656,35.40625,21.65625,70.03125
637,637,1727404751662,-1.1699219,2.0,0.5810547,29.3125,43.8125,27.5
638,638,1727404751702,-0.23242188,0.6123047,0.31933594,-1.34375,-1.90625,49.84375
639,639,1727404751742,-0.09863281,0.63378906,0.03515625,18.8125,11.15625,84.3125
640,640,1727404751782,-0.07714844,1.4746094,-0.018554688,54.03125,51.25,105.6875
641,641,1727404751822,-0.25195312,0.9794922,0.051757812,42.0,38.375,89.6875
642,642,1727404751862,0.017578125,0.9013672,-0.15820312,35.40625,21.53125,77.5625
643,643,1727404751902,-0.0546875,0.95996094,-0.2578125,52.1875,5.25,89.4375
644,644,1727404751942,-0.048828125,0.9785156,-0.14355469,52.75,36.75,69.1875
645,645,1727404751982,-0.080078125,0.9951172,-0.061523438,55.5625,31.0625,43.0625
646,646,1727404752022,-0.0146484375,0.8535156,-0.13671875,45.78125,14.875,27.8125
647,647,1727404752062,0.009765625,0.953125,-0.18457031,23.8125,12.375,24.25
648,648,1727404752102,0.052734375,0.93652344,-0.21191406,32.125,87.09375,21.40625
649,649,1727404752142,-0.15429688,0.93847656,-0.23632812,35.96875,80.6875,19.5625
650,650,1727404752182,-0.32226562,1.0478516,-0.19335938,20.28125,10.1875,23.03125
651,651,1727404752222,-0.05859375,1.0029297,-0.17675781,4.65625,51.8125,-2.53125
652,652,1727404752262,0.049804688,0.8984375,-0.2607422,24.375,70.0,-8.5
653,653,1727404752302,0.17871094,0.97265625,-0.20019531,19.71875,54.125,5.03125
654,654,1727404752342,-0.08203125,0.94140625,-0.25195312,7.53125,46.5,21.15625
655,655,1727404752382,0.07421875,0.9550781,-0.23242188,2.4375,43.5,15.53125
656,656,1727404752422,-0.048828125,0.9472656,-0.31152344,-1.03125,40.9375,10.53125
657,657,1727404752462,0.07910156,0.9199219,-0.3017578,6.65625,47.125,3.03125
658,658,1727404752502,0.2607422,0.93847656,-0.25976562,6.34375,45.03125,14.8125
659,659,1727404752542,0.3828125,1.0693359,-0.31347656,4.03125,57.96875,32.4375
660,660,1727404752582,0.29882812,1.1279297,-0.38476562,-0.59375,47.84375,52.71875
661,661,1727404752622,0.2607422,1.2109375,-0.296875,-7.375,-21.5625,60.875
662,662,1727404752662,-0.0126953125,1.3535156,-0.28320312,-0.40625,-15.6875,42.9375
663,663,1727404752702,-0.11035156,1.2373047,-0.22949219,-2.84375,30.875,-7.71875
664,664,1727404752742,-0.0146484375,1.0771484,-0.13867188,-11.28125,76.46875,-60.4375
665,665,1727404752782,-0.053710938,0.9501953,-0.10839844,-41.5,123.59375,-116.53125
666,666,1727404752822,-0.3173828,0.95996094,-0.14257812,-19.8125,119.1875,-135.09375
667,667,1727404752862,-0.30566406,1.1474609,0.2890625,0.875,-16.96875,-132.65625
668,668,1727404752902,0.3671875,1.0380859,-0.02734375,-59.1875,-1.90625,-141.9375
669,669,1727404752942,0.49121094,1.0419922,-0.10253906,-69.375,40.21875,-109.15625
670,670,1727404752982,-0.064453125,1.1025391,-0.65625,-35.15625,-171.15625,-85.0625
671,671,1727404753022,-0.18164062,1.1621094,0.46777344,10.8125,151.1875,-158.28125
672,672,1727404753062,0.068359375,1.0234375,-0.076171875,-42.78125,5.5,-126.90625
673,673,1727404753102,0.00390625,0.8378906,0.15527344,-2.625,41.5625,-110.6875
674,674,1727404753142,-0.14550781,0.73339844,-0.12011719,-13.28125,-0.125,-81.21875
675,675,1727404753182,-0.18066406,0.5175781,-0.00390625,-24.03125,-18.125,-31.75
676,676,1727404753222,-0.28808594,0.3955078,-0.036132812,-19.28125,-20.5,6.6875
677,677,1727404753262,-0.4404297,0.41015625,-0.21875,16.125,13.46875,24.6875
678,678,1727404753302,-0.3701172,0.83496094,0.0146484375,15.875,15.0625,46.78125
679,679,1727404753342,-0.7519531,1.4072266,0.41992188,7.21875,-2.03125,66.9375
680,680,1727404753382,-0.33984375,1.4072266,0.043945312,-8.59375,-8.0,38.5
681,681,1727404753422,-0.23535156,0.75390625,-0.23144531,-2.375,-45.71875,71.125
682,682,1727404753462,0.00390625,1.1083984,-0.1328125,53.40625,12.1875,104.03125
683,683,1727404753502,-0.45996094,1.1757812,-0.061523438,53.78125,8.40625,88.09375
684,684,1727404753542,-0.030273438,0.9951172,-0.06347656,31.75,-14.46875,67.78125
685,685,1727404753582,0.09667969,0.8417969,-0.07324219,31.875,-15.3125,87.875
686,686,1727404753622,0.07519531,0.8046875,-0.1796875,25.65625,-4.46875,73.09375
687,687,1727404753662,0.068359375,0.9199219,-0.1640625,24.71875,41.5,71.25
688,688,1727404753702,-0.111328125,1.1826172,-0.23632812,36.75,76.46875,73.53125
689,689,1727404753742,-0.37890625,0.8544922,-0.20605469,6.78125,-29.1875,67.125
690,690,1727404753782,-0.27441406,0.7675781,-0.29589844,-7.3125,17.4375,14.75
691,691,1727404753822,0.107421875,0.8964844,-0.23242188,32.0,40.34375,2.28125
692,692,1727404753862,0.19824219,0.97558594,-0.08691406,21.8125,60.78125,10.09375
693,693,1727404753902,0.0029296875,0.91308594,-0.22363281,6.53125,25.8125,22.4375
694,694,1727404753942,-0.0546875,0.98339844,-0.21582031,6.34375,37.21875,9.0
695,695,1727404753982,0.0029296875,1.0068359,-0.203125,5.8125,34.65625,6.75
696,696,1727404754022,0.08496094,1.0400391,-0.27441406,3.625,15.3125,30.3125
697,697,1727404754062,0.25683594,1.1826172,-0.2529297,4.34375,2.9375,57.78125
698,698,1727404754102,0.14648438,1.4355469,-0.3388672,-5.40625,-23.875,53.25
699,699,1727404754142,0.103515625,1.4160156,-0.059570312,-34.65625,-11.78125,15.59375
700,700,1727404754182,0.0068359375,1.1953125,0.109375,-57.53125,39.46875,-43.0
701,701,1727404754222,-0.32617188,0.96972656,0.0625,-72.5625,99.46875,-103.46875
702,702,1727404754262,-0.5488281,1.0009766,-0.32421875,-17.5,81.34375,-142.0
703,703,1727404754302,0.16601562,1.1240234,-0.044921875,-36.5,-31.0625,-142.96875
704,704,1727404754342,0.5644531,1.1337891,-0.029296875,-41.90625,50.03125,-117.09375
705,705,1727404754382,0.07714844,0.9453125,0.17871094,16.5625,19.65625,-88.28125
706,706,1727404754422,-0.7011719,1.3398438,-0.040039062,-51.4375,-41.28125,-149.9375
707,707,1727404754462,0.25878906,0.7392578,0.080078125,-16.90625,29.28125,-134.375
708,708,1727404754502,0.02734375,0.671875,-0.017578125,-14.5625,3.96875,-103.46875
709,709,1727404754542,-0.09277344,0.7080078,0.080078125,-12.75,-2.6875,-69.84375
710,710,1727404754582,-0.13964844,0.4765625,-0.01171875,-25.0625,-19.0,-24.1875
711,711,1727404754622,-0.203125,0.42773438,-0.10546875,-3.15625,-2.09375,9.96875
712,712,1727404754662,-0.48046875,0.6220703,-0.0546875,18.9375,12.1875,22.96875
713,713,1727404754702,-0.5839844,0.8330078,-0.099609375,21.625,13.90625,36.15625
714,714,1727404754742,-0.3828125,1.0605469,0.015625,23.3125,21.1875,68.5
715,715,1727404754782,-1.1240234,1.828125,-0.23632812,56.84375,22.8125,35.96875
716,716,1727404754822,-0.41308594,1.1308594,-0.03515625,13.25,-79.15625,72.71875
717,717,1727404754862,-0.016601562,0.7949219,-0.036132812,55.90625,-53.21875,85.0
718,718,1727404754902,-0.045898438,1.1455078,0.036132812,56.28125,-16.375,88.53125
719,719,1727404754942,-0.022460938,1.0126953,0.0009765625,47.5,-5.5,85.125
720,720,1727404754982,-0.044921875,0.8652344,-0.09277344,15.8125,-40.65625,65.71875
721,721,1727404755022,0.11328125,0.8339844,-0.22558594,15.8125,-10.375,60.09375
722,722,1727404755062,0.19238281,0.9033203,-0.19726562,21.1875,42.15625,72.1875
723,723,1727404755102,-0.17382812,1.2802734,-0.29882812,18.125,92.875,83.34375
724,724,1727404755142,-0.38183594,0.80371094,-0.37304688,-5.0625,-98.40625,69.96875
725,725,1727404755182,-0.0546875,0.8798828,0.0146484375,56.53125,95.09375,20.25
726,726,1727404755222,0.09765625,0.8574219,-0.16210938,-12.125,-17.84375,18.34375
727,727,1727404755262,0.14453125,0.9169922,-0.18261719,10.5625,25.8125,21.09375
728,728,1727404755302,0.040039062,0.97558594,-0.21289062,3.90625,22.8125,17.0
729,729,1727404755342,-0.07324219,0.97265625,-0.22949219,4.46875,40.875,11.15625
730,730,1727404755382,-0.0068359375,1.1123047,-0.2548828,-3.28125,13.46875,24.5625
731,731,1727404755422,0.20996094,1.1425781,-0.22363281,-4.09375,4.4375,39.65625
732,732,1727404755462,0.11425781,1.3876953,-0.3251953,-6.875,-16.1875,45.25
733,733,1727404755502,0.044921875,1.3984375,0.01171875,-31.78125,-7.03125,7.84375
734,734,1727404755542,-0.04296875,1.2431641,0.083984375,-52.46875,36.96875,-40.375
735,735,1727404755582,-0.23828125,0.9794922,0.0,-67.25,84.53125,-93.15625
736,736,1727404755622,-0.61816406,0.9326172,-0.099609375,-40.46875,24.65625,-127.71875
737,737,1727404755662,-0.07910156,1.1386719,-0.14257812,-34.03125,-67.75,-141.375
738,738,1727404755702,0.43066406,1.1533203,-0.23828125,-34.28125,24.15625,-117.65625
739,739,1727404755742,0.038085938,1.0400391,0.06933594,70.3125,41.75,-94.625
740,740,1727404755782,-0.22070312,1.1943359,0.06933594,-54.625,-84.96875,-155.3125
741,741,1727404755822,0.16113281,0.8222656,-0.061523438,-6.59375,-15.875,-134.4375
742,742,1727404755862,0.09667969,0.7001953,0.02734375,0.25,-6.71875,-106.59375
743,743,1727404755902,-0.08105469,0.7285156,0.06347656,3.125,-4.59375,-74.375
744,744,1727404755942,-0.095703125,0.5371094,0.036132812,-0.46875,-19.125,-29.5625
745,745,1727404755982,-0.22949219,0.49804688,-0.07519531,-5.78125,-18.875,7.59375
746,746,1727404756022,-0.40625,0.53027344,-0.22558594,27.84375,11.84375,28.59375
747,747,1727404756062,-0.5419922,0.80859375,-0.13671875,29.375,27.9375,48.5625
748,748,1727404756102,-1.2099609,1.8789062,-0.18261719,50.25,39.96875,32.375
749,749,1727404756142,-0.5751953,1.4462891,-0.27148438,-9.03125,-85.5625,80.125
750,750,1727404756182,-0.15917969,0.69433594,-0.055664062,34.875,-30.40625,90.4375
751,751,1727404756222,-0.115234375,1.2021484,-0.11621094,38.15625,-10.4375,100.3125
752,752,1727404756262,-0.17382812,0.94628906,0.06738281,20.6875,-9.28125,75.71875
753,753,1727404756302,0.07910156,0.9033203,-0.123046875,24.71875,-21.25,63.6875
754,754,1727404756342,0.005859375,0.7167969,-0.21679688,35.78125,9.6875,77.96875
755,755,1727404756382,-0.045898438,1.0068359,-0.0703125,40.0625,85.1875,68.625
756,756,1727404756422,0.0146484375,0.96484375,-0.17480469,17.84375,45.34375,84.6875
757,757,1727404756462,-0.32714844,1.0927734,-0.265625,-61.03125,-76.96875,75.03125
758,758,1727404756502,-0.36621094,0.7783203,-0.32910156,8.5,-7.15625,46.40625
759,759,1727404756542,-0.0029296875,0.88671875,-0.07421875,42.90625,43.375,12.0625
