,Unnamed: 0,timestamp,accel_x,accel_y,accel_z,gyro_x,gyro_y,gyro_z
0,0,1727960992341,-1.0058594,-0.171875,-0.046875,-17.03125,10.40625,12.9375
1,1,1727960992381,-1.1240234,-0.20996094,-0.055664062,-20.53125,9.875,9.25
2,2,1727960992421,-1.1943359,-0.30566406,-0.0546875,-22.28125,1.28125,10.71875
3,3,1727960992461,-1.1787109,-0.21191406,-0.0546875,-8.6875,2.4375,6.9375
4,4,1727960992501,-1.15625,-0.21875,-0.072265625,-9.21875,6.21875,3.53125
5,5,1727960992541,-1.1513672,-0.19628906,-0.123046875,-2.03125,8.53125,10.84375
6,6,1727960992581,-1.1279297,-0.08105469,-0.125,3.21875,9.375,14.5
7,7,1727960992621,-1.1015625,0.036132812,-0.13964844,0.28125,0.0,12.625
8,8,1727960992661,-1.0410156,0.0703125,-0.13964844,-8.1875,-13.0625,14.625
9,9,1727960992701,-1.0244141,0.08105469,-0.12109375,-15.09375,-33.9375,8.71875
10,10,1727960992741,-0.9091797,0.016601562,-0.12792969,-4.09375,-38.71875,9.9375
11,11,1727960992781,-0.9716797,-0.04296875,-0.07714844,-0.125,-29.375,9.5
12,12,1727960992821,-1.0039062,0.08105469,-0.032226562,6.40625,-36.09375,17.0625
13,13,1727960992861,-0.98046875,-0.001953125,0.0546875,-5.03125,-28.8125,13.71875
14,14,1727960992901,-0.97558594,0.017578125,0.07910156,-7.875,-38.65625,11.40625
15,15,1727960992941,-0.8378906,-0.0107421875,0.07910156,-5.875,-47.8125,11.8125
16,16,1727960992981,-0.87109375,-0.0234375,0.119140625,7.84375,-51.78125,11.8125
17,17,1727960993021,-0.81152344,0.026367188,0.14746094,6.75,-30.09375,5.90625
18,18,1727960993061,-0.9326172,0.037109375,0.14550781,9.75,-29.625,5.90625
19,19,1727960993101,-0.89160156,0.034179688,0.20800781,9.3125,-23.09375,7.90625
20,20,1727960993141,-0.8847656,0.017578125,0.23925781,3.9375,-11.90625,1.3125
21,21,1727960993181,-0.90625,0.0,0.22949219,11.875,-7.65625,3.90625
22,22,1727960993221,-0.921875,-0.026367188,0.2705078,12.25,1.8125,-1.78125
23,23,1727960993261,-0.89160156,-0.0107421875,0.23828125,21.09375,2.84375,-5.5625
24,24,1727960993301,-0.9404297,0.0234375,0.27734375,21.09375,2.5625,-6.0
25,25,1727960993341,-0.93359375,0.028320312,0.25195312,15.65625,3.53125,-7.09375
26,26,1727960993381,-0.94140625,0.020507812,0.28320312,17.75,10.71875,-1.40625
27,27,1727960993421,-1.0195312,0.083984375,0.28027344,12.375,0.21875,-2.34375
28,28,1727960993461,-1.0322266,-0.07421875,0.2998047,6.03125,2.84375,5.34375
29,29,1727960993501,-0.92578125,0.02734375,0.26464844,19.09375,-1.84375,-0.25
30,30,1727960993541,-1.0966797,0.047851562,0.18652344,25.5625,3.09375,-4.28125
31,31,1727960993581,-1.2148438,0.08105469,0.23925781,25.5,2.3125,-5.09375
32,32,1727960993621,-1.2294922,0.08496094,0.23535156,11.40625,0.71875,-10.8125
33,33,1727960993661,-1.2734375,0.06738281,0.22949219,2.90625,15.5,-18.15625
34,34,1727960993701,-1.0917969,0.08105469,0.14453125,0.34375,28.375,-12.40625
35,35,1727960993741,-0.95996094,0.045898438,0.001953125,5.90625,29.34375,-11.125
36,36,1727960993781,-0.9892578,0.024414062,-0.052734375,4.6875,22.09375,-16.4375
37,37,1727960993821,-0.9296875,-0.0048828125,-0.061523438,-0.375,20.96875,-16.375
38,38,1727960993861,-0.921875,0.0390625,0.0048828125,-5.5,25.4375,-20.875
39,39,1727960993901,-0.9580078,-0.030273438,0.029296875,-25.15625,15.125,-29.875
40,40,1727960993941,-0.890625,-0.083984375,0.051757812,-35.34375,8.96875,-34.1875
41,41,1727960993981,-0.81347656,-0.061523438,-0.009765625,-27.1875,11.34375,-28.09375
42,42,1727960994021,-0.8955078,-0.119140625,-0.013671875,-27.84375,12.0,-28.75
43,43,1727960994061,-0.95214844,-0.15234375,-0.025390625,-25.84375,5.84375,-28.34375
44,44,1727960994101,-0.87597656,-0.13378906,0.0068359375,-15.6875,1.9375,-19.4375
45,45,1727960994141,-0.8886719,-0.14257812,0.030273438,-13.875,1.09375,-22.46875
46,46,1727960994181,-1.0869141,-0.20898438,-0.028320312,-9.96875,2.78125,-20.34375
47,47,1727960994221,-1.0019531,-0.22851562,0.051757812,-7.34375,-4.84375,-11.84375
48,48,1727960994261,-0.9746094,-0.11621094,-0.028320312,-0.625,-1.71875,-0.5625
49,49,1727960994301,-0.93652344,-0.15527344,0.041992188,-9.59375,1.9375,7.8125
50,50,1727960994341,-0.9277344,-0.22167969,0.06933594,-15.75,6.09375,6.34375
51,51,1727960994381,-0.9980469,-0.24414062,0.024414062,-16.6875,6.40625,6.03125
52,52,1727960994421,-0.9785156,-0.22851562,0.036132812,-11.90625,7.75,9.5
53,53,1727960994461,-0.890625,-0.23632812,0.07519531,-14.0625,7.0625,10.0625
54,54,1727960994501,-1.0400391,-0.23828125,0.0068359375,-4.90625,14.09375,7.5625
55,55,1727960994541,-0.9580078,-0.14648438,0.068359375,0.34375,11.9375,-4.65625
56,56,1727960994581,-1.0615234,-0.17773438,0.01953125,-16.6875,12.3125,-5.4375
57,57,1727960994621,-1.1650391,-0.29492188,-0.0390625,-8.9375,13.53125,0.90625
58,58,1727960994661,-1.2304688,-0.24902344,-0.001953125,-4.34375,11.65625,-7.59375
59,59,1727960994701,-1.2871094,-0.19140625,-0.078125,-3.5625,10.65625,-1.90625
60,60,1727960994741,-1.2490234,-0.19140625,-0.11328125,-7.65625,6.5,10.71875
61,61,1727960994781,-1.1748047,-0.107421875,-0.16113281,-4.71875,1.75,18.125
62,62,1727960994821,-1.0966797,0.08984375,-0.13671875,-7.46875,-2.28125,21.34375
63,63,1727960994861,-1.0351562,0.01171875,-0.1015625,-22.96875,-16.1875,21.15625
64,64,1727960994901,-0.9238281,-0.0087890625,-0.08691406,-16.3125,-33.40625,20.8125
65,65,1727960994941,-0.9560547,-0.06640625,-0.034179688,-3.0625,-19.90625,18.34375
66,66,1727960994981,-1.0068359,-0.061523438,0.00390625,0.46875,-28.34375,17.0
67,67,1727960995021,-0.88671875,0.00390625,-0.001953125,7.84375,-43.71875,15.65625
68,68,1727960995061,-0.9345703,-0.030273438,0.05859375,8.40625,-36.09375,15.625
69,69,1727960995101,-0.921875,0.022460938,0.044921875,4.125,-41.53125,11.53125
70,70,1727960995141,-0.85546875,0.043945312,0.07910156,5.28125,-47.1875,14.3125
71,71,1727960995181,-0.93359375,-0.025390625,0.12988281,2.0625,-26.4375,11.9375
72,72,1727960995221,-0.8886719,-0.0107421875,0.12890625,-3.4375,-14.46875,5.78125
73,73,1727960995261,-0.9326172,-0.033203125,0.15527344,1.9375,-9.46875,8.46875
74,74,1727960995301,-1.0390625,0.036132812,0.18945312,-1.0,-12.78125,4.5625
75,75,1727960995341,-0.92578125,0.021484375,0.22851562,-1.46875,-14.46875,10.0625
76,76,1727960995381,-0.9296875,0.036132812,0.2265625,1.28125,-12.96875,9.125
77,77,1727960995421,-0.8847656,-0.020507812,0.25,2.59375,-11.5625,4.125
78,78,1727960995461,-0.8457031,-0.024414062,0.20800781,6.5,-4.53125,-3.5625
79,79,1727960995501,-0.921875,0.01953125,0.24511719,13.21875,-1.53125,-2.09375
80,80,1727960995541,-0.9589844,0.0048828125,0.25585938,10.0625,5.78125,-4.90625
81,81,1727960995581,-0.9667969,0.001953125,0.2890625,10.71875,11.8125,-4.28125
82,82,1727960995621,-1.0576172,0.08886719,0.26660156,10.25,9.6875,0.78125
83,83,1727960995661,-0.9794922,-0.02734375,0.25683594,-0.0625,16.46875,3.34375
84,84,1727960995701,-1.0605469,0.033203125,0.23925781,13.15625,4.0625,-5.25
85,85,1727960995741,-1.1308594,0.111328125,0.27246094,10.90625,4.0,-2.21875
86,86,1727960995781,-1.2490234,0.06542969,0.30273438,0.65625,11.9375,-1.59375
87,87,1727960995821,-1.3037109,0.09375,0.30078125,-3.5625,15.375,-1.125
88,88,1727960995861,-1.2998047,0.064453125,0.24316406,-6.96875,20.75,3.46875
89,89,1727960995901,-1.0576172,-0.030273438,0.056640625,-0.5,20.6875,-0.5625
90,90,1727960995941,-0.88378906,-0.024414062,-0.08105469,11.8125,30.5,-8.25
91,91,1727960995981,-0.92578125,0.051757812,-0.09082031,11.71875,34.21875,-15.15625
92,92,1727960996021,-0.93066406,0.06933594,-0.1015625,11.15625,33.4375,-17.46875
93,93,1727960996061,-0.9667969,0.08203125,-0.0107421875,3.46875,22.3125,-25.40625
94,94,1727960996101,-0.9277344,0.015625,-0.009765625,-10.03125,16.71875,-30.90625
95,95,1727960996141,-0.95214844,-0.072265625,-0.0087890625,-11.71875,11.34375,-31.375
96,96,1727960996181,-0.8486328,-0.046875,-0.0146484375,-11.0,6.875,-32.25
97,97,1727960996221,-0.89941406,-0.072265625,-0.06542969,-11.4375,9.1875,-28.34375
98,98,1727960996261,-0.91503906,-0.0859375,-0.02734375,-9.71875,7.4375,-24.375
99,99,1727960996301,-0.9580078,-0.109375,-0.056640625,-12.03125,1.9375,-22.59375
100,100,1727960996341,-0.9628906,-0.13574219,-0.025390625,-10.21875,1.375,-17.90625
101,101,1727960996381,-0.9716797,-0.19921875,-0.026367188,-7.875,0.40625,-14.34375
102,102,1727960996421,-0.9550781,-0.14257812,-0.01171875,-4.15625,-1.53125,-10.09375
103,103,1727960996461,-0.9707031,-0.16113281,0.036132812,-10.09375,-1.0,-3.6875
104,104,1727960996501,-0.93359375,-0.12890625,0.036132812,-14.1875,-0.3125,-1.78125
105,105,1727960996541,-0.99316406,-0.2109375,0.020507812,-17.78125,7.3125,-0.625
106,106,1727960996581,-0.97265625,-0.18652344,0.03515625,-22.21875,4.5,6.5625
107,107,1727960996621,-1.0400391,-0.26171875,0.001953125,-22.0625,16.9375,12.375
108,108,1727960996661,-1.03125,-0.203125,-0.04296875,-11.4375,14.5625,15.5
109,109,1727960996701,-1.1464844,-0.14648438,-0.05859375,-12.21875,10.0,9.375
110,110,1727960996741,-1.1103516,-0.24121094,-0.015625,-19.375,-2.8125,2.5625
111,111,1727960996781,-1.0498047,-0.25976562,-0.028320312,-6.0625,-1.96875,-2.9375
112,112,1727960996821,-1.0878906,-0.18652344,-0.041015625,3.21875,6.8125,-3.6875
113,113,1727960996861,-1.109375,-0.13769531,-0.1015625,9.5625,13.03125,7.0
114,114,1727960996901,-1.1074219,0.018554688,-0.18652344,13.03125,18.53125,14.5
115,115,1727960996941,-1.1542969,0.053710938,-0.125,-0.375,12.4375,13.28125
116,116,1727960996981,-1.0546875,-0.029296875,-0.12207031,-15.15625,-2.6875,9.5
117,117,1727960997021,-1.0224609,-0.04296875,-0.17285156,-10.5,-14.90625,8.59375
118,118,1727960997061,-1.0234375,0.022460938,-0.10644531,-3.6875,-25.78125,3.59375
119,119,1727960997101,-0.9785156,-0.030273438,-0.12011719,0.15625,-23.9375,4.3125
120,120,1727960997141,-1.0410156,0.009765625,-0.080078125,5.1875,-15.875,9.5625
121,121,1727960997181,-1.0214844,0.033203125,-0.051757812,1.28125,-23.875,12.5
122,122,1727960997221,-1.0263672,0.013671875,0.03125,-5.25,-22.78125,6.15625
123,123,1727960997261,-0.9951172,0.005859375,0.016601562,-6.125,-33.78125,9.6875
124,124,1727960997301,-0.953125,-0.05078125,0.02734375,-2.40625,-40.3125,13.0
125,125,1727960997341,-0.9267578,0.040039062,0.021484375,0.21875,-40.59375,7.375
126,126,1727960997381,-0.8847656,0.028320312,0.09472656,1.4375,-41.40625,7.25
127,127,1727960997421,-0.88671875,-0.018554688,0.12988281,0.59375,-33.875,5.65625
128,128,1727960997461,-0.9111328,0.037109375,0.17089844,3.84375,-32.0625,6.46875
129,129,1727960997501,-0.96875,-0.013671875,0.19628906,-0.6875,-22.28125,7.8125
130,130,1727960997541,-0.90527344,-0.016601562,0.21484375,0.15625,-21.0625,11.15625
131,131,1727960997581,-0.91015625,-0.01171875,0.23925781,4.125,-18.9375,6.15625
132,132,1727960997621,-0.89941406,-0.0126953125,0.25878906,1.625,-13.25,0.21875
133,133,1727960997661,-0.87402344,-0.03515625,0.24414062,6.03125,-2.28125,-2.15625
134,134,1727960997701,-0.9277344,-0.041992188,0.28808594,10.78125,-0.4375,-2.03125
135,135,1727960997741,-0.9160156,-0.001953125,0.3046875,10.0,-0.8125,-4.09375
136,136,1727960997781,-0.93652344,-0.0390625,0.2734375,9.9375,9.125,-2.9375
137,137,1727960997821,-0.96484375,0.032226562,0.24316406,17.1875,16.65625,-3.3125
138,138,1727960997861,-1.0966797,0.083984375,0.24316406,15.3125,21.09375,2.375
139,139,1727960997901,-1.0869141,-0.0009765625,0.31640625,5.40625,7.25,-2.28125
140,140,1727960997941,-0.95214844,0.024414062,0.23242188,12.0625,6.8125,0.28125
141,141,1727960997981,-1.0244141,0.060546875,0.2578125,13.71875,8.03125,5.78125
142,142,1727960998021,-1.1591797,0.06347656,0.25683594,4.875,7.125,4.3125
143,143,1727960998061,-1.1953125,0.10058594,0.203125,-2.15625,2.59375,1.625
144,144,1727960998101,-1.2861328,0.08496094,0.24902344,-4.78125,22.03125,-0.4375
145,145,1727960998141,-1.1757812,0.0078125,0.1171875,-8.0625,25.4375,0.15625
146,146,1727960998181,-0.9746094,0.028320312,0.00390625,-1.40625,27.21875,-2.15625
147,147,1727960998221,-0.94628906,0.061523438,-0.009765625,3.21875,28.3125,-5.4375
148,148,1727960998261,-0.9667969,0.026367188,-0.10546875,1.8125,23.65625,-9.46875
149,149,1727960998301,-0.92871094,0.068359375,-0.0625,3.59375,20.125,-17.21875
150,150,1727960998341,-0.9375,0.10839844,-0.0009765625,-2.75,19.03125,-24.90625
151,151,1727960998381,-0.9003906,-0.0029296875,0.0048828125,-14.1875,13.0,-25.03125
152,152,1727960998421,-0.9638672,-0.020507812,0.001953125,-14.84375,8.09375,-27.0625
153,153,1727960998461,-0.94628906,-0.04296875,-0.047851562,-13.875,-4.28125,-25.40625
154,154,1727960998501,-0.8544922,-0.055664062,-0.03125,-11.0,0.65625,-29.6875
155,155,1727960998541,-0.95703125,-0.06933594,-0.0107421875,-9.65625,2.65625,-27.34375
156,156,1727960998581,-0.9609375,-0.119140625,-0.041992188,-5.875,-4.09375,-15.03125
157,157,1727960998621,-0.96972656,-0.09765625,0.037109375,-5.09375,-0.0625,-11.3125
158,158,1727960998661,-0.95214844,-0.15917969,-0.0029296875,-7.46875,-4.21875,-9.0
159,159,1727960998701,-0.9667969,-0.15429688,0.034179688,-4.15625,6.8125,-10.875
160,160,1727960998741,-0.9472656,-0.14746094,0.0107421875,-0.875,4.3125,-6.90625
161,161,1727960998781,-0.97753906,-0.09863281,0.001953125,-0.1875,8.09375,-6.375
162,162,1727960998821,-0.9736328,-0.14453125,0.064453125,-7.53125,3.71875,-7.34375
163,163,1727960998861,-0.9609375,-0.16894531,0.07714844,-12.03125,3.15625,-2.15625
164,164,1727960998901,-0.98535156,-0.1484375,0.044921875,-12.65625,9.875,3.46875
165,165,1727960998941,-1.0410156,-0.16992188,0.02734375,-16.5625,12.4375,9.9375
166,166,1727960998981,-0.9814453,-0.18164062,0.01953125,-13.03125,14.5625,5.0
167,167,1727960999021,-1.0390625,-0.18359375,0.0107421875,-18.3125,13.90625,2.3125
168,168,1727960999061,-1.0605469,-0.19140625,-0.045898438,-13.625,12.8125,4.5625
169,169,1727960999101,-1.0898438,-0.14257812,0.0087890625,-6.5,10.0,4.8125
170,170,1727960999141,-1.1933594,-0.12109375,-0.032226562,-10.28125,6.5,0.53125
171,171,1727960999181,-1.2373047,-0.16796875,-0.0234375,-12.28125,3.40625,2.96875
172,172,1727960999221,-1.3105469,-0.14453125,-0.08203125,-7.15625,7.75,8.34375
173,173,1727960999261,-1.2431641,-0.09863281,-0.1015625,-9.65625,6.75,9.125
174,174,1727960999301,-1.0673828,-0.07421875,-0.091796875,-12.09375,-0.875,20.125
175,175,1727960999341,-0.95996094,0.029296875,-0.083984375,-11.6875,-9.34375,15.84375
176,176,1727960999381,-0.9511719,-0.0009765625,-0.09863281,-17.59375,-17.59375,10.375
177,177,1727960999421,-0.91015625,-0.0146484375,-0.0625,-5.21875,-32.3125,9.8125
178,178,1727960999461,-0.9082031,-0.009765625,-0.025390625,4.6875,-18.375,2.1875
179,179,1727960999501,-0.9970703,0.024414062,-0.005859375,3.9375,-23.625,3.65625
180,180,1727960999541,-0.92871094,0.0009765625,0.029296875,-0.9375,-30.59375,6.9375
181,181,1727960999581,-0.9267578,0.026367188,0.041015625,0.28125,-45.0,8.46875
182,182,1727960999621,-0.9501953,0.038085938,0.072265625,2.0625,-46.46875,9.5
183,183,1727960999661,-0.9658203,-0.0029296875,0.076171875,1.375,-43.09375,10.84375
184,184,1727960999701,-0.8964844,-0.041992188,0.13867188,8.09375,-41.03125,12.75
185,185,1727960999741,-0.84765625,0.080078125,0.15332031,6.5,-32.25,9.03125
186,186,1727960999781,-1.0175781,0.028320312,0.203125,2.96875,-23.9375,7.375
187,187,1727960999821,-0.88183594,0.009765625,0.21289062,0.59375,-17.96875,6.6875
188,188,1727960999861,-0.9121094,0.03125,0.25683594,4.3125,-9.125,3.90625
189,189,1727960999901,-0.9082031,0.001953125,0.27539062,8.53125,-12.09375,0.46875
190,190,1727960999941,-0.8779297,0.0,0.2939453,11.875,-6.71875,-7.21875
191,191,1727960999981,-0.9267578,-0.0009765625,0.27441406,17.8125,-4.59375,-7.03125
192,192,1727961000021,-0.91015625,0.02734375,0.23144531,19.5625,8.71875,-8.5
193,193,1727961000061,-1.1279297,0.09472656,0.29003906,24.40625,14.8125,-2.59375
194,194,1727961000101,-1.0390625,0.021484375,0.28808594,12.625,8.90625,-4.03125
195,195,1727961000141,-1.1298828,0.053710938,0.27148438,10.375,20.125,-9.59375
196,196,1727961000181,-1.1269531,0.061523438,0.2265625,11.8125,19.03125,1.4375
197,197,1727961000221,-1.0507812,0.08496094,0.171875,7.6875,18.71875,-0.125
198,198,1727961000261,-1.1015625,0.06738281,0.20703125,4.5625,26.46875,-4.21875
199,199,1727961000301,-1.1865234,0.017578125,0.14648438,0.0,28.5,-7.28125
200,200,1727961000341,-1.0390625,0.0146484375,0.021484375,9.03125,29.15625,-7.28125
201,201,1727961000381,-1.0097656,0.040039062,-0.030273438,13.96875,27.4375,-7.71875
202,202,1727961000421,-1.0234375,0.046875,-0.018554688,8.03125,25.1875,-14.96875
203,203,1727961000461,-1.0029297,0.0546875,-0.045898438,5.21875,19.21875,-18.5
204,204,1727961000501,-0.984375,0.041015625,-0.032226562,-2.03125,15.25,-23.34375
205,205,1727961000541,-0.953125,-0.022460938,-0.0234375,-10.34375,12.5625,-24.3125
206,206,1727961000581,-0.8886719,-0.041015625,-0.020507812,-12.78125,12.1875,-26.0625
207,207,1727961000621,-0.92578125,-0.03125,-0.0107421875,-16.8125,6.625,-30.34375
208,208,1727961000661,-0.86328125,-0.10449219,-0.0146484375,-23.875,1.28125,-29.8125
209,209,1727961000701,-0.9248047,-0.13378906,-0.018554688,-16.0,5.84375,-21.4375
210,210,1727961000741,-0.9189453,-0.140625,-0.020507812,-11.25,3.9375,-23.875
211,211,1727961000781,-0.9453125,-0.1484375,-0.038085938,-11.125,4.75,-18.8125
212,212,1727961000821,-1.0234375,-0.16601562,-0.015625,-5.75,5.84375,-16.25
213,213,1727961000861,-0.984375,-0.11425781,0.021484375,-7.8125,-0.625,-13.5
214,214,1727961000901,-0.9794922,-0.15429688,0.0087890625,-12.09375,1.3125,-6.84375
215,215,1727961000941,-0.9794922,-0.19335938,0.021484375,-11.78125,-1.84375,-4.84375
216,216,1727961000981,-0.9375,-0.2109375,0.018554688,-11.78125,-1.96875,-2.28125
217,217,1727961001021,-0.9326172,-0.18164062,0.047851562,-11.6875,0.71875,2.25
218,218,1727961001061,-0.9873047,-0.20410156,0.045898438,-16.3125,7.5,5.21875
219,219,1727961001101,-1.0058594,-0.20605469,0.068359375,-16.5625,5.1875,8.46875
220,220,1727961001141,-1.0224609,-0.22265625,0.02734375,-18.3125,11.09375,11.9375
221,221,1727961001181,-1.0898438,-0.23242188,-0.0546875,-14.65625,10.40625,17.625
222,222,1727961001221,-1.0771484,-0.17578125,0.0,-8.75,9.625,8.59375
223,223,1727961001261,-1.0732422,-0.203125,0.015625,-17.59375,7.4375,1.8125
224,224,1727961001301,-1.0859375,-0.25195312,-0.024414062,-12.84375,8.78125,6.6875
225,225,1727961001341,-1.1894531,-0.07910156,-0.080078125,-1.25,12.0,0.40625
226,226,1727961001381,-1.2177734,-0.09472656,-0.09082031,-6.65625,10.0,0.34375
227,227,1727961001421,-1.1904297,-0.091796875,-0.14648438,-9.15625,4.9375,14.9375
228,228,1727961001461,-1.0400391,-0.013671875,-0.14453125,-7.28125,-6.65625,21.78125
229,229,1727961001501,-1.0029297,0.033203125,-0.11425781,-7.59375,-19.96875,15.96875
230,230,1727961001541,-1.0166016,0.005859375,-0.12988281,-11.78125,-23.09375,12.0625
231,231,1727961001581,-0.9609375,-0.022460938,-0.08300781,-7.21875,-37.5625,10.84375
232,232,1727961001621,-0.9199219,-0.056640625,-0.047851562,-0.75,-23.03125,8.71875
233,233,1727961001661,-0.98535156,0.016601562,-0.021484375,8.84375,-23.875,12.875
234,234,1727961001701,-0.99609375,0.044921875,0.060546875,4.0,-27.1875,9.03125
235,235,1727961001741,-0.953125,0.001953125,0.07128906,-3.875,-32.25,9.5
236,236,1727961001781,-0.953125,-0.020507812,0.041015625,-4.78125,-25.84375,11.28125
237,237,1727961001821,-0.99609375,0.0029296875,0.08886719,-0.75,-36.34375,9.6875
238,238,1727961001861,-0.8779297,0.041992188,0.08984375,2.71875,-40.96875,8.90625
239,239,1727961001901,-0.9248047,0.041992188,0.18359375,1.15625,-31.8125,6.15625
240,240,1727961001941,-0.9355469,0.024414062,0.18164062,-0.75,-20.875,7.90625
241,241,1727961001981,-0.9345703,-0.0234375,0.20996094,-0.625,-14.1875,8.71875
242,242,1727961002021,-0.9091797,0.0068359375,0.23925781,3.34375,-14.0,6.46875
243,243,1727961002061,-0.9316406,0.024414062,0.2783203,4.1875,-5.6875,3.53125
244,244,1727961002101,-0.89941406,-0.029296875,0.21386719,8.03125,2.90625,2.5
245,245,1727961002141,-0.9160156,-0.0390625,0.265625,14.28125,4.375,-3.4375
246,246,1727961002181,-0.953125,-0.0146484375,0.30273438,22.8125,3.78125,-5.09375
247,247,1727961002221,-0.91308594,0.009765625,0.24902344,24.15625,8.59375,-4.59375
248,248,1727961002261,-0.92285156,0.026367188,0.24707031,26.65625,9.6875,0.90625
249,249,1727961002301,-1.0361328,0.16210938,0.16992188,25.5625,-2.75,-1.53125
250,250,1727961002341,-1.2236328,0.022460938,0.31445312,5.0625,12.0625,-5.5625
251,251,1727961002381,-1.0322266,-0.0029296875,0.21777344,7.125,3.03125,-7.9375
252,252,1727961002421,-1.0898438,0.046875,0.17089844,16.84375,14.75,-6.25
253,253,1727961002461,-1.1103516,0.13476562,0.107421875,8.71875,12.75,-2.75
254,254,1727961002501,-1.1269531,0.111328125,0.11230469,0.28125,13.28125,-2.09375
255,255,1727961002541,-1.1777344,0.040039062,0.0703125,-0.4375,14.3125,-7.59375
256,256,1727961002581,-1.1582031,0.032226562,0.018554688,5.90625,22.4375,-7.9375
257,257,1727961002621,-1.0566406,0.043945312,-0.0087890625,5.21875,22.4375,-10.03125
258,258,1727961002661,-1.0205078,0.040039062,-0.032226562,4.0,20.6875,-13.875
259,259,1727961002701,-0.88671875,0.022460938,-0.087890625,1.375,20.96875,-15.21875
260,260,1727961002741,-0.9199219,0.048828125,-0.0078125,1.3125,20.5,-21.25
261,261,1727961002781,-0.89941406,0.044921875,-0.016601562,-13.1875,16.46875,-25.71875
262,262,1727961002821,-0.9658203,-0.0703125,0.00390625,-17.40625,14.75,-29.6875
263,263,1727961002861,-0.9814453,-0.051757812,0.02734375,-20.46875,1.09375,-32.1875
264,264,1727961002901,-0.9033203,-0.0546875,-0.013671875,-21.125,-5.375,-27.125
265,265,1727961002941,-0.8701172,-0.06738281,-0.0107421875,-19.90625,-4.09375,-22.21875
266,266,1727961002981,-0.9121094,-0.13476562,-0.017578125,-21.75,0.65625,-21.3125
267,267,1727961003021,-1.0097656,-0.15625,-0.009765625,-17.09375,1.28125,-16.0
268,268,1727961003061,-0.9277344,-0.14746094,0.022460938,-9.46875,-1.96875,-11.375
269,269,1727961003101,-0.97558594,-0.1796875,0.056640625,-9.125,1.03125,-7.71875
270,270,1727961003141,-0.98535156,-0.18652344,0.044921875,-4.71875,-2.03125,-5.15625
271,271,1727961003181,-0.9560547,-0.18554688,0.06933594,-3.5625,0.90625,-2.03125
272,272,1727961003221,-0.98339844,-0.14648438,0.08886719,-5.75,1.4375,-1.90625
273,273,1727961003261,-0.93359375,-0.203125,0.083984375,-13.5,-0.0625,-1.59375
274,274,1727961003301,-1.0029297,-0.21777344,0.06640625,-5.09375,8.53125,2.4375
275,275,1727961003341,-0.9316406,-0.21972656,0.09667969,-7.03125,12.9375,2.25
276,276,1727961003381,-0.97558594,-0.22753906,-0.001953125,-4.65625,17.5,7.6875
277,277,1727961003421,-1.0732422,-0.16308594,-0.06347656,7.125,22.25,4.125
278,278,1727961003461,-1.1142578,-0.11328125,-0.0126953125,0.40625,18.0625,0.28125
279,279,1727961003501,-1.1845703,-0.19921875,-0.033203125,-11.4375,9.09375,2.78125
280,280,1727961003541,-1.2792969,-0.13476562,-0.047851562,-4.40625,3.84375,-1.59375
281,281,1727961003581,-1.2001953,-0.17285156,-0.061523438,-12.03125,0.96875,3.71875
282,282,1727961003621,-1.2373047,-0.12890625,-0.09277344,-9.96875,0.15625,12.0625
283,283,1727961003661,-1.1484375,-0.030273438,-0.123046875,-9.34375,-7.65625,18.125
284,284,1727961003701,-0.98046875,-0.0107421875,-0.08203125,-13.375,-15.46875,22.375
285,285,1727961003741,-0.9980469,0.0087890625,-0.091796875,-17.53125,-15.34375,15.3125
286,286,1727961003781,-0.8955078,0.0,-0.060546875,-12.78125,-21.5625,12.25
287,287,1727961003821,-0.94628906,-0.053710938,-0.018554688,-1.40625,-15.03125,11.59375
288,288,1727961003861,-0.9765625,-0.05078125,-0.024414062,8.28125,-15.53125,13.0
289,289,1727961003901,-0.9326172,0.06347656,0.025390625,13.90625,-29.125,13.96875
290,290,1727961003941,-0.92871094,0.028320312,0.072265625,3.9375,-27.0,12.75
291,291,1727961003981,-0.9511719,0.0068359375,0.0859375,4.375,-32.3125,11.9375
292,292,1727961004021,-0.9560547,0.015625,0.125,7.3125,-36.28125,9.03125
293,293,1727961004061,-0.89453125,-0.015625,0.0859375,6.40625,-34.75,6.875
294,294,1727961004101,-0.87402344,-0.0146484375,0.12597656,5.59375,-19.25,5.40625
295,295,1727961004141,-1.0039062,0.034179688,0.17285156,6.75,-16.96875,8.03125
296,296,1727961004181,-1.0097656,0.01171875,0.19726562,8.09375,-17.65625,17.75
297,297,1727961004221,-0.9814453,0.03125,0.20117188,0.21875,-11.625,13.0
298,298,1727961004261,-0.8730469,0.055664062,0.23339844,-0.9375,-11.84375,11.71875
299,299,1727961004301,-0.9082031,-0.048828125,0.2529297,5.1875,-8.25,9.6875
300,300,1727961004341,-0.8359375,0.0107421875,0.31445312,6.5,-3.1875,-2.03125
301,301,1727961004381,-0.8808594,0.0087890625,0.2998047,5.34375,3.46875,-5.625
302,302,1727961004421,-0.8808594,0.01171875,0.21289062,9.8125,17.1875,-5.8125
303,303,1727961004461,-1.03125,0.12890625,0.23242188,13.40625,14.09375,-0.9375
304,304,1727961004501,-1.0927734,0.0029296875,0.27929688,-1.65625,8.21875,-0.25
305,305,1727961004541,-0.9980469,0.032226562,0.21289062,8.03125,0.65625,-4.15625
306,306,1727961004581,-1.1445312,0.111328125,0.26757812,11.15625,5.21875,-7.34375
307,307,1727961004621,-1.1787109,0.08984375,0.203125,4.25,5.21875,-8.25
308,308,1727961004661,-1.1269531,0.111328125,0.18847656,1.8125,10.1875,-7.09375
309,309,1727961004701,-1.1591797,0.0625,0.20898438,2.4375,22.8125,-6.0625
310,310,1727961004741,-1.0966797,0.0107421875,0.018554688,-1.46875,28.375,-5.6875
311,311,1727961004781,-1.0097656,0.044921875,-0.05078125,10.46875,26.28125,-9.28125
312,312,1727961004821,-0.98339844,0.080078125,-0.049804688,14.28125,26.65625,-10.40625
313,313,1727961004861,-1.0341797,0.009765625,-0.11230469,10.1875,23.4375,-11.4375
314,314,1727961004901,-0.98535156,0.03515625,-0.08984375,7.90625,21.90625,-17.71875
315,315,1727961004941,-0.9667969,0.022460938,-0.016601562,2.0,15.84375,-21.0
316,316,1727961004981,-0.9736328,-0.0029296875,0.0107421875,-9.125,8.21875,-24.78125
317,317,1727961005021,-0.96484375,-0.021484375,0.0087890625,-15.8125,3.46875,-27.71875
318,318,1727961005061,-0.94628906,-0.09375,-0.044921875,-18.375,0.34375,-27.78125
319,319,1727961005101,-0.89746094,-0.07324219,-0.047851562,-16.25,1.28125,-27.125
320,320,1727961005141,-0.8925781,-0.048828125,-0.038085938,-14.1875,5.28125,-22.96875
321,321,1727961005181,-0.94140625,-0.12011719,-0.013671875,-18.09375,6.09375,-16.5
322,322,1727961005221,-0.97265625,-0.15429688,-0.043945312,-16.0625,5.96875,-16.375
323,323,1727961005261,-0.98046875,-0.16699219,-0.028320312,-6.65625,4.1875,-17.40625
324,324,1727961005301,-0.94140625,-0.17773438,0.0087890625,-2.8125,5.28125,-14.96875
325,325,1727961005341,-0.94433594,-0.14355469,0.005859375,3.21875,5.78125,-9.34375
326,326,1727961005381,-1.0205078,-0.1640625,-0.0029296875,-2.40625,10.53125,-5.375
327,327,1727961005421,-0.9873047,-0.15722656,-0.01171875,-9.21875,5.34375,-3.1875
328,328,1727961005461,-0.9863281,-0.16894531,0.0234375,-12.65625,3.28125,-1.59375
329,329,1727961005501,-1.0097656,-0.15820312,0.024414062,-17.21875,5.84375,3.71875
330,330,1727961005541,-1.0107422,-0.17773438,-0.0107421875,-19.5,4.0625,8.90625
331,331,1727961005581,-1.0888672,-0.19433594,0.0126953125,-19.84375,2.90625,8.84375
332,332,1727961005621,-1.0146484,-0.2109375,-0.01171875,-20.21875,-2.15625,4.9375
333,333,1727961005661,-1.0361328,-0.18261719,-0.04296875,-13.4375,4.625,4.0
334,334,1727961005701,-1.0292969,-0.16601562,-0.041015625,-14.53125,9.3125,6.8125
335,335,1727961005741,-1.0810547,-0.12597656,-0.022460938,-13.1875,7.1875,5.34375
336,336,1727961005781,-1.1455078,-0.1640625,-0.057617188,-12.03125,7.84375,-2.53125
337,337,1727961005821,-1.2373047,-0.20019531,-0.068359375,-7.03125,7.75,0.46875
338,338,1727961005861,-1.2070312,-0.05859375,-0.11328125,-3.375,4.5,6.46875
339,339,1727961005901,-1.0986328,-0.03125,-0.07714844,-14.3125,0.34375,12.75
340,340,1727961005941,-0.98535156,-0.07714844,-0.099609375,-17.65625,-4.78125,18.53125
341,341,1727961005981,-0.91796875,-0.1015625,-0.14355469,-7.8125,-9.84375,13.71875
342,342,1727961006021,-0.9404297,-0.0146484375,-0.15039062,2.71875,-21.4375,5.0625
343,343,1727961006061,-0.92578125,0.07324219,-0.10839844,6.21875,-35.34375,7.8125
344,344,1727961006101,-0.921875,0.0068359375,-0.055664062,-1.1875,-23.5,3.46875
345,345,1727961006141,-1.0878906,-0.017578125,-0.0009765625,-4.59375,-25.03125,6.03125
346,346,1727961006181,-1.0029297,-0.0068359375,0.030273438,-1.3125,-29.3125,8.46875
347,347,1727961006221,-1.0283203,-0.018554688,0.024414062,-1.40625,-36.40625,11.8125
348,348,1727961006261,-0.97265625,-0.01171875,0.045898438,-3.125,-36.03125,12.75
349,349,1727961006301,-0.90527344,0.020507812,0.140625,-3.875,-44.5625,10.1875
350,350,1727961006341,-0.8613281,-0.025390625,0.10253906,-1.59375,-39.3125,6.5625
351,351,1727961006381,-0.9082031,-0.0146484375,0.14746094,4.625,-27.71875,5.40625
352,352,1727961006421,-0.9375,0.0,0.15136719,3.40625,-19.1875,9.125
353,353,1727961006461,-0.92578125,-0.01953125,0.203125,2.59375,-14.78125,8.90625
354,354,1727961006501,-0.9277344,0.018554688,0.24609375,0.96875,-7.78125,4.9375
355,355,1727961006541,-0.9238281,-0.05078125,0.23730469,3.59375,-8.0,4.0625
356,356,1727961006581,-0.87109375,-0.0048828125,0.27539062,11.53125,-8.375,-0.8125
357,357,1727961006621,-0.9375,-0.024414062,0.26660156,11.09375,-2.75,-0.625
358,358,1727961006661,-0.9140625,-0.032226562,0.23925781,12.1875,2.1875,0.84375
359,359,1727961006701,-0.9121094,0.033203125,0.21777344,15.71875,8.90625,2.4375
360,360,1727961006741,-1.046875,0.13671875,0.20800781,13.96875,15.1875,4.0625
361,361,1727961006781,-1.1103516,-0.036132812,0.24707031,0.65625,15.5,1.21875
362,362,1727961006821,-0.95996094,-0.0126953125,0.171875,6.5625,6.46875,1.8125
363,363,1727961006861,-1.0849609,0.11230469,0.19824219,15.3125,5.40625,5.21875
364,364,1727961006901,-1.0986328,0.08691406,0.14257812,-1.40625,15.5625,4.5625
365,365,1727961006941,-1.1308594,0.057617188,0.203125,-0.6875,14.4375,3.59375
366,366,1727961006981,-1.1621094,0.05078125,0.18652344,-5.6875,5.71875,-1.59375
367,367,1727961007021,-1.1494141,0.095703125,0.17480469,0.0,14.28125,-3.4375
368,368,1727961007061,-1.1152344,0.08984375,0.091796875,-7.28125,18.1875,-2.8125
369,369,1727961007101,-0.9736328,0.032226562,0.045898438,-6.53125,19.625,-3.0625
370,370,1727961007141,-0.92871094,0.03125,-0.0126953125,-2.625,22.09375,-7.34375
371,371,1727961007181,-1.0175781,0.061523438,-0.0068359375,3.34375,18.34375,-9.59375
372,372,1727961007221,-0.9560547,0.0390625,-0.024414062,2.3125,5.40625,-10.8125
373,373,1727961007261,-0.9316406,0.001953125,-0.0146484375,4.9375,8.84375,-16.1875
374,374,1727961007301,-0.95214844,-0.0009765625,0.0068359375,6.5625,9.5,-21.4375
375,375,1727961007341,-0.9433594,-0.064453125,0.043945312,2.25,12.5,-23.875
376,376,1727961007381,-1.0146484,-0.01171875,0.052734375,-4.21875,13.65625,-28.09375
377,377,1727961007421,-0.9873047,-0.03125,0.048828125,-9.0625,0.28125,-29.125
378,378,1727961007461,-0.89746094,-0.08105469,0.01953125,-12.71875,-2.6875,-29.0
379,379,1727961007501,-0.8935547,-0.09472656,0.0048828125,-9.21875,1.9375,-22.71875
380,380,1727961007541,-0.9658203,-0.12402344,0.0126953125,-5.15625,1.9375,-17.21875
381,381,1727961007581,-0.96777344,-0.14550781,0.015625,-1.3125,5.1875,-13.5
382,382,1727961007621,-0.94140625,-0.12890625,0.041015625,-0.4375,7.3125,-12.28125
383,383,1727961007661,-0.97753906,-0.16992188,0.044921875,-3.875,5.34375,-9.28125
384,384,1727961007701,-0.94140625,-0.14746094,0.059570312,-2.15625,2.0625,-12.90625
385,385,1727961007741,-1.0009766,-0.17578125,0.028320312,0.09375,6.5625,-10.09375
386,386,1727961007781,-1.0175781,-0.11816406,0.049804688,-3.8125,8.96875,-2.875
387,387,1727961007821,-0.99121094,-0.12695312,0.057617188,-19.96875,10.3125,4.125
388,388,1727961007861,-1.0302734,-0.22851562,-0.017578125,-20.28125,14.5625,10.84375
389,389,1727961007901,-1.0957031,-0.23339844,-0.017578125,-16.1875,11.09375,7.5
390,390,1727961007941,-1.0800781,-0.22070312,-0.037109375,-9.15625,9.625,5.46875
391,391,1727961007981,-1.109375,-0.16992188,-0.01953125,-9.0,5.96875,0.90625
392,392,1727961008021,-1.0908203,-0.16210938,-0.009765625,-10.625,6.09375,2.5
393,393,1727961008061,-1.1591797,-0.15136719,-0.053710938,-7.9375,8.28125,2.65625
394,394,1727961008101,-1.1962891,-0.1328125,-0.099609375,-3.96875,10.84375,3.71875
395,395,1727961008141,-1.1689453,-0.047851562,-0.087890625,-3.75,9.3125,9.8125
396,396,1727961008181,-1.1083984,0.044921875,-0.125,-9.46875,1.9375,15.3125
397,397,1727961008221,-1.0380859,0.020507812,-0.078125,-19.65625,-10.09375,14.625
398,398,1727961008261,-0.9658203,0.029296875,-0.0546875,-24.3125,-19.3125,14.15625
399,399,1727961008301,-0.953125,0.018554688,-0.046875,-14.59375,-29.75,11.15625
400,400,1727961008341,-0.9482422,-0.016601562,-0.028320312,-6.0,-27.59375,7.8125
401,401,1727961008381,-0.9189453,-0.024414062,-0.0029296875,3.53125,-23.5625,10.375
402,402,1727961008421,-0.94921875,0.01171875,-0.0029296875,11.75,-25.90625,9.125
403,403,1727961008461,-0.9628906,0.052734375,0.045898438,5.34375,-21.1875,5.125
404,404,1727961008501,-0.9902344,0.028320312,0.06640625,-1.65625,-23.40625,5.90625
405,405,1727961008541,-0.9394531,0.017578125,0.0546875,-1.46875,-33.21875,8.03125
406,406,1727961008581,-0.9033203,0.061523438,0.14355469,-1.25,-29.8125,8.71875
407,407,1727961008621,-0.94921875,-0.048828125,0.1015625,0.90625,-30.28125,15.96875
408,408,1727961008661,-0.91796875,0.0234375,0.17480469,3.53125,-28.28125,11.8125
409,409,1727961008701,-0.9501953,0.03515625,0.18457031,-0.25,-23.09375,10.1875
410,410,1727961008741,-0.9609375,-0.0126953125,0.19042969,-0.125,-13.5625,10.46875
411,411,1727961008781,-0.92285156,0.0126953125,0.22558594,2.5,-15.28125,7.6875
412,412,1727961008821,-0.9013672,0.0126953125,0.25878906,4.5,-12.78125,3.03125
413,413,1727961008861,-0.88378906,-0.0546875,0.2578125,8.53125,-10.625,-2.21875
414,414,1727961008901,-0.8876953,0.00390625,0.27734375,16.15625,-9.15625,-3.875
415,415,1727961008941,-0.9091797,0.0068359375,0.28320312,16.90625,0.96875,-3.96875
416,416,1727961008981,-0.93847656,0.040039062,0.25,17.75,7.8125,-4.28125
417,417,1727961009021,-0.97558594,0.15136719,0.17675781,19.6875,12.25,0.65625
418,418,1727961009061,-1.1035156,0.064453125,0.30371094,13.15625,16.28125,-0.4375
419,419,1727961009101,-1.1005859,-0.022460938,0.25097656,12.75,12.0625,-5.375
420,420,1727961009141,-1.1298828,0.12109375,0.21191406,18.40625,8.59375,-1.46875
421,421,1727961009181,-1.2431641,0.13671875,0.18945312,9.25,11.9375,-2.28125
422,422,1727961009221,-1.1337891,0.10644531,0.17773438,-8.0,21.21875,1.15625
423,423,1727961009261,-1.0859375,0.11328125,0.140625,-5.9375,14.03125,-4.96875
424,424,1727961009301,-1.0341797,0.044921875,0.060546875,-7.875,23.46875,-5.9375
425,425,1727961009341,-0.9892578,0.022460938,-0.015625,-1.40625,26.65625,-4.09375
426,426,1727961009381,-0.97265625,0.06640625,-0.033203125,8.46875,24.46875,-8.125
427,427,1727961009421,-0.9765625,0.048828125,-0.048828125,8.15625,20.4375,-12.71875
428,428,1727961009461,-0.9453125,0.064453125,-0.0703125,6.5625,15.96875,-14.53125
429,429,1727961009501,-0.92871094,0.08105469,0.0009765625,6.8125,11.28125,-15.8125
430,430,1727961009541,-0.9121094,-0.0107421875,-0.0068359375,0.03125,14.625,-19.59375
431,431,1727961009581,-1.0400391,-0.018554688,0.0048828125,-4.28125,9.75,-24.5
432,432,1727961009621,-0.90234375,-0.0009765625,0.0146484375,-8.0,-2.75,-25.53125
433,433,1727961009661,-0.91308594,-0.06738281,-0.01171875,-6.59375,-0.3125,-26.75
434,434,1727961009701,-0.9589844,-0.051757812,0.0078125,-9.71875,2.1875,-27.1875
435,435,1727961009741,-0.9277344,-0.06640625,0.00390625,-9.46875,4.6875,-19.375
436,436,1727961009781,-0.9667969,-0.095703125,-0.0087890625,-6.84375,8.40625,-11.1875
437,437,1727961009821,-0.9736328,-0.125,0.02734375,-8.1875,6.21875,-10.625
438,438,1727961009861,-1.0273438,-0.14648438,0.005859375,-6.96875,6.28125,-8.375
439,439,1727961009901,-1.0107422,-0.15917969,0.04296875,-4.90625,2.78125,-6.65625
440,440,1727961009941,-0.9628906,-0.14550781,0.024414062,-5.8125,-2.8125,-8.75
441,441,1727961009981,-0.95410156,-0.12695312,0.016601562,-3.3125,-1.46875,-5.375
442,442,1727961010021,-0.9638672,-0.11621094,0.07421875,-8.0,-1.34375,-2.53125
443,443,1727961010061,-0.9824219,-0.15917969,0.1015625,-18.4375,-0.0625,-1.53125
444,444,1727961010101,-1.0439453,-0.23339844,0.047851562,-18.375,3.9375,2.5625
445,445,1727961010141,-0.9814453,-0.19921875,0.041992188,-11.25,4.9375,5.21875
446,446,1727961010181,-0.95214844,-0.1484375,0.03515625,-9.21875,15.5625,3.34375
447,447,1727961010221,-0.9970703,-0.111328125,0.020507812,-13.5625,14.75,-1.53125
448,448,1727961010261,-1.1103516,-0.15332031,-0.0146484375,-16.5,14.5625,1.6875
449,449,1727961010301,-1.1484375,-0.22460938,-0.025390625,-11.6875,11.34375,-1.46875
450,450,1727961010341,-1.3300781,-0.17382812,-0.029296875,-3.375,10.78125,-4.78125
451,451,1727961010381,-1.3154297,-0.15332031,-0.09667969,-5.21875,7.96875,8.46875
452,452,1727961010421,-1.2558594,-0.078125,-0.16308594,-2.21875,2.4375,21.40625
453,453,1727961010461,-1.0908203,0.055664062,-0.119140625,-7.65625,-5.5625,23.125
454,454,1727961010501,-1.0351562,0.13574219,-0.09375,-20.28125,-17.34375,21.28125
455,455,1727961010541,-0.9394531,0.028320312,-0.060546875,-25.65625,-27.71875,16.40625
456,456,1727961010581,-0.9404297,0.020507812,-0.04296875,-16.875,-21.9375,17.875
457,457,1727961010621,-0.9707031,-0.038085938,-0.0146484375,-7.03125,-21.3125,11.59375
458,458,1727961010661,-0.94921875,-0.036132812,0.038085938,-0.5,-26.6875,9.8125
459,459,1727961010701,-0.9472656,0.034179688,0.0703125,4.0625,-33.53125,6.8125
460,460,1727961010741,-0.9082031,0.037109375,0.076171875,4.0625,-36.75,2.5
461,461,1727961010781,-0.94433594,-0.009765625,0.08886719,3.53125,-30.03125,1.6875
462,462,1727961010821,-0.9892578,-0.034179688,0.10058594,8.65625,-26.375,3.78125
463,463,1727961010861,-0.9423828,0.07714844,0.09277344,14.5625,-36.6875,4.125
464,464,1727961010901,-0.9736328,0.049804688,0.1875,8.28125,-24.75,6.9375
465,465,1727961010941,-0.9638672,0.03125,0.17480469,4.625,-42.4375,10.46875
466,466,1727961010981,-0.9472656,-0.041015625,0.20117188,0.03125,-22.59375,9.6875
467,467,1727961011021,-0.80371094,0.015625,0.1796875,10.53125,-19.90625,9.5
468,468,1727961011061,-0.85839844,0.021484375,0.24414062,12.875,-7.59375,9.125
469,469,1727961011101,-0.85839844,-0.0078125,0.24121094,12.1875,7.5,-0.3125
470,470,1727961011141,-0.89941406,-0.048828125,0.26953125,17.125,-1.90625,-10.34375
471,471,1727961011181,-0.8515625,0.026367188,0.3203125,24.46875,-5.9375,-12.84375
472,472,1727961011221,-1.0634766,0.13769531,0.27734375,21.65625,-2.6875,-11.6875
473,473,1727961011261,-0.9814453,0.0703125,0.25683594,10.40625,-0.8125,-5.3125
474,474,1727961011301,-1.0126953,0.025390625,0.23046875,13.65625,6.46875,-5.25
475,475,1727961011341,-1.0253906,0.1015625,0.23535156,5.46875,7.90625,4.8125
476,476,1727961011381,-0.98339844,0.072265625,0.26464844,-0.8125,15.25,1.75
477,477,1727961011421,-1.03125,0.057617188,0.2626953,-0.4375,15.5,-4.84375
478,478,1727961011461,-1.1416016,0.0146484375,0.24707031,0.34375,10.59375,-4.78125
479,479,1727961011501,-1.140625,0.03515625,0.20605469,5.34375,13.53125,-3.75
480,480,1727961011541,-1.1484375,0.078125,0.18945312,6.34375,16.9375,-0.25
481,481,1727961011581,-1.0693359,0.10644531,0.14746094,2.375,21.34375,-5.4375
482,482,1727961011621,-1.0751953,0.048828125,0.09277344,-1.71875,28.0,-9.65625
483,483,1727961011661,-1.1289062,0.057617188,0.005859375,3.34375,28.84375,-13.375
484,484,1727961011701,-1.1289062,0.08886719,0.032226562,4.125,18.90625,-11.96875
485,485,1727961011741,-1.0078125,0.08300781,-0.028320312,3.34375,11.40625,-4.84375
486,486,1727961011781,-0.94433594,0.08203125,-0.038085938,0.53125,9.6875,-10.28125
487,487,1727961011821,-0.92578125,0.047851562,-0.0029296875,-1.71875,10.96875,-17.71875
488,488,1727961011861,-0.85253906,-0.021484375,0.01953125,-9.96875,3.40625,-24.1875
489,489,1727961011901,-0.89941406,-0.06347656,-0.001953125,-12.78125,-2.28125,-30.28125
490,490,1727961011941,-0.8574219,-0.052734375,0.03515625,-11.3125,-12.71875,-31.9375
491,491,1727961011981,-0.8496094,-0.080078125,-0.005859375,-8.75,-4.21875,-30.65625
492,492,1727961012021,-0.9394531,-0.053710938,0.072265625,-2.625,-2.625,-25.84375
493,493,1727961012061,-0.9863281,-0.109375,0.036132812,-11.0625,2.78125,-17.65625
494,494,1727961012101,-1.0302734,-0.14257812,0.041015625,-13.25,8.78125,-12.65625
495,495,1727961012141,-0.9560547,-0.15625,0.05859375,-14.46875,9.09375,-14.0625
496,496,1727961012181,-0.99609375,-0.16308594,0.0390625,-9.65625,14.75,-8.0625
497,497,1727961012221,-0.9736328,-0.14648438,0.06738281,-9.53125,9.875,-4.03125
498,498,1727961012261,-0.9814453,-0.1640625,0.103515625,-13.9375,3.84375,-5.21875
499,499,1727961012301,-0.9736328,-0.14160156,0.06738281,-16.0625,4.75,-3.875
500,500,1727961012341,-0.95410156,-0.20703125,0.10253906,-18.9375,4.8125,0.46875
501,501,1727961012381,-0.9472656,-0.20507812,0.08203125,-13.5625,9.09375,4.875
502,502,1727961012421,-1.0146484,-0.18359375,0.005859375,-16.25,15.25,7.25
503,503,1727961012461,-1.1025391,-0.20019531,0.029296875,-10.5625,12.1875,9.6875
504,504,1727961012501,-1.0185547,-0.14941406,0.12109375,-10.34375,11.21875,4.0625
505,505,1727961012541,-1.1015625,-0.18359375,0.015625,-18.5625,10.0,10.0625
506,506,1727961012581,-1.1835938,-0.18945312,-0.03125,-11.125,6.875,7.6875
507,507,1727961012621,-1.2431641,-0.13964844,-0.0107421875,-3.75,5.0625,2.0
508,508,1727961012661,-1.1728516,-0.14453125,-0.02734375,-7.78125,1.375,6.15625
509,509,1727961012701,-1.0849609,-0.051757812,-0.07714844,-3.4375,7.1875,8.84375
510,510,1727961012741,-1.0898438,0.06542969,-0.119140625,-7.59375,6.40625,15.3125
511,511,1727961012781,-0.9863281,0.080078125,-0.09277344,-12.59375,-0.1875,17.0625
512,512,1727961012821,-1.0126953,0.115234375,-0.095703125,-17.15625,-17.34375,10.1875
513,513,1727961012861,-0.9550781,0.0029296875,-0.041992188,-22.0,-27.1875,8.84375
514,514,1727961012901,-0.94628906,-0.06933594,-0.045898438,-12.84375,-23.75,11.71875
515,515,1727961012941,-0.94140625,0.03515625,-0.016601562,3.40625,-19.90625,15.84375
516,516,1727961012981,-1.0117188,0.09863281,0.053710938,-2.59375,-24.0,10.59375
517,517,1727961013021,-1.0058594,0.033203125,0.046875,-14.90625,-23.625,8.34375
518,518,1727961013061,-0.9501953,-0.026367188,0.041992188,-9.46875,-30.15625,7.25
519,519,1727961013101,-0.9375,0.057617188,0.07714844,0.46875,-34.5625,4.5625
520,520,1727961013141,-0.81640625,0.025390625,0.08203125,-0.0625,-29.4375,7.8125
521,521,1727961013181,-0.9716797,-0.016601562,0.12988281,0.46875,-26.5,7.5625
522,522,1727961013221,-0.90625,0.032226562,0.14746094,5.28125,-24.125,8.84375
523,523,1727961013261,-0.9472656,0.030273438,0.18066406,5.46875,-22.46875,7.90625
524,524,1727961013301,-0.93066406,0.057617188,0.17089844,4.5,-22.15625,7.125
525,525,1727961013341,-0.9091797,-0.0078125,0.25585938,0.28125,-15.875,1.21875
526,526,1727961013381,-0.8828125,-0.022460938,0.24316406,4.6875,-15.34375,-2.28125
527,527,1727961013421,-0.91015625,-0.025390625,0.28222656,9.625,-8.5625,-3.0625
528,528,1727961013461,-0.9013672,-0.0029296875,0.28320312,13.59375,-2.75,-3.5625
529,529,1727961013501,-0.8828125,0.038085938,0.27539062,11.75,-4.40625,-7.46875
530,530,1727961013541,-0.89746094,0.018554688,0.30371094,10.71875,7.8125,-2.53125
531,531,1727961013581,-0.9296875,0.026367188,0.32128906,8.03125,13.53125,0.96875
532,532,1727961013621,-0.9560547,0.12011719,0.20214844,6.8125,17.75,5.0
533,533,1727961013661,-1.0869141,-0.024414062,0.38964844,-7.15625,20.3125,5.21875
534,534,1727961013701,-0.9951172,-0.11816406,0.2841797,-4.15625,9.875,8.71875
535,535,1727961013741,-1.0976562,0.125,0.15234375,4.0,12.375,9.9375
536,536,1727961013781,-1.2050781,0.15917969,0.13378906,5.53125,10.375,15.0625
537,537,1727961013821,-1.1435547,0.19433594,0.2109375,-2.03125,5.46875,-4.15625
538,538,1727961013861,-1.1845703,0.15039062,0.2109375,-17.65625,11.09375,-13.8125
539,539,1727961013901,-1.1357422,0.049804688,0.13964844,-11.96875,19.75,-15.8125
540,540,1727961013941,-1.0390625,0.013671875,0.009765625,-3.125,29.90625,-11.71875
541,541,1727961013981,-0.9814453,0.021484375,-0.0234375,14.15625,27.875,-8.375
542,542,1727961014021,-0.9736328,0.057617188,-0.0703125,12.1875,23.375,-13.6875
543,543,1727961014061,-0.94628906,-0.001953125,-0.024414062,13.28125,21.90625,-17.90625
544,544,1727961014101,-0.96875,-0.0146484375,-0.0087890625,11.9375,15.3125,-21.5
545,545,1727961014141,-0.9121094,0.0126953125,0.020507812,-1.34375,8.53125,-31.15625
546,546,1727961014181,-1.0322266,-0.068359375,-0.0029296875,-6.96875,6.15625,-34.875
547,547,1727961014221,-0.9511719,-0.07324219,0.0048828125,-5.21875,1.8125,-30.09375
548,548,1727961014261,-0.9550781,-0.08496094,-0.022460938,-7.34375,3.53125,-31.9375
549,549,1727961014301,-0.92871094,-0.07421875,0.0078125,-9.78125,3.53125,-31.625
550,550,1727961014341,-0.9121094,-0.16113281,-0.0068359375,-9.0625,9.4375,-23.03125
551,551,1727961014381,-0.90527344,-0.13574219,0.032226562,-6.78125,10.3125,-18.03125
552,552,1727961014421,-0.9667969,-0.15527344,-0.041015625,-3.6875,10.78125,-14.0625
553,553,1727961014461,-0.9824219,-0.2109375,0.0078125,1.21875,6.15625,-13.0625
554,554,1727961014501,-1.0107422,-0.1640625,0.009765625,6.6875,4.5625,-7.78125
555,555,1727961014541,-0.9941406,-0.12890625,0.07128906,-1.0,-5.09375,-4.28125
556,556,1727961014581,-0.9121094,-0.15234375,0.041992188,-13.1875,0.28125,-0.5625
557,557,1727961014621,-0.99316406,-0.22265625,0.037109375,-19.71875,-4.96875,5.90625
558,558,1727961014661,-0.94628906,-0.21191406,0.047851562,-16.0625,4.6875,9.8125
559,559,1727961014701,-1.0439453,-0.20214844,-0.015625,-16.5625,8.40625,13.28125
560,560,1727961014741,-1.0341797,-0.23046875,-0.029296875,-16.75,11.53125,15.84375
561,561,1727961014781,-1.0888672,-0.18261719,-0.005859375,-11.125,13.65625,12.875
562,562,1727961014821,-1.1357422,-0.13378906,-0.015625,-14.34375,9.09375,6.34375
563,563,1727961014861,-1.0410156,-0.14453125,-0.057617188,-13.1875,11.875,9.6875
564,564,1727961014901,-1.1367188,-0.111328125,-0.037109375,-8.5,15.90625,11.40625
565,565,1727961014941,-1.0546875,-0.0625,-0.05859375,-8.75,10.84375,9.6875
566,566,1727961014981,-1.0585938,-0.06640625,-0.078125,-6.5,15.5,8.03125
567,567,1727961015021,-1.1435547,-0.0390625,-0.115234375,-3.0625,13.34375,10.84375
568,568,1727961015061,-1.1806641,0.07714844,-0.12011719,-1.84375,2.25,17.1875
569,569,1727961015101,-1.1005859,0.053710938,-0.107421875,-8.375,-16.4375,19.5625
570,570,1727961015141,-1.0185547,-0.016601562,-0.0546875,-11.625,-25.96875,14.625
571,571,1727961015181,-0.98828125,-0.03125,-0.068359375,-5.09375,-22.90625,18.71875
572,572,1727961015221,-0.9658203,0.0068359375,-0.064453125,5.0,-22.59375,14.5
573,573,1727961015261,-1.0253906,0.036132812,-0.029296875,8.40625,-19.1875,13.96875
574,574,1727961015301,-0.99609375,0.026367188,0.043945312,4.625,-21.6875,5.59375
575,575,1727961015341,-0.9003906,0.0390625,0.022460938,2.1875,-27.53125,0.96875
576,576,1727961015381,-0.88183594,0.053710938,0.025390625,5.46875,-31.4375,-2.15625
577,577,1727961015421,-0.9267578,0.032226562,0.037109375,6.40625,-29.96875,-1.65625
578,578,1727961015461,-0.9736328,0.0390625,0.11328125,11.75,-33.09375,2.0625
579,579,1727961015501,-0.93652344,0.0126953125,0.125,10.3125,-32.1875,5.53125
580,580,1727961015541,-0.97558594,-0.0078125,0.12988281,10.53125,-26.5625,5.78125
581,581,1727961015581,-0.9355469,0.047851562,0.16601562,14.4375,-30.21875,8.28125
582,582,1727961015621,-0.9277344,0.060546875,0.20410156,6.15625,-27.0,4.125
583,583,1727961015661,-0.91015625,0.001953125,0.23339844,5.46875,-16.1875,5.90625
584,584,1727961015701,-0.8330078,-0.00390625,0.24609375,11.65625,-8.75,2.25
585,585,1727961015741,-0.89160156,-0.015625,0.25390625,15.71875,0.28125,-3.25
586,586,1727961015781,-0.9140625,0.029296875,0.27539062,16.34375,-4.65625,-7.53125
587,587,1727961015821,-0.94921875,0.033203125,0.2841797,17.625,1.3125,-7.28125
588,588,1727961015861,-0.89746094,0.048828125,0.27929688,18.53125,5.125,-8.5
589,589,1727961015901,-0.9765625,0.12597656,0.18359375,27.4375,11.40625,-3.3125
590,590,1727961015941,-1.1923828,0.0009765625,0.2783203,17.0625,18.34375,-4.21875
591,591,1727961015981,-0.9921875,0.01171875,0.20214844,17.1875,14.8125,-4.96875
592,592,1727961016021,-1.1669922,0.08886719,0.17285156,22.8125,14.21875,-3.875
593,593,1727961016061,-1.1337891,0.12402344,0.09667969,18.125,6.5625,0.78125
594,594,1727961016101,-1.0410156,0.14648438,0.05078125,11.40625,11.59375,0.65625
595,595,1727961016141,-1.1494141,0.061523438,0.08691406,6.46875,19.6875,0.71875
596,596,1727961016181,-1.0791016,0.043945312,-0.0009765625,7.8125,30.75,-1.84375
597,597,1727961016221,-1.0791016,0.08105469,-0.034179688,12.375,27.625,-6.53125
598,598,1727961016261,-1.0664062,0.111328125,-0.044921875,11.71875,23.65625,-6.65625
599,599,1727961016301,-1.0292969,0.1171875,-0.06640625,6.21875,21.21875,-9.96875
600,600,1727961016341,-1.0175781,0.087890625,-0.044921875,6.03125,12.5,-13.8125
601,601,1727961016381,-1.0048828,0.016601562,-0.07421875,2.0625,11.28125,-16.75
602,602,1727961016421,-0.9892578,0.030273438,-0.036132812,4.5625,10.375,-20.78125
603,603,1727961016461,-0.9433594,0.08105469,-0.03515625,-2.09375,12.9375,-21.3125
604,604,1727961016501,-0.9892578,-0.034179688,-0.041992188,-8.0,8.84375,-24.90625
605,605,1727961016541,-0.9667969,-0.041992188,-0.015625,-6.84375,-0.0625,-27.3125
606,606,1727961016581,-0.94628906,-0.060546875,-0.043945312,-8.375,-5.09375,-30.03125
607,607,1727961016621,-0.96777344,-0.057617188,-0.048828125,-8.25,0.28125,-25.53125
608,608,1727961016661,-0.90722656,-0.038085938,0.024414062,-8.3125,-2.875,-21.3125
609,609,1727961016701,-0.9296875,-0.08886719,-0.02734375,-14.34375,-4.21875,-18.6875
610,610,1727961016741,-0.9267578,-0.12890625,-0.040039062,-11.84375,1.28125,-16.625
611,611,1727961016781,-0.9472656,-0.15039062,0.0390625,-13.125,2.59375,-18.375
612,612,1727961016821,-0.99316406,-0.16992188,-0.02734375,-9.34375,1.9375,-13.6875
613,613,1727961016861,-0.9892578,-0.15429688,0.029296875,-8.125,-0.9375,-7.59375
614,614,1727961016901,-0.98046875,-0.12109375,0.061523438,-10.6875,-2.34375,-7.21875
615,615,1727961016941,-0.95214844,-0.22167969,0.05078125,-18.21875,2.96875,-4.59375
616,616,1727961016981,-1.0332031,-0.18554688,0.0068359375,-13.875,2.78125,1.375
617,617,1727961017021,-0.98046875,-0.18066406,0.0029296875,-12.53125,6.21875,7.0
618,618,1727961017061,-1.0332031,-0.20703125,-0.0546875,-10.03125,10.3125,12.25
619,619,1727961017101,-1.0830078,-0.1796875,-0.01953125,-4.78125,6.28125,11.40625
620,620,1727961017141,-1.0224609,-0.140625,0.024414062,-10.75,3.15625,9.6875
621,621,1727961017181,-1.0791016,-0.16503906,-0.0048828125,-15.59375,5.96875,9.6875
622,622,1727961017221,-1.1923828,-0.14550781,-0.055664062,-7.71875,9.75,7.625
623,623,1727961017261,-1.2490234,-0.11328125,-0.033203125,-6.5,6.625,2.78125
624,624,1727961017301,-1.1855469,-0.037109375,-0.0703125,-6.78125,5.96875,9.375
625,625,1727961017341,-1.0742188,0.0107421875,-0.07128906,-10.09375,4.8125,18.40625
626,626,1727961017381,-1.015625,0.0048828125,-0.09277344,-15.40625,0.71875,18.1875
627,627,1727961017421,-0.9951172,0.01953125,-0.06933594,-14.0625,-4.65625,15.84375
628,628,1727961017461,-0.98535156,0.047851562,-0.09277344,-8.8125,-15.625,12.5
629,629,1727961017501,-0.97265625,0.038085938,-0.07910156,-11.0625,-23.9375,9.9375
630,630,1727961017541,-0.93359375,0.057617188,-0.07910156,-7.65625,-24.625,10.90625
631,631,1727961017581,-0.95410156,0.0859375,-0.0009765625,-9.84375,-16.375,6.6875
632,632,1727961017621,-0.99609375,0.04296875,-0.009765625,-15.8125,-16.5625,9.03125
633,633,1727961017661,-0.98535156,0.028320312,-0.00390625,-15.34375,-20.34375,7.375
634,634,1727961017701,-0.96777344,0.037109375,0.056640625,-15.28125,-26.03125,6.03125
635,635,1727961017741,-0.97265625,0.053710938,0.041015625,-16.125,-25.34375,7.375
636,636,1727961017781,-0.9921875,0.029296875,0.080078125,-17.96875,-24.0,10.46875
637,637,1727961017821,-0.9404297,0.049804688,0.09765625,-16.875,-35.46875,12.75
638,638,1727961017861,-0.93847656,0.034179688,0.12890625,-14.3125,-33.9375,12.375
639,639,1727961017901,-0.8779297,0.033203125,0.16796875,-17.21875,-27.65625,8.21875
640,640,1727961017941,-0.96972656,0.0048828125,0.20996094,-17.90625,-11.96875,8.90625
641,641,1727961017981,-0.9785156,0.020507812,0.18652344,-10.28125,-10.6875,9.5
642,642,1727961018021,-0.9082031,0.061523438,0.21582031,-5.4375,-11.5,10.1875
643,643,1727961018061,-0.9199219,0.029296875,0.2548828,-4.96875,-7.65625,8.59375
644,644,1727961018101,-0.90234375,0.005859375,0.2626953,-1.65625,-0.6875,1.3125
645,645,1727961018141,-0.91308594,-0.0029296875,0.20800781,2.78125,-3.25,-1.34375
646,646,1727961018181,-0.9404297,0.0390625,0.29296875,10.3125,-0.125,-2.875
647,647,1727961018221,-0.9404297,0.076171875,0.2421875,8.84375,6.03125,-2.8125
648,648,1727961018261,-0.94140625,0.07519531,0.24316406,10.375,7.25,2.0
649,649,1727961018301,-0.9902344,0.1328125,0.19628906,8.46875,2.90625,2.375
650,650,1727961018341,-1.0683594,0.033203125,0.265625,-1.1875,18.125,2.25
651,651,1727961018381,-0.9033203,0.01171875,0.22070312,7.375,7.8125,-2.75
652,652,1727961018421,-1.0253906,0.11035156,0.20410156,16.53125,9.125,-5.75
653,653,1727961018461,-1.0996094,0.140625,0.20996094,7.8125,3.71875,-5.15625
654,654,1727961018501,-1.1582031,0.12109375,0.23828125,2.65625,2.5625,-5.75
655,655,1727961018541,-1.1601562,0.123046875,0.17382812,-3.875,2.125,-9.21875
656,656,1727961018581,-1.2441406,0.068359375,0.20605469,-4.09375,16.21875,-11.25
657,657,1727961018621,-1.0917969,0.017578125,0.07714844,0.65625,23.53125,-5.5625
658,658,1727961018661,-0.9609375,0.041015625,-0.0234375,11.71875,28.0,-3.5625
659,659,1727961018701,-0.9794922,0.06933594,-0.087890625,19.21875,28.71875,-9.0
660,660,1727961018741,-0.9794922,0.099609375,-0.07714844,11.8125,21.96875,-15.75
661,661,1727961018781,-0.9042969,0.06347656,-0.08105469,6.875,21.34375,-18.25
662,662,1727961018821,-1.0068359,0.05078125,-0.030273438,2.96875,18.78125,-20.53125
663,663,1727961018861,-0.93359375,-0.016601562,-0.072265625,-7.8125,13.0,-23.6875
664,664,1727961018901,-0.9296875,0.009765625,-0.016601562,-8.5,9.3125,-26.5625
665,665,1727961018941,-0.96777344,-0.013671875,-0.02734375,-13.6875,3.46875,-26.1875
666,666,1727961018981,-0.9628906,-0.056640625,-0.001953125,-14.53125,-0.3125,-25.96875
667,667,1727961019021,-0.953125,-0.0703125,-0.06347656,-12.96875,-1.0,-24.1875
668,668,1727961019061,-0.9013672,-0.053710938,-0.0048828125,-10.875,1.3125,-23.6875
669,669,1727961019101,-0.9863281,-0.109375,0.016601562,-11.1875,-0.375,-20.71875
670,670,1727961019141,-0.95410156,-0.11816406,-0.017578125,-3.375,-3.0,-16.0
671,671,1727961019181,-0.9921875,-0.13671875,-0.0029296875,1.5625,3.03125,-13.4375
672,672,1727961019221,-0.9785156,-0.14453125,0.0068359375,-0.5625,1.8125,-15.09375
673,673,1727961019261,-0.97558594,-0.17871094,0.021484375,0.46875,2.96875,-7.8125
674,674,1727961019301,-0.9785156,-0.16113281,0.034179688,0.59375,-0.5,-4.71875
675,675,1727961019341,-0.95996094,-0.16503906,0.052734375,-1.40625,-0.0625,-3.0
676,676,1727961019381,-0.97558594,-0.16503906,0.034179688,-1.71875,3.53125,1.3125
677,677,1727961019421,-0.9892578,-0.15820312,0.017578125,-8.125,7.3125,7.90625
678,678,1727961019461,-1.0029297,-0.18457031,0.020507812,-9.53125,6.875,11.03125
679,679,1727961019501,-0.9765625,-0.17871094,0.0048828125,-10.21875,12.875,11.8125
680,680,1727961019541,-1.1064453,-0.20214844,-0.09863281,-8.375,10.84375,17.1875
681,681,1727961019581,-1.0849609,-0.14746094,-0.01953125,-2.9375,11.09375,9.375
682,682,1727961019621,-1.0380859,-0.16210938,0.034179688,-16.125,5.46875,5.0625
683,683,1727961019661,-1.0478516,-0.16113281,-0.009765625,-13.5625,3.34375,6.15625
684,684,1727961019701,-1.0517578,-0.13964844,-0.055664062,-5.375,7.4375,2.5
685,685,1727961019741,-1.1308594,-0.10839844,-0.07519531,-5.625,10.125,3.46875
686,686,1727961019781,-1.125,-0.034179688,-0.08105469,-6.71875,8.78125,7.90625
687,687,1727961019821,-1.1005859,-0.032226562,-0.11328125,-8.75,8.53125,8.90625
688,688,1727961019861,-1.09375,-0.024414062,-0.1015625,-11.84375,5.71875,11.03125
689,689,1727961019901,-1.1015625,-0.0087890625,-0.1484375,-8.6875,-0.6875,14.625
690,690,1727961019941,-1.0458984,0.087890625,-0.140625,-4.28125,-10.6875,15.0625
691,691,1727961019981,-1.0283203,0.083984375,-0.12011719,-10.625,-19.4375,17.0625
692,692,1727961020021,-0.9873047,0.05078125,-0.043945312,-13.5,-17.59375,13.71875
693,693,1727961020061,-0.9824219,0.047851562,-0.055664062,-8.125,-15.53125,10.46875
694,694,1727961020101,-1.0117188,0.09863281,-0.08886719,1.5,-18.03125,13.03125
695,695,1727961020141,-1.0097656,0.052734375,0.026367188,-7.9375,-13.9375,8.34375
696,696,1727961020181,-0.98535156,0.07128906,0.0390625,-15.15625,-26.125,8.59375
697,697,1727961020221,-0.9550781,0.03515625,0.049804688,-15.46875,-32.5,9.6875
698,698,1727961020261,-0.87402344,0.059570312,0.04296875,-14.65625,-41.28125,6.5625
699,699,1727961020301,-0.9248047,-0.01171875,0.09667969,-14.25,-38.71875,16.90625
700,700,1727961020341,-0.9042969,0.051757812,0.10546875,-9.71875,-38.84375,10.1875
701,701,1727961020381,-0.87109375,0.06347656,0.15625,-8.0625,-33.78125,7.25
702,702,1727961020421,-0.9658203,0.0078125,0.1640625,-9.0625,-23.40625,12.9375
703,703,1727961020461,-0.8652344,0.10449219,0.20996094,-5.625,-24.5625,6.9375
704,704,1727961020501,-0.9160156,0.041992188,0.24804688,-8.5,-12.96875,3.65625
705,705,1727961020541,-0.8828125,-0.001953125,0.23632812,-4.78125,-12.96875,1.8125
706,706,1727961020581,-0.8720703,0.017578125,0.28222656,2.125,-8.0625,-4.65625
707,707,1727961020621,-0.8876953,0.016601562,0.24707031,8.46875,3.40625,-9.34375
708,708,1727961020661,-0.9042969,0.05859375,0.25878906,13.84375,2.25,-6.59375
709,709,1727961020701,-0.9277344,0.049804688,0.2763672,6.6875,10.375,-9.28125
710,710,1727961020741,-1.0390625,0.140625,0.17382812,18.78125,7.90625,-2.40625
711,711,1727961020781,-1.1269531,0.044921875,0.3076172,5.59375,15.4375,-1.125
712,712,1727961020821,-0.9628906,-0.020507812,0.28027344,11.15625,4.125,-3.1875
713,713,1727961020861,-1.078125,0.125,0.13574219,14.375,9.125,-7.8125
714,714,1727961020901,-1.2568359,0.11816406,0.28222656,6.6875,15.96875,-1.0625
715,715,1727961020941,-1.1210938,0.08886719,0.19824219,0.96875,4.9375,-2.28125
716,716,1727961020981,-1.0908203,0.07714844,0.115234375,2.5,9.5,-7.28125
717,717,1727961021021,-1.0507812,0.07324219,0.12988281,1.09375,20.0,-10.09375
718,718,1727961021061,-1.0214844,0.01171875,-0.015625,6.875,30.0,-5.5
719,719,1727961021101,-1.0068359,0.0625,-0.05078125,18.53125,29.34375,-8.625
720,720,1727961021141,-1.0283203,0.12109375,-0.049804688,15.71875,21.96875,-16.5
721,721,1727961021181,-0.9814453,0.08203125,-0.07324219,9.5625,18.96875,-17.65625
722,722,1727961021221,-0.98339844,0.06933594,-0.01953125,11.40625,18.0625,-17.59375
723,723,1727961021261,-0.9902344,0.0107421875,-0.015625,2.84375,13.53125,-19.90625
724,724,1727961021301,-1.0009766,-0.01953125,-0.0234375,-3.75,14.03125,-22.21875
725,725,1727961021341,-0.9667969,-0.01171875,0.00390625,-4.21875,6.15625,-23.28125
726,726,1727961021381,-0.9707031,-0.0546875,-0.024414062,-7.59375,1.28125,-24.6875
727,727,1727961021421,-0.8876953,-0.044921875,-0.03125,-8.25,2.90625,-25.65625
728,728,1727961021461,-0.9511719,-0.06640625,-0.018554688,-1.3125,3.9375,-23.34375
729,729,1727961021501,-0.9111328,-0.078125,-0.001953125,-1.53125,4.1875,-23.875
730,730,1727961021541,-0.96777344,-0.111328125,-0.0068359375,-0.125,4.25,-20.59375
731,731,1727961021581,-1.0029297,-0.15527344,-0.0029296875,2.125,2.0,-16.8125
732,732,1727961021621,-0.96191406,-0.12988281,0.0146484375,6.875,4.75,-12.78125
733,733,1727961021661,-1.015625,-0.14257812,-0.009765625,6.03125,4.75,-9.15625
734,734,1727961021701,-0.9580078,-0.13671875,-0.01171875,2.84375,2.3125,-7.875
735,735,1727961021741,-0.9941406,-0.16894531,0.016601562,2.0,0.71875,-1.0625
736,736,1727961021781,-0.93652344,-0.125,0.025390625,-1.53125,2.0,1.3125
737,737,1727961021821,-0.98339844,-0.15039062,0.0009765625,-5.5,3.71875,8.90625
738,738,1727961021861,-0.9550781,-0.16894531,0.048828125,-10.8125,3.46875,11.9375
739,739,1727961021901,-1.0224609,-0.23242188,0.06640625,-11.0625,2.0,12.875
740,740,1727961021941,-1.03125,-0.22265625,0.0107421875,-5.09375,4.1875,10.1875
741,741,1727961021981,-1.0009766,-0.15625,0.048828125,2.65625,14.21875,7.125
742,742,1727961022021,-1.0224609,-0.13769531,0.018554688,-10.625,14.75,3.21875
743,743,1727961022061,-1.1035156,-0.1796875,-0.0546875,-9.53125,13.90625,4.25
744,744,1727961022101,-1.2822266,-0.14941406,-0.06640625,-1.65625,7.84375,-2.21875
745,745,1727961022141,-1.2978516,-0.15429688,-0.0546875,-2.21875,1.4375,-5.03125
746,746,1727961022181,-1.2724609,-0.13476562,-0.07910156,-0.9375,0.28125,2.0625
747,747,1727961022221,-1.1552734,-0.06738281,-0.123046875,-1.34375,-6.25,11.40625
748,748,1727961022261,-1.0234375,0.024414062,-0.13574219,0.59375,-8.0,17.1875
749,749,1727961022301,-0.9707031,0.11230469,-0.10253906,-4.90625,-14.84375,17.375
750,750,1727961022341,-0.9794922,0.14746094,-0.08691406,-10.09375,-20.40625,18.21875
751,751,1727961022381,-0.9316406,0.1015625,-0.02734375,-13.1875,-22.84375,12.5
752,752,1727961022421,-0.95703125,0.00390625,0.024414062,-12.21875,-18.5625,12.5
753,753,1727961022461,-0.98046875,-0.0107421875,0.033203125,-9.21875,-24.84375,10.46875
754,754,1727961022501,-0.9433594,0.032226562,-0.0068359375,-9.21875,-32.90625,11.28125
755,755,1727961022541,-0.9609375,0.09765625,0.041015625,-5.09375,-29.75,14.09375
756,756,1727961022581,-0.9814453,0.018554688,0.076171875,-13.0625,-31.03125,15.0
757,757,1727961022621,-0.92089844,0.083984375,0.10546875,-9.0,-37.6875,13.84375
758,758,1727961022661,-0.9345703,0.026367188,0.14746094,-13.625,-29.5625,9.8125
759,759,1727961022701,-0.890625,-0.009765625,0.15039062,-8.75,-25.28125,6.8125
760,760,1727961022741,-0.8876953,0.028320312,0.17285156,-3.90625,-21.3125,8.21875
761,761,1727961022781,-0.85839844,0.072265625,0.18652344,-1.65625,-17.90625,9.03125
762,762,1727961022821,-0.8798828,0.076171875,0.22265625,-3.875,-8.0,8.28125
763,763,1727961022861,-0.890625,0.059570312,0.2421875,-5.25,-6.1875,4.125
764,764,1727961022901,-0.9355469,-0.001953125,0.2685547,-6.53125,0.0,-2.15625
765,765,1727961022941,-0.88378906,-0.0087890625,0.2763672,0.65625,0.0,-3.875
766,766,1727961022981,-0.9169922,0.0,0.33691406,3.65625,5.125,-4.71875
767,767,1727961023021,-0.9160156,0.00390625,0.2890625,5.34375,4.1875,-5.4375
768,768,1727961023061,-1.0556641,0.111328125,0.27539062,8.90625,3.46875,1.4375
