,Unnamed: 0,timestamp,accel_x,accel_y,accel_z,gyro_x,gyro_y,gyro_z
0,0,1727959070330,-0.94140625,-0.18359375,-0.20898438,-24.78125,4.9375,39.59375
1,1,1727959070370,-1.2421875,-0.2890625,-0.23925781,-17.28125,23.59375,43.0625
2,2,1727959070410,-1.4990234,-0.09667969,-0.0390625,-16.75,14.15625,31.46875
3,3,1727959070450,-1.4365234,-0.20410156,0.078125,-14.3125,-33.15625,16.03125
4,4,1727959070490,-1.2841797,-0.28710938,0.020507812,-21.5625,-90.15625,-49.75
5,5,1727959070530,-1.3398438,-0.4453125,0.07519531,-73.9375,-70.4375,-116.65625
6,6,1727959070570,-1.0507812,-0.79589844,-0.3642578,106.125,-24.6875,-136.71875
7,7,1727959070610,-1.7714844,0.4296875,-0.5126953,-196.4375,-102.8125,-195.5
8,8,1727959070650,-1.0058594,0.06640625,0.5341797,-49.8125,-39.9375,-144.0
9,9,1727959070690,-1.2382812,-0.8046875,-0.5917969,79.5,-22.65625,-137.34375
10,10,1727959070730,-0.8466797,0.4423828,-0.038085938,67.3125,-31.3125,-106.21875
11,11,1727959070770,-0.57910156,-0.2861328,0.020507812,87.375,-54.75,-92.53125
12,12,1727959070810,-0.5126953,0.115234375,-0.052734375,90.9375,-41.53125,-69.90625
13,13,1727959070850,-0.24804688,0.15625,-0.18945312,59.625,-21.4375,-26.6875
14,14,1727959070890,-0.32128906,-0.15527344,-0.041992188,11.9375,14.625,2.125
15,15,1727959070930,-0.2890625,-0.40625,0.103515625,25.1875,31.125,26.53125
16,16,1727959070970,-0.4482422,0.017578125,0.25976562,4.3125,89.78125,67.0
17,17,1727959071010,-1.7509766,-0.15332031,-0.36914062,-107.6875,122.1875,102.09375
18,18,1727959071050,-2.0,-1.5878906,-0.23242188,-131.1875,73.71875,49.71875
19,19,1727959071090,-0.7246094,0.17382812,-0.0546875,54.625,23.375,71.40625
20,20,1727959071130,-0.9169922,0.1484375,-0.13183594,48.03125,31.40625,100.9375
21,21,1727959071170,-1.4033203,-0.26757812,-0.20214844,-40.96875,35.6875,64.4375
22,22,1727959071210,-0.9238281,-0.03515625,-0.16894531,5.21875,9.5,72.1875
23,23,1727959071250,-0.9404297,0.09667969,-0.28222656,40.09375,39.21875,83.1875
24,24,1727959071290,-0.99316406,-0.24316406,-0.29003906,10.46875,9.6875,96.78125
25,25,1727959071330,-0.7597656,-0.328125,-0.13769531,-20.40625,1.03125,85.4375
26,26,1727959071370,-0.72558594,-0.15136719,-0.08691406,-26.4375,14.875,58.9375
27,27,1727959071410,-0.8359375,-0.26953125,-0.18066406,8.46875,28.65625,36.71875
28,28,1727959071450,-0.875,-0.30078125,-0.11425781,-31.4375,21.65625,13.09375
29,29,1727959071490,-1.0341797,-0.115234375,-0.07714844,-19.59375,6.6875,11.46875
30,30,1727959071530,-1.1113281,-0.21386719,-0.2734375,-9.96875,2.0625,21.65625
31,31,1727959071570,-1.2724609,0.046875,-0.25390625,-19.96875,7.4375,23.59375
32,32,1727959071610,-1.7236328,0.3466797,-0.07128906,-17.90625,5.78125,30.375
33,33,1727959071650,-1.2675781,-0.5214844,-0.28125,13.96875,-46.53125,26.90625
34,34,1727959071690,-1.3095703,-0.22460938,0.26367188,-23.6875,-66.46875,-62.6875
35,35,1727959071730,-1.3457031,-0.3486328,0.0234375,-44.28125,-63.4375,-114.75
36,36,1727959071770,-1.1074219,-0.48242188,-0.40820312,31.0,-40.40625,-144.25
37,37,1727959071810,-1.5380859,0.22265625,-0.48046875,-137.84375,-88.625,-171.71875
38,38,1727959071850,-0.9326172,0.27929688,0.60839844,-220.0625,-11.4375,-137.71875
39,39,1727959071890,-1.0292969,-0.79296875,-0.47070312,67.0625,-17.28125,-117.09375
40,40,1727959071930,-0.8105469,0.18359375,0.04296875,70.40625,-54.03125,-107.5625
41,41,1727959071970,-0.5546875,0.08886719,-0.09765625,94.21875,-59.84375,-101.625
42,42,1727959072010,-0.64746094,-0.15332031,0.037109375,78.0,-50.0625,-94.5625
43,43,1727959072050,-0.39941406,0.15332031,-0.068359375,80.0,-41.6875,-55.1875
44,44,1727959072090,-0.42285156,-0.025390625,-0.0625,27.5625,-4.03125,-12.34375
45,45,1727959072130,-0.45703125,-0.3720703,0.08886719,17.5625,23.84375,22.25
46,46,1727959072170,-0.42285156,-0.36132812,0.0390625,-37.75,63.71875,50.40625
47,47,1727959072210,-0.6767578,-0.0546875,-0.20703125,-32.3125,79.625,99.65625
48,48,1727959072250,-2.0,-0.2626953,-0.31445312,-145.09375,119.84375,131.5625
49,49,1727959072290,-1.9511719,-1.7197266,0.08105469,-170.78125,74.4375,20.25
50,50,1727959072330,-0.44921875,0.47753906,-0.24707031,124.5625,0.78125,71.28125
51,51,1727959072370,-1.1210938,0.29882812,-0.19238281,51.375,32.625,99.34375
52,52,1727959072410,-1.3486328,-0.25097656,-0.34570312,-11.125,30.75,77.625
53,53,1727959072450,-0.8173828,-0.171875,-0.19921875,-15.34375,10.0,72.5
54,54,1727959072490,-0.9296875,0.07128906,-0.3017578,-18.8125,40.375,60.34375
55,55,1727959072530,-0.9033203,-0.2578125,-0.17675781,-35.40625,1.4375,82.625
56,56,1727959072570,-0.90527344,-0.22265625,-0.020507812,-21.875,2.4375,71.875
57,57,1727959072610,-0.7939453,-0.234375,-0.08691406,26.09375,13.71875,50.71875
58,58,1727959072650,-0.7949219,-0.19335938,-0.2705078,4.0,13.34375,10.65625
59,59,1727959072690,-0.8769531,-0.09082031,-0.3251953,-34.4375,21.65625,-2.46875
60,60,1727959072730,-1.0839844,-0.087890625,-0.15234375,-39.25,11.03125,11.34375
61,61,1727959072770,-1.0712891,-0.12597656,-0.2685547,-13.8125,-0.5,29.65625
62,62,1727959072810,-1.21875,-0.08300781,-0.21679688,-1.84375,9.6875,38.25
63,63,1727959072850,-1.4589844,-0.03515625,-0.14550781,2.78125,22.4375,38.1875
64,64,1727959072890,-1.3955078,-0.2890625,-0.033203125,19.75,-25.34375,26.40625
65,65,1727959072930,-1.2304688,-0.19628906,0.12792969,-16.625,-57.625,-45.59375
66,66,1727959072970,-1.4902344,-0.34375,0.17285156,-50.5,-64.09375,-119.8125
67,67,1727959073010,-1.1640625,-0.60253906,-0.42871094,31.125,-42.6875,-143.03125
68,68,1727959073050,-1.6474609,0.28808594,-0.5751953,-210.15625,-82.09375,-184.15625
69,69,1727959073090,-1.0488281,0.18652344,0.35742188,-63.5625,-15.40625,-157.71875
70,70,1727959073130,-1.2070312,-0.7138672,-0.40722656,53.8125,-18.25,-147.21875
71,71,1727959073170,-0.93652344,0.20800781,0.13085938,39.90625,-34.6875,-121.09375
72,72,1727959073210,-0.7734375,-0.4482422,0.09375,54.71875,-57.5625,-123.1875
73,73,1727959073250,-0.5830078,0.1171875,-0.00390625,90.75,-66.0625,-103.65625
74,74,1727959073290,-0.35839844,0.115234375,-0.0087890625,75.5,-66.96875,-64.65625
75,75,1727959073330,-0.28222656,0.06347656,-0.005859375,25.8125,-41.15625,-36.6875
76,76,1727959073370,-0.328125,-0.2265625,0.10449219,15.0625,-14.34375,-3.8125
77,77,1727959073410,-0.27148438,-0.4375,0.0234375,-12.78125,16.28125,31.53125
78,78,1727959073450,-0.5097656,-0.8642578,0.16210938,-33.65625,40.75,41.5
79,79,1727959073490,-0.5107422,-0.38476562,0.028320312,2.3125,61.5,77.3125
80,80,1727959073530,-0.8232422,-0.34277344,0.38671875,-98.53125,141.40625,106.75
81,81,1727959073570,-2.0,-0.42382812,0.21191406,-108.53125,9.125,62.53125
82,82,1727959073610,-0.20214844,-0.047851562,-0.16601562,-32.3125,29.90625,70.1875
83,83,1727959073650,-1.4365234,0.37695312,-0.09472656,-53.65625,40.34375,80.5
84,84,1727959073690,-1.4179688,-0.37109375,-0.22363281,-130.9375,26.21875,85.0625
85,85,1727959073730,-0.86816406,-0.0009765625,-0.38378906,-53.25,3.03125,70.78125
86,86,1727959073770,-0.8496094,-0.017578125,-0.4033203,-61.90625,27.21875,69.75
87,87,1727959073810,-0.97753906,-0.2607422,-0.38867188,-98.09375,36.375,65.28125
88,88,1727959073850,-1.0771484,-0.37402344,-0.22753906,-120.375,11.53125,44.96875
89,89,1727959073890,-0.80078125,-0.041015625,-0.21972656,-96.6875,-27.90625,38.9375
90,90,1727959073930,-1.1826172,-0.35058594,-0.13574219,-99.0625,23.59375,59.75
91,91,1727959073970,-0.9892578,0.091796875,-0.14453125,-27.65625,31.90625,74.25
92,92,1727959074010,-1.0273438,0.02734375,-0.30566406,6.6875,20.75,81.59375
93,93,1727959074050,-1.1435547,-0.31445312,-0.3671875,31.84375,-11.0,88.0625
94,94,1727959074090,-0.81347656,-0.31640625,-0.1640625,8.78125,-39.5625,100.03125
95,95,1727959074130,-0.68359375,-0.19824219,-0.35058594,-58.0625,-29.96875,54.3125
96,96,1727959074170,-0.72558594,0.0068359375,0.07421875,-47.6875,35.9375,28.78125
97,97,1727959074210,-0.7998047,-0.21582031,-0.19238281,-24.375,13.28125,31.53125
98,98,1727959074250,-0.8652344,-0.24707031,-0.21582031,-31.09375,15.84375,12.8125
99,99,1727959074290,-1.0605469,-0.19335938,-0.23828125,-33.9375,-1.46875,11.09375
100,100,1727959074330,-1.0488281,-0.12597656,-0.12597656,-24.625,-9.78125,10.3125
101,101,1727959074370,-1.2080078,0.034179688,-0.17871094,-14.96875,-7.40625,7.375
102,102,1727959074410,-1.3134766,0.16601562,-0.3076172,-47.5625,-3.4375,21.09375
103,103,1727959074450,-1.546875,-0.0029296875,-0.08886719,-25.15625,-2.40625,41.0625
104,104,1727959074490,-1.1992188,-0.4814453,0.048828125,15.4375,-49.03125,18.78125
105,105,1727959074530,-1.2373047,-0.41503906,0.00390625,68.65625,-57.15625,-52.1875
106,106,1727959074570,-1.2568359,-0.28710938,-0.21484375,-8.0625,-15.34375,-118.5
107,107,1727959074610,-1.2451172,-0.23046875,0.0390625,-124.09375,3.40625,-197.90625
108,108,1727959074650,-1.7431641,0.3046875,-0.21875,-77.21875,-33.46875,-154.4375
109,109,1727959074690,-1.0068359,-0.14160156,0.0107421875,-9.0,-27.84375,-144.78125
110,110,1727959074730,-1.0478516,-0.41015625,-0.3203125,45.15625,-22.21875,-135.875
111,111,1727959074770,-0.98046875,-0.0234375,0.0087890625,20.5625,-21.9375,-135.875
112,112,1727959074810,-0.8466797,-0.24902344,0.046875,51.5625,-38.40625,-138.0625
113,113,1727959074850,-0.5341797,0.09082031,0.020507812,82.6875,-52.1875,-109.8125
114,114,1727959074890,-0.4658203,0.026367188,-0.034179688,53.625,-48.78125,-70.3125
115,115,1727959074930,-0.45996094,-0.051757812,0.033203125,33.84375,-33.15625,-33.71875
116,116,1727959074970,-0.40039062,-0.20117188,0.0546875,8.96875,-7.9375,-3.5
117,117,1727959075010,-0.39648438,-0.36132812,0.055664062,-11.5625,15.71875,19.15625
118,118,1727959075050,-0.515625,-0.8027344,0.0390625,-38.46875,34.46875,41.125
119,119,1727959075090,-0.64941406,-0.89160156,0.2421875,-35.71875,38.0,43.375
120,120,1727959075130,-0.58691406,-0.41015625,0.06542969,-27.65625,51.875,83.59375
121,121,1727959075170,-2.0,-1.7050781,-0.20800781,-192.34375,56.25,38.5625
122,122,1727959075210,-0.20703125,-0.034179688,0.08886719,6.46875,47.78125,74.6875
123,123,1727959075250,-0.7705078,-0.140625,-0.17382812,-113.34375,66.28125,75.1875
124,124,1727959075290,-1.4882812,-0.072265625,-0.08300781,-74.46875,49.25,68.78125
125,125,1727959075330,-1.1064453,-0.07714844,-0.12402344,-57.75,20.8125,62.375
126,126,1727959075370,-0.9746094,0.20703125,-0.28710938,-86.375,16.84375,61.875
127,127,1727959075410,-1.0576172,-0.16699219,-0.32617188,-105.90625,21.53125,75.90625
128,128,1727959075450,-1.0537109,-0.17578125,-0.32910156,-73.5625,37.15625,72.625
129,129,1727959075490,-0.86621094,-0.14746094,-0.35546875,-60.3125,40.4375,68.09375
130,130,1727959075530,-0.8808594,-0.36035156,-0.31640625,-80.40625,12.375,58.875
131,131,1727959075570,-0.91015625,-0.20800781,-0.33007812,-138.03125,-6.0,35.15625
132,132,1727959075610,-0.70410156,-0.041015625,-0.3486328,-172.5,-48.0625,2.71875
133,133,1727959075650,-0.8730469,-0.19824219,-0.2607422,-56.21875,35.6875,17.5
134,134,1727959075690,-0.6220703,-0.1171875,-0.001953125,49.0,-57.875,-96.5625
135,135,1727959075730,-0.3388672,-0.053710938,-0.038085938,38.6875,-40.65625,-61.46875
136,136,1727959075770,-0.45214844,0.0078125,-0.028320312,60.21875,-45.3125,-23.9375
137,137,1727959075810,-0.28515625,-0.02734375,-0.076171875,25.5625,-11.375,12.4375
138,138,1727959075850,-0.33007812,-0.30273438,0.02734375,-61.125,39.46875,43.0625
139,139,1727959075890,-0.6845703,-0.3359375,-0.05859375,-60.6875,71.40625,77.25
140,140,1727959075930,-1.5996094,-0.6269531,-0.47070312,-84.625,75.96875,113.09375
141,141,1727959075970,-2.0,-1.3515625,-0.09472656,-185.5,68.90625,71.53125
142,142,1727959076010,-0.8105469,0.09375,0.10449219,77.375,8.71875,73.09375
143,143,1727959076050,-0.74121094,0.375,-0.36621094,78.71875,23.375,118.34375
144,144,1727959076090,-1.1445312,0.046875,-0.43847656,-14.25,50.71875,86.59375
145,145,1727959076130,-1.3164062,-0.42773438,-0.23535156,-76.3125,25.9375,76.71875
146,146,1727959076170,-0.9394531,-0.15332031,-0.099609375,-65.25,1.5,67.375
147,147,1727959076210,-1.0214844,-0.09375,-0.32226562,-10.875,-10.5625,68.96875
148,148,1727959076250,-0.7470703,-0.115234375,-0.12011719,-36.34375,-35.78125,76.03125
149,149,1727959076290,-0.6953125,-0.055664062,-0.16210938,-2.40625,-9.90625,69.5625
150,150,1727959076330,-0.7558594,-0.15625,-0.15917969,-6.3125,25.9375,51.4375
151,151,1727959076370,-0.9482422,-0.20214844,-0.29101562,-30.53125,19.21875,30.0
152,152,1727959076410,-1.0039062,-0.19335938,-0.041992188,-31.03125,2.0,26.96875
153,153,1727959076450,-1.0859375,-0.28320312,-0.26660156,-23.8125,-11.1875,21.65625
154,154,1727959076490,-1.2001953,-0.083984375,-0.2783203,4.9375,-1.78125,32.09375
155,155,1727959076530,-1.5205078,0.12597656,-0.10253906,3.28125,0.84375,30.625
156,156,1727959076570,-1.5615234,-0.07910156,-0.06542969,19.53125,-28.65625,28.5
157,157,1727959076610,-1.1875,-0.29882812,0.041015625,8.03125,-63.375,-33.59375
158,158,1727959076650,-1.2841797,-0.20996094,-0.16210938,-29.96875,-44.15625,-114.6875
159,159,1727959076690,-0.91015625,-0.5683594,-0.28027344,-10.15625,19.75,-166.34375
160,160,1727959076730,-1.6191406,-0.12597656,0.13183594,-61.40625,-0.0625,-214.5
161,161,1727959076770,-1.2324219,0.6191406,-0.203125,-9.65625,-54.65625,-129.78125
162,162,1727959076810,-0.88378906,-0.48339844,-0.1953125,-32.0625,10.25,-149.90625
163,163,1727959076850,-1.0507812,-0.17871094,-0.038085938,15.125,-30.09375,-116.78125
164,164,1727959076890,-0.5175781,0.1171875,-0.09375,75.96875,-36.28125,-97.96875
165,165,1727959076930,-0.5566406,-0.017578125,-0.017578125,82.3125,-35.125,-84.4375
166,166,1727959076970,-0.3623047,0.17675781,-0.16210938,68.28125,-24.375,-53.40625
167,167,1727959077010,-0.22167969,0.06933594,0.0048828125,31.84375,7.125,-2.46875
168,168,1727959077050,-0.32421875,-0.22753906,-0.055664062,6.46875,53.8125,32.75
169,169,1727959077090,-0.6923828,-0.19628906,-0.15527344,-53.125,84.34375,81.28125
170,170,1727959077130,-1.5195312,0.13476562,-0.6201172,-125.3125,78.46875,131.34375
171,171,1727959077170,-2.0,-1.5107422,-0.23632812,-216.625,81.90625,69.25
172,172,1727959077210,-0.765625,-0.27539062,0.15625,40.75,-18.4375,51.6875
173,173,1727959077250,-0.76660156,0.33984375,-0.3564453,89.65625,10.3125,87.21875
174,174,1727959077290,-1.2470703,0.20410156,-0.52441406,-3.0625,10.90625,83.3125
175,175,1727959077330,-1.2275391,-0.5,-0.08300781,-5.375,28.4375,92.8125
176,176,1727959077370,-0.9326172,-0.04296875,-0.091796875,-32.78125,10.125,65.96875
177,177,1727959077410,-0.8251953,0.13867188,-0.15039062,-44.03125,-9.40625,77.4375
178,178,1727959077450,-0.8339844,-0.171875,-0.11816406,12.625,-8.6875,97.40625
179,179,1727959077490,-0.8935547,-0.30273438,-0.16699219,24.71875,3.84375,69.5625
180,180,1727959077530,-0.7753906,-0.10546875,-0.37109375,7.90625,1.375,30.75
181,181,1727959077570,-0.8642578,0.0107421875,-0.328125,-23.28125,17.375,21.40625
182,182,1727959077610,-1.2402344,-0.30078125,-0.029296875,-15.34375,5.96875,29.9375
183,183,1727959077650,-1.1865234,-0.12792969,-0.2548828,0.59375,-2.21875,32.40625
184,184,1727959077690,-1.3994141,0.046875,-0.04296875,-12.40625,-9.34375,25.0625
185,185,1727959077730,-1.3232422,-0.15332031,-0.08496094,-8.0625,-25.59375,10.25
186,186,1727959077770,-1.1660156,-0.3310547,0.033203125,-24.5625,-60.5,-43.96875
187,187,1727959077810,-1.4287109,-0.36132812,-0.03125,-34.0625,-54.21875,-111.28125
188,188,1727959077850,-1.1435547,-0.6542969,-0.26367188,11.09375,-27.34375,-136.96875
189,189,1727959077890,-1.3212891,-0.013671875,-0.09277344,-20.78125,-18.15625,-192.65625
190,190,1727959077930,-1.5332031,0.93066406,-0.23925781,-51.53125,-27.34375,-144.59375
191,191,1727959077970,-0.86621094,-0.59472656,-0.040039062,-16.125,-2.59375,-118.78125
192,192,1727959078010,-1.125,-0.3486328,-0.22167969,61.8125,-24.5,-123.5625
193,193,1727959078050,-0.7001953,0.21777344,-0.018554688,48.1875,-20.09375,-109.34375
194,194,1727959078090,-0.53808594,-0.15234375,0.049804688,65.0,-33.09375,-102.125
195,195,1727959078130,-0.45214844,-0.061523438,0.09375,80.84375,-41.09375,-63.4375
196,196,1727959078170,-0.46875,0.015625,-0.07421875,74.15625,-28.875,-16.8125
197,197,1727959078210,-0.32910156,-0.068359375,0.024414062,29.65625,3.03125,21.03125
198,198,1727959078250,-0.4189453,-0.30859375,0.059570312,-14.90625,48.15625,45.53125
199,199,1727959078290,-0.68359375,-0.09765625,-0.3642578,-35.59375,58.8125,115.78125
200,200,1727959078330,-2.0,-0.24902344,-0.50097656,-162.0,111.0,145.25
201,201,1727959078370,-2.0,-1.9082031,-0.09277344,-165.46875,69.875,34.53125
202,202,1727959078410,-0.7060547,0.28125,-0.12011719,102.40625,-17.28125,63.875
203,203,1727959078450,-0.8486328,0.33203125,-0.31640625,92.15625,58.9375,115.59375
204,204,1727959078490,-1.5166016,-0.119140625,-0.37402344,35.1875,36.90625,94.59375
205,205,1727959078530,-0.875,-0.36816406,-0.1171875,-79.78125,-4.65625,82.3125
206,206,1727959078570,-0.94433594,0.1484375,-0.09765625,-44.21875,34.09375,59.125
207,207,1727959078610,-0.88671875,0.059570312,-0.06542969,-85.21875,-7.53125,79.625
208,208,1727959078650,-0.8076172,-0.4013672,-0.12792969,-11.625,-12.40625,90.1875
209,209,1727959078690,-0.765625,-0.23632812,-0.20117188,53.6875,-6.71875,63.8125
210,210,1727959078730,-0.6113281,-0.0859375,-0.29785156,59.90625,25.875,47.15625
211,211,1727959078770,-0.9746094,-0.053710938,-0.17285156,21.46875,16.78125,23.0
212,212,1727959078810,-1.1777344,-0.05078125,-0.17285156,3.90625,4.0625,20.3125
213,213,1727959078850,-1.1806641,-0.10644531,-0.2705078,-1.65625,1.5625,24.875
214,214,1727959078890,-1.4228516,-0.005859375,-0.2685547,3.90625,-2.03125,29.46875
215,215,1727959078930,-1.3681641,-0.087890625,-0.1640625,-2.28125,-14.71875,34.71875
216,216,1727959078970,-1.1367188,-0.31933594,-0.005859375,15.0,-43.21875,-9.40625
217,217,1727959079010,-1.4257812,-0.2265625,-0.015625,-13.0625,-52.3125,-86.4375
218,218,1727959079050,-1.2001953,-0.46484375,-0.34765625,1.09375,-28.03125,-128.3125
219,219,1727959079090,-1.4042969,-0.17382812,-0.15136719,51.125,2.25,-164.625
220,220,1727959079130,-1.6005859,0.57128906,-0.29882812,-129.09375,-50.1875,-156.21875
221,221,1727959079170,-0.9482422,-0.0029296875,-0.09472656,73.65625,-42.5625,-105.0
222,222,1727959079210,-0.9785156,-0.25097656,-0.2578125,14.28125,3.09375,-122.75
223,223,1727959079250,-0.8154297,0.030273438,-0.047851562,30.8125,-21.0625,-115.8125
224,224,1727959079290,-0.60839844,-0.072265625,-0.09667969,47.59375,-16.8125,-109.375
225,225,1727959079330,-0.57910156,-0.072265625,0.03125,46.5625,-11.78125,-95.40625
226,226,1727959079370,-0.45410156,0.017578125,-0.10253906,48.625,-3.90625,-64.46875
227,227,1727959079410,-0.37402344,-0.13085938,-0.032226562,39.15625,2.90625,-23.9375
228,228,1727959079450,-0.31933594,-0.2109375,-0.06542969,19.625,24.28125,7.0
229,229,1727959079490,-0.49316406,-0.28222656,-0.14941406,-31.75,63.03125,40.15625
230,230,1727959079530,-0.84375,-0.16015625,-0.38964844,-45.0,44.28125,109.96875
231,231,1727959079570,-1.8193359,-1.0253906,-0.4736328,-168.40625,119.4375,135.84375
232,232,1727959079610,-1.9042969,-1.5146484,0.45703125,-106.34375,33.375,41.25
233,233,1727959079650,-0.51464844,0.37304688,0.029296875,58.9375,-6.71875,68.40625
234,234,1727959079690,-0.9902344,0.56152344,-0.23339844,5.90625,21.46875,111.6875
235,235,1727959079730,-1.5566406,-0.19433594,-0.47070312,-50.375,36.3125,84.09375
236,236,1727959079770,-1.0800781,-0.4892578,-0.29101562,-54.875,0.09375,74.21875
237,237,1727959079810,-1.0039062,0.12011719,-0.31054688,-63.6875,8.34375,62.90625
238,238,1727959079850,-0.578125,0.3310547,-0.22070312,-77.28125,49.78125,89.46875
239,239,1727959079890,-1.8964844,-0.28027344,-0.26171875,-131.0625,59.6875,82.03125
240,240,1727959079930,-1.0498047,-0.3671875,-0.140625,-57.4375,13.78125,66.4375
241,241,1727959079970,-0.8544922,0.16699219,-0.2421875,-16.875,3.90625,77.0
242,242,1727959080010,-0.99902344,-0.013671875,-0.27148438,-46.28125,23.53125,85.125
243,243,1727959080050,-1.0419922,-0.1796875,-0.29785156,-44.4375,45.09375,75.25
244,244,1727959080090,-0.8652344,-0.296875,-0.40039062,-59.71875,10.375,71.28125
245,245,1727959080130,-0.8779297,-0.36035156,-0.40429688,-37.1875,-44.75,75.0
246,246,1727959080170,-0.8017578,-0.3779297,-0.29589844,-115.5,-15.21875,55.78125
247,247,1727959080210,-0.96777344,-0.18847656,-0.07910156,-49.21875,9.875,27.6875
248,248,1727959080250,-0.8808594,-0.111328125,-0.2685547,-49.21875,10.84375,19.15625
249,249,1727959080290,-1.0146484,-0.24902344,-0.2919922,-25.46875,-2.15625,30.3125
250,250,1727959080330,-1.1103516,-0.15917969,-0.22851562,-31.25,7.84375,16.28125
251,251,1727959080370,-1.2265625,0.18652344,-0.17871094,-30.46875,0.40625,23.25
252,252,1727959080410,-1.5546875,0.15527344,-0.14550781,-52.3125,-3.1875,30.875
253,253,1727959080450,-1.3408203,-0.6513672,-0.08984375,-35.53125,-60.9375,-10.34375
254,254,1727959080490,-1.203125,-0.22167969,0.034179688,-65.8125,-52.625,-98.53125
255,255,1727959080530,-1.2783203,-0.30273438,-0.39648438,-35.65625,-24.4375,-134.78125
256,256,1727959080570,-1.0390625,-0.28222656,-0.11230469,-4.65625,36.46875,-159.25
257,257,1727959080610,-1.8144531,0.20800781,-0.17578125,-79.71875,-12.46875,-180.9375
258,258,1727959080650,-0.98828125,0.15429688,0.051757812,25.9375,-62.875,-105.125
259,259,1727959080690,-0.9345703,-0.27734375,-0.0234375,-55.3125,-8.3125,-127.34375
260,260,1727959080730,-0.9091797,-0.15722656,0.080078125,6.6875,-42.125,-107.0625
261,261,1727959080770,-0.72558594,-0.087890625,0.015625,28.5625,-58.25,-98.71875
262,262,1727959080810,-0.7089844,-0.13671875,0.07519531,36.71875,-61.40625,-87.90625
263,263,1727959080850,-0.5517578,0.115234375,-0.051757812,37.875,-57.875,-60.5625
264,264,1727959080890,-0.40722656,-0.00390625,-0.057617188,0.15625,-33.40625,-24.0625
265,265,1727959080930,-0.3623047,-0.19140625,0.057617188,-17.65625,-5.5,9.25
266,266,1727959080970,-0.40429688,-0.35351562,-0.087890625,-62.15625,27.6875,36.90625
267,267,1727959081010,-0.6220703,-0.16992188,-0.17578125,-70.03125,45.03125,90.6875
268,268,1727959081050,-0.93066406,-0.40820312,-0.22460938,-130.3125,64.625,127.5625
269,269,1727959081090,-2.0,-1.4697266,-0.5253906,-215.03125,63.59375,66.21875
270,270,1727959081130,-0.8486328,-0.43847656,0.21289062,3.40625,-3.4375,31.125
271,271,1727959081170,-0.44726562,0.45703125,-0.18652344,43.5,15.71875,100.21875
272,272,1727959081210,-1.2080078,0.40527344,-0.3515625,5.40625,16.9375,109.125
273,273,1727959081250,-1.4960938,-0.4013672,-0.39941406,-16.375,6.09375,69.75
274,274,1727959081290,-0.8105469,-0.24316406,-0.26171875,-70.03125,-9.46875,65.78125
275,275,1727959081330,-0.93847656,-0.00390625,-0.43066406,-83.6875,33.0625,40.21875
276,276,1727959081370,-1.0585938,-0.16601562,-0.037109375,-100.34375,1.6875,59.125
277,277,1727959081410,-0.8574219,-0.19726562,-0.30664062,4.75,-33.875,69.0625
278,278,1727959081450,-0.6689453,0.001953125,-0.21875,-28.40625,-33.03125,50.78125
279,279,1727959081490,-0.7548828,-0.12109375,-0.26757812,21.96875,6.625,41.1875
280,280,1727959081530,-0.7685547,0.034179688,-0.14355469,-17.28125,20.6875,19.15625
281,281,1727959081570,-0.86816406,-0.07421875,-0.2109375,-17.09375,1.03125,19.15625
282,282,1727959081610,-0.9316406,0.0009765625,-0.3828125,-25.46875,-2.875,12.875
283,283,1727959081650,-1.0371094,0.0126953125,-0.27246094,-29.5,3.59375,20.8125
284,284,1727959081690,-1.2705078,-0.029296875,-0.28710938,-18.3125,4.75,40.625
285,285,1727959081730,-1.3486328,-0.06640625,-0.11328125,-21.125,-0.9375,64.0625
286,286,1727959081770,-1.2949219,-0.12207031,-0.21484375,-49.34375,-7.46875,59.75
287,287,1727959081810,-1.0859375,-0.3779297,-0.0029296875,-29.9375,-27.53125,1.3125
288,288,1727959081850,-1.2646484,-0.3935547,-0.12695312,-81.0,-44.9375,-94.3125
289,289,1727959081890,-0.9863281,-0.47070312,-0.46484375,11.21875,-9.125,-152.46875
290,290,1727959081930,-1.5380859,0.017578125,-0.015625,-3.6875,58.03125,-203.9375
291,291,1727959081970,-2.0,0.5722656,-0.19042969,64.375,-3.0625,-172.25
292,292,1727959082010,-1.2304688,0.63964844,0.09082031,-87.0,-59.90625,-138.0625
293,293,1727959082050,-0.89941406,-0.8544922,0.056640625,-38.96875,-52.375,-114.40625
294,294,1727959082090,-1.2158203,0.19140625,0.17480469,-30.46875,-50.78125,-133.375
295,295,1727959082130,-0.6689453,0.15429688,0.11328125,-39.8125,-62.28125,-142.21875
296,296,1727959082170,-0.6015625,0.037109375,0.05078125,-55.9375,-69.03125,-130.375
297,297,1727959082210,-0.6376953,-0.053710938,-0.140625,-38.15625,-55.25,-105.3125
298,298,1727959082250,-0.5029297,-0.3544922,-0.16699219,-15.6875,-46.71875,-78.3125
299,299,1727959082290,-0.42871094,-0.37402344,-0.12988281,50.46875,-49.6875,-35.34375
300,300,1727959082330,-0.030273438,0.005859375,-0.095703125,48.625,-37.5625,5.125
301,301,1727959082370,-0.25878906,-0.43945312,-0.032226562,-59.84375,43.625,35.75
302,302,1727959082410,-0.71777344,-0.5957031,0.0703125,-73.9375,54.5625,83.46875
303,303,1727959082450,-1.4462891,-1.6523438,-0.26660156,-124.28125,48.4375,89.9375
304,304,1727959082490,-1.9179688,-1.2402344,0.01171875,-147.53125,26.96875,39.15625
305,305,1727959082530,-0.30859375,0.15917969,-0.21386719,75.3125,34.46875,64.75
306,306,1727959082570,-1.4716797,0.6933594,-0.20214844,-52.375,22.125,96.71875
307,307,1727959082610,-1.4960938,-0.4189453,-0.22558594,-115.5,28.3125,79.03125
308,308,1727959082650,-1.0429688,-0.0390625,-0.17773438,-53.375,4.875,70.0
309,309,1727959082690,-0.98535156,0.099609375,-0.37304688,-7.53125,-8.5625,82.4375
310,310,1727959082730,-0.96484375,-0.0703125,-0.40625,-58.0625,19.03125,81.03125
311,311,1727959082770,-0.8232422,-0.3388672,-0.39941406,-62.6875,28.96875,76.59375
312,312,1727959082810,-0.86621094,-0.50390625,-0.328125,-48.84375,-60.5625,86.03125
313,313,1727959082850,-0.8496094,-0.421875,-0.17773438,-113.46875,-8.0625,44.90625
314,314,1727959082890,-0.88183594,-0.052734375,-0.28515625,-6.53125,-13.4375,22.8125
315,315,1727959082930,-0.7988281,0.028320312,-0.15820312,-35.71875,3.15625,24.59375
316,316,1727959082970,-1.1503906,-0.171875,-0.28320312,-29.875,2.4375,32.21875
317,317,1727959083010,-1.2392578,-0.08886719,-0.17773438,-35.84375,-5.5625,28.84375
318,318,1727959083050,-1.3466797,0.009765625,-0.23828125,-24.75,-5.75,40.21875
319,319,1727959083090,-1.4804688,-0.14355469,-0.09863281,-40.25,-26.375,23.25
320,320,1727959083130,-1.0556641,-0.37304688,0.07910156,-41.53125,-70.28125,-40.125
321,321,1727959083170,-1.3505859,-0.14257812,-0.18359375,-51.84375,-16.3125,-127.75
322,322,1727959083210,-1.0800781,-0.39160156,-0.08300781,-36.21875,39.46875,-151.5625
323,323,1727959083250,-1.5546875,-0.051757812,0.07324219,-61.84375,-13.9375,-191.46875
324,324,1727959083290,-1.2851562,0.46484375,-0.32714844,-48.40625,-83.5,-113.0
325,325,1727959083330,-0.84472656,-0.25585938,-0.025390625,-54.59375,0.84375,-130.3125
326,326,1727959083370,-1.0390625,-0.4013672,-0.10253906,21.90625,-30.09375,-112.625
327,327,1727959083410,-0.7392578,0.0068359375,0.0029296875,20.8125,-30.21875,-100.34375
328,328,1727959083450,-0.49414062,0.015625,-0.0009765625,39.96875,-35.53125,-86.5
329,329,1727959083490,-0.48632812,-0.0068359375,-0.060546875,45.9375,-30.78125,-50.78125
330,330,1727959083530,-0.29003906,0.020507812,-0.12597656,39.46875,-17.09375,-7.71875
331,331,1727959083570,-0.3564453,-0.2783203,-0.02734375,2.84375,14.28125,29.03125
332,332,1727959083610,-0.56347656,-0.08691406,-0.13183594,-30.15625,52.28125,65.84375
333,333,1727959083650,-0.9511719,0.23046875,-0.0107421875,-76.375,55.46875,125.21875
334,334,1727959083690,-2.0,-0.7392578,-0.6640625,-118.125,101.96875,129.5625
335,335,1727959083730,-1.3886719,-1.5693359,0.45117188,-214.3125,14.21875,33.84375
336,336,1727959083770,-0.7236328,0.43554688,-0.2607422,143.90625,-18.09375,63.03125
337,337,1727959083810,-1.1455078,0.39453125,-0.39746094,41.65625,33.4375,76.21875
338,338,1727959083850,-1.2441406,-0.13769531,-0.3154297,-33.78125,7.375,69.6875
339,339,1727959083890,-0.953125,0.05078125,-0.07421875,-73.3125,1.9375,56.25
340,340,1727959083930,-0.9423828,0.049804688,-0.27148438,-87.0625,-2.75,64.375
341,341,1727959083970,-0.89160156,-0.37597656,-0.29589844,-15.625,-24.6875,85.875
342,342,1727959084010,-0.85058594,-0.3017578,-0.19824219,11.40625,-26.875,68.34375
343,343,1727959084050,-0.70214844,-0.01953125,-0.27929688,19.6875,-9.53125,52.46875
344,344,1727959084090,-0.7998047,-0.08105469,-0.24902344,-6.1875,12.6875,36.1875
345,345,1727959084130,-0.95214844,-0.0859375,-0.19433594,-16.96875,15.625,31.46875
346,346,1727959084170,-1.1201172,-0.17578125,-0.20703125,-11.5,2.1875,35.03125
347,347,1727959084210,-1.2978516,-0.30078125,-0.19335938,18.96875,0.40625,39.59375
348,348,1727959084250,-1.4345703,-0.19335938,0.016601562,15.3125,-12.59375,16.34375
349,349,1727959084290,-1.2177734,-0.390625,-0.07519531,5.78125,-57.15625,-42.0
350,350,1727959084330,-1.3574219,-0.26757812,-0.33691406,-25.03125,-30.28125,-120.875
351,351,1727959084370,-1.2802734,-0.45703125,-0.22558594,30.125,39.40625,-151.4375
352,352,1727959084410,-1.8125,0.15917969,-0.43652344,5.34375,-23.9375,-179.6875
353,353,1727959084450,-1.1162109,0.26757812,0.0126953125,50.53125,-68.875,-123.5625
354,354,1727959084490,-0.9736328,0.045898438,-0.125,-4.59375,-4.15625,-119.65625
355,355,1727959084530,-0.9921875,-0.25585938,-0.26171875,34.40625,-13.375,-113.90625
356,356,1727959084570,-0.6826172,0.15917969,-0.08203125,14.5,-9.90625,-98.78125
357,357,1727959084610,-0.5341797,-0.11230469,-0.0009765625,36.53125,-14.34375,-84.0
358,358,1727959084650,-0.4716797,0.03515625,-0.048828125,44.96875,-11.4375,-52.9375
359,359,1727959084690,-0.2705078,-0.059570312,-0.1171875,41.78125,-4.84375,-12.40625
360,360,1727959084730,-0.2734375,-0.12792969,-0.119140625,31.71875,12.8125,21.71875
361,361,1727959084770,-0.4169922,-0.17773438,-0.1953125,-22.90625,50.59375,50.40625
362,362,1727959084810,-0.7753906,-0.016601562,-0.20019531,-44.5,33.90625,103.875
363,363,1727959084850,-2.0,-0.19238281,-0.7207031,-152.71875,104.59375,133.90625
364,364,1727959084890,-1.4492188,-1.6855469,0.3095703,-148.625,42.28125,49.59375
365,365,1727959084930,-0.6982422,0.3408203,-0.1875,105.6875,-9.84375,73.28125
366,366,1727959084970,-1.0947266,0.48339844,-0.17382812,46.4375,23.53125,101.90625
367,367,1727959085010,-1.4042969,-0.3310547,-0.25683594,-77.90625,4.4375,63.53125
368,368,1727959085050,-0.88964844,0.123046875,-0.19042969,-43.78125,-13.875,74.09375
369,369,1727959085090,-0.9394531,-0.0078125,-0.30664062,-75.34375,-15.40625,75.90625
370,370,1727959085130,-0.89453125,-0.38867188,-0.20898438,-34.375,-21.5,77.375
371,371,1727959085170,-0.80566406,-0.27148438,-0.19238281,7.3125,-22.28125,50.28125
372,372,1727959085210,-0.65234375,0.051757812,-0.2607422,9.3125,-16.6875,39.71875
373,373,1727959085250,-0.8066406,-0.032226562,-0.21679688,13.53125,8.28125,41.4375
374,374,1727959085290,-1.0087891,-0.034179688,-0.17675781,6.75,8.09375,31.78125
375,375,1727959085330,-1.15625,-0.13183594,-0.23535156,-8.1875,0.28125,31.78125
376,376,1727959085370,-1.3847656,-0.21679688,-0.17285156,7.125,-0.0625,46.375
377,377,1727959085410,-1.3642578,-0.37304688,-0.0009765625,35.625,-21.375,28.65625
378,378,1727959085450,-1.2695312,-0.43066406,-0.31054688,66.09375,-56.78125,-25.21875
379,379,1727959085490,-1.4130859,-0.12011719,-0.4013672,-35.96875,-25.96875,-123.3125
380,380,1727959085530,-1.4111328,-0.21972656,0.026367188,2.375,24.71875,-157.5
381,381,1727959085570,-1.6367188,0.19433594,-0.41503906,55.34375,-12.09375,-176.59375
382,382,1727959085610,-1.0351562,0.11816406,0.19433594,-0.0625,-78.125,-114.21875
383,383,1727959085650,-0.8466797,0.055664062,-0.15917969,-30.21875,-0.25,-109.09375
384,384,1727959085690,-0.9589844,-0.375,-0.28515625,19.21875,-7.15625,-100.96875
385,385,1727959085730,-0.6347656,0.05078125,-0.11621094,20.0,-22.46875,-97.4375
386,386,1727959085770,-0.55371094,-0.09765625,-0.091796875,46.125,-18.9375,-100.28125
387,387,1727959085810,-0.5859375,0.032226562,-0.15820312,49.0625,-10.03125,-74.90625
388,388,1727959085850,-0.4765625,-0.119140625,-0.041015625,56.4375,-9.15625,-31.09375
389,389,1727959085890,-0.27734375,-0.1484375,-0.051757812,52.71875,8.46875,10.40625
390,390,1727959085930,-0.40527344,-0.20800781,-0.06542969,-1.65625,61.9375,41.96875
391,391,1727959085970,-0.7734375,-0.06640625,-0.296875,-37.75,71.28125,103.125
392,392,1727959086010,-1.6572266,0.12109375,-0.20117188,-144.71875,91.96875,151.84375
393,393,1727959086050,-2.0,-1.6533203,-0.49121094,-93.75,70.84375,76.46875
394,394,1727959086090,-0.8886719,-0.14648438,0.07714844,76.9375,-23.34375,55.96875
395,395,1727959086130,-0.7910156,0.43652344,-0.20898438,69.1875,3.40625,84.40625
396,396,1727959086170,-1.4111328,-0.041992188,-0.40722656,7.8125,9.75,77.875
397,397,1727959086210,-0.8300781,-0.2626953,-0.2109375,-46.15625,-20.46875,83.78125
398,398,1727959086250,-1.0195312,0.11328125,-0.20117188,-31.875,2.78125,69.1875
399,399,1727959086290,-0.85058594,-0.0009765625,-0.18847656,-28.34375,-17.53125,80.78125
400,400,1727959086330,-0.8925781,-0.20605469,-0.15625,7.6875,-17.21875,76.53125
401,401,1727959086370,-0.7607422,-0.15136719,-0.2763672,22.5,-22.84375,58.875
402,402,1727959086410,-0.54785156,-0.10546875,-0.055664062,27.09375,-29.5,-79.78125
403,403,1727959086450,-0.46679688,-0.08203125,-0.034179688,39.0,-18.21875,-49.875
404,404,1727959086490,-0.49414062,-0.0146484375,-0.12695312,59.8125,-19.375,-9.71875
405,405,1727959086530,-0.33984375,-0.06542969,-0.15234375,5.84375,17.0625,22.5625
406,406,1727959086570,-0.6015625,-0.041015625,-0.10644531,-74.71875,52.59375,71.53125
407,407,1727959086610,-1.0537109,0.1171875,-0.21582031,-107.25,70.65625,131.6875
408,408,1727959086650,-2.0,-0.8828125,-0.56152344,-98.96875,77.75,108.5
409,409,1727959086690,-0.80859375,-1.2490234,0.48535156,-193.5625,-9.96875,40.15625
410,410,1727959086730,-0.7949219,0.41796875,-0.2626953,112.46875,-23.09375,69.3125
411,411,1727959086770,-1.0429688,0.4267578,-0.42871094,-2.625,12.125,75.375
412,412,1727959086810,-1.2021484,-0.05078125,-0.49804688,-40.84375,-0.5,75.4375
413,413,1727959086850,-0.8535156,-0.2919922,-0.19824219,-26.0625,4.5,87.625
414,414,1727959086890,-0.9238281,-0.09375,-0.19628906,-117.09375,-4.09375,57.65625
415,415,1727959086930,-0.74609375,-0.140625,-0.1484375,-38.78125,-35.34375,62.1875
416,416,1727959086970,-0.79003906,-0.234375,-0.22070312,-14.1875,-31.75,57.84375
417,417,1727959087010,-0.6933594,-0.19140625,-0.28125,8.65625,-7.28125,44.59375
418,418,1727959087050,-0.8125,-0.11328125,-0.24804688,0.78125,9.09375,26.0
419,419,1727959087090,-0.93359375,0.00390625,-0.140625,-5.03125,2.59375,22.03125
420,420,1727959087130,-1.0361328,-0.0107421875,-0.2998047,-9.21875,1.625,37.03125
421,421,1727959087170,-1.3974609,-0.060546875,-0.23046875,-0.125,5.84375,56.5
422,422,1727959087210,-1.4863281,-0.09472656,-0.1328125,41.375,-0.125,64.375
423,423,1727959087250,-1.3574219,-0.1953125,-0.032226562,46.1875,-20.34375,40.15625
424,424,1727959087290,-1.0869141,-0.2265625,-0.24414062,-13.375,-32.5625,-41.59375
425,425,1727959087330,-1.4462891,-0.140625,-0.13183594,-42.8125,-23.875,-119.9375
426,426,1727959087370,-1.171875,-0.6464844,-0.36914062,38.125,2.84375,-145.78125
427,427,1727959087410,-1.46875,-0.08496094,-0.12890625,31.59375,18.59375,-205.46875
428,428,1727959087450,-1.5878906,0.6230469,0.02734375,-17.03125,-83.8125,-163.15625
429,429,1727959087490,-0.7949219,-0.17089844,0.02734375,-4.65625,-29.625,-150.34375
430,430,1727959087530,-1.1308594,-0.22851562,-0.24707031,31.46875,-24.125,-132.9375
431,431,1727959087570,-0.9404297,0.08984375,0.07421875,9.625,-30.84375,-126.125
432,432,1727959087610,-0.8388672,-0.27246094,0.03125,27.28125,-45.3125,-122.28125
433,433,1727959087650,-0.59765625,0.021484375,-0.08300781,69.1875,-45.125,-93.03125
434,434,1727959087690,-0.4482422,0.033203125,-0.07714844,43.375,-31.03125,-47.375
435,435,1727959087730,-0.3955078,-0.13085938,0.024414062,30.8125,-21.8125,-15.15625
436,436,1727959087770,-0.3330078,-0.16308594,0.115234375,25.75,-2.28125,13.84375
437,437,1727959087810,-0.40234375,-0.54785156,-0.040039062,-32.65625,34.28125,36.84375
438,438,1727959087850,-0.6230469,-0.89746094,-0.009765625,-44.9375,39.96875,53.34375
439,439,1727959087890,-0.6796875,-0.2783203,-0.31933594,-57.8125,26.03125,110.6875
440,440,1727959087930,-2.0,-2.0,-0.9560547,-259.28125,113.15625,89.84375
441,441,1727959087970,-0.39648438,-0.10449219,-0.107421875,11.65625,7.375,22.875
442,442,1727959088010,-0.56152344,-0.1328125,-0.15625,-40.46875,48.25,67.3125
443,443,1727959088050,-0.90527344,-0.041015625,-0.28027344,-59.46875,34.03125,114.4375
444,444,1727959088090,-1.734375,-0.25,-0.5361328,-87.90625,96.71875,142.4375
445,445,1727959088130,-2.0,-1.5976562,-0.043945312,-199.0,30.4375,49.65625
446,446,1727959088170,-0.68359375,0.22949219,-0.043945312,116.0,-28.03125,61.875
447,447,1727959088210,-0.8144531,0.34179688,-0.31054688,65.34375,26.96875,85.5
448,448,1727959088250,-1.4140625,0.03125,-0.5292969,-57.9375,-8.5,79.40625
449,449,1727959088290,-0.8496094,-0.25390625,-0.14355469,-29.5,-4.65625,85.96875
450,450,1727959088330,-0.85058594,-0.111328125,-0.30859375,-103.15625,9.9375,58.75
451,451,1727959088370,-0.7636719,-0.10644531,-0.0234375,-79.4375,-27.84375,69.9375
452,452,1727959088410,-0.90625,-0.23046875,-0.21875,13.28125,-38.40625,75.4375
453,453,1727959088450,-0.75,-0.27929688,-0.3125,8.53125,-18.25,47.40625
454,454,1727959088490,-0.77734375,0.033203125,-0.4267578,7.625,7.5,20.8125
455,455,1727959088530,-0.9902344,-0.0126953125,-0.1796875,-17.28125,15.4375,23.71875
456,456,1727959088570,-1.1679688,-0.24902344,-0.1953125,-10.9375,-0.625,20.96875
457,457,1727959088610,-1.2646484,-0.13867188,-0.29296875,0.90625,-9.0,21.15625
458,458,1727959088650,-1.4306641,-0.107421875,-0.13476562,5.59375,-8.3125,19.875
459,459,1727959088690,-1.4238281,-0.16796875,-0.15527344,24.46875,-21.1875,4.625
460,460,1727959088730,-1.1445312,-0.28710938,-0.08203125,8.03125,-49.28125,-48.28125
461,461,1727959088770,-1.2998047,-0.27734375,-0.2548828,-12.09375,-26.5,-108.84375
462,462,1727959088810,-1.0019531,-0.55859375,-0.18652344,50.53125,6.03125,-135.4375
463,463,1727959088850,-1.6337891,0.033203125,-0.3017578,41.5625,6.03125,-180.1875
464,464,1727959088890,-1.1289062,0.3173828,0.08496094,27.21875,-79.78125,-134.71875
465,465,1727959088930,-0.91308594,-0.18359375,-0.087890625,-5.25,-21.4375,-122.28125
466,466,1727959088970,-0.96875,-0.13964844,-0.1484375,8.84375,-27.25,-117.875
467,467,1727959089010,-0.78222656,-0.044921875,-0.15429688,20.5625,-17.59375,-110.375
468,468,1727959089050,-0.6152344,-0.11816406,0.05078125,46.5625,-24.0,-93.875
469,469,1727959089090,-0.4189453,0.09863281,-0.053710938,58.03125,-19.96875,-52.875
470,470,1727959089130,-0.33789062,0.07714844,-0.08691406,43.8125,-6.71875,-1.1875
471,471,1727959089170,-0.2939453,-0.08984375,-0.1328125,22.875,17.5625,45.15625
472,472,1727959089210,-0.53222656,-0.022460938,-0.17871094,-56.59375,72.6875,86.53125
473,473,1727959089250,-1.1953125,-0.10449219,-0.48046875,-116.84375,58.09375,123.9375
474,474,1727959089290,-2.0,-1.4619141,-0.6191406,-185.4375,84.21875,91.21875
475,475,1727959089330,-0.8417969,-0.4482422,0.12597656,63.09375,-13.625,44.34375
476,476,1727959089370,-0.68359375,0.49121094,-0.19140625,66.625,6.03125,87.25
477,477,1727959089410,-1.4550781,0.28320312,-0.40039062,7.8125,36.90625,94.28125
478,478,1727959089450,-1.2294922,-0.6972656,-0.21875,-66.0,-3.8125,67.96875
479,479,1727959089490,-0.9140625,0.06640625,-0.1875,-63.0625,-4.96875,58.875
480,480,1727959089530,-0.859375,-0.028320312,-0.17871094,-70.5625,-10.03125,70.3125
481,481,1727959089570,-0.8496094,-0.3203125,-0.20507812,13.09375,-38.03125,76.71875
482,482,1727959089610,-0.7607422,-0.18847656,-0.1484375,7.5,-21.5625,61.15625
483,483,1727959089650,-0.6816406,-0.053710938,-0.29882812,46.0625,-0.875,47.21875
484,484,1727959089690,-0.8886719,0.09667969,-0.17675781,17.1875,7.125,33.25
485,485,1727959089730,-1.0400391,-0.115234375,-0.13085938,1.6875,6.6875,37.9375
486,486,1727959089770,-1.0615234,-0.21972656,-0.20214844,16.90625,-5.15625,37.15625
487,487,1727959089810,-1.3271484,-0.06542969,-0.20898438,28.625,-2.6875,42.03125
488,488,1727959089850,-1.4238281,-0.017578125,-0.107421875,39.46875,-8.5,35.875
489,489,1727959089890,-1.25,-0.16601562,0.0,11.34375,-43.71875,-5.625
490,490,1727959089930,-1.3818359,-0.12597656,-0.14453125,-37.625,-39.3125,-81.6875
491,491,1727959089970,-1.1826172,-0.5605469,-0.26757812,-11.625,-7.71875,-125.1875
492,492,1727959090010,-1.3251953,-0.4013672,-0.29003906,96.59375,20.84375,-183.5
493,493,1727959090050,-1.8740234,0.625,-0.06738281,-121.40625,-37.90625,-176.78125
494,494,1727959090090,-0.78515625,0.09863281,0.0126953125,53.875,-32.375,-110.96875
495,495,1727959090130,-0.91015625,-0.3359375,-0.3251953,1.9375,8.53125,-116.71875
496,496,1727959090170,-0.71484375,0.13574219,0.030273438,-26.03125,-5.09375,-97.5
497,497,1727959090210,-0.5957031,-0.18847656,-0.08496094,39.59375,-25.90625,-96.625
498,498,1727959090250,-0.609375,0.005859375,-0.040039062,35.625,-13.875,-82.09375
499,499,1727959090290,-0.36914062,0.16210938,-0.119140625,34.34375,-5.625,-44.09375
500,500,1727959090330,-0.43359375,-0.2626953,-0.0703125,21.96875,24.8125,-5.25
501,501,1727959090370,-0.47753906,-0.26464844,-0.19726562,16.9375,29.03125,40.375
502,502,1727959090410,-0.6191406,-0.026367188,-0.083984375,-50.96875,63.34375,98.8125
503,503,1727959090450,-1.6904297,-0.064453125,-0.58496094,-96.4375,99.03125,152.09375
504,504,1727959090490,-2.0,-1.9804688,0.21289062,-135.875,36.65625,52.15625
505,505,1727959090530,-0.6542969,0.1484375,-0.07519531,77.0625,-24.125,61.375
506,506,1727959090570,-0.9589844,0.5283203,-0.20605469,50.46875,18.53125,97.40625
507,507,1727959090610,-1.5380859,0.0390625,-0.5058594,5.125,17.5625,81.84375
508,508,1727959090650,-0.9277344,-0.3828125,-0.23632812,-72.28125,-11.375,80.6875
509,509,1727959090690,-0.9267578,0.125,-0.28125,-74.71875,-8.0,60.78125
510,510,1727959090730,-0.7988281,-0.06347656,-0.14160156,-66.40625,-2.6875,73.71875
511,511,1727959090770,-0.78027344,-0.29003906,-0.14257812,-7.78125,-26.375,84.9375
512,512,1727959090810,-0.671875,-0.29589844,-0.20019531,15.375,-31.25,63.28125
513,513,1727959090850,-0.63964844,-0.041015625,-0.25097656,28.3125,8.71875,35.1875
514,514,1727959090890,-0.8935547,-0.109375,-0.27539062,12.875,5.34375,18.59375
515,515,1727959090930,-1.1318359,-0.036132812,-0.24804688,-13.1875,5.0625,17.8125
516,516,1727959090970,-1.3115234,-0.0859375,-0.17480469,-1.40625,0.28125,39.90625
517,517,1727959091010,-1.4736328,-0.13671875,-0.013671875,33.375,-8.25,45.8125
518,518,1727959091050,-1.390625,-0.22265625,-0.123046875,28.4375,-18.25,24.53125
519,519,1727959091090,-1.1923828,-0.13671875,-0.13183594,-0.6875,-50.1875,-40.84375
520,520,1727959091130,-1.5214844,-0.19042969,-0.16015625,-41.65625,-12.21875,-116.84375
521,521,1727959091170,-1.1748047,-0.8046875,-0.25585938,59.90625,36.0,-159.375
522,522,1727959091210,-1.8515625,0.27148438,-0.30566406,2.90625,-2.6875,-207.28125
523,523,1727959091250,-1.0634766,0.5888672,0.12109375,13.53125,-85.71875,-135.28125
524,524,1727959091290,-0.8027344,-0.3955078,-0.06933594,-28.6875,14.8125,-134.78125
525,525,1727959091330,-0.9267578,-0.059570312,-0.17675781,45.40625,-15.875,-121.71875
526,526,1727959091370,-0.5576172,0.16894531,-0.049804688,25.75,-9.71875,-108.46875
527,527,1727959091410,-0.5839844,-0.10058594,0.056640625,38.0,-25.15625,-98.65625
528,528,1727959091450,-0.5048828,0.119140625,-0.07519531,39.53125,-18.5,-65.3125
529,529,1727959091490,-0.33984375,-0.013671875,-0.06933594,26.28125,-2.15625,-23.625
530,530,1727959091530,-0.42285156,-0.25195312,-0.056640625,15.78125,12.375,13.40625
531,531,1727959091570,-0.484375,-0.32226562,-0.18847656,-41.28125,46.6875,42.34375
532,532,1727959091610,-0.7392578,-0.17578125,-0.2578125,-67.46875,22.09375,103.625
533,533,1727959091650,-1.6855469,-0.6933594,-0.61328125,-155.28125,92.6875,128.34375
534,534,1727959091690,-2.0,-1.6679688,0.4248047,-144.84375,41.84375,48.875
535,535,1727959091730,-0.5253906,0.25195312,-0.0009765625,39.09375,-17.03125,62.5
536,536,1727959091770,-1.0126953,0.6308594,-0.32128906,-2.46875,18.59375,108.375
537,537,1727959091810,-1.640625,-0.13964844,-0.5175781,-11.1875,29.34375,89.21875
538,538,1727959091850,-1.0029297,-0.39941406,-0.3671875,-52.09375,-8.5,83.3125
539,539,1727959091890,-0.9423828,0.072265625,-0.33691406,-92.3125,2.375,57.0
540,540,1727959091930,-0.9794922,-0.14453125,-0.09472656,-90.28125,5.53125,71.03125
541,541,1727959091970,-0.8310547,-0.359375,-0.19238281,-16.9375,-32.5625,73.78125
542,542,1727959092010,-0.6064453,-0.2265625,-0.22363281,-45.0625,-48.21875,46.8125
543,543,1727959092050,-0.53515625,-0.0078125,-0.33691406,-8.875,7.0,17.1875
544,544,1727959092090,-0.8486328,-0.19628906,-0.16796875,-10.5,1.375,21.78125
545,545,1727959092130,-0.9316406,-0.12890625,-0.19824219,-2.625,-4.03125,7.0625
546,546,1727959092170,-0.8720703,0.18945312,-0.23046875,-6.5,-3.25,4.25
547,547,1727959092210,-1.1171875,0.037109375,-0.3623047,-32.1875,-0.0625,10.46875
548,548,1727959092250,-1.2490234,-0.059570312,-0.16210938,-10.625,-2.625,16.71875
549,549,1727959092290,-1.1816406,0.0390625,-0.22167969,-12.71875,-8.375,41.4375
550,550,1727959092330,-1.3837891,0.14550781,-0.20214844,-29.875,-14.46875,67.78125
551,551,1727959092370,-1.2373047,-0.10546875,-0.060546875,-29.6875,-17.71875,46.125
552,552,1727959092410,-1.2724609,-0.09765625,-0.13476562,-56.28125,-35.84375,-25.40625
553,553,1727959092450,-1.0722656,-0.4892578,-0.38671875,-36.6875,-20.21875,-95.0625
554,554,1727959092490,-1.3525391,-0.07421875,0.091796875,-1.71875,28.5625,-169.8125
555,555,1727959092530,-1.6044922,0.24121094,0.125,13.96875,24.40625,-167.6875
556,556,1727959092570,-1.6142578,0.60546875,0.1796875,-13.1875,-39.9375,-126.59375
557,557,1727959092610,-0.89453125,0.41308594,0.064453125,-99.0625,-31.09375,-101.9375
558,558,1727959092650,-0.77246094,-0.7060547,0.32910156,-31.75,-49.46875,-98.53125
559,559,1727959092690,-0.9589844,-0.00390625,0.25683594,-38.53125,-55.875,-131.3125
560,560,1727959092730,-0.8828125,-0.18066406,0.14355469,-54.6875,-72.34375,-135.21875
561,561,1727959092770,-0.8339844,0.0078125,-0.04296875,-43.59375,-65.3125,-126.0
562,562,1727959092810,-0.7998047,-0.3544922,-0.048828125,-49.21875,-50.3125,-109.375
563,563,1727959092850,-0.74121094,-0.5341797,-0.03515625,7.375,-53.0,-80.75
564,564,1727959092890,-0.5888672,-0.28027344,-0.0146484375,39.15625,-51.21875,-48.1875
565,565,1727959092930,-0.3154297,-0.052734375,-0.052734375,10.71875,-33.03125,-16.3125
566,566,1727959092970,-0.26757812,-0.31640625,0.19824219,-28.28125,4.375,9.875
567,567,1727959093010,-0.4267578,-0.53515625,-0.080078125,-51.96875,29.21875,31.71875
568,568,1727959093050,-0.6279297,-0.44140625,-0.02734375,-68.6875,39.46875,68.46875
569,569,1727959093090,-0.7080078,-0.17871094,-0.19726562,-86.6875,20.90625,130.28125
570,570,1727959093130,-2.0,-1.9160156,-0.9248047,-205.53125,80.125,78.78125
571,571,1727959093170,-0.53027344,-0.41015625,0.19042969,-10.03125,18.28125,28.65625
572,572,1727959093210,-0.3671875,0.51953125,-0.21972656,0.84375,23.4375,79.5625
573,573,1727959093250,-1.8056641,-0.16015625,-0.21875,-89.125,36.53125,89.03125
574,574,1727959093290,-1.0488281,-0.35253906,-0.26953125,-72.84375,2.3125,67.5625
575,575,1727959093330,-0.91015625,0.11816406,-0.2998047,-11.71875,5.84375,65.28125
576,576,1727959093370,-1.0126953,-0.045898438,-0.3544922,-37.1875,1.3125,82.125
577,577,1727959093410,-1.0703125,-0.27734375,-0.4111328,-45.1875,32.625,74.5
578,578,1727959093450,-0.7841797,-0.24511719,-0.16113281,-89.5,-40.0,70.0625
579,579,1727959093490,-0.8232422,-0.18066406,-0.34570312,-59.59375,-46.09375,54.125
580,580,1727959093530,-0.7392578,-0.27539062,-0.22753906,-49.8125,-3.5,41.90625
581,581,1727959093570,-0.8457031,-0.013671875,-0.32421875,-47.1875,16.59375,20.3125
582,582,1727959093610,-0.9296875,-0.19335938,-0.25683594,-29.1875,7.90625,27.5625
583,583,1727959093650,-1.1425781,-0.12207031,-0.26953125,-26.25,0.65625,22.375
584,584,1727959093690,-1.2333984,-0.0234375,-0.20898438,-15.9375,-2.15625,32.53125
585,585,1727959093730,-1.3691406,0.060546875,-0.061523438,-13.8125,-7.46875,41.5625
586,586,1727959093770,-1.3251953,-0.018554688,-0.16503906,-41.53125,-19.0625,18.1875
587,587,1727959093810,-1.0585938,-0.17480469,-0.13085938,-70.9375,-45.125,-44.03125
588,588,1727959093850,-1.3330078,-0.2626953,-0.14160156,-53.125,-19.78125,-115.875
589,589,1727959093890,-1.1425781,-0.35546875,-0.1640625,31.96875,28.5,-127.625
590,590,1727959093930,-1.3544922,-0.11621094,-0.14941406,4.375,22.625,-166.03125
591,591,1727959093970,-1.1796875,0.4404297,-0.08496094,-27.84375,-76.4375,-112.1875
592,592,1727959094010,-0.8652344,-0.328125,-0.05078125,-36.46875,-12.65625,-116.53125
593,593,1727959094050,-1.0761719,-0.25878906,-0.171875,-6.5,-31.25,-115.5
594,594,1727959094090,-0.8613281,-0.080078125,0.01171875,-16.9375,-27.3125,-108.90625
595,595,1727959094130,-0.68652344,-0.14453125,0.0126953125,6.6875,-30.03125,-101.34375
596,596,1727959094170,-0.6660156,-0.056640625,-0.043945312,14.3125,-32.25,-85.90625
597,597,1727959094210,-0.47851562,-0.0625,-0.12207031,24.59375,-33.46875,-59.40625
598,598,1727959094250,-0.34179688,-0.021484375,0.015625,15.375,-16.8125,-23.28125
599,599,1727959094290,-0.3408203,-0.19238281,-0.15722656,-8.8125,17.3125,13.03125
600,600,1727959094330,-0.4716797,-0.23730469,-0.17871094,-41.8125,42.09375,58.46875
601,601,1727959094370,-0.7392578,0.08691406,-0.38671875,-86.125,48.15625,123.28125
602,602,1727959094410,-2.0,-0.61035156,-0.75878906,-167.375,104.0625,130.28125
603,603,1727959094450,-1.6347656,-1.7822266,0.18261719,-181.59375,57.84375,42.28125
604,604,1727959094490,-0.6640625,0.2705078,-0.12402344,72.0,-37.5625,62.65625
605,605,1727959094530,-0.71777344,0.47265625,-0.29785156,37.53125,19.09375,100.09375
606,606,1727959094570,-1.4072266,0.0390625,-0.5878906,-4.28125,18.28125,84.625
607,607,1727959094610,-1.0722656,-0.70214844,-0.29003906,-97.3125,8.84375,69.1875
608,608,1727959094650,-1.0097656,0.022460938,-0.22558594,-96.28125,16.65625,45.53125
609,609,1727959094690,-1.0234375,-0.07714844,-0.23535156,-101.28125,-1.84375,52.78125
610,610,1727959094730,-0.9658203,-0.296875,-0.2734375,6.5625,-43.84375,70.96875
611,611,1727959094770,-0.7314453,-0.107421875,-0.30664062,-36.75,-49.40625,53.21875
612,612,1727959094810,-0.56933594,-0.013671875,-0.29785156,0.28125,11.65625,34.59375
613,613,1727959094850,-0.81640625,-0.045898438,-0.15917969,-18.9375,10.46875,22.375
614,614,1727959094890,-0.84277344,-0.09082031,-0.1953125,-25.71875,-3.5625,19.21875
615,615,1727959094930,-0.9160156,0.09277344,-0.18554688,-11.71875,-16.875,8.65625
616,616,1727959094970,-0.97265625,0.08984375,-0.3935547,-11.5,-8.5625,19.6875
617,617,1727959095010,-1.140625,0.0087890625,-0.34960938,-3.8125,-0.25,28.125
618,618,1727959095050,-1.2753906,0.048828125,-0.15722656,3.59375,-3.90625,45.75
619,619,1727959095090,-1.4287109,0.08300781,-0.14257812,-11.625,-3.3125,74.4375
620,620,1727959095130,-1.2753906,-0.16894531,-0.21289062,-38.03125,-18.5,46.3125
621,621,1727959095170,-1.0908203,-0.125,0.1015625,-7.9375,-37.0625,-26.9375
622,622,1727959095210,-1.2265625,-0.015625,-0.037109375,-124.03125,-37.625,-114.75
623,623,1727959095250,-1.1181641,-0.34375,-0.08691406,-48.78125,5.59375,-154.9375
624,624,1727959095290,-1.2519531,0.030273438,0.10839844,-21.0625,23.65625,-179.34375
625,625,1727959095330,-2.0,0.6269531,-0.2890625,-22.84375,-3.125,-120.625
626,626,1727959095370,-0.95996094,0.29296875,0.047851562,-65.125,-2.46875,-110.625
627,627,1727959095410,-0.9746094,-0.453125,-0.017578125,-19.96875,-2.28125,-87.0625
628,628,1727959095450,-1.1220703,0.005859375,0.3642578,-41.09375,-44.875,-149.6875
629,629,1727959095490,-0.7783203,0.07128906,0.3359375,-56.71875,-50.84375,-140.875
630,630,1727959095530,-0.8564453,-0.23242188,0.06640625,-38.71875,-74.21875,-123.6875
631,631,1727959095570,-0.8183594,-0.01171875,-0.09277344,-19.375,-68.5625,-109.75
632,632,1727959095610,-0.44726562,-0.15820312,-0.12207031,-36.625,-47.0,-91.1875
633,633,1727959095650,-0.5605469,-0.4638672,-0.037109375,5.90625,-44.3125,-59.46875
634,634,1727959095690,-0.39746094,-0.21679688,-0.0029296875,30.1875,-41.53125,-9.21875
635,635,1727959095730,-0.20019531,-0.2734375,-0.032226562,-27.46875,4.8125,24.28125
636,636,1727959095770,-0.44433594,-0.5732422,0.13183594,-45.96875,24.8125,40.625
637,637,1727959095810,-0.75878906,-0.51660156,-0.12597656,-56.65625,40.8125,73.59375
638,638,1727959095850,-1.7792969,-1.1914062,-0.53125,-117.9375,53.21875,75.5
639,639,1727959095890,-1.4072266,-0.5263672,0.20703125,-87.25,38.3125,54.1875
640,640,1727959095930,-0.6201172,0.19824219,-0.1015625,-8.5625,29.46875,91.28125
641,641,1727959095970,-1.1611328,0.32226562,-0.23046875,-66.71875,21.59375,98.875
642,642,1727959096010,-1.5917969,-0.578125,-0.24511719,-90.53125,23.3125,63.78125
643,643,1727959096050,-0.85058594,0.024414062,-0.20898438,-34.5,7.84375,64.9375
644,644,1727959096090,-0.9169922,-0.0146484375,-0.27539062,6.9375,3.09375,70.40625
645,645,1727959096130,-1.0390625,-0.13378906,-0.38867188,-22.0625,13.09375,75.5
646,646,1727959096170,-0.9511719,-0.25976562,-0.32910156,-66.90625,14.03125,66.15625
647,647,1727959096210,-0.86816406,-0.3095703,-0.33203125,-42.0,-50.5625,74.25
648,648,1727959096250,-0.78125,-0.19140625,-0.21289062,-84.90625,-27.65625,51.0625
649,649,1727959096290,-0.7988281,-0.0703125,-0.19726562,-25.34375,4.6875,41.78125
650,650,1727959096330,-0.8564453,-0.15039062,-0.19824219,-34.5,15.125,36.96875
651,651,1727959096370,-1.1074219,-0.22265625,-0.31152344,-30.90625,1.75,40.21875
652,652,1727959096410,-1.2275391,-0.068359375,-0.15234375,-25.09375,1.625,41.71875
653,653,1727959096450,-1.4511719,0.026367188,-0.17285156,-12.71875,-4.53125,51.875
654,654,1727959096490,-1.2783203,-0.3125,-0.103515625,-45.1875,-32.71875,17.0625
655,655,1727959096530,-1.046875,-0.38476562,-0.072265625,-68.1875,-62.875,-68.125
656,656,1727959096570,-1.5556641,-0.20507812,-0.20214844,-39.03125,-10.03125,-147.53125
657,657,1727959096610,-1.1591797,-0.34277344,-0.07324219,5.96875,26.34375,-166.46875
658,658,1727959096650,-1.5058594,0.08496094,-0.022460938,5.90625,9.5625,-200.9375
659,659,1727959096690,-1.2578125,0.57421875,-0.01953125,-46.71875,-82.15625,-127.8125
660,660,1727959096730,-0.7783203,-0.41601562,-0.15332031,-60.75,6.09375,-131.375
661,661,1727959096770,-1.0322266,-0.25390625,-0.08300781,0.34375,-25.03125,-122.8125
662,662,1727959096810,-0.69921875,0.08984375,-0.09375,12.3125,-25.34375,-111.21875
663,663,1727959096850,-0.5751953,-0.05859375,-0.013671875,25.125,-26.0625,-94.25
664,664,1727959096890,-0.46679688,0.04296875,-0.046875,42.53125,-22.15625,-50.0625
665,665,1727959096930,-0.29589844,-0.01171875,-0.13964844,42.96875,-4.59375,-1.40625
666,666,1727959096970,-0.28515625,-0.12402344,-0.12695312,5.0,13.78125,44.28125
667,667,1727959097010,-0.51660156,-0.13867188,0.040039062,-67.21875,56.0625,82.875
668,668,1727959097050,-1.3388672,0.07421875,-0.98535156,-82.84375,95.25,132.8125
669,669,1727959097090,-2.0,-1.0439453,-0.484375,-183.375,131.5625,100.4375
670,670,1727959097130,-0.9140625,-0.7265625,0.27441406,-34.0625,9.9375,47.40625
671,671,1727959097170,-0.82714844,0.3515625,-0.18847656,60.03125,-14.40625,66.875
672,672,1727959097210,-1.1611328,0.2529297,-0.39160156,5.34375,6.75,80.375
673,673,1727959097250,-0.9550781,-0.18359375,-0.2763672,-94.125,-9.84375,69.875
674,674,1727959097290,-0.9667969,-0.06347656,-0.38085938,-79.4375,5.1875,63.40625
675,675,1727959097330,-0.78027344,-0.13378906,-0.23632812,-58.59375,-28.875,76.15625
676,676,1727959097370,-0.8730469,-0.31152344,-0.24804688,-6.3125,-34.875,80.96875
677,677,1727959097410,-0.88183594,-0.2529297,-0.19140625,-12.71875,-29.125,56.875
678,678,1727959097450,-0.703125,-0.015625,-0.33691406,-8.625,-3.375,29.09375
679,679,1727959097490,-0.9589844,-0.0390625,-0.2421875,-22.53125,6.28125,21.71875
680,680,1727959097530,-1.0029297,-0.2607422,-0.33007812,-6.84375,2.5,26.71875
681,681,1727959097570,-1.2441406,-0.42285156,-0.2421875,31.0,-0.4375,32.34375
682,682,1727959097610,-1.3583984,0.049804688,-0.06347656,23.3125,9.4375,32.75
683,683,1727959097650,-1.3447266,-0.17285156,-0.07910156,26.84375,-14.1875,16.21875
684,684,1727959097690,-1.1992188,-0.3642578,-0.045898438,-12.28125,-52.375,-61.0
685,685,1727959097730,-1.4404297,-0.30566406,-0.17675781,-24.25,-22.90625,-130.375
686,686,1727959097770,-1.2314453,-0.69628906,-0.40429688,133.84375,17.0625,-140.40625
687,687,1727959097810,-1.9814453,0.19335938,-0.53222656,-24.90625,-45.25,-187.40625
688,688,1727959097850,-0.92089844,0.53027344,-0.10839844,71.03125,-36.75,-124.28125
689,689,1727959097890,-0.8232422,-0.21777344,-0.31152344,2.90625,-9.0,-122.5
690,690,1727959097930,-0.8154297,0.08203125,0.07128906,-3.1875,-16.3125,-115.125
691,691,1727959097970,-0.5751953,-0.06738281,-0.18652344,21.15625,-8.25,-99.9375
692,692,1727959098010,-0.6621094,-0.13476562,0.0126953125,26.40625,-7.71875,-83.9375
693,693,1727959098050,-0.42382812,0.048828125,-0.13476562,41.25,1.9375,-55.125
694,694,1727959098090,-0.390625,-0.11425781,-0.068359375,34.40625,16.65625,-17.65625
695,695,1727959098130,-0.3779297,-0.22753906,-0.1171875,35.9375,21.65625,14.375
696,696,1727959098170,-0.5283203,-0.35058594,-0.27148438,-27.59375,63.34375,42.21875
697,697,1727959098210,-0.84765625,-0.4111328,-0.18945312,-45.1875,61.875,77.5
698,698,1727959098250,-1.3417969,-0.33203125,-0.5136719,-40.46875,46.4375,116.125
699,699,1727959098290,-2.0,-0.7832031,-0.1640625,-125.0625,59.875,102.78125
700,700,1727959098330,-1.1679688,-0.42285156,0.0029296875,5.1875,13.28125,69.1875
701,701,1727959098370,-0.84277344,0.2109375,-0.16601562,62.5,-10.6875,79.15625
702,702,1727959098410,-1.1884766,0.0048828125,-0.3076172,15.71875,11.53125,72.3125
703,703,1727959098450,-0.97753906,-0.20898438,-0.39648438,-21.75,-11.0625,67.4375
704,704,1727959098490,-0.9423828,0.01171875,-0.3076172,-58.71875,5.96875,61.1875
705,705,1727959098530,-0.9511719,-0.04296875,-0.2783203,-90.28125,7.0,64.0625
706,706,1727959098570,-0.86816406,-0.1796875,-0.19824219,-17.90625,-19.25,85.5625
707,707,1727959098610,-0.8457031,-0.2861328,-0.1875,-7.9375,-43.46875,81.90625
708,708,1727959098650,-0.78125,-0.23925781,-0.1953125,15.625,-35.96875,58.21875
709,709,1727959098690,-0.9091797,-0.13476562,-0.23339844,-3.6875,6.28125,18.21875
710,710,1727959098730,-0.9326172,-0.12988281,-0.3251953,3.65625,-1.125,22.03125
711,711,1727959098770,-1.0615234,-0.13378906,-0.27539062,-6.1875,-6.84375,20.0625
712,712,1727959098810,-1.3349609,-0.0146484375,-0.25,32.15625,-3.3125,32.625
713,713,1727959098850,-1.5439453,0.09765625,-0.12890625,22.3125,-5.3125,37.75
714,714,1727959098890,-1.4042969,-0.18945312,0.038085938,31.96875,-37.125,20.125
715,715,1727959098930,-1.0947266,-0.23046875,-0.32226562,-14.59375,-52.125,-59.90625
716,716,1727959098970,-1.2050781,-0.40527344,-0.23046875,-1.84375,-4.53125,-111.78125
717,717,1727959099010,-1.1816406,-0.72753906,-0.25683594,55.46875,43.1875,-162.125
718,718,1727959099050,-1.7353516,0.2265625,-0.19921875,25.5625,-36.75,-179.75
719,719,1727959099090,-0.890625,0.5263672,0.15527344,26.46875,-59.71875,-126.34375
720,720,1727959099130,-0.9453125,-0.51660156,-0.27246094,-20.46875,3.65625,-127.15625
721,721,1727959099170,-0.9277344,-0.20019531,-0.087890625,38.9375,-29.875,-106.8125
722,722,1727959099210,-0.5732422,0.2626953,-0.109375,51.0625,-21.3125,-99.75
723,723,1727959099250,-0.5722656,-0.12402344,0.05078125,39.09375,-21.375,-92.53125
724,724,1727959099290,-0.4580078,0.11425781,-0.083984375,36.125,-12.65625,-64.03125
725,725,1727959099330,-0.4267578,-0.034179688,-0.01953125,24.15625,-3.0,-22.46875
726,726,1727959099370,-0.5205078,-0.3623047,-0.041992188,14.75,18.96875,5.65625
727,727,1727959099410,-0.6035156,-0.36035156,-0.07714844,-17.34375,35.09375,35.9375
728,728,1727959099450,-0.75,-0.10253906,-0.024414062,-60.75,55.03125,86.21875
729,729,1727959099490,-1.5673828,-0.040039062,-0.62402344,-133.375,82.3125,133.03125
730,730,1727959099530,-2.0,-1.5283203,-0.40625,-150.65625,47.53125,67.0
731,731,1727959099570,-0.83496094,-0.16015625,-0.064453125,65.34375,-31.9375,54.25
732,732,1727959099610,-0.6142578,0.34765625,-0.26464844,40.625,19.75,96.1875
733,733,1727959099650,-1.3554688,-0.072265625,-0.43945312,-9.90625,29.65625,73.78125
734,734,1727959099690,-0.99316406,-0.44726562,-0.3017578,-40.96875,-4.78125,74.6875
735,735,1727959099730,-0.8486328,0.0546875,-0.296875,-32.5,0.15625,64.0625
736,736,1727959099770,-0.94140625,0.026367188,-0.13183594,-104.9375,7.5625,72.8125
737,737,1727959099810,-0.79003906,-0.23632812,-0.2607422,-23.34375,-20.09375,85.125
738,738,1727959099850,-0.7910156,-0.20019531,-0.22363281,-41.03125,-18.375,67.625
739,739,1727959099890,-0.7373047,-0.15625,-0.25097656,7.3125,-22.53125,54.1875
