,timestamp,accel_x,accel_y,accel_z,gyro_x,gyro_y,gyro_z
0,1727265390217,-0.9277344,-0.047851562,0.3798828,-11.125,-82.53125,-42.5625
1,1727265390244,-0.7441406,0.057617188,0.4560547,26.90625,-83.6875,-34.875
2,1727265390272,-0.7089844,0.10839844,0.49316406,-2.875,-47.8125,-37.625
3,1727265390303,-0.9111328,-0.1484375,0.45898438,-18.625,-34.375,-31.4375
4,1727265390363,-0.78515625,-0.032226562,0.46484375,-0.25,-31.03125,-33.34375
5,1727265390393,-0.6455078,-0.020507812,0.5048828,4.375,-17.96875,-24.125
6,1727265390428,-0.5917969,0.00390625,0.45507812,-0.5625,-0.25,-9.46875
7,1727265390487,-0.5957031,-0.087890625,0.49316406,-6.4375,27.15625,-3.25
8,1727265390513,-0.6201172,-0.22460938,0.5019531,-0.9375,44.71875,9.5625
9,1727265390544,-0.59277344,-0.20898438,0.23242188,13.96875,81.21875,33.625
10,1727265390608,-1.7304688,-0.8261719,2.0,-19.96875,38.875,19.5625
11,1727265390633,-1.1621094,-0.05078125,0.6855469,36.90625,39.78125,18.53125
12,1727265390664,-0.49414062,0.37109375,0.5234375,32.28125,102.40625,0.21875
13,1727265390727,-1.2480469,0.14941406,0.12792969,-42.875,88.78125,50.40625
14,1727265390753,-1.21875,0.030273438,0.3232422,20.625,86.78125,42.71875
15,1727265390788,-0.80371094,0.26367188,0.16699219,32.75,70.34375,26.53125
16,1727265390842,-0.765625,0.23339844,0.07910156,10.1875,70.0,25.6875
17,1727265390873,-1.0927734,0.107421875,0.061523438,-35.65625,75.4375,23.125
18,1727265390903,-1.0380859,-0.111328125,0.15722656,-40.0,49.90625,32.6875
19,1727265390968,-0.9667969,-0.060546875,0.099609375,-24.0625,43.75,25.875
20,1727265390992,-1.0039062,0.08691406,0.043945312,-6.53125,33.0,18.34375
21,1727265391025,-0.99902344,0.01953125,-0.018554688,9.6875,20.90625,22.125
22,1727265391083,-0.9589844,-0.03515625,-0.0146484375,-6.65625,33.125,15.84375
23,1727265391113,-1.0869141,0.059570312,-0.0107421875,18.40625,38.125,10.375
24,1727265391143,-1.0507812,0.11230469,0.00390625,13.96875,33.5625,4.3125
25,1727265391209,-0.9501953,0.08886719,0.048828125,20.84375,35.625,6.9375
26,1727265391233,-1.0576172,0.10644531,0.013671875,55.96875,19.875,7.90625
27,1727265391263,-0.9580078,0.06738281,-0.083984375,-29.625,16.28125,-8.625
28,1727265391323,-0.9638672,0.20214844,-0.009765625,-42.125,29.65625,-4.96875
29,1727265391354,-1.0517578,0.040039062,0.08886719,11.8125,17.375,20.125
30,1727265391383,-1.0029297,-0.078125,-0.08691406,-49.46875,-2.625,12.25
31,1727265391444,-1.171875,0.028320312,-0.115234375,23.71875,23.90625,16.78125
32,1727265391503,-1.46875,0.25097656,0.18164062,30.5,59.75,0.65625
33,1727265391534,-1.5957031,0.3564453,-0.2265625,-63.625,-28.15625,2.125
34,1727265391569,-1.46875,0.18847656,0.115234375,24.40625,-22.78125,15.71875
35,1727265391593,-1.1044922,0.1328125,0.28320312,7.75,-104.375,12.5
36,1727265391623,-1.1025391,0.15917969,-0.0126953125,-92.78125,-96.5625,-7.34375
37,1727265391683,-1.0703125,0.13378906,0.068359375,-113.59375,-100.71875,-26.03125
38,1727265391713,-0.9921875,0.09863281,-0.1015625,-51.03125,-95.96875,-43.71875
39,1727265391743,-0.9199219,0.2109375,-0.0703125,-39.25,-76.25,-56.90625
40,1727265391808,-1.0068359,0.12109375,0.40429688,-80.8125,-70.15625,-74.125
41,1727265391833,-0.93066406,0.032226562,0.11230469,-21.0625,-67.75,-76.5625
42,1727265391863,-0.9550781,-0.001953125,0.111328125,-15.28125,-63.0625,-79.0625
43,1727265391924,-0.765625,0.10546875,0.37597656,-12.53125,-76.375,-85.09375
44,1727265391953,-0.68847656,0.043945312,0.29101562,-11.71875,-47.8125,-83.5
45,1727265391983,-0.68359375,-0.14257812,0.24121094,1.5,-41.59375,-53.90625
46,1727265392048,-0.64746094,-0.03125,0.27246094,22.3125,-28.09375,-30.15625
47,1727265392073,-0.62597656,-0.0625,0.36621094,13.09375,-7.71875,-7.03125
48,1727265392103,-0.55371094,-0.16015625,0.46191406,17.1875,8.03125,8.59375
49,1727265392163,-0.6230469,-0.31347656,0.3984375,21.71875,34.15625,19.6875
50,1727265392223,-0.72753906,-0.3544922,0.4375,20.96875,69.5,36.71875
51,1727265392254,-1.5996094,-0.36816406,0.5957031,-8.4375,43.375,8.46875
52,1727265392284,-1.3330078,0.16015625,0.3984375,-11.625,43.6875,54.25
53,1727265392313,-0.7705078,0.0234375,0.19628906,-4.59375,96.46875,44.34375
54,1727265392343,-1.265625,0.041992188,0.28125,17.5625,100.3125,50.53125
55,1727265392403,-1.1474609,-0.032226562,0.21386719,-7.03125,84.59375,49.375
56,1727265392433,-0.75097656,0.23632812,0.14941406,52.59375,36.71875,45.21875
57,1727265392493,-0.9921875,0.21289062,0.01171875,8.59375,55.96875,48.3125
58,1727265392554,-1.015625,0.076171875,0.045898438,-18.25,52.09375,46.5
59,1727265392583,-1.0126953,-0.13769531,0.12109375,-3.96875,42.34375,42.90625
60,1727265392614,-0.94628906,0.028320312,0.07519531,23.4375,22.4375,31.125
61,1727265392644,-0.91503906,0.061523438,0.01953125,22.75,18.21875,20.5
62,1727265392673,-0.95410156,0.06347656,-0.026367188,15.96875,16.65625,13.71875
63,1727265392703,-1.0546875,0.08984375,-0.020507812,28.1875,20.75,11.71875
64,1727265392763,-1.0400391,0.025390625,0.013671875,52.96875,19.03125,7.8125
65,1727265392794,-1.0478516,-0.0068359375,-0.026367188,41.5625,17.875,6.9375
66,1727265392824,-0.9785156,0.07421875,-0.076171875,12.625,14.75,-2.34375
67,1727265392883,-0.9560547,0.16210938,-0.13085938,-17.84375,19.15625,-12.21875
68,1727265392918,-0.9375,0.39648438,-0.051757812,6.28125,55.03125,-7.71875
69,1727265392943,-0.95410156,0.31933594,0.14941406,84.9375,22.75,28.125
70,1727265393004,-1.0771484,-0.053710938,-0.052734375,-14.78125,-11.96875,29.71875
71,1727265393033,-0.9951172,-0.16210938,-0.15527344,-35.84375,-2.46875,19.03125
72,1727265393063,-1.0429688,-0.07421875,-0.08203125,-46.53125,14.3125,9.5
73,1727265393124,-1.1972656,0.080078125,-0.01171875,-28.59375,4.125,4.4375
74,1727265393153,-1.1328125,0.29492188,-0.13574219,-4.96875,-25.90625,2.90625
75,1727265393183,-1.4248047,0.3779297,-0.03515625,30.75,21.21875,12.0625
76,1727265393243,-1.4560547,0.32226562,0.046875,18.1875,13.71875,30.0625
77,1727265393274,-1.2451172,0.27441406,0.099609375,55.15625,-19.4375,28.71875
78,1727265393304,-1.1337891,0.19921875,0.12890625,43.6875,-64.65625,15.96875
79,1727265393393,-1.1337891,0.099609375,0.0029296875,-0.375,-77.46875,-1.46875
80,1727265393423,-1.0605469,0.14160156,-0.12597656,-56.65625,-91.5,-25.15625
81,1727265393453,-0.8769531,0.28222656,0.025390625,-45.4375,-77.96875,-32.65625
82,1727265393484,-0.80078125,0.22558594,0.14648438,-35.0625,-73.6875,-35.0625
83,1727265393518,-0.7919922,0.22265625,0.064453125,17.3125,-104.875,-24.6875
84,1727265393543,-0.8886719,0.21191406,0.16699219,-45.25,-58.5625,-34.875
85,1727265393637,-0.9013672,0.22460938,0.24609375,-100.90625,-38.15625,-59.28125
86,1727265393668,-0.8857422,0.20996094,0.21484375,-37.0,-57.8125,-56.96875
87,1727265393693,-0.9785156,-0.12792969,0.22167969,-44.6875,-46.34375,-53.90625
88,1727265393758,-0.98535156,-0.08105469,0.2841797,-27.90625,-31.5,-71.1875
89,1727265393784,-0.9716797,-0.19140625,0.30371094,15.65625,-44.28125,-59.90625
90,1727265393813,-0.7832031,-0.01171875,0.30273438,31.90625,-53.0625,-52.8125
91,1727265393843,-0.5957031,0.11328125,0.3720703,24.875,-41.28125,-42.75
92,1727265393873,-0.5986328,-0.0048828125,0.3828125,2.59375,-17.21875,-31.6875
93,1727265393903,-0.7080078,-0.10058594,0.4091797,-13.4375,1.6875,-20.71875
94,1727265393963,-0.6660156,-0.24511719,0.4091797,1.03125,6.09375,-8.5625
95,1727265393993,-0.61816406,-0.3076172,0.38085938,7.90625,23.25,14.3125
96,1727265394031,-0.9423828,-0.43847656,0.6298828,11.40625,63.875,27.9375
97,1727265394083,-1.5634766,0.028320312,0.8388672,19.6875,32.34375,17.1875
98,1727265394115,-0.9628906,0.08203125,0.38183594,21.34375,63.875,36.3125
99,1727265394143,-0.99121094,0.28515625,0.15429688,-4.28125,82.75,58.9375
100,1727265394203,-1.328125,0.040039062,0.24902344,-2.03125,104.15625,48.4375
101,1727265394237,-1.0322266,0.18066406,0.11816406,0.65625,76.34375,42.40625
102,1727265394264,-0.89160156,0.17480469,0.08300781,10.0625,53.75,49.375
103,1727265394323,-1.0351562,0.07324219,0.06347656,-13.25,59.5,46.90625
104,1727265394357,-1.015625,0.053710938,0.044921875,-18.3125,49.375,40.03125
105,1727265394384,-1.0058594,0.015625,0.08203125,-3.6875,47.84375,38.9375
106,1727265394443,-0.9003906,0.018554688,0.08203125,12.875,35.09375,31.34375
107,1727265394473,-0.9238281,0.06738281,0.051757812,30.125,23.78125,26.78125
108,1727265394503,-0.92578125,0.029296875,-0.009765625,21.09375,30.8125,25.625
109,1727265394563,-1.0517578,0.0029296875,0.0009765625,20.625,36.25,9.5
110,1727265394593,-1.0263672,0.024414062,0.080078125,29.09375,41.125,1.75
111,1727265394625,-1.0800781,-0.021484375,-0.04296875,-13.5,17.4375,-6.0
112,1727265394684,-1.0478516,0.036132812,-0.06933594,17.1875,18.40625,-7.8125
113,1727265394713,-0.9423828,0.16699219,-0.028320312,-7.8125,18.34375,-10.5
114,1727265394773,-0.9140625,0.14453125,-0.021484375,5.21875,12.75,1.75
115,1727265394803,-0.9716797,0.068359375,-0.041992188,10.375,8.15625,7.375
116,1727265394834,-0.99902344,0.022460938,-0.115234375,-3.90625,16.34375,9.6875
117,1727265394865,-1.2226562,0.060546875,-0.103515625,-9.65625,32.28125,8.46875
118,1727265394923,-1.2783203,0.20214844,-0.09277344,-6.96875,15.25,-0.5
119,1727265394955,-1.4833984,0.22363281,0.0234375,59.90625,3.78125,18.96875
120,1727265394984,-1.5224609,0.15332031,0.13867188,48.3125,-39.3125,26.46875
121,1727265395043,-1.1738281,0.111328125,0.09082031,-29.96875,-86.0625,11.59375
122,1727265395073,-1.1083984,0.20703125,-0.064453125,-81.3125,-100.125,-6.0625
123,1727265395103,-0.99902344,0.23339844,-0.12597656,-70.4375,-84.125,-20.03125
124,1727265395163,-1.0214844,0.048828125,-0.018554688,-57.4375,-64.21875,-35.65625
125,1727265395194,-1.1005859,0.0859375,0.07128906,5.1875,-92.3125,-43.78125
126,1727265395227,-0.9970703,0.16992188,0.22753906,2.125,-88.75,-46.71875
127,1727265395283,-0.7363281,0.3857422,0.11035156,-32.5,-73.6875,-55.4375
128,1727265395313,-0.8828125,0.171875,0.08691406,-79.3125,-59.21875,-57.9375
129,1727265395347,-0.796875,0.0107421875,0.2607422,-77.28125,-35.40625,-66.59375
130,1727265395404,-1.2294922,-0.3623047,0.28808594,-1.96875,-50.375,-69.96875
131,1727265395437,-0.74609375,0.015625,0.19238281,47.03125,-89.5,-74.46875
132,1727265395464,-0.59375,0.22558594,0.37695312,5.96875,-42.75,-56.09375
133,1727265395523,-0.7441406,-0.13964844,0.3408203,-23.28125,-4.84375,-39.03125
134,1727265395555,-0.8076172,-0.2861328,0.32910156,-8.125,-4.71875,-23.40625
135,1727265395584,-0.7089844,-0.23925781,0.3623047,18.0,-11.84375,-10.8125
136,1727265395643,-0.6376953,-0.18945312,0.3935547,19.28125,-0.25,-3.4375
137,1727265395673,-0.58496094,-0.265625,0.44335938,12.9375,18.65625,9.9375
138,1727265395709,-0.5126953,-0.22949219,0.32714844,10.0625,62.375,28.4375
139,1727265395763,-1.4091797,-0.83203125,0.78027344,22.125,57.96875,19.625
140,1727265395796,-1.4345703,-0.23535156,0.47558594,31.53125,26.90625,20.4375
141,1727265395823,-0.7441406,0.17382812,0.5292969,68.84375,28.625,34.34375
142,1727265395883,-0.9238281,0.296875,0.028320312,21.78125,81.34375,62.96875
143,1727265395913,-1.3164062,-0.0068359375,0.037109375,-21.75,111.5625,60.78125
144,1727265395943,-0.91308594,0.01953125,0.16601562,5.46875,89.9375,39.71875
145,1727265396003,-1.0244141,0.020507812,0.064453125,15.625,60.59375,38.75
146,1727265396034,-0.98339844,0.27441406,0.16308594,19.21875,45.28125,39.21875
147,1727265396063,-0.9902344,0.125,0.15527344,10.1875,29.65625,41.0625
148,1727265396123,-1.0263672,-0.001953125,0.07324219,-20.875,38.4375,37.75
149,1727265396153,-1.0117188,0.02734375,0.013671875,-18.21875,22.4375,35.3125
150,1727265396183,-0.8652344,-0.119140625,-0.06640625,18.65625,10.375,31.84375
151,1727265396244,-0.9550781,-0.021484375,-0.078125,22.5,37.46875,20.8125
152,1727265396273,-0.98339844,-0.024414062,-0.041992188,17.75,46.0,2.375
153,1727265396303,-1.0078125,0.09667969,0.09667969,11.9375,51.5,-0.625
154,1727265396393,-1.0566406,0.08203125,-0.026367188,17.1875,17.625,-1.125
155,1727265396423,-1.0410156,0.14746094,-0.07519531,12.25,20.1875,-0.75
156,1727265396455,-1.0195312,0.09472656,-0.05078125,22.6875,10.0625,3.34375
157,1727265396484,-0.95703125,0.099609375,-0.015625,8.59375,16.65625,4.0
158,1727265396515,-0.9453125,-0.0048828125,-0.20703125,-19.0,6.8125,3.21875
159,1727265396544,-0.98339844,0.23242188,0.047851562,17.625,46.375,6.875
160,1727265396603,-1.0429688,0.08105469,-0.03515625,-7.71875,0.78125,20.6875
161,1727265396633,-1.1552734,-0.171875,-0.21972656,2.0625,2.1875,24.09375
162,1727265396663,-1.5380859,0.19628906,-0.0390625,14.75,43.1875,-2.875
163,1727265396723,-1.4882812,0.28027344,0.083984375,15.125,-10.21875,8.03125
164,1727265396753,-1.3583984,0.1875,0.05859375,16.03125,-44.4375,9.03125
165,1727265396784,-1.1152344,0.095703125,0.0859375,-7.875,-102.0,-1.65625
166,1727265396843,-1.1201172,0.27929688,-0.0068359375,-45.125,-100.65625,-15.15625
167,1727265396874,-1.0498047,0.28515625,0.016601562,-84.65625,-95.53125,-14.59375
168,1727265396903,-0.9482422,0.1875,-0.10058594,-32.125,-90.53125,-13.625
169,1727265396964,-0.9482422,0.09472656,0.048828125,-0.4375,-100.65625,-21.0625
170,1727265396995,-0.9951172,0.028320312,0.23632812,-47.0625,-69.09375,-41.40625
171,1727265397053,-0.9970703,0.23144531,0.18261719,-76.96875,-45.71875,-78.1875
172,1727265397087,-0.95996094,0.13378906,0.040039062,-77.90625,-27.34375,-81.8125
173,1727265397113,-1.0244141,-0.21875,0.23925781,-5.6875,-55.5,-57.75
174,1727265397143,-0.89941406,-0.01953125,0.3125,15.90625,-53.84375,-72.78125
175,1727265397204,-0.6591797,0.12402344,0.234375,33.6875,-53.65625,-49.6875
176,1727265397234,-0.60058594,0.047851562,0.2783203,10.84375,-31.15625,-28.59375
177,1727265397263,-0.68847656,-0.061523438,0.36523438,2.96875,-18.09375,-16.5
178,1727265397323,-0.75,-0.18847656,0.3984375,-0.1875,-11.84375,-9.71875
179,1727265397353,-0.6923828,-0.20410156,0.359375,0.96875,-3.90625,-15.75
180,1727265397387,-0.6640625,-0.1796875,0.34765625,-1.96875,6.21875,-9.28125
181,1727265397444,-0.68652344,-0.20117188,0.32226562,3.65625,24.875,11.8125
182,1727265397473,-0.7363281,-0.119140625,0.4501953,5.40625,52.34375,37.09375
183,1727265397503,-2.0,-0.328125,0.7441406,-3.625,32.28125,15.96875
184,1727265397564,-0.97558594,0.0107421875,0.25,0.0,36.84375,19.6875
185,1727265397593,-0.88378906,0.18457031,0.2734375,2.65625,57.46875,34.15625
186,1727265397623,-1.2539062,-0.037109375,0.25097656,-11.4375,80.90625,52.65625
187,1727265397713,-0.7705078,0.1328125,0.1484375,24.46875,50.21875,39.53125
188,1727265397746,-1.0986328,0.09765625,0.09765625,-5.25,73.96875,47.40625
189,1727265397773,-1.1074219,0.0,0.06738281,-10.34375,74.3125,34.90625
190,1727265397807,-0.9873047,0.14453125,0.08105469,-7.28125,47.15625,36.65625
191,1727265397833,-1.0263672,0.001953125,0.052734375,4.125,30.4375,49.375
192,1727265397863,-0.9375,-0.0087890625,0.044921875,10.25,38.0625,40.375
193,1727265397923,-0.91503906,0.01171875,0.015625,4.6875,26.53125,33.375
194,1727265397983,-0.9560547,-0.056640625,0.057617188,48.3125,18.78125,28.5625
195,1727265398013,-0.9716797,0.059570312,0.038085938,37.75,24.8125,16.65625
196,1727265398044,-1.0615234,0.09375,-0.029296875,-12.53125,25.0,11.40625
197,1727265398073,-1.0595703,0.00390625,-0.052734375,0.03125,13.53125,6.09375
198,1727265398169,-0.99121094,0.043945312,0.029296875,-9.15625,21.84375,1.4375
199,1727265398194,-1.0097656,0.17089844,-0.0146484375,25.375,10.46875,-1.84375
200,1727265398223,-0.9892578,0.15820312,-0.08984375,31.40625,10.0625,6.03125
201,1727265398253,-1.0039062,0.119140625,0.017578125,13.59375,22.1875,8.84375
202,1727265398283,-1.0419922,0.06933594,-0.095703125,-0.1875,10.40625,7.25
203,1727265398315,-0.9560547,0.06933594,0.045898438,9.5,24.34375,8.28125
204,1727265398343,-1.1132812,0.028320312,-0.14257812,-10.40625,3.28125,3.21875
205,1727265398404,-1.4775391,0.41796875,0.034179688,14.5,60.21875,-2.21875
206,1727265398439,-1.5878906,0.18359375,0.06347656,-43.46875,-11.96875,10.46875
207,1727265398464,-1.5449219,0.11425781,0.015625,-13.125,-28.8125,16.65625
208,1727265398529,-1.1132812,0.103515625,0.20996094,11.09375,-86.5625,16.53125
209,1727265398558,-1.0537109,0.05859375,0.032226562,-55.5,-85.90625,6.28125
210,1727265398585,-0.9970703,0.12792969,-0.07128906,-120.25,-71.3125,-13.3125
211,1727265398644,-0.91503906,0.20605469,-0.034179688,-62.75,-71.65625,-41.53125
212,1727265398679,-0.86621094,0.19824219,-0.021484375,-41.6875,-72.28125,-44.09375
213,1727265398703,-0.98828125,0.109375,0.29882812,-28.6875,-61.53125,-51.71875
214,1727265398769,-1.0400391,0.08984375,0.10644531,-16.375,-52.4375,-60.5625
215,1727265398798,-1.0009766,-0.028320312,0.08203125,-39.625,-44.6875,-80.21875
216,1727265398823,-0.9375,0.0625,0.2998047,-17.34375,-43.59375,-70.03125
217,1727265398883,-0.7675781,0.046875,0.26757812,12.0,-52.8125,-64.40625
218,1727265398914,-0.62109375,0.06347656,0.15332031,25.1875,-44.09375,-56.90625
219,1727265398944,-0.75683594,-0.06933594,0.1875,53.875,-47.0625,-48.28125
220,1727265399008,-0.6435547,0.03125,0.2939453,43.3125,-33.9375,-34.9375
221,1727265399033,-0.60253906,0.0703125,0.33691406,27.03125,-22.78125,-25.59375
222,1727265399064,-0.6542969,-0.14648438,0.39160156,-2.21875,-0.5625,-23.8125
223,1727265399123,-0.77246094,-0.2939453,0.44140625,10.59375,14.375,-6.78125
224,1727265399164,-0.71972656,-0.3173828,0.4189453,33.6875,55.78125,27.75
225,1727265399183,-1.4902344,-0.03125,0.67285156,6.34375,40.6875,22.875
226,1727265399243,-1.1757812,-0.0068359375,0.27929688,-10.28125,28.65625,33.84375
227,1727265399273,-0.7470703,0.1015625,0.41015625,-9.59375,77.8125,48.8125
228,1727265399333,-1.3837891,-0.0009765625,0.17285156,-48.78125,113.75,53.15625
229,1727265399364,-1.125,-0.22460938,0.12402344,-10.4375,83.90625,45.15625
230,1727265399400,-1.0595703,0.10058594,0.095703125,38.25,54.3125,43.5625
231,1727265399453,-1.0068359,0.1796875,0.10546875,45.875,30.4375,48.3125
232,1727265399483,-0.93652344,0.203125,0.0390625,27.28125,25.5625,46.3125
233,1727265399513,-0.9863281,0.057617188,0.046875,0.0,42.78125,48.8125
234,1727265399543,-0.9902344,0.00390625,0.04296875,6.03125,32.03125,36.46875
235,1727265399606,-0.9140625,0.026367188,-0.0546875,39.0625,24.28125,14.3125
236,1727265399634,-0.890625,0.1015625,-0.030273438,17.75,46.875,0.90625
237,1727265399664,-0.984375,0.06933594,0.087890625,55.15625,36.78125,17.875
238,1727265399754,-1.0351562,-0.0146484375,0.0029296875,33.75,7.6875,16.15625
239,1727265399783,-1.0664062,-0.09277344,-0.09765625,8.46875,13.28125,5.65625
240,1727265399813,-0.9638672,0.080078125,-0.043945312,5.34375,25.8125,-9.59375
241,1727265399843,-0.96191406,0.2421875,-0.0107421875,15.625,19.34375,-4.96875
242,1727265399873,-0.9707031,0.09863281,0.0009765625,20.84375,4.125,7.25
243,1727265399934,-0.9873047,0.057617188,-0.07910156,-0.3125,3.34375,10.375
244,1727265399963,-1.0234375,0.09375,0.0048828125,12.5,26.0,11.03125
245,1727265399993,-1.1679688,-0.083984375,-0.07714844,-21.4375,20.0,18.1875
246,1727265400023,-1.2910156,0.17578125,-0.13671875,-0.375,21.28125,4.4375
247,1727265400088,-1.4628906,0.22851562,-0.091796875,0.09375,4.0,9.5625
248,1727265400113,-1.6289062,0.17578125,0.056640625,22.375,-7.15625,18.78125
249,1727265400144,-1.2041016,0.18066406,0.2734375,21.46875,-72.84375,18.65625
250,1727265400203,-1.0439453,0.1484375,0.08105469,-24.6875,-98.15625,0.15625
251,1727265400237,-1.1298828,0.4560547,-0.26464844,-113.90625,-85.65625,-16.0
252,1727265400263,-0.9785156,0.17871094,0.11621094,-126.40625,-64.84375,-42.25
253,1727265400323,-0.91015625,0.17382812,-0.12695312,-13.0625,-82.34375,-35.78125
254,1727265400353,-0.91015625,-0.028320312,0.0009765625,-22.96875,-73.5625,-52.75
255,1727265400414,-1.1308594,-0.109375,0.2890625,-49.8125,-56.0,-77.03125
256,1727265400475,-0.921875,0.25,0.12792969,66.9375,-115.0625,-76.96875
257,1727265400504,-0.7285156,0.28125,0.22753906,-36.75,-56.84375,-81.3125
258,1727265400539,-0.8300781,-0.107421875,0.31347656,-27.0,-49.40625,-59.46875
259,1727265400563,-0.9638672,-0.3408203,0.21582031,10.78125,-47.8125,-44.5625
260,1727265400598,-0.8017578,-0.09375,0.2607422,35.03125,-45.0625,-38.46875
261,1727265400624,-0.5859375,-0.009765625,0.23632812,37.46875,-36.9375,-30.21875
262,1727265400685,-0.5498047,-0.036132812,0.41992188,8.65625,-12.28125,-22.0
263,1727265400722,-0.6328125,-0.19335938,0.40234375,-1.96875,3.53125,-14.78125
264,1727265400744,-0.6875,-0.13867188,0.38867188,5.21875,16.09375,-1.90625
265,1727265400803,-0.6748047,-0.24902344,0.53808594,-6.1875,36.375,18.71875
266,1727265400833,-1.234375,0.08984375,0.45410156,11.71875,37.03125,27.15625
267,1727265400893,-1.390625,-0.18457031,0.49804688,5.65625,48.875,43.5625
268,1727265400923,-0.9609375,0.12988281,0.5078125,-8.5,65.65625,27.34375
269,1727265400953,-0.96875,0.0,0.08300781,1.5,93.78125,66.34375
270,1727265400983,-1.2148438,0.06738281,0.00390625,-12.03125,115.03125,61.3125
271,1727265401044,-1.0166016,-0.01171875,0.10839844,7.25,86.28125,48.3125
272,1727265401073,-0.9921875,0.013671875,0.19824219,34.78125,57.46875,44.90625
273,1727265401103,-1.03125,0.18164062,0.13867188,26.90625,51.75,47.40625
274,1727265401164,-0.8408203,0.140625,0.08203125,31.90625,29.03125,46.96875
275,1727265401193,-1.0068359,-0.024414062,0.01953125,18.40625,37.71875,53.9375
276,1727265401224,-1.0068359,-0.022460938,0.061523438,4.1875,30.0,30.25
277,1727265401286,-1.0117188,0.060546875,0.030273438,28.78125,21.34375,15.5625
278,1727265401314,-0.9765625,0.08203125,-0.051757812,12.5,21.84375,3.40625
279,1727265401343,-1.0527344,0.05078125,0.0,14.9375,29.84375,3.03125
280,1727265401403,-1.0517578,-0.02734375,-0.07519531,2.71875,19.21875,-3.90625
281,1727265401465,-1.0341797,0.01953125,-0.047851562,9.8125,29.84375,-4.28125
282,1727265401503,-0.9511719,0.12207031,-0.10644531,8.59375,21.65625,-9.21875
283,1727265401524,-0.9042969,0.2607422,-0.0859375,21.65625,29.15625,-6.90625
284,1727265401553,-0.9199219,0.13867188,-0.15527344,9.25,7.6875,4.4375
285,1727265401613,-0.94433594,0.14453125,-0.07128906,10.90625,20.5625,10.375
286,1727265401643,-1.0322266,0.056640625,-0.13476562,-11.71875,10.96875,10.375
287,1727265401673,-1.0849609,0.037109375,-0.0625,17.3125,15.3125,16.65625
288,1727265401704,-1.4023438,0.049804688,-0.123046875,-2.03125,21.96875,10.375
289,1727265401764,-1.4824219,0.27246094,0.053710938,7.90625,23.90625,7.90625
290,1727265401794,-1.4248047,0.22949219,-0.11035156,12.5625,-27.53125,13.15625
291,1727265401883,-1.1289062,0.16210938,0.13671875,-3.1875,-60.8125,17.4375
292,1727265401913,-1.0830078,0.0126953125,-0.03125,-25.28125,-93.53125,9.375
293,1727265401943,-1.046875,0.19238281,-0.24414062,-66.59375,-83.9375,-20.78125
294,1727265401978,-1.0722656,0.29003906,0.041992188,-56.40625,-50.0,-37.0625
295,1727265402006,-0.9765625,0.3359375,0.15917969,-44.28125,-79.0,-22.15625
296,1727265402063,-0.9404297,0.125,0.13085938,6.5,-99.0,-15.03125
297,1727265402093,-0.8544922,0.14941406,0.08886719,-48.46875,-70.625,-35.0
298,1727265402124,-0.74121094,0.2861328,0.11035156,-70.03125,-51.34375,-41.09375
299,1727265402157,-0.8701172,0.13085938,0.07910156,-73.9375,-36.6875,-35.34375
300,1727265402184,-1.1826172,-0.17675781,0.15625,-46.34375,-37.5625,-48.96875
301,1727265402273,-1.1796875,-0.2626953,0.26953125,-23.34375,-46.03125,-88.28125
302,1727265402303,-0.9404297,0.1171875,0.36328125,6.8125,-46.03125,-93.53125
303,1727265402338,-0.74121094,-0.0390625,0.2998047,24.71875,-61.0625,-56.90625
304,1727265402363,-0.6826172,-0.08984375,0.34375,8.09375,-42.4375,-38.53125
305,1727265402393,-0.6484375,-0.11425781,0.32128906,10.53125,-22.90625,-19.0
306,1727265402423,-0.6376953,-0.15332031,0.33691406,13.78125,-7.71875,-5.25
307,1727265402483,-0.5986328,-0.25195312,0.3203125,-10.21875,16.46875,-7.8125
308,1727265402514,-0.6591797,-0.29785156,0.34960938,6.46875,34.21875,12.1875
309,1727265402543,-1.015625,-0.203125,0.5410156,5.53125,36.78125,21.34375
310,1727265402603,-1.5029297,0.16113281,0.5917969,-3.625,37.09375,42.21875
311,1727265402634,-1.0869141,-0.09375,0.4267578,-17.59375,72.75,42.46875
312,1727265402663,-1.0830078,-0.12597656,0.09863281,4.5625,104.0625,56.3125
313,1727265402725,-1.1416016,-0.08300781,0.13378906,22.375,76.40625,52.40625
314,1727265402754,-1.1494141,0.0390625,0.17285156,29.46875,64.0,41.125
315,1727265402784,-0.796875,0.16699219,0.103515625,43.0625,53.625,35.6875
316,1727265402843,-0.98828125,0.3154297,0.087890625,24.28125,40.75,43.8125
317,1727265402875,-0.9921875,0.14453125,0.12792969,-7.21875,48.75,47.84375
318,1727265402938,-1.0771484,-0.059570312,0.029296875,-7.65625,46.3125,52.71875
319,1727265402963,-0.98828125,-0.11230469,-0.0107421875,17.5625,6.21875,31.0625
320,1727265402994,-0.8769531,0.11425781,0.0068359375,40.375,19.03125,8.84375
321,1727265403058,-1.0351562,0.16210938,-0.025390625,22.125,39.96875,1.15625
322,1727265403089,-1.0595703,0.0859375,0.0390625,10.46875,33.75,1.5
323,1727265403113,-1.0878906,0.0009765625,0.02734375,-32.25,7.96875,6.15625
324,1727265403175,-1.0195312,-0.12792969,-0.0859375,15.1875,10.375,4.0
325,1727265403203,-0.9189453,-0.016601562,-0.12597656,22.5625,17.0625,-0.6875
326,1727265403235,-0.91796875,0.18652344,-0.041015625,12.625,31.40625,-2.28125
327,1727265403294,-0.9042969,0.16210938,0.033203125,12.0625,11.71875,10.46875
328,1727265403328,-0.9394531,0.06738281,-0.11816406,1.625,5.46875,11.15625
329,1727265403353,-1.015625,0.052734375,-0.14355469,9.03125,14.375,10.1875
330,1727265403413,-1.0332031,0.123046875,-0.10058594,12.375,25.5625,13.96875
331,1727265403444,-1.1738281,0.18261719,-0.043945312,8.71875,18.96875,21.65625
332,1727265403475,-1.2724609,0.11230469,-0.10253906,-1.65625,3.28125,22.1875
333,1727265403567,-1.5517578,0.0068359375,-0.07128906,-6.25,1.9375,15.96875
334,1727265403594,-1.4443359,0.10546875,0.064453125,-1.40625,-18.4375,9.375
335,1727265403623,-1.1152344,0.203125,0.20703125,17.8125,-60.75,0.0
336,1727265403659,-1.0039062,0.1796875,0.064453125,-15.28125,-97.0625,-10.4375
337,1727265403689,-1.1494141,0.26660156,-0.10253906,-75.625,-75.09375,-17.46875
338,1727265403713,-1.0390625,0.22558594,0.080078125,-56.90625,-71.25,-31.4375
339,1727265403778,-1.0185547,0.25976562,0.02734375,-34.25,-80.875,-34.8125
340,1727265403808,-0.9189453,0.12207031,0.087890625,-3.96875,-90.71875,-39.0625
341,1727265403835,-1.0302734,0.12695312,0.22558594,-51.65625,-59.9375,-58.3125
342,1727265403893,-0.93359375,0.22167969,0.18554688,-11.4375,-76.96875,-72.09375
343,1727265403953,-0.8496094,0.080078125,0.08984375,-22.53125,-78.75,-67.75
344,1727265403984,-0.92089844,-0.017578125,0.25,-37.5,-57.625,-73.1875
345,1727265404014,-0.9707031,-0.083984375,0.2607422,-26.25,-25.03125,-68.75
346,1727265404043,-0.890625,-0.087890625,0.3408203,10.125,-26.875,-84.96875
347,1727265404074,-0.69921875,-0.28125,0.2265625,39.78125,-57.75,-37.625
348,1727265404164,-0.41992188,0.099609375,0.42285156,31.90625,-44.09375,-22.96875
349,1727265404195,-0.53027344,0.02734375,0.48242188,17.5625,-4.40625,-11.5625
350,1727265404223,-0.6640625,-0.13867188,0.51171875,12.875,5.46875,0.65625
351,1727265404253,-0.66796875,-0.24609375,0.4267578,8.84375,11.9375,3.21875
352,1727265404284,-0.69433594,-0.3798828,0.39941406,-14.78125,45.40625,25.75
353,1727265404317,-1.328125,-0.42089844,0.7529297,-34.4375,66.09375,19.09375
354,1727265404373,-1.4638672,-0.25390625,0.38671875,12.75,27.9375,40.875
355,1727265404404,-0.859375,0.107421875,0.45410156,10.375,68.78125,43.0625
356,1727265404434,-1.0751953,-0.08984375,0.087890625,6.34375,120.46875,68.71875
357,1727265404493,-1.2646484,0.01953125,0.091796875,19.6875,108.5,52.0
358,1727265404523,-0.87402344,0.047851562,0.21777344,22.03125,77.8125,35.875
359,1727265404553,-0.9921875,0.17089844,0.18457031,45.40625,42.28125,45.625
360,1727265404613,-1.0205078,0.22070312,0.046875,31.125,39.21875,44.0
361,1727265404644,-0.9794922,0.047851562,0.052734375,4.75,26.28125,47.78125
362,1727265404673,-0.9980469,-0.09765625,0.040039062,7.625,22.03125,46.625
363,1727265404763,-0.9501953,0.06640625,0.017578125,18.21875,21.28125,13.71875
364,1727265404799,-0.8076172,0.10058594,-0.055664062,-14.40625,32.53125,-0.8125
365,1727265404823,-1.0107422,0.18066406,-0.060546875,7.90625,51.75,5.46875
366,1727265404883,-1.0898438,0.053710938,0.13183594,-8.0625,54.0625,11.15625
367,1727265404913,-1.0478516,-0.10058594,-0.07128906,-17.59375,4.8125,12.5
368,1727265404943,-1.0478516,-0.051757812,-0.11425781,32.53125,22.03125,3.46875
369,1727265404973,-0.98339844,0.08691406,-0.009765625,43.625,32.8125,-1.125
370,1727265405004,-0.9433594,0.087890625,-0.032226562,29.46875,10.84375,-0.8125
371,1727265405033,-0.9941406,0.0625,-0.12695312,0.65625,9.8125,-1.125
372,1727265405123,-1.0009766,0.16699219,-0.005859375,-11.25,24.75,-1.34375
373,1727265405153,-1.0332031,0.046875,-0.11230469,9.03125,7.125,11.53125
374,1727265405183,-1.0058594,-0.0234375,-0.12011719,-0.625,3.28125,14.21875
375,1727265405217,-1.1103516,0.030273438,-0.16503906,13.65625,11.9375,14.28125
376,1727265405243,-1.2148438,0.24804688,-0.12988281,-7.40625,14.6875,9.25
377,1727265405275,-1.3740234,0.2919922,-0.08203125,-34.3125,-2.34375,16.40625
378,1727265405333,-1.4824219,0.13671875,-0.07714844,-1.125,-8.4375,23.125
379,1727265405363,-1.2519531,0.048828125,0.34375,-36.875,-0.375,18.40625
380,1727265405398,-1.0673828,0.11425781,0.036132812,13.0,-86.3125,5.53125
381,1727265405453,-1.1894531,0.24707031,0.0087890625,-12.28125,-72.65625,-1.96875
382,1727265405484,-1.0966797,0.22070312,-0.13183594,-33.59375,-82.71875,-11.78125
383,1727265405519,-1.0117188,0.16796875,0.06933594,-40.25,-58.125,-26.03125
384,1727265405573,-0.90625,0.25195312,0.25,-31.875,-67.03125,-38.78125
385,1727265405603,-0.78222656,0.078125,-0.04296875,-4.40625,-84.84375,-25.15625
386,1727265405633,-0.96972656,0.02734375,0.15234375,-32.96875,-45.5625,-52.09375
387,1727265405693,-0.98046875,0.20117188,0.30371094,-45.1875,-52.1875,-71.5625
388,1727265405724,-0.90625,0.09277344,0.16796875,-12.46875,-76.625,-67.40625
389,1727265405758,-1.0302734,0.0087890625,0.23925781,-36.5,-51.40625,-77.96875
390,1727265405813,-0.98339844,-0.107421875,0.32714844,-14.96875,-47.75,-76.125
391,1727265405844,-0.88671875,-0.1640625,0.26757812,15.0,-64.84375,-71.4375
392,1727265405873,-0.71484375,-0.11328125,0.34277344,18.96875,-55.125,-55.75
393,1727265405934,-0.63671875,0.0087890625,0.38085938,25.75,-37.375,-29.8125
394,1727265405963,-0.62597656,-0.09375,0.36328125,12.6875,-24.375,-14.46875
395,1727265405994,-0.6064453,-0.15917969,0.40234375,2.84375,1.375,-6.25
396,1727265406053,-0.67871094,-0.33984375,0.47265625,-1.78125,15.0,-3.375
397,1727265406117,-0.5732422,-0.20605469,0.375,9.375,39.0,21.28125
398,1727265406174,-0.98339844,-0.45703125,0.62890625,-13.125,57.40625,44.34375
399,1727265406204,-1.8974609,-0.17285156,0.49804688,-32.125,90.5625,52.34375
400,1727265406234,-1.0273438,-0.16210938,0.35253906,16.9375,66.625,34.71875
401,1727265406270,-0.98828125,0.087890625,0.25195312,14.5,110.34375,65.96875
402,1727265406294,-1.1005859,0.16992188,0.20410156,48.25,87.15625,58.6875
403,1727265406323,-0.9091797,0.1953125,0.12890625,18.1875,59.75,49.4375
404,1727265406354,-0.86328125,0.091796875,0.13574219,-0.875,56.6875,46.625
405,1727265406417,-0.92089844,0.1484375,-0.0029296875,-1.34375,57.40625,43.0
406,1727265406444,-1.0458984,0.026367188,0.0,-26.25,37.15625,37.40625
407,1727265406473,-0.9941406,-0.10546875,0.09082031,3.03125,32.625,31.0625
408,1727265406534,-1.0566406,0.08203125,0.07714844,35.5,16.53125,23.84375
409,1727265406564,-0.89746094,0.07910156,0.03515625,17.3125,19.75,9.6875
410,1727265406623,-1.0068359,0.08300781,-0.049804688,-8.75,20.75,7.6875
411,1727265406653,-1.0488281,0.056640625,-0.030273438,2.65625,42.96875,1.625
412,1727265406743,-1.0166016,0.080078125,0.09667969,-11.1875,37.46875,4.0
413,1727265406775,-1.0429688,-0.034179688,-0.07910156,-9.65625,5.40625,-2.28125
414,1727265406806,-0.97265625,0.078125,-0.14453125,-6.96875,22.1875,-8.0
415,1727265406839,-0.9765625,0.14355469,0.043945312,1.375,31.84375,-5.5625
416,1727265406893,-1.0371094,0.025390625,-0.09472656,18.0625,2.0625,1.4375
417,1727265406923,-0.96972656,0.047851562,-0.037109375,15.0,11.71875,-0.75
418,1727265406954,-0.97753906,0.0703125,-0.11230469,-7.09375,10.96875,-0.375
419,1727265406985,-1.0292969,0.0390625,-0.09277344,-0.125,21.96875,8.84375
420,1727265407043,-1.0195312,0.10839844,-0.064453125,2.1875,19.21875,13.15625
421,1727265407074,-1.0791016,0.087890625,-0.06347656,0.28125,14.15625,17.75
422,1727265407108,-1.2382812,-0.001953125,-0.17480469,-6.5,7.5625,13.84375
423,1727265407135,-1.3925781,0.22558594,-0.12597656,-16.0,22.4375,9.5
424,1727265407163,-1.5410156,0.1875,-0.07519531,12.375,5.46875,15.0625
425,1727265407194,-1.3222656,0.26953125,0.21777344,-6.59375,-35.71875,16.21875
426,1727265407254,-1.0927734,0.057617188,0.09277344,-11.625,-92.0625,14.375
427,1727265407284,-1.1591797,0.056640625,-0.049804688,-55.4375,-88.28125,-12.46875
428,1727265407315,-1.0761719,0.15527344,-0.05078125,-79.0,-91.03125,-33.78125
429,1727265407373,-1.0146484,0.24121094,0.0107421875,-55.5,-85.21875,-41.8125
430,1727265407404,-0.90625,0.13964844,0.06640625,-33.40625,-107.6875,-49.15625
431,1727265407433,-0.90625,0.030273438,0.06542969,-59.65625,-68.625,-65.75
432,1727265407523,-1.0058594,0.018554688,0.17285156,-34.5625,-62.6875,-76.1875
433,1727265407584,-0.8955078,0.13378906,0.16503906,-6.65625,-92.53125,-87.28125
434,1727265407614,-0.9140625,0.060546875,0.21582031,-46.09375,-43.15625,-87.90625
435,1727265407644,-0.81933594,-0.20019531,0.171875,-21.875,-55.125,-68.8125
436,1727265407677,-0.66796875,-0.12597656,0.24121094,20.125,-49.09375,-55.375
437,1727265407703,-0.6669922,-0.19628906,0.25878906,19.53125,-28.40625,-35.96875
438,1727265407736,-0.5683594,-0.16015625,0.3125,29.53125,-21.0,-21.625
439,1727265407763,-0.46191406,-0.2607422,0.34375,2.71875,11.59375,-18.4375
440,1727265407793,-0.5908203,-0.36621094,0.51171875,16.65625,19.21875,-2.9375
441,1727265407858,-0.67871094,-0.41015625,0.35546875,1.4375,36.46875,11.8125
442,1727265407885,-1.3847656,-0.038085938,0.73535156,0.84375,35.9375,20.0625
443,1727265407914,-1.1611328,-0.10644531,0.4501953,-6.53125,44.78125,36.90625
444,1727265407973,-1.0576172,-0.020507812,0.36132812,-14.71875,45.46875,50.40625
445,1727265408004,-1.0810547,-0.0087890625,0.34277344,8.59375,75.0625,85.0
446,1727265408034,-1.3642578,0.015625,0.13476562,-5.625,122.125,57.59375
447,1727265408101,-0.99316406,0.06640625,0.13769531,-8.75,72.375,51.6875
448,1727265408124,-0.9238281,0.0546875,0.11035156,18.90625,56.125,57.125
449,1727265408155,-0.97265625,0.049804688,0.08691406,31.53125,36.71875,55.71875
450,1727265408218,-0.8359375,0.15625,0.055664062,51.1875,29.71875,53.75
451,1727265408243,-1.0195312,-0.111328125,0.0009765625,-21.0,59.3125,48.9375
452,1727265408275,-1.0986328,-0.171875,0.083984375,2.78125,44.96875,35.1875
453,1727265408334,-0.89941406,0.13964844,0.10839844,45.40625,13.28125,19.03125
454,1727265408364,-0.8886719,0.11425781,-0.059570312,32.625,8.46875,9.03125
455,1727265408394,-1.1035156,0.06542969,-0.13378906,27.625,20.5625,7.125
456,1727265408484,-1.0205078,-0.0048828125,0.0107421875,14.625,36.25,0.21875
457,1727265408513,-1.015625,0.021484375,-0.037109375,19.46875,21.09375,1.03125
458,1727265408543,-0.9814453,0.060546875,-0.10546875,30.6875,22.09375,4.6875
459,1727265408576,-0.93359375,0.13183594,-0.032226562,25.5,33.125,3.71875
460,1727265408605,-0.9589844,0.13085938,-0.0703125,12.25,17.375,7.5
461,1727265408633,-1.0400391,0.06933594,-0.018554688,15.84375,21.34375,13.15625
462,1727265408698,-1.0966797,0.018554688,-0.072265625,12.25,9.5,15.71875
463,1727265408723,-1.3369141,0.14550781,-0.13378906,7.375,15.1875,12.25
464,1727265408755,-1.515625,0.28222656,-0.03125,-0.75,10.125,7.0
465,1727265408819,-1.6347656,0.22949219,0.06347656,5.1875,-29.4375,12.75
466,1727265408844,-1.2597656,0.15234375,0.15625,5.59375,-86.9375,15.84375
467,1727265408873,-0.8027344,0.54296875,0.28222656,-308.78125,-202.40625,-32.0
468,1727265408933,-1.0517578,0.041015625,0.03515625,-135.03125,-91.1875,-26.1875
469,1727265408964,-0.9082031,0.078125,-0.015625,13.21875,-56.15625,-49.15625
470,1727265408993,-0.9042969,0.25195312,0.0068359375,64.875,-77.28125,-56.65625
471,1727265409053,-0.83984375,0.11621094,0.11230469,54.375,-97.375,-38.59375
472,1727265409083,-0.93652344,0.083984375,0.2109375,3.65625,-70.5625,-61.0
473,1727265409115,-0.92871094,0.24121094,0.18652344,-20.03125,-65.75,-81.0
474,1727265409178,-0.91308594,0.1015625,0.2626953,-61.71875,-48.0625,-71.0625
475,1727265409203,-1.0742188,-0.2763672,0.3642578,-14.3125,-51.84375,-68.8125
476,1727265409233,-0.8779297,-0.07324219,0.3408203,6.875,-47.9375,-77.34375
477,1727265409293,-0.65527344,-0.020507812,0.31445312,1.625,-42.8125,-60.6875
478,1727265409324,-0.69140625,-0.04296875,0.3701172,-5.25,-41.28125,-31.375
479,1727265409356,-0.66308594,-0.1640625,0.38671875,-12.53125,-19.0,-29.1875
480,1727265409418,-0.61816406,-0.19921875,0.35742188,10.78125,-13.8125,-15.9375
481,1727265409443,-0.6015625,-0.27441406,0.3720703,16.78125,-0.3125,-6.125
482,1727265409473,-0.5732422,-0.2548828,0.31933594,25.5625,25.9375,16.78125
483,1727265409568,-0.92871094,-0.41308594,0.8222656,-6.125,44.90625,27.75
484,1727265409594,-1.7226562,-0.09277344,0.6611328,-9.0,55.96875,47.71875
485,1727265409623,-1.0546875,-0.059570312,0.37402344,0.53125,79.5625,43.1875
486,1727265409654,-0.9824219,-0.17578125,0.22558594,-14.71875,95.75,61.625
487,1727265409685,-1.3193359,-0.17675781,0.12988281,22.5,106.0625,68.40625
488,1727265409713,-0.89941406,0.13769531,0.11230469,28.4375,68.28125,42.53125
489,1727265409803,-0.79589844,0.21386719,0.12597656,40.5,52.71875,44.28125
490,1727265409834,-1.0800781,0.18261719,0.109375,4.0,50.53125,53.375
491,1727265409863,-0.9296875,0.049804688,0.051757812,15.3125,38.9375,48.75
492,1727265409899,-0.9921875,-0.04296875,0.0234375,15.65625,39.59375,49.375
493,1727265409925,-1.0302734,-0.08203125,0.009765625,13.03125,37.71875,36.59375
494,1727265409953,-0.9375,0.06738281,0.07128906,21.53125,21.59375,15.625
495,1727265410013,-0.9433594,0.078125,0.03515625,34.71875,24.9375,17.0
496,1727265410043,-1.0722656,0.072265625,0.064453125,25.0625,23.46875,13.40625
497,1727265410075,-1.0166016,0.022460938,0.0107421875,13.15625,18.78125,7.375
498,1727265410133,-1.0175781,-0.04296875,-0.0703125,-7.09375,15.78125,2.25
499,1727265410164,-1.0478516,-0.08886719,-0.1171875,17.6875,16.40625,-1.0625
500,1727265410193,-0.96875,0.055664062,-0.038085938,35.75,40.21875,0.78125
501,1727265410253,-0.9628906,0.18164062,0.01171875,25.4375,30.875,4.5625
502,1727265410290,-1.0185547,0.1015625,-0.09472656,5.0625,11.28125,9.9375
503,1727265410314,-0.9736328,0.1015625,-0.15039062,3.46875,18.0,12.1875
504,1727265410373,-1.0927734,0.033203125,0.00390625,5.0625,25.8125,18.34375
505,1727265410403,-1.2646484,0.08300781,-0.12792969,-2.875,8.40625,15.84375
506,1727265410437,-1.3828125,0.14160156,-0.09667969,-25.09375,2.78125,12.75
507,1727265410527,-1.5976562,0.119140625,-0.0107421875,28.625,-6.59375,15.1875
508,1727265410553,-1.3115234,0.23339844,0.20996094,13.65625,-49.625,6.09375
509,1727265410588,-1.0898438,0.12109375,0.16503906,-30.46875,-98.59375,-1.71875
510,1727265410613,-1.1601562,0.25683594,0.046875,-101.40625,-100.90625,-8.6875
511,1727265410647,-1.0712891,0.3564453,-0.08496094,-44.5625,-83.75,-28.9375
512,1727265410673,-0.83691406,0.27539062,-0.08105469,-20.09375,-79.25,-31.625
513,1727265410733,-0.90527344,0.10644531,0.21191406,-30.53125,-88.21875,-32.4375
514,1727265410764,-0.96191406,-0.041015625,0.15234375,-61.78125,-68.5,-47.5
515,1727265410794,-0.93359375,0.203125,0.20605469,-71.375,-43.71875,-79.53125
516,1727265410853,-0.9033203,0.18457031,0.1796875,-3.5625,-82.65625,-81.875
517,1727265410887,-0.7753906,0.044921875,0.22070312,-48.0,-33.9375,-76.0625
518,1727265410914,-0.9394531,-0.25,0.2685547,-15.6875,-26.375,-77.71875
519,1727265410973,-0.7783203,-0.13574219,0.25195312,44.0625,-53.0625,-64.09375
520,1727265411003,-0.6074219,-0.06347656,0.3359375,56.8125,-52.125,-38.78125
521,1727265411037,-0.5283203,0.01953125,0.34570312,45.40625,-34.25,-16.375
522,1727265411093,-0.5966797,-0.0029296875,0.40625,10.71875,4.5625,-7.34375
523,1727265411123,-0.75097656,-0.2841797,0.4951172,-5.09375,29.71875,-2.40625
524,1727265411158,-0.9707031,-0.50878906,0.5175781,1.8125,23.125,3.90625
525,1727265411213,-1.1669922,0.25,0.5878906,3.21875,28.78125,33.90625
526,1727265411243,-1.2294922,0.018554688,0.45117188,-5.9375,70.78125,55.21875
527,1727265411274,-1.0917969,-0.030273438,0.2626953,-20.34375,99.90625,52.90625
528,1727265411333,-1.2412109,-0.0546875,0.13769531,-3.0,109.46875,68.03125
529,1727265411367,-1.1240234,-0.103515625,0.22949219,-11.96875,82.9375,44.90625
530,1727265411393,-0.8046875,0.15429688,0.171875,50.59375,42.40625,50.46875
531,1727265411453,-0.93652344,0.18554688,0.109375,8.90625,52.28125,50.34375
532,1727265411486,-0.9199219,0.11328125,0.01171875,-15.53125,50.15625,47.90625
533,1727265411519,-1.0996094,-0.09375,-0.0078125,-47.3125,66.875,44.78125
534,1727265411573,-0.97558594,-0.107421875,0.10253906,-7.59375,41.5625,32.625
535,1727265411603,-0.96875,0.13476562,0.0078125,18.0,19.15625,23.96875
536,1727265411635,-0.88378906,0.08984375,0.026367188,21.40625,22.09375,19.9375
537,1727265411694,-1.0488281,0.107421875,0.0029296875,24.53125,23.46875,21.78125
538,1727265411723,-0.96875,-0.0390625,-0.07421875,-4.28125,18.71875,8.59375
539,1727265411783,-1.0361328,-0.022460938,0.0390625,3.59375,36.4375,4.0
540,1727265411814,-1.0449219,-0.01171875,-0.0068359375,22.125,20.1875,3.53125
541,1727265411843,-1.0,0.020507812,-0.046875,26.34375,27.03125,1.03125
542,1727265411873,-0.9921875,0.10839844,-0.091796875,13.28125,25.5,0.65625
543,1727265411933,-0.9394531,0.19824219,0.016601562,3.34375,31.71875,4.0625
544,1727265411963,-0.9609375,0.14746094,-0.06542969,0.53125,15.0625,15.0
545,1727265412023,-0.90625,0.15527344,-0.15234375,-13.6875,15.0,16.65625
546,1727265412053,-1.1738281,0.09472656,-0.0146484375,-3.25,23.71875,18.1875
547,1727265412084,-1.3916016,0.1015625,-0.13378906,-41.40625,1.625,6.6875
548,1727265412118,-1.5498047,0.048828125,-0.15429688,42.21875,0.21875,3.34375
549,1727265412173,-1.5400391,0.45117188,0.18066406,21.46875,0.40625,-1.0
550,1727265412205,-1.1337891,0.1484375,0.22265625,-11.0625,-68.625,11.9375
551,1727265412235,-1.1074219,0.12695312,-0.068359375,-33.21875,-101.21875,11.53125
552,1727265412293,-0.9980469,0.27246094,0.013671875,-87.78125,-76.5,-12.78125
553,1727265412323,-0.9550781,0.21777344,-0.033203125,-33.71875,-83.8125,-24.0
554,1727265412354,-0.92089844,0.1953125,0.021484375,-48.125,-65.6875,-32.0
555,1727265412414,-1.0332031,-0.0126953125,0.08691406,-59.65625,-63.75,-49.28125
556,1727265412444,-1.0292969,0.043945312,0.27441406,-78.75,-35.46875,-80.40625
557,1727265412475,-0.96875,0.17285156,0.17382812,-16.125,-76.84375,-97.3125
558,1727265412533,-0.7919922,0.12207031,0.07910156,-36.875,-68.375,-86.625
559,1727265412564,-0.95410156,-0.21875,0.24609375,-44.4375,-37.5,-76.1875
560,1727265412594,-0.7890625,-0.0029296875,0.20898438,-4.03125,-52.25,-93.03125
561,1727265412654,-0.6982422,-0.07910156,0.17675781,19.40625,-45.78125,-63.25
562,1727265412683,-0.671875,-0.12792969,0.19824219,44.28125,-30.96875,-39.125
563,1727265412713,-0.44921875,-0.0625,0.328125,54.625,-29.8125,-18.03125
564,1727265412773,-0.5605469,-0.21191406,0.37304688,24.75,4.75,-3.875
565,1727265412804,-0.6503906,-0.26464844,0.44140625,7.0,34.59375,6.5625
566,1727265412839,-0.82714844,-0.31347656,0.4423828,13.40625,55.34375,32.15625
567,1727265412893,-1.6914062,-0.03515625,0.5546875,-2.8125,75.25,36.4375
568,1727265412924,-1.3154297,-0.19824219,0.19921875,2.25,47.84375,28.5625
569,1727265412957,-0.7451172,0.034179688,0.3095703,21.78125,78.34375,58.53125
570,1727265413013,-1.2773438,0.115234375,0.025390625,24.59375,102.03125,69.5
571,1727265413044,-1.0644531,-0.033203125,0.13867188,6.46875,72.90625,48.8125
572,1727265413078,-0.93652344,0.11230469,0.13378906,57.90625,37.09375,51.375
573,1727265413133,-0.9355469,0.115234375,0.08691406,53.4375,39.34375,49.96875
574,1727265413163,-0.99316406,0.13183594,0.040039062,32.625,25.75,47.71875
575,1727265413193,-1.0253906,0.0234375,0.076171875,23.78125,34.46875,39.21875
576,1727265413253,-0.95214844,0.057617188,0.087890625,9.8125,34.34375,21.65625
577,1727265413285,-0.9355469,0.13085938,0.0146484375,22.8125,27.34375,10.1875
578,1727265413314,-1.0185547,0.12109375,-0.016601562,18.53125,21.15625,9.9375
579,1727265413403,-1.0712891,0.07519531,-0.01171875,12.1875,34.53125,6.34375
580,1727265413433,-0.9970703,0.052734375,0.041992188,-12.46875,34.78125,0.65625
581,1727265413464,-1.0224609,-0.059570312,-0.06933594,2.0,12.375,4.0
582,1727265413493,-0.9638672,0.03125,-0.041992188,11.28125,37.46875,0.09375
583,1727265413524,-0.9482422,0.123046875,-0.061523438,-2.9375,18.65625,0.46875
584,1727265413555,-0.91503906,0.11328125,-0.026367188,-12.78125,12.9375,7.25
585,1727265413613,-1.0009766,0.020507812,-0.109375,2.0625,9.9375,11.28125
586,1727265413648,-1.1357422,0.14453125,0.0048828125,9.9375,29.9375,9.9375
587,1727265413674,-1.3222656,0.20800781,-0.11621094,1.375,9.6875,12.75
588,1727265413734,-1.5566406,0.21972656,-0.12207031,-8.75,9.1875,10.1875
589,1727265413763,-1.6103516,0.20605469,0.15917969,44.96875,-4.90625,12.9375
590,1727265413793,-1.1660156,0.15625,0.34472656,-20.28125,-77.84375,13.15625
591,1727265413853,-1.109375,0.11816406,0.053710938,-78.25,-112.25,-0.125
592,1727265413885,-0.9785156,0.17773438,0.01953125,-108.46875,-74.53125,-25.65625
593,1727265413914,-0.7597656,0.15820312,-0.09667969,-63.25,-71.375,-35.34375
594,1727265413975,-0.9453125,0.16113281,0.00390625,-20.65625,-62.875,-35.53125
595,1727265414008,-1.03125,-0.048828125,0.26464844,-14.40625,-72.90625,-51.65625
596,1727265414033,-1.0185547,0.1796875,0.26660156,-118.5,-27.1875,-89.375
597,1727265414093,-0.99121094,0.15429688,0.09667969,-8.0625,-82.53125,-83.5
598,1727265414124,-0.8457031,0.0078125,0.23242188,-72.78125,-37.5,-84.3125
599,1727265414184,-0.91796875,-0.20898438,0.2890625,-43.71875,-41.65625,-77.15625
600,1727265414214,-0.9355469,-0.17578125,0.16210938,0.84375,-44.6875,-74.84375
601,1727265414244,-0.7861328,-0.07714844,0.28027344,3.46875,-53.71875,-62.5
602,1727265414273,-0.6621094,-0.2578125,0.21777344,33.625,-37.96875,-34.0
603,1727265414338,-0.50878906,-0.13085938,0.2841797,30.75,-24.1875,-28.59375
604,1727265414363,-0.5361328,-0.18847656,0.33203125,18.40625,4.375,-26.125
605,1727265414393,-0.63964844,-0.39746094,0.4794922,13.28125,14.375,-16.0625
606,1727265414454,-0.66796875,-0.3642578,0.36816406,36.46875,23.125,6.875
607,1727265414488,-0.6376953,-0.1640625,0.40820312,17.0,43.25,36.90625
608,1727265414516,-1.2441406,-0.7314453,0.8798828,9.5625,52.90625,47.59375
609,1727265414573,-1.75,-0.31054688,0.11816406,-32.5,43.125,45.53125
610,1727265414603,-0.6484375,0.18066406,0.25683594,15.65625,53.4375,49.0
611,1727265414635,-1.1054688,-0.01171875,0.29589844,4.375,95.5,75.84375
612,1727265414694,-1.5605469,-0.109375,0.036132812,0.15625,89.09375,60.90625
613,1727265414724,-0.79003906,0.12402344,0.13476562,23.90625,41.125,54.5625
614,1727265414753,-0.88671875,0.061523438,0.0087890625,32.625,43.875,57.90625
615,1727265414816,-1.1357422,-0.0087890625,0.11328125,6.28125,48.5,45.6875
616,1727265414847,-0.9375,0.109375,0.109375,35.5625,22.9375,44.125
617,1727265414904,-0.9501953,0.14648438,0.08496094,30.4375,15.4375,43.875
618,1727265414937,-0.96191406,0.037109375,0.040039062,-1.1875,30.6875,41.96875
619,1727265414963,-0.98535156,-0.07128906,-0.04296875,18.40625,23.0,24.03125
620,1727265414994,-0.98828125,-0.025390625,0.0107421875,35.6875,23.53125,10.0625
621,1727265415057,-1.0615234,0.015625,0.02734375,43.375,26.78125,0.65625
622,1727265415083,-0.9970703,0.03515625,-0.005859375,38.3125,31.40625,1.5
623,1727265415113,-1.0048828,0.07128906,0.0009765625,8.15625,30.9375,-4.09375
624,1727265415204,-0.9628906,0.078125,-0.021484375,7.125,33.4375,-4.65625
625,1727265415237,-0.9355469,0.14941406,-0.043945312,-5.75,28.0,-1.90625
626,1727265415294,-0.91796875,0.15039062,-0.01953125,4.9375,20.3125,4.6875
627,1727265415324,-0.93847656,-0.041992188,-0.12011719,-23.8125,8.15625,4.8125
628,1727265415354,-1.0351562,0.049804688,-0.044921875,-15.40625,33.4375,3.40625
629,1727265415384,-1.0673828,0.14257812,-0.0390625,-15.625,27.28125,7.5625
630,1727265415414,-1.2216797,0.3154297,-0.049804688,13.53125,14.625,16.65625
631,1727265415444,-1.3925781,0.22851562,-0.16015625,-19.96875,4.625,21.46875
632,1727265415477,-1.5888672,0.09375,-0.15429688,45.03125,-1.65625,31.1875
633,1727265415533,-1.2431641,0.15234375,0.23535156,57.65625,-17.96875,26.09375
634,1727265415564,-1.0791016,0.083984375,0.23242188,-57.5,-95.15625,4.0
635,1727265415595,-1.1503906,0.16308594,-0.09472656,-96.9375,-89.5,-14.59375
636,1727265415654,-1.1230469,0.18261719,0.12988281,-41.21875,-72.40625,-31.15625
637,1727265415684,-1.0644531,0.26757812,-0.08691406,-41.65625,-79.1875,-38.59375
638,1727265415713,-0.9658203,-0.0234375,0.07519531,12.1875,-110.375,-37.84375
639,1727265415804,-1.0664062,-0.026367188,0.13574219,-6.125,-89.1875,-49.34375
640,1727265415833,-1.0126953,0.15527344,0.2265625,-40.78125,-71.90625,-81.0
641,1727265415864,-0.87109375,0.15136719,0.13671875,-37.3125,-79.4375,-91.3125
642,1727265415893,-0.79589844,-0.061523438,0.18847656,-71.1875,-45.25,-91.15625
643,1727265415924,-1.0478516,-0.29003906,0.34375,-35.125,-40.40625,-88.53125
644,1727265415960,-0.77734375,-0.052734375,0.2578125,27.15625,-74.90625,-94.25
645,1727265416018,-0.6738281,-0.15136719,0.3154297,-12.59375,-61.28125,-72.90625
646,1727265416048,-0.6904297,-0.14550781,0.359375,9.09375,-39.125,-46.65625
647,1727265416104,-0.4921875,-0.12011719,0.35253906,24.46875,-28.34375,-29.5
648,1727265416136,-0.50097656,-0.16015625,0.41796875,23.0625,-12.09375,-14.78125
649,1727265416168,-0.4970703,-0.33789062,0.44726562,22.25,0.40625,-2.09375
650,1727265416223,-0.5136719,-0.40429688,0.47460938,34.59375,4.875,7.90625
651,1727265416258,-0.6171875,-0.40429688,0.53027344,25.9375,20.5625,8.90625
652,1727265416284,-0.8564453,-0.625,0.6894531,16.65625,42.78125,8.71875
653,1727265416313,-1.6396484,-0.6816406,1.3115234,-36.40625,33.8125,-16.875
654,1727265416378,-0.7783203,0.01171875,0.28320312,65.28125,-6.59375,51.0
655,1727265416412,-0.83496094,-0.21484375,0.625,-7.875,93.25,40.75
656,1727265416435,-1.2246094,-0.08300781,0.2783203,-6.0,105.5625,64.75
657,1727265416495,-1.0966797,-0.024414062,0.18554688,-12.78125,107.15625,63.71875
658,1727265416524,-0.86816406,0.08496094,0.20605469,22.875,112.59375,66.75
659,1727265416553,-1.078125,0.16503906,0.16308594,23.90625,87.4375,67.0
660,1727265416614,-0.8417969,0.17675781,0.111328125,16.65625,64.3125,44.46875
661,1727265416643,-0.9765625,-0.07128906,0.06640625,-26.25,65.28125,45.46875
662,1727265416675,-1.0849609,-0.0234375,0.06738281,-22.34375,38.625,42.96875
663,1727265416733,-0.9824219,0.021484375,0.10058594,-6.84375,25.25,37.8125
664,1727265416768,-1.0166016,0.07324219,0.016601562,24.65625,29.9375,39.53125
665,1727265416793,-1.0292969,-0.016601562,0.0234375,15.0625,28.25,37.28125
666,1727265416853,-1.0029297,0.07324219,0.07421875,35.5,23.4375,30.9375
667,1727265416886,-0.9277344,0.12011719,0.0048828125,39.84375,25.4375,24.8125
668,1727265416913,-0.9433594,0.025390625,-0.06347656,22.1875,37.75,14.625
669,1727265416973,-0.9873047,-0.0234375,-0.13378906,-9.46875,45.46875,10.1875
670,1727265417004,-0.8925781,0.07324219,-0.034179688,-18.5625,60.84375,8.28125
671,1727265417033,-0.9111328,0.19335938,-0.03515625,-38.40625,60.28125,10.46875
672,1727265417095,-0.9589844,0.21777344,-0.13085938,-26.875,51.0625,26.34375
673,1727265417124,-1.0244141,0.16699219,0.037109375,11.28125,52.71875,35.625
674,1727265417154,-1.1074219,0.11425781,-0.0546875,7.8125,8.59375,37.75
675,1727265417214,-1.1669922,-0.0068359375,-0.09082031,9.875,-4.96875,31.28125
676,1727265417245,-1.5039062,-0.111328125,-0.10644531,-14.84375,-21.0,21.09375
677,1727265417333,-1.5244141,0.001953125,0.0703125,31.84375,-11.625,-15.59375
678,1727265417368,-1.2304688,0.20410156,0.22070312,-14.46875,-102.0625,-33.71875
679,1727265417395,-1.1074219,0.7080078,0.13964844,37.75,-142.21875,-35.90625
680,1727265417424,-1.1210938,0.60546875,-0.4658203,-20.59375,-130.21875,-3.25
681,1727265417456,-0.9970703,0.24023438,-0.06933594,-123.375,-65.5625,-52.8125
682,1727265417484,-1.1972656,0.21484375,0.265625,-127.21875,-53.65625,-69.53125
683,1727265417513,-1.2246094,0.12207031,0.18261719,-7.15625,-109.15625,-65.5625
684,1727265417575,-1.1640625,0.27246094,0.087890625,13.34375,-111.84375,-88.09375
685,1727265417603,-0.8935547,0.3330078,0.14746094,-71.3125,-102.8125,-110.375
686,1727265417641,-0.7167969,0.119140625,0.19433594,-71.65625,-45.71875,-93.40625
687,1727265417693,-0.8769531,-0.19433594,0.19042969,-16.0625,-46.9375,-85.34375
688,1727265417723,-0.9863281,-0.27148438,0.27929688,52.53125,-56.09375,-66.84375
689,1727265417758,-0.70703125,-0.099609375,0.31445312,54.625,-63.625,-55.4375
690,1727265417813,-0.5263672,0.0009765625,0.3466797,45.8125,-48.78125,-50.25
691,1727265417844,-0.6347656,-0.10253906,0.41308594,39.0625,-38.34375,-34.625
692,1727265417933,-0.5576172,-0.16894531,0.6123047,29.84375,-35.84375,-27.78125
693,1727265417965,-0.6328125,-0.40820312,0.7236328,12.5625,-19.53125,-19.96875
694,1727265417998,-0.50390625,-0.35839844,0.46289062,-9.21875,15.0,-13.6875
695,1727265418024,-0.46777344,-0.25683594,0.44140625,17.875,58.46875,17.0625
696,1727265418054,-1.7216797,-0.71875,1.4667969,-43.53125,35.375,6.8125
697,1727265418083,-0.91796875,-0.140625,0.08886719,26.84375,23.71875,20.96875
698,1727265418114,-0.33691406,0.33691406,0.3984375,72.5,87.375,66.9375
699,1727265418176,-1.1279297,0.16796875,0.22949219,-42.375,153.0,81.09375
700,1727265418204,-1.4189453,-0.16503906,0.1875,13.84375,88.1875,38.6875
701,1727265418264,-0.8046875,0.19140625,0.24511719,4.9375,81.59375,45.6875
702,1727265418295,-0.88671875,0.10253906,0.13671875,10.0625,74.9375,62.96875
703,1727265418323,-1.1240234,-0.009765625,0.0107421875,-10.15625,82.9375,64.6875
704,1727265418384,-1.0195312,-0.08300781,0.040039062,-41.40625,63.34375,36.25
705,1727265418414,-0.9472656,-0.022460938,0.11230469,-16.875,43.0,37.8125
706,1727265418443,-0.99609375,0.099609375,-0.0009765625,23.65625,25.875,36.46875
707,1727265418503,-1.0019531,0.111328125,0.057617188,36.96875,18.34375,30.875
708,1727265418537,-0.9667969,0.1171875,0.044921875,33.75,21.65625,27.625
709,1727265418567,-1.0068359,-0.0068359375,-0.046875,4.6875,18.78125,25.0625
710,1727265418624,-0.99902344,-0.00390625,-0.03515625,24.34375,39.09375,9.9375
711,1727265418653,-1.1181641,0.09082031,0.0390625,2.96875,46.5625,0.96875
712,1727265418685,-1.0292969,0.024414062,0.037109375,19.09375,22.375,1.8125
713,1727265418745,-0.95703125,0.05859375,-0.06933594,26.0,18.21875,0.09375
714,1727265418774,-0.92578125,0.140625,-0.05859375,-24.375,29.71875,-5.75
715,1727265418804,-0.9267578,0.22753906,-0.07421875,-24.84375,29.34375,0.28125
716,1727265418865,-0.9902344,0.09375,-0.11230469,-9.0625,19.9375,18.40625
717,1727265418894,-1.0224609,0.015625,-0.04296875,-3.875,19.9375,19.6875
718,1727265418925,-1.1542969,0.09863281,-0.032226562,-8.4375,20.4375,20.0
719,1727265418983,-1.3535156,0.05859375,-0.12890625,-37.625,7.96875,18.0
720,1727265419014,-1.4433594,0.072265625,-0.23535156,8.46875,5.78125,12.375
721,1727265419046,-1.453125,0.39257812,0.08300781,51.875,27.75,9.03125
722,1727265419112,-1.1552734,0.27148438,0.25878906,8.40625,-61.125,18.0625
723,1727265419133,-1.1279297,0.123046875,0.053710938,-35.71875,-108.0,7.90625
724,1727265419198,-1.0654297,0.27441406,-0.18457031,-65.875,-85.15625,-18.15625
725,1727265419255,-1.0673828,0.19726562,0.24121094,-61.0625,-74.0625,-31.25
726,1727265419284,-0.875,0.24023438,0.06640625,-53.59375,-90.03125,-31.625
727,1727265419319,-0.9326172,0.14257812,-0.05859375,-38.03125,-77.46875,-40.3125
728,1727265419348,-0.9482422,0.037109375,0.11230469,-9.0625,-69.84375,-43.53125
729,1727265419373,-0.8544922,0.08984375,0.1953125,-25.78125,-71.25,-63.6875
730,1727265419404,-0.9169922,0.17285156,0.23339844,-57.5625,-44.8125,-75.34375
731,1727265419464,-0.86621094,0.15917969,0.21386719,-54.40625,-31.875,-66.53125
732,1727265419493,-0.91308594,-0.11035156,0.20898438,-50.4375,-20.46875,-57.15625
733,1727265419524,-0.98046875,-0.23730469,0.35058594,-14.59375,-37.78125,-68.125
734,1727265419584,-0.71191406,-0.057617188,0.24511719,10.53125,-48.71875,-54.46875
735,1727265419614,-0.7138672,-0.08203125,0.3251953,13.34375,-37.125,-27.125
736,1727265419644,-0.6171875,-0.09082031,0.3388672,-6.4375,-13.4375,-21.375
737,1727265419703,-0.6953125,-0.26367188,0.3955078,-8.0,1.6875,-12.65625
738,1727265419763,-0.7001953,-0.40722656,0.36523438,4.6875,14.28125,-17.03125
739,1727265419793,-0.6191406,-0.2783203,0.2890625,17.1875,27.5625,-0.375
740,1727265419854,-0.6611328,-0.26757812,0.328125,18.125,44.34375,22.5625
741,1727265419884,-1.5585938,-0.2841797,1.0107422,2.125,33.8125,0.90625
742,1727265419914,-0.99609375,0.11035156,0.18847656,-12.96875,20.0625,36.0625
743,1727265419944,-1.0029297,-0.12597656,0.3408203,-26.5,58.09375,40.75
744,1727265419974,-1.0986328,-0.1640625,0.15527344,-19.90625,67.25,53.09375
745,1727265420007,-1.2568359,-0.22558594,0.09667969,16.90625,80.6875,54.84375
746,1727265420065,-0.9589844,-0.01171875,0.119140625,18.84375,83.0625,43.125
747,1727265420093,-0.82128906,0.14941406,0.22167969,75.5,50.15625,42.71875
748,1727265420124,-1.0263672,0.19335938,0.15625,27.875,40.4375,43.875
749,1727265420213,-0.94140625,0.23144531,0.043945312,16.9375,26.15625,48.8125
750,1727265420244,-1.0761719,0.06347656,0.032226562,11.9375,22.625,56.125
751,1727265420274,-1.0585938,-0.07128906,-0.022460938,-19.375,22.5,39.40625
752,1727265420334,-0.95996094,-0.06738281,0.08984375,7.125,17.0625,24.71875
753,1727265420364,-0.9628906,0.021484375,-0.01171875,32.21875,10.0625,16.28125
754,1727265420393,-1.0439453,0.01171875,-0.01953125,39.40625,22.4375,9.8125
755,1727265420423,-0.9707031,0.040039062,0.0068359375,31.125,23.71875,4.5625
756,1727265420453,-1.0224609,0.10644531,0.07421875,-3.1875,33.84375,-0.5
757,1727265420483,-1.0322266,-0.038085938,-0.0107421875,11.75,-0.625,-0.125
758,1727265420578,-0.9511719,0.03515625,-0.055664062,39.84375,14.625,-4.90625
759,1727265420604,-1.0341797,0.08105469,-0.12695312,-2.03125,24.8125,-9.15625
760,1727265420634,-0.95214844,0.17382812,0.0146484375,9.6875,35.5625,-1.1875
761,1727265420668,-0.9736328,0.140625,-0.08496094,-11.0,13.34375,4.9375
762,1727265420694,-0.95703125,0.1328125,-0.13574219,-16.4375,17.125,10.84375
763,1727265420723,-0.9736328,0.052734375,-0.07324219,0.71875,22.875,20.25
764,1727265420790,-1.0273438,0.0234375,-0.10644531,-26.4375,19.46875,17.75
765,1727265420813,-1.1279297,0.109375,-0.13378906,-47.4375,21.15625,16.21875
766,1727265420843,-1.3671875,0.2109375,-0.09765625,-33.53125,16.28125,13.03125
767,1727265420910,-1.5009766,0.25097656,-0.11230469,8.78125,-4.90625,19.03125
