,Unnamed: 0,timestamp,accel_x,accel_y,accel_z,gyro_x,gyro_y,gyro_z
0,0,1727887595146,0.5986328,0.35351562,-0.39746094,-17.84375,93.8125,-39.40625
1,1,1727887595186,0.890625,0.31445312,-0.34765625,-4.90625,78.03125,-28.4375
2,2,1727887595226,0.8886719,0.41015625,-0.3515625,8.84375,81.625,-20.3125
3,3,1727887595266,0.859375,0.3828125,-0.36621094,27.375,108.78125,-21.59375
4,4,1727887595306,0.7675781,0.24902344,-0.25976562,33.25,88.9375,-37.40625
5,5,1727887595346,0.7128906,0.22753906,-0.15039062,33.0625,109.9375,-39.1875
6,6,1727887595386,0.8496094,0.3232422,-0.17285156,17.75,89.375,-22.15625
7,7,1727887595426,0.70214844,0.30859375,-0.1484375,0.34375,65.375,-8.15625
8,8,1727887595466,0.8642578,0.3642578,-0.23339844,-25.28125,44.625,-6.21875
9,9,1727887595506,0.8339844,0.3203125,-0.234375,-15.625,37.65625,-0.34375
10,10,1727887595546,0.98339844,0.33007812,-0.24609375,-2.28125,26.25,-8.21875
11,11,1727887595586,0.9716797,0.29296875,-0.26660156,-7.59375,12.21875,-2.5625
12,12,1727887595626,0.96191406,0.25878906,-0.28808594,-3.3125,11.65625,-3.15625
13,13,1727887595666,0.9404297,0.3466797,-0.23925781,-7.28125,12.15625,-6.53125
14,14,1727887595706,1.0244141,0.5048828,-0.16894531,2.65625,19.71875,-19.46875
15,15,1727887595746,1.2675781,0.7470703,-0.11328125,27.375,37.25,-23.78125
16,16,1727887595786,1.3271484,0.5390625,-0.1640625,12.9375,39.5625,-32.21875
17,17,1727887595826,1.015625,0.5576172,-0.046875,35.375,6.78125,-15.96875
18,18,1727887595866,0.9111328,0.5810547,-0.087890625,26.0,-42.46875,-5.59375
19,19,1727887595906,0.9941406,0.4892578,-0.30371094,3.84375,-78.21875,-3.15625
20,20,1727887595946,1.0068359,0.5126953,-0.25195312,34.28125,-125.65625,17.96875
21,21,1727887595986,0.81640625,0.63671875,-0.22851562,51.5,-131.625,39.25
22,22,1727887596026,0.6064453,0.5830078,-0.091796875,23.96875,-65.46875,59.03125
23,23,1727887596066,0.8955078,0.5,-0.46777344,40.75,-87.5,32.90625
24,24,1727887596106,0.74316406,0.30371094,-0.13867188,46.5,-123.21875,44.125
25,25,1727887596146,0.4169922,0.18847656,-0.33496094,30.3125,-105.53125,27.90625
26,26,1727887596186,0.43652344,0.06640625,-0.33496094,5.1875,-92.875,11.0625
27,27,1727887596226,0.3095703,0.0390625,-0.4970703,-24.90625,-51.5625,12.15625
28,28,1727887596266,0.4716797,0.12402344,-0.6855469,-37.78125,-18.0,19.78125
29,29,1727887596306,0.5126953,0.28027344,-0.76464844,-37.0625,1.34375,34.25
30,30,1727887596346,0.64746094,0.14648438,-0.8935547,-37.84375,28.9375,42.375
31,31,1727887596386,1.2529297,0.5527344,-1.0117188,-24.5625,9.15625,49.875
32,32,1727887596426,1.3789062,0.61621094,-1.0214844,-66.96875,4.15625,8.5625
33,33,1727887596466,0.5078125,0.37695312,-0.5888672,-22.34375,86.9375,-15.375
34,34,1727887596506,0.87402344,0.30273438,-0.33984375,-9.59375,74.59375,-35.75
35,35,1727887596546,0.83496094,0.45703125,-0.41992188,3.15625,85.34375,-33.0625
36,36,1727887596586,0.8154297,0.3232422,-0.36621094,11.03125,93.15625,-29.84375
37,37,1727887596626,0.9199219,0.26953125,-0.27148438,19.53125,79.84375,-23.375
38,38,1727887596666,0.74902344,0.29785156,-0.16601562,18.90625,80.875,-34.90625
39,39,1727887596706,0.7128906,0.26464844,-0.21484375,18.59375,84.90625,-40.6875
40,40,1727887596746,0.9111328,0.20996094,-0.09082031,4.1875,79.90625,-7.25
41,41,1727887596786,0.5722656,0.31152344,-0.07421875,-36.5,52.875,22.90625
42,42,1727887596826,0.7158203,0.5283203,-0.091796875,-67.65625,12.78125,7.8125
43,43,1727887596866,0.8857422,0.4169922,-0.35351562,-39.25,8.0,-2.375
44,44,1727887596906,1.0039062,0.24316406,-0.16601562,-9.59375,16.8125,3.5
45,45,1727887596946,0.9082031,0.23632812,-0.2998047,-16.6875,14.125,10.625
46,46,1727887596986,0.9082031,0.17578125,-0.2919922,-17.46875,13.4375,3.96875
47,47,1727887597026,1.2236328,0.4091797,-0.21484375,-20.65625,14.78125,-15.5
48,48,1727887597066,1.2695312,0.7998047,-0.095703125,-8.1875,42.90625,-33.0
49,49,1727887597106,1.4638672,0.70214844,-0.07714844,-3.8125,49.6875,-46.25
50,50,1727887597146,1.0078125,0.70410156,0.01171875,-1.34375,22.96875,-38.625
51,51,1727887597186,0.9394531,0.6123047,-0.18164062,17.8125,-15.4375,-23.25
52,52,1727887597226,1.0039062,0.4921875,-0.171875,27.9375,-86.84375,-1.6875
53,53,1727887597266,0.9121094,0.5048828,-0.18164062,48.09375,-129.4375,16.375
54,54,1727887597306,0.78125,0.5986328,-0.15527344,80.0625,-130.0,29.0625
55,55,1727887597346,0.54296875,0.4736328,0.061523438,4.5625,-68.78125,22.90625
56,56,1727887597386,0.82714844,0.45117188,-0.3173828,10.84375,-104.65625,17.65625
57,57,1727887597426,0.61328125,0.38183594,-0.21777344,52.40625,-136.21875,67.8125
58,58,1727887597466,0.26953125,0.13671875,-0.18652344,-11.3125,-117.84375,48.28125
59,59,1727887597506,0.56152344,0.25390625,-0.49804688,-5.6875,-74.9375,17.65625
60,60,1727887597546,0.59765625,0.31933594,-0.57714844,-35.21875,-53.625,20.875
61,61,1727887597586,0.59472656,0.31347656,-0.78125,-17.21875,-14.9375,28.34375
62,62,1727887597626,0.4111328,0.25878906,-0.8125,2.71875,41.34375,16.78125
63,63,1727887597666,0.99121094,0.46875,-0.5957031,8.40625,101.5625,-12.875
64,64,1727887597706,1.4833984,0.4189453,-0.58203125,-33.875,12.03125,-10.625
65,65,1727887597746,0.35058594,0.3310547,-0.5019531,12.125,82.65625,-19.875
66,66,1727887597786,0.83691406,0.4609375,-0.2939453,11.53125,49.8125,-41.375
67,67,1727887597826,1.0244141,0.53808594,-0.2529297,18.71875,78.8125,-35.4375
68,68,1727887597866,0.8535156,0.37695312,-0.3935547,-1.59375,81.8125,-19.46875
69,69,1727887597906,0.7011719,0.2578125,-0.28125,38.5,82.84375,-32.59375
70,70,1727887597946,0.93359375,0.3076172,-0.2109375,59.0625,96.03125,-43.25
71,71,1727887597986,0.95410156,0.34277344,-0.13769531,24.03125,71.5,8.5625
72,72,1727887598026,0.66015625,0.42578125,-0.06738281,-23.40625,43.65625,14.0625
73,73,1727887598066,0.67871094,0.39453125,-0.12109375,-40.46875,40.28125,3.0
74,74,1727887598106,0.7314453,0.41210938,-0.18847656,-27.71875,20.65625,-5.25
75,75,1727887598146,0.8984375,0.28808594,-0.15722656,-9.84375,24.84375,-1.875
76,76,1727887598186,1.0595703,0.34375,-0.28125,4.75,41.28125,-8.40625
77,77,1727887598226,1.0517578,0.29492188,-0.2841797,2.0,31.03125,-24.09375
78,78,1727887598266,1.1503906,0.56933594,-0.4111328,5.90625,21.8125,-20.5625
79,79,1727887598306,1.1992188,0.30371094,-0.018554688,7.8125,28.5625,-15.6875
80,80,1727887598346,1.0986328,0.8027344,-0.12597656,-14.65625,-15.375,-4.75
81,81,1727887598386,0.85058594,0.6923828,-0.061523438,32.875,-30.1875,-0.40625
82,82,1727887598426,0.8095703,0.52441406,-0.15039062,30.5,-69.09375,5.25
83,83,1727887598466,0.93652344,0.50878906,-0.15136719,12.125,-96.96875,14.21875
84,84,1727887598506,0.90722656,0.73828125,-0.40722656,57.84375,-105.21875,19.34375
85,85,1727887598546,0.73046875,0.55371094,-0.25390625,33.4375,-98.5625,25.46875
86,86,1727887598586,0.7636719,0.35253906,-0.31054688,11.34375,-69.75,32.0
87,87,1727887598626,0.96875,0.453125,-0.31054688,27.5,-98.9375,51.09375
88,88,1727887598666,0.35253906,0.171875,-0.27929688,2.96875,-133.84375,48.71875
89,89,1727887598706,0.43945312,0.15429688,-0.3955078,1.3125,-119.90625,22.40625
90,90,1727887598746,0.5126953,0.19042969,-0.55371094,-20.46875,-97.09375,16.71875
91,91,1727887598786,0.41210938,0.3173828,-0.6533203,-34.6875,-42.65625,7.875
92,92,1727887598826,0.47558594,0.31445312,-0.7988281,-30.84375,23.28125,5.8125
93,93,1727887598866,0.43359375,0.18457031,-0.8925781,-20.46875,39.8125,9.15625
94,94,1727887598906,1.0283203,0.61035156,-1.0302734,6.6875,4.84375,38.40625
95,95,1727887598946,1.4091797,0.578125,-1.0058594,-51.15625,30.34375,-7.9375
96,96,1727887598986,0.5722656,0.28808594,-0.5917969,-8.1875,95.65625,-24.46875
97,97,1727887599026,0.6699219,0.3359375,-0.25195312,14.3125,61.40625,-38.75
98,98,1727887599066,0.9238281,0.4482422,-0.32421875,1.875,77.71875,-38.8125
99,99,1727887599106,0.8769531,0.42382812,-0.40234375,4.75,95.71875,-17.875
100,100,1727887599146,0.81347656,0.3544922,-0.3671875,39.28125,100.15625,-24.71875
101,101,1727887599186,0.8017578,0.2919922,-0.14257812,48.1875,102.90625,-38.375
102,102,1727887599226,0.9794922,0.2919922,-0.17773438,19.625,97.5,-29.96875
103,103,1727887599266,0.7558594,0.26660156,-0.12402344,6.9375,70.875,10.5
104,104,1727887599306,0.59765625,0.34570312,-0.08105469,-30.34375,49.03125,-11.71875
105,105,1727887599346,0.73828125,0.41601562,-0.18066406,-36.5625,25.84375,-3.53125
106,106,1727887599386,0.84277344,0.35742188,-0.13574219,-4.15625,24.5,1.65625
107,107,1727887599426,0.9609375,0.28125,-0.2607422,3.34375,27.59375,-2.1875
108,108,1727887599466,1.0292969,0.21679688,-0.29492188,-8.625,14.53125,-7.5
109,109,1727887599506,1.1191406,0.33691406,-0.36816406,-9.125,14.46875,-8.28125
110,110,1727887599546,1.296875,0.62597656,-0.3408203,-12.59375,30.34375,-16.90625
111,111,1727887599586,1.2714844,0.6347656,-0.15039062,14.21875,30.65625,-14.28125
112,112,1727887599626,1.0830078,0.68847656,-0.0048828125,15.5,23.9375,-37.28125
113,113,1727887599666,0.9511719,0.6826172,-0.08496094,21.78125,-34.28125,-28.125
114,114,1727887599706,0.8183594,0.46289062,-0.19726562,33.1875,-53.40625,-11.90625
115,115,1727887599746,0.9580078,0.3876953,-0.171875,57.65625,-113.09375,11.46875
116,116,1727887599786,0.8222656,0.61816406,-0.3232422,72.96875,-120.59375,27.90625
117,117,1727887599826,0.8125,0.60058594,-0.32714844,30.0625,-54.5,53.71875
118,118,1727887599866,0.7138672,0.3564453,-0.30859375,40.625,-133.96875,25.15625
119,119,1727887599906,0.62109375,0.3125,-0.21875,42.40625,-138.125,47.6875
120,120,1727887599946,0.4169922,0.2763672,-0.3359375,18.78125,-121.15625,28.21875
121,121,1727887599986,0.44140625,0.13671875,-0.5205078,11.15625,-101.65625,13.75
122,122,1727887600026,0.39746094,0.33203125,-0.5888672,-4.90625,-64.3125,1.59375
123,123,1727887600066,0.45507812,0.32617188,-0.66015625,-11.71875,-7.125,1.90625
124,124,1727887600106,0.4248047,0.20214844,-0.80371094,-20.59375,44.15625,5.1875
125,125,1727887600146,0.5439453,0.15136719,-0.8925781,-10.8125,50.78125,6.59375
126,126,1727887600186,0.96484375,0.45410156,-0.98535156,-22.90625,41.75,-13.65625
127,127,1727887600226,1.453125,0.72753906,-0.89453125,-37.0625,28.9375,3.5625
128,128,1727887600266,0.32421875,0.49121094,-0.5058594,-14.1875,82.90625,-41.6875
129,129,1727887600306,0.80078125,0.50390625,-0.3125,8.46875,67.875,-59.6875
130,130,1727887600346,0.9433594,0.6328125,-0.3173828,3.34375,114.46875,-43.09375
131,131,1727887600386,0.8652344,0.44433594,-0.41210938,31.53125,137.71875,-12.0
132,132,1727887600426,0.70703125,0.21777344,-0.21777344,66.5625,114.03125,-11.21875
133,133,1727887600466,0.5800781,0.2626953,-0.13085938,78.40625,139.71875,-11.53125
134,134,1727887600506,0.71777344,0.3466797,-0.19140625,59.3125,117.375,-33.25
135,135,1727887600546,0.70214844,0.26171875,-0.06347656,21.78125,69.03125,-35.03125
136,136,1727887600586,0.80566406,0.3232422,-0.111328125,-16.0625,40.71875,-25.5
137,137,1727887600626,0.9667969,0.46289062,-0.28710938,-18.375,41.15625,0.3125
138,138,1727887600666,0.9082031,0.3486328,-0.29003906,14.5625,38.65625,-3.34375
139,139,1727887600706,0.8925781,0.26660156,-0.20214844,24.59375,29.96875,-20.375
140,140,1727887600746,0.86816406,0.29296875,-0.19433594,25.9375,30.40625,-27.21875
141,141,1727887600786,0.92871094,0.35058594,-0.18066406,32.40625,40.96875,-28.375
142,142,1727887600826,0.97753906,0.17382812,-0.06738281,45.21875,34.1875,-21.46875
143,143,1727887600866,1.0761719,0.16699219,-0.14550781,40.15625,20.09375,-9.34375
144,144,1727887600906,1.0664062,0.625,-0.23535156,42.59375,15.625,14.71875
145,145,1727887600946,1.1376953,1.0136719,-0.0234375,54.375,-4.6875,37.78125
146,146,1727887600986,0.94140625,1.1513672,-0.22167969,80.375,-23.0625,47.6875
147,147,1727887601026,0.8095703,1.046875,-0.29882812,128.65625,-33.875,16.5
148,148,1727887601066,0.71777344,0.4716797,-0.12988281,127.4375,-72.3125,-17.09375
149,149,1727887601106,0.8457031,0.33691406,-0.14453125,106.90625,-136.21875,-24.59375
150,150,1727887601146,0.80566406,0.32421875,-0.15527344,37.59375,-97.9375,31.0625
151,151,1727887601186,0.63183594,0.515625,-0.6044922,73.65625,-96.71875,73.1875
152,152,1727887601226,0.55371094,0.2578125,-0.53027344,43.25,-125.84375,11.375
153,153,1727887601266,0.81640625,0.24707031,-0.59277344,44.46875,-84.21875,-15.625
154,154,1727887601306,0.41992188,0.2529297,-0.6328125,-8.8125,-49.3125,-4.375
155,155,1727887601346,0.3720703,0.19042969,-0.62597656,-15.46875,-18.25,-2.25
156,156,1727887601386,0.35058594,0.09667969,-0.7363281,-16.6875,16.90625,1.40625
157,157,1727887601426,0.45703125,0.21777344,-0.8613281,-0.0625,27.0625,3.71875
158,158,1727887601466,1.0898438,0.5703125,-0.90234375,7.625,-7.875,18.875
159,159,1727887601506,0.9082031,0.5410156,-1.1259766,-42.0625,-6.15625,-18.25
160,160,1727887601546,0.7734375,0.5,-0.75878906,-4.53125,92.90625,-17.9375
161,161,1727887601586,0.8173828,0.50390625,-0.49316406,-2.53125,70.8125,-33.3125
162,162,1727887601626,0.8154297,0.5419922,-0.4951172,7.5625,95.78125,-37.03125
163,163,1727887601666,0.7060547,0.38476562,-0.32421875,33.4375,107.125,-42.84375
164,164,1727887601706,0.9091797,0.33398438,-0.21191406,51.9375,105.71875,-43.5625
165,165,1727887601746,0.81640625,0.36621094,-0.29296875,54.3125,118.84375,-15.75
166,166,1727887601786,0.6767578,0.4560547,-0.18652344,72.1875,115.3125,-65.90625
167,167,1727887601826,0.8720703,0.051757812,-0.026367188,48.15625,97.71875,-42.40625
168,168,1727887601866,0.6591797,0.24804688,-0.11425781,17.75,69.71875,8.375
169,169,1727887601906,0.7519531,0.34570312,0.049804688,-47.1875,39.75,-0.28125
170,170,1727887601946,0.8613281,0.46679688,-0.23339844,-26.9375,48.09375,8.75
171,171,1727887601986,0.89453125,0.40234375,-0.31933594,-3.625,52.4375,-6.53125
172,172,1727887602026,0.9716797,0.24707031,-0.20507812,6.875,55.5,-20.9375
173,173,1727887602066,0.8847656,0.32714844,-0.107421875,1.4375,48.65625,-23.84375
174,174,1727887602106,0.9433594,0.45898438,-0.16015625,-10.625,38.21875,-30.09375
175,175,1727887602146,1.2675781,0.6640625,-0.041992188,32.03125,19.1875,-11.09375
176,176,1727887602186,1.5117188,0.56640625,-0.15429688,27.15625,19.46875,-1.21875
177,177,1727887602226,1.1894531,0.7607422,-0.021484375,39.59375,-5.78125,-9.875
178,178,1727887602266,0.8779297,0.6699219,-0.17773438,44.125,-30.625,-16.65625
179,179,1727887602306,0.82128906,0.58203125,-0.103515625,44.46875,-77.875,-9.09375
180,180,1727887602346,0.8496094,0.47753906,-0.2265625,59.125,-113.03125,18.5
181,181,1727887602386,0.83691406,0.6357422,-0.34765625,116.1875,-86.65625,37.65625
182,182,1727887602426,0.91308594,0.49804688,-0.2705078,33.84375,-76.34375,25.59375
183,183,1727887602466,0.9267578,0.38378906,-0.41015625,10.125,-127.4375,7.9375
184,184,1727887602506,0.6767578,0.41308594,-0.18164062,53.6875,-143.0625,62.5
185,185,1727887602546,0.23144531,0.1484375,-0.29882812,6.34375,-118.75,50.53125
186,186,1727887602586,0.5576172,0.16992188,-0.47070312,3.34375,-86.65625,15.15625
187,187,1727887602626,0.4326172,0.18066406,-0.6171875,-13.125,-61.375,0.4375
188,188,1727887602666,0.43652344,0.23046875,-0.5908203,-18.21875,-17.25,-1.9375
189,189,1727887602706,0.44140625,0.25683594,-0.8544922,-12.84375,38.78125,-0.34375
190,190,1727887602746,0.5595703,0.24316406,-0.87402344,-9.59375,14.71875,-5.53125
191,191,1727887602786,0.6484375,0.27539062,-0.8720703,-9.125,61.59375,6.125
192,192,1727887602826,1.4335938,0.68359375,-1.1328125,2.5625,-9.3125,-2.1875
193,193,1727887602866,0.5810547,0.41210938,-0.70214844,-12.46875,84.59375,-25.8125
194,194,1727887602906,0.7138672,0.453125,-0.3466797,12.875,86.5,-38.9375
195,195,1727887602946,0.7714844,0.51171875,-0.2578125,18.71875,90.84375,-32.09375
196,196,1727887602986,1.0224609,0.39941406,-0.33789062,5.28125,125.5625,-13.96875
197,197,1727887603026,0.8847656,0.3310547,-0.4111328,29.65625,90.28125,-4.75
198,198,1727887603066,0.5839844,0.2734375,-0.1015625,67.25,93.9375,-32.78125
199,199,1727887603106,0.83203125,0.31640625,-0.12207031,15.125,88.03125,-53.21875
200,200,1727887603146,0.9375,0.28222656,-0.29296875,7.3125,74.71875,6.96875
201,201,1727887603186,0.5439453,0.359375,0.0859375,-10.15625,69.03125,20.53125
202,202,1727887603226,0.7470703,0.41796875,-0.13671875,-47.8125,32.71875,-0.34375
203,203,1727887603266,0.91308594,0.4326172,-0.26464844,-0.6875,33.28125,4.09375
204,204,1727887603306,0.9511719,0.21777344,-0.20507812,16.90625,32.1875,1.34375
205,205,1727887603346,0.95703125,0.14648438,-0.14257812,12.5625,21.75,-4.15625
206,206,1727887603386,0.93066406,0.20996094,-0.20703125,-0.625,20.46875,-13.25
207,207,1727887603426,1.015625,0.3955078,-0.16894531,1.75,23.5,-20.6875
208,208,1727887603466,1.1982422,0.7001953,-0.19628906,18.65625,27.40625,-40.21875
209,209,1727887603506,1.4345703,0.41992188,-0.18164062,33.625,48.0,-30.15625
210,210,1727887603546,1.4033203,0.62109375,-0.07714844,23.90625,36.5,-40.28125
211,211,1727887603586,0.96875,0.6621094,-0.037109375,33.625,25.84375,-34.53125
212,212,1727887603626,0.6826172,0.5498047,-0.14160156,54.5625,11.25,-22.09375
213,213,1727887603666,0.7451172,0.40429688,-0.21777344,31.90625,-38.4375,-8.65625
214,214,1727887603706,0.80078125,0.36132812,-0.12890625,34.59375,-85.3125,20.53125
215,215,1727887603746,0.8486328,0.54785156,-0.23925781,33.8125,-64.8125,40.0625
216,216,1727887603786,0.80566406,0.6171875,-0.21386719,50.28125,-47.65625,42.625
217,217,1727887603826,0.7451172,0.45507812,-0.01953125,-24.0625,-13.125,32.0625
218,218,1727887603866,0.86816406,0.5253906,-0.4296875,19.53125,-63.84375,81.90625
219,219,1727887603906,0.31347656,0.40820312,-0.11816406,26.46875,-95.6875,34.25
220,220,1727887603946,0.62890625,0.28515625,-0.26464844,26.53125,-46.96875,-12.0625
221,221,1727887603986,0.7890625,0.23046875,-0.34570312,32.9375,-64.125,-14.15625
222,222,1727887604026,0.65234375,0.32128906,-0.40625,19.09375,-59.375,-18.3125
223,223,1727887604066,0.5566406,0.34960938,-0.46972656,14.625,6.1875,-25.125
224,224,1727887604106,0.50878906,0.28027344,-0.5058594,15.0625,45.375,-37.71875
225,225,1727887604146,0.8066406,0.4765625,-0.30859375,19.09375,-55.34375,-8.0
226,226,1727887604186,0.9033203,0.5283203,-0.24902344,36.125,-129.0625,22.03125
227,227,1727887604226,0.9013672,0.6152344,-0.38671875,27.09375,-109.125,32.71875
228,228,1727887604266,0.93652344,0.56933594,-0.20800781,36.375,-61.03125,65.5625
229,229,1727887604306,0.42382812,0.41210938,-0.10253906,-13.75,-82.25,44.625
230,230,1727887604346,0.7558594,0.44433594,-0.20898438,54.0,-142.3125,26.1875
231,231,1727887604386,0.20507812,0.23730469,-0.22167969,9.5,-134.5,37.53125
232,232,1727887604426,0.4638672,0.19921875,-0.453125,26.96875,-96.65625,15.34375
233,233,1727887604466,0.71777344,0.234375,-0.5566406,20.4375,-114.90625,2.34375
234,234,1727887604506,0.4951172,0.31054688,-0.6845703,-16.3125,-55.34375,14.90625
235,235,1727887604546,0.5595703,0.23535156,-0.8154297,-13.8125,-17.6875,15.03125
236,236,1727887604586,0.29296875,0.29296875,-0.796875,-12.59375,15.40625,16.5
237,237,1727887604626,0.453125,0.13964844,-0.70996094,-4.65625,48.0,9.34375
238,238,1727887604666,1.0332031,0.60253906,-1.1611328,-10.875,64.96875,14.21875
239,239,1727887604706,1.1542969,0.29003906,-1.0664062,-17.15625,55.96875,-10.1875
240,240,1727887604746,0.6611328,0.3017578,-0.5595703,-19.375,94.6875,-28.0625
241,241,1727887604786,0.82910156,0.55078125,-0.3642578,-17.59375,55.4375,-25.9375
242,242,1727887604826,0.62402344,0.59277344,-0.46875,-6.0,83.875,-31.3125
243,243,1727887604866,0.7373047,0.3330078,-0.3095703,18.90625,91.125,-37.78125
244,244,1727887604906,0.7285156,0.23632812,-0.22363281,35.3125,87.40625,-34.46875
245,245,1727887604946,0.95703125,0.24316406,-0.26757812,7.75,99.0,-39.0625
246,246,1727887604986,0.8769531,0.13769531,-0.2783203,14.375,81.1875,0.1875
247,247,1727887605026,0.57128906,0.23730469,-0.13867188,-3.375,54.46875,18.25
248,248,1727887605066,0.7246094,0.36523438,-0.09375,-46.875,24.96875,5.125
249,249,1727887605106,0.86621094,0.453125,-0.30664062,-59.59375,15.34375,9.21875
250,250,1727887605146,0.98535156,0.37109375,-0.30371094,-12.59375,16.3125,12.28125
251,251,1727887605186,0.95214844,0.28320312,-0.23632812,-2.59375,11.3125,13.3125
252,252,1727887605226,0.90625,0.29003906,-0.21484375,-5.8125,9.28125,6.125
253,253,1727887605266,1.0009766,0.32421875,-0.26660156,-12.59375,14.1875,-5.46875
254,254,1727887605306,1.1660156,0.53125,-0.265625,-7.46875,27.59375,-21.46875
255,255,1727887605346,1.4287109,0.7080078,-0.13183594,5.46875,44.375,-29.84375
256,256,1727887605386,1.25,0.5449219,-0.043945312,2.71875,47.875,-58.65625
257,257,1727887605426,0.93847656,0.6972656,0.0,18.28125,30.84375,-58.15625
258,258,1727887605466,0.7597656,0.578125,-0.28320312,33.4375,-11.21875,-27.28125
259,259,1727887605506,0.8613281,0.4111328,-0.24316406,35.3125,-67.96875,0.9375
260,260,1727887605546,0.8847656,0.4189453,-0.14453125,59.90625,-103.5,32.34375
261,261,1727887605586,0.8183594,0.5361328,-0.38671875,59.4375,-85.9375,41.9375
262,262,1727887605626,0.62597656,0.5732422,-0.099609375,14.5,-93.96875,22.15625
263,263,1727887605666,0.703125,0.4580078,-0.27441406,5.84375,-70.84375,33.8125
264,264,1727887605706,0.75,0.5654297,-0.35839844,72.5625,-94.46875,74.96875
265,265,1727887605746,0.3623047,0.20703125,-0.21289062,-8.1875,-131.53125,35.65625
266,266,1727887605786,0.5263672,0.140625,-0.43554688,18.28125,-101.90625,32.40625
267,267,1727887605826,0.4970703,0.20507812,-0.53222656,7.5,-102.34375,22.59375
268,268,1727887605866,0.54785156,0.23730469,-0.66796875,-14.84375,-52.84375,8.6875
269,269,1727887605906,0.47558594,0.23144531,-0.7841797,-18.21875,0.1875,22.53125
270,270,1727887605946,0.38476562,0.13476562,-0.83691406,-18.15625,28.875,8.6875
271,271,1727887605986,0.6074219,0.23730469,-0.82910156,-25.96875,50.71875,18.375
272,272,1727887606026,1.6269531,0.6328125,-1.2470703,-24.625,-8.21875,3.4375
273,273,1727887606066,0.51171875,0.44433594,-0.4814453,-13.9375,82.59375,-18.65625
274,274,1727887606106,0.6152344,0.50878906,-0.4970703,-10.75,59.875,-42.21875
275,275,1727887606146,0.8388672,0.5566406,-0.43554688,13.71875,91.8125,-43.9375
276,276,1727887606186,0.8173828,0.3798828,-0.35546875,17.875,112.75,-30.6875
277,277,1727887606226,0.7607422,0.28125,-0.3203125,41.375,86.25,-18.53125
278,278,1727887606266,0.8046875,0.19042969,-0.21484375,26.0,82.90625,-29.03125
279,279,1727887606306,0.8261719,0.29003906,-0.24707031,8.71875,89.0,-26.90625
280,280,1727887606346,0.9169922,0.31835938,-0.265625,18.71875,83.15625,11.25
281,281,1727887606386,0.68847656,0.2919922,-0.030273438,-8.3125,55.90625,13.6875
282,282,1727887606426,0.79296875,0.32226562,-0.18164062,-40.71875,39.5625,-7.3125
283,283,1727887606466,0.8232422,0.4375,-0.25195312,-15.625,40.1875,8.4375
284,284,1727887606506,0.8808594,0.28320312,-0.22753906,-0.1875,30.78125,8.375
285,285,1727887606546,0.84472656,0.23046875,-0.09765625,10.125,30.71875,2.5625
286,286,1727887606586,0.8925781,0.22753906,-0.17675781,-20.15625,12.84375,-7.625
287,287,1727887606626,0.9375,0.29882812,-0.22070312,-3.5,18.375,-10.71875
288,288,1727887606666,1.0380859,0.2939453,-0.29101562,0.96875,28.09375,-22.625
289,289,1727887606706,1.3505859,0.5136719,-0.22753906,8.09375,38.96875,-39.59375
290,290,1727887606746,1.5175781,0.45703125,-0.21484375,-7.78125,45.0625,-24.21875
291,291,1727887606786,1.1455078,0.65722656,0.041992188,-10.15625,55.90625,-39.3125
292,292,1727887606826,0.9033203,0.7216797,-0.064453125,8.03125,26.125,-36.90625
293,293,1727887606866,0.86328125,0.51660156,-0.17382812,27.75,-29.34375,-20.5625
294,294,1727887606906,0.7949219,0.44726562,-0.17675781,24.65625,-96.125,8.1875
295,295,1727887606946,0.75683594,0.5390625,-0.16894531,44.40625,-109.125,42.1875
296,296,1727887606986,0.8701172,0.7167969,-0.24023438,46.90625,-88.90625,49.875
297,297,1727887607026,0.6689453,0.5703125,-0.051757812,-9.78125,-42.03125,31.125
298,298,1727887607066,0.84277344,0.4482422,-0.22558594,21.15625,-52.84375,44.9375
299,299,1727887607106,0.4375,0.5488281,-0.25683594,89.71875,-81.84375,30.15625
300,300,1727887607146,0.42285156,0.25097656,-0.08886719,78.78125,-69.125,-25.5625
301,301,1727887607186,0.8310547,0.24609375,-0.3486328,51.6875,-57.0,-36.0625
302,302,1727887607226,0.48339844,0.19433594,-0.5058594,29.71875,-42.53125,-31.1875
303,303,1727887607266,0.5029297,0.37304688,-0.48046875,27.5,25.21875,-33.0625
304,304,1727887607306,0.56640625,0.3486328,-0.62597656,19.09375,78.1875,-17.375
305,305,1727887607346,0.6220703,0.36816406,-0.8095703,24.40625,109.09375,-37.46875
306,306,1727887607386,0.88964844,0.20410156,-0.609375,18.65625,38.90625,-51.6875
307,307,1727887607426,0.9394531,0.5810547,-0.36523438,28.0625,64.34375,-8.34375
308,308,1727887607466,1.6416016,1.2167969,-0.38671875,61.03125,87.125,16.125
309,309,1727887607506,0.33984375,0.33496094,-0.31054688,75.71875,76.84375,-11.65625
310,310,1727887607546,0.47753906,0.22265625,-0.036132812,74.03125,42.375,-59.1875
311,311,1727887607586,1.1503906,0.49023438,0.09765625,66.9375,24.65625,-70.96875
312,312,1727887607626,1.0605469,0.7861328,-0.2109375,45.21875,89.5625,-7.9375
313,313,1727887607666,0.9609375,0.30664062,-0.09667969,80.0,86.625,11.25
314,314,1727887607706,0.7783203,0.30664062,-0.08496094,66.75,102.4375,14.90625
315,315,1727887607746,1.0107422,0.46484375,-0.09277344,59.0,23.4375,-46.875
316,316,1727887607786,0.9160156,0.23730469,-0.10253906,58.75,53.59375,-24.90625
317,317,1727887607826,0.8779297,0.19335938,-0.18945312,65.46875,57.8125,-12.125
318,318,1727887607866,0.9501953,0.22558594,-0.20703125,36.0625,47.0625,-9.4375
319,319,1727887607906,1.0185547,0.2939453,-0.19042969,26.09375,35.09375,-10.4375
320,320,1727887607946,1.0507812,0.37597656,-0.23632812,27.4375,41.03125,-18.53125
321,321,1727887607986,1.2617188,0.51171875,-0.4169922,28.5625,50.78125,-39.53125
322,322,1727887608026,1.3408203,0.48242188,-0.09472656,32.53125,41.28125,-37.53125
323,323,1727887608066,1.1054688,0.8876953,0.11328125,14.8125,30.46875,-40.09375
324,324,1727887608106,0.87402344,0.7626953,-0.056640625,61.8125,-0.09375,-14.59375
325,325,1727887608146,0.90722656,0.59765625,-0.21289062,64.0625,-10.125,-2.1875
326,326,1727887608186,0.8535156,0.40625,-0.2998047,47.78125,-96.90625,4.65625
327,327,1727887608226,0.79296875,0.40820312,-0.09082031,92.9375,-86.46875,36.03125
328,328,1727887608266,0.8720703,0.6748047,-0.29882812,59.375,-86.40625,44.75
329,329,1727887608306,0.61328125,0.4794922,-0.14160156,-3.3125,-65.40625,25.21875
330,330,1727887608346,0.8359375,0.53808594,-0.33203125,84.8125,-107.40625,66.71875
331,331,1727887608386,0.40429688,0.16992188,-0.16503906,13.09375,-146.03125,50.84375
332,332,1727887608426,0.45410156,0.20117188,-0.43554688,19.40625,-108.4375,12.46875
333,333,1727887608466,0.6269531,0.203125,-0.546875,0.53125,-91.84375,15.875
334,334,1727887608506,0.5410156,0.22460938,-0.6767578,-34.875,-53.875,-1.15625
335,335,1727887608546,0.42578125,0.28125,-0.8466797,-28.46875,1.59375,5.1875
336,336,1727887608586,0.42285156,0.22265625,-0.9042969,-24.0,37.25,-3.71875
337,337,1727887608626,1.1474609,0.61328125,-0.8173828,2.125,72.46875,-17.15625
338,338,1727887608666,1.0722656,0.42089844,-0.6796875,-49.46875,75.6875,-16.53125
339,339,1727887608706,0.34765625,0.15039062,-0.29296875,-11.96875,60.0,-23.4375
340,340,1727887608746,0.70996094,0.39648438,-0.171875,-5.21875,72.03125,-23.0625
341,341,1727887608786,1.2148438,0.49902344,-0.328125,-27.125,94.9375,-20.5
342,342,1727887608826,0.74121094,0.38378906,-0.4091797,-16.6875,55.25,-5.125
343,343,1727887608866,0.578125,0.24609375,-0.107421875,13.59375,72.34375,-28.6875
344,344,1727887608906,0.91015625,0.29589844,-0.171875,19.15625,82.09375,-54.0625
345,345,1727887608946,1.0625,0.3017578,-0.18457031,16.21875,72.53125,13.9375
346,346,1727887608986,0.6142578,0.30859375,-0.043945312,-12.34375,50.5625,24.25
347,347,1727887609026,0.73339844,0.4736328,-0.041015625,-50.75,34.875,9.21875
348,348,1727887609066,0.8378906,0.5185547,-0.20410156,-33.65625,30.40625,12.8125
349,349,1727887609106,0.91503906,0.40429688,-0.20996094,1.8125,25.9375,6.96875
350,350,1727887609146,0.98046875,0.29296875,-0.16308594,8.65625,25.78125,-6.09375
351,351,1727887609186,1.0351562,0.30859375,-0.27539062,-9.90625,27.0,-14.8125
352,352,1727887609226,1.2587891,0.4765625,-0.24511719,-4.65625,32.53125,-22.9375
353,353,1727887609266,1.2529297,0.63183594,-0.18066406,-4.09375,61.15625,-32.40625
354,354,1727887609306,1.2949219,0.5390625,0.01171875,4.75,44.9375,-40.28125
355,355,1727887609346,0.98828125,0.7167969,-0.0546875,29.21875,-9.75,-32.21875
356,356,1727887609386,0.8359375,0.5498047,-0.20800781,42.46875,-44.0625,-5.59375
357,357,1727887609426,0.8408203,0.4453125,-0.19921875,57.40625,-84.53125,19.28125
358,358,1727887609466,1.0371094,0.49316406,-0.35742188,71.53125,-130.3125,30.59375
359,359,1727887609506,0.85253906,0.5419922,-0.095703125,66.40625,-152.21875,15.875
360,360,1727887609546,0.6171875,0.546875,-0.16601562,0.34375,-77.125,30.03125
361,361,1727887609586,0.81640625,0.51953125,-0.36914062,27.15625,-83.25,47.375
362,362,1727887609626,0.4267578,0.37304688,-0.22265625,37.59375,-127.625,59.40625
363,363,1727887609666,0.44335938,0.14550781,-0.35546875,-2.28125,-127.71875,8.8125
364,364,1727887609706,0.6308594,0.28125,-0.51953125,6.5,-96.125,-5.46875
365,365,1727887609746,0.40625,0.30664062,-0.5810547,-1.3125,-50.875,-3.96875
366,366,1727887609786,0.45410156,0.24511719,-0.7158203,-9.34375,2.15625,-15.25
367,367,1727887609826,0.48535156,0.2548828,-0.7246094,-14.46875,38.59375,-12.3125
368,368,1727887609866,0.4873047,0.28710938,-0.81640625,-2.9375,33.65625,-5.96875
369,369,1727887609906,1.1142578,0.5283203,-1.0410156,27.21875,15.15625,27.78125
370,370,1727887609946,1.1015625,0.44726562,-1.1132812,-22.125,25.03125,-5.71875
371,371,1727887609986,0.5878906,0.38085938,-0.6660156,-18.3125,85.71875,-21.46875
372,372,1727887610026,0.7871094,0.46679688,-0.41503906,-14.46875,71.53125,-28.4375
373,373,1727887610066,0.6923828,0.53515625,-0.41210938,-25.15625,75.09375,-27.875
374,374,1727887610106,0.65722656,0.484375,-0.2890625,9.3125,94.5625,-21.78125
375,375,1727887610146,0.8408203,0.41308594,-0.24121094,35.9375,118.0625,-20.25
376,376,1727887610186,0.86621094,0.40527344,-0.29785156,56.6875,136.0,-28.3125
377,377,1727887610226,0.71484375,0.21386719,-0.26757812,56.75,100.90625,-18.90625
378,378,1727887610266,0.66015625,0.17382812,-0.13574219,77.5,98.34375,-15.625
379,379,1727887610306,0.84765625,0.29589844,-0.1328125,49.0,72.71875,-24.65625
380,380,1727887610346,0.8671875,0.28710938,-0.076171875,19.40625,46.09375,9.21875
381,381,1727887610386,0.8769531,0.40820312,-0.09277344,5.78125,39.8125,26.875
382,382,1727887610426,0.7675781,0.4765625,-0.19824219,-3.3125,25.59375,9.78125
383,383,1727887610466,0.8730469,0.47070312,-0.203125,7.1875,14.28125,-9.75
384,384,1727887610506,0.8691406,0.4580078,-0.24121094,26.28125,24.5625,-23.78125
385,385,1727887610546,0.9160156,0.2626953,-0.2109375,33.75,26.8125,-36.84375
386,386,1727887610586,0.9501953,0.27539062,-0.30078125,38.6875,40.0625,-28.1875
387,387,1727887610626,0.8886719,0.23925781,-0.19335938,49.25,37.5,-14.875
388,388,1727887610666,1.015625,0.20019531,-0.016601562,33.25,18.625,-16.03125
389,389,1727887610706,0.95214844,0.5839844,-0.27929688,23.59375,16.96875,-4.15625
390,390,1727887610746,1.0537109,0.65722656,0.056640625,52.15625,13.3125,22.21875
391,391,1727887610786,1.1787109,0.8017578,0.05078125,68.90625,-25.5625,40.40625
392,392,1727887610826,0.8388672,1.0976562,-0.27148438,98.6875,-66.09375,20.09375
393,393,1727887610866,0.6738281,0.7216797,-0.0068359375,178.15625,-20.4375,-16.84375
394,394,1727887610906,1.0722656,0.28808594,-0.5048828,127.375,-142.9375,-54.9375
395,395,1727887610946,1.1083984,0.23828125,-0.3017578,92.34375,-136.875,-29.34375
396,396,1727887610986,0.70996094,0.2578125,-0.46972656,48.375,-105.09375,20.5625
397,397,1727887611026,0.6308594,0.3486328,-0.8105469,76.21875,-71.40625,9.09375
398,398,1727887611066,0.7236328,0.16601562,-0.62597656,45.28125,-138.53125,-43.4375
399,399,1727887611106,0.3955078,0.22949219,-0.6328125,17.5625,-57.84375,-10.5
400,400,1727887611146,0.3359375,0.21679688,-0.62402344,2.0,-35.375,-25.0625
401,401,1727887611186,0.20898438,0.2861328,-0.65527344,-5.5625,8.0,-24.71875
402,402,1727887611226,0.36132812,0.21582031,-0.78515625,-5.3125,42.96875,-19.40625
403,403,1727887611266,0.5107422,0.2578125,-0.78808594,-0.0625,57.9375,-6.15625
404,404,1727887611306,1.1533203,0.6875,-1.1005859,4.75,7.65625,2.8125
405,405,1727887611346,0.5488281,0.4091797,-1.0009766,-52.375,1.84375,11.1875
406,406,1727887611386,0.6269531,0.38085938,-0.8964844,-15.53125,80.9375,-16.03125
407,407,1727887611426,0.7236328,0.51171875,-0.53027344,-13.8125,47.8125,-18.78125
408,408,1727887611466,0.9296875,0.6660156,-0.51464844,-0.8125,86.5,-25.4375
409,409,1727887611506,0.54296875,0.46679688,-0.3955078,17.375,97.71875,-30.03125
410,410,1727887611546,0.75878906,0.3935547,-0.20605469,39.09375,105.59375,-52.90625
411,411,1727887611586,0.96191406,0.33984375,-0.265625,39.09375,132.03125,-39.53125
412,412,1727887611626,0.8730469,0.24511719,-0.25585938,36.46875,120.9375,-6.8125
413,413,1727887611666,0.65625,0.25,-0.17089844,26.28125,90.15625,-3.53125
414,414,1727887611706,0.6660156,0.25878906,-0.11230469,29.59375,94.4375,6.84375
415,415,1727887611746,0.9189453,0.32421875,-0.10546875,-23.75,67.8125,2.03125
416,416,1727887611786,0.9091797,0.3857422,-0.31445312,-14.125,53.25,6.40625
417,417,1727887611826,0.8222656,0.40722656,-0.16113281,2.5625,50.0625,0.4375
418,418,1727887611866,0.8076172,0.4111328,-0.25,16.15625,40.34375,-9.5
419,419,1727887611906,0.9902344,0.13183594,-0.3154297,19.34375,34.375,-18.25
420,420,1727887611946,1.2861328,0.26953125,-0.3046875,6.875,13.4375,-18.375
421,421,1727887611986,1.1767578,0.6689453,-0.00390625,6.28125,19.375,-20.75
422,422,1727887612026,1.2724609,0.85546875,0.0029296875,16.03125,39.75,-27.75
423,423,1727887612066,1.1289062,0.87597656,-0.13867188,23.4375,10.5,-24.90625
424,424,1727887612106,0.8417969,0.5644531,-0.18261719,47.28125,-24.03125,-8.40625
425,425,1727887612146,0.8359375,0.4658203,-0.15625,14.875,-72.5,-15.1875
426,426,1727887612186,0.82128906,0.47558594,-0.27734375,26.09375,-127.625,11.125
427,427,1727887612226,0.8183594,0.5595703,-0.22265625,95.375,-126.8125,38.59375
428,428,1727887612266,0.8925781,0.6171875,-0.048828125,36.59375,-8.90625,92.0625
429,429,1727887612306,0.50390625,0.3857422,-0.35351562,0.96875,-112.34375,66.28125
430,430,1727887612346,0.5830078,0.36328125,-0.29785156,62.3125,-130.53125,26.625
431,431,1727887612386,0.6582031,0.13867188,-0.32910156,10.96875,-101.375,29.71875
432,432,1727887612426,0.5263672,0.15332031,-0.49023438,4.5625,-90.5625,19.0625
433,433,1727887612466,0.6015625,0.20996094,-0.6230469,-12.84375,-75.125,-1.15625
434,434,1727887612506,0.5488281,0.3154297,-0.71875,-30.71875,-8.09375,2.28125
435,435,1727887612546,0.42871094,0.1953125,-0.921875,-16.875,27.0,-2.0
436,436,1727887612586,0.66308594,0.19433594,-0.8984375,-11.90625,32.125,-6.78125
437,437,1727887612626,1.6650391,0.71484375,-0.91503906,-1.46875,12.90625,-6.15625
438,438,1727887612666,0.45703125,0.49902344,-0.8095703,-18.21875,96.9375,-48.09375
439,439,1727887612706,0.5761719,0.25585938,-0.34472656,6.875,64.03125,-46.0
440,440,1727887612746,0.8769531,0.44335938,-0.3095703,11.46875,69.28125,-29.78125
441,441,1727887612786,0.9238281,0.3671875,-0.33398438,-3.75,94.3125,1.96875
442,442,1727887612826,0.8359375,0.32226562,-0.3203125,-7.78125,74.90625,2.75
443,443,1727887612866,0.69921875,0.18554688,-0.119140625,15.625,84.25,-21.28125
444,444,1727887612906,0.8828125,0.47265625,-0.25878906,-0.5,60.0,-42.03125
445,445,1727887612946,0.7011719,0.39160156,-0.18164062,-0.1875,70.4375,14.0625
446,446,1727887612986,0.5673828,0.28320312,-0.18261719,-18.8125,53.40625,13.75
447,447,1727887613026,0.91503906,0.35351562,-0.0859375,-16.75,26.875,-0.53125
448,448,1727887613066,0.91796875,0.33007812,-0.15527344,-31.21875,11.96875,5.125
449,449,1727887613106,0.93847656,0.34277344,-0.17871094,-27.0625,10.75,5.8125
450,450,1727887613146,1.0019531,0.2939453,-0.21484375,-16.875,19.65625,-11.28125
451,451,1727887613186,1.0332031,0.33007812,-0.3828125,-9.15625,30.78125,-13.34375
452,452,1727887613226,1.2832031,0.40722656,-0.3935547,-0.4375,40.46875,-27.09375
453,453,1727887613266,1.3271484,0.5625,-0.12402344,11.40625,52.375,-34.34375
454,454,1727887613306,1.0683594,0.5732422,0.043945312,15.3125,30.96875,-39.46875
455,455,1727887613346,0.95703125,0.7451172,-0.05078125,32.625,-1.75,-35.09375
456,456,1727887613386,0.90234375,0.47753906,-0.17773438,49.90625,-33.125,-6.15625
457,457,1727887613426,0.8701172,0.32714844,-0.21386719,40.5,-91.90625,13.5625
458,458,1727887613466,0.9941406,0.5576172,-0.16894531,48.03125,-122.375,26.25
459,459,1727887613506,0.65625,0.4580078,0.09277344,22.9375,-101.0625,24.59375
460,460,1727887613546,0.8652344,0.640625,-0.39648438,-1.96875,-67.84375,18.0
461,461,1727887613586,0.7529297,0.47460938,-0.39453125,60.59375,-157.34375,-1.15625
462,462,1727887613626,0.5703125,0.4091797,-0.13769531,30.8125,-135.125,8.84375
463,463,1727887613666,0.35253906,0.33007812,-0.37695312,-8.5625,-98.375,17.09375
464,464,1727887613706,0.46679688,0.3828125,-0.5732422,-3.8125,-67.4375,22.65625
465,465,1727887613746,0.42871094,0.41308594,-0.5410156,-12.65625,-55.71875,11.71875
466,466,1727887613786,0.49414062,0.22558594,-0.64941406,-32.71875,-3.34375,15.09375
467,467,1727887613826,0.35742188,0.14257812,-0.85839844,-22.125,9.78125,26.5625
468,468,1727887613866,0.45703125,-0.0146484375,-0.7246094,-36.28125,34.3125,32.78125
469,469,1727887613906,1.4677734,0.9550781,-1.0693359,3.09375,-22.03125,62.03125
470,470,1727887613946,0.41992188,0.30566406,-0.6591797,-43.78125,99.625,21.4375
471,471,1727887613986,0.49804688,0.2890625,-0.3779297,-35.84375,52.4375,-9.6875
472,472,1727887614026,0.9433594,0.5878906,-0.32714844,-19.1875,26.6875,-12.25
473,473,1727887614066,0.84375,0.6035156,-0.37597656,-23.34375,80.03125,-10.96875
474,474,1727887614106,0.7138672,0.40039062,-0.27734375,1.4375,71.1875,-9.9375
475,475,1727887614146,0.9345703,0.33203125,-0.16992188,24.75,96.4375,-15.25
476,476,1727887614186,0.79296875,0.3779297,-0.20605469,9.875,90.84375,-22.15625
477,477,1727887614226,0.8261719,0.26171875,-0.15332031,12.75,82.34375,-17.5625
478,478,1727887614266,0.6933594,0.2548828,-0.016601562,-40.78125,37.90625,-1.9375
479,479,1727887614306,0.76464844,0.40820312,-0.0859375,-66.46875,36.375,15.21875
480,480,1727887614346,0.74902344,0.5371094,-0.19628906,-63.90625,33.8125,42.96875
481,481,1727887614386,0.8457031,0.53027344,-0.24609375,-3.0625,31.8125,27.71875
482,482,1727887614426,0.9326172,0.24902344,-0.29101562,-0.3125,34.375,6.53125
483,483,1727887614466,1.0878906,0.3017578,-0.26464844,10.25,23.6875,-3.46875
484,484,1727887614506,1.0810547,0.3486328,-0.24511719,-6.25,38.78125,-18.84375
485,485,1727887614546,1.4833984,0.5419922,-0.19433594,5.1875,42.125,-23.78125
486,486,1727887614586,1.2353516,0.62402344,-0.025390625,5.21875,45.3125,-26.71875
487,487,1727887614626,1.0068359,0.88671875,0.045898438,29.34375,55.25,-32.9375
488,488,1727887614666,0.8730469,0.61621094,-0.14160156,41.3125,-18.34375,-19.28125
489,489,1727887614706,0.87402344,0.48535156,-0.18945312,47.15625,-56.4375,-6.9375
490,490,1727887614746,0.90625,0.4814453,-0.25683594,64.5,-126.9375,11.25
491,491,1727887614786,0.85253906,0.51171875,-0.2578125,66.9375,-124.3125,26.6875
492,492,1727887614826,0.77734375,0.4560547,-0.083984375,67.125,-97.28125,40.34375
493,493,1727887614866,0.6767578,0.5859375,-0.24609375,2.96875,-56.9375,41.03125
494,494,1727887614906,0.6767578,0.41308594,-0.4111328,66.875,-141.53125,55.6875
495,495,1727887614946,0.4326172,0.20117188,-0.18359375,8.90625,-132.75,51.9375
496,496,1727887614986,0.46972656,0.18847656,-0.53027344,7.375,-113.6875,30.09375
497,497,1727887615026,0.6503906,0.30078125,-0.6113281,3.34375,-85.0625,23.03125
498,498,1727887615066,0.4658203,0.23242188,-0.68066406,-21.3125,-29.59375,9.96875
499,499,1727887615106,0.4267578,0.20605469,-0.74902344,-14.3125,8.0,8.8125
500,500,1727887615146,0.39648438,0.12207031,-0.84277344,-16.1875,35.71875,-3.78125
501,501,1727887615186,0.5527344,0.2841797,-0.8144531,-36.40625,84.125,-10.6875
502,502,1727887615226,2.0117188,0.79003906,-1.203125,-25.15625,-25.6875,15.5625
503,503,1727887615266,0.35351562,0.45898438,-0.7109375,-17.03125,103.53125,-29.28125
504,504,1727887615306,0.6972656,0.28222656,-0.22949219,0.03125,58.78125,-32.15625
505,505,1727887615346,0.9042969,0.5576172,-0.35253906,-0.75,71.125,-25.1875
506,506,1727887615386,0.90527344,0.41992188,-0.44628906,-0.125,105.90625,-24.65625
507,507,1727887615426,0.6933594,0.33398438,-0.27539062,32.5625,71.5,-18.90625
508,508,1727887615466,0.71484375,0.3330078,-0.1640625,45.40625,107.75,-38.6875
509,509,1727887615506,0.94921875,0.27734375,-0.20410156,19.6875,95.28125,-42.90625
510,510,1727887615546,0.80078125,0.25878906,-0.20507812,40.4375,81.5,9.28125
511,511,1727887615586,0.67578125,0.30273438,0.0390625,0.34375,49.09375,5.6875
512,512,1727887615626,0.84277344,0.45898438,-0.16503906,-43.78125,42.0,-7.5
513,513,1727887615666,0.80078125,0.56347656,-0.23242188,2.125,43.40625,12.46875
514,514,1727887615706,0.8720703,0.3720703,-0.16308594,22.375,27.59375,1.03125
515,515,1727887615746,0.94433594,0.23828125,-0.29785156,19.15625,17.46875,-11.53125
516,516,1727887615786,0.9824219,0.08496094,-0.33984375,7.5,8.5,-9.875
517,517,1727887615826,1.0625,0.3173828,-0.4609375,-19.84375,6.46875,-8.90625
518,518,1727887615866,1.2011719,0.57421875,-0.28710938,-22.96875,10.15625,-18.78125
519,519,1727887615906,1.3085938,0.57910156,-0.0546875,-10.15625,50.84375,-14.9375
520,520,1727887615946,1.0654297,0.6220703,0.016601562,18.90625,51.96875,-25.8125
521,521,1727887615986,0.9003906,0.8066406,0.0146484375,40.6875,-28.25,-32.09375
522,522,1727887616026,1.0253906,0.36523438,-0.20507812,-6.0,-47.09375,-12.625
523,523,1727887616066,1.0771484,0.265625,-0.265625,30.8125,-101.25,31.625
524,524,1727887616106,0.9609375,0.68359375,-0.23730469,50.59375,-139.8125,29.5625
525,525,1727887616146,0.7841797,0.6513672,-0.057617188,-24.125,-87.15625,18.5
526,526,1727887616186,0.88378906,0.5830078,-0.42285156,16.78125,-111.4375,6.28125
527,527,1727887616226,0.55566406,0.4482422,-0.11425781,61.25,-117.1875,31.3125
528,528,1727887616266,0.2890625,0.24609375,-0.16894531,52.53125,-83.46875,13.75
529,529,1727887616306,0.6230469,0.103515625,-0.26953125,42.90625,-106.0,21.4375
530,530,1727887616346,0.6171875,0.28515625,-0.53027344,13.03125,-134.875,21.0625
531,531,1727887616386,0.44433594,0.25683594,-0.68847656,-14.0,-55.21875,3.625
532,532,1727887616426,0.5185547,0.30371094,-0.71875,-20.9375,-2.1875,9.40625
533,533,1727887616466,0.33203125,0.16308594,-0.8808594,-25.96875,36.375,9.09375
534,534,1727887616506,0.4267578,0.14746094,-0.87597656,-8.25,55.125,17.96875
535,535,1727887616546,1.8154297,0.7705078,-1.1279297,14.28125,13.1875,29.71875
536,536,1727887616586,0.5175781,0.3564453,-0.75,-36.75,84.1875,-18.3125
537,537,1727887616626,0.56152344,0.29003906,-0.36035156,-14.40625,88.03125,-23.5
538,538,1727887616666,0.7939453,0.578125,-0.3486328,-1.125,51.34375,-30.03125
539,539,1727887616706,0.8857422,0.53515625,-0.44140625,-11.5,84.65625,-33.3125
540,540,1727887616746,0.7675781,0.453125,-0.30371094,22.625,78.4375,-15.625
541,541,1727887616786,0.78515625,0.41601562,-0.24609375,49.46875,92.65625,-18.375
542,542,1727887616826,0.8173828,0.22363281,-0.24121094,38.25,98.21875,-34.0625
543,543,1727887616866,0.85839844,0.28710938,-0.26660156,71.46875,89.96875,-20.8125
544,544,1727887616906,0.7480469,0.2685547,-0.08203125,62.3125,79.59375,-13.25
545,545,1727887616946,0.71972656,0.26464844,-0.0390625,36.125,67.6875,-13.40625
546,546,1727887616986,0.8730469,0.4482422,-0.07519531,-6.0625,52.0,-3.59375
547,547,1727887617026,0.7265625,0.45214844,-0.18066406,-13.5,38.90625,-5.84375
548,548,1727887617066,0.8095703,0.48632812,-0.045898438,-0.9375,31.9375,-18.96875
549,549,1727887617106,0.87109375,0.4345703,-0.16015625,8.71875,22.46875,-22.15625
550,550,1727887617146,0.9892578,0.3095703,-0.27441406,42.09375,29.4375,-26.65625
551,551,1727887617186,1.0068359,0.18066406,-0.2578125,45.53125,48.34375,-29.71875
552,552,1727887617226,0.9628906,0.3955078,-0.25976562,38.25,43.53125,-34.34375
553,553,1727887617266,0.9667969,0.3779297,-0.21191406,54.90625,39.75,-43.5625
554,554,1727887617306,1.0029297,0.39941406,-0.16308594,53.375,26.3125,-33.4375
555,555,1727887617346,1.1191406,0.43066406,-0.0107421875,42.15625,11.125,-3.84375
556,556,1727887617386,0.99902344,0.56640625,0.029296875,27.5,-19.21875,32.53125
557,557,1727887617426,0.7519531,1.0361328,-0.109375,45.28125,-40.75,29.5625
558,558,1727887617466,0.55371094,1.0195312,-0.15039062,76.875,-47.84375,14.40625
559,559,1727887617506,0.8847656,0.66308594,-0.19433594,136.53125,-61.4375,-22.5
560,560,1727887617546,1.0527344,0.36523438,-0.39648438,119.6875,-119.6875,-29.15625
561,561,1727887617586,0.9375,0.29003906,-0.3720703,85.25,-96.0,10.75
562,562,1727887617626,0.7705078,0.3232422,-0.75,74.5,-111.0625,42.3125
563,563,1727887617666,0.47851562,0.2265625,-0.5888672,39.78125,-140.4375,13.4375
564,564,1727887617706,0.5625,0.2998047,-0.63671875,36.125,-100.9375,-10.375
565,565,1727887617746,0.35742188,0.23632812,-0.6796875,5.59375,-47.78125,9.71875
566,566,1727887617786,0.25683594,0.24707031,-0.63378906,2.4375,-23.5,-0.1875
567,567,1727887617826,0.26953125,0.24023438,-0.7236328,8.15625,14.0625,0.5
568,568,1727887617866,0.36328125,0.23730469,-0.78222656,6.28125,49.4375,3.78125
569,569,1727887617906,0.6269531,0.19140625,-0.94628906,-3.25,51.03125,-1.34375
570,570,1727887617946,1.4589844,0.66503906,-1.2324219,11.09375,-18.1875,-0.25
571,571,1727887617986,0.6982422,0.4814453,-1.0302734,-49.34375,25.59375,-33.625
572,572,1727887618026,0.5966797,0.42578125,-0.5732422,-20.34375,72.53125,-45.875
573,573,1727887618066,0.69140625,0.6357422,-0.3857422,-6.59375,67.75,-53.875
574,574,1727887618106,0.62890625,0.61621094,-0.45410156,11.71875,103.71875,-56.09375
575,575,1727887618146,0.6357422,0.4091797,-0.3828125,44.125,113.46875,-40.21875
576,576,1727887618186,0.90722656,0.35253906,-0.36132812,57.90625,104.625,-33.0625
577,577,1727887618226,0.8652344,0.2998047,-0.30859375,49.3125,94.875,-19.875
578,578,1727887618266,0.83496094,0.29882812,-0.23828125,40.625,106.65625,2.625
579,579,1727887618306,0.71191406,0.45703125,-0.18066406,21.71875,79.3125,2.09375
580,580,1727887618346,0.7246094,0.4638672,-0.12109375,29.28125,88.9375,19.96875
581,581,1727887618386,0.79296875,0.43652344,-0.15234375,22.1875,77.78125,2.34375
582,582,1727887618426,0.82421875,0.37304688,-0.16210938,16.03125,54.8125,-2.3125
583,583,1727887618466,0.9033203,0.3154297,-0.16210938,22.03125,43.03125,-10.625
584,584,1727887618506,0.9013672,0.26171875,-0.17089844,23.96875,33.71875,-9.5625
585,585,1727887618546,0.8886719,0.26367188,-0.21679688,26.59375,27.65625,-18.3125
586,586,1727887618586,0.8769531,0.29785156,-0.3984375,11.09375,37.125,-17.625
587,587,1727887618626,1.1396484,0.3173828,-0.4951172,7.5625,31.3125,-25.4375
588,588,1727887618666,1.4814453,0.41601562,-0.19238281,20.1875,33.09375,-23.125
589,589,1727887618706,1.1669922,0.5576172,-0.13964844,-18.3125,37.625,-25.8125
590,590,1727887618746,0.8808594,0.8300781,-0.020507812,1.6875,61.09375,-53.40625
591,591,1727887618786,0.88964844,0.62597656,0.0068359375,19.6875,-12.875,-23.5625
592,592,1727887618826,0.92089844,0.5390625,-0.13183594,-4.34375,-50.46875,-1.53125
593,593,1727887618866,0.9169922,0.5703125,-0.18359375,53.34375,-105.625,8.25
594,594,1727887618906,0.8232422,0.67285156,-0.3232422,75.25,-92.6875,12.28125
595,595,1727887618946,0.7158203,0.51953125,-0.13574219,48.5,-76.90625,13.5625
596,596,1727887618986,0.8457031,0.42089844,-0.3359375,10.78125,-122.0625,-3.09375
597,597,1727887619026,0.8496094,0.41015625,-0.3359375,86.71875,-130.40625,27.40625
598,598,1727887619066,0.40722656,0.3564453,-0.0078125,25.0,-138.28125,24.96875
599,599,1727887619106,0.3251953,0.23828125,-0.34765625,-2.59375,-117.25,-2.8125
600,600,1727887619146,0.63671875,0.38183594,-0.484375,17.25,-106.0625,2.5
601,601,1727887619186,0.47265625,0.34570312,-0.64746094,1.875,-49.125,11.90625
602,602,1727887619226,0.4794922,0.28515625,-0.72265625,0.96875,-0.34375,4.03125
603,603,1727887619266,0.3671875,0.19921875,-0.82714844,-6.53125,28.75,6.78125
604,604,1727887619306,0.35351562,0.17480469,-0.8544922,-16.125,43.34375,3.78125
605,605,1727887619346,1.1308594,0.4033203,-0.93066406,-26.9375,54.53125,4.84375
606,606,1727887619386,1.0683594,0.50878906,-1.0048828,-42.375,31.5,-0.90625
607,607,1727887619426,0.3330078,0.3828125,-0.47851562,-13.875,98.53125,-20.5
608,608,1727887619466,0.7705078,0.5527344,-0.4375,17.3125,92.0625,-2.1875
609,609,1727887619506,0.9423828,0.49902344,-0.3798828,20.0,94.1875,2.34375
610,610,1727887619546,0.74609375,0.32714844,-0.375,10.53125,79.0625,-10.125
611,611,1727887619586,0.7402344,0.32226562,-0.2421875,24.34375,67.9375,-26.78125
612,612,1727887619626,0.89160156,0.23828125,-0.17773438,42.21875,96.21875,-17.5
613,613,1727887619666,0.8388672,0.3828125,-0.23828125,12.3125,60.3125,-2.1875
614,614,1727887619706,0.6777344,0.3984375,0.028320312,-0.1875,61.34375,21.75
615,615,1727887619746,0.6953125,0.38867188,-0.033203125,-40.125,70.03125,6.65625
616,616,1727887619786,0.9472656,0.46191406,-0.34960938,-28.53125,51.65625,10.6875
617,617,1727887619826,0.81933594,0.31152344,-0.22949219,14.875,37.84375,20.75
618,618,1727887619866,0.890625,0.115234375,-0.1875,9.09375,38.40625,7.53125
619,619,1727887619906,0.9003906,0.12011719,-0.1640625,-6.53125,18.5,-1.53125
620,620,1727887619946,0.9814453,0.1953125,-0.34765625,-24.0,12.28125,-9.375
621,621,1727887619986,1.0830078,0.23632812,-0.28222656,-6.1875,27.84375,-22.28125
622,622,1727887620026,1.3720703,0.6191406,-0.13476562,5.90625,42.90625,-45.59375
623,623,1727887620066,1.2246094,0.69921875,-0.036132812,17.8125,59.65625,-35.5
624,624,1727887620106,1.1816406,0.80078125,0.0546875,18.84375,71.375,-69.28125
625,625,1727887620146,0.8408203,0.6328125,-0.19628906,57.71875,38.84375,-40.46875
626,626,1727887620186,0.8730469,0.33691406,-0.16015625,47.21875,-27.625,-12.25
627,627,1727887620226,0.8417969,0.35253906,-0.16894531,13.84375,-83.84375,34.25
628,628,1727887620266,0.8613281,0.7705078,-0.27734375,24.15625,-103.3125,49.375
629,629,1727887620306,0.79296875,0.8183594,-0.14941406,23.375,-101.0,31.125
630,630,1727887620346,0.59375,0.5410156,-0.083984375,0.96875,-34.46875,23.15625
631,631,1727887620386,0.83984375,0.3984375,-0.044921875,28.625,21.0,56.78125
632,632,1727887620426,0.6152344,0.5576172,-0.11035156,42.71875,-59.875,94.0
633,633,1727887620466,0.25,0.28222656,-0.064453125,47.84375,-89.53125,12.65625
634,634,1727887620506,0.50097656,0.29101562,-0.35839844,104.96875,-63.03125,-53.21875
635,635,1727887620546,1.0185547,0.26953125,-0.4267578,86.96875,-73.03125,-61.09375
636,636,1727887620586,0.68066406,0.2734375,-0.50878906,33.90625,-62.71875,-46.6875
637,637,1727887620626,0.4716797,0.3125,-0.53515625,9.9375,23.09375,-41.125
638,638,1727887620666,0.5205078,0.24414062,-0.61816406,-8.4375,72.40625,-42.53125
639,639,1727887620706,0.68066406,0.15527344,-0.7314453,-5.25,84.0,-30.625
640,640,1727887620746,0.78027344,0.5205078,-0.7402344,12.25,26.25,-12.5
641,641,1727887620786,0.73828125,0.37890625,-0.5595703,-29.25,30.59375,-24.21875
642,642,1727887620826,1.1630859,0.85058594,-0.5439453,21.03125,67.9375,1.53125
643,643,1727887620866,1.0322266,0.94140625,-0.47753906,62.84375,57.375,-10.625
644,644,1727887620906,0.8300781,0.43847656,-0.23535156,73.46875,73.875,-8.0625
645,645,1727887620946,0.57714844,0.28515625,0.0859375,104.78125,44.5625,-18.5
646,646,1727887620986,0.6953125,0.5214844,0.23632812,54.78125,48.96875,-52.96875
647,647,1727887621026,1.0478516,0.39941406,-0.16601562,-41.6875,47.9375,-15.3125
648,648,1727887621066,0.8515625,0.6220703,-0.11816406,108.9375,89.84375,24.375
649,649,1727887621106,0.8779297,0.4609375,-0.09082031,77.5625,73.4375,-5.1875
650,650,1727887621146,0.9794922,0.35253906,-0.009765625,88.0,37.3125,-26.53125
651,651,1727887621186,0.9189453,0.30664062,-0.1484375,66.5,47.3125,-16.65625
652,652,1727887621226,0.98339844,0.26660156,-0.20996094,66.9375,50.78125,-1.625
653,653,1727887621266,0.9160156,0.24023438,-0.2578125,79.625,47.875,2.21875
654,654,1727887621306,0.86328125,0.24121094,-0.22167969,59.90625,48.21875,-11.53125
655,655,1727887621346,0.9033203,0.25976562,-0.19238281,35.875,39.4375,-20.0
656,656,1727887621386,0.9169922,0.3251953,-0.16894531,25.4375,40.125,-20.0625
657,657,1727887621426,0.93359375,0.36523438,-0.14453125,14.75,37.375,-33.8125
658,658,1727887621466,1.0380859,0.40625,-0.08300781,21.71875,38.21875,-45.71875
659,659,1727887621506,1.2001953,0.47558594,-0.13867188,29.09375,42.625,-20.0625
660,660,1727887621546,1.2783203,0.6611328,-0.11230469,20.0,37.0,1.53125
661,661,1727887621586,1.3007812,0.6230469,-0.087890625,24.59375,28.875,-0.28125
662,662,1727887621626,1.0302734,0.6123047,-0.08691406,52.0,6.1875,-11.84375
663,663,1727887621666,0.8105469,0.61035156,-0.10839844,62.375,-30.8125,-19.03125
664,664,1727887621706,0.73046875,0.6669922,-0.234375,48.75,-65.90625,-21.65625
665,665,1727887621746,0.9765625,0.36816406,-0.19433594,85.9375,-112.46875,1.34375
666,666,1727887621786,0.9472656,0.47070312,-0.15136719,88.78125,-89.78125,49.4375
667,667,1727887621826,0.6201172,0.73535156,-0.07714844,30.0,-80.1875,42.5
668,668,1727887621866,0.8671875,0.5917969,-0.53222656,19.75,-105.15625,-1.6875
669,669,1727887621906,0.7832031,0.27929688,-0.15625,62.1875,-95.03125,39.125
670,670,1727887621946,0.47265625,0.23144531,-0.3154297,36.78125,-123.46875,22.84375
671,671,1727887621986,0.39160156,0.040039062,-0.37109375,5.40625,-86.09375,10.9375
672,672,1727887622026,0.30273438,0.11035156,-0.49121094,-18.375,-82.9375,-5.0625
673,673,1727887622066,0.38964844,0.2421875,-0.71875,-20.53125,-17.625,2.5625
674,674,1727887622106,0.7294922,0.3095703,-0.11621094,38.375,70.375,-10.0
675,675,1727887622146,0.7207031,0.29003906,-0.038085938,2.5625,35.84375,-0.125
676,676,1727887622186,0.82910156,0.44140625,-0.040039062,-63.375,5.375,2.6875
677,677,1727887622226,0.8964844,0.4951172,-0.29296875,-43.90625,18.03125,13.6875
678,678,1727887622266,0.9580078,0.3466797,-0.35058594,-15.53125,5.8125,17.59375
679,679,1727887622306,0.890625,0.27539062,-0.28710938,-9.53125,3.625,8.375
680,680,1727887622346,0.9238281,0.34960938,-0.30273438,-19.0625,8.125,-6.71875
681,681,1727887622386,0.9501953,0.41601562,-0.23339844,-20.15625,-2.0625,-19.09375
682,682,1727887622426,1.0644531,0.5214844,-0.3173828,-15.53125,14.84375,-21.78125
683,683,1727887622466,1.4033203,0.6826172,-0.171875,15.625,19.125,-12.0625
684,684,1727887622506,1.1386719,0.69628906,-0.036132812,-15.6875,47.5,-26.1875
685,685,1727887622546,0.91015625,0.86816406,-0.018554688,15.5625,52.5,-48.875
686,686,1727887622586,0.7285156,0.54589844,-0.06933594,24.59375,-9.625,-27.21875
687,687,1727887622626,0.85058594,0.42871094,-0.23144531,20.1875,-52.21875,-11.09375
688,688,1727887622666,0.9140625,0.50683594,-0.20605469,36.0,-101.90625,-3.65625
689,689,1727887622706,0.8173828,0.5810547,-0.25976562,73.96875,-82.8125,8.96875
690,690,1727887622746,0.8613281,0.58203125,-0.08496094,68.46875,-72.4375,23.875
691,691,1727887622786,0.86328125,0.5732422,-0.23632812,25.1875,-58.21875,49.75
692,692,1727887622826,0.7246094,0.45507812,-0.3203125,43.875,-118.625,74.34375
693,693,1727887622866,0.49023438,0.33007812,-0.265625,38.0625,-113.09375,56.90625
694,694,1727887622906,0.54785156,0.11425781,-0.2763672,20.625,-98.8125,23.5
695,695,1727887622946,0.6533203,0.24316406,-0.4580078,11.875,-124.6875,30.71875
696,696,1727887622986,0.60058594,0.2783203,-0.56640625,-4.78125,-98.0,22.84375
697,697,1727887623026,0.43945312,0.2998047,-0.6152344,-20.03125,-44.96875,20.15625
698,698,1727887623066,0.45117188,0.27246094,-0.63378906,-16.125,-17.5625,15.09375
699,699,1727887623106,0.43359375,0.2421875,-0.70996094,-22.65625,19.78125,17.46875
700,700,1727887623146,0.4453125,0.16601562,-0.8125,-23.28125,36.875,21.125
701,701,1727887623186,0.671875,0.25683594,-0.8955078,-30.90625,57.15625,20.875
702,702,1727887623226,1.5947266,0.6123047,-1.2685547,0.03125,-29.59375,21.375
703,703,1727887623266,0.33203125,0.2890625,-0.76660156,-16.75,65.625,-14.28125
704,704,1727887623306,0.93652344,0.36132812,-0.60058594,-11.90625,79.25,-25.0
705,705,1727887623346,0.859375,0.640625,-0.45507812,-16.5625,57.03125,-32.15625
706,706,1727887623386,0.5986328,0.5048828,-0.45996094,-9.53125,71.96875,-27.625
707,707,1727887623426,0.76660156,0.31445312,-0.31835938,13.40625,83.875,-22.28125
708,708,1727887623466,0.90722656,0.30273438,-0.31640625,11.28125,88.625,-12.25
709,709,1727887623506,0.92285156,0.3359375,-0.22363281,-11.0,86.75,-11.09375
710,710,1727887623546,0.70703125,0.32617188,-0.15820312,-1.34375,78.5,12.03125
711,711,1727887623586,0.5644531,0.36132812,-0.15332031,-5.9375,72.53125,5.5625
712,712,1727887623626,0.72265625,0.3564453,-0.064453125,-11.90625,33.71875,-8.40625
713,713,1727887623666,0.9121094,0.421875,-0.10546875,-43.65625,23.21875,-1.28125
714,714,1727887623706,0.92871094,0.42578125,-0.18652344,-29.4375,28.6875,11.1875
715,715,1727887623746,0.9785156,0.35253906,-0.13085938,-3.625,19.25,2.875
716,716,1727887623786,0.9189453,0.25,-0.18457031,-0.375,17.21875,2.28125
717,717,1727887623826,0.93066406,0.27929688,-0.15527344,2.5,18.375,0.0
718,718,1727887623866,0.9082031,0.3564453,-0.25683594,-16.96875,16.0,-14.28125
719,719,1727887623906,1.0439453,0.4609375,-0.34570312,-14.3125,18.4375,-28.3125
720,720,1727887623946,1.2333984,0.55859375,-0.26171875,-6.71875,11.4375,-36.96875
721,721,1727887623986,1.2900391,0.5546875,-0.08691406,2.1875,48.34375,-29.21875
722,722,1727887624026,1.0,0.7441406,0.08691406,-8.5625,63.4375,-34.65625
723,723,1727887624066,0.9746094,0.85253906,-0.12695312,13.34375,17.09375,-29.78125
724,724,1727887624106,0.91796875,0.5419922,-0.14648438,39.65625,-37.15625,-6.8125
725,725,1727887624146,0.8798828,0.42871094,-0.22558594,42.09375,-109.90625,13.25
726,726,1727887624186,0.80078125,0.6748047,-0.13476562,75.1875,-132.0625,24.0
727,727,1727887624226,0.6855469,0.6845703,-0.10546875,86.28125,-120.96875,19.0625
728,728,1727887624266,0.7236328,0.46972656,-0.20410156,40.03125,-48.03125,31.125
729,729,1727887624306,0.85839844,0.5517578,-0.31835938,65.34375,-82.6875,63.90625
730,730,1727887624346,0.4580078,0.296875,-0.25976562,40.375,-154.96875,25.875
731,731,1727887624386,0.55566406,0.20214844,-0.3828125,2.0,-121.875,7.09375
732,732,1727887624426,0.5263672,0.2939453,-0.5527344,0.84375,-108.25,-8.53125
733,733,1727887624466,0.4169922,0.265625,-0.5390625,-25.84375,-52.90625,-10.90625
734,734,1727887624506,0.38671875,0.2548828,-0.6347656,-29.1875,-1.03125,-6.53125
735,735,1727887624546,0.26464844,0.21777344,-0.7470703,-16.3125,36.6875,-0.90625
736,736,1727887624586,0.34375,0.25976562,-0.79589844,7.75,20.9375,8.25
737,737,1727887624626,1.4453125,0.85253906,-1.1728516,44.40625,-9.03125,29.0
738,738,1727887624666,0.62597656,0.45214844,-0.9609375,-15.40625,82.34375,-21.0625
739,739,1727887624706,0.6796875,0.2919922,-0.64941406,9.3125,93.6875,-20.0
740,740,1727887624746,0.8828125,0.58203125,-0.42773438,-1.125,59.40625,-29.15625
741,741,1727887624786,0.6845703,0.5761719,-0.42382812,-9.53125,83.375,-20.5
742,742,1727887624826,0.7578125,0.41796875,-0.33496094,13.59375,79.0625,-15.625
743,743,1727887624866,0.7949219,0.3466797,-0.23242188,31.1875,87.21875,-17.8125
744,744,1727887624906,0.8730469,0.3642578,-0.28125,20.5,94.4375,-36.4375
745,745,1727887624946,0.8613281,0.17480469,-0.18164062,39.53125,94.375,1.84375
746,746,1727887624986,0.62109375,0.22167969,-0.115234375,20.90625,69.96875,4.78125
747,747,1727887625026,0.72753906,0.32128906,-0.04296875,-6.71875,45.53125,-6.9375
748,748,1727887625066,0.8798828,0.39453125,-0.19140625,-72.9375,33.71875,19.40625
749,749,1727887625106,0.94921875,0.48242188,-0.15527344,-31.21875,43.96875,26.0625
750,750,1727887625146,0.8613281,0.4091797,-0.24414062,-28.59375,26.0,25.78125
751,751,1727887625186,0.8339844,0.31835938,-0.24804688,-5.4375,21.25,19.71875
752,752,1727887625226,0.8173828,0.25,-0.25976562,-0.3125,22.71875,4.59375
753,753,1727887625266,0.96777344,0.19433594,-0.17773438,-5.8125,-2.96875,-12.75
754,754,1727887625306,0.921875,0.26660156,-0.2783203,1.625,11.125,-16.84375
755,755,1727887625346,1.0683594,0.2919922,-0.16601562,-5.15625,11.0625,-23.1875
756,756,1727887625386,1.3017578,0.64746094,-0.22949219,-3.5625,33.46875,-35.34375
757,757,1727887625426,1.421875,0.5234375,-0.1640625,11.21875,48.96875,-22.40625
758,758,1727887625466,1.0986328,0.60253906,0.043945312,14.5,66.53125,-44.4375
759,759,1727887625506,0.8769531,0.55859375,-0.1015625,11.875,58.59375,-54.375
