,Unnamed: 0,timestamp,accel_x,accel_y,accel_z,gyro_x,gyro_y,gyro_z
0,0,1729186753660,-0.734375,0.18066406,-0.057617188,102.46875,-228.84375,19.46875
1,1,1729186753700,-0.9375,-0.4580078,-0.047851562,285.5,-298.1875,17.875
2,2,1729186753740,-0.13769531,0.3466797,-0.3671875,234.1875,-207.21875,47.84375
3,3,1729186753780,0.18066406,0.453125,0.037109375,126.75,-107.625,46.4375
4,4,1729186753820,0.06933594,0.42382812,0.29101562,10.90625,-20.78125,-2.6875
5,5,1729186753860,0.16210938,0.37109375,0.49414062,-20.65625,44.0625,-68.125
6,6,1729186753900,0.23730469,0.7890625,0.8046875,-57.6875,116.3125,-120.5
7,7,1729186753940,-2.0,0.24121094,1.9082031,-16.0,32.5625,-35.34375
8,8,1729186753980,0.13476562,0.5439453,-0.068359375,-61.21875,153.125,-63.3125
9,9,1729186754020,-0.8857422,0.15234375,-0.3017578,-301.28125,201.65625,-34.75
10,10,1729186754060,-1.8095703,0.22558594,0.018554688,-207.90625,193.34375,10.46875
11,11,1729186754100,-1.0976562,-0.15527344,0.119140625,-30.96875,112.21875,-3.5
12,12,1729186754140,-0.89746094,-0.08105469,0.10839844,-24.78125,110.09375,-6.125
13,13,1729186754180,-0.8095703,0.024414062,0.3857422,-24.6875,112.40625,-39.8125
14,14,1729186754220,-0.6357422,0.4658203,0.203125,-194.96875,118.9375,-75.6875
15,15,1729186754260,-0.92089844,0.091796875,0.61816406,-2.21875,85.375,-18.03125
16,16,1729186754300,-0.66796875,-0.09375,0.11621094,-82.0,56.8125,-19.3125
17,17,1729186754340,-0.6542969,-0.29003906,-0.048828125,-6.25,44.46875,6.875
18,18,1729186754380,-1.1787109,0.0087890625,0.29492188,13.0,51.875,19.75
19,19,1729186754420,-1.2558594,0.23632812,-0.15136719,-32.375,107.34375,19.40625
20,20,1729186754460,-2.0,0.37597656,-0.17285156,-78.5,71.53125,36.46875
21,21,1729186754500,-1.6796875,0.024414062,0.64941406,59.4375,-4.90625,14.375
22,22,1729186754540,-1.4902344,0.06347656,0.8203125,94.78125,-123.625,44.53125
23,23,1729186754580,-1.5205078,0.48632812,0.7675781,12.8125,-247.34375,110.46875
24,24,1729186754620,-1.4462891,0.5488281,-0.7246094,-111.21875,-148.03125,43.75
25,25,1729186754660,-0.85253906,0.31445312,-0.57910156,-21.625,-179.21875,-35.84375
26,26,1729186754700,-0.99121094,0.09082031,0.22949219,50.40625,-229.375,-5.25
27,27,1729186754740,-0.734375,-0.22070312,-0.16113281,212.3125,-298.40625,26.34375
28,28,1729186754780,-0.2109375,0.22558594,-0.34277344,181.625,-229.875,58.46875
29,29,1729186754820,-0.02734375,0.44433594,-0.034179688,189.875,-151.1875,44.59375
30,30,1729186754860,0.099609375,0.32617188,0.24414062,69.5625,-34.625,10.59375
31,31,1729186754900,0.0546875,0.44433594,0.19921875,-13.03125,31.78125,-60.6875
32,32,1729186754940,0.037109375,0.24511719,0.7080078,-50.84375,66.625,-93.8125
33,33,1729186754980,-1.4013672,0.9902344,1.1054688,-71.375,63.875,-63.8125
34,34,1729186755020,-1.1982422,0.26757812,0.13085938,-0.0625,162.65625,-34.6875
35,35,1729186755060,-0.28320312,0.6113281,0.4140625,-143.4375,167.96875,-56.65625
36,36,1729186755100,-1.3603516,0.06347656,0.18847656,-219.6875,226.90625,-68.8125
37,37,1729186755140,-1.4785156,0.22167969,0.12597656,-95.0625,159.15625,-4.53125
38,38,1729186755180,-0.8564453,0.064453125,0.11035156,61.8125,102.21875,-3.90625
39,39,1729186755220,-0.9609375,0.16699219,0.14453125,-18.15625,137.4375,-26.3125
40,40,1729186755260,-1.0712891,-0.1796875,-0.03515625,-79.53125,82.1875,-17.96875
41,41,1729186755300,-0.765625,-0.022460938,0.2421875,-116.03125,122.46875,-42.0
42,42,1729186755340,-0.9423828,0.0009765625,0.5703125,-44.3125,54.4375,-18.5
43,43,1729186755380,-0.7285156,-0.17578125,0.12792969,15.25,76.28125,-14.0
44,44,1729186755420,-1.0263672,-0.049804688,0.27441406,29.40625,26.78125,25.5
45,45,1729186755460,-0.9707031,0.107421875,-0.029296875,27.15625,51.75,25.6875
46,46,1729186755500,-1.5390625,0.39941406,-0.3701172,-65.625,87.09375,33.1875
47,47,1729186755540,-1.9326172,0.1953125,0.31152344,51.5,12.0,25.875
48,48,1729186755580,-1.5400391,0.23046875,0.5957031,-19.53125,-96.375,51.9375
49,49,1729186755620,-1.6210938,0.099609375,0.7363281,37.8125,-220.65625,68.78125
50,50,1729186755660,-1.2978516,0.31835938,-0.33984375,-198.9375,-226.9375,50.34375
51,51,1729186755700,-1.1298828,0.4111328,-0.4453125,3.09375,-166.9375,6.40625
52,52,1729186755740,-1.2792969,0.18945312,0.46679688,21.15625,-223.46875,14.75
53,53,1729186755780,-0.61621094,0.09082031,-0.17285156,102.875,-244.53125,2.71875
54,54,1729186755820,-0.3486328,-0.15625,0.016601562,217.15625,-291.15625,51.25
55,55,1729186755860,0.057617188,0.26757812,-0.21679688,178.375,-181.53125,54.71875
56,56,1729186755900,-0.043945312,0.36914062,0.051757812,122.90625,-83.5625,28.5625
57,57,1729186755940,0.01953125,0.65722656,0.5175781,0.28125,9.25,-15.15625
58,58,1729186755980,0.041992188,0.53515625,0.56347656,-35.21875,56.8125,-75.21875
59,59,1729186756020,-1.1630859,1.0517578,1.3056641,-102.4375,34.09375,-60.125
60,60,1729186756060,-1.3515625,0.57128906,0.4501953,3.15625,154.90625,-63.125
61,61,1729186756100,-0.5,0.71484375,0.6230469,-85.84375,164.65625,-48.0625
62,62,1729186756140,-1.0771484,0.24902344,0.0390625,-260.03125,207.1875,-50.5
63,63,1729186756180,-1.3115234,0.18261719,0.1015625,-176.03125,198.65625,-12.78125
64,64,1729186756220,-1.2226562,0.001953125,0.12695312,-91.6875,182.53125,-18.375
65,65,1729186756260,-0.9814453,-0.15527344,0.14550781,-76.0625,143.84375,-10.03125
66,66,1729186756300,-0.9628906,-0.11035156,-0.047851562,-48.71875,86.09375,-16.625
67,67,1729186756340,-0.71484375,0.37597656,0.21191406,-135.28125,125.96875,-50.375
68,68,1729186756380,-0.96777344,-0.19921875,0.36621094,-56.71875,100.09375,-34.625
69,69,1729186756420,-0.6171875,-0.1171875,0.16113281,-39.75,52.46875,-12.96875
70,70,1729186756460,-0.8330078,-0.17285156,0.20703125,1.875,22.125,14.15625
71,71,1729186756500,-0.98339844,0.051757812,0.10644531,-3.0625,38.1875,25.4375
72,72,1729186756540,-1.2324219,0.19140625,0.15332031,-3.8125,65.40625,28.84375
73,73,1729186756580,-1.5478516,0.125,-0.5361328,-71.90625,77.25,32.8125
74,74,1729186756620,-2.0,0.23828125,0.29492188,-5.5625,4.0625,27.5
75,75,1729186756660,-1.4277344,0.16894531,0.46972656,11.53125,-82.96875,32.875
76,76,1729186756700,-1.53125,0.23046875,0.63183594,7.125,-187.625,44.40625
77,77,1729186756740,-1.2392578,0.6328125,-0.16796875,-200.40625,-206.6875,37.15625
78,78,1729186756780,-1.2304688,0.82128906,-0.091796875,-27.53125,-162.75,34.96875
79,79,1729186756820,-1.0498047,0.08300781,-0.13476562,13.84375,-246.96875,64.1875
80,80,1729186756860,-1.0488281,-0.07128906,-0.0126953125,47.65625,-259.59375,59.1875
81,81,1729186756900,-0.3388672,-0.07910156,-0.046875,170.21875,-248.3125,34.84375
82,82,1729186756940,-0.033203125,0.31835938,-0.047851562,133.71875,-181.84375,85.5625
83,83,1729186756980,-0.03125,0.22558594,0.1484375,89.84375,-104.1875,54.1875
84,84,1729186757020,-0.0703125,0.4501953,0.29882812,30.0,-26.625,4.1875
85,85,1729186757060,0.12207031,0.49316406,0.49316406,-50.96875,33.375,-38.96875
86,86,1729186757100,-0.06542969,0.5048828,0.5966797,-70.375,86.65625,-70.5
87,87,1729186757140,-1.4560547,1.3076172,1.8818359,-60.8125,-0.6875,-26.625
88,88,1729186757180,-0.5419922,0.9248047,0.06347656,3.9375,135.96875,-72.59375
89,89,1729186757220,-0.44726562,0.84375,0.59765625,-145.53125,170.40625,-65.125
90,90,1729186757260,-1.4414062,0.3671875,-0.24609375,-335.59375,254.75,-47.5625
91,91,1729186757300,-1.3164062,0.25195312,-0.09277344,-211.5,207.8125,24.21875
92,92,1729186757340,-1.1435547,0.15136719,0.051757812,-197.65625,199.8125,9.375
93,93,1729186757380,-1.2294922,-0.24023438,-0.087890625,-124.46875,125.28125,37.875
94,94,1729186757420,-0.99316406,-0.34277344,-0.009765625,-67.65625,112.03125,16.15625
95,95,1729186757460,-0.5107422,0.14746094,0.4501953,-198.0,129.25,-63.375
96,96,1729186757500,-0.9033203,-0.234375,0.28027344,-93.21875,109.1875,-20.15625
97,97,1729186757540,-0.8652344,-0.13476562,0.37304688,-89.375,74.09375,-7.40625
98,98,1729186757580,-0.84765625,-0.060546875,0.23828125,-42.5625,34.40625,27.8125
99,99,1729186757620,-0.9873047,-0.05078125,0.1171875,-40.125,64.125,12.9375
100,100,1729186757660,-1.3095703,0.13574219,0.14453125,-55.125,88.0,18.40625
101,101,1729186757700,-2.0,0.09472656,-0.48046875,-58.375,64.875,35.5
102,102,1729186757740,-1.5439453,0.44628906,0.64160156,9.8125,-12.40625,12.5
103,103,1729186757780,-1.3730469,-0.022460938,0.51953125,-8.3125,-115.90625,49.53125
104,104,1729186757820,-1.4501953,0.20898438,0.14160156,-49.03125,-177.8125,53.875
105,105,1729186757860,-1.1308594,0.48632812,-0.38867188,-88.15625,-160.90625,3.40625
106,106,1729186757900,-1.3271484,0.45507812,0.27734375,-31.8125,-154.25,15.25
107,107,1729186757940,-1.0078125,0.061523438,-0.2890625,-19.71875,-226.09375,1.5
108,108,1729186757980,-1.0576172,-0.37597656,-0.1953125,97.6875,-236.40625,23.84375
109,109,1729186758020,-0.4091797,0.2607422,-0.14160156,233.875,-272.0625,40.75
110,110,1729186758060,-0.15039062,0.3642578,-0.19335938,168.3125,-182.5625,62.1875
111,111,1729186758100,-0.08203125,0.18066406,0.1796875,130.46875,-107.625,40.5
112,112,1729186758140,-0.08105469,0.4111328,0.3642578,26.09375,-14.1875,-13.03125
113,113,1729186758180,-0.09375,0.22949219,0.6435547,-1.40625,30.9375,-57.5
114,114,1729186758220,-0.35058594,0.72265625,0.79785156,-27.84375,50.8125,-84.65625
115,115,1729186758260,-1.6289062,0.24804688,1.7714844,-47.0,-8.4375,-84.71875
116,116,1729186758300,-0.083984375,1.03125,-0.41601562,-23.40625,150.375,-57.3125
117,117,1729186758340,-0.70703125,0.63671875,0.296875,-141.1875,171.75,-65.125
118,118,1729186758380,-1.5283203,0.3544922,-0.13867188,-258.9375,238.03125,-49.46875
119,119,1729186758420,-1.2978516,0.047851562,-0.11816406,-128.125,177.28125,-22.71875
120,120,1729186758460,-0.89746094,0.09082031,0.022460938,-105.96875,160.3125,-30.59375
121,121,1729186758500,-1.0058594,-0.015625,0.001953125,17.4375,75.4375,2.4375
122,122,1729186758540,-0.55078125,0.4091797,0.35058594,-65.5,198.53125,-76.8125
123,123,1729186758580,-1.1298828,0.09472656,0.30273438,-151.5625,145.5625,-53.0
124,124,1729186758620,-0.7607422,-0.059570312,-0.2763672,-131.125,89.40625,-34.375
125,125,1729186758660,-0.9794922,-0.13867188,0.515625,0.28125,53.8125,-3.25
126,126,1729186758700,-1.0234375,-0.083984375,0.053710938,-25.59375,23.65625,1.4375
127,127,1729186758740,-0.8984375,-0.10546875,0.17285156,17.25,10.0625,24.53125
128,128,1729186758780,-1.1435547,0.10449219,-0.013671875,-21.0,47.71875,25.25
129,129,1729186758820,-1.8037109,-0.049804688,-0.3359375,-47.0625,42.78125,30.5
130,130,1729186758860,-1.8505859,0.2783203,0.2841797,4.125,-14.90625,20.96875
131,131,1729186758900,-1.4462891,0.111328125,0.55078125,-15.875,-91.4375,54.125
132,132,1729186758940,-1.4550781,0.2626953,0.5126953,-14.0,-169.6875,51.5
133,133,1729186758980,-1.3193359,0.4091797,-0.099609375,-177.625,-164.9375,31.46875
134,134,1729186759020,-1.1435547,0.26953125,-0.5917969,-7.71875,-179.65625,37.34375
135,135,1729186759060,-1.2753906,0.4296875,0.4873047,-20.28125,-178.90625,12.875
136,136,1729186759100,-0.8095703,0.16113281,-0.14648438,110.8125,-207.59375,15.84375
137,137,1729186759140,-0.8027344,-0.020507812,0.013671875,87.5625,-207.71875,6.46875
138,138,1729186759180,-0.41992188,0.2705078,0.10449219,160.875,-212.125,29.9375
139,139,1729186759220,-0.056640625,0.31054688,-0.024414062,119.5,-140.8125,43.5
140,140,1729186759260,-0.14160156,0.48828125,0.12402344,61.375,-75.6875,25.5
141,141,1729186759300,-0.18457031,0.33984375,0.4013672,5.78125,-3.3125,-23.40625
142,142,1729186759340,-0.08691406,0.17871094,0.6230469,-15.6875,47.15625,-46.15625
143,143,1729186759380,-0.265625,0.24023438,0.8105469,-50.375,79.21875,-62.15625
144,144,1729186759420,-2.0,1.3046875,2.0,-107.5,-24.84375,-27.65625
145,145,1729186759460,-0.421875,0.79003906,-0.13964844,54.84375,160.75,-40.84375
146,146,1729186759500,-0.6845703,0.43554688,0.28515625,-72.21875,152.8125,-56.40625
147,147,1729186759540,-1.3398438,0.625,0.32714844,-185.25,177.90625,-40.25
148,148,1729186759580,-1.0605469,0.2705078,0.056640625,-152.84375,178.375,0.96875
149,149,1729186759620,-1.0107422,0.14550781,0.046875,-143.5,194.9375,-11.375
150,150,1729186759660,-1.4189453,-0.39160156,-0.21289062,-66.0,120.53125,26.28125
151,151,1729186759700,-0.8066406,0.09863281,0.16699219,-94.25,157.8125,-35.65625
152,152,1729186759740,-0.82714844,0.0234375,-0.17773438,-111.96875,87.9375,-18.75
153,153,1729186759780,-0.9199219,0.2705078,0.42871094,-137.15625,92.6875,-35.34375
154,154,1729186759820,-0.8730469,-0.13085938,0.20410156,-84.5,78.0625,-28.8125
155,155,1729186759860,-0.8486328,-0.48535156,0.1875,-81.5,46.25,-15.6875
156,156,1729186759900,-0.859375,-0.22949219,0.034179688,-18.03125,27.6875,11.71875
157,157,1729186759940,-0.9814453,0.20800781,0.19042969,-0.125,27.09375,21.59375
158,158,1729186759980,-1.2265625,0.234375,-0.109375,-53.78125,85.6875,24.71875
159,159,1729186760020,-1.9931641,-0.017578125,-0.21484375,-26.8125,55.03125,32.625
160,160,1729186760060,-1.7822266,0.5175781,0.39648438,6.75,-12.53125,15.65625
161,161,1729186760100,-1.3847656,0.052734375,0.45507812,-10.75,-121.40625,42.15625
162,162,1729186760140,-1.5878906,0.37890625,0.7294922,32.53125,-193.3125,51.3125
163,163,1729186760180,-0.9121094,0.10253906,-0.6982422,-274.84375,-150.28125,5.90625
164,164,1729186760220,-1.2509766,0.17675781,0.16210938,85.6875,-164.5625,28.1875
165,165,1729186760260,-0.94628906,0.38183594,0.001953125,-4.96875,-245.25,24.59375
166,166,1729186760300,-0.9375,-0.54785156,-0.12597656,101.375,-227.5625,11.53125
167,167,1729186760340,-0.37890625,0.16308594,-0.1484375,199.25,-252.46875,24.03125
168,168,1729186760380,-0.18066406,0.31933594,-0.13769531,172.96875,-195.28125,41.84375
169,169,1729186760420,-0.13574219,0.4013672,0.13671875,108.4375,-116.59375,50.40625
170,170,1729186760460,-0.23925781,0.43945312,0.20898438,37.28125,-30.21875,8.71875
171,171,1729186760500,-0.08105469,0.4873047,0.25195312,-26.75,29.09375,-33.15625
172,172,1729186760540,-0.18945312,0.2763672,0.51464844,-66.59375,65.59375,-61.96875
173,173,1729186760580,-0.5205078,0.7705078,1.3623047,-89.84375,93.4375,-56.21875
174,174,1729186760620,-0.83203125,-0.032226562,0.85546875,22.625,-1.96875,-32.25
175,175,1729186760660,-0.0068359375,0.78027344,0.07421875,-73.0625,135.0,-27.0
176,176,1729186760700,-1.1171875,0.61816406,0.3076172,-161.5,169.34375,-58.78125
177,177,1729186760740,-0.9375,0.50390625,0.08496094,-170.0625,180.21875,-8.5625
178,178,1729186760780,-1.1728516,0.140625,0.08984375,-127.15625,186.5,-4.96875
179,179,1729186760820,-1.1445312,0.06933594,0.10644531,-141.875,194.625,-4.78125
180,180,1729186760860,-1.2070312,0.059570312,-0.005859375,-48.0625,140.125,6.9375
181,181,1729186760900,-0.7919922,0.11425781,0.021484375,5.0,113.3125,-6.1875
182,182,1729186760940,-0.73535156,0.1640625,0.0107421875,-52.5625,81.09375,-27.59375
183,183,1729186760980,-1.046875,0.032226562,0.1015625,-162.1875,129.6875,-33.09375
184,184,1729186761020,-1.0390625,-0.15625,0.40625,-94.75,74.15625,-37.5
185,185,1729186761060,-0.7998047,-0.26367188,0.0146484375,-51.53125,44.53125,-24.78125
186,186,1729186761100,-0.99121094,-0.11621094,0.26757812,-25.53125,7.375,13.96875
187,187,1729186761140,-0.8779297,0.02734375,0.013671875,-21.4375,21.03125,25.5
188,188,1729186761180,-1.5097656,0.22949219,-0.08691406,-42.0,66.40625,34.15625
189,189,1729186761220,-1.6806641,0.12988281,0.052734375,10.59375,27.34375,14.3125
190,190,1729186761260,-1.7431641,0.12597656,0.5175781,39.71875,-41.53125,41.71875
191,191,1729186761300,-1.4619141,-0.08984375,0.6152344,-5.25,-118.84375,66.8125
192,192,1729186761340,-1.5439453,0.28027344,0.4111328,3.46875,-161.6875,22.125
193,193,1729186761380,-0.65625,0.48828125,-0.7158203,-177.3125,-154.5625,-22.96875
194,194,1729186761420,-1.4326172,0.2841797,0.53515625,34.84375,-166.28125,2.96875
195,195,1729186761460,-1.0429688,0.3095703,-0.36328125,-15.8125,-207.15625,-4.65625
196,196,1729186761500,-1.0458984,-0.32128906,0.044921875,125.96875,-233.96875,13.03125
197,197,1729186761540,-0.4482422,0.22070312,-0.07910156,206.84375,-246.40625,33.4375
198,198,1729186761580,-0.19433594,0.33789062,-0.029296875,156.40625,-183.1875,34.21875
199,199,1729186761620,-0.22753906,0.22460938,0.087890625,106.25,-125.3125,30.75
200,200,1729186761660,0.0048828125,0.3125,0.21484375,47.53125,-45.3125,-6.84375
201,201,1729186761700,-0.10449219,0.32421875,0.49609375,-1.0,12.1875,-41.65625
202,202,1729186761740,-0.15039062,0.19726562,0.5390625,-26.625,65.0,-64.84375
203,203,1729186761780,-1.3193359,1.0976562,2.0,-62.5625,26.21875,-62.21875
204,204,1729186761820,-0.59472656,0.29101562,0.7783203,63.46875,53.21875,-76.625
205,205,1729186761860,-0.0546875,0.88964844,0.35351562,-66.96875,129.5625,-41.9375
206,206,1729186761900,-1.0830078,0.67578125,0.22753906,-168.15625,173.4375,-33.65625
207,207,1729186761940,-1.1279297,0.44140625,-0.038085938,-186.40625,205.3125,9.09375
208,208,1729186761980,-1.2304688,-0.083984375,-0.034179688,-147.59375,192.96875,-13.875
209,209,1729186762020,-1.0693359,0.059570312,0.05078125,-134.90625,174.25,-10.15625
210,210,1729186762060,-1.0234375,-0.14648438,0.057617188,-23.875,107.71875,21.34375
211,211,1729186762100,-0.8457031,0.18847656,0.2529297,-26.375,101.1875,7.25
212,212,1729186762140,-0.8173828,-0.017578125,-0.0126953125,-127.625,87.03125,-36.875
213,213,1729186762180,-0.96484375,0.08300781,0.37597656,-90.53125,124.625,-59.40625
214,214,1729186762220,-1.1533203,0.0859375,0.4248047,-100.53125,34.34375,-19.78125
215,215,1729186762260,-0.9033203,-0.19335938,0.1484375,-34.875,18.21875,-9.46875
216,216,1729186762300,-0.8046875,-0.099609375,-0.021484375,-9.40625,37.15625,14.625
217,217,1729186762340,-1.1279297,0.030273438,0.09863281,-3.3125,57.53125,15.375
218,218,1729186762380,-1.3232422,0.19433594,-0.2626953,-42.375,101.71875,27.09375
219,219,1729186762420,-1.9121094,0.15332031,-0.19726562,-5.3125,56.3125,25.25
220,220,1729186762460,-1.4453125,0.16796875,0.328125,8.46875,-33.875,27.5625
221,221,1729186762500,-1.4199219,-0.2607422,0.33496094,33.90625,-100.1875,44.1875
222,222,1729186762540,-1.6318359,0.27246094,0.796875,160.4375,-219.6875,54.375
223,223,1729186762580,-0.9746094,0.390625,-0.9042969,-286.09375,-143.3125,-39.1875
224,224,1729186762620,-1.3291016,0.26757812,0.27539062,105.5,-194.0,30.0625
225,225,1729186762660,-1.3232422,-0.36523438,-0.61621094,-74.40625,-210.03125,6.03125
226,226,1729186762700,-0.8144531,-0.07910156,0.0126953125,101.5625,-266.75,10.125
227,227,1729186762740,-0.6972656,-0.060546875,-0.19921875,230.09375,-236.40625,-0.8125
228,228,1729186762780,-0.18554688,0.3310547,-0.107421875,173.3125,-199.84375,29.40625
229,229,1729186762820,-0.14746094,0.3154297,0.123046875,138.21875,-144.0,49.59375
230,230,1729186762860,-0.0703125,0.3701172,0.22949219,67.96875,-66.0,1.8125
231,231,1729186762900,-0.080078125,0.37597656,0.4248047,-2.34375,5.0625,-63.3125
232,232,1729186762940,-0.080078125,0.5019531,0.9160156,3.15625,43.0,-95.96875
233,233,1729186762980,-1.8505859,0.39257812,1.4697266,-44.28125,33.4375,-66.90625
234,234,1729186763020,-0.18945312,1.0224609,0.030273438,-41.75,132.5,-52.875
235,235,1729186763060,-0.56152344,0.5078125,0.16113281,-186.96875,170.40625,-59.15625
236,236,1729186763100,-1.2685547,0.35742188,0.09863281,-231.40625,213.1875,-12.15625
237,237,1729186763140,-1.3808594,-0.15039062,-0.048828125,-161.875,197.75,2.65625
238,238,1729186763180,-0.8300781,-0.11621094,0.21777344,-56.03125,148.0,-1.84375
239,239,1729186763220,-1.2167969,-0.33398438,0.078125,49.0,101.3125,20.6875
240,240,1729186763260,-0.7861328,0.13867188,0.14746094,-13.4375,76.9375,-26.1875
241,241,1729186763300,-0.7128906,0.4140625,0.103515625,-91.5,102.59375,-62.34375
242,242,1729186763340,-1.0898438,0.0546875,0.40625,-49.34375,99.96875,-35.0625
243,243,1729186763380,-0.7109375,-0.059570312,0.013671875,-68.0625,47.46875,-21.0
244,244,1729186763420,-0.890625,-0.20117188,-0.051757812,-14.125,43.3125,-8.125
245,245,1729186763460,-1.0839844,0.11816406,0.12402344,19.625,13.15625,20.90625
246,246,1729186763500,-1.0791016,0.017578125,0.140625,5.28125,39.09375,18.90625
247,247,1729186763540,-1.2910156,0.022460938,-0.42871094,-50.375,84.21875,25.6875
248,248,1729186763580,-2.0,0.16113281,-0.10058594,1.5,40.5625,33.96875
249,249,1729186763620,-1.5537109,0.22753906,0.6074219,59.4375,-38.96875,41.0625
250,250,1729186763660,-1.4521484,-0.0068359375,0.7109375,24.8125,-126.40625,59.4375
251,251,1729186763700,-1.59375,0.35058594,0.5576172,12.4375,-210.53125,55.96875
252,252,1729186763740,-0.8808594,0.4951172,-0.9980469,-179.46875,-184.40625,13.90625
253,253,1729186763780,-1.3925781,0.03515625,0.33496094,-3.0625,-169.21875,1.28125
254,254,1729186763820,-1.0048828,0.30273438,-0.28710938,97.53125,-235.125,1.375
255,255,1729186763860,-1.0419922,-0.4814453,0.10449219,211.34375,-299.03125,0.78125
256,256,1729186763900,-0.28125,0.31445312,-0.12890625,215.8125,-254.90625,36.46875
257,257,1729186763940,-0.16601562,0.3388672,-0.14257812,154.03125,-169.8125,59.0
258,258,1729186763980,-0.038085938,0.4423828,0.1328125,88.78125,-80.40625,17.375
259,259,1729186764020,-0.080078125,0.66015625,0.45507812,6.21875,-15.34375,-33.875
260,260,1729186764060,0.072265625,0.31445312,0.37402344,-20.40625,37.03125,-83.6875
261,261,1729186764100,-0.55859375,0.6777344,1.5947266,-67.34375,83.40625,-61.21875
262,262,1729186764140,-1.5068359,0.41796875,1.3017578,27.375,51.375,-79.125
263,263,1729186764180,-0.0048828125,0.8183594,0.4501953,-25.53125,124.3125,-73.9375
264,264,1729186764220,-0.86035156,0.5253906,-0.1171875,-240.625,189.5,-57.375
265,265,1729186764260,-1.5615234,0.37890625,0.14160156,-163.90625,198.71875,-26.4375
266,266,1729186764300,-1.1191406,0.03125,0.040039062,-72.21875,149.34375,-9.0625
267,267,1729186764340,-0.8535156,0.15917969,0.07910156,-28.8125,135.0625,-4.84375
268,268,1729186764380,-1.0517578,-0.061523438,0.2265625,11.28125,90.5625,-1.1875
269,269,1729186764420,-0.79296875,-0.24804688,-0.028320312,-71.90625,118.40625,-35.84375
270,270,1729186764460,-0.6777344,0.26953125,0.25878906,-112.25,116.3125,-59.59375
271,271,1729186764500,-1.0058594,0.087890625,0.3828125,-51.71875,78.34375,-24.84375
272,272,1729186764540,-0.80566406,0.00390625,0.28808594,-16.1875,48.03125,-10.625
273,273,1729186764580,-1.0097656,-0.17773438,-0.095703125,-20.875,34.28125,6.5
274,274,1729186764620,-1.0205078,0.0703125,0.14355469,15.0,27.6875,25.4375
275,275,1729186764660,-1.078125,0.047851562,-0.040039062,-28.09375,67.5625,17.875
276,276,1729186764700,-1.9521484,0.095703125,-0.60546875,-63.0,73.46875,31.78125
277,277,1729186764740,-1.7041016,0.35839844,0.39453125,19.6875,10.40625,22.25
278,278,1729186764780,-1.2900391,-0.078125,0.41992188,24.21875,-84.5,54.125
279,279,1729186764820,-1.4814453,0.03515625,0.76660156,73.40625,-154.6875,46.8125
280,280,1729186764860,-1.3046875,0.49121094,-0.22363281,-138.0625,-164.0625,35.5
281,281,1729186764900,-0.97265625,0.74902344,-0.43652344,-41.59375,-140.09375,6.40625
282,282,1729186764940,-1.1552734,-0.1015625,0.119140625,-0.875,-191.0,18.34375
283,283,1729186764980,-0.7841797,0.0029296875,0.2890625,47.78125,-207.59375,-2.40625
284,284,1729186765020,-0.6826172,-0.037109375,-0.22851562,165.5625,-232.4375,-1.65625
285,285,1729186765060,-0.4404297,0.24902344,0.119140625,164.71875,-232.0,33.4375
286,286,1729186765100,-0.34375,0.32226562,0.0703125,101.78125,-147.34375,38.625
287,287,1729186765140,-0.13574219,0.3955078,0.17871094,79.625,-98.59375,17.3125
288,288,1729186765180,-0.045898438,0.30371094,0.5058594,16.46875,-5.375,-25.15625
289,289,1729186765220,-0.068359375,0.29492188,0.7207031,-12.53125,58.28125,-66.25
290,290,1729186765260,-1.2363281,1.1337891,1.1650391,-68.875,46.875,-61.34375
291,291,1729186765300,-1.3710938,0.64453125,0.24707031,19.53125,152.34375,-56.34375
292,292,1729186765340,-0.14648438,0.68066406,0.35839844,-113.25,159.96875,-41.59375
293,293,1729186765380,-1.34375,0.33691406,0.10546875,-255.875,206.21875,-30.78125
294,294,1729186765420,-1.6416016,-0.028320312,0.03515625,-190.375,197.25,2.4375
295,295,1729186765460,-0.859375,0.12402344,0.123046875,-62.28125,137.5,-9.71875
296,296,1729186765500,-1.1162109,-0.1796875,-0.11621094,-18.5,110.09375,22.6875
297,297,1729186765540,-0.9667969,0.123046875,0.22167969,-6.0,90.0625,-7.34375
298,298,1729186765580,-0.7910156,-0.059570312,-0.046875,-124.40625,67.5,-27.125
299,299,1729186765620,-0.88183594,0.10839844,0.359375,-83.6875,113.5,-39.3125
300,300,1729186765660,-0.9902344,-0.087890625,0.21289062,-88.03125,57.59375,-16.9375
301,301,1729186765700,-0.83496094,-0.083984375,0.15527344,-35.96875,43.1875,-5.03125
302,302,1729186765740,-1.0019531,-0.0390625,0.083984375,-3.1875,21.09375,20.25
303,303,1729186765780,-1.2060547,0.11816406,0.05859375,-22.53125,56.75,13.53125
304,304,1729186765820,-1.6054688,0.17578125,-0.22363281,-49.46875,74.21875,29.03125
305,305,1729186765860,-1.8857422,0.068359375,0.27539062,5.0625,18.65625,26.09375
306,306,1729186765900,-1.4257812,0.1171875,0.40527344,9.625,-49.15625,35.15625
307,307,1729186765940,-1.5263672,-0.049804688,0.5888672,50.03125,-128.5,55.65625
308,308,1729186765980,-1.2529297,0.40234375,0.1875,-92.65625,-174.40625,38.0625
309,309,1729186766020,-1.2197266,0.60839844,-0.29589844,-43.78125,-158.65625,30.375
310,310,1729186766060,-1.0947266,0.115234375,0.024414062,-65.125,-161.9375,-7.78125
311,311,1729186766100,-0.85546875,0.11816406,0.10058594,94.96875,-186.1875,-6.3125
312,312,1729186766140,-0.7470703,-0.044921875,0.0068359375,177.0625,-251.53125,18.84375
313,313,1729186766180,-0.43945312,0.080078125,0.06347656,179.0,-242.875,53.4375
314,314,1729186766220,-0.22949219,0.23339844,0.047851562,119.78125,-141.75,49.46875
315,315,1729186766260,-0.19140625,0.40527344,0.125,100.3125,-77.03125,24.59375
316,316,1729186766300,-0.14160156,0.42578125,0.49316406,-6.5,7.75,-22.15625
317,317,1729186766340,0.0234375,0.29003906,0.67578125,-11.0625,56.4375,-53.46875
318,318,1729186766380,-1.0908203,0.82910156,1.0869141,-60.25,36.96875,-33.28125
319,319,1729186766420,-1.1386719,0.75390625,0.08300781,13.15625,152.21875,-64.28125
320,320,1729186766460,-0.69921875,0.6044922,0.54003906,-102.125,168.8125,-58.96875
321,321,1729186766500,-1.0791016,0.4033203,-0.10546875,-259.125,219.59375,-22.40625
322,322,1729186766540,-1.4550781,0.045898438,-0.03515625,-193.25,215.9375,-12.90625
323,323,1729186766580,-1.078125,0.009765625,0.119140625,-148.5625,176.375,-11.625
324,324,1729186766620,-0.8828125,-0.13378906,0.11035156,-118.125,148.25,-8.1875
325,325,1729186766660,-0.9746094,-0.5703125,-0.23242188,-64.84375,102.84375,6.9375
326,326,1729186766700,-0.75683594,0.4482422,0.4765625,-110.78125,140.0,-89.25
327,327,1729186766740,-1.125,-0.18554688,0.17382812,-69.90625,120.34375,-29.9375
328,328,1729186766780,-0.6796875,-0.18945312,0.17382812,-89.75,26.40625,-6.0
329,329,1729186766820,-1.0507812,-0.12109375,0.087890625,-7.9375,18.0625,12.4375
330,330,1729186766860,-1.0664062,-0.02734375,-0.0078125,-10.6875,44.65625,31.1875
331,331,1729186766900,-1.4238281,0.15527344,-0.30371094,-55.125,60.65625,34.53125
332,332,1729186766940,-1.9882812,0.2548828,0.16210938,-6.78125,9.5625,31.40625
333,333,1729186766980,-1.5048828,0.18652344,0.4951172,19.34375,-80.09375,35.375
334,334,1729186767020,-1.4814453,0.22363281,0.82128906,34.21875,-171.9375,66.5
335,335,1729186767060,-1.4453125,0.45410156,0.22558594,-143.03125,-213.8125,61.5625
336,336,1729186767100,-1.0224609,0.37109375,-0.98046875,-98.40625,-146.9375,17.5
337,337,1729186767140,-1.2060547,0.20117188,0.2919922,-41.9375,-180.625,-0.375
338,338,1729186767180,-0.8261719,-0.05859375,-0.03125,131.09375,-227.3125,8.40625
339,339,1729186767220,-0.7060547,-0.24023438,-0.13085938,192.5,-261.96875,21.03125
340,340,1729186767260,-0.24707031,0.36523438,-0.13574219,156.59375,-211.4375,64.875
341,341,1729186767300,-0.11621094,0.32421875,-0.13769531,135.1875,-147.90625,53.375
342,342,1729186767340,0.119140625,0.39453125,0.2705078,50.65625,-51.71875,14.09375
343,343,1729186767380,-0.07421875,0.3779297,0.5605469,-10.15625,25.375,-46.09375
344,344,1729186767420,0.22363281,0.734375,0.765625,-20.71875,89.21875,-85.21875
345,345,1729186767460,-1.71875,0.43066406,1.8300781,-89.0625,47.90625,-83.5
346,346,1729186767500,-0.10058594,1.0234375,-0.16992188,-88.15625,183.75,-61.28125
347,347,1729186767540,-0.66015625,0.5214844,-0.046875,-215.71875,217.03125,-28.8125
348,348,1729186767580,-1.6875,0.32128906,0.041015625,-281.9375,248.59375,-21.4375
349,349,1729186767620,-1.3486328,-0.2529297,0.025390625,-161.75,190.40625,-7.09375
350,350,1729186767660,-0.8183594,-0.13671875,-0.032226562,-67.75,146.96875,-3.96875
351,351,1729186767700,-0.98828125,0.08105469,-0.017578125,110.21875,32.40625,24.65625
352,352,1729186767740,-0.70214844,0.17773438,0.22363281,-118.90625,108.875,-43.34375
353,353,1729186767780,-0.88183594,0.109375,0.17578125,-116.21875,109.96875,-27.59375
354,354,1729186767820,-1.0419922,0.06542969,0.4501953,-81.5,46.8125,-19.0625
355,355,1729186767860,-0.7529297,-0.20507812,-0.001953125,-48.90625,32.46875,-14.0625
356,356,1729186767900,-0.96875,-0.072265625,-0.091796875,-16.125,21.84375,16.21875
357,357,1729186767940,-1.2490234,0.13183594,0.115234375,-1.1875,73.96875,13.0
358,358,1729186767980,-1.7900391,0.23535156,-0.1875,-63.6875,83.125,25.3125
359,359,1729186768020,-1.8984375,0.14355469,0.34277344,3.40625,-3.8125,26.84375
360,360,1729186768060,-1.3652344,0.25878906,0.6933594,25.25,-74.0625,40.03125
361,361,1729186768100,-1.6796875,-0.11425781,0.56933594,22.4375,-145.34375,64.8125
362,362,1729186768140,-1.1826172,0.13769531,-0.13671875,-153.53125,-169.21875,8.78125
363,363,1729186768180,-1.4238281,0.36523438,-0.30859375,35.5,-163.09375,17.625
364,364,1729186768220,-1.1572266,0.33789062,-0.018554688,-81.5,-187.875,-30.15625
365,365,1729186768260,-0.6298828,0.03515625,0.17773438,145.5,-253.0,-0.625
366,366,1729186768300,-0.7783203,-0.30859375,-0.12402344,204.21875,-269.65625,2.0625
367,367,1729186768340,-0.22070312,0.37597656,-0.17480469,184.625,-231.40625,40.21875
368,368,1729186768380,-0.12890625,0.203125,0.009765625,151.34375,-149.75,53.5
369,369,1729186768420,0.036132812,0.34570312,0.234375,68.15625,-47.1875,13.21875
370,370,1729186768460,0.0625,0.5136719,0.3515625,-13.25,25.75,-39.75
371,371,1729186768500,-0.0703125,0.61035156,1.3388672,-22.65625,39.53125,-76.25
372,372,1729186768540,-1.5810547,0.43066406,1.3076172,38.0625,23.59375,-55.6875
373,373,1729186768580,-0.18457031,0.6044922,0.19238281,-28.46875,139.28125,-50.1875
374,374,1729186768620,-0.8935547,0.6582031,0.21484375,-171.03125,204.03125,-74.1875
375,375,1729186768660,-1.1904297,0.33789062,-0.08105469,-273.625,240.875,-25.28125
376,376,1729186768700,-1.2587891,-0.1484375,-0.06347656,-175.90625,200.71875,-5.21875
377,377,1729186768740,-0.98535156,-0.111328125,0.14746094,-111.59375,177.84375,0.96875
378,378,1729186768780,-1.0488281,0.026367188,0.119140625,-3.125,99.46875,28.25
379,379,1729186768820,-0.86816406,-0.083984375,0.0146484375,-89.125,90.6875,-9.78125
380,380,1729186768860,-0.6220703,0.18652344,0.4482422,-95.84375,126.15625,-39.875
381,381,1729186768900,-0.9658203,0.08691406,0.2783203,-114.09375,114.71875,-56.84375
382,382,1729186768940,-0.72753906,-0.09375,0.16992188,-55.0625,11.28125,-19.71875
383,383,1729186768980,-0.7480469,-0.39941406,-0.18945312,-30.15625,30.5,-4.65625
384,384,1729186769020,-0.99902344,0.18261719,0.16992188,13.96875,20.84375,21.28125
385,385,1729186769060,-1.2792969,0.2626953,-0.13183594,-69.21875,68.03125,17.1875
386,386,1729186769100,-1.7333984,0.078125,-0.12988281,-14.125,57.34375,10.1875
387,387,1729186769140,-1.7939453,0.033203125,0.2734375,7.6875,11.65625,18.40625
388,388,1729186769180,-1.3330078,0.08886719,0.16992188,-14.25,-33.28125,31.78125
389,389,1729186769220,-1.2509766,-0.19726562,0.3076172,51.25,-79.3125,35.03125
390,390,1729186769260,-1.1943359,0.22167969,0.34179688,85.6875,-107.375,24.46875
391,391,1729186769300,0.9628906,0.13183594,-2.0,67.90625,-235.71875,13.90625
392,392,1729186769340,-0.7714844,0.36132812,-0.38378906,21.03125,-182.21875,33.1875
393,393,1729186769380,-0.7080078,0.51953125,0.22167969,-10.4375,-111.90625,-6.78125
394,394,1729186769420,-0.5214844,0.3046875,-0.13574219,3.65625,-53.53125,4.6875
395,395,1729186769460,-0.37402344,0.2626953,-0.091796875,-50.5,-23.40625,0.90625
396,396,1729186769500,-0.49902344,0.095703125,-0.1484375,-41.09375,-22.125,16.09375
397,397,1729186769540,-0.30566406,0.119140625,-0.25,-28.03125,-8.5,7.96875
398,398,1729186769580,-0.6503906,0.15722656,0.020507812,-0.25,42.78125,-3.6875
399,399,1729186769620,-0.7167969,0.15722656,0.35351562,-23.4375,25.3125,-5.5625
400,400,1729186769660,-0.9707031,0.076171875,1.0361328,-22.71875,13.0,-24.0625
401,401,1729186769700,-1.109375,0.30859375,1.1425781,-116.15625,30.25,-46.21875
402,402,1729186769740,-1.0341797,0.6142578,0.52734375,-58.71875,35.875,-5.4375
403,403,1729186769780,-1.0097656,0.45410156,0.21484375,1.5,13.15625,9.5
404,404,1729186769820,-1.0107422,0.73339844,-0.5683594,-147.84375,40.34375,13.65625
405,405,1729186769860,-0.85058594,0.025390625,-0.24316406,-47.125,99.84375,4.1875
406,406,1729186769900,-1.2851562,-0.001953125,-0.6269531,-150.28125,102.28125,34.59375
407,407,1729186769940,-1.1835938,-0.2783203,-0.024414062,1.9375,85.3125,-67.03125
408,408,1729186769980,-0.98828125,0.18457031,-0.18359375,-128.75,109.3125,-80.65625
409,409,1729186770020,-0.8808594,0.25683594,-0.045898438,-93.46875,85.96875,-54.75
410,410,1729186770060,-0.9199219,0.016601562,-0.25195312,-165.25,55.15625,-12.78125
411,411,1729186770100,-1.0078125,-0.39257812,-0.19042969,-103.28125,38.1875,-11.125
412,412,1729186770140,-0.890625,-0.091796875,-0.07421875,-129.96875,52.96875,-35.65625
413,413,1729186770180,-0.8027344,-0.07714844,-0.060546875,-93.40625,46.6875,-13.375
414,414,1729186770220,-0.89746094,-0.045898438,-0.16992188,-64.09375,51.875,10.90625
415,415,1729186770260,-0.96191406,0.10839844,0.09765625,7.25,64.6875,20.6875
416,416,1729186770300,-1.2949219,-0.1328125,0.24316406,-61.125,28.90625,14.5
417,417,1729186770340,-1.3388672,0.0390625,0.15722656,-102.6875,7.6875,-11.3125
418,418,1729186770380,-1.4736328,-0.21679688,0.18554688,-40.1875,-65.125,2.25
419,419,1729186770420,-1.5,0.0234375,0.05859375,13.59375,-153.59375,16.71875
420,420,1729186770460,-1.2900391,0.23730469,-0.23730469,-1.84375,-193.3125,34.65625
421,421,1729186770500,-1.6103516,0.375,-0.099609375,-48.96875,-139.59375,14.625
422,422,1729186770540,-1.0654297,0.17675781,-0.013671875,-147.78125,-88.15625,-19.5
423,423,1729186770580,-1.1435547,-0.18164062,-0.5371094,131.8125,-64.78125,-22.40625
424,424,1729186770620,-0.67871094,-0.02734375,-0.25097656,65.53125,-115.5625,-14.65625
425,425,1729186770660,-0.39746094,0.08691406,-0.2529297,97.15625,-96.28125,2.25
426,426,1729186770700,-0.4423828,0.18261719,-0.15332031,94.03125,-34.9375,-19.375
427,427,1729186770740,-0.3701172,0.28710938,-0.10546875,74.21875,3.40625,-28.15625
428,428,1729186770780,-0.46972656,-0.06542969,0.33007812,15.125,39.34375,-32.125
429,429,1729186770820,-1.6005859,0.35546875,1.8125,-84.0625,37.875,-67.28125
430,430,1729186770860,-1.0488281,0.23339844,1.28125,67.5,-76.25,-3.6875
431,431,1729186770900,-0.88183594,0.2607422,0.25,135.40625,-27.53125,16.15625
432,432,1729186770940,-1.3652344,0.48535156,0.032226562,-57.875,18.78125,31.0
433,433,1729186770980,-0.087890625,0.9345703,-0.75390625,-54.15625,39.0,26.21875
434,434,1729186771020,-1.0595703,-0.20117188,-0.5410156,-223.71875,163.8125,-17.46875
435,435,1729186771060,-1.6660156,-0.2890625,-0.6640625,-248.5625,211.78125,9.09375
436,436,1729186771100,-1.1064453,-0.41992188,-0.12207031,-26.375,101.1875,-5.03125
437,437,1729186771140,-0.77246094,0.4609375,0.06933594,126.375,37.46875,-23.5625
438,438,1729186771180,-0.9404297,0.10449219,-0.14550781,-28.15625,87.03125,-21.375
439,439,1729186771220,-1.0058594,0.109375,-0.060546875,-115.25,50.40625,-24.625
440,440,1729186771260,-0.84472656,-0.095703125,0.17480469,-140.15625,45.03125,-31.75
441,441,1729186771300,-0.89746094,0.021484375,-0.4423828,-121.59375,65.78125,-7.78125
442,442,1729186771340,-0.9326172,-0.1484375,0.05078125,15.375,91.46875,24.34375
443,443,1729186771380,-1.1816406,0.047851562,0.21972656,-53.84375,50.40625,16.90625
444,444,1729186771420,-1.3564453,-0.061523438,0.043945312,-38.59375,26.21875,7.0
445,445,1729186771460,-1.3505859,0.09277344,0.4794922,-14.0625,-18.625,18.1875
446,446,1729186771500,-1.3730469,0.0146484375,0.31347656,0.03125,-102.375,31.96875
447,447,1729186771540,-1.4199219,-0.21972656,0.1640625,38.1875,-192.53125,37.8125
448,448,1729186771580,-1.3759766,0.022460938,-0.87109375,-18.9375,-193.75,6.28125
449,449,1729186771620,-1.5234375,0.4033203,0.2841797,-45.90625,-115.0625,3.84375
450,450,1729186771660,-1.1992188,0.20898438,-0.10253906,-110.625,-127.34375,-26.0625
451,451,1729186771700,-0.9921875,-0.23828125,-0.23046875,182.78125,-63.75,-62.46875
452,452,1729186771740,-0.5957031,-0.01171875,-0.27929688,95.5625,-123.6875,-29.125
453,453,1729186771780,-0.46972656,0.055664062,-0.2783203,154.53125,-87.59375,-30.34375
454,454,1729186771820,-0.2548828,0.35546875,-0.13183594,112.21875,-10.15625,-34.5
455,455,1729186771860,-0.15917969,0.33398438,-0.09667969,50.46875,39.59375,-37.0625
456,456,1729186771900,-0.765625,-0.11328125,0.40429688,13.28125,57.0,-38.40625
457,457,1729186771940,-1.9726562,0.75683594,1.7236328,-72.34375,25.375,-64.84375
458,458,1729186771980,-1.0029297,0.21972656,0.9355469,2.1875,-24.1875,0.65625
459,459,1729186772020,-0.4013672,-0.2998047,0.5263672,52.84375,-32.5625,8.78125
460,460,1729186772060,-0.93847656,0.28320312,-1.0332031,-149.5625,98.1875,33.6875
461,461,1729186772100,-1.4296875,0.8886719,0.43945312,213.90625,-73.625,78.78125
462,462,1729186772140,-0.40820312,-0.27246094,-0.6748047,-273.09375,73.03125,48.03125
463,463,1729186772180,-1.8417969,-0.03515625,-0.8222656,-196.71875,231.25,8.90625
464,464,1729186772220,-1.2128906,-0.43945312,-0.5595703,90.4375,115.84375,-23.625
465,465,1729186772260,-0.54785156,0.5078125,-0.21582031,-51.96875,48.25,-33.84375
466,466,1729186772300,-0.7675781,0.0126953125,-0.09667969,-143.6875,82.1875,-25.84375
467,467,1729186772340,-1.1806641,-0.31445312,-0.36132812,-118.5,53.28125,-25.40625
468,468,1729186772380,-1.0800781,-0.3076172,0.36035156,-57.375,46.6875,-11.1875
469,469,1729186772420,-1.0996094,-0.21582031,0.01953125,-66.25,26.40625,-12.78125
470,470,1729186772460,-0.9003906,-0.0703125,-0.16894531,-89.84375,29.40625,-9.28125
471,471,1729186772500,-0.87402344,0.31054688,-0.025390625,-27.90625,46.375,7.5
472,472,1729186772540,-0.97265625,0.2705078,0.10253906,-99.125,50.09375,15.1875
473,473,1729186772580,-1.2822266,-0.21777344,0.123046875,-110.4375,25.0,9.6875
474,474,1729186772620,-1.3251953,-0.03515625,0.24804688,-138.1875,-10.21875,-12.59375
475,475,1729186772660,-1.5185547,-0.23925781,0.36328125,-32.0625,-81.8125,21.28125
476,476,1729186772700,-1.5332031,-0.091796875,-0.013671875,-6.125,-200.28125,33.96875
477,477,1729186772740,-1.5185547,0.6591797,-0.20214844,1.03125,-204.375,54.125
478,478,1729186772780,-1.6591797,0.3642578,-0.0859375,-145.59375,-162.90625,29.46875
479,479,1729186772820,-1.7744141,0.2265625,-0.06933594,-142.96875,-171.65625,-16.875
480,480,1729186772860,-0.8066406,0.36132812,0.03125,68.09375,-244.8125,0.0
481,481,1729186772900,-0.9501953,-0.21289062,0.15234375,166.3125,-213.21875,14.5
482,482,1729186772940,-0.4169922,0.26171875,-0.06640625,206.28125,-181.71875,24.34375
483,483,1729186772980,-0.40625,0.36621094,0.140625,135.53125,-125.125,55.28125
484,484,1729186773020,-0.40234375,0.18066406,0.24023438,84.875,-82.34375,27.625
485,485,1729186773060,-0.25097656,0.36621094,0.58691406,46.90625,-34.0625,-11.625
486,486,1729186773100,-0.29101562,0.25976562,0.49023438,29.84375,-8.375,-25.28125
487,487,1729186773140,-0.17285156,0.31445312,0.39746094,24.71875,10.375,-32.71875
488,488,1729186773180,-0.4716797,0.8876953,0.7626953,-6.3125,45.09375,-23.8125
489,489,1729186773220,-1.2314453,0.9033203,0.9580078,51.875,-26.1875,42.28125
490,490,1729186773260,-0.16308594,1.0722656,0.43652344,-18.09375,41.25,7.4375
491,491,1729186773300,-0.7216797,1.1064453,0.3876953,-129.21875,81.59375,-5.375
492,492,1729186773340,-0.8964844,0.37109375,0.4189453,-140.53125,114.5625,14.09375
493,493,1729186773380,-0.8564453,0.18554688,0.46875,-142.40625,137.4375,24.46875
494,494,1729186773420,-0.9082031,0.15820312,0.4267578,-156.3125,150.4375,21.46875
495,495,1729186773460,-1.0878906,-0.0078125,0.18847656,-164.25,146.59375,15.0
496,496,1729186773500,-0.9902344,0.20605469,0.15625,-163.09375,145.625,-0.1875
497,497,1729186773540,-1.2177734,-0.056640625,0.13085938,-108.53125,118.28125,22.6875
498,498,1729186773580,-0.9199219,0.01953125,0.17480469,-16.8125,94.65625,-4.78125
499,499,1729186773620,-0.9785156,-0.029296875,0.15039062,16.40625,68.21875,3.9375
500,500,1729186773660,-0.8720703,0.34960938,0.38183594,-131.0,135.59375,-72.28125
501,501,1729186773700,-0.92089844,0.11816406,0.06347656,-141.625,92.5625,-26.375
502,502,1729186773740,-0.9785156,-0.06347656,0.23242188,-100.96875,63.9375,-14.0
503,503,1729186773780,-0.79296875,-0.038085938,0.08691406,-83.5,54.3125,-19.96875
504,504,1729186773820,-1.0078125,-0.0859375,0.18066406,-47.3125,24.03125,8.46875
505,505,1729186773860,-0.80859375,-0.018554688,0.10058594,-41.59375,29.15625,13.09375
506,506,1729186773900,-1.09375,0.026367188,0.45898438,-10.21875,29.28125,12.5625
507,507,1729186773940,-1.1699219,-0.01171875,-0.29003906,-92.78125,57.53125,24.40625
508,508,1729186773980,-1.4892578,-0.020507812,-0.055664062,22.09375,55.65625,9.3125
509,509,1729186774020,-1.7539062,0.16210938,0.17089844,-16.625,61.25,18.34375
510,510,1729186774060,-1.4755859,0.049804688,0.14257812,-24.5625,2.65625,28.78125
511,511,1729186774100,-1.265625,0.0029296875,0.39257812,29.28125,-71.65625,28.3125
512,512,1729186774140,-1.3144531,0.34960938,0.6816406,151.46875,-140.625,61.625
513,513,1729186774180,-0.83496094,0.50097656,-0.07324219,-155.90625,-144.0,54.625
514,514,1729186774220,-1.0839844,0.31445312,-0.1484375,-101.53125,-113.25,20.125
515,515,1729186774260,-1.1337891,-0.32910156,-0.2607422,-43.21875,-172.125,11.65625
516,516,1729186774300,-0.7294922,0.057617188,0.2841797,28.78125,-167.1875,-20.28125
517,517,1729186774340,-0.6142578,0.1171875,0.14160156,82.5,-165.96875,1.15625
518,518,1729186774380,-0.7109375,0.05078125,0.19726562,152.4375,-203.1875,9.9375
519,519,1729186774420,-0.5732422,0.29589844,0.33203125,117.0625,-169.5625,21.65625
520,520,1729186774460,-0.43359375,0.33984375,0.21972656,119.3125,-124.09375,14.5
521,521,1729186774500,-0.30566406,0.4716797,0.4111328,48.6875,-57.09375,-14.53125
522,522,1729186774540,-0.234375,0.34472656,0.41992188,-9.46875,6.8125,-38.15625
523,523,1729186774580,-0.08105469,0.26660156,0.515625,-34.3125,42.15625,-56.46875
524,524,1729186774620,-0.5517578,0.5888672,1.3974609,-56.59375,50.15625,-47.4375
525,525,1729186774660,-1.4443359,0.33984375,1.3554688,38.25,13.59375,-62.40625
526,526,1729186774700,-0.359375,0.5810547,0.22949219,-14.84375,127.25,-13.6875
527,527,1729186774740,-1.1210938,0.4716797,0.37402344,-55.875,137.1875,-23.09375
528,528,1729186774780,-0.95703125,0.36328125,0.2109375,-132.78125,166.5625,-5.5
529,529,1729186774820,-1.1201172,0.1171875,0.14355469,-180.875,182.125,-25.78125
530,530,1729186774860,-1.1494141,-0.0107421875,-0.018554688,-156.3125,161.59375,-8.875
531,531,1729186774900,-0.9902344,0.0126953125,0.0048828125,-25.28125,95.4375,13.34375
532,532,1729186774940,-1.0712891,0.076171875,0.19335938,26.65625,86.21875,-2.6875
533,533,1729186774980,-0.9511719,-0.22167969,-0.057617188,5.0,59.8125,-0.625
534,534,1729186775020,-0.7529297,0.3720703,0.33203125,-163.71875,89.21875,-47.25
535,535,1729186775060,-1.2207031,-0.11035156,-0.0087890625,-75.21875,84.75,-36.40625
536,536,1729186775100,-0.9296875,-0.040039062,0.30273438,-109.4375,50.09375,-31.03125
537,537,1729186775140,-0.8642578,-0.13183594,0.140625,-21.5,33.5,-1.0625
538,538,1729186775180,-0.9042969,-0.055664062,-0.001953125,-16.875,25.875,16.46875
539,539,1729186775220,-1.0712891,0.043945312,0.17382812,-3.0,41.90625,15.625
540,540,1729186775260,-1.3613281,0.17773438,-0.18164062,-56.78125,78.46875,26.71875
541,541,1729186775300,-1.8691406,0.09082031,-0.018554688,-3.5,51.1875,16.59375
542,542,1729186775340,-1.4414062,0.22460938,0.33984375,22.5625,-13.75,27.15625
543,543,1729186775380,-1.3574219,0.0146484375,0.359375,11.40625,-73.25,46.0
544,544,1729186775420,-1.3603516,0.19824219,0.6503906,102.9375,-171.9375,54.0625
545,545,1729186775460,-1.0283203,0.4970703,-0.25,-235.6875,-150.15625,13.90625
546,546,1729186775500,-1.1210938,0.6464844,-0.20605469,-36.6875,-119.78125,18.0625
547,547,1729186775540,-1.2353516,-0.032226562,-0.3232422,-26.375,-178.40625,16.84375
548,548,1729186775580,-0.73046875,0.0068359375,0.20214844,12.625,-221.75,32.625
549,549,1729186775620,-0.78222656,-0.30078125,-0.21679688,95.5625,-190.625,17.9375
550,550,1729186775660,-0.5253906,0.18066406,0.17675781,159.53125,-201.90625,35.5625
551,551,1729186775700,-0.24023438,0.36914062,0.13574219,144.53125,-150.03125,61.3125
552,552,1729186775740,-0.21875,0.33398438,0.2548828,74.5,-70.03125,31.90625
553,553,1729186775780,-0.21582031,0.33203125,0.43359375,18.28125,-8.4375,-15.53125
554,554,1729186775820,-0.09277344,0.2626953,0.56933594,-4.03125,23.53125,-40.84375
555,555,1729186775860,-0.82421875,0.8154297,1.1855469,-52.3125,32.625,-22.46875
556,556,1729186775900,-0.78125,1.0917969,0.6669922,29.53125,35.4375,-46.03125
557,557,1729186775940,-0.21777344,1.0068359,0.10546875,-65.4375,128.59375,-1.0
558,558,1729186775980,-1.1542969,0.54785156,0.39941406,-158.71875,174.0625,-27.90625
559,559,1729186776020,-0.9121094,0.31152344,0.14648438,-223.96875,191.40625,-11.0625
560,560,1729186776060,-1.2597656,-0.09375,-0.052734375,-233.90625,220.125,-16.125
561,561,1729186776100,-1.1748047,-0.3203125,0.10449219,-140.625,170.6875,-8.875
562,562,1729186776140,-1.1435547,-0.038085938,0.1953125,-58.71875,121.125,-7.875
563,563,1729186776180,-1.0234375,-0.06738281,0.10253906,63.09375,51.9375,7.0
564,564,1729186776220,-0.6845703,0.1875,0.34277344,-25.65625,94.40625,-20.71875
565,565,1729186776260,-0.71875,0.19921875,0.068359375,-160.15625,103.125,-61.59375
566,566,1729186776300,-1.1630859,-0.16894531,0.44921875,-66.46875,78.0,-29.0625
567,567,1729186776340,-0.8417969,0.09277344,0.12109375,-45.375,48.4375,-22.34375
568,568,1729186776380,-0.8261719,-0.03125,0.044921875,-11.90625,11.875,9.75
569,569,1729186776420,-0.9638672,0.0146484375,0.08105469,8.46875,25.5,17.8125
570,570,1729186776460,-1.1914062,-0.009765625,0.025390625,-2.46875,59.3125,22.875
571,571,1729186776500,-1.7753906,0.11230469,-0.5048828,-69.34375,63.78125,30.6875
572,572,1729186776540,-1.8671875,0.45117188,0.20703125,-14.65625,7.84375,31.25
573,573,1729186776580,-1.4130859,0.1484375,0.57714844,15.0625,-64.84375,56.5625
574,574,1729186776620,-1.3408203,-0.109375,0.5126953,-3.75,-119.40625,47.34375
575,575,1729186776660,-1.3037109,0.3046875,0.24511719,-46.21875,-155.78125,29.40625
576,576,1729186776700,-0.9511719,0.46777344,-0.6972656,-117.5625,-150.96875,15.0625
577,577,1729186776740,-1.2236328,0.2919922,0.22949219,11.40625,-165.78125,17.375
578,578,1729186776780,-0.91503906,0.24609375,0.119140625,47.78125,-210.40625,9.09375
579,579,1729186776820,-0.9082031,-0.06640625,-0.02734375,79.34375,-218.03125,16.84375
580,580,1729186776860,-0.42382812,0.18066406,0.052734375,169.78125,-226.9375,29.78125
581,581,1729186776900,-0.1484375,0.29785156,-0.013671875,128.34375,-176.65625,60.34375
582,582,1729186776940,0.017578125,0.35253906,0.2783203,65.90625,-85.59375,60.34375
583,583,1729186776980,-0.19433594,0.3701172,0.4501953,9.375,9.3125,3.84375
584,584,1729186777020,-0.076171875,0.25,0.50097656,-28.65625,58.6875,-46.9375
585,585,1729186777060,-0.3623047,0.6767578,1.1162109,-72.40625,97.6875,-57.15625
586,586,1729186777100,-1.9052734,0.31835938,1.3154297,27.5625,-30.53125,-51.71875
587,587,1729186777140,-0.095703125,0.8125,-0.2998047,1.5,155.3125,-33.78125
588,588,1729186777180,-0.77441406,0.5341797,0.22070312,-124.28125,193.59375,-59.65625
589,589,1729186777220,-1.3701172,0.4111328,0.10839844,-252.9375,212.625,-4.96875
590,590,1729186777260,-1.0771484,0.020507812,-0.024414062,-152.25,170.625,-1.59375
591,591,1729186777300,-0.8251953,0.18554688,0.13867188,-102.4375,165.4375,9.6875
592,592,1729186777340,-1.0546875,-0.0390625,0.06347656,-61.0625,118.21875,14.6875
593,593,1729186777380,-1.0390625,-0.21679688,0.19824219,46.375,65.40625,1.375
594,594,1729186777420,-0.11328125,0.056640625,0.40234375,-88.28125,84.03125,-59.59375
595,595,1729186777460,-0.84375,0.10449219,0.08886719,-126.78125,101.375,-41.21875
596,596,1729186777500,-1.3291016,0.02734375,0.5019531,-79.25,66.5,-21.1875
597,597,1729186777540,-0.86035156,-0.025390625,0.0078125,-47.5625,35.03125,-11.4375
598,598,1729186777580,-0.9863281,-0.015625,0.0546875,2.3125,32.46875,17.8125
599,599,1729186777620,-1.1611328,-0.01171875,-0.061523438,3.15625,59.90625,19.40625
600,600,1729186777660,-1.765625,0.23144531,-0.16894531,-31.03125,54.96875,38.125
601,601,1729186777700,-1.7675781,0.265625,0.2529297,-8.25,0.53125,31.90625
602,602,1729186777740,-1.3525391,0.28125,0.4375,20.125,-81.875,36.125
603,603,1729186777780,-1.4736328,0.19921875,0.45410156,86.46875,-178.53125,66.40625
604,604,1729186777820,-1.140625,0.265625,-0.115234375,-132.65625,-161.8125,57.28125
605,605,1729186777860,-1.0517578,0.625,-0.04296875,-44.75,-107.9375,15.1875
606,606,1729186777900,-1.1308594,0.15234375,-0.016601562,1.75,-196.96875,25.6875
607,607,1729186777940,-0.9560547,-0.018554688,0.22460938,39.15625,-175.375,-3.8125
608,608,1729186777980,-0.5625,-0.26660156,-0.17089844,176.1875,-224.4375,2.375
609,609,1729186778020,-0.29785156,0.26464844,0.11621094,157.75,-213.15625,45.625
610,610,1729186778060,-0.19042969,0.3486328,0.1484375,109.59375,-143.75,56.5625
611,611,1729186778100,-0.2783203,0.41601562,0.2763672,50.71875,-70.8125,8.03125
612,612,1729186778140,-0.21875,0.25097656,0.4814453,21.78125,-22.96875,-35.0625
613,613,1729186778180,-0.056640625,0.33203125,0.44726562,-7.53125,17.6875,-61.0625
614,614,1729186778220,-0.14257812,0.5371094,0.8300781,-32.5625,54.90625,-87.0625
615,615,1729186778260,-1.5009766,0.9394531,1.1787109,-19.59375,18.40625,-75.09375
616,616,1729186778300,-0.3623047,0.41796875,-0.115234375,6.625,172.15625,-30.84375
617,617,1729186778340,-0.7919922,0.59277344,0.37109375,-107.3125,174.0,-59.9375
618,618,1729186778380,-1.4033203,0.20898438,0.072265625,-278.9375,237.40625,-47.25
619,619,1729186778420,-1.1855469,0.083984375,-0.021484375,-140.53125,195.125,-11.78125
620,620,1729186778460,-1.0175781,0.080078125,0.15527344,-69.03125,148.78125,1.9375
621,621,1729186778500,-0.8847656,-0.21777344,0.0703125,-34.9375,124.3125,4.4375
622,622,1729186778540,-0.66796875,-0.11425781,0.20800781,19.40625,91.0,-2.40625
623,623,1729186778580,-0.8330078,0.47753906,0.2919922,-165.375,103.6875,-85.9375
624,624,1729186778620,-0.97265625,0.13183594,0.24609375,-36.875,84.6875,-23.5
625,625,1729186778660,-0.8876953,-0.359375,0.30078125,-16.6875,44.25,-8.4375
626,626,1729186778700,-0.8701172,-0.14257812,0.028320312,12.25,30.8125,5.78125
627,627,1729186778740,-1.0927734,-0.0126953125,0.18261719,25.4375,41.125,23.46875
628,628,1729186778780,-1.2666016,0.13769531,-0.24121094,-38.21875,46.5,31.1875
629,629,1729186778820,-1.7167969,0.29589844,0.0546875,-1.0,22.875,18.53125
630,630,1729186778860,-1.9707031,0.39453125,0.17285156,-37.78125,-26.5,27.9375
631,631,1729186778900,-1.5703125,-0.06542969,0.5996094,-39.1875,-111.71875,42.65625
632,632,1729186778940,-1.53125,0.15625,0.68066406,-27.0625,-168.46875,8.96875
633,633,1729186778980,-0.8066406,0.27929688,-0.24023438,-168.90625,-194.46875,25.3125
634,634,1729186779020,-1.3837891,-0.36132812,0.017578125,44.90625,-180.75,8.09375
635,635,1729186779060,-1.0869141,0.5214844,0.12109375,46.125,-227.125,-39.75
636,636,1729186779100,-0.88378906,-0.040039062,-0.31347656,89.15625,-207.78125,-7.875
637,637,1729186779140,-0.21777344,0.23925781,-0.009765625,184.75,-254.96875,32.34375
638,638,1729186779180,-0.11035156,0.18066406,-0.16308594,172.09375,-176.15625,56.5
639,639,1729186779220,-0.08496094,0.21777344,0.0859375,138.96875,-96.34375,51.625
640,640,1729186779260,-0.125,0.33789062,0.359375,54.6875,-7.09375,-11.78125
641,641,1729186779300,0.125,0.41015625,0.45410156,17.375,47.84375,-78.75
642,642,1729186779340,-1.0292969,1.1279297,1.5957031,-60.4375,66.15625,-55.25
643,643,1729186779380,-1.3173828,0.37597656,0.6123047,24.46875,128.59375,-103.90625
644,644,1729186779420,0.14648438,1.0673828,0.3125,-82.28125,152.21875,-61.125
645,645,1729186779460,-1.1347656,0.2763672,-0.16601562,-266.75,228.75,-24.125
646,646,1729186779500,-1.5585938,0.0068359375,0.0107421875,-193.25,216.71875,-8.125
647,647,1729186779540,-1.0605469,-0.14453125,0.037109375,-85.90625,151.71875,-15.34375
648,648,1729186779580,-1.0019531,-0.13867188,-0.17089844,-49.5625,143.1875,-21.3125
649,649,1729186779620,-0.9277344,0.14355469,-0.05859375,62.0,81.84375,-9.71875
650,650,1729186779660,-0.5996094,0.7451172,0.4423828,-151.6875,111.0,-52.1875
651,651,1729186779700,-1.1542969,0.059570312,0.44628906,2.65625,102.71875,-7.34375
652,652,1729186779740,-0.76953125,-0.32910156,0.203125,-42.3125,79.09375,-8.875
653,653,1729186779780,-0.9736328,0.038085938,0.26757812,16.40625,33.3125,21.59375
654,654,1729186779820,-0.91308594,0.0078125,-0.021484375,-53.46875,17.0625,41.25
655,655,1729186779860,-1.2597656,-0.041992188,-0.24316406,-25.21875,57.25,44.71875
656,656,1729186779900,-2.0,0.4580078,0.12890625,-16.0625,22.8125,27.28125
657,657,1729186779940,-1.6445312,0.55078125,0.3095703,14.5625,-91.625,31.125
658,658,1729186779980,-1.5263672,0.3544922,1.5146484,54.78125,-188.3125,58.59375
659,659,1729186780020,-1.1699219,0.036132812,-0.83984375,-307.75,-175.4375,34.96875
660,660,1729186780060,-1.2714844,-0.0234375,0.045898438,50.8125,-119.65625,-25.46875
661,661,1729186780100,-1.0585938,0.3798828,0.13183594,-3.5625,-201.125,-38.53125
662,662,1729186780140,-0.74902344,0.028320312,0.2763672,151.90625,-225.65625,-31.5625
663,663,1729186780180,-0.54296875,-0.051757812,-0.0029296875,182.53125,-221.375,-19.53125
664,664,1729186780220,-0.26953125,0.55078125,0.03515625,165.09375,-191.71875,-1.65625
665,665,1729186780260,-0.17480469,0.1875,-0.095703125,151.46875,-136.96875,9.03125
666,666,1729186780300,-0.24707031,0.3095703,0.28320312,89.40625,-88.46875,-8.625
667,667,1729186780340,-0.18945312,0.18652344,0.39453125,36.4375,-23.875,-62.625
668,668,1729186780380,-0.22265625,0.13574219,0.6611328,28.4375,27.03125,-87.25
669,669,1729186780420,-1.2929688,1.3369141,1.5820312,-56.59375,44.71875,-70.28125
670,670,1729186780460,-1.1748047,0.4013672,0.9453125,51.3125,79.28125,-79.71875
671,671,1729186780500,-0.05859375,0.98339844,0.21875,-64.21875,141.65625,-53.1875
672,672,1729186780540,-1.2353516,0.39160156,0.0546875,-230.375,190.21875,-38.96875
673,673,1729186780580,-1.3027344,0.40625,0.10253906,-151.9375,170.40625,6.03125
674,674,1729186780620,-0.9638672,-0.024414062,-0.043945312,-77.59375,142.1875,13.03125
675,675,1729186780660,-0.73828125,-0.13671875,0.4375,-44.875,125.84375,31.53125
676,676,1729186780700,-1.0419922,0.091796875,0.2607422,15.1875,83.78125,7.5
677,677,1729186780740,-0.7373047,-0.37890625,-0.0107421875,-57.3125,93.5,-39.875
678,678,1729186780780,-0.8046875,0.18457031,0.15917969,-101.15625,91.15625,-53.25
679,679,1729186780820,-1.0576172,0.31835938,0.2685547,-53.125,84.9375,-31.6875
680,680,1729186780860,-0.8828125,-0.19042969,0.08496094,-54.46875,44.0625,-10.28125
681,681,1729186780900,-0.8925781,-0.09472656,0.05859375,-17.34375,37.46875,0.96875
682,682,1729186780940,-1.0410156,0.020507812,0.30371094,0.0,41.96875,9.875
683,683,1729186780980,-1.2626953,-0.06640625,0.15527344,-0.625,57.1875,21.65625
684,684,1729186781020,-1.953125,-0.068359375,-0.64941406,-75.09375,40.875,23.3125
685,685,1729186781060,-1.7509766,0.5908203,0.6064453,39.84375,-26.03125,21.46875
686,686,1729186781100,-1.4042969,0.20605469,0.7236328,28.5,-123.6875,51.25
687,687,1729186781140,-1.4785156,0.2861328,0.62890625,-39.8125,-184.34375,33.8125
688,688,1729186781180,-1.1738281,0.44628906,-0.9003906,-105.125,-155.84375,32.625
689,689,1729186781220,-1.46875,0.27734375,0.20019531,-13.9375,-105.78125,-41.53125
690,690,1729186781260,-1.2460938,0.39257812,-0.5292969,50.9375,-199.40625,-36.5
691,691,1729186781300,-0.49609375,0.125,0.15136719,58.875,-214.4375,-17.78125
692,692,1729186781340,-0.5185547,-0.27539062,-0.028320312,215.6875,-249.65625,9.25
693,693,1729186781380,-0.1328125,0.3935547,-0.13085938,182.84375,-194.34375,41.96875
694,694,1729186781420,-0.016601562,0.5341797,0.055664062,140.0625,-109.6875,52.78125
695,695,1729186781460,-0.15527344,0.390625,0.26171875,27.375,-16.8125,-3.3125
696,696,1729186781500,0.00390625,0.3486328,0.5029297,-22.0625,39.46875,-42.3125
697,697,1729186781540,-0.81933594,0.81640625,1.5947266,-80.75,71.03125,-35.78125
698,698,1729186781580,-1.2324219,0.3984375,1.0585938,11.59375,71.46875,-63.90625
699,699,1729186781620,-0.29101562,0.6894531,0.51171875,-16.25,114.59375,-53.125
700,700,1729186781660,-0.8515625,0.64941406,0.140625,-190.3125,175.875,-37.5
701,701,1729186781700,-1.3095703,0.390625,0.06347656,-175.5625,207.8125,-8.875
702,702,1729186781740,-1.1318359,-0.083984375,0.015625,-72.84375,145.96875,8.03125
703,703,1729186781780,-1.1025391,-0.111328125,0.15527344,-83.09375,139.625,-0.5625
704,704,1729186781820,-1.0351562,-0.08886719,0.0029296875,-33.71875,90.875,-2.21875
705,705,1729186781860,-0.8261719,-0.19335938,0.025390625,-18.625,66.6875,-13.3125
706,706,1729186781900,-1.0390625,0.5019531,0.059570312,-101.34375,119.3125,-36.875
707,707,1729186781940,-1.0224609,0.068359375,0.2607422,-61.28125,87.03125,-25.46875
708,708,1729186781980,-0.8095703,-0.044921875,0.30859375,-30.84375,50.53125,-6.78125
709,709,1729186782020,-0.9550781,-0.115234375,0.001953125,-17.46875,36.0,12.9375
710,710,1729186782060,-1.0742188,0.038085938,0.24414062,-4.34375,34.03125,26.15625
711,711,1729186782100,-1.2216797,0.09472656,-0.29785156,-41.8125,67.5625,21.71875
712,712,1729186782140,-1.7119141,0.16210938,-0.10449219,0.65625,35.625,14.3125
713,713,1729186782180,-1.6757812,0.19140625,0.4814453,28.90625,-22.53125,28.375
714,714,1729186782220,-1.5195312,0.03515625,0.72558594,8.59375,-104.5,51.25
715,715,1729186782260,-1.4423828,0.4560547,0.7705078,-3.96875,-163.03125,37.65625
716,716,1729186782300,-0.86328125,0.85058594,-0.63378906,-261.4375,-148.15625,18.78125
717,717,1729186782340,-1.4521484,0.05859375,0.14355469,42.53125,-136.96875,32.5625
718,718,1729186782380,-1.2050781,0.14746094,-0.53515625,-85.28125,-176.34375,-23.15625
719,719,1729186782420,-0.8330078,-0.03515625,0.21972656,105.9375,-207.28125,-14.0
720,720,1729186782460,-0.61328125,-0.047851562,-0.0087890625,203.40625,-266.9375,35.8125
721,721,1729186782500,-0.23828125,0.2861328,-0.12011719,158.0,-188.625,46.1875
722,722,1729186782540,-0.02734375,0.24609375,0.0009765625,127.90625,-114.6875,42.84375
723,723,1729186782580,0.095703125,0.33398438,0.12890625,39.09375,-23.40625,0.71875
724,724,1729186782620,0.1015625,0.32226562,0.52734375,-41.59375,34.09375,-42.75
725,725,1729186782660,-0.8544922,1.0068359,1.5087891,-85.9375,74.625,-21.1875
726,726,1729186782700,-1.4775391,0.57910156,0.87890625,-51.28125,123.6875,-73.625
727,727,1729186782740,-0.0068359375,0.765625,0.42089844,-99.375,158.0625,-50.25
728,728,1729186782780,-0.91308594,0.3642578,0.14648438,-210.34375,197.8125,-25.65625
729,729,1729186782820,-1.6044922,0.23632812,0.07714844,-217.78125,204.15625,0.09375
730,730,1729186782860,-1.0771484,-0.033203125,0.12109375,-102.75,158.84375,1.28125
731,731,1729186782900,-0.8876953,-0.022460938,0.12109375,-66.40625,134.1875,11.65625
732,732,1729186782940,-0.96875,-0.07910156,0.12695312,82.6875,45.875,34.84375
733,733,1729186782980,-0.99121094,-0.3203125,0.0126953125,-31.75,88.5,-17.03125
734,734,1729186783020,-0.50390625,0.59375,0.3486328,-100.46875,106.96875,-64.53125
735,735,1729186783060,-1.2246094,0.11816406,0.4482422,-74.34375,76.09375,-23.5625
736,736,1729186783100,-0.88671875,-0.0546875,0.36523438,-19.90625,39.84375,-10.9375
737,737,1729186783140,-0.89941406,-0.18457031,-0.11035156,-19.0,29.21875,7.90625
738,738,1729186783180,-1.1132812,-0.06542969,0.03515625,0.84375,62.375,12.0
739,739,1729186783220,-1.6542969,0.28320312,-0.22460938,-36.6875,82.9375,26.84375
740,740,1729186783260,-1.9570312,0.28320312,0.0703125,-7.53125,43.0,34.71875
741,741,1729186783300,-1.6025391,0.13476562,0.4892578,21.28125,-19.3125,37.34375
742,742,1729186783340,-1.4853516,0.07421875,0.31835938,-8.75,-111.59375,22.09375
743,743,1729186783380,-1.3701172,0.54785156,0.421875,-15.9375,-205.03125,47.53125
744,744,1729186783420,-1.1152344,0.79589844,-0.2861328,-70.15625,-170.84375,48.375
745,745,1729186783460,-1.1689453,0.03125,-0.25097656,-60.125,-179.40625,25.0
746,746,1729186783500,-1.0068359,0.052734375,0.14355469,15.65625,-256.25,19.40625
747,747,1729186783540,-0.7441406,-0.12597656,-0.095703125,144.46875,-256.59375,13.78125
748,748,1729186783580,-0.1171875,0.46191406,-0.095703125,140.96875,-240.8125,72.4375
749,749,1729186783620,-0.19726562,0.3154297,0.0087890625,97.75,-152.40625,77.25
750,750,1729186783660,0.091796875,0.34375,0.21484375,17.3125,-42.5625,35.4375
751,751,1729186783700,-0.20410156,0.34179688,0.50390625,-4.28125,14.375,-16.96875
752,752,1729186783740,-0.057617188,-0.013671875,0.66796875,-6.3125,92.5625,-64.03125
753,753,1729186783780,-1.5488281,0.80078125,1.6933594,-91.5,84.03125,-69.15625
