,Unnamed: 0,timestamp,accel_x,accel_y,accel_z,gyro_x,gyro_y,gyro_z
0,0,1727462142868,-0.98828125,-0.16308594,0.05859375,-0.90625,-4.6875,-9.375
1,1,1727462142908,-0.95214844,-0.091796875,0.08496094,6.5625,-8.9375,-10.125
2,2,1727462142948,-0.9589844,-0.0859375,0.068359375,2.40625,-8.59375,-4.4375
3,3,1727462142988,-0.8330078,-0.05859375,0.046875,-12.125,-10.84375,-4.4375
4,4,1727462143028,-0.84277344,-0.11621094,0.037109375,-23.84375,4.59375,-1.15625
5,5,1727462143068,-1.0878906,-0.1640625,-0.06933594,-6.4375,21.3125,5.9375
6,6,1727462143108,-0.9453125,-0.022460938,-0.08691406,11.96875,15.71875,7.46875
7,7,1727462143148,-0.97753906,0.016601562,-0.022460938,-25.5,15.65625,9.65625
8,8,1727462143188,-1.0214844,-0.09277344,-0.13867188,-27.125,4.53125,13.4375
9,9,1727462143228,-1.0419922,-0.25,-0.20507812,-22.5625,9.0,9.71875
10,10,1727462143268,-1.0595703,-0.24316406,-0.17480469,-0.46875,8.3125,-2.71875
11,11,1727462143308,-1.0048828,-0.111328125,-0.11328125,1.375,-3.9375,2.09375
12,12,1727462143348,-1.0166016,-0.036132812,-0.21582031,-10.96875,1.25,6.0
13,13,1727462143388,-1.0205078,-0.06640625,-0.17285156,-21.59375,3.375,8.3125
14,14,1727462143428,-0.9941406,-0.13085938,-0.076171875,-30.0,4.46875,7.71875
15,15,1727462143468,-0.97265625,-0.12890625,-0.11425781,-28.40625,5.15625,9.09375
16,16,1727462143508,-1.0107422,-0.23632812,-0.13183594,-30.375,12.125,11.3125
17,17,1727462143548,-1.0068359,-0.21289062,-0.0546875,-24.5,13.4375,11.3125
18,18,1727462143588,-0.953125,-0.15820312,-0.095703125,-19.375,-3.6875,15.8125
19,19,1727462143628,-0.9082031,-0.07714844,-0.083984375,-3.65625,-5.03125,11.1875
20,20,1727462143668,-1.0605469,0.013671875,-0.09375,5.8125,3.3125,3.125
21,21,1727462143708,-0.9267578,-0.038085938,-0.125,4.59375,1.25,8.3125
22,22,1727462143748,-0.9394531,0.01171875,-0.07324219,9.78125,2.21875,6.53125
23,23,1727462143788,-1.0234375,0.046875,0.021484375,2.28125,1.6875,-0.0625
24,24,1727462143828,-1.0556641,-0.0048828125,-0.040039062,-10.65625,-3.875,3.125
25,25,1727462143868,-1.0742188,-0.0859375,-0.07421875,-9.0,0.09375,6.90625
26,26,1727462143908,-0.98828125,-0.018554688,-0.044921875,9.71875,-6.9375,3.75
27,27,1727462143948,-1.0351562,0.01171875,-0.015625,10.46875,-9.5625,-1.875
28,28,1727462143988,-0.99121094,-0.068359375,-0.01953125,3.0,-14.75,-7.75
29,29,1727462144028,-1.0048828,-0.015625,-0.032226562,12.15625,-17.1875,-8.03125
30,30,1727462144068,-0.9863281,-0.0009765625,-0.036132812,16.3125,-14.8125,-3.03125
31,31,1727462144108,-0.9951172,-0.032226562,-0.024414062,16.0,-9.375,-5.71875
32,32,1727462144148,-1.0332031,0.0029296875,-0.001953125,19.90625,-7.3125,-12.375
33,33,1727462144188,-1.0166016,-0.030273438,0.047851562,18.6875,-11.28125,-17.1875
34,34,1727462144228,-0.92089844,-0.040039062,0.0068359375,17.65625,-11.375,-22.5
35,35,1727462144268,-0.91796875,-0.041015625,-0.01171875,16.3125,-9.75,-22.375
36,36,1727462144308,-0.87597656,-0.049804688,-0.0146484375,26.875,-9.1875,-18.90625
37,37,1727462144348,-0.76660156,-0.03515625,-0.03515625,25.34375,-5.65625,-16.09375
38,38,1727462144388,-0.7158203,0.07128906,-0.034179688,6.6875,-1.8125,-5.90625
39,39,1727462144428,-1.2060547,-0.0107421875,-0.24121094,-11.34375,17.53125,3.84375
40,40,1727462144468,-1.1347656,-0.2890625,-0.07128906,1.96875,43.96875,1.53125
41,41,1727462144508,-0.9863281,-0.14746094,0.076171875,-10.125,0.5,-19.875
42,42,1727462144548,-1.0224609,-0.048828125,-0.13769531,5.75,-10.90625,6.3125
43,43,1727462144588,-1.1171875,-0.15136719,-0.2529297,9.25,2.96875,9.0
44,44,1727462144628,-0.9814453,-0.15722656,-0.18359375,-35.6875,10.03125,4.28125
45,45,1727462144668,-1.0195312,-0.19628906,-0.119140625,-18.59375,10.71875,14.125
46,46,1727462144708,-0.9560547,-0.18261719,-0.13769531,-9.5625,7.65625,14.0
47,47,1727462144748,-0.92089844,-0.12402344,-0.1796875,-14.8125,6.0625,8.125
48,48,1727462144788,-1.0048828,-0.13378906,-0.040039062,-14.9375,8.8125,10.28125
49,49,1727462144828,-0.9921875,-0.14257812,-0.02734375,-14.1875,0.21875,13.75
50,50,1727462144868,-0.9892578,-0.15820312,-0.07519531,-23.65625,-4.5,14.40625
51,51,1727462144908,-0.91503906,-0.22558594,-0.049804688,-15.46875,-4.8125,13.5625
52,52,1727462144948,-0.99316406,-0.17675781,-0.055664062,14.71875,-4.75,5.75
53,53,1727462144988,-1.0478516,-0.0009765625,-0.001953125,19.125,1.0625,-7.5
54,54,1727462145028,-1.0947266,0.078125,-0.0068359375,4.0625,-2.84375,-4.0
55,55,1727462145068,-1.0019531,0.013671875,-0.038085938,-1.5625,1.25,3.5625
56,56,1727462145108,-1.015625,-0.07910156,-0.0078125,1.65625,14.0625,4.34375
57,57,1727462145148,-0.9394531,-0.060546875,-0.0107421875,1.84375,5.625,-0.96875
58,58,1727462145188,-0.9951172,-0.03125,-0.01953125,8.5,-5.15625,-5.59375
59,59,1727462145228,-1.0722656,-0.06640625,0.0078125,4.71875,-9.375,-13.125
60,60,1727462145268,-1.0185547,-0.025390625,0.024414062,3.625,-10.0,-15.125
61,61,1727462145308,-0.99902344,-0.11035156,0.001953125,6.0,-11.3125,-10.125
62,62,1727462145348,-1.0429688,-0.12988281,-0.02734375,18.40625,-3.40625,-15.0625
63,63,1727462145388,-0.9189453,-0.038085938,0.020507812,28.34375,-7.25,-24.09375
64,64,1727462145428,-0.9326172,-0.037109375,0.047851562,19.1875,-9.5625,-20.25
65,65,1727462145468,-0.8486328,-0.06933594,-0.041015625,20.84375,-9.875,-15.6875
66,66,1727462145508,-0.69140625,0.061523438,-0.030273438,19.96875,-13.53125,-10.25
67,67,1727462145548,-0.71191406,0.049804688,-0.005859375,3.6875,-10.09375,5.5
68,68,1727462145588,-1.3261719,-0.20800781,-0.28222656,4.0,21.15625,16.0
69,69,1727462145628,-1.1376953,-0.27148438,-0.0546875,-7.96875,40.75,-1.75
70,70,1727462145668,-0.8779297,-0.07128906,0.13769531,-19.6875,-6.9375,-1.8125
71,71,1727462145708,-1.0546875,-0.099609375,-0.1484375,3.0,-12.84375,19.71875
72,72,1727462145748,-1.0585938,-0.35058594,-0.21191406,-20.5625,-1.0625,7.15625
73,73,1727462145788,-0.93652344,-0.17285156,-0.18261719,-10.0,12.78125,5.03125
74,74,1727462145828,-0.95703125,-0.0703125,-0.15429688,5.75,14.6875,17.65625
75,75,1727462145868,-1.0800781,-0.087890625,-0.1640625,-16.6875,14.1875,13.5
76,76,1727462145908,-0.9941406,-0.0703125,-0.107421875,-20.125,6.90625,10.75
77,77,1727462145948,-0.98828125,-0.16308594,-0.064453125,-15.96875,4.90625,16.84375
78,78,1727462145988,-1.0087891,-0.16601562,-0.059570312,-34.46875,0.4375,20.9375
79,79,1727462146028,-0.97558594,-0.2841797,-0.15625,-24.9375,-6.875,22.78125
80,80,1727462146068,-0.9277344,-0.2626953,-0.18261719,15.40625,0.03125,16.125
81,81,1727462146108,-0.98828125,-0.037109375,-0.040039062,34.4375,9.53125,1.65625
82,82,1727462146148,-1.0537109,0.20117188,0.06542969,13.25,1.5625,-6.875
83,83,1727462146188,-1.0390625,0.045898438,-0.041992188,-17.375,-17.3125,2.75
84,84,1727462146228,-1.0566406,-0.10253906,-0.033203125,4.78125,-12.25,10.6875
85,85,1727462146268,-0.99121094,0.0078125,-0.07421875,-0.34375,0.8125,2.34375
86,86,1727462146308,-0.9746094,-0.08300781,-0.056640625,1.5,15.15625,-2.375
87,87,1727462146348,-0.9707031,0.0029296875,0.034179688,6.90625,17.0,-10.0
88,88,1727462146388,-0.9707031,0.0029296875,0.025390625,5.6875,1.90625,-10.53125
89,89,1727462146428,-1.0263672,-0.12207031,-0.03125,12.78125,-3.21875,-11.78125
90,90,1727462146468,-1.0302734,-0.06542969,-0.013671875,32.125,-7.53125,-9.875
91,91,1727462146508,-1.0273438,-0.03515625,-0.0625,37.875,-4.125,-8.78125
92,92,1727462146548,-1.0048828,-0.038085938,-0.0126953125,37.875,-0.65625,-12.5
93,93,1727462146588,-0.98535156,-0.021484375,0.032226562,31.8125,-5.21875,-15.71875
94,94,1727462146628,-1.0039062,-0.01953125,-0.0107421875,21.5625,-7.375,-17.6875
95,95,1727462146668,-0.921875,-0.046875,-0.0009765625,10.9375,-6.8125,-16.09375
96,96,1727462146708,-0.8378906,-0.09472656,-0.00390625,20.96875,-8.65625,-10.4375
97,97,1727462146748,-0.7089844,0.03125,-0.024414062,17.53125,-11.4375,-7.5
98,98,1727462146788,-0.8564453,0.044921875,-0.20117188,-6.625,1.3125,7.09375
99,99,1727462146828,-1.2373047,-0.064453125,-0.3046875,18.09375,27.5625,18.125
100,100,1727462146868,-1.2011719,-0.06542969,0.034179688,-4.9375,48.59375,11.0625
101,101,1727462146908,-0.9082031,-0.18164062,0.036132812,-29.03125,-1.25,-3.96875
102,102,1727462146948,-0.9638672,-0.12011719,-0.23535156,2.21875,-15.46875,11.84375
103,103,1727462146988,-1.0546875,-0.09472656,-0.25390625,-16.03125,0.875,9.71875
104,104,1727462147028,-0.95214844,-0.26953125,-0.20117188,-20.3125,13.75,8.6875
105,105,1727462147068,-0.9765625,-0.11816406,-0.13867188,4.78125,14.25,12.71875
106,106,1727462147108,-1.0029297,-0.107421875,-0.123046875,-4.8125,10.875,8.25
107,107,1727462147148,-0.98828125,-0.10449219,-0.14453125,-8.71875,3.5,5.5
108,108,1727462147188,-1.0253906,-0.09765625,-0.09082031,-18.59375,-2.46875,5.875
109,109,1727462147228,-1.0244141,-0.07910156,-0.07910156,-23.40625,-1.375,2.875
110,110,1727462147268,-0.9667969,-0.16503906,-0.17089844,-4.75,3.5,8.5625
111,111,1727462147308,-0.8925781,-0.13476562,-0.051757812,6.96875,3.75,6.71875
112,112,1727462147348,-0.9609375,0.052734375,-0.0048828125,21.75,-5.46875,-1.09375
113,113,1727462147388,-1.0351562,0.1796875,-0.13476562,17.90625,-12.65625,1.34375
114,114,1727462147428,-1.0820312,0.0009765625,-0.10839844,4.21875,-0.28125,8.3125
115,115,1727462147468,-1.03125,-0.00390625,-0.18457031,8.375,12.65625,8.3125
116,116,1727462147508,-0.9970703,0.059570312,-0.045898438,-2.90625,25.21875,3.3125
117,117,1727462147548,-1.0585938,0.08984375,-0.068359375,-18.15625,2.34375,-5.65625
118,118,1727462147588,-1.0429688,-0.18261719,-0.025390625,-34.34375,-3.03125,-13.84375
119,119,1727462147628,-1.0263672,-0.18164062,0.053710938,-21.03125,-12.96875,-18.53125
120,120,1727462147668,-0.93847656,-0.17382812,-0.11035156,33.46875,-16.53125,-7.8125
121,121,1727462147708,-0.97558594,-0.18457031,-0.0087890625,27.78125,-2.40625,-18.84375
122,122,1727462147748,-0.99609375,-0.12402344,0.021484375,42.75,-13.03125,-25.625
123,123,1727462147788,-0.9560547,-0.03515625,-0.06933594,58.6875,-23.96875,-21.59375
124,124,1727462147828,-0.8779297,-0.056640625,-0.09082031,37.1875,-14.4375,-17.4375
125,125,1727462147868,-0.8984375,-0.11328125,-0.041015625,15.53125,-3.8125,-17.875
126,126,1727462147908,-0.8457031,-0.0625,-0.017578125,37.625,-3.09375,-16.34375
127,127,1727462147948,-0.82421875,0.038085938,-0.060546875,33.15625,-5.84375,-3.21875
128,128,1727462147988,-0.90722656,-0.040039062,-0.26757812,13.15625,11.1875,22.59375
129,129,1727462148028,-1.2382812,0.001953125,-0.33496094,24.6875,43.78125,14.0625
130,130,1727462148068,-1.1494141,-0.18847656,0.15234375,12.21875,22.90625,-1.40625
131,131,1727462148108,-0.9140625,0.025390625,-0.037109375,-15.78125,-20.3125,-4.875
132,132,1727462148148,-1.0878906,-0.24121094,-0.28808594,-6.9375,-7.90625,4.03125
133,133,1727462148188,-0.97558594,-0.2939453,-0.2783203,0.75,13.09375,12.46875
134,134,1727462148228,-0.99609375,-0.12890625,-0.1875,8.25,19.9375,11.96875
135,135,1727462148268,-1.0292969,-0.048828125,-0.078125,-2.0625,13.875,9.78125
136,136,1727462148308,-0.92578125,0.0146484375,-0.14648438,-12.5625,-3.75,5.5625
137,137,1727462148348,-0.98535156,0.055664062,-0.14160156,-31.96875,-3.34375,9.0
138,138,1727462148388,-1.0566406,-0.06542969,-0.123046875,-53.09375,-5.53125,22.15625
139,139,1727462148428,-0.9589844,-0.31835938,-0.171875,-35.125,0.9375,24.84375
140,140,1727462148468,-0.9189453,-0.28515625,-0.11425781,-2.375,1.25,12.40625
141,141,1727462148508,-1.0,-0.17285156,-0.08105469,15.40625,3.5625,1.21875
142,142,1727462148548,-0.99121094,0.0048828125,-0.045898438,15.59375,1.5625,-8.28125
143,143,1727462148588,-1.0546875,0.08984375,-0.0009765625,11.125,-1.5625,-17.6875
144,144,1727462148628,-1.1308594,-0.06933594,0.0078125,4.15625,-1.4375,-12.0625
145,145,1727462148668,-1.0361328,-0.099609375,-0.047851562,7.84375,-9.375,-5.90625
146,146,1727462148708,-0.9316406,0.061523438,-0.13085938,22.1875,-2.96875,-2.6875
147,147,1727462148748,-0.9902344,-0.080078125,-0.055664062,-16.9375,18.34375,-6.40625
148,148,1727462148788,-1.0976562,-0.19628906,0.107421875,-18.46875,15.46875,-23.59375
149,149,1727462148828,-1.0263672,-0.16601562,0.0546875,4.65625,-20.78125,-25.9375
150,150,1727462148868,-0.93652344,-0.068359375,0.03515625,20.84375,-32.9375,-12.6875
151,151,1727462148908,-0.87890625,-0.078125,0.0146484375,0.5,-30.5,-10.4375
152,152,1727462148948,-0.82128906,-0.24609375,0.0078125,-15.0,-13.71875,-14.03125
153,153,1727462148988,-0.6269531,-0.12890625,-0.03515625,21.375,-12.25,2.15625
154,154,1727462149028,-0.9873047,-0.045898438,-0.12988281,2.59375,5.03125,18.625
155,155,1727462149068,-1.2226562,-0.083984375,-0.3564453,56.46875,15.78125,29.125
156,156,1727462149108,-1.1992188,0.1328125,-0.26171875,10.09375,54.84375,13.1875
157,157,1727462149148,-0.9160156,-0.09863281,0.19042969,-16.53125,8.03125,8.25
158,158,1727462149188,-0.94140625,-0.15917969,-0.19726562,-10.34375,-8.65625,9.46875
159,159,1727462149228,-1.0859375,-0.27148438,-0.3388672,-19.15625,1.78125,2.5625
160,160,1727462149268,-0.96191406,-0.2841797,-0.15625,3.125,7.28125,7.8125
161,161,1727462149308,-0.9941406,-0.048828125,-0.12011719,38.21875,10.40625,11.625
162,162,1727462149348,-0.96484375,0.053710938,-0.18261719,-2.59375,5.40625,9.0
163,163,1727462149388,-1.0439453,-0.043945312,-0.14550781,-21.90625,3.6875,15.21875
164,164,1727462149428,-0.9941406,-0.1015625,-0.12988281,-27.09375,-0.03125,16.6875
165,165,1727462149468,-0.9550781,-0.12402344,-0.13085938,-24.5,-12.78125,11.5625
166,166,1727462149508,-1.015625,-0.13183594,-0.15917969,-28.65625,-12.71875,12.90625
167,167,1727462149548,-0.9433594,-0.07714844,-0.11816406,-28.125,-8.09375,10.875
168,168,1727462149588,-0.9921875,0.0107421875,-0.06933594,-2.53125,3.5,7.59375
169,169,1727462149628,-1.0429688,0.047851562,-0.0146484375,9.25,3.1875,-5.125
170,170,1727462149668,-1.0556641,0.0078125,0.0,-5.03125,-1.0625,-10.0
171,171,1727462149708,-1.0283203,0.0625,-0.06738281,7.28125,-7.59375,-2.96875
172,172,1727462149748,-0.9980469,0.11328125,-0.107421875,14.4375,8.09375,3.96875
173,173,1727462149788,-1.0292969,0.072265625,-0.028320312,14.71875,11.0625,3.375
174,174,1727462149828,-1.0292969,0.0390625,-0.016601562,-12.75,5.03125,-6.46875
175,175,1727462149868,-1.0458984,-0.037109375,-0.08105469,-10.0625,-1.75,-10.53125
176,176,1727462149908,-1.015625,-0.15917969,0.005859375,0.875,-3.46875,-10.4375
177,177,1727462149948,-0.97558594,-0.13769531,-0.001953125,6.75,-11.5625,-14.8125
178,178,1727462149988,-0.95996094,-0.021484375,-0.044921875,13.5,-12.78125,-17.125
179,179,1727462150028,-0.85253906,-0.099609375,-0.056640625,12.65625,-7.125,-13.84375
180,180,1727462150068,-0.9238281,-0.21777344,0.015625,15.15625,2.71875,-16.84375
181,181,1727462150108,-0.8359375,-0.07910156,0.0126953125,36.15625,-13.78125,-15.5
182,182,1727462150148,-0.7871094,0.02734375,-0.061523438,32.90625,-6.4375,-7.0
183,183,1727462150188,-0.8232422,0.036132812,-0.171875,23.40625,0.40625,11.375
184,184,1727462150228,-1.2246094,-0.034179688,-0.33203125,21.5,10.03125,19.0
185,185,1727462150268,-1.2060547,0.08886719,-0.044921875,21.625,38.84375,20.15625
186,186,1727462150308,-0.85546875,-0.24707031,-0.024414062,-6.875,1.71875,12.40625
187,187,1727462150348,-1.015625,-0.1640625,-0.19921875,-2.1875,-12.4375,5.25
188,188,1727462150388,-1.0410156,-0.16308594,-0.24707031,7.21875,-1.875,1.0
189,189,1727462150428,-0.9472656,-0.11816406,-0.19824219,6.3125,8.3125,2.625
190,190,1727462150468,-1.0185547,-0.060546875,-0.13671875,15.9375,10.21875,8.1875
191,191,1727462150508,-0.9589844,0.045898438,-0.14355469,-3.875,5.59375,9.59375
192,192,1727462150548,-0.9863281,-0.06542969,-0.048828125,-15.25,11.0625,13.125
193,193,1727462150588,-0.88964844,-0.07128906,-0.0546875,-19.4375,-1.9375,11.625
194,194,1727462150628,-1.0791016,-0.12890625,-0.20996094,-20.1875,-17.0625,8.375
195,195,1727462150668,-1.0693359,0.0078125,-0.052734375,2.9375,-1.1875,-4.6875
196,196,1727462150708,-1.0166016,0.10546875,-0.07910156,-5.28125,-5.71875,-1.6875
197,197,1727462150748,-1.0761719,0.095703125,-0.07519531,-4.1875,5.875,2.6875
198,198,1727462150788,-1.0371094,0.08496094,-0.10644531,-9.0,4.125,13.75
199,199,1727462150828,-1.0566406,-0.0107421875,-0.034179688,-3.28125,3.9375,11.0
200,200,1727462150868,-1.0341797,-0.013671875,-0.053710938,-9.3125,1.625,-2.4375
201,201,1727462150908,-0.96972656,0.05078125,-0.099609375,-10.53125,-4.6875,-11.8125
202,202,1727462150948,-0.9707031,0.046875,-0.045898438,-16.9375,-2.46875,-10.3125
203,203,1727462150988,-0.9423828,-0.11328125,-0.0126953125,-2.3125,-5.15625,-8.15625
204,204,1727462151028,-0.9453125,-0.14746094,-0.020507812,7.03125,-3.40625,-17.4375
205,205,1727462151068,-0.9628906,-0.06640625,-0.020507812,39.3125,-9.9375,-17.25
206,206,1727462151108,-0.9394531,0.04296875,-0.049804688,39.09375,-8.9375,-13.28125
207,207,1727462151148,-0.9267578,0.08105469,-0.09472656,27.375,-4.6875,-9.625
208,208,1727462151188,-0.9580078,0.034179688,-0.078125,17.53125,3.3125,-7.125
209,209,1727462151228,-0.9453125,0.10839844,-0.024414062,0.5625,-0.09375,-9.5625
210,210,1727462151268,-0.83984375,0.056640625,-0.055664062,-16.09375,-2.65625,3.0625
211,211,1727462151308,-0.98339844,-0.036132812,-0.20800781,-22.0,2.59375,10.28125
212,212,1727462151348,-1.0634766,-0.024414062,-0.11816406,-10.65625,13.5625,9.53125
213,213,1727462151388,-1.0556641,-0.23730469,-0.025390625,-5.90625,13.75,8.1875
214,214,1727462151428,-1.0400391,-0.10839844,-0.07519531,18.21875,2.78125,0.5625
215,215,1727462151468,-0.9941406,0.040039062,-0.10644531,10.65625,-7.59375,3.75
216,216,1727462151508,-0.9980469,-0.12402344,-0.17675781,-7.71875,-13.65625,6.25
217,217,1727462151548,-0.9628906,-0.17285156,-0.27148438,-6.875,-3.46875,-0.40625
218,218,1727462151588,-1.0498047,-0.15820312,-0.18847656,-9.5,6.75,-2.1875
219,219,1727462151628,-0.9638672,-0.11621094,-0.16601562,13.8125,6.1875,9.78125
220,220,1727462151668,-0.9628906,-0.053710938,-0.14355469,11.8125,9.0,13.0625
221,221,1727462151708,-0.98339844,-0.028320312,-0.09667969,3.375,6.5625,12.46875
222,222,1727462151748,-1.0214844,-0.091796875,-0.08886719,-5.96875,-0.03125,13.625
223,223,1727462151788,-1.0390625,-0.10449219,-0.095703125,-11.46875,1.90625,14.0
224,224,1727462151828,-0.9863281,-0.14160156,-0.13964844,-16.34375,-1.4375,15.21875
225,225,1727462151868,-0.9707031,-0.09765625,-0.0625,13.6875,1.3125,8.0625
226,226,1727462151908,-1.0751953,0.08886719,-0.03125,35.3125,-2.28125,-7.8125
227,227,1727462151948,-1.0214844,0.19824219,-0.12109375,-5.96875,-8.15625,-10.0625
228,228,1727462151988,-1.0292969,0.037109375,-0.09082031,-2.46875,-2.71875,3.5
229,229,1727462152028,-1.0175781,0.07519531,-0.0625,15.65625,5.03125,4.96875
230,230,1727462152068,-1.09375,0.08203125,-0.036132812,12.84375,5.625,-0.53125
231,231,1727462152108,-1.0048828,0.12011719,-0.068359375,-9.375,-3.875,-10.84375
232,232,1727462152148,-0.98535156,-0.103515625,0.0078125,-16.8125,2.21875,-13.78125
233,233,1727462152188,-0.9863281,-0.1484375,0.0029296875,18.21875,-7.3125,-21.15625
234,234,1727462152228,-1.0166016,-0.08496094,-0.017578125,35.1875,-19.3125,-25.6875
235,235,1727462152268,-0.9326172,0.057617188,-0.0390625,21.375,-20.4375,-26.34375
236,236,1727462152308,-0.95703125,-0.08300781,-0.04296875,21.4375,-6.8125,-17.0625
237,237,1727462152348,-0.91308594,-0.051757812,-0.055664062,17.59375,-7.53125,-16.96875
238,238,1727462152388,-0.9160156,-0.07714844,-0.021484375,8.5625,0.5625,-17.5
239,239,1727462152428,-0.88671875,-0.049804688,-0.0068359375,22.3125,-0.28125,-12.0625
240,240,1727462152468,-0.86621094,0.036132812,-0.0107421875,14.125,-2.0,-3.90625
241,241,1727462152508,-1.0107422,-0.0146484375,-0.11035156,0.6875,4.90625,8.75
242,242,1727462152548,-0.98339844,-0.005859375,-0.19921875,7.15625,17.25,9.84375
243,243,1727462152588,-1.1044922,-0.076171875,0.041992188,-5.21875,24.8125,4.46875
244,244,1727462152628,-1.0166016,-0.034179688,-0.040039062,-12.90625,-5.40625,3.4375
245,245,1727462152668,-0.9111328,-0.21191406,-0.21875,-0.46875,-3.21875,7.59375
246,246,1727462152708,-1.0185547,-0.27441406,-0.18554688,14.71875,2.71875,0.75
247,247,1727462152748,-1.0410156,-0.15917969,-0.15722656,9.71875,3.9375,-5.34375
248,248,1727462152788,-1.0527344,-0.123046875,-0.18847656,12.96875,4.1875,2.40625
249,249,1727462152828,-0.9824219,-0.12792969,-0.18164062,1.84375,6.25,10.5
250,250,1727462152868,-0.9550781,-0.111328125,-0.125,-0.78125,11.75,12.71875
251,251,1727462152908,-0.96972656,-0.09667969,-0.119140625,4.65625,9.0625,11.0
252,252,1727462152948,-0.9511719,-0.16992188,-0.20996094,-4.8125,3.625,9.28125
253,253,1727462152988,-1.0097656,-0.15917969,-0.064453125,-0.03125,21.375,9.78125
254,254,1727462153028,-0.9785156,-0.09863281,0.009765625,-8.40625,15.90625,15.21875
255,255,1727462153068,-1.0322266,-0.060546875,-0.16699219,-25.6875,-6.5625,21.1875
256,256,1727462153108,-1.0644531,-0.15234375,-0.12890625,-16.40625,-7.40625,14.46875
257,257,1727462153148,-1.0439453,0.057617188,0.0107421875,-4.1875,-12.375,-5.25
258,258,1727462153188,-1.0009766,0.1484375,-0.11035156,-17.3125,-21.65625,-6.625
259,259,1727462153228,-1.0175781,0.030273438,-0.09863281,-33.4375,-8.40625,2.5625
260,260,1727462153268,-1.0126953,0.040039062,-0.047851562,-24.5,6.25,5.25
261,261,1727462153308,-1.0087891,-0.046875,-0.056640625,-28.96875,8.5,-2.90625
262,262,1727462153348,-0.9716797,-0.21191406,-0.056640625,11.5625,13.5,-7.90625
263,263,1727462153388,-1.0400391,0.051757812,0.12109375,9.59375,-12.1875,-17.5
264,264,1727462153428,-0.8564453,0.11328125,-0.15722656,16.8125,-26.34375,-1.40625
265,265,1727462153468,-0.9589844,-0.0390625,-0.13867188,27.3125,4.84375,7.28125
266,266,1727462153508,-1.0429688,-0.09472656,-0.0390625,26.5,17.25,-7.0625
267,267,1727462153548,-0.9423828,0.09472656,0.0029296875,37.75,0.21875,-12.0625
268,268,1727462153588,-0.9736328,0.16699219,0.009765625,13.15625,-3.875,-5.78125
269,269,1727462153628,-0.9316406,0.0146484375,-0.13085938,0.625,-3.03125,-5.0
270,270,1727462153668,-0.9042969,-0.12597656,-0.078125,1.4375,8.8125,-10.78125
271,271,1727462153708,-0.82910156,0.0234375,-0.11816406,24.625,6.125,-18.78125
272,272,1727462153748,-0.75683594,0.095703125,-0.0703125,-10.1875,5.8125,-3.46875
273,273,1727462153788,-1.2421875,-0.0859375,-0.15234375,-12.0,13.28125,11.0625
274,274,1727462153828,-1.40625,-0.18457031,0.047851562,-18.34375,15.59375,5.375
275,275,1727462153868,-0.8330078,-0.19042969,-0.14746094,-14.625,-22.25,-0.28125
276,276,1727462153908,-1.0078125,-0.25585938,-0.3076172,23.53125,-10.59375,-4.8125
277,277,1727462153948,-1.0810547,-0.10546875,-0.23632812,8.03125,4.53125,-8.65625
278,278,1727462153988,-0.9970703,-0.080078125,-0.2265625,6.5,9.71875,1.65625
279,279,1727462154028,-0.9560547,-0.072265625,-0.13378906,1.84375,13.34375,3.5
280,280,1727462154068,-1.0019531,-0.099609375,-0.15820312,-0.78125,9.0625,3.4375
281,281,1727462154108,-0.91015625,-0.12011719,-0.09667969,-11.03125,7.09375,5.625
282,282,1727462154148,-0.9326172,-0.19140625,-0.13085938,-10.34375,4.65625,8.875
283,283,1727462154188,-1.0244141,-0.036132812,-0.076171875,10.46875,15.59375,8.25
284,284,1727462154228,-0.9765625,-0.06542969,-0.099609375,-11.21875,5.625,15.34375
285,285,1727462154268,-1.0927734,-0.15136719,-0.13867188,-35.625,-3.40625,18.09375
286,286,1727462154308,-1.0800781,-0.17382812,-0.15917969,7.40625,-0.03125,12.34375
287,287,1727462154348,-0.9707031,0.06640625,-0.23828125,15.84375,1.6875,9.03125
288,288,1727462154388,-0.95996094,0.23730469,-0.12402344,-7.78125,11.0625,-1.21875
289,289,1727462154428,-0.9873047,0.107421875,-0.06738281,-20.59375,-1.875,-0.59375
290,290,1727462154468,-1.0722656,0.05078125,-0.11621094,-34.84375,-11.375,-4.125
291,291,1727462154508,-1.0126953,0.08984375,-0.17578125,-37.34375,-10.96875,-3.15625
292,292,1727462154548,-0.9746094,-0.10644531,-0.13964844,-36.0625,1.125,-7.1875
293,293,1727462154588,-1.0888672,-0.28222656,0.001953125,-14.4375,12.46875,-33.6875
294,294,1727462154628,-0.9814453,-0.0078125,-0.00390625,24.0625,-28.0625,-37.09375
295,295,1727462154668,-0.88378906,-0.018554688,-0.095703125,11.5625,-21.40625,-25.75
296,296,1727462154708,-0.9345703,-0.16015625,0.0234375,3.625,-14.6875,-21.65625
297,297,1727462154748,-0.8261719,-0.123046875,0.0,13.5625,-22.1875,-9.8125
298,298,1727462154788,-0.7441406,-0.11816406,-0.064453125,32.125,-16.21875,3.90625
299,299,1727462154828,-0.90527344,-0.119140625,-0.19824219,49.40625,5.75,9.0
300,300,1727462154868,-1.0068359,-0.07714844,-0.2578125,72.09375,26.4375,8.8125
301,301,1727462154908,-1.2587891,0.07519531,-0.111328125,23.875,39.5625,-0.59375
302,302,1727462154948,-0.98339844,0.1328125,-0.049804688,18.15625,3.4375,1.53125
303,303,1727462154988,-0.81347656,0.07324219,-0.1640625,-9.3125,-1.25,12.46875
304,304,1727462155028,-1.1044922,-0.359375,-0.27441406,-2.25,14.0625,20.8125
305,305,1727462155068,-1.1162109,-0.1796875,-0.115234375,16.8125,11.8125,6.65625
306,306,1727462155108,-0.9326172,-0.025390625,-0.17480469,11.9375,-5.34375,5.25
307,307,1727462155148,-1.0146484,-0.1171875,-0.22851562,-2.40625,-5.40625,3.0
308,308,1727462155188,-1.0097656,-0.061523438,-0.23242188,-3.6875,-4.6875,1.53125
309,309,1727462155228,-0.95214844,-0.028320312,-0.15234375,-18.46875,0.03125,6.59375
310,310,1727462155268,-0.9716797,-0.080078125,-0.13964844,-15.96875,2.46875,10.6875
311,311,1727462155308,-0.9628906,-0.13378906,-0.18359375,-21.46875,0.4375,6.71875
312,312,1727462155348,-0.9394531,-0.14160156,-0.1640625,-36.46875,6.1875,0.5
313,313,1727462155388,-1.015625,-0.27734375,-0.13085938,-21.21875,-4.1875,8.4375
314,314,1727462155428,-1.0292969,-0.2578125,-0.13574219,-9.5,-9.875,6.59375
315,315,1727462155468,-1.0214844,-0.16308594,-0.22167969,10.53125,-9.6875,12.46875
316,316,1727462155508,-1.0029297,-0.00390625,-0.078125,23.6875,-0.46875,8.625
317,317,1727462155548,-1.0791016,0.026367188,-0.048828125,8.875,-8.40625,-6.75
318,318,1727462155588,-1.0478516,0.09082031,-0.0009765625,-15.1875,-18.09375,-16.46875
319,319,1727462155628,-0.96191406,-0.013671875,-0.091796875,-5.09375,-14.6875,-4.75
320,320,1727462155668,-1.0429688,-0.064453125,-0.10058594,-4.0625,-2.78125,-5.3125
321,321,1727462155708,-1.0341797,-0.0126953125,-0.024414062,5.28125,3.625,-3.28125
322,322,1727462155748,-1.0019531,-0.046875,-0.09863281,12.21875,5.8125,-6.03125
323,323,1727462155788,-0.92578125,-0.09375,-0.103515625,2.71875,7.28125,-18.96875
324,324,1727462155828,-0.9667969,-0.05859375,0.0009765625,18.9375,4.46875,-25.5625
325,325,1727462155868,-0.9785156,-0.09765625,0.017578125,25.65625,-10.28125,-22.03125
326,326,1727462155908,-0.9736328,-0.12109375,-0.047851562,25.21875,-19.3125,-20.0
327,327,1727462155948,-0.9199219,-0.1015625,-0.09863281,33.53125,-11.625,-16.53125
328,328,1727462155988,-0.9472656,-0.12402344,-0.033203125,20.65625,-1.75,-13.65625
329,329,1727462156028,-0.9511719,-0.12890625,-0.048828125,30.28125,4.3125,-11.53125
330,330,1727462156068,-0.9267578,-0.053710938,-0.049804688,32.375,6.6875,-4.3125
331,331,1727462156108,-0.9394531,-0.0107421875,-0.064453125,20.34375,9.4375,-2.6875
332,332,1727462156148,-0.9628906,-0.111328125,-0.028320312,7.96875,11.9375,-2.3125
333,333,1727462156188,-0.8300781,0.0078125,0.0009765625,29.0,-1.1875,1.59375
334,334,1727462156228,-1.0537109,0.060546875,-0.09277344,10.75,-3.5,3.25
335,335,1727462156268,-1.0478516,0.01953125,-0.119140625,-16.46875,-1.0,1.125
336,336,1727462156308,-1.1298828,-0.21679688,-0.083984375,-35.75,0.28125,0.4375
337,337,1727462156348,-0.95410156,-0.17675781,-0.07714844,-17.0,-13.65625,-4.375
338,338,1727462156388,-0.97265625,-0.22460938,-0.20507812,-7.125,-14.0625,5.9375
339,339,1727462156428,-0.9326172,-0.45996094,-0.15234375,-6.15625,3.75,-0.21875
340,340,1727462156468,-1.0019531,-0.29101562,-0.13964844,14.1875,7.03125,-0.59375
341,341,1727462156508,-1.0292969,-0.1484375,-0.12402344,25.71875,6.875,5.8125
342,342,1727462156548,-1.0019531,-0.03515625,-0.10546875,-0.03125,1.84375,13.375
343,343,1727462156588,-0.9638672,-0.18261719,-0.078125,-13.84375,4.96875,22.09375
344,344,1727462156628,-0.9589844,-0.265625,-0.10058594,-10.28125,5.15625,28.46875
345,345,1727462156668,-0.9199219,-0.36132812,-0.14648438,3.0625,7.96875,32.25
346,346,1727462156708,-0.96484375,-0.3310547,-0.080078125,26.625,13.9375,26.375
347,347,1727462156748,-1.0400391,-0.07519531,-0.038085938,33.78125,10.40625,18.625
348,348,1727462156788,-1.0615234,0.01953125,-0.0625,13.8125,-6.5,4.34375
349,349,1727462156828,-1.0712891,0.21679688,-0.030273438,5.8125,-5.09375,-0.71875
350,350,1727462156868,-1.140625,0.026367188,-0.087890625,-4.125,-7.71875,10.75
351,351,1727462156908,-1.0869141,-0.0546875,-0.06640625,-3.15625,-0.28125,0.375
352,352,1727462156948,-1.0673828,0.048828125,0.05078125,-16.53125,-0.53125,-7.96875
353,353,1727462156988,-0.9345703,-0.0068359375,-0.07519531,1.96875,-4.375,-4.6875
354,354,1727462157028,-0.85058594,-0.16210938,-0.044921875,2.71875,2.65625,-13.71875
355,355,1727462157068,-0.87597656,-0.0234375,0.049804688,8.03125,-8.40625,-22.9375
356,356,1727462157108,-0.8857422,-0.095703125,-0.053710938,12.15625,-12.625,-16.65625
357,357,1727462157148,-0.9482422,-0.1171875,-0.03125,14.5625,-0.78125,-17.4375
358,358,1727462157188,-0.828125,-0.07128906,0.01171875,18.21875,-1.0,-14.21875
359,359,1727462157228,-0.8652344,-0.028320312,-0.036132812,9.0625,-1.75,-14.09375
360,360,1727462157268,-1.0263672,-0.028320312,-0.037109375,-5.09375,6.3125,-16.15625
361,361,1727462157308,-1.0009766,-0.16699219,-0.049804688,-7.0,9.90625,-5.34375
362,362,1727462157348,-1.1044922,-0.046875,-0.01953125,35.96875,8.75,7.65625
363,363,1727462157388,-1.0195312,0.057617188,-0.08984375,18.40625,2.03125,6.25
364,364,1727462157428,-1.0341797,0.001953125,-0.09667969,-2.40625,11.5,6.1875
365,365,1727462157468,-0.9765625,-0.08105469,-0.13867188,-20.4375,4.96875,0.375
366,366,1727462157508,-0.9238281,-0.24414062,-0.15527344,-24.5,7.09375,-4.5625
367,367,1727462157548,-1.0390625,-0.24902344,-0.11230469,8.6875,6.6875,-7.0
368,368,1727462157588,-0.9638672,-0.107421875,-0.12988281,21.4375,1.0625,-4.75
369,369,1727462157628,-1.0273438,-0.13671875,-0.12207031,-0.71875,2.21875,-0.09375
370,370,1727462157668,-1.0058594,-0.24609375,-0.14941406,-6.15625,-2.1875,8.0
371,371,1727462157708,-0.9794922,-0.18847656,-0.14453125,0.625,2.90625,12.84375
372,372,1727462157748,-0.98046875,-0.1953125,-0.11621094,5.15625,3.5,18.8125
373,373,1727462157788,-0.9580078,-0.171875,-0.14257812,6.90625,4.53125,21.8125
374,374,1727462157828,-0.9580078,-0.21191406,-0.16992188,1.1875,6.625,20.65625
375,375,1727462157868,-0.96484375,-0.20800781,-0.1328125,0.09375,5.9375,13.1875
376,376,1727462157908,-1.0341797,-0.16210938,-0.09375,-8.46875,-5.03125,5.125
377,377,1727462157948,-1.1669922,-0.111328125,-0.12988281,-25.0625,-15.21875,-3.53125
378,378,1727462157988,-1.1025391,-0.08984375,-0.10449219,4.40625,-12.65625,1.53125
379,379,1727462158028,-0.9199219,0.056640625,-0.109375,10.8125,-11.4375,-0.34375
380,380,1727462158068,-0.93652344,0.034179688,0.03125,-28.71875,2.78125,-9.21875
381,381,1727462158108,-1.0009766,0.057617188,-0.0009765625,-16.9375,-1.9375,-11.8125
382,382,1727462158148,-1.0449219,0.10449219,-0.087890625,-21.28125,0.5625,-9.21875
383,383,1727462158188,-1.03125,-0.055664062,-0.0625,-47.59375,12.71875,-7.96875
384,384,1727462158228,-1.0048828,-0.33007812,0.053710938,-44.78125,18.875,-22.9375
385,385,1727462158268,-1.0449219,-0.09863281,0.06542969,4.65625,-14.9375,-31.0
386,386,1727462158308,-0.98828125,-0.064453125,-0.0390625,2.65625,-21.53125,-27.21875
387,387,1727462158348,-0.9267578,-0.08691406,0.018554688,-0.84375,-13.90625,-18.1875
388,388,1727462158388,-0.9736328,-0.09472656,0.009765625,15.71875,-13.90625,-4.125
389,389,1727462158428,-0.8857422,-0.072265625,0.015625,0.5,-16.09375,-4.6875
390,390,1727462158468,-0.9316406,-0.08886719,-0.001953125,-9.6875,-8.28125,-3.90625
391,391,1727462158508,-0.87597656,-0.111328125,-0.044921875,7.96875,-4.125,1.0
392,392,1727462158548,-0.8125,-0.01171875,-0.06640625,9.59375,8.75,5.4375
393,393,1727462158588,-1.0556641,-0.056640625,-0.07714844,-4.875,27.3125,6.65625
394,394,1727462158628,-1.0839844,-0.06347656,-0.043945312,-4.1875,23.875,2.75
395,395,1727462158668,-1.0429688,0.034179688,-0.0087890625,-19.875,1.71875,3.0
396,396,1727462158708,-0.96484375,-0.13183594,-0.17285156,-35.0625,-10.40625,6.125
397,397,1727462158748,-1.0234375,-0.3486328,-0.21386719,-28.125,0.03125,0.125
398,398,1727462158788,-0.96875,-0.22558594,-0.17089844,-2.46875,4.78125,-0.09375
399,399,1727462158828,-1.0292969,-0.091796875,-0.140625,-17.75,4.34375,6.0625
400,400,1727462158868,-0.9638672,-0.14648438,-0.1953125,-34.53125,1.1875,11.96875
401,401,1727462158908,-0.98339844,-0.23632812,-0.17871094,-33.125,6.0625,13.5625
402,402,1727462158948,-0.9501953,-0.1875,-0.16699219,-13.84375,5.40625,13.4375
403,403,1727462158988,-0.9111328,-0.19726562,-0.13867188,-14.3125,7.78125,15.34375
404,404,1727462159028,-0.9824219,-0.25878906,-0.11328125,-16.15625,9.65625,13.9375
405,405,1727462159068,-0.9394531,-0.26660156,-0.13964844,-6.15625,3.5,10.5625
406,406,1727462159108,-0.97753906,-0.24511719,-0.12988281,11.4375,5.75,8.6875
407,407,1727462159148,-0.9921875,-0.07519531,-0.036132812,4.34375,4.34375,2.09375
408,408,1727462159188,-1.0898438,0.049804688,-0.07910156,-25.4375,-13.71875,0.8125
409,409,1727462159228,-1.0292969,-0.053710938,-0.12011719,-10.78125,-8.09375,2.75
410,410,1727462159268,-0.99121094,-0.021484375,-0.20898438,20.34375,0.15625,1.53125
411,411,1727462159308,-1.1025391,0.14453125,-0.07421875,-17.75,4.40625,-5.90625
412,412,1727462159348,-1.0546875,0.16992188,-0.09277344,-38.75,0.34375,1.84375
413,413,1727462159388,-0.9814453,-0.041992188,-0.11425781,-42.09375,-2.0,7.28125
414,414,1727462159428,-1.0029297,-0.09667969,-0.034179688,-45.34375,0.875,-9.625
415,415,1727462159468,-1.0214844,-0.16015625,0.001953125,-43.5625,-11.9375,-19.53125
416,416,1727462159508,-1.0078125,-0.18359375,-0.0146484375,-18.65625,-19.9375,-27.8125
417,417,1727462159548,-0.96777344,-0.2548828,-0.095703125,6.6875,-17.6875,-30.75
418,418,1727462159588,-0.98339844,-0.0859375,-0.030273438,23.75,-19.75,-28.375
419,419,1727462159628,-0.8671875,-0.05859375,-0.009765625,12.21875,-17.96875,-25.625
420,420,1727462159668,-0.8496094,-0.20703125,-0.009765625,-5.40625,-9.5625,-15.125
421,421,1727462159708,-0.9121094,-0.21972656,0.048828125,11.8125,-4.8125,-7.96875
422,422,1727462159748,-0.8564453,-0.140625,0.0390625,32.25,-7.375,-3.90625
423,423,1727462159788,-0.7480469,-0.043945312,-0.09277344,25.34375,-6.5,1.84375
424,424,1727462159828,-0.9091797,-0.041992188,-0.1171875,21.03125,10.34375,8.1875
425,425,1727462159868,-1.3564453,-0.024414062,-0.22363281,30.59375,17.3125,0.375
426,426,1727462159908,-0.9873047,-0.047851562,0.017578125,-58.75,1.5625,-13.15625
427,427,1727462159948,-1.0644531,-0.1484375,-0.13574219,-27.1875,-5.40625,12.28125
428,428,1727462159988,-1.0068359,-0.21875,-0.1875,-4.25,-2.28125,14.0625
429,429,1727462160028,-0.9404297,-0.21777344,-0.25097656,-21.46875,5.75,1.84375
430,430,1727462160068,-1.0566406,-0.19824219,-0.12792969,-17.0,11.25,1.0
431,431,1727462160108,-0.9326172,-0.09277344,-0.1484375,-7.4375,-1.125,7.03125
432,432,1727462160148,-0.9550781,-0.18359375,-0.16796875,-26.71875,3.0,12.46875
433,433,1727462160188,-1.0351562,-0.34179688,-0.1171875,-18.90625,13.9375,15.28125
434,434,1727462160228,-0.9794922,-0.21484375,-0.10058594,10.9375,10.53125,16.84375
435,435,1727462160268,-0.9873047,-0.107421875,-0.095703125,9.78125,4.84375,18.5
436,436,1727462160308,-1.0185547,-0.12695312,-0.12988281,-12.25,2.59375,23.75
437,437,1727462160348,-0.9902344,-0.1640625,-0.10546875,-10.1875,1.5,24.4375
438,438,1727462160388,-0.99121094,-0.14648438,-0.15136719,-18.53125,-0.9375,18.25
439,439,1727462160428,-0.9638672,-0.10058594,-0.07519531,-2.78125,3.625,6.71875
440,440,1727462160468,-1.0439453,0.15234375,-0.057617188,7.03125,-3.03125,-1.03125
441,441,1727462160508,-0.9892578,0.078125,-0.13867188,-18.15625,-1.75,2.75
442,442,1727462160548,-1.0332031,-0.10546875,-0.052734375,-15.125,5.75,5.8125
443,443,1727462160588,-1.0,0.038085938,-0.076171875,-10.90625,2.09375,0.0625
444,444,1727462160628,-0.99121094,0.12109375,-0.099609375,-14.25,4.0625,-3.65625
445,445,1727462160668,-0.99121094,0.06640625,-0.05859375,-45.4375,-5.34375,-5.53125
446,446,1727462160708,-1.0146484,-0.2421875,-0.068359375,-33.78125,-1.125,-6.15625
447,447,1727462160748,-1.0273438,-0.25976562,-0.01171875,-18.0,2.28125,-17.1875
448,448,1727462160788,-1.0107422,-0.064453125,-0.0703125,31.21875,-8.34375,-16.28125
449,449,1727462160828,-0.95214844,-0.057617188,-0.07128906,10.09375,-6.4375,-18.46875
450,450,1727462160868,-0.9511719,-0.1640625,-0.040039062,-4.5625,-3.15625,-27.9375
451,451,1727462160908,-1.0283203,-0.11035156,0.009765625,19.1875,-9.0625,-26.71875
452,452,1727462160948,-0.9707031,-0.072265625,0.0078125,21.6875,-16.8125,-15.5
453,453,1727462160988,-0.9042969,-0.072265625,0.001953125,4.90625,-18.03125,-14.28125
454,454,1727462161028,-0.8125,-0.1015625,0.018554688,-6.8125,-15.21875,-13.78125
455,455,1727462161068,-0.84472656,-0.13769531,-0.024414062,-0.90625,-10.96875,-1.5
456,456,1727462161108,-0.8339844,-0.15917969,-0.15820312,16.75,-0.65625,11.125
457,457,1727462161148,-0.98339844,-0.107421875,-0.21875,55.25,24.0,22.65625
458,458,1727462161188,-1.3984375,-0.0859375,-0.13183594,36.21875,35.125,0.0625
459,459,1727462161228,-0.96777344,-0.059570312,0.12597656,-18.0,-4.96875,-8.59375
460,460,1727462161268,-0.9667969,-0.18847656,-0.27734375,1.25,-24.09375,21.0625
461,461,1727462161308,-1.0302734,-0.3310547,-0.27148438,3.8125,1.90625,11.96875
462,462,1727462161348,-0.96484375,-0.16699219,-0.20605469,10.03125,20.09375,2.21875
463,463,1727462161388,-1.0380859,-0.047851562,-0.13085938,18.21875,23.65625,10.875
464,464,1727462161428,-0.9892578,-0.020507812,-0.09277344,-8.84375,13.21875,18.375
465,465,1727462161468,-1.0009766,-0.1640625,-0.11035156,-29.75,7.15625,27.28125
466,466,1727462161508,-0.9892578,-0.2890625,-0.115234375,-12.84375,2.84375,27.28125
467,467,1727462161548,-0.9765625,-0.15820312,-0.16015625,3.375,-5.78125,19.25
468,468,1727462161588,-1.0498047,-0.10546875,-0.15136719,-13.28125,5.46875,9.65625
469,469,1727462161628,-1.0556641,0.09082031,-0.06347656,-0.34375,8.5625,1.28125
470,470,1727462161668,-1.0185547,0.18066406,-0.11230469,-6.875,-4.3125,4.78125
471,471,1727462161708,-0.9980469,0.045898438,-0.0126953125,-22.375,-8.40625,0.875
472,472,1727462161748,-0.9248047,-0.064453125,-0.09667969,-24.875,-14.8125,-5.25
473,473,1727462161788,-1.0107422,-0.021484375,-0.14160156,-6.09375,3.625,-6.53125
474,474,1727462161828,-1.0273438,0.05078125,-0.09863281,-12.84375,13.28125,-3.78125
475,475,1727462161868,-1.0166016,-0.0048828125,0.01171875,-9.625,14.25,-3.03125
476,476,1727462161908,-1.0351562,-0.07714844,0.017578125,-14.09375,-1.375,-17.625
477,477,1727462161948,-0.9814453,0.029296875,-0.0234375,-16.40625,-19.125,-22.5
478,478,1727462161988,-0.9511719,-0.08105469,-0.07421875,-11.75,-18.28125,-12.0
479,479,1727462162028,-0.9794922,-0.13085938,-0.08105469,-11.625,-8.59375,-17.8125
480,480,1727462162068,-0.9267578,-0.13085938,-0.017578125,-2.53125,-3.34375,-20.75
481,481,1727462162108,-0.8730469,-0.06640625,-0.0126953125,12.28125,-2.0625,-12.0625
482,482,1727462162148,-0.8105469,-0.026367188,-0.01171875,10.28125,-7.3125,-2.71875
483,483,1727462162188,-0.82714844,-0.04296875,-0.095703125,1.25,-5.59375,6.90625
484,484,1727462162228,-1.0693359,-0.12207031,-0.18847656,17.21875,6.0,9.71875
485,485,1727462162268,-1.0332031,-0.078125,-0.2861328,46.53125,24.625,3.375
486,486,1727462162308,-1.0761719,-0.11035156,0.020507812,36.40625,25.78125,-11.40625
487,487,1727462162348,-1.0644531,0.060546875,-0.018554688,1.125,-7.3125,-0.71875
488,488,1727462162388,-1.0732422,-0.076171875,-0.24707031,-15.65625,-18.59375,11.84375
489,489,1727462162428,-0.96484375,-0.2109375,-0.26757812,-40.3125,-3.40625,16.0625
490,490,1727462162468,-0.9628906,-0.28222656,-0.21484375,-16.875,9.3125,18.9375
491,491,1727462162508,-0.9589844,-0.17382812,-0.18847656,-5.34375,13.875,19.0625
492,492,1727462162548,-0.93066406,-0.19726562,-0.09277344,-13.09375,13.15625,15.9375
493,493,1727462162588,-0.9794922,-0.24316406,-0.05859375,-12.0,9.3125,11.78125
494,494,1727462162628,-1.0,-0.17773438,-0.12011719,4.53125,0.875,9.15625
495,495,1727462162668,-1.0800781,-0.13476562,-0.111328125,12.65625,-0.53125,13.4375
496,496,1727462162708,-1.1005859,0.12109375,-0.045898438,38.21875,-1.1875,3.75
497,497,1727462162748,-1.0107422,0.23730469,-0.1484375,14.96875,-7.0625,3.6875
498,498,1727462162788,-0.97753906,0.11230469,-0.17480469,-13.34375,-7.96875,5.375
499,499,1727462162828,-1.0341797,0.053710938,-0.15234375,-15.125,-2.125,-0.15625
500,500,1727462162868,-1.0390625,0.05078125,-0.12695312,-20.4375,5.625,-10.59375
501,501,1727462162908,-1.03125,0.034179688,-0.04296875,-28.90625,5.46875,-19.34375
502,502,1727462162948,-1.0,0.01953125,0.020507812,-37.875,-14.375,-25.8125
503,503,1727462162988,-0.9785156,-0.013671875,-0.048828125,-44.96875,-23.40625,-15.1875
504,504,1727462163028,-0.9453125,-0.0859375,-0.10546875,-37.21875,-13.90625,-12.1875
505,505,1727462163068,-0.96484375,-0.28222656,-0.080078125,-13.15625,-5.40625,-16.40625
506,506,1727462163108,-0.9941406,-0.20703125,-0.048828125,23.75,-5.40625,-24.21875
507,507,1727462163148,-0.9794922,0.064453125,-0.040039062,39.875,-6.09375,-23.125
508,508,1727462163188,-0.86816406,-0.018554688,-0.0029296875,9.65625,-0.09375,-16.78125
509,509,1727462163228,-0.9316406,-0.052734375,-0.03125,13.5,-0.21875,-9.6875
510,510,1727462163268,-0.9267578,-0.022460938,0.0,4.53125,-3.15625,-2.90625
511,511,1727462163308,-0.82714844,-0.046875,-0.03125,-5.03125,-1.3125,-1.875
512,512,1727462163348,-0.87890625,-0.053710938,-0.072265625,-2.125,1.5625,-4.3125
513,513,1727462163388,-1.03125,-0.068359375,-0.13183594,3.5,9.3125,5.03125
514,514,1727462163428,-1.2978516,-0.0126953125,-0.09082031,-0.03125,4.1875,9.71875
515,515,1727462163468,-0.9267578,-0.3017578,-0.16015625,-12.125,11.75,8.25
516,516,1727462163508,-0.8701172,-0.13378906,0.01171875,-9.0,-4.5625,-5.3125
517,517,1727462163548,-1.0537109,-0.19824219,-0.22558594,-1.375,-7.25,-5.90625
518,518,1727462163588,-0.9785156,-0.22265625,-0.17578125,-4.9375,5.625,-1.75
519,519,1727462163628,-1.0166016,-0.21972656,-0.12890625,-0.15625,10.28125,6.0625
520,520,1727462163668,-0.9970703,-0.18359375,-0.15429688,8.125,8.3125,13.5
521,521,1727462163708,-0.9902344,-0.1171875,-0.15820312,3.0625,10.09375,16.8125
522,522,1727462163748,-0.97753906,-0.14355469,-0.13183594,-2.375,10.40625,17.34375
523,523,1727462163788,-0.984375,-0.1484375,-0.12597656,-9.375,7.78125,16.5
524,524,1727462163828,-0.98828125,-0.19140625,-0.091796875,-16.40625,4.0625,18.9375
525,525,1727462163868,-0.9326172,-0.18359375,-0.11425781,-1.8125,2.21875,18.3125
526,526,1727462163908,-1.0195312,-0.1015625,-0.10839844,-11.875,-2.40625,10.4375
527,527,1727462163948,-1.0458984,-0.060546875,-0.08300781,-4.375,-9.6875,-0.53125
528,528,1727462163988,-1.0380859,0.107421875,-0.11425781,4.15625,-20.0,-4.1875
529,529,1727462164028,-1.0615234,0.13769531,-0.060546875,-11.875,-9.8125,-5.3125
530,530,1727462164068,-1.0849609,0.08496094,-0.08300781,-32.9375,-9.1875,-1.5625
531,531,1727462164108,-0.9970703,0.0029296875,-0.11816406,-24.625,-1.5,8.5625
532,532,1727462164148,-0.9716797,-0.043945312,-0.07519531,-27.03125,7.96875,4.71875
533,533,1727462164188,-0.9921875,-0.080078125,-0.0029296875,-34.78125,11.0,-10.78125
534,534,1727462164228,-0.96875,-0.19433594,0.017578125,-20.3125,-6.25,-23.53125
535,535,1727462164268,-0.9785156,-0.0078125,0.0107421875,-12.96875,-26.34375,-28.90625
536,536,1727462164308,-0.97265625,-0.09277344,-0.057617188,-12.4375,-24.9375,-22.8125
537,537,1727462164348,-1.0332031,-0.19042969,-0.052734375,-10.0625,-9.6875,-24.03125
538,538,1727462164388,-0.9785156,-0.18066406,0.033203125,8.9375,-12.625,-18.84375
539,539,1727462164428,-0.9716797,-0.20703125,0.01171875,37.375,-9.125,-15.125
540,540,1727462164468,-0.8984375,-0.072265625,0.0078125,43.40625,-0.84375,-13.84375
541,541,1727462164508,-0.8613281,0.0126953125,0.017578125,30.96875,-2.40625,-4.25
542,542,1727462164548,-0.7871094,-0.030273438,0.020507812,12.96875,-4.375,-3.59375
543,543,1727462164588,-0.7578125,-0.09472656,-0.06542969,1.53125,-0.90625,-10.59375
544,544,1727462164628,-1.0439453,-0.08496094,-0.103515625,14.125,20.84375,1.59375
545,545,1727462164668,-1.3691406,-0.12011719,-0.068359375,25.34375,18.625,12.9375
546,546,1727462164708,-0.96972656,-0.16503906,-0.013671875,-11.03125,18.875,9.28125
547,547,1727462164748,-0.89160156,-0.10644531,-0.13476562,12.84375,-7.71875,8.25
548,548,1727462164788,-1.0585938,-0.1171875,-0.20996094,11.5,7.78125,0.25
549,549,1727462164828,-0.9716797,-0.16113281,-0.12597656,-8.65625,7.53125,4.90625
550,550,1727462164868,-0.99609375,-0.23925781,-0.123046875,-14.09375,9.3125,7.59375
551,551,1727462164908,-1.0410156,-0.24804688,-0.15136719,-6.21875,8.8125,10.5
552,552,1727462164948,-0.9580078,-0.15625,-0.14746094,1.5,9.5,14.28125
553,553,1727462164988,-0.9589844,-0.171875,-0.119140625,-2.46875,13.28125,16.5
554,554,1727462165028,-0.98339844,-0.18847656,-0.091796875,-11.5625,9.1875,13.625
555,555,1727462165068,-0.99121094,-0.23242188,-0.091796875,0.5,5.03125,10.5625
556,556,1727462165108,-0.9550781,-0.11816406,-0.13378906,9.34375,-4.90625,7.53125
557,557,1727462165148,-1.0097656,-0.083984375,-0.10546875,-8.71875,-2.0,6.59375
558,558,1727462165188,-1.0078125,-0.057617188,-0.055664062,5.09375,-3.28125,6.3125
559,559,1727462165228,-1.0585938,0.016601562,-0.08886719,6.0,-5.65625,3.25
560,560,1727462165268,-1.0019531,0.07519531,-0.09375,-0.96875,-5.09375,4.71875
561,561,1727462165308,-1.0117188,0.0009765625,-0.11035156,0.6875,-1.125,9.53125
562,562,1727462165348,-1.0361328,-0.026367188,-0.05859375,-2.90625,6.0,4.84375
563,563,1727462165388,-1.0791016,-0.053710938,-0.055664062,2.59375,9.90625,0.5
564,564,1727462165428,-1.0644531,0.040039062,-0.041992188,-15.59375,0.9375,-2.375
565,565,1727462165468,-0.9794922,-0.08105469,-0.051757812,-19.8125,0.5625,-2.5625
566,566,1727462165508,-1.0019531,-0.19335938,-0.018554688,-18.21875,0.5625,-19.34375
567,567,1727462165548,-0.9716797,-0.13867188,-0.001953125,4.71875,-14.6875,-36.90625
568,568,1727462165588,-0.98828125,-0.032226562,-0.036132812,5.40625,-20.96875,-33.96875
569,569,1727462165628,-0.9199219,-0.076171875,-0.0048828125,-5.90625,-19.5,-25.25
570,570,1727462165668,-0.93847656,-0.32617188,-0.045898438,-3.03125,-3.34375,-19.625
571,571,1727462165708,-0.9121094,-0.23535156,-0.0234375,32.96875,3.5625,-15.96875
572,572,1727462165748,-0.8310547,-0.021484375,0.01953125,53.3125,-0.84375,-4.6875
573,573,1727462165788,-0.7138672,0.11816406,0.018554688,19.90625,-1.8125,4.96875
574,574,1727462165828,-0.9248047,0.08496094,-0.10058594,-6.21875,-7.375,23.625
575,575,1727462165868,-1.3203125,-0.09375,-0.34179688,-15.78125,-1.3125,13.875
576,576,1727462165908,-1.0205078,-0.6542969,0.045898438,-59.84375,27.75,-7.4375
577,577,1727462165948,-0.9345703,-0.2265625,-0.087890625,16.375,-17.375,4.03125
578,578,1727462165988,-1.0859375,-0.31445312,-0.24316406,58.96875,-0.78125,14.125
579,579,1727462166028,-1.0,-0.15039062,-0.21777344,13.6875,16.625,15.28125
580,580,1727462166068,-0.98339844,-0.10839844,-0.140625,24.125,21.03125,18.09375
581,581,1727462166108,-1.03125,-0.08300781,-0.10253906,19.25,13.875,19.375
582,582,1727462166148,-0.95410156,-0.049804688,-0.09863281,-0.28125,7.46875,17.78125
583,583,1727462166188,-0.97265625,-0.10644531,-0.115234375,-1.6875,1.90625,23.4375
584,584,1727462166228,-1.0136719,-0.24121094,-0.10449219,-6.5625,8.15625,23.15625
585,585,1727462166268,-0.94140625,-0.11230469,-0.052734375,1.4375,0.625,11.78125
586,586,1727462166308,-0.9394531,-0.14746094,-0.13085938,-5.46875,-1.4375,10.875
587,587,1727462166348,-1.0498047,-0.0078125,-0.07714844,26.6875,7.34375,2.21875
588,588,1727462166388,-1.0888672,0.22167969,-0.06933594,5.5,-1.5625,-2.0625
589,589,1727462166428,-1.0439453,0.1015625,-0.043945312,-7.59375,-4.4375,8.75
590,590,1727462166468,-1.0419922,-0.018554688,-0.061523438,-6.8125,-7.0,9.96875
591,591,1727462166508,-1.0478516,-0.0087890625,-0.055664062,-6.28125,-3.46875,0.875
592,592,1727462166548,-1.0537109,0.0625,-0.041015625,-1.03125,-3.28125,0.375
593,593,1727462166588,-0.9892578,0.047851562,-0.024414062,-21.09375,-9.6875,-3.90625
594,594,1727462166628,-0.94433594,-0.07421875,-0.04296875,-39.46875,-13.46875,-11.78125
595,595,1727462166668,-1.0214844,-0.14550781,0.0,-20.90625,-11.5,-24.65625
596,596,1727462166708,-1.0292969,-0.06933594,0.053710938,-18.03125,-21.53125,-34.78125
597,597,1727462166748,-0.96972656,-0.1171875,0.013671875,-5.15625,-26.40625,-30.6875
598,598,1727462166788,-0.9667969,-0.18652344,-0.01171875,1.5,-21.46875,-33.5
599,599,1727462166828,-0.9453125,-0.15429688,0.0009765625,28.9375,-16.53125,-39.0
600,600,1727462166868,-0.8769531,-0.107421875,0.06933594,43.71875,-17.6875,-28.90625
601,601,1727462166908,-0.8730469,-0.052734375,0.091796875,27.125,-10.28125,-18.34375
602,602,1727462166948,-0.8876953,-0.13183594,0.028320312,8.5,-3.15625,-10.25
603,603,1727462166988,-0.8066406,-0.15527344,-0.0078125,12.21875,6.0,-6.875
604,604,1727462167028,-0.8720703,-0.040039062,0.021484375,20.96875,15.84375,1.125
605,605,1727462167068,-1.2128906,0.0048828125,0.041015625,10.03125,31.6875,15.15625
606,606,1727462167108,-1.1787109,-0.12109375,-0.0078125,-8.875,20.90625,14.84375
607,607,1727462167148,-0.9638672,-0.119140625,-0.01171875,1.0,11.5625,18.3125
608,608,1727462167188,-0.8388672,-0.06542969,-0.099609375,10.53125,-1.125,27.0
609,609,1727462167228,-1.0195312,-0.21875,-0.16113281,-4.96875,12.71875,15.875
610,610,1727462167268,-0.98339844,-0.3828125,-0.021484375,-26.28125,12.65625,-5.40625
611,611,1727462167308,-1.0126953,-0.24511719,-0.09277344,1.84375,2.03125,-0.21875
612,612,1727462167348,-0.9794922,-0.20800781,-0.16308594,19.375,4.46875,10.28125
613,613,1727462167388,-0.9716797,-0.125,-0.12890625,2.875,13.9375,13.6875
614,614,1727462167428,-1.0234375,-0.18945312,-0.08984375,-0.90625,18.875,16.8125
615,615,1727462167468,-0.9824219,-0.12402344,-0.07519531,-9.6875,9.71875,11.625
616,616,1727462167508,-0.9746094,-0.13867188,-0.08105469,-16.53125,1.5625,12.09375
617,617,1727462167548,-0.9921875,-0.18652344,-0.12402344,-24.28125,3.3125,18.25
618,618,1727462167588,-0.9736328,-0.24902344,-0.140625,-2.53125,6.0,22.21875
619,619,1727462167628,-0.9980469,-0.043945312,-0.10546875,27.4375,15.46875,11.78125
620,620,1727462167668,-1.0585938,0.22167969,-0.052734375,9.65625,10.65625,3.0
621,621,1727462167708,-1.0761719,0.17382812,-0.05078125,-17.0625,-5.03125,5.3125
622,622,1727462167748,-1.0400391,-0.005859375,0.01171875,-31.0,-13.65625,3.5
623,623,1727462167788,-1.0292969,-0.05859375,-0.087890625,-19.375,-13.71875,4.03125
624,624,1727462167828,-1.0224609,-0.09765625,-0.03515625,-12.0,-2.53125,0.3125
625,625,1727462167868,-1.0263672,-0.10449219,-0.016601562,-18.21875,5.59375,-12.25
626,626,1727462167908,-0.98535156,-0.107421875,-0.08496094,-8.9375,3.625,-22.9375
627,627,1727462167948,-0.9707031,-0.18847656,-0.055664062,5.03125,4.0,-40.5
628,628,1727462167988,-1.0556641,0.0390625,0.1875,34.4375,-16.40625,-40.75
629,629,1727462168028,-0.89941406,-0.03125,0.07128906,-4.4375,-38.5625,-24.40625
630,630,1727462168068,-0.8378906,-0.16992188,-0.01953125,-21.09375,-30.25,-18.0
631,631,1727462168108,-0.828125,-0.203125,-0.034179688,4.90625,-12.71875,-16.71875
632,632,1727462168148,-0.80859375,-0.21484375,0.01171875,31.5,4.3125,-10.96875
633,633,1727462168188,-0.8720703,-0.037109375,0.13769531,18.5625,11.125,-6.46875
634,634,1727462168228,-0.9941406,0.123046875,-0.08203125,2.53125,16.0625,16.96875
635,635,1727462168268,-1.1572266,-0.15332031,-0.28515625,32.5,19.1875,29.625
636,636,1727462168308,-1.0849609,-0.12109375,0.13574219,-36.90625,23.21875,-0.84375
637,637,1727462168348,-0.8574219,-0.00390625,-0.13183594,-5.65625,-7.375,8.5
638,638,1727462168388,-1.0273438,-0.17285156,-0.28222656,-5.21875,6.90625,9.28125
639,639,1727462168428,-1.0234375,-0.23242188,-0.13964844,-32.21875,3.625,2.8125
640,640,1727462168468,-1.0234375,-0.27734375,-0.17480469,-14.875,6.0625,9.78125
641,641,1727462168508,-0.99121094,-0.21289062,-0.1796875,12.71875,8.375,16.96875
642,642,1727462168548,-0.9580078,-0.08984375,-0.15917969,12.15625,8.3125,17.59375
643,643,1727462168588,-0.9736328,-0.12988281,-0.15429688,-4.25,13.6875,17.90625
644,644,1727462168628,-0.94921875,-0.22363281,-0.10546875,-5.53125,10.28125,19.1875
645,645,1727462168668,-0.91503906,-0.15527344,-0.020507812,20.28125,7.53125,6.71875
646,646,1727462168708,-1.0234375,-0.041992188,-0.0234375,-0.46875,-5.03125,-9.375
647,647,1727462168748,-1.2041016,-0.08886719,-0.1640625,-5.96875,-11.875,-6.21875
648,648,1727462168788,-1.0224609,0.051757812,-0.13183594,34.75,-0.9375,5.125
649,649,1727462168828,-1.0566406,0.2607422,-0.13671875,12.40625,7.65625,5.5
650,650,1727462168868,-1.0429688,0.11230469,-0.07519531,-14.5,7.96875,9.59375
651,651,1727462168908,-1.03125,-0.005859375,-0.030273438,-28.40625,-0.03125,5.375
652,652,1727462168948,-1.0244141,-0.041015625,-0.080078125,-29.59375,-2.53125,1.1875
653,653,1727462168988,-1.0185547,-0.083984375,-0.038085938,-25.1875,2.28125,-6.15625
654,654,1727462169028,-1.0009766,-0.16308594,-0.0087890625,-20.84375,2.78125,-18.65625
655,655,1727462169068,-1.0273438,-0.15625,0.057617188,-6.21875,-13.09375,-28.78125
656,656,1727462169108,-0.9873047,-0.119140625,-0.017578125,13.03125,-25.71875,-29.09375
657,657,1727462169148,-0.9628906,-0.12597656,-0.04296875,11.9375,-18.96875,-27.5625
658,658,1727462169188,-0.91503906,-0.20703125,0.0048828125,26.5,-13.65625,-31.78125
659,659,1727462169228,-0.88671875,-0.057617188,0.05078125,49.46875,-20.59375,-34.03125
660,660,1727462169268,-0.81640625,0.01171875,0.0625,8.1875,-16.21875,-22.15625
661,661,1727462169308,-0.73339844,-0.11230469,-0.0068359375,0.5625,-10.96875,-7.90625
662,662,1727462169348,-0.7910156,-0.16015625,-0.087890625,-10.1875,3.0625,3.84375
663,663,1727462169388,-1.2548828,-0.17578125,-0.265625,33.34375,25.125,31.8125
664,664,1727462169428,-1.0175781,-0.3017578,0.056640625,-2.46875,25.65625,-8.21875
665,665,1727462169468,-0.8613281,0.09277344,0.015625,-13.71875,-11.5,10.5625
666,666,1727462169508,-1.1064453,-0.2548828,-0.28710938,32.0625,-2.40625,17.78125
667,667,1727462169548,-1.0185547,-0.2109375,-0.24902344,-11.34375,20.03125,6.53125
668,668,1727462169588,-0.98339844,-0.10449219,-0.14160156,10.40625,19.875,14.78125
669,669,1727462169628,-1.0273438,-0.033203125,-0.14550781,2.84375,14.0625,18.1875
670,670,1727462169668,-0.98046875,-0.0625,-0.20605469,-36.59375,9.3125,15.53125
671,671,1727462169708,-0.9423828,-0.21191406,-0.048828125,-27.75,11.1875,23.03125
672,672,1727462169748,-0.9609375,-0.22753906,-0.15136719,-10.96875,3.4375,23.625
673,673,1727462169788,-1.0019531,-0.19140625,-0.103515625,-5.71875,11.25,19.1875
674,674,1727462169828,-0.9794922,-0.1796875,-0.055664062,8.75,7.65625,20.03125
675,675,1727462169868,-0.9560547,-0.024414062,-0.12207031,-2.125,1.6875,20.40625
676,676,1727462169908,-0.96777344,-0.056640625,-0.14648438,-14.5625,-3.21875,27.34375
677,677,1727462169948,-0.95703125,-0.053710938,-0.09277344,13.25,2.46875,16.1875
678,678,1727462169988,-0.9609375,0.009765625,-0.08691406,16.0625,-3.28125,-9.875
679,679,1727462170028,-1.0839844,-0.044921875,-0.0234375,-17.3125,-8.34375,-29.84375
680,680,1727462170068,-1.2324219,-0.0703125,-0.0390625,-8.28125,-14.625,-23.25
681,681,1727462170108,-1.0800781,0.11035156,-0.12695312,19.0,-2.59375,1.34375
682,682,1727462170148,-1.0390625,-0.0546875,-0.07714844,3.3125,21.25,4.34375
683,683,1727462170188,-1.1083984,-0.12890625,0.034179688,-16.21875,24.4375,-24.46875
684,684,1727462170228,-1.0146484,-0.107421875,0.001953125,6.5625,-3.9375,-38.5625
685,685,1727462170268,-0.9160156,-0.048828125,0.0107421875,10.09375,-23.15625,-35.5625
686,686,1727462170308,-0.8408203,-0.12207031,0.028320312,9.59375,-23.71875,-25.375
687,687,1727462170348,-0.8515625,-0.21484375,-0.08300781,21.375,-20.84375,-31.46875
688,688,1727462170388,-0.6074219,-0.09863281,0.022460938,22.0625,-24.9375,-31.96875
689,689,1727462170428,-0.6269531,-0.00390625,0.026367188,17.53125,-12.0,-19.28125
690,690,1727462170468,-1.3232422,-0.15527344,-0.36132812,-8.40625,26.9375,18.3125
691,691,1727462170508,-1.3476562,-0.36035156,-0.26464844,44.625,45.4375,36.21875
692,692,1727462170548,-0.9667969,0.1171875,0.029296875,33.96875,3.6875,0.5
693,693,1727462170588,-0.8935547,0.07128906,-0.18261719,-21.15625,-13.15625,11.3125
694,694,1727462170628,-1.0185547,-0.296875,-0.3466797,-12.84375,4.71875,24.125
695,695,1727462170668,-1.0253906,-0.4658203,-0.14257812,-31.71875,21.8125,17.15625
696,696,1727462170708,-0.9423828,-0.11425781,-0.09863281,42.0,-1.75,14.96875
697,697,1727462170748,-0.9980469,0.030273438,-0.203125,27.125,0.6875,17.53125
698,698,1727462170788,-1.0048828,0.0048828125,-0.20410156,-5.90625,0.9375,17.65625
699,699,1727462170828,-0.93359375,-0.19824219,-0.10449219,-8.34375,5.6875,27.78125
700,700,1727462170868,-0.95214844,-0.20605469,-0.21386719,9.65625,-5.90625,24.71875
701,701,1727462170908,-0.8613281,-0.07324219,-0.087890625,9.65625,7.40625,8.0
702,702,1727462170948,-0.84472656,-0.07421875,0.055664062,-4.75,5.6875,-2.5
703,703,1727462170988,-1.2509766,-0.16113281,-0.15136719,-27.25,-25.4375,-5.1875
704,704,1727462171028,-0.9921875,-0.064453125,-0.123046875,14.5,-13.40625,-5.0625
705,705,1727462171068,-0.9638672,0.11328125,-0.14257812,18.5,-3.8125,-9.03125
706,706,1727462171108,-1.1376953,0.025390625,-0.032226562,-23.34375,8.5625,-19.03125
707,707,1727462171148,-1.1210938,0.046875,-0.00390625,-20.25,4.53125,-13.78125
708,708,1727462171188,-1.0146484,-0.04296875,-0.076171875,0.75,1.25,1.65625
709,709,1727462171228,-1.0517578,0.026367188,0.005859375,2.21875,8.875,1.96875
710,710,1727462171268,-0.9941406,-0.0126953125,-0.024414062,-20.65625,2.46875,-13.59375
711,711,1727462171308,-1.0439453,-0.1796875,0.06738281,-23.34375,-2.59375,-28.4375
712,712,1727462171348,-0.9892578,-0.18359375,0.04296875,-10.59375,-24.4375,-36.5
713,713,1727462171388,-0.9042969,-0.20507812,0.02734375,0.21875,-20.46875,-28.96875
714,714,1727462171428,-0.9091797,-0.16699219,-0.022460938,25.96875,-12.71875,-21.15625
715,715,1727462171468,-0.8515625,-0.18261719,0.005859375,28.46875,-4.90625,-14.6875
716,716,1727462171508,-0.7988281,-0.13085938,0.056640625,21.875,4.0,-6.6875
717,717,1727462171548,-0.83496094,-0.06640625,0.0234375,28.28125,1.78125,3.90625
718,718,1727462171588,-1.0332031,-0.049804688,-0.11230469,7.71875,4.40625,26.875
719,719,1727462171628,-1.1337891,-0.09277344,-0.20800781,20.28125,1.5625,41.34375
720,720,1727462171668,-1.0488281,-0.11621094,-0.16796875,10.09375,21.6875,17.65625
721,721,1727462171708,-0.9267578,-0.21679688,0.043945312,-51.5625,14.25,12.28125
722,722,1727462171748,-0.9589844,-0.16796875,-0.18652344,12.59375,-6.75,17.34375
723,723,1727462171788,-0.8925781,-0.16015625,-0.21777344,-0.84375,-3.03125,10.625
724,724,1727462171828,-0.97558594,-0.27539062,-0.26757812,16.75,17.40625,4.96875
725,725,1727462171868,-1.0517578,-0.1953125,-0.051757812,14.1875,22.5,2.5625
726,726,1727462171908,-0.9667969,-0.047851562,-0.2109375,22.125,3.3125,10.3125
727,727,1727462171948,-0.9609375,-0.09667969,-0.14257812,5.75,6.625,15.9375
728,728,1727462171988,-1.015625,-0.23535156,-0.16015625,2.28125,13.21875,13.9375
729,729,1727462172028,-0.94140625,-0.19921875,-0.11230469,22.84375,18.09375,7.15625
730,730,1727462172068,-1.0527344,-0.060546875,-0.021484375,3.875,6.96875,7.75
731,731,1727462172108,-1.0634766,-0.0078125,-0.17480469,-20.0625,-7.0625,18.875
732,732,1727462172148,-0.99121094,-0.08203125,-0.14941406,-2.59375,-1.0625,23.875
733,733,1727462172188,-0.9472656,-0.0087890625,-0.03515625,11.4375,-6.625,6.40625
734,734,1727462172228,-1.0693359,0.140625,-0.12402344,-10.28125,-18.03125,-11.71875
735,735,1727462172268,-0.9970703,0.03125,-0.103515625,-26.21875,-14.6875,-9.6875
736,736,1727462172308,-1.0371094,-0.0625,-0.06640625,-5.21875,-4.625,-1.5
737,737,1727462172348,-1.0273438,0.08886719,-0.083984375,-16.53125,7.09375,-7.25
738,738,1727462172388,-1.0302734,-0.034179688,-0.061523438,-32.5625,7.03125,-12.875
739,739,1727462172428,-1.0585938,-0.24023438,0.0048828125,-42.28125,10.8125,-33.0
740,740,1727462172468,-1.0039062,-0.16113281,0.03125,4.65625,-13.28125,-39.65625
741,741,1727462172508,-1.0458984,0.0009765625,-0.0087890625,19.90625,-18.84375,-29.40625
742,742,1727462172548,-0.9296875,-0.15820312,-0.052734375,-7.78125,-8.9375,-28.1875
743,743,1727462172588,-0.87890625,-0.23730469,-0.041015625,18.40625,2.71875,-24.28125
744,744,1727462172628,-0.85058594,-0.20019531,-0.09667969,50.125,10.40625,-19.59375
745,745,1727462172668,-0.7841797,-0.064453125,-0.0078125,67.09375,12.125,-8.71875
746,746,1727462172708,-0.8027344,0.13574219,0.0234375,69.78125,-2.46875,7.28125
747,747,1727462172748,-1.1210938,0.13378906,-0.2265625,27.3125,0.4375,18.03125
748,748,1727462172788,-1.1328125,-0.18359375,-0.3701172,11.4375,21.8125,9.71875
749,749,1727462172828,-1.0869141,-0.36035156,0.25195312,-60.28125,38.0625,-13.53125
750,750,1727462172868,-1.0117188,-0.009765625,-0.19726562,20.90625,-16.5625,5.5
751,751,1727462172908,-0.9794922,-0.10253906,-0.33984375,15.21875,-0.90625,13.4375
752,752,1727462172948,-0.91796875,-0.10449219,-0.15625,-19.625,13.09375,13.375
753,753,1727462172988,-1.03125,-0.18554688,-0.13671875,-7.4375,10.8125,14.78125
754,754,1727462173028,-1.0009766,-0.15234375,-0.171875,-10.125,3.0,11.1875
755,755,1727462173068,-0.97753906,-0.14355469,-0.14746094,-14.1875,6.1875,17.15625
756,756,1727462173108,-1.0332031,-0.24316406,-0.12988281,-9.875,7.46875,21.625
757,757,1727462173148,-0.9375,-0.19726562,-0.17382812,3.75,0.15625,17.84375
758,758,1727462173188,-0.9550781,-0.0546875,-0.18261719,7.40625,-0.40625,13.25
759,759,1727462173228,-0.98046875,-0.1015625,-0.17578125,-6.375,-4.90625,8.9375
760,760,1727462173268,-0.9892578,-0.20019531,-0.16992188,-6.875,-0.84375,7.15625
761,761,1727462173308,-0.93652344,-0.18457031,-0.12207031,-9.0625,-1.0625,10.375
762,762,1727462173348,-0.9765625,-0.21875,-0.103515625,1.1875,-1.4375,11.4375
763,763,1727462173388,-0.9013672,-0.15136719,-0.08496094,1.96875,-7.1875,-1.9375
764,764,1727462173428,-1.0654297,-0.18261719,-0.1015625,-4.375,-10.53125,-10.53125
765,765,1727462173468,-1.1240234,-0.029296875,-0.047851562,6.25,-19.5,-16.46875
766,766,1727462173508,-1.0244141,0.20214844,-0.09082031,2.9375,-24.375,-12.4375
767,767,1727462173548,-1.0166016,0.14648438,-0.05078125,-27.125,-6.125,-1.4375
768,768,1727462173588,-1.0185547,-0.17285156,-0.051757812,-22.25,3.25,-1.8125
769,769,1727462173628,-1.0683594,0.0546875,-0.0029296875,-1.625,1.625,-5.84375
770,770,1727462173668,-1.0185547,0.09765625,-0.026367188,-10.0,-1.5625,-2.625
771,771,1727462173708,-1.0361328,-0.07714844,0.0107421875,-27.5,-0.78125,-6.46875
772,772,1727462173748,-1.0566406,-0.17089844,0.0009765625,-17.375,-7.0625,-18.3125
773,773,1727462173788,-0.99121094,-0.20507812,0.018554688,-7.90625,-14.6875,-30.75
774,774,1727462173828,-0.9902344,-0.14453125,0.0126953125,19.0,-15.28125,-29.59375
775,775,1727462173868,-0.9111328,-0.12792969,0.018554688,31.34375,-17.6875,-26.46875
776,776,1727462173908,-0.91503906,-0.15527344,0.022460938,15.46875,-10.78125,-30.3125
777,777,1727462173948,-0.90722656,-0.13378906,0.06933594,13.25,-5.09375,-29.28125
778,778,1727462173988,-0.89941406,-0.21289062,0.0546875,24.25,-4.5,-19.625
779,779,1727462174028,-0.8574219,-0.14941406,0.09375,27.71875,-2.65625,-16.15625
780,780,1727462174068,-0.79589844,-0.060546875,0.10644531,19.625,-3.40625,-8.53125
781,781,1727462174108,-0.890625,-0.048828125,-0.00390625,15.40625,-0.59375,5.625
782,782,1727462174148,-1.1611328,-0.21777344,-0.16699219,9.125,12.34375,19.90625
783,783,1727462174188,-1.0322266,-0.42578125,-0.111328125,1.25,25.0,-7.96875
784,784,1727462174228,-0.90527344,-0.12792969,-0.02734375,8.625,7.03125,-2.0
785,785,1727462174268,-1.0556641,-0.2578125,-0.20507812,31.09375,10.9375,8.5
