,Unnamed: 0,timestamp,accel_x,accel_y,accel_z,gyro_x,gyro_y,gyro_z
0,0,1727899451535,-1.0039062,-0.09472656,0.09375,-4.5625,-3.0,2.0625
1,1,1727899451575,-0.9921875,-0.09082031,0.080078125,-7.90625,-2.5625,2.09375
2,2,1727899451615,-1.0,-0.103515625,0.11230469,-7.5625,-2.75,2.21875
3,3,1727899451655,-0.9892578,-0.10839844,0.12207031,-7.3125,-3.0,2.46875
4,4,1727899451695,-1.0,-0.123046875,0.11425781,-6.28125,-4.15625,2.0
5,5,1727899451735,-0.98828125,-0.11621094,0.13085938,-5.84375,-4.40625,1.8125
6,6,1727899451775,-1.0009766,-0.11425781,0.119140625,-4.75,-4.9375,1.6875
7,7,1727899451815,-1.0029297,-0.10839844,0.14550781,-6.28125,-5.0,0.71875
8,8,1727899451855,-0.9873047,-0.10839844,0.14746094,-7.1875,-6.78125,1.5625
9,9,1727899451895,-0.98535156,-0.11035156,0.16796875,-5.34375,-6.03125,2.59375
10,10,1727899451935,-0.9970703,-0.109375,0.16992188,-1.875,-4.34375,1.9375
11,11,1727899451975,-0.9941406,-0.11035156,0.171875,3.5,-3.84375,0.59375
12,12,1727899452015,-0.9746094,-0.07714844,0.17089844,6.125,-3.96875,-0.40625
13,13,1727899452055,-0.97558594,-0.06933594,0.17773438,7.9375,-2.5,0.03125
14,14,1727899452095,-1.0,-0.07128906,0.17871094,7.9375,-0.3125,-1.1875
15,15,1727899452135,-1.0068359,-0.053710938,0.17382812,6.46875,0.90625,-1.1875
16,16,1727899452175,-1.0039062,-0.07910156,0.1640625,5.25,-1.53125,-0.5625
17,17,1727899452215,-0.9873047,-0.07714844,0.18652344,5.4375,-0.84375,-3.9375
18,18,1727899452255,-0.984375,-0.0546875,0.19433594,0.1875,0.25,-7.71875
19,19,1727899452295,-0.98828125,-0.057617188,0.20214844,1.0625,-1.15625,-7.65625
20,20,1727899452335,-0.9892578,-0.059570312,0.19726562,0.4375,-0.5,-8.375
21,21,1727899452375,-0.9658203,-0.09375,0.21289062,-1.09375,-3.1875,-7.59375
22,22,1727899452415,-0.9472656,-0.13378906,0.21777344,-1.03125,0.78125,-6.75
23,23,1727899452455,-0.91308594,-0.13867188,0.21679688,4.03125,3.46875,-7.34375
24,24,1727899452495,-0.90234375,-0.12402344,0.203125,13.625,5.125,-4.46875
25,25,1727899452535,-0.93359375,-0.1328125,0.21386719,17.65625,13.375,-0.15625
26,26,1727899452575,-1.0576172,-0.15234375,0.16992188,18.375,22.09375,1.625
27,27,1727899452615,-1.0634766,-0.053710938,0.1328125,22.34375,14.53125,3.625
28,28,1727899452655,-0.9736328,-0.0390625,0.091796875,13.75,8.84375,3.6875
29,29,1727899452695,-0.9375,-0.12011719,0.041015625,8.0625,15.8125,1.5
30,30,1727899452735,-0.99316406,-0.1328125,0.07421875,4.78125,16.78125,-1.375
31,31,1727899452775,-1.03125,-0.11035156,0.01953125,-3.53125,12.40625,-3.125
32,32,1727899452815,-1.0087891,-0.15917969,0.028320312,0.4375,8.84375,1.25
33,33,1727899452855,-1.0087891,-0.17675781,0.02734375,2.875,7.25,0.09375
34,34,1727899452895,-1.0224609,-0.12207031,0.026367188,14.40625,7.9375,-1.3125
35,35,1727899452935,-0.99609375,-0.12890625,0.0009765625,17.34375,6.40625,0.09375
36,36,1727899452975,-1.0175781,-0.09082031,0.032226562,5.5,8.71875,-1.5
37,37,1727899453015,-1.0166016,-0.07910156,0.01953125,0.0,1.53125,0.59375
38,38,1727899453055,-1.0048828,-0.1171875,0.0234375,-0.09375,-2.0625,4.0
39,39,1727899453095,-1.0087891,-0.13574219,0.041992188,-1.40625,-0.5,2.28125
40,40,1727899453135,-0.984375,-0.13476562,0.026367188,-2.6875,1.40625,0.40625
41,41,1727899453175,-0.9951172,-0.11230469,0.040039062,-5.46875,1.96875,-0.75
42,42,1727899453215,-1.0195312,-0.091796875,0.01171875,-3.78125,-0.96875,0.40625
43,43,1727899453255,-1.0214844,-0.10058594,0.07324219,-7.875,-1.84375,2.90625
44,44,1727899453295,-1.0126953,-0.103515625,0.0625,-14.03125,-6.90625,3.6875
45,45,1727899453335,-1.0009766,-0.10058594,0.07519531,-14.9375,-6.28125,5.28125
46,46,1727899453375,-1.0009766,-0.12207031,0.052734375,-10.65625,-8.1875,7.90625
47,47,1727899453415,-0.9980469,-0.12402344,0.078125,-6.21875,-12.4375,7.1875
48,48,1727899453455,-1.0136719,-0.056640625,0.09765625,-5.3125,-12.9375,4.0625
49,49,1727899453495,-1.0146484,-0.005859375,0.09667969,-6.03125,-10.8125,3.34375
50,50,1727899453535,-1.0009766,-0.033203125,0.15820312,-5.125,-13.78125,7.0
51,51,1727899453575,-0.9511719,-0.08496094,0.15820312,-2.78125,-16.125,6.0
52,52,1727899453615,-0.9501953,-0.12597656,0.15527344,-0.71875,-10.875,-1.8125
53,53,1727899453655,-0.9824219,-0.07421875,0.18457031,-3.40625,-3.46875,-11.4375
54,54,1727899453695,-1.0078125,-0.034179688,0.16796875,1.46875,-2.625,-11.8125
55,55,1727899453735,-1.0097656,-0.0390625,0.1640625,-0.65625,-1.03125,-7.03125
56,56,1727899453775,-1.0117188,-0.05078125,0.16796875,-9.25,-4.5625,-4.53125
57,57,1727899453815,-1.0048828,-0.103515625,0.1640625,-11.9375,-6.03125,-3.8125
58,58,1727899453855,-0.9785156,-0.119140625,0.18164062,-10.1875,-3.78125,-4.96875
59,59,1727899453895,-0.96972656,-0.13769531,0.19726562,-6.28125,-4.40625,-7.96875
60,60,1727899453935,-0.9707031,-0.16015625,0.18457031,2.21875,-3.21875,-9.375
61,61,1727899453975,-0.9511719,-0.14746094,0.203125,8.1875,-1.59375,-10.21875
62,62,1727899454015,-0.94628906,-0.125,0.19140625,9.40625,1.90625,-10.53125
63,63,1727899454055,-0.92285156,-0.13769531,0.18652344,12.21875,-0.5625,-7.0
64,64,1727899454095,-0.8955078,-0.13671875,0.17382812,12.65625,-0.90625,-3.09375
65,65,1727899454135,-0.9355469,-0.13183594,0.15234375,22.71875,4.8125,1.0625
66,66,1727899454175,-1.0537109,-0.1171875,0.17578125,24.1875,16.53125,2.96875
67,67,1727899454215,-1.0585938,-0.04296875,0.11230469,12.65625,23.875,-0.09375
68,68,1727899454255,-0.9628906,-0.0859375,0.099609375,9.84375,5.5,5.96875
69,69,1727899454295,-0.9482422,-0.103515625,0.12207031,0.0625,12.40625,3.15625
70,70,1727899454335,-0.9736328,-0.17480469,0.072265625,-0.71875,14.53125,-0.6875
71,71,1727899454375,-1.0429688,-0.15332031,0.049804688,9.03125,17.40625,-5.53125
72,72,1727899454415,-1.0283203,-0.12011719,0.022460938,11.4375,13.0,-3.875
73,73,1727899454455,-0.9951172,-0.12207031,0.015625,12.90625,8.71875,-1.3125
74,74,1727899454495,-1.0283203,-0.13378906,0.0546875,9.34375,10.6875,-2.15625
75,75,1727899454535,-1.0117188,-0.12207031,0.03515625,10.625,7.09375,-0.03125
76,76,1727899454575,-0.9892578,-0.13476562,0.028320312,6.1875,6.59375,1.5
77,77,1727899454615,-1.0224609,-0.11425781,0.0068359375,1.21875,6.90625,2.65625
78,78,1727899454655,-1.0097656,-0.12402344,0.030273438,1.46875,2.75,6.5
79,79,1727899454695,-0.9794922,-0.15136719,0.046875,-2.78125,3.84375,2.21875
80,80,1727899454735,-0.9941406,-0.12109375,0.033203125,-6.34375,8.4375,-3.8125
81,81,1727899454775,-1.0224609,-0.09765625,0.020507812,-5.3125,2.5,-1.5625
82,82,1727899454815,-1.0214844,-0.103515625,0.052734375,-16.09375,1.78125,-2.28125
83,83,1727899454855,-1.0117188,-0.12109375,0.05859375,-25.125,-4.5,-1.25
84,84,1727899454895,-0.9970703,-0.15820312,0.03125,-24.59375,-8.65625,1.8125
85,85,1727899454935,-0.9970703,-0.18554688,0.022460938,-17.3125,-7.5625,4.375
86,86,1727899454975,-1.0009766,-0.17578125,0.040039062,-21.46875,-4.8125,3.5
87,87,1727899455015,-1.0,-0.15527344,0.03125,-20.625,-6.15625,4.71875
88,88,1727899455055,-1.0058594,-0.14648438,0.030273438,-21.90625,-6.65625,7.3125
89,89,1727899455095,-1.0019531,-0.17480469,0.036132812,-21.34375,-9.8125,9.125
90,90,1727899455135,-0.99902344,-0.17089844,0.017578125,-16.15625,-9.53125,7.90625
91,91,1727899455175,-0.9980469,-0.11621094,0.036132812,-15.4375,-8.0,4.96875
92,92,1727899455215,-0.98046875,-0.111328125,0.046875,-16.28125,-7.25,4.625
93,93,1727899455255,-1.0087891,-0.08691406,0.08105469,-17.375,-7.5,5.84375
94,94,1727899455295,-1.0205078,-0.05859375,0.10058594,-13.65625,-9.875,6.6875
95,95,1727899455335,-1.0126953,-0.026367188,0.109375,-9.8125,-11.90625,7.0
96,96,1727899455375,-0.98828125,-0.046875,0.13574219,-8.59375,-14.09375,4.25
97,97,1727899455415,-0.9863281,-0.07324219,0.16796875,-8.65625,-12.625,1.5625
98,98,1727899455455,-0.9902344,-0.068359375,0.14550781,-9.15625,-9.53125,1.9375
99,99,1727899455495,-1.0087891,-0.07421875,0.17480469,-5.71875,-6.46875,1.375
100,100,1727899455535,-1.0273438,-0.08203125,0.17773438,-5.53125,-4.21875,-0.625
101,101,1727899455575,-0.9863281,-0.107421875,0.18066406,-4.3125,-5.90625,-3.375
102,102,1727899455615,-0.9736328,-0.11035156,0.19335938,-4.1875,-3.71875,-7.96875
103,103,1727899455655,-0.9589844,-0.1171875,0.18359375,2.40625,-3.53125,-9.65625
104,104,1727899455695,-0.9501953,-0.12402344,0.17675781,7.28125,-4.46875,-8.625
105,105,1727899455735,-0.9736328,-0.1171875,0.19042969,9.03125,-0.4375,-10.46875
106,106,1727899455775,-1.0195312,-0.09375,0.21289062,11.1875,0.96875,-10.78125
107,107,1727899455815,-0.99316406,-0.103515625,0.18945312,14.96875,-3.46875,-6.4375
108,108,1727899455855,-0.9121094,-0.11328125,0.16210938,21.375,-6.90625,-3.125
109,109,1727899455895,-0.8701172,-0.14160156,0.16210938,31.6875,-5.4375,0.40625
110,110,1727899455935,-0.9277344,-0.09863281,0.16601562,34.5,12.09375,-2.53125
111,111,1727899455975,-1.0488281,-0.10644531,0.18164062,33.15625,20.9375,-3.125
112,112,1727899456015,-1.0498047,0.03515625,0.12890625,27.34375,21.84375,-3.875
113,113,1727899456055,-0.9716797,-0.021484375,0.11230469,20.65625,8.71875,2.65625
114,114,1727899456095,-0.9423828,-0.11035156,0.08886719,12.40625,15.4375,-0.9375
115,115,1727899456135,-1.0029297,-0.103515625,0.09472656,2.28125,15.375,-8.5625
116,116,1727899456175,-1.0263672,-0.087890625,0.041015625,7.875,8.59375,-2.96875
117,117,1727899456215,-1.0166016,-0.13769531,0.0146484375,9.09375,12.9375,2.0625
118,118,1727899456255,-1.0429688,-0.14550781,0.06542969,1.40625,12.03125,-2.59375
119,119,1727899456295,-1.0380859,-0.09863281,0.045898438,1.71875,8.4375,-4.0
120,120,1727899456335,-0.98339844,-0.12597656,0.025390625,7.875,3.53125,-1.125
121,121,1727899456375,-1.0117188,-0.13183594,0.018554688,0.1875,7.5,-3.5625
122,122,1727899456415,-1.0126953,-0.11621094,0.0107421875,-5.40625,0.25,-4.78125
123,123,1727899456455,-1.0175781,-0.11035156,0.018554688,-9.25,2.4375,-3.625
124,124,1727899456495,-1.0166016,-0.119140625,0.03125,-13.34375,0.6875,-1.84375
125,125,1727899456535,-1.0087891,-0.12011719,0.055664062,-12.3125,-0.4375,0.8125
126,126,1727899456575,-0.9863281,-0.13183594,0.06933594,-15.84375,-1.03125,2.84375
127,127,1727899456615,-0.9970703,-0.17773438,0.0546875,-15.25,-2.375,4.4375
128,128,1727899456655,-1.015625,-0.1875,0.06542969,-14.5,-0.84375,1.5625
129,129,1727899456695,-1.0058594,-0.13964844,0.049804688,-9.625,-3.84375,1.0625
130,130,1727899456735,-0.99316406,-0.13574219,0.041015625,-7.90625,-4.09375,2.21875
131,131,1727899456775,-0.9873047,-0.14453125,0.048828125,-12.125,-5.25,3.625
132,132,1727899456815,-1.0136719,-0.16308594,0.03515625,-12.25,-5.5,4.78125
133,133,1727899456855,-1.0087891,-0.15527344,0.04296875,-8.65625,-5.84375,5.84375
134,134,1727899456895,-1.0175781,-0.13574219,0.034179688,-6.03125,-4.875,5.40625
135,135,1727899456935,-1.0097656,-0.11328125,0.059570312,-7.0625,-5.6875,4.71875
136,136,1727899456975,-0.9873047,-0.10644531,0.0703125,-10.59375,-6.34375,3.5625
137,137,1727899457015,-1.015625,-0.09082031,0.076171875,-10.90625,-5.5625,4.125
138,138,1727899457055,-1.0068359,-0.061523438,0.10449219,-5.78125,-9.09375,8.75
139,139,1727899457095,-0.9902344,-0.091796875,0.10839844,-1.21875,-13.0,10.03125
140,140,1727899457135,-0.9970703,-0.08105469,0.1484375,0.9375,-12.09375,5.21875
141,141,1727899457175,-0.9785156,-0.05078125,0.13574219,-0.0625,-9.34375,-1.375
142,142,1727899457215,-0.97265625,-0.06933594,0.15136719,-0.34375,-10.8125,-2.15625
143,143,1727899457255,-0.9824219,-0.107421875,0.1640625,-12.25,-8.71875,-3.09375
144,144,1727899457295,-1.0117188,-0.12011719,0.18945312,-18.96875,-4.6875,-4.46875
145,145,1727899457335,-1.0048828,-0.140625,0.1796875,-8.59375,-4.5,-0.46875
146,146,1727899457375,-0.9511719,-0.14550781,0.1796875,9.78125,1.96875,2.09375
147,147,1727899457415,-0.96484375,-0.12109375,0.17480469,16.4375,8.59375,-1.0
148,148,1727899457455,-0.9902344,-0.064453125,0.15722656,17.59375,9.53125,-3.4375
149,149,1727899457495,-0.9892578,-0.056640625,0.14257812,10.5,9.71875,-5.46875
150,150,1727899457535,-0.9873047,-0.08300781,0.16699219,6.90625,8.1875,-7.40625
151,151,1727899457575,-0.9736328,-0.080078125,0.15917969,6.25,5.75,-10.21875
152,152,1727899457615,-0.9716797,-0.091796875,0.13964844,5.4375,1.84375,-11.5625
153,153,1727899457655,-0.9785156,-0.107421875,0.15332031,1.40625,-1.03125,-9.90625
154,154,1727899457695,-0.9667969,-0.111328125,0.17480469,7.71875,-5.625,-7.21875
155,155,1727899457735,-0.9355469,-0.12402344,0.18066406,21.0,-18.0625,4.78125
156,156,1727899457775,-0.93652344,-0.18554688,0.18847656,26.625,-19.90625,13.40625
157,157,1727899457815,-1.0302734,-0.14550781,0.16113281,37.5,-2.0625,5.90625
158,158,1727899457855,-1.0458984,-0.10839844,0.10644531,26.6875,21.3125,-5.21875
159,159,1727899457895,-1.0146484,-0.048828125,0.12402344,24.90625,20.09375,-3.9375
160,160,1727899457935,-0.99609375,-0.055664062,0.17871094,9.84375,18.0625,-4.96875
161,161,1727899457975,-1.0273438,-0.0390625,0.12402344,5.03125,17.15625,-4.53125
162,162,1727899458015,-1.0195312,-0.020507812,0.055664062,17.46875,7.9375,4.3125
163,163,1727899458055,-1.0087891,-0.029296875,0.020507812,23.75,4.6875,11.4375
164,164,1727899458095,-1.0019531,-0.09863281,0.046875,10.03125,8.1875,11.3125
165,165,1727899458135,-0.9921875,-0.07910156,0.057617188,-5.78125,7.5625,4.71875
166,166,1727899458175,-1.0107422,-0.049804688,0.025390625,-2.84375,6.09375,4.3125
167,167,1727899458215,-1.0097656,-0.09375,-0.025390625,-0.09375,10.0,5.90625
168,168,1727899458255,-1.0029297,-0.11621094,0.016601562,-12.6875,11.0,0.46875
169,169,1727899458295,-0.99902344,-0.111328125,0.028320312,-19.09375,4.8125,-1.375
170,170,1727899458335,-0.9921875,-0.12402344,0.0087890625,-16.71875,-0.1875,1.8125
171,171,1727899458375,-1.0195312,-0.12890625,0.0107421875,-14.875,-0.96875,1.9375
172,172,1727899458415,-1.0,-0.107421875,0.022460938,-9.25,4.34375,-1.8125
173,173,1727899458455,-1.0117188,-0.091796875,0.041992188,-13.34375,4.875,-4.25
174,174,1727899458495,-1.0136719,-0.06542969,0.030273438,-18.25,1.03125,-3.9375
175,175,1727899458535,-1.0,-0.064453125,0.025390625,-15.1875,-4.6875,1.8125
176,176,1727899458575,-0.9980469,-0.09765625,0.0625,-21.90625,-6.96875,2.0625
177,177,1727899458615,-1.0009766,-0.12792969,0.037109375,-27.6875,-8.53125,0.875
178,178,1727899458655,-1.0136719,-0.13964844,0.028320312,-25.625,-5.96875,1.25
179,179,1727899458695,-1.0029297,-0.16210938,0.041015625,-23.375,-5.25,1.375
180,180,1727899458735,-0.984375,-0.16308594,0.0625,-22.6875,-4.09375,-0.625
181,181,1727899458775,-1.0205078,-0.15917969,0.055664062,-19.8125,-3.59375,-2.09375
182,182,1727899458815,-1.0048828,-0.12402344,0.06542969,-13.34375,-5.0625,-2.03125
183,183,1727899458855,-0.9814453,-0.12011719,0.07128906,-7.4375,-7.8125,-0.09375
184,184,1727899458895,-0.9902344,-0.13183594,0.08691406,-7.25,-7.5625,-0.40625
185,185,1727899458935,-1.0019531,-0.1171875,0.11035156,-3.21875,-10.5,-2.53125
186,186,1727899458975,-0.9609375,-0.06933594,0.10253906,2.46875,-13.59375,-4.71875
187,187,1727899459015,-0.9667969,-0.09375,0.12695312,1.53125,-13.3125,-7.28125
188,188,1727899459055,-0.9814453,-0.103515625,0.12402344,-7.5,-7.375,-14.0625
189,189,1727899459095,-0.9453125,-0.111328125,0.140625,-4.0,-11.78125,-15.21875
190,190,1727899459135,-0.9746094,-0.11230469,0.1328125,6.25,-8.0625,-12.46875
191,191,1727899459175,-1.0195312,-0.068359375,0.13867188,13.125,-2.25,-11.125
192,192,1727899459215,-1.078125,-0.07519531,0.17089844,-1.9375,-8.375,-12.21875
193,193,1727899459255,-1.0488281,-0.10253906,0.19433594,-16.40625,-13.71875,-11.75
194,194,1727899459295,-1.0068359,-0.171875,0.19824219,-16.71875,-16.40625,-9.96875
195,195,1727899459335,-0.9902344,-0.18652344,0.21679688,-9.21875,-15.125,-9.625
196,196,1727899459375,-0.9736328,-0.16796875,0.203125,3.5625,-9.6875,-6.8125
197,197,1727899459415,-0.96777344,-0.19042969,0.19433594,9.03125,-7.4375,-4.71875
198,198,1727899459455,-0.97558594,-0.1875,0.19628906,7.9375,-0.1875,-6.4375
199,199,1727899459495,-0.9638672,-0.18945312,0.22070312,4.46875,4.09375,-6.4375
200,200,1727899459535,-0.953125,-0.203125,0.21582031,6.1875,4.34375,-3.8125
201,201,1727899459575,-0.9082031,-0.20898438,0.20410156,18.875,3.40625,-0.28125
202,202,1727899459615,-0.94140625,-0.19726562,0.19726562,28.5625,1.96875,1.75
203,203,1727899459655,-0.9423828,-0.17382812,0.17871094,30.15625,3.53125,2.09375
204,204,1727899459695,-0.9082031,-0.17382812,0.21191406,24.96875,8.65625,1.375
205,205,1727899459735,-1.0302734,-0.16113281,0.2109375,24.78125,15.5,0.875
206,206,1727899459775,-1.0644531,-0.076171875,0.13378906,29.84375,20.09375,7.34375
207,207,1727899459815,-0.99609375,-0.018554688,0.15234375,30.21875,1.65625,15.0625
208,208,1727899459855,-0.9580078,-0.09765625,0.14648438,15.15625,13.0,11.5
209,209,1727899459895,-0.9394531,-0.17089844,0.14355469,-1.40625,13.5,4.5
210,210,1727899459935,-1.0126953,-0.09277344,0.119140625,10.5625,18.25,4.71875
211,211,1727899459975,-0.9951172,-0.09472656,0.0859375,22.15625,14.84375,9.25
212,212,1727899460015,-0.9785156,-0.15722656,0.07421875,12.28125,10.5,6.8125
213,213,1727899460055,-1.0039062,-0.08105469,0.11816406,5.8125,10.75,2.34375
214,214,1727899460095,-0.99902344,-0.10546875,0.06933594,12.59375,7.25,5.03125
215,215,1727899460135,-0.9980469,-0.17285156,0.033203125,16.96875,11.21875,5.09375
216,216,1727899460175,-1.03125,-0.12597656,0.041992188,16.375,12.09375,4.5
217,217,1727899460215,-1.0195312,-0.099609375,0.0390625,16.84375,11.15625,7.40625
218,218,1727899460255,-0.9892578,-0.10449219,0.020507812,12.90625,12.34375,6.75
219,219,1727899460295,-0.98535156,-0.05859375,0.0146484375,11.625,11.90625,6.5
220,220,1727899460335,-1.0146484,-0.017578125,0.0078125,2.34375,8.59375,5.21875
221,221,1727899460375,-1.0273438,-0.06347656,-0.013671875,-8.71875,2.1875,4.1875
222,222,1727899460415,-1.015625,-0.07910156,0.013671875,-19.21875,-0.125,0.03125
223,223,1727899460455,-0.99902344,-0.07714844,0.0078125,-26.28125,-1.09375,-1.90625
224,224,1727899460495,-1.0087891,-0.107421875,-0.013671875,-26.84375,0.5,-1.0
225,225,1727899460535,-1.0029297,-0.0859375,0.036132812,-30.5,0.1875,-1.5
226,226,1727899460575,-0.9824219,-0.09082031,0.034179688,-36.5625,-1.28125,-1.0625
227,227,1727899460615,-1.015625,-0.12011719,0.04296875,-40.9375,-1.53125,-0.6875
228,228,1727899460655,-1.0009766,-0.171875,0.051757812,-38.9375,-1.46875,-1.25
229,229,1727899460695,-1.0175781,-0.17578125,0.053710938,-32.46875,-2.625,-2.21875
230,230,1727899460735,-0.9980469,-0.15429688,0.048828125,-27.15625,-6.28125,-1.25
231,231,1727899460775,-0.9980469,-0.16210938,0.047851562,-21.78125,-6.78125,-0.09375
232,232,1727899460815,-1.0019531,-0.16015625,0.041992188,-19.40625,-5.75,-0.5
233,233,1727899460855,-0.98828125,-0.14257812,0.03515625,-18.34375,-6.03125,-1.625
234,234,1727899460895,-0.9863281,-0.13964844,0.033203125,-14.5625,-6.21875,-1.4375
235,235,1727899460935,-0.98339844,-0.13671875,0.056640625,-14.28125,-4.40625,-2.71875
236,236,1727899460975,-0.9765625,-0.10839844,0.055664062,-10.0625,-3.40625,-3.6875
237,237,1727899461015,-0.9765625,-0.119140625,0.052734375,-6.875,-4.15625,-2.46875
238,238,1727899461055,-0.9873047,-0.103515625,0.068359375,-4.5625,-3.78125,-3.75
239,239,1727899461095,-0.98046875,-0.10644531,0.1015625,-3.21875,-12.5625,-2.21875
240,240,1727899461135,-0.9814453,-0.0859375,0.12011719,-8.28125,-18.0,-2.90625
241,241,1727899461175,-0.9658203,-0.12207031,0.1328125,-11.15625,-25.03125,-5.28125
242,242,1727899461215,-0.9238281,-0.1171875,0.1484375,-4.9375,-24.34375,-8.21875
243,243,1727899461255,-0.9404297,-0.119140625,0.15917969,6.375,-19.78125,-10.53125
244,244,1727899461295,-1.015625,-0.15917969,0.21386719,0.75,-9.34375,-16.375
245,245,1727899461335,-1.0761719,-0.15722656,0.21386719,-13.0625,2.1875,-22.65625
246,246,1727899461375,-1.0693359,-0.18066406,0.24902344,-3.21875,-7.5,-17.125
247,247,1727899461415,-1.0458984,-0.18652344,0.17871094,10.21875,-1.59375,-14.8125
248,248,1727899461455,-1.0146484,-0.23730469,0.25,19.90625,4.625,-9.65625
249,249,1727899461495,-1.0214844,-0.21679688,0.24804688,23.75,1.59375,-2.28125
250,250,1727899461535,-0.99902344,-0.19238281,0.16992188,44.625,5.0,2.90625
251,251,1727899461575,-0.9423828,-0.17285156,0.14746094,46.65625,10.6875,2.65625
252,252,1727899461615,-0.9511719,-0.16796875,0.140625,33.28125,19.65625,-4.53125
253,253,1727899461655,-0.96484375,-0.10449219,0.16113281,29.75,13.375,-2.96875
254,254,1727899461695,-0.9638672,-0.10644531,0.16894531,34.25,2.9375,6.25
255,255,1727899461735,-0.9345703,-0.11230469,0.13867188,35.15625,-2.1875,13.15625
256,256,1727899461775,-0.92578125,-0.09472656,0.13769531,32.65625,-6.96875,16.21875
257,257,1727899461815,-0.93652344,-0.061523438,0.16503906,27.0625,-1.59375,13.78125
258,258,1727899461855,-1.0136719,-0.072265625,0.1640625,22.84375,3.0,13.34375
259,259,1727899461895,-1.0380859,-0.043945312,0.13769531,10.375,19.34375,4.71875
260,260,1727899461935,-0.96875,-0.020507812,0.10546875,1.0625,11.125,7.125
261,261,1727899461975,-0.98046875,-0.028320312,0.11328125,-7.90625,12.28125,7.3125
262,262,1727899462015,-0.9736328,-0.060546875,0.10449219,-8.71875,12.15625,7.0625
263,263,1727899462055,-0.984375,-0.0703125,0.091796875,-12.0,7.75,6.0
264,264,1727899462095,-1.0302734,-0.056640625,0.049804688,-10.84375,3.90625,6.5625
265,265,1727899462135,-1.0039062,-0.14453125,0.020507812,-9.5,5.875,7.125
266,266,1727899462175,-1.0048828,-0.10058594,0.040039062,-13.28125,5.4375,0.53125
267,267,1727899462215,-1.015625,-0.045898438,0.0234375,-11.8125,8.78125,0.15625
268,268,1727899462255,-1.0019531,-0.055664062,-0.0029296875,-9.875,4.15625,3.625
269,269,1727899462295,-0.98339844,-0.076171875,0.040039062,-21.90625,5.4375,1.1875
270,270,1727899462335,-0.99609375,-0.09765625,0.024414062,-27.15625,6.78125,-1.96875
271,271,1727899462375,-1.0253906,-0.14550781,0.055664062,-27.21875,6.09375,-4.59375
272,272,1727899462415,-1.0175781,-0.15039062,0.02734375,-26.15625,3.34375,-5.875
273,273,1727899462455,-0.9921875,-0.13867188,0.0390625,-19.46875,0.96875,-4.78125
274,274,1727899462495,-1.0029297,-0.13671875,0.044921875,-16.28125,1.90625,-1.6875
275,275,1727899462535,-1.0224609,-0.119140625,0.049804688,-14.5,1.34375,1.0625
276,276,1727899462575,-1.0205078,-0.12402344,0.036132812,-12.5,-1.03125,1.5
277,277,1727899462615,-1.0117188,-0.09765625,0.025390625,-11.46875,-3.71875,3.15625
278,278,1727899462655,-0.99316406,-0.099609375,0.047851562,-10.375,-5.5625,5.65625
279,279,1727899462695,-0.98535156,-0.119140625,0.040039062,-15.5625,-7.09375,4.6875
280,280,1727899462735,-0.9873047,-0.12988281,0.049804688,-24.84375,-7.875,1.375
281,281,1727899462775,-1.0029297,-0.16601562,0.06542969,-26.15625,-7.03125,-1.96875
282,282,1727899462815,-1.0,-0.17480469,0.047851562,-20.5625,-7.1875,-2.65625
283,283,1727899462855,-1.015625,-0.1328125,0.036132812,-14.34375,-6.28125,-2.46875
284,284,1727899462895,-1.0039062,-0.115234375,0.018554688,-11.28125,-5.4375,-1.5
285,285,1727899462935,-0.9550781,-0.10253906,0.055664062,-15.4375,-3.21875,-2.65625
286,286,1727899462975,-0.9345703,-0.12597656,0.08984375,-17.5625,-4.09375,-4.0625
287,287,1727899463015,-0.9511719,-0.1484375,0.11230469,-11.40625,-8.0,-5.40625
288,288,1727899463055,-0.9707031,-0.14941406,0.12109375,-1.75,-12.5625,-7.71875
289,289,1727899463095,-0.9746094,-0.125,0.14355469,-2.25,-14.21875,-10.28125
290,290,1727899463135,-0.98535156,-0.11328125,0.16210938,1.46875,-13.0,-12.59375
291,291,1727899463175,-1.0195312,-0.14746094,0.14257812,-0.34375,-7.25,-14.5625
292,292,1727899463215,-1.0351562,-0.12011719,0.171875,-0.46875,1.40625,-15.53125
293,293,1727899463255,-1.0595703,-0.099609375,0.18261719,-1.34375,1.09375,-13.9375
294,294,1727899463295,-1.0673828,-0.13378906,0.18457031,-10.4375,1.59375,-13.625
295,295,1727899463335,-1.0527344,-0.15625,0.18457031,-15.3125,-1.71875,-13.8125
296,296,1727899463375,-1.0,-0.21289062,0.18261719,-7.1875,-6.28125,-9.4375
297,297,1727899463415,-0.9658203,-0.22460938,0.1796875,10.625,-9.6875,-3.625
298,298,1727899463455,-0.93652344,-0.23144531,0.15625,27.96875,-9.34375,-1.5625
299,299,1727899463495,-0.9589844,-0.19335938,0.16015625,23.4375,0.1875,-4.65625
300,300,1727899463535,-0.9248047,-0.19335938,0.16113281,16.1875,6.34375,-6.75
301,301,1727899463575,-0.90625,-0.1953125,0.14453125,23.5625,3.84375,-2.65625
302,302,1727899463615,-0.93652344,-0.171875,0.16308594,33.46875,4.21875,3.4375
303,303,1727899463655,-0.9970703,-0.14453125,0.140625,31.15625,6.46875,4.375
304,304,1727899463695,-0.9814453,-0.15527344,0.17089844,24.4375,3.78125,9.5625
305,305,1727899463735,-0.9902344,-0.1640625,0.16992188,27.1875,4.28125,11.75
306,306,1727899463775,-1.0058594,-0.09082031,0.12011719,37.71875,15.625,10.71875
307,307,1727899463815,-1.0126953,-0.06738281,0.115234375,30.09375,9.15625,14.0625
308,308,1727899463855,-1.0126953,-0.11816406,0.12207031,15.53125,18.6875,10.03125
309,309,1727899463895,-0.9746094,-0.15332031,0.12402344,11.25,10.125,5.71875
310,310,1727899463935,-0.9658203,-0.115234375,0.09472656,18.9375,11.65625,2.34375
311,311,1727899463975,-0.9824219,-0.080078125,0.07519531,34.1875,10.25,7.53125
312,312,1727899464015,-0.9785156,-0.12988281,0.07421875,20.53125,1.71875,7.71875
313,313,1727899464055,-0.984375,-0.1328125,0.07128906,14.65625,4.28125,1.75
314,314,1727899464095,-0.9794922,-0.15625,0.059570312,21.875,3.34375,0.15625
315,315,1727899464135,-1.0097656,-0.20117188,0.034179688,21.875,7.6875,-7.84375
316,316,1727899464175,-1.0234375,-0.14453125,0.05859375,20.34375,6.71875,-10.28125
317,317,1727899464215,-1.0283203,-0.10839844,0.055664062,19.53125,5.9375,-5.59375
318,318,1727899464255,-1.0263672,-0.083984375,0.015625,20.03125,5.9375,1.1875
319,319,1727899464295,-1.0214844,-0.08105469,0.0107421875,15.9375,5.125,5.28125
320,320,1727899464335,-1.0058594,-0.08203125,0.0078125,3.6875,6.78125,4.71875
321,321,1727899464375,-1.0087891,-0.08984375,0.041992188,-10.96875,3.0625,3.5625
322,322,1727899464415,-1.0078125,-0.08984375,0.048828125,-17.8125,-3.34375,5.21875
323,323,1727899464455,-1.0087891,-0.119140625,0.043945312,-20.96875,-0.59375,6.8125
324,324,1727899464495,-1.0087891,-0.08984375,0.072265625,-22.875,-3.59375,6.9375
325,325,1727899464535,-1.0097656,-0.09472656,0.06640625,-26.28125,-6.21875,7.78125
326,326,1727899464575,-0.99609375,-0.09375,0.072265625,-36.71875,-3.0,5.96875
327,327,1727899464615,-0.98535156,-0.13867188,0.061523438,-40.8125,-4.625,4.5
328,328,1727899464655,-1.0185547,-0.15722656,0.060546875,-36.3125,-5.75,0.53125
329,329,1727899464695,-0.9707031,-0.12792969,0.08691406,-28.90625,-4.9375,-4.1875
330,330,1727899464735,-0.9765625,-0.08984375,0.07910156,-21.78125,-4.9375,-4.46875
331,331,1727899464775,-0.97753906,-0.07910156,0.068359375,-18.0625,-6.90625,-0.09375
332,332,1727899464815,-0.9707031,-0.07714844,0.07128906,-16.46875,-7.75,2.71875
333,333,1727899464855,-0.95703125,-0.09472656,0.08496094,-22.9375,-9.8125,0.28125
334,334,1727899464895,-0.9394531,-0.13867188,0.125,-28.75,-8.71875,-7.15625
335,335,1727899464935,-0.98339844,-0.15234375,0.15527344,-24.53125,-12.75,-10.40625
336,336,1727899464975,-0.98535156,-0.16015625,0.13183594,-18.125,-10.6875,-11.5625
337,337,1727899465015,-1.0283203,-0.13183594,0.12597656,-5.1875,-8.84375,-8.4375
338,338,1727899465055,-1.0234375,-0.11425781,0.14648438,-3.53125,-5.84375,-5.65625
339,339,1727899465095,-1.0234375,-0.12988281,0.19238281,-22.375,3.40625,-9.625
340,340,1727899465135,-0.9951172,-0.12792969,0.16796875,-24.09375,5.125,-12.53125
341,341,1727899465175,-1.0527344,-0.14257812,0.20996094,-12.4375,-1.21875,-10.15625
342,342,1727899465215,-1.0546875,-0.15527344,0.18554688,-0.90625,-3.90625,-6.5625
343,343,1727899465255,-1.0136719,-0.14648438,0.17675781,-2.375,-8.46875,-4.71875
344,344,1727899465295,-0.9970703,-0.18066406,0.1875,-3.78125,-7.375,-2.90625
345,345,1727899465335,-0.97753906,-0.19921875,0.17480469,1.65625,-2.1875,-5.03125
346,346,1727899465375,-0.9658203,-0.23730469,0.16601562,9.34375,5.3125,-6.5625
347,347,1727899465415,-0.9628906,-0.265625,0.17480469,4.84375,18.4375,-14.4375
348,348,1727899465455,-0.9355469,-0.21191406,0.15039062,15.75,4.28125,-5.71875
349,349,1727899465495,-0.8857422,-0.18261719,0.1640625,32.0625,-14.65625,11.375
350,350,1727899465535,-0.9277344,-0.18554688,0.17871094,68.90625,-19.09375,26.40625
351,351,1727899465575,-1.0751953,-0.17089844,0.1328125,67.75,13.78125,11.25
352,352,1727899465615,-1.0097656,-0.025390625,0.123046875,44.4375,8.78125,6.625
353,353,1727899465655,-0.9609375,-0.05859375,0.109375,23.9375,11.90625,5.53125
354,354,1727899465695,-0.9482422,-0.1015625,0.16699219,24.90625,18.0,5.21875
355,355,1727899465735,-0.97558594,-0.05078125,0.13085938,29.8125,13.90625,5.90625
356,356,1727899465775,-0.984375,-0.072265625,0.0390625,42.5,8.5,10.15625
357,357,1727899465815,-0.9941406,-0.11425781,0.036132812,37.0,6.84375,11.09375
358,358,1727899465855,-0.9814453,-0.046875,0.09277344,14.96875,7.25,5.59375
359,359,1727899465895,-1.0068359,-0.0234375,0.044921875,12.03125,12.875,4.3125
360,360,1727899465935,-1.0136719,-0.06738281,0.028320312,8.8125,10.9375,4.375
361,361,1727899465975,-1.0351562,-0.07128906,0.059570312,-2.125,6.46875,2.0625
362,362,1727899466015,-1.0068359,-0.08300781,0.021484375,-14.15625,-0.65625,0.09375
363,363,1727899466055,-0.9970703,-0.11425781,0.044921875,-22.21875,1.53125,0.8125
364,364,1727899466095,-1.015625,-0.14746094,0.01953125,-19.6875,0.96875,1.4375
365,365,1727899466135,-1.0068359,-0.12207031,0.013671875,-17.9375,5.0625,0.65625
366,366,1727899466175,-1.0136719,-0.08300781,0.018554688,-18.78125,3.40625,1.5
367,367,1727899466215,-1.0009766,-0.08496094,0.040039062,-22.875,2.5625,2.09375
368,368,1727899466255,-1.0078125,-0.10253906,0.046875,-27.4375,1.03125,0.875
369,369,1727899466295,-1.0185547,-0.08886719,0.056640625,-33.0625,-1.71875,-0.75
370,370,1727899466335,-1.0234375,-0.095703125,0.055664062,-34.15625,-3.71875,0.34375
371,371,1727899466375,-1.0166016,-0.09472656,0.08691406,-34.78125,-5.625,3.5
372,372,1727899466415,-1.0087891,-0.1484375,0.06738281,-35.375,-7.5,6.0
373,373,1727899466455,-1.0322266,-0.18847656,0.06347656,-29.28125,-8.375,4.5625
374,374,1727899466495,-0.9716797,-0.140625,0.056640625,-21.40625,-7.5625,0.46875
375,375,1727899466535,-0.9453125,-0.06542969,0.07128906,-16.28125,-4.03125,-2.65625
376,376,1727899466575,-0.97265625,-0.038085938,0.07519531,-20.6875,-4.5625,-5.65625
377,377,1727899466615,-0.96191406,-0.03515625,0.068359375,-28.625,-9.40625,-6.6875
378,378,1727899466655,-0.9746094,-0.080078125,0.111328125,-38.8125,-17.46875,-9.90625
379,379,1727899466695,-0.97753906,-0.15039062,0.15136719,-47.40625,-17.21875,-15.15625
380,380,1727899466735,-0.9746094,-0.18066406,0.18652344,-34.28125,-18.0625,-15.78125
381,381,1727899466775,-0.97265625,-0.19042969,0.18652344,-18.59375,-16.84375,-14.375
382,382,1727899466815,-0.97558594,-0.19628906,0.16992188,-7.5,-4.03125,-15.28125
383,383,1727899466855,-0.99316406,-0.18554688,0.19824219,-6.9375,7.6875,-21.5
384,384,1727899466895,-1.0410156,-0.13378906,0.22070312,-5.65625,6.84375,-20.78125
385,385,1727899466935,-1.0458984,-0.16699219,0.16601562,-0.78125,6.71875,-15.59375
386,386,1727899466975,-1.0136719,-0.19042969,0.19042969,1.21875,-8.96875,-10.03125
387,387,1727899467015,-1.015625,-0.21386719,0.20019531,4.03125,-8.0,-6.375
388,388,1727899467055,-0.98828125,-0.23339844,0.18847656,9.28125,-6.53125,-3.03125
389,389,1727899467095,-0.9511719,-0.2685547,0.17382812,17.28125,-0.71875,-2.90625
390,390,1727899467135,-0.9501953,-0.2685547,0.18066406,24.25,8.84375,-5.875
391,391,1727899467175,-0.9501953,-0.21386719,0.171875,29.5625,11.46875,-6.3125
392,392,1727899467215,-0.9394531,-0.20117188,0.14160156,32.53125,11.90625,-4.25
393,393,1727899467255,-0.9140625,-0.21875,0.12402344,34.8125,13.5,-1.5
394,394,1727899467295,-0.8876953,-0.20898438,0.15429688,38.71875,8.25,5.65625
395,395,1727899467335,-0.9667969,-0.14746094,0.17480469,47.875,0.125,16.40625
396,396,1727899467375,-1.0087891,-0.07324219,0.14355469,57.6875,-2.1875,23.65625
397,397,1727899467415,-1.1679688,-0.06640625,0.13671875,52.125,23.875,15.90625
398,398,1727899467455,-0.98535156,-0.13769531,0.16992188,20.53125,6.53125,14.75
399,399,1727899467495,-0.86816406,-0.18164062,0.18359375,7.34375,6.71875,5.40625
400,400,1727899467535,-0.9423828,-0.16699219,0.11816406,39.875,15.6875,2.71875
401,401,1727899467575,-1.0410156,-0.09863281,0.10449219,60.4375,11.15625,5.15625
402,402,1727899467615,-1.0019531,-0.06542969,0.041992188,49.4375,9.78125,3.5
403,403,1727899467655,-0.9550781,-0.11816406,0.033203125,22.78125,8.78125,-2.21875
404,404,1727899467695,-1.0253906,-0.07324219,0.09472656,8.4375,14.34375,-3.75
405,405,1727899467735,-1.015625,-0.08691406,0.026367188,30.40625,-0.0625,5.71875
406,406,1727899467775,-1.0185547,-0.140625,0.013671875,26.875,6.53125,3.4375
407,407,1727899467815,-0.9902344,-0.08496094,0.047851562,0.0,9.40625,-5.15625
408,408,1727899467855,-0.98046875,-0.10058594,0.051757812,-11.34375,0.5,-5.09375
409,409,1727899467895,-1.0136719,-0.17871094,0.0625,-9.5625,2.4375,-2.34375
410,410,1727899467935,-1.0380859,-0.1875,0.068359375,-0.46875,2.1875,2.15625
411,411,1727899467975,-1.0292969,-0.1328125,0.052734375,2.34375,-1.21875,5.21875
412,412,1727899468015,-0.9716797,-0.10449219,0.037109375,-0.21875,-1.59375,8.53125
413,413,1727899468055,-0.9814453,-0.12695312,0.076171875,-6.28125,3.90625,7.46875
414,414,1727899468095,-0.9941406,-0.109375,0.09765625,-16.15625,4.34375,3.5625
415,415,1727899468135,-0.9951172,-0.0859375,0.06933594,-16.03125,-0.125,3.9375
416,416,1727899468175,-1.0244141,-0.08105469,0.07324219,-20.25,-2.9375,7.1875
417,417,1727899468215,-1.0117188,-0.095703125,0.072265625,-31.53125,-5.3125,8.46875
418,418,1727899468255,-0.98828125,-0.16210938,0.076171875,-34.84375,-6.28125,9.875
419,419,1727899468295,-0.9941406,-0.18554688,0.061523438,-33.25,-2.8125,6.4375
420,420,1727899468335,-0.9970703,-0.14453125,0.076171875,-27.34375,-0.71875,2.0625
421,421,1727899468375,-0.9921875,-0.07910156,0.08300781,-23.0625,-3.65625,1.8125
422,422,1727899468415,-0.9921875,-0.08496094,0.08300781,-24.40625,-5.1875,0.46875
423,423,1727899468455,-0.9921875,-0.10644531,0.087890625,-24.53125,-8.84375,-1.5625
424,424,1727899468495,-0.9785156,-0.07519531,0.09765625,-23.96875,-13.0625,-4.46875
425,425,1727899468535,-0.94921875,-0.08105469,0.08105469,-22.5625,-18.625,-6.4375
426,426,1727899468575,-0.9560547,-0.09082031,0.119140625,-26.90625,-19.53125,-9.4375
427,427,1727899468615,-0.984375,-0.0703125,0.12011719,-34.15625,-16.71875,-12.53125
428,428,1727899468655,-0.97753906,-0.24707031,0.06933594,-44.90625,-13.5,-18.28125
429,429,1727899468695,-0.9951172,-0.056640625,0.23730469,-64.75,-11.59375,-14.8125
430,430,1727899468735,-1.09375,-0.12207031,0.23828125,-45.8125,-16.1875,-12.1875
431,431,1727899468775,-1.0986328,-0.21777344,0.25683594,-6.03125,-13.1875,-10.46875
432,432,1727899468815,-0.9873047,-0.22265625,0.2109375,9.34375,-11.09375,-10.21875
433,433,1727899468855,-0.91503906,-0.19726562,0.13867188,31.875,-8.46875,-4.78125
434,434,1727899468895,-0.9550781,-0.125,0.1875,27.90625,1.90625,-2.40625
435,435,1727899468935,-0.9736328,-0.07324219,0.18164062,19.3125,4.625,-0.6875
436,436,1727899468975,-0.9921875,-0.15429688,0.21484375,4.53125,8.0,-0.75
437,437,1727899469015,-1.0039062,-0.21972656,0.23925781,0.5625,7.5625,-4.25
438,438,1727899469055,-0.9707031,-0.22070312,0.23242188,12.84375,-1.53125,-3.75
439,439,1727899469095,-0.92578125,-0.20800781,0.21972656,35.0625,-4.40625,-2.65625
440,440,1727899469135,-0.9082031,-0.14941406,0.17871094,48.15625,5.6875,-0.34375
441,441,1727899469175,-0.90527344,-0.17675781,0.18652344,42.875,9.53125,2.59375
442,442,1727899469215,-0.8779297,-0.17089844,0.17871094,39.5625,2.5,5.90625
443,443,1727899469255,-0.94921875,-0.14160156,0.20703125,52.375,9.9375,6.9375
444,444,1727899469295,-1.0869141,-0.080078125,0.1953125,47.3125,26.25,-0.8125
445,445,1727899469335,-1.0273438,-0.026367188,0.17382812,29.96875,21.4375,-3.4375
446,446,1727899469375,-0.96484375,-0.07519531,0.17382812,12.71875,13.5,0.34375
447,447,1727899469415,-0.96777344,-0.10644531,0.13574219,13.625,8.84375,5.71875
448,448,1727899469455,-0.97558594,-0.12402344,0.09375,30.84375,2.9375,9.5
449,449,1727899469495,-0.98535156,-0.099609375,0.0625,33.21875,7.21875,3.6875
450,450,1727899469535,-1.0048828,-0.12011719,0.05859375,15.5625,17.34375,-0.625
451,451,1727899469575,-1.0068359,-0.10839844,0.09765625,0.375,14.90625,-4.40625
452,452,1727899469615,-1.0039062,-0.09472656,0.07421875,2.15625,5.0,-2.21875
453,453,1727899469655,-1.0234375,-0.14941406,0.053710938,2.5,1.53125,-2.65625
454,454,1727899469695,-0.9921875,-0.17480469,0.0859375,-4.0,2.1875,-4.375
455,455,1727899469735,-1.0078125,-0.15625,0.07519531,-5.3125,2.625,-6.125
456,456,1727899469775,-1.0263672,-0.13867188,0.049804688,2.8125,1.84375,-2.96875
457,457,1727899469815,-1.0087891,-0.10839844,0.053710938,-4.25,3.84375,-0.34375
458,458,1727899469855,-0.9951172,-0.087890625,0.05078125,-8.59375,3.84375,1.625
459,459,1727899469895,-1.0146484,-0.11328125,0.037109375,-15.78125,4.40625,3.5
460,460,1727899469935,-1.0107422,-0.11328125,0.033203125,-16.34375,1.84375,6.375
461,461,1727899469975,-1.0009766,-0.12890625,0.05859375,-15.25,-0.125,9.0
462,462,1727899470015,-1.0058594,-0.140625,0.0625,-14.09375,0.90625,7.84375
463,463,1727899470055,-0.9873047,-0.12597656,0.08105469,-17.875,-0.4375,6.1875
464,464,1727899470095,-0.99316406,-0.10644531,0.07324219,-24.09375,-1.53125,4.90625
465,465,1727899470135,-0.9902344,-0.12597656,0.0546875,-26.59375,-4.28125,7.25
466,466,1727899470175,-0.99609375,-0.15625,0.06933594,-26.65625,-5.375,7.65625
467,467,1727899470215,-0.99609375,-0.17480469,0.09375,-28.3125,-5.4375,5.53125
468,468,1727899470255,-0.9970703,-0.16015625,0.083984375,-24.84375,-2.625,1.625
469,469,1727899470295,-1.0019531,-0.140625,0.08691406,-19.59375,-4.9375,2.0625
470,470,1727899470335,-1.0048828,-0.16699219,0.078125,-16.09375,-6.71875,2.09375
471,471,1727899470375,-1.0283203,-0.15527344,0.09472656,-15.6875,-7.5625,-1.6875
472,472,1727899470415,-0.9892578,-0.057617188,0.11230469,-18.0,-10.375,-6.8125
473,473,1727899470455,-0.9589844,-0.052734375,0.087890625,-18.125,-17.6875,-5.03125
474,474,1727899470495,-0.9892578,-0.08300781,0.1171875,-18.40625,-20.375,-1.6875
475,475,1727899470535,-0.9550781,-0.07714844,0.12792969,-20.3125,-19.46875,-1.3125
476,476,1727899470575,-0.91503906,-0.095703125,0.14941406,-16.59375,-19.53125,-4.125
477,477,1727899470615,-0.9580078,-0.125,0.21484375,-22.375,-7.625,-11.5625
478,478,1727899470655,-1.0371094,-0.19824219,0.24609375,-34.21875,1.96875,-18.28125
479,479,1727899470695,-1.0693359,-0.15820312,0.23535156,-23.59375,2.03125,-17.59375
480,480,1727899470735,-1.0195312,-0.14648438,0.19921875,-3.59375,-6.78125,-8.75
481,481,1727899470775,-0.9892578,-0.19433594,0.2265625,-1.03125,-3.65625,-5.46875
482,482,1727899470815,-1.0361328,-0.16796875,0.25195312,-12.625,1.65625,-11.8125
483,483,1727899470855,-1.0166016,-0.16210938,0.234375,-9.03125,-0.96875,-8.3125
484,484,1727899470895,-0.9394531,-0.19726562,0.18652344,9.65625,-8.0625,0.59375
485,485,1727899470935,-0.91796875,-0.22363281,0.17675781,13.25,-2.0625,0.03125
486,486,1727899470975,-0.9501953,-0.19335938,0.20214844,7.9375,4.875,-4.53125
487,487,1727899471015,-0.9316406,-0.16894531,0.1640625,14.90625,6.21875,-3.875
488,488,1727899471055,-0.9111328,-0.16015625,0.19824219,23.15625,0.0,1.75
489,489,1727899471095,-0.93652344,-0.16308594,0.16210938,26.125,-4.8125,3.9375
490,490,1727899471135,-0.9160156,-0.19726562,0.16601562,25.15625,-0.4375,2.71875
491,491,1727899471175,-0.95703125,-0.27539062,0.20996094,18.3125,11.59375,-1.25
492,492,1727899471215,-1.0507812,-0.13769531,0.21679688,30.46875,21.1875,-7.21875
493,493,1727899471255,-0.984375,-0.059570312,0.14746094,38.03125,4.625,3.09375
494,494,1727899471295,-0.92089844,-0.095703125,0.119140625,29.96875,7.4375,6.0625
495,495,1727899471335,-0.97558594,-0.18457031,0.16503906,18.375,15.1875,2.65625
496,496,1727899471375,-1.0058594,-0.171875,0.14550781,6.96875,17.9375,-4.375
497,497,1727899471415,-0.96777344,-0.13867188,0.07324219,27.90625,9.65625,0.21875
498,498,1727899471455,-1.0097656,-0.19726562,0.0859375,27.1875,10.375,1.9375
499,499,1727899471495,-1.0273438,-0.1796875,0.09765625,19.25,14.53125,-1.4375
500,500,1727899471535,-0.98535156,-0.15527344,0.060546875,28.8125,10.625,-0.75
501,501,1727899471575,-0.9863281,-0.14355469,0.06933594,31.625,13.4375,0.03125
502,502,1727899471615,-0.99609375,-0.119140625,0.055664062,23.625,11.0625,-1.25
503,503,1727899471655,-1.0371094,-0.103515625,0.021484375,19.125,7.5,-0.8125
504,504,1727899471695,-1.0195312,-0.099609375,0.05859375,11.1875,2.9375,0.46875
505,505,1727899471735,-0.9941406,-0.12890625,0.049804688,2.03125,4.9375,0.46875
506,506,1727899471775,-1.0322266,-0.123046875,0.032226562,-4.625,7.8125,2.09375
507,507,1727899471815,-1.0185547,-0.12011719,0.021484375,-6.21875,4.03125,6.6875
508,508,1727899471855,-1.0185547,-0.10839844,0.047851562,-12.3125,3.71875,7.3125
509,509,1727899471895,-0.984375,-0.13476562,0.056640625,-21.46875,4.15625,7.0625
510,510,1727899471935,-1.0,-0.15332031,0.05859375,-21.21875,3.90625,4.78125
511,511,1727899471975,-1.0136719,-0.12207031,0.053710938,-22.3125,1.65625,4.125
512,512,1727899472015,-1.0107422,-0.07324219,0.048828125,-28.0625,-0.375,5.59375
513,513,1727899472055,-0.9863281,-0.11328125,0.059570312,-37.03125,-3.40625,7.90625
514,514,1727899472095,-1.0039062,-0.15234375,0.052734375,-41.78125,-3.71875,6.8125
515,515,1727899472135,-0.9921875,-0.17285156,0.057617188,-36.71875,-3.90625,6.1875
516,516,1727899472175,-0.9921875,-0.171875,0.032226562,-34.28125,-5.125,5.34375
517,517,1727899472215,-0.98828125,-0.15625,0.037109375,-34.84375,-5.96875,4.6875
518,518,1727899472255,-0.98828125,-0.15722656,0.029296875,-32.9375,-9.34375,5.46875
519,519,1727899472295,-0.97753906,-0.16601562,0.048828125,-31.71875,-7.125,3.09375
520,520,1727899472335,-1.0126953,-0.16308594,0.0703125,-30.25,-3.1875,-0.34375
521,521,1727899472375,-1.0126953,-0.13671875,0.051757812,-24.28125,-7.03125,0.59375
522,522,1727899472415,-0.98535156,-0.115234375,0.047851562,-19.875,-8.0625,3.8125
523,523,1727899472455,-1.0068359,-0.140625,0.08105469,-18.1875,-3.96875,4.625
524,524,1727899472495,-1.0244141,-0.095703125,0.1015625,-18.0,-4.34375,3.34375
525,525,1727899472535,-0.98046875,-0.08203125,0.056640625,-8.78125,-12.21875,5.71875
526,526,1727899472575,-0.97558594,-0.044921875,0.099609375,-14.75,-13.78125,5.09375
527,527,1727899472615,-0.9814453,-0.08691406,0.11230469,-13.90625,-15.0,6.125
528,528,1727899472655,-0.96484375,-0.125,0.10839844,-13.0625,-8.65625,0.875
529,529,1727899472695,-0.9707031,-0.16210938,0.18066406,-11.59375,-1.09375,-4.375
530,530,1727899472735,-1.0605469,-0.1328125,0.16503906,-11.8125,-1.15625,-11.5625
531,531,1727899472775,-1.0195312,-0.07324219,0.16015625,-3.65625,-11.65625,-11.875
532,532,1727899472815,-0.9609375,-0.09472656,0.16699219,-4.0625,-14.71875,-10.28125
533,533,1727899472855,-0.98046875,-0.12988281,0.17480469,-14.6875,-11.03125,-12.84375
534,534,1727899472895,-1.0078125,-0.21972656,0.20800781,-2.71875,-15.375,-11.875
535,535,1727899472935,-0.98535156,-0.1875,0.22460938,9.59375,-5.0625,-11.125
536,536,1727899472975,-1.0087891,-0.15039062,0.18847656,13.375,4.40625,-10.15625
537,537,1727899473015,-0.99316406,-0.15625,0.20019531,10.6875,3.59375,-10.28125
538,538,1727899473055,-0.9941406,-0.19433594,0.20410156,6.125,-0.375,-13.09375
539,539,1727899473095,-0.95996094,-0.18066406,0.21777344,9.59375,-6.96875,-12.28125
540,540,1727899473135,-0.93359375,-0.18945312,0.2265625,22.15625,-13.0625,-5.40625
541,541,1727899473175,-0.9326172,-0.18164062,0.20019531,28.40625,-12.625,-2.34375
542,542,1727899473215,-0.9472656,-0.1796875,0.20800781,33.71875,-7.625,-1.125
543,543,1727899473255,-0.91308594,-0.16308594,0.20410156,36.03125,-2.5625,-1.4375
544,544,1727899473295,-0.9013672,-0.1484375,0.20019531,35.90625,1.84375,-1.96875
545,545,1727899473335,-0.92578125,-0.06933594,0.21191406,37.125,12.5625,-0.03125
546,546,1727899473375,-0.97558594,-0.10839844,0.14550781,41.09375,30.875,0.46875
547,547,1727899473415,-1.1796875,-0.1328125,0.22558594,25.28125,32.84375,3.34375
548,548,1727899473455,-1.0878906,0.0126953125,0.19921875,7.34375,5.0625,5.71875
549,549,1727899473495,-0.8496094,-0.13476562,0.072265625,29.6875,-4.15625,13.9375
550,550,1727899473535,-0.9511719,-0.19335938,0.14355469,27.59375,12.28125,8.40625
551,551,1727899473575,-1.0615234,-0.11230469,0.11035156,8.4375,25.5625,-0.625
552,552,1727899473615,-0.9824219,-0.15332031,0.0625,17.15625,17.03125,-0.09375
553,553,1727899473655,-0.9980469,-0.12109375,0.09082031,4.78125,19.65625,-2.84375
554,554,1727899473695,-0.9902344,-0.060546875,0.078125,4.21875,6.34375,1.0625
555,555,1727899473735,-0.99121094,-0.13574219,0.0107421875,10.5625,0.0,3.09375
556,556,1727899473775,-0.99316406,-0.1796875,0.026367188,-2.84375,10.125,-4.53125
557,557,1727899473815,-1.0517578,-0.12402344,0.0625,-14.09375,13.1875,-7.84375
558,558,1727899473855,-1.0507812,-0.11425781,0.055664062,-4.5,1.40625,-0.46875
559,559,1727899473895,-1.0087891,-0.12792969,0.06738281,-1.625,0.6875,3.4375
560,560,1727899473935,-0.9814453,-0.08984375,0.072265625,-11.03125,1.84375,6.8125
561,561,1727899473975,-0.9765625,-0.18945312,0.040039062,-14.4375,3.46875,10.15625
562,562,1727899474015,-0.99121094,-0.23046875,0.05859375,-7.875,3.71875,7.71875
563,563,1727899474055,-0.9941406,-0.18457031,0.048828125,4.65625,5.375,2.34375
564,564,1727899474095,-0.98828125,-0.14746094,0.030273438,10.3125,4.03125,-0.34375
565,565,1727899474135,-0.9863281,-0.10546875,0.05078125,4.71875,5.6875,-3.3125
566,566,1727899474175,-1.0078125,-0.064453125,0.032226562,-6.625,3.53125,-3.3125
567,567,1727899474215,-1.0214844,-0.08105469,0.024414062,-11.71875,-1.9375,0.34375
568,568,1727899474255,-1.0058594,-0.10058594,0.051757812,-14.6875,-5.1875,3.6875
569,569,1727899474295,-1.0078125,-0.12792969,0.05078125,-17.625,-6.09375,5.53125
570,570,1727899474335,-1.0019531,-0.15917969,0.059570312,-23.25,-7.09375,4.125
571,571,1727899474375,-0.99609375,-0.140625,0.0859375,-25.1875,-9.34375,3.5625
572,572,1727899474415,-0.9951172,-0.171875,0.06738281,-23.53125,-12.15625,4.78125
573,573,1727899474455,-0.99609375,-0.20214844,0.068359375,-20.625,-13.5625,4.3125
574,574,1727899474495,-0.99316406,-0.16113281,0.095703125,-13.90625,-10.5,1.625
575,575,1727899474535,-0.9902344,-0.13769531,0.09277344,-4.125,-9.03125,2.96875
576,576,1727899474575,-1.0039062,-0.12597656,0.13085938,2.09375,-6.96875,5.84375
577,577,1727899474615,-0.99609375,-0.06933594,0.15039062,-0.21875,-11.53125,6.3125
578,578,1727899474655,-0.9638672,-0.055664062,0.14550781,3.90625,-15.4375,6.4375
579,579,1727899474695,-0.9716797,-0.060546875,0.16113281,2.75,-11.28125,2.90625
580,580,1727899474735,-0.9716797,-0.046875,0.17285156,-3.53125,-9.65625,-0.46875
581,581,1727899474775,-0.96875,-0.032226562,0.16699219,-2.90625,-9.09375,-1.25
582,582,1727899474815,-0.97265625,-0.02734375,0.15332031,0.625,-4.875,-3.9375
583,583,1727899474855,-1.0,-0.030273438,0.21777344,-1.875,-3.78125,-6.3125
584,584,1727899474895,-1.0380859,0.0,0.2109375,-8.53125,-0.5625,-9.5
585,585,1727899474935,-1.0078125,-0.057617188,0.21289062,-3.71875,-4.03125,-6.0
586,586,1727899474975,-1.0019531,-0.038085938,0.17089844,-1.15625,-7.3125,-4.78125
587,587,1727899475015,-1.0292969,-0.12109375,0.25878906,-17.8125,-7.5,-5.71875
588,588,1727899475055,-1.0615234,-0.16601562,0.2529297,-29.53125,-7.125,-12.1875
589,589,1727899475095,-0.99902344,-0.20214844,0.23730469,-11.71875,-15.75,-7.53125
590,590,1727899475135,-0.953125,-0.18652344,0.2265625,5.5,-12.5625,-6.5
591,591,1727899475175,-0.92871094,-0.171875,0.20800781,17.28125,-7.9375,-6.0
592,592,1727899475215,-0.9658203,-0.13867188,0.22070312,11.0,1.40625,-11.0
593,593,1727899475255,-0.96777344,-0.09765625,0.22167969,1.53125,0.1875,-10.65625
594,594,1727899475295,-0.9453125,-0.12402344,0.21191406,8.0,-8.125,-3.5
595,595,1727899475335,-0.9345703,-0.15136719,0.22558594,15.6875,-7.25,-0.5625
596,596,1727899475375,-0.94140625,-0.123046875,0.23730469,16.125,-8.25,-0.46875
597,597,1727899475415,-0.9199219,-0.15429688,0.23730469,11.90625,-3.21875,-2.65625
598,598,1727899475455,-0.9433594,-0.17285156,0.22167969,12.15625,7.5,-5.03125
599,599,1727899475495,-0.9638672,-0.14257812,0.24414062,14.78125,16.0625,-4.78125
600,600,1727899475535,-0.9785156,-0.103515625,0.24414062,26.625,17.875,0.9375
601,601,1727899475575,-1.0263672,-0.087890625,0.24121094,30.96875,20.5,5.21875
602,602,1727899475615,-1.03125,-0.0859375,0.21191406,14.84375,16.65625,3.21875
603,603,1727899475655,-0.9609375,-0.044921875,0.21386719,7.875,8.59375,3.34375
604,604,1727899475695,-0.92089844,-0.0859375,0.17089844,15.28125,10.0,7.78125
605,605,1727899475735,-0.97558594,-0.12597656,0.15527344,15.6875,19.09375,7.90625
606,606,1727899475775,-1.0136719,-0.10058594,0.14746094,9.40625,19.96875,4.5
607,607,1727899475815,-0.9765625,-0.11230469,0.07324219,9.15625,18.125,2.96875
608,608,1727899475855,-0.9736328,-0.10253906,0.08105469,7.03125,16.65625,1.6875
609,609,1727899475895,-0.99609375,-0.11035156,0.06347656,4.03125,11.125,3.6875
610,610,1727899475935,-0.99316406,-0.13671875,0.03515625,5.625,6.65625,5.40625
611,611,1727899475975,-1.0146484,-0.18164062,0.03515625,9.53125,11.34375,2.90625
612,612,1727899476015,-1.0478516,-0.14746094,0.047851562,12.40625,13.1875,-1.375
613,613,1727899476055,-1.0244141,-0.11328125,0.053710938,14.84375,9.28125,1.1875
614,614,1727899476095,-0.9785156,-0.10253906,0.0546875,14.1875,7.5,3.21875
615,615,1727899476135,-1.0205078,-0.115234375,0.07128906,2.46875,11.125,1.875
616,616,1727899476175,-1.0126953,-0.12792969,0.047851562,-4.125,3.3125,5.15625
617,617,1727899476215,-0.98828125,-0.14355469,0.034179688,2.5625,1.34375,6.9375
618,618,1727899476255,-1.0078125,-0.13671875,0.016601562,8.5625,4.875,4.0625
619,619,1727899476295,-1.03125,-0.08886719,0.021484375,8.5,8.3125,0.09375
620,620,1727899476335,-1.0009766,-0.047851562,0.051757812,0.4375,1.78125,-2.15625
621,621,1727899476375,-0.9814453,-0.060546875,0.045898438,-4.5,-0.1875,-3.5
622,622,1727899476415,-1.0029297,-0.078125,0.053710938,-12.3125,-0.25,-4.90625
623,623,1727899476455,-1.0078125,-0.07714844,0.032226562,-14.21875,-5.96875,-1.5625
624,624,1727899476495,-0.99609375,-0.12109375,0.041015625,-14.03125,-6.40625,1.6875
625,625,1727899476535,-0.9980469,-0.14453125,0.059570312,-13.28125,-2.0,1.25
626,626,1727899476575,-1.0273438,-0.11425781,0.07421875,-8.03125,-0.78125,1.0
627,627,1727899476615,-1.0039062,-0.10058594,0.038085938,-2.90625,-3.96875,3.15625
628,628,1727899476655,-0.99609375,-0.0859375,0.03515625,-7.8125,-5.0625,5.90625
629,629,1727899476695,-1.0117188,-0.10253906,0.04296875,-16.09375,-6.78125,7.84375
630,630,1727899476735,-1.0029297,-0.11035156,0.047851562,-16.34375,-7.375,7.53125
631,631,1727899476775,-0.99316406,-0.091796875,0.06640625,-13.46875,-4.28125,5.40625
632,632,1727899476815,-0.9794922,-0.09765625,0.055664062,-11.28125,-5.5,5.53125
633,633,1727899476855,-1.0048828,-0.1171875,0.07421875,-8.78125,-8.71875,6.0625
634,634,1727899476895,-0.9892578,-0.09082031,0.078125,-5.84375,-10.1875,4.1875
635,635,1727899476935,-0.9785156,-0.052734375,0.08886719,-6.40625,-12.03125,2.53125
636,636,1727899476975,-0.97558594,-0.048828125,0.103515625,-14.34375,-14.40625,-0.40625
637,637,1727899477015,-0.9892578,-0.018554688,0.16015625,-15.3125,-11.71875,-2.84375
638,638,1727899477055,-0.94921875,-0.001953125,0.18261719,-10.3125,-14.46875,-2.78125
639,639,1727899477095,-0.9482422,-0.053710938,0.18066406,-5.34375,-16.71875,-5.28125
640,640,1727899477135,-1.0126953,-0.08496094,0.20410156,-3.15625,-7.3125,-10.28125
641,641,1727899477175,-1.0390625,-0.068359375,0.2109375,-0.21875,-7.75,-11.0625
642,642,1727899477215,-1.0253906,-0.038085938,0.19042969,-8.34375,-7.5,-11.4375
643,643,1727899477255,-0.99609375,-0.0859375,0.20410156,-8.15625,-6.59375,-8.875
644,644,1727899477295,-1.0419922,-0.119140625,0.23632812,-12.9375,-3.78125,-11.1875
645,645,1727899477335,-1.0498047,-0.119140625,0.25390625,-8.40625,-1.875,-10.03125
646,646,1727899477375,-0.98828125,-0.1171875,0.22460938,1.40625,-5.5,-7.21875
647,647,1727899477415,-0.96191406,-0.12207031,0.20800781,7.34375,-1.28125,-7.0
648,648,1727899477455,-0.9716797,-0.15039062,0.21386719,3.96875,5.0,-9.90625
649,649,1727899477495,-0.9824219,-0.14550781,0.22265625,4.78125,3.71875,-10.71875
650,650,1727899477535,-0.98828125,-0.11328125,0.21679688,10.375,-1.9375,-8.875
651,651,1727899477575,-0.96972656,-0.10058594,0.18554688,17.28125,-10.625,-3.5625
652,652,1727899477615,-0.9550781,-0.11230469,0.21289062,14.21875,-12.09375,-1.5625
653,653,1727899477655,-0.92285156,-0.15722656,0.21386719,16.1875,-8.65625,-2.78125
654,654,1727899477695,-0.9248047,-0.19628906,0.20019531,13.5625,5.5625,-8.625
655,655,1727899477735,-0.9453125,-0.19042969,0.2109375,12.9375,15.4375,-15.15625
656,656,1727899477775,-0.9277344,-0.14746094,0.21875,24.4375,12.5625,-8.5625
657,657,1727899477815,-0.94433594,-0.091796875,0.19824219,30.78125,10.0,1.25
658,658,1727899477855,-1.0107422,-0.05078125,0.16503906,33.03125,14.65625,4.0
659,659,1727899477895,-1.0478516,-0.072265625,0.18164062,18.25,21.1875,1.0
660,660,1727899477935,-1.0273438,-0.0859375,0.18066406,-4.375,15.875,-1.1875
661,661,1727899477975,-0.97265625,-0.078125,0.15136719,5.5625,16.59375,4.4375
662,662,1727899478015,-0.9628906,-0.14746094,0.12890625,17.65625,6.65625,15.21875
663,663,1727899478055,-0.984375,-0.16210938,0.068359375,17.40625,13.90625,10.71875
664,664,1727899478095,-0.9736328,-0.19335938,0.080078125,18.09375,19.59375,3.21875
665,665,1727899478135,-1.0068359,-0.16894531,0.087890625,9.71875,20.03125,-6.8125
666,666,1727899478175,-0.9785156,-0.11621094,0.056640625,9.46875,8.375,-7.28125
667,667,1727899478215,-0.9824219,-0.125,0.017578125,15.34375,-1.875,-2.84375
668,668,1727899478255,-1.0478516,-0.16210938,0.05859375,4.78125,3.125,-4.65625
669,669,1727899478295,-1.0644531,-0.14453125,0.049804688,-1.75,5.25,-5.15625
670,670,1727899478335,-1.0136719,-0.12988281,0.048828125,6.46875,0.84375,-0.09375
671,671,1727899478375,-0.9902344,-0.11621094,0.046875,2.34375,0.90625,2.40625
672,672,1727899478415,-0.99121094,-0.099609375,0.068359375,-9.25,0.3125,2.46875
673,673,1727899478455,-0.96875,-0.14648438,0.068359375,-15.4375,-3.71875,2.34375
674,674,1727899478495,-0.9921875,-0.19042969,0.07128906,-13.53125,0.78125,-1.0625
675,675,1727899478535,-1.0126953,-0.16308594,0.056640625,-4.25,-0.1875,-0.75
676,676,1727899478575,-1.0039062,-0.14453125,0.06738281,3.3125,-2.3125,2.09375
677,677,1727899478615,-0.9892578,-0.12109375,0.068359375,-3.71875,-0.4375,2.46875
678,678,1727899478655,-1.0068359,-0.111328125,0.08300781,-18.90625,1.03125,1.0625
679,679,1727899478695,-1.0009766,-0.13671875,0.07324219,-22.09375,-1.15625,2.78125
680,680,1727899478735,-0.9921875,-0.14257812,0.061523438,-19.03125,-3.125,4.90625
681,681,1727899478775,-1.0039062,-0.15917969,0.068359375,-19.875,-4.875,5.90625
682,682,1727899478815,-1.0107422,-0.17382812,0.052734375,-17.375,-7.125,6.125
683,683,1727899478855,-0.9970703,-0.15527344,0.05859375,-11.78125,-5.0625,4.375
684,684,1727899478895,-0.98828125,-0.115234375,0.08105469,-15.5,-2.25,0.71875
685,685,1727899478935,-0.9902344,-0.08105469,0.06933594,-17.9375,-2.6875,1.0625
686,686,1727899478975,-1.0107422,-0.078125,0.08496094,-17.4375,-4.8125,4.4375
687,687,1727899479015,-1.0273438,-0.078125,0.09765625,-20.6875,-9.59375,6.6875
688,688,1727899479055,-0.96875,-0.07714844,0.12109375,-21.65625,-14.78125,7.0625
689,689,1727899479095,-0.9189453,-0.1328125,0.12109375,-16.40625,-14.71875,5.90625
690,690,1727899479135,-0.9453125,-0.17089844,0.14648438,-15.125,-5.84375,-2.59375
691,691,1727899479175,-0.98535156,-0.16601562,0.171875,-11.875,-2.375,-7.65625
692,692,1727899479215,-1.0058594,-0.13867188,0.15820312,-12.5625,-1.53125,-10.84375
693,693,1727899479255,-1.0146484,-0.11621094,0.13964844,-7.875,-1.59375,-10.15625
694,694,1727899479295,-0.98339844,-0.12207031,0.17773438,-4.5625,-3.90625,-8.3125
695,695,1727899479335,-0.9658203,-0.12890625,0.17480469,-4.9375,-3.71875,-9.90625
696,696,1727899479375,-1.0126953,-0.13378906,0.17285156,-4.3125,-2.5625,-12.34375
697,697,1727899479415,-1.0625,-0.12792969,0.16015625,-7.4375,-0.59375,-13.40625
698,698,1727899479455,-1.0175781,-0.15136719,0.17871094,-8.09375,-7.4375,-10.53125
699,699,1727899479495,-0.9814453,-0.20019531,0.15332031,-0.34375,-9.875,-7.28125
700,700,1727899479535,-0.96875,-0.22753906,0.1875,-1.40625,-1.65625,-11.5
701,701,1727899479575,-0.96484375,-0.1953125,0.20605469,2.15625,-1.15625,-13.53125
702,702,1727899479615,-0.9628906,-0.20019531,0.171875,10.625,-2.3125,-10.46875
703,703,1727899479655,-0.9472656,-0.21875,0.18359375,11.3125,-1.53125,-7.96875
704,704,1727899479695,-0.94921875,-0.20800781,0.19140625,12.21875,-1.28125,-6.625
705,705,1727899479735,-0.9238281,-0.18847656,0.19238281,13.1875,-3.71875,-3.9375
706,706,1727899479775,-0.89453125,-0.19433594,0.19335938,21.375,-6.59375,1.3125
707,707,1727899479815,-0.9160156,-0.24511719,0.17871094,25.65625,-4.9375,3.5625
708,708,1727899479855,-0.9296875,-0.25,0.20019531,21.6875,3.125,3.4375
709,709,1727899479895,-1.0126953,-0.27246094,0.19921875,27.46875,16.46875,4.25
710,710,1727899479935,-1.0527344,-0.20019531,0.171875,34.0625,27.65625,1.0
711,711,1727899479975,-1.0146484,-0.064453125,0.17089844,35.09375,12.8125,2.53125
712,712,1727899480015,-0.94628906,-0.09082031,0.15722656,17.71875,4.34375,6.25
713,713,1727899480055,-0.96484375,-0.1328125,0.13085938,19.0625,3.46875,7.53125
714,714,1727899480095,-0.98535156,-0.15917969,0.15332031,23.375,8.65625,4.5
715,715,1727899480135,-0.98828125,-0.13867188,0.09863281,25.65625,15.6875,2.71875
716,716,1727899480175,-1.0078125,-0.13769531,0.11425781,14.78125,21.25,2.09375
717,717,1727899480215,-1.0009766,-0.140625,0.10644531,9.0,11.65625,3.28125
718,718,1727899480255,-0.97753906,-0.14746094,0.041015625,19.96875,6.90625,6.25
719,719,1727899480295,-0.9707031,-0.17089844,0.02734375,20.59375,12.5,4.5
720,720,1727899480335,-0.99902344,-0.1484375,0.04296875,14.59375,13.90625,0.15625
721,721,1727899480375,-1.0351562,-0.12792969,0.06542969,1.59375,2.75,-0.8125
722,722,1727899480415,-0.98535156,-0.16699219,0.061523438,-3.90625,-2.625,-0.75
723,723,1727899480455,-0.9902344,-0.18847656,0.07910156,-12.375,2.375,-3.1875
724,724,1727899480495,-1.0039062,-0.1875,0.051757812,-12.75,6.46875,-3.5625
725,725,1727899480535,-1.0009766,-0.15136719,0.020507812,-4.75,5.5,1.125
726,726,1727899480575,-0.98828125,-0.1171875,0.025390625,2.8125,5.3125,6.75
727,727,1727899480615,-0.99609375,-0.11425781,0.030273438,-0.53125,2.9375,7.46875
728,728,1727899480655,-0.9902344,-0.12402344,0.068359375,-9.25,1.78125,4.1875
729,729,1727899480695,-0.99316406,-0.11230469,0.052734375,-16.03125,-0.71875,3.15625
730,730,1727899480735,-0.9970703,-0.15136719,0.04296875,-19.28125,-4.03125,2.96875
731,731,1727899480775,-1.0058594,-0.1484375,0.047851562,-26.21875,-0.96875,-0.03125
732,732,1727899480815,-1.0185547,-0.14453125,0.049804688,-27.21875,-3.21875,2.0
733,733,1727899480855,-1.0175781,-0.1328125,0.0625,-27.75,-3.0625,3.21875
