,timestamp,accel_x,accel_y,accel_z,gyro_x,gyro_y,gyro_z
0,1727104639103,-0.7529297,0.70703125,0.051757812,-0.8125,-3.40625,-2.84375
1,1727104639137,-0.671875,0.7236328,0.01171875,7.65625,-9.25,-5.34375
2,1727104639189,-0.6689453,0.71972656,0.0029296875,0.9375,-1.5,-6.6875
3,1727104639227,-0.7109375,0.74121094,0.001953125,1.125,-5.0625,-7.65625
4,1727104639270,-0.6796875,0.7441406,-0.005859375,-0.15625,-7.5625,-7.0
5,1727104639304,-0.68847656,0.7294922,0.013671875,4.96875,-12.375,-4.3125
6,1727104639342,-0.65234375,0.71484375,-0.0390625,5.03125,-16.28125,-3.1875
7,1727104639383,-0.67285156,0.7529297,-0.05078125,18.03125,-25.3125,-2.40625
8,1727104639419,-0.65234375,0.7529297,0.05078125,25.59375,-21.15625,-1.25
9,1727104639455,-0.64746094,0.72753906,-0.045898438,11.875,-12.0625,3.34375
10,1727104639514,-0.6923828,0.6621094,-0.020507812,22.5,-19.5,0.15625
11,1727104639547,-0.6328125,0.7294922,0.01953125,18.03125,-16.53125,-6.375
12,1727104639583,-0.5810547,0.6923828,0.125,12.90625,-33.3125,-8.5
13,1727104639623,-0.8076172,0.73339844,-0.00390625,-15.90625,-14.75,-3.5625
14,1727104639659,-0.71972656,0.5917969,-0.107421875,17.90625,18.03125,0.46875
15,1727104639696,-0.69628906,0.76953125,0.09667969,8.09375,11.5,0.15625
16,1727104639737,-0.7001953,0.80371094,0.26367188,11.1875,-2.1875,-2.53125
17,1727104639790,-0.6904297,0.68066406,-0.06933594,-11.3125,2.28125,-0.21875
18,1727104639828,-0.8876953,0.62597656,-0.12207031,-2.84375,-5.40625,-3.5625
19,1727104639865,-0.875,0.64941406,-0.053710938,9.1875,17.65625,-8.375
20,1727104639902,-0.640625,0.7597656,0.029296875,15.0,0.03125,-10.78125
21,1727104639940,-0.7392578,0.68066406,-0.051757812,-4.53125,5.28125,0.40625
22,1727104639978,-0.7392578,0.64746094,-0.038085938,-1.8125,9.71875,-5.59375
23,1727104640017,-0.8183594,0.5888672,0.0048828125,-9.1875,13.6875,0.46875
24,1727104640053,-0.80371094,0.6357422,0.01953125,8.15625,7.03125,-0.40625
25,1727104640116,-0.734375,0.6611328,0.0390625,6.5625,3.5625,2.65625
26,1727104640148,-0.7216797,0.61035156,0.018554688,-3.6875,12.09375,1.8125
27,1727104640183,-0.73046875,0.70703125,0.09667969,-4.65625,11.8125,2.59375
28,1727104640221,-0.7763672,0.6308594,-0.029296875,-21.625,13.3125,6.125
29,1727104640261,-0.64160156,0.68359375,0.10839844,-21.625,21.125,2.34375
30,1727104640296,-0.7402344,0.6611328,0.05859375,-30.25,10.09375,8.9375
31,1727104640336,-0.91015625,0.6796875,-0.025390625,-47.15625,35.34375,11.6875
32,1727104640396,-0.7841797,0.6279297,0.001953125,-20.65625,5.5,8.53125
33,1727104640430,-0.6533203,0.6689453,0.01171875,-0.15625,-7.5625,7.25
34,1727104640467,-0.7558594,0.7871094,0.07128906,-7.59375,-3.71875,3.9375
35,1727104640506,-0.7167969,0.7138672,-0.020507812,-11.5625,0.9375,0.15625
36,1727104640541,-0.78125,0.65722656,-0.029296875,-9.625,5.875,-0.75
37,1727104640581,-0.66796875,0.7597656,0.05078125,4.25,-3.40625,-3.5625
38,1727104640615,-0.66503906,0.7089844,0.018554688,1.5,-6.21875,-1.625
39,1727104640653,-0.73535156,0.7685547,0.057617188,5.84375,-7.3125,-2.34375
40,1727104640712,-0.7236328,0.7216797,0.06933594,0.65625,-6.5,-2.90625
41,1727104640754,-0.7089844,0.6904297,0.049804688,-10.78125,3.0,-5.40625
42,1727104640786,-0.6933594,0.6953125,0.016601562,-10.71875,2.59375,-5.15625
43,1727104640820,-0.7265625,0.7451172,0.03125,-8.625,-2.96875,-6.4375
44,1727104640865,-0.7060547,0.71777344,0.01953125,-2.53125,-1.375,-4.125
45,1727104640898,-0.65722656,0.69433594,-0.061523438,4.25,-7.96875,-1.4375
46,1727104640937,-0.7011719,0.75683594,-0.07324219,10.78125,-7.5,0.21875
47,1727104640995,-0.6298828,0.7109375,0.07714844,33.71875,-17.0,3.9375
48,1727104641031,-0.6738281,0.53027344,0.40527344,8.15625,-33.5625,-4.1875
49,1727104641068,-0.67578125,0.56640625,-0.3515625,-21.5,11.0625,-6.4375
50,1727104641112,-0.89453125,0.82714844,-0.1171875,44.34375,-3.03125,0.03125
51,1727104641146,-0.6464844,0.8203125,0.296875,106.0625,-9.375,7.0
52,1727104641180,-0.6308594,0.8095703,0.091796875,-1.0625,-5.59375,0.53125
53,1727104641218,-0.9003906,0.6171875,-0.009765625,-28.15625,16.875,1.25
54,1727104641254,-0.77734375,0.58691406,-0.14648438,-12.1875,9.46875,-7.78125
55,1727104641308,-0.8339844,0.6855469,0.020507812,21.625,-6.03125,-7.90625
56,1727104641346,-0.7060547,0.7421875,0.022460938,4.84375,0.03125,-8.03125
57,1727104641385,-0.71191406,0.6875,-0.038085938,4.65625,-2.71875,-0.9375
58,1727104641425,-0.72753906,0.5566406,-0.10839844,-3.875,13.03125,1.0625
59,1727104641462,-0.7949219,0.61816406,-0.024414062,0.875,9.90625,-3.375
60,1727104641499,-0.7841797,0.68847656,0.08300781,0.59375,21.5,-2.65625
61,1727104641543,-0.69433594,0.6591797,0.076171875,0.03125,-7.78125,1.625
62,1727104641591,-0.8105469,0.5908203,0.020507812,-5.53125,-5.90625,2.28125
63,1727104641629,-0.8408203,0.64746094,0.0068359375,-9.96875,9.90625,-0.03125
64,1727104641667,-0.6953125,0.6533203,0.17578125,-4.125,-2.375,-0.21875
65,1727104641710,-0.79785156,0.6582031,0.032226562,-17.96875,-10.125,4.3125
66,1727104641741,-0.82128906,0.74316406,-0.0146484375,-11.5625,7.65625,11.875
67,1727104641777,-0.828125,0.6386719,0.17578125,-8.5,-9.9375,11.8125
68,1727104641818,-0.6152344,0.7548828,0.09667969,-14.25,-20.625,9.375
69,1727104641857,-0.6503906,0.7050781,0.024414062,-10.09375,-23.65625,11.3125
70,1727104641910,-0.7265625,0.7128906,0.061523438,-11.25,-19.5,10.96875
71,1727104641945,-0.765625,0.7324219,-0.02734375,-12.59375,-0.46875,4.4375
72,1727104641982,-0.7392578,0.6455078,0.0087890625,-9.3125,13.625,-0.34375
73,1727104642021,-0.7109375,0.6904297,0.009765625,-2.84375,21.375,-2.53125
74,1727104642060,-0.64453125,0.7265625,0.1328125,14.1875,1.59375,-1.375
75,1727104642096,-0.6357422,0.78125,0.072265625,12.96875,-5.96875,-1.625
76,1727104642134,-0.6972656,0.74316406,0.06542969,-0.03125,-1.1875,0.9375
77,1727104642192,-0.69433594,0.66308594,0.061523438,-4.59375,5.5625,-0.625
78,1727104642228,-0.67578125,0.67578125,-0.03515625,-7.84375,14.59375,-5.46875
79,1727104642265,-0.6455078,0.7236328,0.041992188,-2.09375,4.09375,-3.375
80,1727104642303,-0.67578125,0.70214844,0.0029296875,1.8125,3.375,-0.46875
81,1727104642339,-0.7363281,0.7753906,0.028320312,14.375,0.4375,-1.375
82,1727104642377,-0.61816406,0.7451172,0.11035156,21.53125,3.875,-0.46875
83,1727104642415,-0.59277344,0.6582031,0.045898438,-9.96875,7.53125,-0.75
84,1727104642453,-0.7988281,0.67871094,0.13476562,-19.5625,3.625,-10.09375
85,1727104642512,-0.5966797,0.7363281,-0.015625,-23.46875,27.90625,-0.34375
86,1727104642551,-0.74316406,0.66308594,-0.12207031,4.25,-1.875,7.96875
87,1727104642594,-0.98535156,0.7753906,0.09082031,-11.4375,30.65625,0.03125
88,1727104642627,-0.5488281,0.62109375,-0.018554688,-22.71875,54.53125,-8.09375
89,1727104642658,-0.6816406,0.6513672,0.12792969,-14.3125,-20.78125,-2.65625
90,1727104642698,-0.859375,0.70410156,-0.10644531,9.25,-14.375,2.90625
91,1727104642752,-0.8154297,0.6484375,-0.020507812,3.15625,17.78125,-4.78125
92,1727104642800,-0.75390625,0.74902344,0.07128906,-9.5,8.875,-6.0625
93,1727104642836,-0.7216797,0.74316406,0.020507812,3.5625,-16.09375,0.15625
94,1727104642869,-0.81933594,0.6269531,-0.1015625,1.375,0.625,3.21875
95,1727104642906,-0.7089844,0.5810547,0.041992188,1.6875,-1.75,-2.71875
96,1727104642942,-0.7236328,0.68847656,0.06933594,-2.09375,-0.03125,-0.28125
97,1727104642981,-0.7060547,0.62109375,0.025390625,0.75,3.5,6.9375
98,1727104643019,-0.7285156,0.5908203,0.16894531,-15.84375,12.09375,4.375
99,1727104643053,-0.80371094,0.7128906,0.09277344,-35.78125,38.28125,7.0
100,1727104643116,-0.7714844,0.7216797,-0.01171875,-5.21875,-3.15625,6.625
101,1727104643150,-0.87109375,0.78515625,0.21875,-33.84375,21.5625,-6.5
102,1727104643190,-0.68066406,0.6982422,0.03515625,-54.34375,20.53125,2.65625
103,1727104643224,-0.6044922,0.72265625,0.07421875,1.1875,-39.34375,3.09375
104,1727104643263,-0.71484375,0.81933594,0.125,11.9375,-42.03125,13.71875
105,1727104643301,-0.74316406,0.5986328,-0.028320312,1.5625,-14.375,13.71875
106,1727104643352,-0.73339844,0.6425781,-0.072265625,-1.96875,14.71875,3.9375
107,1727104643377,-0.75,0.7294922,0.18457031,12.65625,25.90625,0.53125
108,1727104643427,-0.625,0.70996094,0.15234375,7.65625,8.3125,-1.1875
109,1727104643466,-0.62890625,0.7363281,0.0078125,7.71875,-18.0625,1.375
110,1727104643506,-0.6484375,0.81933594,0.11816406,-5.875,-16.46875,-3.875
111,1727104643545,-0.6875,0.68066406,-0.02734375,-17.71875,-3.03125,-2.46875
112,1727104643581,-0.7314453,0.64746094,-0.033203125,-10.90625,1.96875,-2.96875
113,1727104643619,-0.6748047,0.7675781,0.016601562,4.5,-0.65625,-8.75
114,1727104643659,-0.6269531,0.7314453,0.07910156,17.5625,-4.3125,1.625
115,1727104643708,-0.73339844,0.67871094,0.056640625,20.0,-6.4375,2.84375
116,1727104643755,-0.71191406,0.7236328,0.091796875,20.125,-0.59375,-2.78125
117,1727104643783,-0.7548828,0.5703125,0.115234375,20.90625,2.75,-1.25
118,1727104643822,-0.7109375,0.7441406,0.25195312,-4.25,-13.78125,-9.625
119,1727104643859,-0.64453125,0.6113281,-0.19238281,-1.1875,0.8125,-5.59375
120,1727104643898,-0.7597656,0.6513672,-0.0029296875,41.0625,-15.46875,-9.125
121,1727104643937,-0.76660156,0.90625,0.33496094,28.65625,-25.25,-7.46875
122,1727104643975,-0.6113281,0.67871094,-0.06640625,-44.78125,53.84375,-13.21875
123,1727104644033,-0.64453125,0.7314453,0.17871094,10.71875,-17.3125,-2.78125
124,1727104644065,-0.8613281,0.6611328,-0.047851562,11.3125,-15.25,0.875
125,1727104644110,-0.7626953,0.5966797,-0.15527344,-0.46875,5.28125,-2.53125
126,1727104644149,-0.7421875,0.7392578,0.11425781,8.8125,0.875,-7.96875
127,1727104644179,-0.7167969,0.74902344,-0.009765625,-7.59375,1.3125,-5.28125
128,1727104644215,-0.8408203,0.62597656,-0.03515625,-4.25,1.96875,-1.8125
129,1727104644255,-0.79296875,0.61621094,0.0107421875,10.03125,-4.875,-2.96875
130,1727104644309,-0.7871094,0.64746094,0.07714844,-4.78125,4.0625,-6.625
131,1727104644346,-0.7158203,0.640625,0.099609375,-1.375,-3.71875,-0.21875
132,1727104644384,-0.68652344,0.5966797,0.12109375,-20.84375,9.125,3.6875
133,1727104644426,-0.80371094,0.63671875,0.033203125,-32.1875,27.5,2.0625
134,1727104644464,-0.86621094,0.64746094,0.17578125,-14.125,-5.71875,3.15625
135,1727104644504,-0.8691406,0.82128906,0.12792969,-29.21875,12.21875,-4.96875
136,1727104644537,-0.6777344,0.68652344,-0.052734375,-9.125,-22.9375,0.59375
137,1727104644574,-0.6357422,0.7138672,0.1015625,16.9375,-51.4375,11.5
138,1727104644630,-0.7841797,0.72558594,0.02734375,26.03125,-33.0,11.875
139,1727104644672,-0.76660156,0.6767578,-0.026367188,-6.625,28.9375,2.0
140,1727104644706,-0.69921875,0.7548828,0.14355469,-1.0,19.71875,0.65625
141,1727104644741,-0.67578125,0.7451172,0.20507812,-3.875,13.1875,1.75
142,1727104644796,-0.58984375,0.703125,0.08203125,-7.96875,5.9375,5.65625
143,1727104644817,-0.7548828,0.7001953,0.046875,-8.5625,-1.4375,6.75
144,1727104644874,-0.7265625,0.7128906,0.14453125,-15.84375,16.5625,3.28125
145,1727104644911,-0.6767578,0.6298828,0.07421875,-12.84375,7.84375,4.90625
146,1727104644950,-0.78808594,0.68847656,0.06542969,-9.1875,-2.3125,-3.125
147,1727104644985,-0.6953125,0.7246094,0.08691406,2.90625,-6.15625,-7.09375
148,1727104645023,-0.6455078,0.5761719,-0.053710938,19.625,-12.0625,-2.21875
149,1727104645063,-0.6640625,0.64941406,-0.005859375,32.25,-17.6875,-4.78125
150,1727104645099,-0.56152344,0.6386719,0.11328125,25.78125,5.4375,-9.0625
151,1727104645147,-0.55859375,0.55859375,0.07519531,-4.375,15.34375,-10.71875
152,1727104645173,-0.8642578,1.015625,0.0146484375,-8.40625,10.53125,4.84375
153,1727104645227,-0.953125,0.53125,-0.07421875,-23.15625,35.59375,-4.84375
154,1727104645273,-0.5048828,0.6777344,0.31054688,15.59375,-4.875,-7.34375
155,1727104645311,-0.7998047,0.7402344,-0.057617188,29.09375,-41.0625,6.8125
156,1727104645347,-0.8251953,0.5361328,-0.1640625,-13.40625,36.53125,-6.875
157,1727104645384,-0.7519531,0.7011719,0.32128906,-7.34375,10.46875,-14.0
158,1727104645416,-0.8203125,0.65722656,-0.09863281,3.3125,-2.59375,-3.5625
159,1727104645455,-0.6972656,0.58984375,0.1015625,9.1875,-19.21875,-2.90625
160,1727104645508,-0.7578125,0.73828125,0.07714844,-12.0625,3.375,-9.4375
161,1727104645550,-0.76660156,0.5996094,0.07421875,-26.53125,28.28125,-4.59375
162,1727104645604,-0.77246094,0.5722656,0.12890625,-26.34375,13.15625,0.21875
163,1727104645624,-0.92871094,0.6171875,0.12988281,-11.8125,-5.78125,3.28125
164,1727104645669,-0.7832031,0.5859375,0.15625,-6.1875,-14.3125,4.25
165,1727104645699,-0.7685547,0.68847656,0.053710938,13.71875,-31.90625,5.71875
166,1727104645736,-0.95996094,0.6699219,-0.07714844,8.875,-5.53125,8.34375
167,1727104645774,-0.6748047,0.640625,0.16601562,35.375,-23.78125,4.5625
168,1727104645865,-0.61035156,0.7861328,0.21875,-0.09375,7.96875,5.21875
169,1727104645883,-0.76660156,0.67871094,0.087890625,-23.71875,21.375,4.71875
170,1727104645902,-0.6748047,0.5683594,0.025390625,9.84375,-22.9375,4.625
171,1727104645938,-0.6357422,0.7861328,0.099609375,11.875,-33.5,2.96875
172,1727104645976,-0.7294922,0.69433594,0.0087890625,2.84375,-17.3125,3.09375
173,1727104646016,-0.87109375,0.5595703,-0.025390625,-9.4375,11.3125,-0.40625
174,1727104646051,-0.75,0.76953125,0.06933594,10.84375,5.75,-6.25
175,1727104646108,-0.6533203,0.7607422,0.12890625,11.125,7.59375,-2.40625
176,1727104646146,-0.67871094,0.79296875,0.11328125,-6.1875,2.875,-1.1875
177,1727104646184,-0.6748047,0.7470703,0.06738281,1.25,-13.28125,2.78125
178,1727104646228,-0.72558594,0.65625,0.020507812,1.625,-11.5625,2.53125
179,1727104646259,-0.7011719,0.71875,0.061523438,-3.5,1.0,-0.9375
180,1727104646297,-0.7236328,0.6542969,0.095703125,-31.03125,36.8125,-2.78125
181,1727104646348,-0.68359375,0.62109375,-0.04296875,-2.03125,27.3125,-6.0
182,1727104646390,-0.57910156,0.6972656,0.15039062,22.375,-1.75,-1.6875
183,1727104646465,-0.5878906,0.5019531,0.12109375,21.03125,-21.53125,4.5
184,1727104646488,-0.9794922,0.7402344,0.001953125,-10.46875,-7.5,-5.75
185,1727104646503,-0.8623047,0.64453125,-0.0546875,-8.03125,40.5,-10.9375
186,1727104646541,-0.48535156,0.81347656,0.12792969,29.6875,-11.15625,8.28125
187,1727104646580,-0.95996094,0.71484375,0.20898438,-5.78125,-11.5625,12.4375
188,1727104646634,-0.99902344,0.44335938,-0.09277344,-42.75,42.0625,-11.9375
189,1727104646653,-0.7314453,0.66015625,-0.020507812,16.9375,11.1875,-8.875
190,1727104646710,-0.6582031,0.7050781,0.111328125,14.625,-25.125,-2.96875
191,1727104646750,-0.7314453,0.6152344,-0.051757812,21.6875,-16.65625,1.25
192,1727104646788,-0.6611328,0.7470703,0.21289062,5.90625,-0.15625,4.375
193,1727104646822,-0.8574219,0.5341797,0.09082031,-33.53125,32.1875,6.125
194,1727104646859,-0.84765625,0.44921875,-0.037109375,-27.3125,25.40625,-1.25
195,1727104646897,-0.7783203,0.6777344,0.21679688,3.875,1.71875,1.0625
196,1727104646933,-0.71777344,0.74121094,0.30859375,-20.46875,1.0,13.53125
197,1727104646971,-0.7158203,0.7890625,0.07421875,-41.65625,-16.78125,0.59375
198,1727104647033,-0.76464844,0.78027344,-0.06640625,-10.09375,-27.03125,4.625
199,1727104647069,-0.7939453,0.58203125,-0.09863281,36.03125,-40.9375,10.59375
200,1727104647106,-0.79296875,0.7080078,-0.16210938,9.8125,13.4375,6.75
201,1727104647149,-0.67089844,0.8730469,0.061523438,27.0625,10.6875,1.9375
202,1727104647180,-0.69140625,0.7763672,0.14648438,22.84375,9.46875,5.96875
203,1727104647218,-0.6748047,0.7294922,0.044921875,19.75,-24.40625,9.125
204,1727104647253,-0.6582031,0.7050781,0.17089844,17.0,-2.25,7.0625
205,1727104647315,-0.7109375,0.6689453,0.08300781,-8.40625,5.625,8.15625
206,1727104647352,-0.7480469,0.67089844,0.15136719,-18.78125,14.375,1.9375
207,1727104647386,-0.7001953,0.6767578,0.09472656,-2.21875,-9.875,-3.1875
208,1727104647425,-0.68066406,0.7236328,0.045898438,-13.15625,-1.8125,-2.84375
209,1727104647462,-0.71875,0.65722656,0.16699219,-17.25,4.40625,-3.5
210,1727104647501,-0.75097656,0.6376953,0.0126953125,-19.5625,-2.3125,-7.46875
211,1727104647535,-0.7236328,0.73339844,0.05859375,-5.21875,-2.4375,-11.375
212,1727104647573,-0.6279297,0.6796875,0.06640625,1.8125,-15.0,-7.90625
213,1727104647627,-0.6904297,0.7753906,0.009765625,-2.40625,-13.21875,-6.75
214,1727104647667,-0.68066406,0.6767578,0.09375,13.9375,-2.78125,-3.875
215,1727104647711,-0.6660156,0.56347656,0.0029296875,17.625,3.0625,0.03125
216,1727104647742,-0.7626953,0.68359375,0.016601562,33.0625,8.625,-3.6875
217,1727104647781,-0.7001953,0.67285156,0.32714844,22.96875,33.28125,-8.875
218,1727104647818,-0.6201172,0.52246094,0.4814453,-44.78125,-23.0625,-3.375
219,1727104647857,-0.9667969,0.7285156,-0.39257812,-53.375,3.0625,-20.90625
220,1727104647909,-0.5449219,0.7373047,0.26171875,190.03125,-60.28125,-4.96875
221,1727104647947,-0.78027344,0.74902344,-0.07519531,-14.75,14.0,1.0
222,1727104647984,-0.7519531,0.7363281,0.140625,24.8125,-16.15625,-3.03125
223,1727104648023,-0.85058594,0.69433594,-0.059570312,-9.96875,3.125,-7.28125
224,1727104648064,-0.7373047,0.61621094,-0.08496094,-14.3125,17.65625,-5.09375
225,1727104648102,-0.81933594,0.52246094,-0.030273438,23.96875,-31.0,3.28125
226,1727104648138,-0.58691406,0.68847656,0.013671875,24.03125,-13.96875,-11.125
227,1727104648173,-0.6738281,0.68652344,0.041992188,-11.125,4.15625,0.40625
228,1727104648229,-0.86621094,0.5361328,0.01953125,-27.25,20.03125,2.96875
229,1727104648266,-0.8076172,0.5673828,0.16113281,-26.625,19.25,-0.75
230,1727104648302,-0.9824219,0.84765625,0.20898438,-29.15625,4.59375,1.1875
231,1727104648340,-0.7626953,0.63183594,0.20703125,6.875,-29.59375,7.90625
232,1727104648377,-0.7832031,0.80371094,0.14746094,-8.4375,-30.1875,6.875
233,1727104648415,-0.7011719,0.6269531,0.033203125,-32.1875,-3.71875,5.90625
234,1727104648454,-0.70703125,0.5859375,-0.041992188,0.8125,-19.09375,6.1875
235,1727104648493,-0.8886719,0.59375,0.044921875,1.5,13.6875,4.4375
236,1727104648546,-0.71777344,0.6875,0.0078125,12.125,10.28125,-0.875
237,1727104648584,-0.6298828,0.81347656,0.11230469,25.84375,-6.375,-1.90625
238,1727104648621,-0.6591797,0.8251953,0.13183594,14.1875,3.8125,1.4375
239,1727104648659,-0.7207031,0.7314453,0.15332031,-4.0625,-0.28125,6.5
240,1727104648697,-0.75878906,0.6542969,0.060546875,-13.46875,13.875,3.875
241,1727104648739,-0.75,0.6191406,-0.026367188,0.9375,10.8125,0.875
242,1727104648772,-0.68066406,0.66796875,0.08984375,1.8125,9.125,-2.71875
243,1727104648833,-0.61816406,0.7421875,0.10058594,0.15625,7.90625,0.15625
244,1727104648872,-0.7314453,0.6582031,0.0234375,0.03125,3.8125,7.3125
245,1727104648902,-0.7832031,0.6503906,0.018554688,7.71875,1.46875,7.1875
246,1727104648940,-0.7392578,0.6875,0.06640625,4.1875,20.84375,4.625
247,1727104648978,-0.7080078,0.6875,-0.046875,26.59375,3.6875,5.59375
248,1727104649015,-0.68652344,0.5996094,0.119140625,20.125,10.03125,5.46875
249,1727104649053,-0.60058594,0.6767578,0.12695312,1.1875,-1.5,-3.09375
250,1727104649112,-0.7890625,0.5683594,0.40820312,-38.1875,3.6875,-7.46875
251,1727104649150,-0.7705078,0.6113281,-0.3251953,-52.65625,10.53125,-10.15625
252,1727104649194,-0.7783203,0.68652344,0.31054688,70.53125,-35.1875,6.4375
253,1727104649226,-0.81152344,0.7001953,-0.0625,-36.03125,41.21875,-4.0625
254,1727104649264,-0.75,0.625,0.0126953125,10.96875,-8.90625,-11.75
255,1727104649299,-0.8378906,0.78027344,-0.00390625,7.65625,-11.53125,-3.09375
256,1727104649334,-0.71875,0.6201172,0.005859375,19.9375,-18.71875,-4.40625
257,1727104649372,-0.76171875,0.7314453,0.14746094,14.6875,-16.71875,-6.0625
258,1727104649468,-0.75,0.578125,-0.04296875,-2.53125,-10.125,-1.625
259,1727104649484,-0.82910156,0.5625,0.00390625,17.625,-16.15625,-4.90625
260,1727104649503,-0.671875,0.68847656,0.11230469,5.03125,-14.15625,-2.90625
261,1727104649540,-0.6611328,0.5449219,0.10253906,1.6875,-25.75,3.8125
262,1727104649583,-0.9121094,0.5673828,0.3046875,-40.1875,1.53125,-5.15625
263,1727104649620,-0.8388672,0.6953125,0.11816406,-62.15625,-0.09375,-22.0
264,1727104649661,-0.6875,0.72265625,0.036132812,8.625,-65.78125,-5.46875
265,1727104649695,-0.8017578,0.81347656,-0.10058594,49.28125,-23.0625,11.875
266,1727104649750,-0.67871094,0.7949219,0.0068359375,1.75,2.65625,8.03125
267,1727104649791,-0.76953125,0.6669922,0.06542969,-17.1875,36.46875,3.34375
268,1727104649826,-0.73339844,0.74902344,0.11621094,21.8125,6.5625,7.25
269,1727104649863,-0.6689453,0.64160156,0.044921875,35.8125,0.5,9.0
270,1727104649898,-0.74316406,0.7363281,0.14648438,5.46875,21.75,6.0625
271,1727104649938,-0.71484375,0.67285156,0.13378906,11.625,9.34375,6.5625
272,1727104649976,-0.6660156,0.6621094,0.1328125,8.46875,-3.09375,6.4375
273,1727104650031,-0.7607422,0.7060547,0.10644531,-4.25,1.4375,3.15625
274,1727104650065,-0.72558594,0.67578125,0.08203125,-1.96875,-0.21875,1.5625
275,1727104650103,-0.71777344,0.65234375,0.0546875,1.3125,0.03125,1.625
276,1727104650141,-0.7441406,0.7060547,0.048828125,1.6875,-6.375,-1.375
277,1727104650181,-0.68359375,0.6621094,0.10253906,5.78125,-4.9375,0.15625
278,1727104650224,-0.7578125,0.6855469,-0.028320312,3.09375,-8.34375,-2.21875
279,1727104650256,-0.68359375,0.74902344,0.06640625,14.1875,-4.4375,-1.25
280,1727104650294,-0.6826172,0.6308594,-0.030273438,24.09375,-15.46875,3.625
281,1727104650347,-0.6357422,0.7841797,-0.01953125,41.28125,-9.0,2.0
282,1727104650384,-0.50878906,0.7158203,0.10839844,16.5,16.125,3.75
283,1727104650422,-0.6533203,0.6298828,0.39648438,-5.15625,-1.6875,-4.65625
284,1727104650459,-1.0761719,0.6972656,-0.31054688,-44.53125,13.5625,-17.59375
285,1727104650496,-0.9140625,0.6171875,0.0546875,11.75,33.84375,-30.0625
286,1727104650535,-0.515625,0.6796875,0.056640625,37.8125,4.84375,2.0625
287,1727104650571,-0.7109375,0.8935547,0.30273438,20.1875,-16.875,0.8125
288,1727104650633,-0.7685547,0.65527344,-0.00390625,-55.8125,35.125,-0.75
289,1727104650667,-0.7578125,0.6621094,-0.15136719,-43.375,21.0625,-6.75
290,1727104650703,-0.75683594,0.7294922,-0.19238281,19.0625,-15.90625,2.46875
291,1727104650741,-0.76171875,0.67871094,0.005859375,23.40625,3.5625,5.03125
292,1727104650780,-0.6933594,0.66796875,0.078125,-34.21875,64.34375,-5.8125
293,1727104650816,-0.73535156,0.5800781,-0.099609375,-58.375,49.9375,-0.21875
294,1727104650853,-0.7763672,0.59765625,-0.0048828125,-39.59375,47.5,2.40625
295,1727104650890,-0.8388672,0.58984375,0.19921875,-62.53125,52.4375,-3.75
296,1727104650949,-0.89941406,0.703125,0.072265625,-65.15625,44.21875,-0.28125
297,1727104650984,-0.89453125,0.7871094,0.041015625,-57.21875,16.4375,6.625
298,1727104651022,-0.6738281,0.6376953,-0.0029296875,-28.34375,-2.375,14.75
299,1727104651090,-0.70214844,0.6464844,0.055664062,-32.1875,8.5625,13.21875
300,1727104651096,-0.76171875,0.74121094,0.11035156,-28.53125,18.15625,6.125
301,1727104651134,-0.56933594,0.8261719,0.034179688,-38.78125,9.96875,11.4375
302,1727104651171,-0.72753906,0.69140625,0.024414062,-28.15625,15.46875,15.53125
303,1727104651234,-0.6826172,0.7890625,0.1015625,-48.625,56.84375,8.6875
304,1727104651269,-0.5761719,0.7373047,-0.03125,-21.6875,21.75,16.34375
305,1727104651306,-0.6738281,0.67871094,0.1015625,-22.96875,29.6875,17.0
306,1727104651342,-0.6953125,0.7910156,-0.029296875,-32.5,37.125,10.03125
307,1727104651380,-0.67871094,0.7324219,0.041992188,-29.5,42.125,7.125
308,1727104651415,-0.7314453,0.68652344,-0.005859375,-25.53125,36.53125,6.125
309,1727104651453,-0.7167969,0.6875,-0.030273438,-25.125,36.6875,2.09375
310,1727104651490,-0.6357422,0.76660156,0.018554688,-20.78125,39.625,0.15625
311,1727104651551,-0.6328125,0.7578125,0.06347656,-27.0,36.59375,3.625
312,1727104651586,-0.7265625,0.66015625,-0.06640625,-32.125,30.59375,4.90625
313,1727104651626,-0.7001953,0.734375,0.041992188,-25.53125,39.75,0.65625
314,1727104651662,-0.6748047,0.68066406,0.053710938,-30.71875,31.5,4.0625
315,1727104651699,-0.77734375,0.6845703,0.052734375,-27.25,36.09375,-0.15625
316,1727104651740,-0.68066406,0.6298828,0.048828125,-30.65625,49.875,-6.5625
317,1727104651791,-0.6113281,0.5390625,0.076171875,-34.5,32.5625,-10.03125
318,1727104651830,-0.89453125,0.65527344,0.15527344,-19.3125,17.59375,-14.0625
319,1727104651880,-0.9355469,0.35742188,0.28320312,-94.03125,71.625,-41.59375
320,1727104651916,-0.6923828,0.8535156,-0.25585938,8.875,-35.0,-12.53125
321,1727104651940,-0.91308594,0.95410156,0.1953125,43.84375,-121.25,-10.78125
322,1727104652000,-0.7548828,0.4453125,-0.3154297,18.21875,22.59375,-0.8125
323,1727104652019,-0.6376953,0.6464844,0.234375,8.8125,34.1875,-5.65625
324,1727104652054,-0.87109375,0.7285156,-0.07910156,-35.5625,43.15625,-2.46875
325,1727104652109,-0.7216797,0.6328125,-0.072265625,-0.15625,22.28125,-3.09375
326,1727104652148,-0.66015625,0.83203125,0.076171875,-18.21875,7.90625,-8.03125
327,1727104652186,-0.65625,0.8203125,-0.109375,-0.15625,-3.71875,1.6875
328,1727104652222,-0.7607422,0.625,-0.07128906,-28.78125,23.46875,5.90625
329,1727104652265,-0.90722656,0.5546875,-0.015625,-43.96875,46.15625,-1.6875
330,1727104652303,-0.72558594,0.6435547,-0.076171875,-33.34375,48.71875,-4.3125
331,1727104652337,-0.7001953,0.5908203,0.064453125,-37.3125,26.75,0.46875
332,1727104652375,-0.8359375,0.68359375,-0.0048828125,-34.4375,28.09375,-0.5
333,1727104652410,-0.7734375,0.6484375,0.10253906,-29.5,30.96875,6.375
334,1727104652465,-0.94921875,0.66308594,-0.06738281,-20.65625,3.625,7.46875
335,1727104652505,-0.76171875,0.6875,-0.043945312,-17.5,32.5625,7.1875
336,1727104652541,-0.7763672,0.66796875,0.08691406,-6.125,4.71875,9.5
337,1727104652578,-0.67089844,0.66796875,0.053710938,3.03125,17.28125,8.8125
338,1727104652617,-0.63964844,0.7392578,0.041992188,-10.90625,7.34375,13.09375
339,1727104652652,-0.7246094,0.5908203,0.08203125,-18.71875,13.375,13.78125
340,1727104652693,-0.71972656,0.72753906,0.04296875,-27.8125,18.34375,6.5
341,1727104652748,-0.7841797,0.65234375,-0.009765625,-17.3125,9.28125,6.75
342,1727104652787,-0.6904297,0.7294922,0.047851562,-23.71875,17.96875,1.5
343,1727104652821,-0.66503906,0.7939453,0.07421875,-29.75,15.9375,3.15625
344,1727104652859,-0.6640625,0.6953125,-0.024414062,-25.78125,10.40625,5.28125
345,1727104652897,-0.75683594,0.77734375,0.001953125,-28.46875,12.46875,2.34375
346,1727104652934,-0.69433594,0.7597656,0.036132812,-21.6875,14.1875,0.875
347,1727104652972,-0.7285156,0.6845703,-0.049804688,-16.9375,16.375,2.0625
348,1727104653009,-0.6347656,0.7529297,0.06640625,-13.53125,17.59375,-0.5
349,1727104653066,-0.60253906,0.7548828,0.07714844,-18.59375,19.90625,-1.6875
350,1727104653103,-0.67871094,0.70996094,0.025390625,-36.15625,33.34375,-0.40625
351,1727104653142,-0.6425781,0.734375,0.06542969,-26.625,20.78125,0.65625
352,1727104653180,-0.6855469,0.7109375,0.076171875,-29.4375,18.21875,2.34375
353,1727104653216,-0.7207031,0.63964844,-0.026367188,-32.3125,27.0,1.5
354,1727104653253,-0.7207031,0.66503906,0.083984375,-13.03125,25.71875,-2.03125
355,1727104653289,-0.61328125,0.62597656,0.08105469,-2.90625,6.78125,-0.09375
356,1727104653350,-0.66503906,0.6611328,0.08691406,-2.84375,10.625,-0.6875
357,1727104653386,-0.85058594,0.75,0.25195312,-11.4375,13.1875,-15.78125
358,1727104653425,-0.8222656,0.61328125,-0.25683594,-26.75,50.8125,-9.5625
359,1727104653463,-0.77441406,0.7373047,0.20898438,25.53125,-2.46875,-8.875
360,1727104653498,-0.7529297,0.6972656,-0.08691406,-8.4375,7.15625,-1.625
361,1727104653539,-0.7998047,0.57421875,-0.11328125,-23.84375,37.0,-8.4375
362,1727104653572,-0.609375,0.8496094,0.2890625,-41.65625,16.0,-3.4375
363,1727104653632,-0.8417969,0.5498047,-0.16894531,-32.8125,15.03125,0.875
364,1727104653668,-0.89941406,0.51171875,-0.0146484375,-31.09375,31.875,-12.0625
365,1727104653704,-0.68359375,0.71191406,0.036132812,-26.9375,31.21875,-16.375
366,1727104653742,-0.6796875,0.70996094,-0.036132812,-4.96875,-16.78125,-2.90625
367,1727104653780,-0.8623047,0.64160156,-0.024414062,-10.59375,6.0625,3.8125
368,1727104653819,-0.82421875,0.60253906,0.0703125,-31.15625,26.8125,-3.8125
369,1727104653861,-0.7558594,0.7236328,0.0107421875,-21.625,11.96875,-2.40625
370,1727104653897,-0.83691406,0.67578125,0.099609375,-35.0,18.875,4.71875
371,1727104653953,-0.6796875,0.58203125,0.0048828125,-25.59375,17.15625,8.40625
372,1727104653986,-0.62597656,0.515625,-0.028320312,6.375,-26.46875,10.03125
373,1727104654023,-1.2148438,0.78027344,0.0146484375,-10.84375,22.90625,4.5
374,1727104654063,-0.8408203,0.5595703,0.08203125,-9.3125,38.78125,-2.90625
375,1727104654099,-0.48339844,0.7001953,0.3388672,2.53125,-12.125,6.375
376,1727104654136,-0.69628906,0.85253906,0.08984375,2.40625,-23.25,9.90625
377,1727104654177,-0.75,0.6455078,-0.068359375,-15.34375,15.09375,12.375
378,1727104654211,-0.7861328,0.5761719,-0.0068359375,-10.65625,25.90625,6.4375
379,1727104654265,-0.61816406,0.83203125,0.11425781,-10.90625,24.75,9.0625
380,1727104654304,-0.59277344,0.7949219,0.103515625,-9.84375,5.21875,12.65625
381,1727104654345,-0.7109375,0.71777344,0.06640625,-30.0,28.34375,12.53125
382,1727104654381,-0.76660156,0.640625,0.041015625,-31.84375,30.0625,8.625
383,1727104654419,-0.73828125,0.68066406,0.00390625,-30.59375,28.28125,4.25
384,1727104654456,-0.62597656,0.75683594,0.15722656,-16.875,14.90625,5.46875
385,1727104654491,-0.7001953,0.7089844,-0.0390625,-23.46875,17.46875,6.6875
386,1727104654546,-0.64746094,0.7060547,-0.015625,-30.1875,26.875,4.0
387,1727104654604,-0.67285156,0.6816406,-0.04296875,-22.5,32.125,2.46875
388,1727104654627,-0.64160156,0.65722656,-0.0029296875,-15.28125,35.125,0.78125
389,1727104654667,-0.6220703,0.6796875,0.01953125,-20.65625,46.28125,-3.8125
390,1727104654696,-0.8847656,0.59765625,0.4560547,-20.84375,48.53125,-10.9375
391,1727104654753,-0.8300781,0.765625,-0.1484375,-28.46875,17.53125,-12.0
392,1727104654777,-0.66503906,0.65527344,0.021484375,9.4375,16.25,-8.375
393,1727104654824,-0.828125,0.6542969,0.013671875,-64.1875,63.375,-10.59375
394,1727104654908,-0.62402344,0.7216797,0.06738281,-41.65625,30.34375,-11.125
395,1727104654927,-0.7714844,0.55859375,-0.033203125,-62.59375,53.0625,-4.71875
396,1727104654943,-0.8886719,0.6220703,-0.12011719,-15.65625,6.25,-4.53125
397,1727104654978,-0.74902344,0.7011719,0.08496094,-28.59375,41.15625,-14.5
398,1727104655015,-0.60546875,0.8144531,0.125,-43.3125,20.84375,-9.71875
399,1727104655053,-0.7919922,0.73535156,-0.24804688,-42.75,10.28125,4.4375
400,1727104655114,-0.71972656,0.6142578,-0.13085938,-16.5625,25.28125,7.78125
401,1727104655146,-0.8466797,0.5683594,0.20898438,-60.09375,48.84375,1.8125
402,1727104655185,-0.82910156,0.578125,-0.08691406,-58.3125,51.03125,1.0625
403,1727104655222,-0.83691406,0.5839844,0.08105469,-28.78125,16.25,2.71875
404,1727104655259,-0.7919922,0.6542969,0.057617188,-20.90625,20.46875,2.0625
405,1727104655296,-0.74121094,0.6376953,0.12988281,-9.96875,-1.4375,4.4375
406,1727104655334,-0.7714844,0.6816406,-0.12402344,-19.25,40.1875,6.1875
407,1727104655372,-1.0986328,0.578125,0.17382812,-9.375,20.21875,13.21875
408,1727104655412,-0.6904297,0.6123047,0.052734375,-12.90625,17.96875,6.625
409,1727104655469,-0.6435547,0.7265625,0.07714844,-11.25,9.28125,7.90625
410,1727104655507,-0.74902344,0.6455078,0.029296875,-3.3125,-3.34375,12.59375
411,1727104655545,-0.6201172,0.6044922,0.041015625,-26.21875,30.34375,4.96875
412,1727104655578,-0.69628906,0.7060547,0.06347656,-15.78125,-0.84375,6.0
413,1727104655616,-0.7421875,0.69921875,0.0029296875,-20.40625,10.46875,4.1875
414,1727104655657,-0.6894531,0.7939453,0.016601562,-23.15625,15.9375,0.21875
415,1727104655690,-0.6542969,0.8066406,0.08691406,-22.84375,11.4375,3.75
416,1727104655749,-0.7919922,0.7128906,-0.06542969,-41.78125,30.40625,2.65625
417,1727104655790,-0.76464844,0.796875,0.12011719,-26.8125,29.3125,-1.5625
418,1727104655826,-0.7949219,0.65527344,-0.05078125,-21.625,16.9375,2.90625
419,1727104655863,-0.78222656,0.6669922,0.025390625,6.125,2.53125,-0.5
420,1727104655901,-0.69433594,0.6513672,-0.016601562,16.625,-9.0,-3.5
421,1727104655934,-0.58496094,0.62402344,-0.021484375,10.84375,4.84375,-4.0
422,1727104655975,-0.45703125,0.63183594,0.013671875,-5.40625,23.15625,-0.625
423,1727104656009,-0.62890625,0.6435547,0.07714844,-13.15625,6.125,-8.875
424,1727104656080,-1.0917969,0.7871094,-0.07128906,-47.15625,-0.46875,-20.21875
425,1727104656107,-0.7236328,0.5605469,0.0703125,16.75,47.3125,-10.34375
426,1727104656140,-0.6796875,0.74902344,0.23632812,-11.9375,30.59375,-3.03125
427,1727104656182,-0.81347656,0.65234375,-0.08691406,-34.28125,19.90625,-0.5
428,1727104656221,-0.6972656,0.59472656,-0.060546875,-19.8125,33.03125,-5.28125
429,1727104656271,-0.68847656,0.62890625,-0.02734375,-0.75,1.65625,3.09375
430,1727104656296,-0.8701172,0.71972656,0.125,2.03125,19.6875,1.125
431,1727104656346,-0.70996094,0.6123047,0.0126953125,-49.28125,31.34375,-6.625
432,1727104656387,-0.8173828,0.6923828,-0.06933594,-31.21875,16.875,-5.21875
433,1727104656422,-0.8730469,0.54785156,-0.046875,-16.8125,18.34375,-4.78125
434,1727104656465,-0.8232422,0.5527344,0.07519531,-21.40625,15.875,-8.21875
435,1727104656500,-0.8515625,0.6484375,-0.0087890625,-19.5625,11.1875,-9.96875
436,1727104656534,-0.7792969,0.5576172,0.0126953125,-24.125,7.03125,-8.09375
437,1727104656575,-0.80566406,0.5888672,0.080078125,-22.25,-0.65625,-7.0
438,1727104656632,-0.8076172,0.64941406,0.10449219,-25.96875,-7.25,-5.15625
439,1727104656666,-0.6923828,0.59375,-0.0068359375,-17.65625,-5.53125,0.46875
440,1727104656703,-0.89746094,0.66308594,-0.0546875,-18.03125,-5.21875,4.625
441,1727104656743,-0.9746094,0.61035156,0.018554688,-2.40625,10.40625,9.375
442,1727104656778,-0.71777344,0.62890625,0.19433594,-7.78125,8.8125,8.34375
443,1727104656818,-0.58203125,0.7714844,0.13671875,6.3125,-6.09375,10.78125
444,1727104656858,-0.7363281,0.6201172,-0.020507812,-1.96875,-17.5625,20.34375
445,1727104656895,-0.8574219,0.5751953,0.04296875,-24.8125,38.21875,9.6875
446,1727104656929,-0.7421875,0.6582031,0.07519531,-14.96875,30.65625,3.875
447,1727104656985,-0.6484375,0.68359375,0.049804688,10.53125,-8.65625,6.125
448,1727104657022,-0.7402344,0.73339844,0.032226562,14.4375,-20.25,8.34375
449,1727104657059,-0.71191406,0.796875,0.06542969,-3.4375,6.625,5.90625
450,1727104657096,-0.75097656,0.70214844,-0.0234375,-16.5625,21.625,5.40625
451,1727104657134,-0.7734375,0.67578125,0.0048828125,-11.4375,24.0625,1.6875
452,1727104657172,-0.75,0.6689453,0.087890625,-10.78125,17.15625,-0.15625
453,1727104657209,-0.7470703,0.6875,0.041015625,-15.09375,21.5,-2.53125
454,1727104657265,-0.74609375,0.6376953,0.00390625,-5.03125,8.4375,-0.9375
455,1727104657303,-0.70214844,0.67871094,0.026367188,11.03125,6.78125,-5.28125
456,1727104657340,-0.73828125,0.6826172,0.05859375,5.53125,4.59375,-1.125
457,1727104657385,-0.7138672,0.6777344,0.0087890625,3.28125,8.4375,-2.53125
458,1727104657415,-0.6826172,0.6904297,0.13476562,0.8125,10.9375,-4.0
459,1727104657458,-0.69433594,0.546875,0.119140625,-11.75,-1.8125,-4.0625
460,1727104657490,-0.6347656,0.37402344,0.0029296875,-31.40625,-1.25,-4.90625
461,1727104657529,-0.94921875,0.74902344,-0.115234375,-17.78125,-27.1875,-12.125
462,1727104657588,-1.0371094,0.54003906,0.34960938,46.28125,20.40625,-4.78125
463,1727104657628,-0.62597656,0.5751953,-0.13964844,-27.3125,22.78125,-10.90625
464,1727104657659,-0.66503906,0.9873047,0.47460938,21.53125,-66.09375,-0.75
465,1727104657697,-0.85546875,0.54589844,-0.26953125,-29.8125,2.71875,2.34375
466,1727104657736,-0.85253906,0.53808594,-0.15820312,17.0625,13.15625,-2.15625
467,1727104657809,-0.8623047,0.67871094,0.14453125,13.59375,-4.0625,-5.875
468,1727104657818,-0.7841797,0.6738281,0.005859375,5.84375,-10.28125,-6.25
469,1727104657868,-0.7441406,0.6660156,0.046875,-1.0,-4.125,-2.46875
470,1727104657906,-0.77734375,0.53808594,-0.021484375,-7.09375,5.8125,-2.21875
471,1727104657943,-0.87402344,0.6347656,0.078125,-11.625,5.03125,-1.5625
472,1727104657981,-0.7578125,0.70703125,0.20800781,2.78125,4.09375,2.71875
473,1727104658026,-0.7236328,0.61816406,0.10058594,-30.1875,7.46875,5.03125
474,1727104658059,-0.9433594,0.5449219,-0.109375,-11.5625,3.8125,5.40625
475,1727104658090,-0.765625,0.5830078,0.07910156,23.46875,-9.375,7.78125
476,1727104658128,-0.6347656,0.6777344,0.1015625,21.53125,-9.1875,5.96875
477,1727104658189,-0.76660156,0.69140625,0.052734375,1.9375,3.1875,8.53125
478,1727104658227,-0.80859375,0.70214844,0.10644531,-1.1875,7.46875,8.03125
479,1727104658262,-0.7871094,0.6533203,0.15039062,-14.625,14.65625,5.65625
480,1727104658300,-0.74121094,0.6044922,0.06640625,-21.09375,1.78125,3.40625
481,1727104658338,-0.8105469,0.6142578,-0.01171875,-13.40625,2.53125,0.53125
482,1727104658376,-0.71777344,0.69140625,-0.020507812,9.125,-13.78125,-1.0
483,1727104658420,-0.7636719,0.6933594,-0.021484375,3.15625,-4.0,-1.625
484,1727104658465,-0.7626953,0.7294922,-0.051757812,8.6875,5.09375,-3.1875
485,1727104658506,-0.70214844,0.7578125,0.040039062,10.90625,8.0,-3.625
486,1727104658544,-0.6855469,0.7470703,0.09765625,-2.21875,17.65625,-0.5625
487,1727104658580,-0.7011719,0.7001953,0.07128906,-7.78125,13.375,3.40625
488,1727104658617,-0.76953125,0.63964844,0.125,6.625,-2.65625,5.09375
489,1727104658656,-0.78222656,0.5888672,0.022460938,1.3125,4.15625,-2.59375
490,1727104658697,-0.71777344,0.5888672,-0.0078125,2.03125,7.78125,-2.78125
491,1727104658747,-0.6357422,0.546875,0.06347656,14.875,-1.15625,2.0
492,1727104658786,-0.69921875,0.5595703,0.1953125,2.28125,-19.21875,-4.0625
493,1727104658822,-0.83984375,0.64746094,0.00390625,-25.71875,-2.25,-8.28125
494,1727104658861,-0.7783203,0.68359375,-0.05078125,-6.125,7.71875,-8.625
495,1727104658898,-1.0185547,0.59375,0.17089844,-19.125,-2.65625,4.4375
496,1727104658939,-0.7705078,0.56347656,-0.32128906,-24.25,7.78125,-14.375
497,1727104658973,-0.7363281,0.71191406,0.14257812,35.5,-13.59375,-2.84375
498,1727104659017,-0.7685547,0.7734375,-0.05078125,-6.3125,-10.96875,-0.15625
499,1727104659065,-0.8310547,0.66015625,0.030273438,-6.0,7.09375,-1.75
500,1727104659107,-0.7626953,0.5800781,-0.048828125,-15.59375,3.0625,-1.90625
501,1727104659140,-0.86035156,0.58691406,-0.043945312,-1.6875,-0.78125,-1.4375
502,1727104659178,-0.7871094,0.5439453,0.0390625,4.4375,1.0,3.09375
503,1727104659216,-0.73828125,0.58203125,0.02734375,-3.15625,2.8125,0.53125
504,1727104659253,-0.9042969,0.68066406,0.25390625,-14.5625,6.125,0.53125
505,1727104659315,-0.84472656,0.72265625,0.12402344,-57.78125,34.375,1.3125
506,1727104659329,-0.56152344,0.6611328,0.3408203,-2.84375,-44.15625,0.34375
507,1727104659425,-0.9404297,0.62597656,-0.15722656,-18.71875,-5.09375,8.8125
508,1727104659445,-0.9042969,0.5029297,-0.11816406,-11.125,16.6875,5.15625
509,1727104659459,-0.56640625,0.6777344,0.021484375,33.46875,-4.75,-0.28125
510,1727104659497,-0.6748047,0.828125,-0.015625,18.84375,1.96875,3.09375
511,1727104659537,-0.78027344,0.7871094,0.0078125,-6.625,24.0,11.75
512,1727104659572,-0.8173828,0.73339844,0.16210938,-12.78125,18.75,8.75
513,1727104659609,-0.78125,0.64746094,-0.001953125,-16.875,17.40625,8.03125
514,1727104659674,-0.7861328,0.6748047,0.025390625,-4.125,-2.1875,7.125
515,1727104659710,-0.7714844,0.62402344,0.078125,1.125,-0.59375,3.5625
516,1727104659742,-0.7558594,0.64746094,-0.0234375,-12.25,11.875,-1.84375
517,1727104659778,-0.7392578,0.6855469,0.10449219,-4.125,14.3125,-2.46875
518,1727104659815,-0.7060547,0.6542969,0.07128906,-3.375,0.1875,-1.25
519,1727104659853,-0.7705078,0.6376953,0.046875,0.34375,0.15625,0.34375
520,1727104659891,-0.6953125,0.6591797,0.033203125,6.625,-0.84375,-1.25
521,1727104659928,-0.6972656,0.6035156,-0.021484375,8.03125,-2.84375,0.65625
522,1727104659988,-0.7421875,0.6660156,0.07128906,21.875,0.03125,-0.34375
523,1727104660028,-0.5449219,0.55566406,0.040039062,10.28125,-3.53125,2.15625
524,1727104660063,-0.7246094,0.73046875,0.20117188,-5.09375,-9.8125,-7.71875
525,1727104660101,-1.0146484,0.4013672,-0.19628906,-30.4375,13.15625,-14.6875
526,1727104660139,-0.9970703,0.63671875,-0.03125,-3.1875,-21.28125,-18.09375
527,1727104660172,-0.77246094,0.70996094,0.19238281,29.09375,19.0625,-1.0625
528,1727104660210,-0.6669922,0.7705078,-0.032226562,-50.3125,15.78125,-15.71875
529,1727104660270,-0.71875,0.7685547,-0.1484375,32.8125,-26.15625,-2.53125
530,1727104660313,-0.83496094,0.625,-0.19433594,10.34375,-10.71875,0.09375
531,1727104660341,-0.8378906,0.5214844,-0.001953125,40.625,2.875,-1.84375
532,1727104660380,-0.7294922,0.7558594,0.13183594,-1.75,-7.125,-8.875
533,1727104660422,-0.8515625,0.6142578,-0.15429688,-16.875,5.75,-0.9375
534,1727104660456,-0.7783203,0.49316406,0.053710938,-3.6875,15.46875,-7.03125
535,1727104660493,-0.8779297,0.6503906,0.17773438,-47.03125,17.46875,-10.90625
536,1727104660540,-0.7128906,0.6845703,0.13085938,-6.4375,-7.0,-0.03125
537,1727104660586,-0.734375,0.6035156,-0.03515625,2.21875,-26.53125,15.90625
538,1727104660621,-0.99121094,0.64453125,0.029296875,-15.09375,25.53125,9.6875
539,1727104660667,-0.921875,0.5957031,0.21484375,-2.96875,18.21875,13.8125
540,1727104660699,-0.6484375,0.5996094,0.19238281,-34.03125,30.15625,9.75
541,1727104660736,-0.72265625,0.66796875,0.119140625,-7.15625,-22.5,13.03125
542,1727104660774,-0.79003906,0.5253906,-0.005859375,-12.0625,-2.375,18.28125
543,1727104660829,-0.85546875,0.56347656,0.020507812,-20.96875,11.8125,4.125
544,1727104660865,-0.7441406,0.6279297,0.03125,9.25,-7.1875,0.78125
545,1727104660902,-0.73828125,0.7080078,0.0126953125,3.6875,0.1875,-2.65625
546,1727104660942,-0.7158203,0.82910156,0.1171875,10.90625,-2.96875,-0.5625
547,1727104660978,-0.7519531,0.69628906,0.06542969,-5.59375,0.4375,2.90625
548,1727104661017,-0.8359375,0.6044922,-0.017578125,-21.8125,17.28125,-2.59375
549,1727104661057,-0.7910156,0.74902344,0.05859375,9.1875,1.53125,-6.625
550,1727104661092,-0.734375,0.6904297,0.051757812,6.9375,3.5,-4.78125
551,1727104661135,-0.75097656,0.71191406,0.09863281,13.15625,-11.28125,-3.875
552,1727104661183,-0.68066406,0.6035156,0.044921875,0.71875,-1.9375,-1.3125
553,1727104661221,-0.6484375,0.61621094,-0.060546875,12.4375,-11.21875,0.46875
554,1727104661259,-0.61328125,0.5126953,-0.013671875,26.34375,-2.4375,2.53125
555,1727104661297,-0.546875,0.37890625,0.0390625,11.03125,19.5625,-3.4375
556,1727104661337,-1.4130859,0.8613281,0.39453125,-13.9375,0.625,-39.9375
557,1727104661372,-0.8671875,0.6513672,-0.049804688,-15.65625,48.0,-23.09375
558,1727104661410,-0.32128906,0.8017578,0.39648438,54.40625,-83.78125,11.25
559,1727104661451,-0.9580078,0.6220703,0.013671875,-2.59375,-7.0625,4.84375
560,1727104661502,-1.0214844,0.40820312,0.03125,-14.125,26.03125,-13.21875
561,1727104661547,-0.7216797,0.5888672,0.041015625,2.28125,13.25,-18.9375
562,1727104661584,-0.765625,0.6513672,-0.046875,21.5625,-10.65625,-8.6875
563,1727104661617,-0.7871094,0.6279297,-0.045898438,30.65625,-27.6875,2.78125
564,1727104661653,-0.8261719,0.5126953,-0.016601562,-0.03125,8.25,5.21875
565,1727104661692,-0.80078125,0.5410156,0.061523438,-16.5625,22.53125,3.5625
566,1727104661728,-0.8808594,0.6308594,0.059570312,-25.25,19.125,1.125
567,1727104661787,-0.89160156,0.6777344,-0.109375,-30.5,22.1875,-1.5625
568,1727104661822,-0.6904297,0.73046875,0.18359375,38.4375,-47.84375,6.3125
569,1727104661861,-0.75390625,0.62402344,-0.034179688,4.0,2.75,16.40625
570,1727104661897,-0.9423828,0.66015625,0.15332031,-5.34375,-12.6875,17.0625
571,1727104661934,-0.8339844,0.52734375,0.041015625,-43.71875,20.78125,6.4375
572,1727104661971,-0.71875,0.62109375,0.23925781,-44.59375,19.0,3.4375
573,1727104662010,-0.6738281,0.71777344,0.053710938,-18.875,-33.90625,5.59375
574,1727104662047,-0.8808594,0.640625,0.01953125,-22.0625,-29.28125,6.8125
575,1727104662108,-0.8574219,0.43847656,-0.13085938,-19.5625,2.8125,2.09375
576,1727104662147,-0.8046875,0.6064453,-0.0859375,0.21875,9.59375,-3.8125
577,1727104662182,-0.74902344,0.7089844,0.12988281,-7.40625,20.28125,-8.9375
578,1727104662225,-0.6669922,0.67285156,0.09277344,12.375,6.3125,-7.0
579,1727104662254,-0.7519531,0.75390625,0.11425781,12.90625,-16.28125,1.3125
580,1727104662293,-0.7871094,0.6611328,0.15722656,1.375,-7.125,4.3125
581,1727104662352,-0.8613281,0.5175781,0.055664062,-8.15625,5.5625,0.65625
582,1727104662387,-0.8183594,0.5859375,-0.0068359375,10.46875,8.5,-7.96875
583,1727104662426,-0.6933594,0.6660156,0.18261719,22.0,5.09375,-9.5625
584,1727104662466,-0.69921875,0.68066406,0.057617188,11.09375,-1.3125,-6.6875
585,1727104662500,-0.6513672,0.64453125,0.07421875,12.25,1.53125,2.28125
586,1727104662541,-0.6816406,0.5283203,-0.01953125,20.25,-11.34375,8.53125
587,1727104662572,-0.8955078,0.5878906,0.18457031,17.125,-26.59375,-5.34375
588,1727104662612,-0.7578125,0.58496094,-0.107421875,-26.21875,51.15625,-13.9375
589,1727104662650,-0.8515625,0.6611328,-0.005859375,34.9375,8.8125,-4.0
590,1727104662706,-0.9189453,0.6191406,-0.0234375,8.15625,-15.0,17.90625
591,1727104662746,-0.9082031,0.3828125,-0.23046875,-24.3125,6.375,-15.71875
592,1727104662782,-0.78125,0.8515625,0.31152344,27.75,17.78125,-12.0
593,1727104662819,-0.76171875,0.6542969,-0.08300781,0.75,-16.59375,1.375
594,1727104662855,-0.7783203,0.5419922,0.005859375,-12.96875,3.3125,-0.5
595,1727104662895,-0.73535156,0.6171875,0.0087890625,-15.15625,7.34375,-0.75
596,1727104662933,-0.85058594,0.48535156,0.0146484375,-25.46875,10.28125,3.15625
597,1727104662984,-0.8574219,0.49902344,0.026367188,-6.625,3.1875,1.75
598,1727104663022,-0.90625,0.59277344,0.15820312,-7.28125,-4.3125,2.46875
599,1727104663059,-0.86328125,0.59765625,0.099609375,-28.15625,6.78125,-1.84375
600,1727104663103,-0.6904297,0.7207031,0.25878906,29.75,-50.875,6.75
601,1727104663142,-0.9296875,0.5957031,0.087890625,-20.90625,-4.5,11.3125
602,1727104663174,-0.9746094,0.5019531,-0.052734375,-46.59375,23.9375,3.5625
603,1727104663213,-0.76464844,0.5390625,0.01171875,30.90625,-22.3125,3.5
604,1727104663247,-0.6230469,0.7734375,0.10644531,42.4375,-21.34375,4.25
605,1727104663305,-0.7441406,0.7011719,0.07910156,1.3125,3.3125,5.53125
606,1727104663340,-0.8222656,0.6582031,0.07421875,-18.59375,21.6875,-0.40625
607,1727104663378,-0.76660156,0.6220703,0.009765625,1.125,-6.21875,1.875
608,1727104663416,-0.83203125,0.5966797,0.09082031,3.75,3.4375,-0.03125
609,1727104663453,-0.74902344,0.6738281,0.0625,8.46875,-0.21875,-0.5625
610,1727104663490,-0.75390625,0.6748047,0.119140625,8.15625,2.40625,-1.4375
611,1727104663535,-0.7402344,0.6298828,0.057617188,1.5625,10.21875,-2.84375
612,1727104663587,-0.7636719,0.6425781,0.12402344,5.90625,1.0,0.46875
613,1727104663622,-0.7949219,0.6171875,0.13378906,-0.6875,-1.5,0.875
614,1727104663660,-0.77246094,0.61621094,0.12011719,-4.59375,0.6875,0.8125
615,1727104663697,-0.7236328,0.61328125,0.03125,-0.8125,1.71875,-0.8125
616,1727104663735,-0.796875,0.5751953,0.09667969,9.5,6.625,0.8125
617,1727104663771,-0.81933594,0.5800781,0.091796875,13.28125,6.65625,-1.1875
618,1727104663809,-0.5751953,0.5576172,-0.099609375,23.65625,-11.625,-0.46875
619,1727104663869,-0.7138672,0.6533203,0.12890625,43.96875,-31.71875,1.3125
620,1727104663941,-0.9375,0.5439453,0.2607422,-2.46875,-22.8125,1.5625
621,1727104663962,-0.9736328,0.63378906,-0.13964844,-32.25,20.34375,-7.0
622,1727104663983,-0.81152344,0.7265625,0.46972656,96.59375,-10.46875,-0.6875
623,1727104664016,-0.69140625,0.5986328,-0.21289062,-15.96875,6.0625,-9.3125
624,1727104664052,-0.703125,0.9033203,0.2578125,34.15625,-40.8125,1.5625
625,1727104664092,-0.9326172,0.55371094,-0.17773438,-50.9375,6.625,5.90625
626,1727104664128,-0.859375,0.44921875,-0.125,3.625,12.46875,-5.34375
627,1727104664187,-0.7714844,0.6376953,0.12597656,13.59375,-4.1875,-5.40625
628,1727104664225,-0.7060547,0.5917969,0.16308594,-3.375,-10.25,2.0
629,1727104664263,-0.7919922,0.5253906,0.13476562,-34.875,3.1875,6.5625
630,1727104664302,-1.0146484,0.5888672,0.083984375,-52.875,14.53125,-4.46875
631,1727104664334,-0.93652344,0.59277344,0.17480469,4.125,-37.9375,-2.40625
632,1727104664372,-0.9169922,0.7011719,0.016601562,23.09375,-34.71875,-6.8125
633,1727104664409,-0.8183594,0.578125,0.036132812,0.46875,-8.53125,1.625
634,1727104664449,-0.69433594,0.63183594,0.15527344,5.71875,-9.0625,-2.03125
635,1727104664505,-0.71777344,0.6894531,0.13671875,-1.3125,0.25,0.46875
636,1727104664547,-0.7080078,0.63964844,0.080078125,-15.65625,9.46875,3.40625
637,1727104664583,-0.7988281,0.59375,0.037109375,-2.84375,-5.84375,5.09375
638,1727104664621,-0.8173828,0.546875,0.076171875,12.25,-9.25,2.40625
639,1727104664655,-0.7841797,0.6425781,0.036132812,15.21875,-1.4375,0.8125
640,1727104664696,-0.78515625,0.71484375,0.091796875,15.34375,-2.78125,-1.3125
641,1727104664731,-0.7734375,0.73535156,0.14355469,5.65625,7.53125,-0.6875
642,1727104664793,-0.8154297,0.61816406,0.099609375,-5.15625,10.40625,1.875
643,1727104664825,-0.79003906,0.63183594,0.125,9.0625,-3.46875,0.28125
644,1727104664870,-0.7548828,0.6191406,0.12402344,5.03125,3.5625,0.78125
645,1727104664905,-0.8183594,0.60839844,0.08886719,14.125,-3.09375,0.59375
646,1727104664940,-0.6982422,0.6357422,0.001953125,23.78125,-1.75,-0.75
647,1727104664976,-0.671875,0.6533203,0.125,24.375,-1.15625,4.0
648,1727104665013,-0.59765625,0.51171875,0.07910156,24.15625,2.34375,4.4375
649,1727104665053,-0.75097656,0.45410156,0.013671875,-11.125,-4.5625,-3.09375
650,1727104665103,-1.1679688,0.59765625,-0.0390625,-31.59375,11.90625,-17.375
651,1727104665143,-0.7792969,0.67871094,-0.103515625,12.53125,27.0625,-15.03125
652,1727104665179,-0.9482422,0.6386719,-0.09667969,-23.21875,-1.25,10.65625
653,1727104665219,-0.8720703,0.5800781,-0.20117188,33.1875,-22.875,-6.625
654,1727104665262,-0.62597656,0.7607422,0.15039062,31.15625,-6.15625,-10.53125
655,1727104665298,-0.81640625,0.66015625,-0.018554688,3.9375,-14.875,-4.78125
656,1727104665333,-0.88378906,0.42871094,-0.06640625,7.59375,2.34375,-0.5
657,1727104665384,-0.73535156,0.5888672,0.07519531,17.90625,-7.1875,-3.75
658,1727104665424,-0.7763672,0.71191406,0.17285156,11.5,-6.34375,4.6875
659,1727104665459,-0.99121094,0.5449219,0.0068359375,-50.4375,30.65625,2.34375
660,1727104665497,-0.7675781,0.54296875,0.0546875,-3.5,9.96875,-2.78125
661,1727104665535,-0.7138672,0.7988281,0.25097656,34.21875,-27.3125,8.09375
662,1727104665572,-0.96875,0.58691406,-0.07128906,-26.6875,12.59375,16.03125
663,1727104665615,-0.9423828,0.39746094,0.057617188,-22.625,20.28125,7.25
664,1727104665651,-0.7363281,0.61816406,0.14941406,25.0625,-16.15625,4.625
665,1727104665703,-0.74609375,0.6621094,0.16113281,-5.875,-6.6875,9.0625
666,1727104665740,-0.7988281,0.6142578,0.08203125,-7.78125,-15.125,3.34375
667,1727104665777,-0.73046875,0.64941406,0.053710938,-17.375,-15.59375,0.15625
668,1727104665815,-0.8378906,0.61621094,-0.047851562,-22.71875,-6.75,-3.125
669,1727104665852,-0.86328125,0.56347656,-0.06933594,-13.59375,3.375,-5.9375
670,1727104665889,-0.82910156,0.6591797,-0.021484375,-4.90625,7.96875,-8.15625
671,1727104665926,-0.7392578,0.7392578,0.09082031,18.59375,-5.09375,-6.625
672,1727104665964,-0.6738281,0.6826172,0.076171875,8.75,2.65625,-3.1875
673,1727104666021,-0.8076172,0.63964844,0.068359375,-7.0625,14.0,-0.28125
674,1727104666060,-0.7128906,0.6015625,0.091796875,-3.09375,17.0625,0.34375
675,1727104666102,-0.7832031,0.58496094,-0.020507812,15.03125,-7.625,3.15625
676,1727104666134,-0.67578125,0.6191406,0.009765625,18.90625,12.59375,-0.09375
677,1727104666174,-0.54003906,0.58984375,0.0048828125,33.0625,20.28125,4.78125
678,1727104666210,-0.72753906,0.56152344,0.20703125,3.6875,0.8125,-0.5
679,1727104666246,-1.2236328,0.27441406,0.76660156,-26.53125,-12.4375,-0.15625
680,1727104666305,-0.96972656,0.6435547,-0.30371094,-6.4375,-11.875,-18.21875
681,1727104666350,-0.6542969,0.60253906,-0.05859375,81.6875,-21.59375,9.0
682,1727104666381,-0.74316406,0.65722656,-0.17089844,-36.46875,17.0625,6.0625
683,1727104666418,-0.67578125,0.6308594,0.045898438,3.875,-9.375,-6.4375
684,1727104666453,-0.99609375,0.63671875,-0.18164062,-36.34375,5.375,-1.8125
685,1727104666495,-0.80078125,0.5371094,-0.1171875,16.8125,6.0625,-2.84375
686,1727104666528,-0.6376953,0.6298828,0.15917969,13.09375,-15.96875,-9.3125
687,1727104666567,-0.9394531,0.68066406,-0.04296875,21.34375,-16.9375,1.9375
688,1727104666628,-0.84472656,0.4453125,0.08984375,-16.15625,19.1875,2.59375
689,1727104666666,-0.76953125,0.5546875,0.25683594,-12.0,3.9375,-2.34375
690,1727104666699,-1.1171875,0.6269531,0.16601562,-12.46875,0.4375,5.09375
691,1727104666741,-0.7714844,0.5341797,0.171875,-7.78125,1.25,2.34375
692,1727104666773,-0.6503906,0.66796875,0.11230469,26.46875,-62.0625,2.53125
693,1727104666812,-0.9667969,0.6894531,-0.22363281,29.9375,-36.1875,14.5625
694,1727104666847,-0.81640625,0.52441406,0.0703125,3.5625,6.3125,6.8125
695,1727104666910,-0.75878906,0.62402344,0.08496094,-48.75,44.6875,-5.21875
696,1727104666944,-0.7314453,0.7519531,0.13867188,18.71875,-27.375,-1.4375
697,1727104666984,-0.72265625,0.6279297,0.0234375,21.28125,-26.65625,4.78125
698,1727104667020,-0.80078125,0.61328125,-0.059570312,-11.125,-4.125,0.9375
699,1727104667056,-0.7734375,0.7324219,0.08496094,7.1875,1.0,-1.5
700,1727104667098,-0.7080078,0.578125,0.08300781,-6.75,13.09375,2.90625
701,1727104667135,-0.8652344,0.66503906,0.0029296875,-21.8125,17.40625,-3.5
702,1727104667166,-0.7421875,0.67871094,0.13769531,7.65625,7.65625,-3.75
703,1727104667222,-0.7080078,0.61035156,0.03125,-6.9375,11.90625,2.46875
704,1727104667265,-0.85253906,0.67089844,0.09472656,-15.09375,12.21875,-1.5
705,1727104667299,-0.7578125,0.5810547,0.18261719,10.65625,3.0,1.5625
706,1727104667340,-0.8066406,0.5097656,-0.013671875,7.96875,-7.625,2.15625
707,1727104667379,-0.79003906,0.6074219,0.043945312,3.9375,5.28125,-5.46875
708,1727104667413,-0.5966797,0.53125,0.083984375,28.59375,-1.03125,4.90625
709,1727104667450,-0.7392578,0.5341797,0.05859375,41.96875,-27.03125,2.0
710,1727104667503,-0.7128906,0.7402344,0.4736328,43.96875,-48.03125,-11.75
711,1727104667547,-0.9863281,0.39746094,-0.2705078,-36.34375,45.6875,-7.28125
712,1727104667579,-0.7890625,0.60058594,0.0703125,18.03125,42.4375,-15.40625
713,1727104667624,-0.8310547,0.54296875,0.046875,-22.0,19.125,0.40625
714,1727104667672,-0.69628906,0.6591797,0.018554688,37.03125,-35.375,-2.71875
715,1727104667693,-0.8955078,0.57910156,-0.061523438,-24.5,9.46875,-3.1875
716,1727104667736,-0.8720703,0.6035156,-0.15722656,15.28125,-12.125,-5.46875
717,1727104667766,-0.8310547,0.61816406,0.055664062,58.6875,-24.34375,-4.46875
718,1727104667822,-0.81347656,0.61621094,-0.087890625,10.28125,-11.21875,-5.03125
719,1727104667861,-0.8466797,0.61328125,0.07324219,-2.71875,16.0625,-2.34375
720,1727104667897,-0.7402344,0.5058594,0.18554688,-20.53125,7.78125,1.3125
721,1727104667934,-0.8027344,0.44335938,0.07324219,-18.28125,-0.53125,3.40625
722,1727104667973,-1.1181641,0.6455078,0.18847656,-31.59375,-3.03125,-0.03125
723,1727104668010,-0.82128906,0.54785156,0.056640625,-9.125,-33.96875,0.40625
724,1727104668047,-0.7441406,0.79296875,-0.020507812,33.25,-86.34375,5.96875
725,1727104668104,-0.9033203,0.65234375,-0.099609375,78.46875,-74.125,16.6875
726,1727104668141,-0.7685547,0.64453125,0.030273438,-25.90625,23.09375,5.65625
727,1727104668179,-0.71875,0.6484375,0.12988281,-45.1875,31.28125,1.125
728,1727104668217,-0.69433594,0.66015625,0.09863281,-20.15625,16.6875,3.28125
729,1727104668253,-0.8574219,0.546875,0.041015625,-6.4375,2.46875,5.65625
730,1727104668291,-0.8857422,0.5966797,0.017578125,9.6875,-1.625,2.84375
731,1727104668327,-0.75097656,0.58691406,0.055664062,15.59375,0.5,-0.5
732,1727104668367,-0.8017578,0.58203125,0.060546875,-5.875,17.53125,-4.0625
733,1727104668422,-0.7529297,0.7011719,0.109375,2.03125,14.96875,-6.375
734,1727104668462,-0.69921875,0.6279297,0.09375,10.71875,-1.09375,-1.0625
735,1727104668497,-0.81347656,0.6455078,0.09082031,0.21875,1.78125,1.4375
736,1727104668535,-0.7988281,0.5908203,0.09472656,3.4375,0.625,0.53125
737,1727104668572,-0.78515625,0.5800781,0.08691406,16.21875,-10.125,-2.71875
738,1727104668609,-0.7734375,0.64941406,0.06933594,13.46875,-9.3125,-7.40625
739,1727104668647,-0.70996094,0.6152344,0.11621094,1.25,0.75,-3.1875
740,1727104668709,-0.81347656,0.5878906,0.01171875,4.375,-11.53125,0.59375
741,1727104668748,-0.7080078,0.6328125,0.013671875,25.65625,-8.71875,-4.125
742,1727104668781,-0.5917969,0.5107422,-0.0009765625,31.96875,11.0625,-0.5
743,1727104668818,-0.7578125,0.5253906,0.13574219,23.15625,3.4375,-9.0
744,1727104668857,-1.1630859,0.8876953,-0.06738281,-15.34375,21.8125,-2.90625
745,1727104668894,-0.5371094,0.58984375,0.18652344,-5.40625,-6.875,3.28125
746,1727104668928,-0.81933594,0.51660156,-0.061523438,-13.09375,5.28125,11.875
747,1727104668966,-1.0712891,0.5185547,-0.03125,8.9375,5.375,7.46875
748,1727104669025,-0.8671875,0.62109375,0.25390625,-10.59375,9.59375,-13.75
749,1727104669062,-0.8105469,0.55078125,-0.0625,-2.53125,5.34375,-12.78125
750,1727104669108,-0.79589844,0.62890625,-0.07128906,1.125,4.46875,-7.0
751,1727104669138,-0.7529297,0.56640625,-0.045898438,15.28125,2.46875,-8.28125
752,1727104669190,-0.8251953,0.5644531,0.09863281,36.78125,-2.125,-4.46875
753,1727104669212,-0.734375,0.5488281,0.14257812,-5.71875,24.4375,-3.375
754,1727104669251,-1.1074219,0.56152344,0.10058594,-26.6875,17.0,4.96875
755,1727104669305,-0.8251953,0.4482422,-0.115234375,4.5625,23.03125,-1.375
756,1727104669340,-0.7714844,0.8310547,0.12402344,41.0,-34.96875,-3.03125
757,1727104669382,-1.0371094,0.5527344,-0.13769531,5.71875,1.65625,10.03125
758,1727104669420,-0.8066406,0.5957031,0.0107421875,6.5,-16.34375,4.90625
759,1727104669461,-0.78125,0.6425781,0.171875,21.625,-34.46875,5.03125
760,1727104669493,-0.7519531,0.6376953,-0.02734375,-15.34375,-41.25,11.03125
761,1727104669530,-0.80859375,0.59277344,0.001953125,-3.75,-50.15625,7.90625
762,1727104669568,-0.84472656,0.5761719,0.06347656,12.71875,-53.6875,4.0625
763,1727104669622,-0.87402344,0.5546875,-0.051757812,0.21875,-14.5,-3.3125
764,1727104669661,-0.7949219,0.5957031,0.020507812,-15.40625,12.46875,-6.9375
765,1727104669698,-0.8027344,0.65722656,0.034179688,-6.125,9.34375,-6.3125
766,1727104669735,-0.7207031,0.6611328,0.057617188,5.53125,-2.0625,-3.75
767,1727104669773,-0.7832031,0.64941406,0.04296875,-4.65625,4.90625,-2.21875
768,1727104669817,-0.80078125,0.61816406,0.005859375,-5.03125,1.65625,0.15625
769,1727104669855,-0.8701172,0.6191406,0.0107421875,-0.21875,0.375,-0.6875
770,1727104669903,-0.81640625,0.59765625,-0.08203125,11.8125,0.3125,-2.65625
771,1727104669943,-0.7714844,0.60058594,-0.07128906,25.1875,8.0,-5.09375
772,1727104669978,-0.62109375,0.60058594,-0.049804688,37.5,7.15625,-0.875
