,Unnamed: 0,timestamp,accel_x,accel_y,accel_z,gyro_x,gyro_y,gyro_z
0,0,1727406017066,-1.019043,0.3427124,-1.144104,-22.765625,-1.875,17.625
1,1,1727406017106,-1.1259766,0.082458496,-0.6350708,1.53125,8.71875,-0.75
2,2,1727406017146,-0.37670898,0.22283936,-0.7241821,-68.859375,7.875,-29.71875
3,3,1727406017186,-0.08886719,0.011169434,-0.7661743,1.84375,-2.15625,-53.53125
4,4,1727406017226,-0.5390625,0.42034912,-0.8945923,22.015625,-2.328125,-50.578125
5,5,1727406017266,-0.7692871,0.24261475,-1.0081177,-10.0,-0.984375,-26.515625
6,6,1727406017306,-0.59277344,0.20013428,-0.9368286,-10.640625,-2.734375,-26.890625
7,7,1727406017346,-0.4333496,0.28363037,-0.895813,-12.15625,-6.796875,-33.796875
8,8,1727406017386,-0.32739258,0.30194092,-0.9656372,0.46875,-7.703125,-40.0625
9,9,1727406017426,-0.36645508,0.37005615,-1.022522,28.59375,-13.4375,-45.625
10,10,1727406017466,-0.46850586,0.3756714,-1.0386353,32.953125,-13.984375,-28.4375
11,11,1727406017506,-0.3552246,0.28411865,-0.8225708,19.34375,-18.703125,-12.390625
12,12,1727406017546,-0.28149414,0.2501831,-0.79034424,25.9375,-11.046875,-22.890625
13,13,1727406017586,-0.34106445,0.39227295,-0.82281494,42.078125,-2.546875,-21.484375
14,14,1727406017626,-0.25146484,0.4335327,-0.88165283,48.6875,-1.203125,-7.875
15,15,1727406017666,-0.19458008,0.46820068,-0.8953247,43.3125,-3.65625,-7.59375
16,16,1727406017706,-0.1940918,0.6251831,-0.8230591,42.65625,-15.25,-2.953125
17,17,1727406017746,-0.15112305,0.63153076,-0.7271118,41.765625,-28.5,3.078125
18,18,1727406017786,-0.15209961,0.6141968,-0.6968384,44.53125,-26.703125,8.71875
19,19,1727406017826,-0.1459961,0.62127686,-0.68048096,56.28125,-29.390625,21.375
20,20,1727406017866,-0.12182617,0.5873413,-0.63653564,52.578125,-36.390625,25.859375
21,21,1727406017906,-0.13842773,0.7201538,-0.5010376,41.640625,-44.984375,30.484375
22,22,1727406017946,-0.21386719,0.6881714,-0.53375244,41.640625,-48.03125,45.53125
23,23,1727406017986,-0.20458984,0.494812,-0.52545166,43.359375,-44.75,54.546875
24,24,1727406018026,-0.18383789,0.65740967,-0.44781494,36.796875,-41.546875,41.53125
25,25,1727406018066,-0.09790039,0.92645264,-0.39996338,30.96875,-46.671875,38.46875
26,26,1727406018106,-0.26757812,0.90496826,-0.45513916,21.3125,-61.03125,39.03125
27,27,1727406018146,-0.41455078,0.6881714,-0.41314697,15.53125,-65.921875,52.265625
28,28,1727406018186,-0.52319336,0.6703491,-0.39117432,4.875,-56.21875,55.984375
29,29,1727406018226,-0.5500488,0.8031616,-0.28204346,3.375,-45.890625,58.5
30,30,1727406018266,-0.41381836,0.59417725,-0.43267822,-2.015625,-42.28125,54.46875
31,31,1727406018306,-0.44018555,0.5560913,-0.3460083,-6.8125,-37.546875,32.234375
32,32,1727406018346,-0.5336914,0.5856323,-0.411438,-11.0,-23.859375,19.796875
33,33,1727406018386,-0.59277344,0.67108154,-0.3743286,-14.484375,-25.0625,26.828125
34,34,1727406018426,-0.59472656,0.586853,-0.47857666,-19.0625,-27.34375,39.46875
35,35,1727406018466,-0.62524414,0.54608154,-0.44122314,-20.359375,-29.4375,31.59375
36,36,1727406018506,-0.5456543,0.64471436,-0.3970337,-26.640625,-22.4375,23.375
37,37,1727406018546,-0.46923828,0.5372925,-0.46343994,-29.578125,-26.421875,21.328125
38,38,1727406018586,-0.5083008,0.47869873,-0.60479736,-29.3125,-22.765625,19.5
39,39,1727406018626,-0.8039551,0.37005615,-0.86383057,-39.890625,-3.125,26.390625
40,40,1727406018666,-0.8273926,0.28826904,-0.7468872,-21.75,2.96875,33.375
41,41,1727406018706,-0.4543457,0.34906006,-0.9138794,-29.765625,11.609375,21.703125
42,42,1727406018746,-0.51123047,0.49749756,-0.90875244,-50.59375,13.796875,-11.015625
43,43,1727406018786,-0.59936523,0.3192749,-0.9277954,-10.546875,24.828125,-8.671875
44,44,1727406018826,-0.6452637,0.044128418,-1.0881958,3.9375,26.25,7.9375
45,45,1727406018866,-0.5012207,0.26434326,-1.0305786,-20.4375,17.078125,-6.1875
46,46,1727406018906,-0.4230957,0.25701904,-1.1548462,-12.125,8.546875,-17.546875
47,47,1727406018946,-0.4152832,0.29022217,-1.0923462,7.6875,0.546875,-5.8125
48,48,1727406018986,-0.64331055,0.31243896,-0.99713135,4.53125,-11.75,-6.25
49,49,1727406019026,-0.52612305,0.19281006,-1.0012817,10.484375,-12.28125,3.390625
50,50,1727406019066,-0.52856445,0.30950928,-0.9434204,21.0,-9.078125,0.578125
51,51,1727406019106,-0.46850586,0.40179443,-1.0261841,27.78125,-13.5625,1.421875
52,52,1727406019146,-0.49121094,0.30584717,-0.96417236,25.65625,-23.78125,2.5625
53,53,1727406019186,-0.4807129,0.35321045,-0.9048462,31.640625,-18.40625,7.328125
54,54,1727406019226,-0.32055664,0.40985107,-0.86798096,40.53125,-26.84375,11.4375
55,55,1727406019266,-0.33251953,0.3949585,-0.8064575,39.65625,-29.0625,5.4375
56,56,1727406019306,-0.42285156,0.35150146,-0.83184814,43.875,-26.046875,3.65625
57,57,1727406019346,-0.42944336,0.43304443,-0.6934204,46.125,-21.96875,9.921875
58,58,1727406019386,-0.40478516,0.494812,-0.7390747,49.0,-14.171875,13.5625
59,59,1727406019426,-0.3503418,0.5128784,-0.6992798,48.09375,-12.078125,6.96875
60,60,1727406019466,-0.3408203,0.5192261,-0.6506958,44.28125,-12.765625,8.828125
61,61,1727406019506,-0.34814453,0.49993896,-0.59869385,42.828125,-8.21875,6.078125
62,62,1727406019546,-0.40771484,0.51116943,-0.56573486,36.671875,-1.5,2.90625
63,63,1727406019586,-0.3713379,0.6251831,-0.4602661,29.59375,4.0625,0.484375
64,64,1727406019626,-0.33129883,0.70111084,-0.5064087,19.4375,0.3125,-6.078125
65,65,1727406019666,-0.34155273,0.62786865,-0.36431885,7.0,-13.515625,3.296875
66,66,1727406019706,-0.30688477,0.50335693,-0.4360962,4.859375,-16.03125,15.65625
67,67,1727406019746,-0.54711914,0.6828003,-0.2925415,5.296875,-6.5625,17.125
68,68,1727406019786,-0.5788574,0.805603,-0.30523682,3.0625,-1.53125,21.234375
69,69,1727406019826,-0.48242188,0.6425171,-0.3460083,-0.96875,-8.71875,19.84375
70,70,1727406019866,-0.5720215,0.61712646,-0.31329346,-7.875,-7.71875,12.96875
71,71,1727406019906,-0.63427734,0.6481323,-0.3460083,-14.84375,-0.734375,10.78125
72,72,1727406019946,-0.58691406,0.65838623,-0.38238525,-17.375,-8.140625,15.15625
73,73,1727406019986,-0.57006836,0.6461792,-0.3821411,-26.390625,-11.890625,13.296875
74,74,1727406020026,-0.54345703,0.59588623,-0.37554932,-31.875,-15.1875,10.53125
75,75,1727406020066,-0.6069336,0.55267334,-0.38238525,-31.671875,-15.203125,7.765625
76,76,1727406020106,-0.5644531,0.61468506,-0.43121338,-33.953125,-13.09375,8.375
77,77,1727406020146,-0.5678711,0.48162842,-0.52227783,-39.234375,-17.96875,7.0625
78,78,1727406020186,-0.60058594,0.48114014,-0.46929932,-39.125,-18.046875,5.46875
79,79,1727406020226,-0.62719727,0.36419678,-0.756897,-46.375,-5.265625,7.6875
80,80,1727406020266,-0.7446289,0.3619995,-0.69903564,-45.453125,4.953125,7.0
81,81,1727406020306,-0.47216797,0.30413818,-0.75494385,-41.671875,10.109375,0.21875
82,82,1727406020346,-0.29223633,0.4430542,-0.86553955,-45.890625,8.296875,-11.046875
83,83,1727406020386,-0.4338379,0.293396,-1.0198364,-34.484375,5.09375,-8.453125
84,84,1727406020426,-0.6948242,0.27508545,-0.83477783,-14.1875,6.1875,-6.78125
85,85,1727406020466,-0.6308594,0.32977295,-1.0547485,-28.015625,14.625,-0.015625
86,86,1727406020506,-0.51953125,0.23675537,-1.0198364,-17.8125,7.046875,-2.71875
87,87,1727406020546,-0.58447266,0.3126831,-0.95562744,7.078125,13.171875,-9.421875
88,88,1727406020586,-0.6550293,0.340271,-1.1897583,2.859375,20.359375,-12.296875
89,89,1727406020626,-0.70654297,0.3204956,-1.0342407,20.578125,4.625,-6.28125
90,90,1727406020666,-0.5004883,0.29266357,-1.0942993,32.546875,6.75,-9.203125
91,91,1727406020706,-0.5932617,0.45892334,-0.991272,33.59375,13.421875,-26.296875
92,92,1727406020746,-0.579834,0.44232178,-1.0354614,54.375,3.75,-24.484375
93,93,1727406020786,-0.53466797,0.3776245,-0.95758057,46.828125,-3.890625,-21.625
94,94,1727406020826,-0.50097656,0.5258179,-0.78375244,56.9375,-5.515625,-23.0
95,95,1727406020866,-0.30810547,0.4664917,-0.9212036,45.390625,0.5625,-21.265625
96,96,1727406020906,-0.33007812,0.4310913,-0.7354126,39.90625,-34.859375,-23.46875
97,97,1727406020946,-0.47680664,0.42474365,-0.569397,31.21875,-14.359375,-24.171875
98,98,1727406020986,-0.23388672,0.70648193,-0.6253052,28.703125,-3.3125,-9.125
99,99,1727406021026,-0.21289062,0.66156006,-0.6140747,29.765625,-13.78125,-9.046875
100,100,1727406021066,-0.38427734,0.57489014,-0.5396118,31.734375,-8.171875,-4.0
101,101,1727406021106,-0.30932617,0.6010132,-0.4920044,29.484375,-6.671875,0.140625
102,102,1727406021146,-0.28759766,0.6144409,-0.4902954,23.453125,-4.015625,-0.640625
103,103,1727406021186,-0.3244629,0.6532593,-0.42803955,24.25,-1.546875,1.59375
104,104,1727406021226,-0.33081055,0.70648193,-0.43927002,23.6875,3.09375,1.5
105,105,1727406021266,-0.34472656,0.7406616,-0.4121704,16.203125,0.65625,4.296875
106,106,1727406021306,-0.37695312,0.8036499,-0.364563,13.4375,-1.265625,12.203125
107,107,1727406021346,-0.47680664,0.84710693,-0.25958252,9.40625,-0.5625,11.40625
108,108,1727406021386,-0.41308594,0.7850952,-0.24713135,4.75,-2.0,9.234375
109,109,1727406021426,-0.4169922,0.6972046,-0.29644775,2.078125,-3.78125,6.796875
110,110,1727406021466,-0.47460938,0.6259155,-0.24542236,-1.546875,-1.84375,2.890625
111,111,1727406021506,-0.51782227,0.78167725,-0.2539673,-8.078125,1.9375,0.875
112,112,1727406021546,-0.5385742,0.9203491,-0.2468872,-8.734375,-0.1875,0.921875
113,113,1727406021586,-0.513916,0.81658936,-0.27227783,-8.984375,-2.59375,-3.15625
114,114,1727406021626,-0.5288086,0.79071045,-0.22564697,-10.921875,-1.46875,-4.125
115,115,1727406021666,-0.5214844,0.79437256,-0.24884033,-10.109375,1.234375,-0.953125
116,116,1727406021706,-0.529541,0.7982788,-0.21295166,-10.515625,0.796875,-2.4375
117,117,1727406021746,-0.48779297,0.81365967,-0.25128174,-11.5,1.8125,-1.359375
118,118,1727406021786,-0.5041504,0.8065796,-0.26153564,-14.140625,-0.03125,-1.21875
119,119,1727406021826,-0.49243164,0.78289795,-0.28668213,-18.375,0.234375,-3.1875
120,120,1727406021866,-0.45874023,0.77948,-0.29571533,-22.6875,-3.359375,-3.90625
121,121,1727406021906,-0.46264648,0.7536011,-0.30010986,-25.828125,-3.96875,-5.609375
122,122,1727406021946,-0.48657227,0.7531128,-0.31402588,-26.03125,-3.71875,-7.078125
123,123,1727406021986,-0.47070312,0.71698,-0.32281494,-26.53125,-6.125,-1.640625
124,124,1727406022026,-0.43041992,0.6420288,-0.3711548,-29.4375,-7.546875,-0.890625
125,125,1727406022066,-0.3959961,0.6390991,-0.3928833,-35.5625,-7.75,-4.796875
126,126,1727406022106,-0.39379883,0.60809326,-0.5432739,-46.234375,-3.34375,-4.15625
127,127,1727406022146,-0.42871094,0.50213623,-0.6079712,-49.09375,0.046875,1.171875
128,128,1727406022186,-0.44995117,0.369812,-0.6963501,-58.484375,5.5,13.859375
129,129,1727406022226,-0.43432617,0.35369873,-0.6951294,-52.796875,11.703125,9.203125
130,130,1727406022266,-0.44799805,0.58758545,-0.72784424,-47.84375,9.25,4.875
131,131,1727406022306,-0.33740234,0.40618896,-0.9685669,-56.25,22.0,2.390625
132,132,1727406022346,-0.4873047,0.31781006,-0.84698486,-45.46875,10.625,2.734375
133,133,1727406022386,-0.4934082,0.3319702,-1.3154907,-51.046875,9.5,9.140625
134,134,1727406022426,-0.4729004,0.19769287,-0.8088989,-33.296875,-11.4375,5.796875
135,135,1727406022466,-0.40649414,0.15130615,-0.87945557,-30.34375,-3.6875,1.5625
136,136,1727406022506,-0.36157227,0.12640381,-1.0007935,-34.203125,4.921875,0.765625
137,137,1727406022546,-0.5007324,0.085632324,-1.0374146,-36.640625,3.734375,3.4375
138,138,1727406022586,-0.5830078,0.027526855,-1.0232544,-23.484375,-0.75,7.40625
139,139,1727406022626,-0.49047852,0.09637451,-1.0889282,-27.0625,-4.171875,0.234375
140,140,1727406022666,-0.5251465,0.11175537,-1.0405884,-26.75,-1.21875,-4.078125
141,141,1727406022706,-0.49560547,0.018249512,-1.0547485,-1.15625,2.359375,-7.5625
142,142,1727406022746,-0.5727539,0.0018920898,-1.1306763,1.40625,-0.078125,-13.5
143,143,1727406022786,-0.5227051,0.007019043,-1.0930786,10.96875,-1.5,-15.21875
144,144,1727406022826,-0.50561523,0.09637451,-1.1262817,16.125,-1.125,-18.09375
145,145,1727406022866,-0.5661621,0.050720215,-1.071106,21.453125,-3.421875,-19.625
146,146,1727406022906,-0.44995117,0.054382324,-1.0620728,29.21875,-5.15625,-21.96875
147,147,1727406022946,-0.4399414,0.10809326,-1.0545044,21.90625,-0.46875,-27.25
148,148,1727406022986,-0.41992188,0.17474365,-0.9595337,37.96875,-0.203125,-22.734375
149,149,1727406023026,-0.32226562,0.24041748,-0.96466064,37.1875,7.234375,-20.765625
150,150,1727406023066,-0.35864258,0.309021,-0.91900635,37.265625,-0.84375,-25.1875
151,151,1727406023106,-0.3413086,0.32025146,-0.8418579,50.328125,-6.4375,-18.5625
152,152,1727406023146,-0.37963867,0.37982178,-0.79400635,48.375,-5.046875,-18.03125
153,153,1727406023186,-0.38183594,0.45233154,-0.7805786,49.609375,-7.171875,-12.140625
154,154,1727406023226,-0.30786133,0.42156982,-0.71221924,54.96875,5.109375,-8.5625
155,155,1727406023266,-0.31274414,0.38739014,-0.7432251,53.515625,9.03125,-8.8125
156,156,1727406023306,-0.3100586,0.539978,-0.67755127,46.4375,2.015625,-8.890625
157,157,1727406023346,-0.29418945,0.5570679,-0.62457275,44.453125,-1.84375,-9.171875
158,158,1727406023386,-0.31347656,0.6803589,-0.4883423,40.234375,-8.390625,-5.359375
159,159,1727406023426,-0.33007812,0.69085693,-0.43341064,32.765625,-17.65625,0.859375
160,160,1727406023466,-0.34594727,0.6642456,-0.30352783,31.125,-18.46875,4.46875
161,161,1727406023506,-0.3869629,0.6732788,-0.3040161,26.5625,-17.09375,14.140625
162,162,1727406023546,-0.40063477,0.6923218,-0.269104,24.296875,-14.5625,11.625
163,163,1727406023586,-0.47094727,0.78826904,-0.19683838,15.46875,-9.75,5.796875
164,164,1727406023626,-0.4404297,0.80755615,-0.24102783,11.03125,-10.859375,6.921875
165,165,1727406023666,-0.39379883,0.76239014,-0.19732666,3.0,-11.8125,4.078125
166,166,1727406023706,-0.421875,0.7977905,-0.2210083,-0.703125,-8.84375,7.09375
167,167,1727406023746,-0.44482422,0.75164795,-0.22491455,-5.40625,-9.265625,3.578125
168,168,1727406023786,-0.45263672,0.90789795,-0.19293213,-9.1875,-3.296875,1.59375
169,169,1727406023826,-0.44360352,0.9298706,-0.24835205,-12.625,-7.859375,-0.484375
170,170,1727406023866,-0.42822266,0.8126831,-0.21392822,-14.15625,-9.1875,-1.859375
171,171,1727406023906,-0.40722656,0.79608154,-0.2498169,-16.828125,-11.984375,-2.015625
172,172,1727406023946,-0.38256836,0.7860718,-0.23272705,-16.6875,-12.4375,-1.328125
173,173,1727406023986,-0.38427734,0.7123413,-0.27130127,-21.390625,-14.96875,-1.28125
174,174,1727406024026,-0.36865234,0.64642334,-0.3274536,-28.4375,-12.640625,-2.9375
175,175,1727406024066,-0.4111328,0.7079468,-0.46954346,-37.296875,-8.0625,0.984375
176,176,1727406024106,-0.5078125,0.6552124,-0.61383057,-43.703125,1.59375,-0.171875
177,177,1727406024146,-0.4128418,0.5360718,-0.68463135,-49.84375,2.8125,1.46875
178,178,1727406024186,-0.2758789,0.4862671,-0.64678955,-60.203125,7.109375,-2.3125
179,179,1727406024226,-0.45263672,0.6889038,-0.7334595,-57.15625,17.96875,-8.859375
180,180,1727406024266,-0.41796875,0.56292725,-0.6963501,-50.1875,23.703125,-8.8125
181,181,1727406024306,-0.3618164,0.46600342,-0.95025635,-49.015625,24.84375,3.75
182,182,1727406024346,-0.36279297,0.41131592,-0.91973877,-34.5,3.71875,6.78125
183,183,1727406024386,-0.34545898,0.35662842,-0.878479,-22.1875,23.21875,-0.015625
184,184,1727406024426,-0.32421875,0.37982178,-0.9505005,-41.765625,19.828125,-10.625
185,185,1727406024466,-0.37426758,0.402771,-1.0186157,-40.328125,18.796875,-6.265625
186,186,1727406024506,-0.4152832,0.29022217,-0.9817505,-24.125,16.890625,-0.75
187,187,1727406024546,-0.42749023,0.28997803,-0.94976807,-23.984375,5.125,-5.078125
188,188,1727406024586,-0.42822266,0.3156128,-0.9663696,-24.9375,7.015625,-5.328125
189,189,1727406024626,-0.513916,0.17401123,-0.94415283,-22.71875,-2.546875,4.90625
190,190,1727406024666,-0.42358398,0.11541748,-0.9871216,-9.5625,-7.828125,1.9375
191,191,1727406024706,-0.4387207,0.15863037,-1.0046997,-2.171875,-6.1875,-1.875
192,192,1727406024746,-0.47021484,0.1437378,-0.9483032,-3.84375,-6.375,-0.015625
193,193,1727406024786,-0.48876953,0.121276855,-0.9055786,-8.328125,-6.859375,-3.609375
194,194,1727406024826,-0.50634766,0.2189331,-0.96466064,10.421875,-1.015625,-4.46875
195,195,1727406024866,-0.4946289,0.2814331,-1.0098267,11.953125,-6.078125,-0.40625
196,196,1727406024906,-0.42138672,0.20037842,-1.0549927,9.828125,-9.578125,1.84375
197,197,1727406024946,-0.37231445,0.13201904,-1.0198364,35.828125,-8.34375,4.390625
198,198,1727406024986,-0.32910156,0.15496826,-1.0076294,45.484375,-11.84375,-5.078125
199,199,1727406025026,-0.41137695,0.31292725,-1.0198364,33.859375,-11.640625,-12.375
200,200,1727406025066,-0.4345703,0.4833374,-0.96588135,31.28125,-18.859375,-11.25
201,201,1727406025106,-0.36376953,0.4911499,-0.89508057,48.328125,-10.34375,-12.578125
202,202,1727406025146,-0.3828125,0.4598999,-0.81744385,61.359375,-4.328125,-14.421875
203,203,1727406025186,-0.36450195,0.48797607,-0.7883911,62.90625,-3.890625,-9.8125
204,204,1727406025226,-0.29003906,0.5709839,-0.8115845,57.09375,1.75,-11.796875
205,205,1727406025266,-0.30444336,0.59539795,-0.7398071,51.109375,1.65625,-18.09375
206,206,1727406025306,-0.26660156,0.60687256,-0.6265259,53.640625,0.65625,-16.140625
207,207,1727406025346,-0.26367188,0.6552124,-0.522522,56.609375,1.25,-16.3125
208,208,1727406025386,-0.27148438,0.6569214,-0.36895752,50.71875,-0.625,-13.625
209,209,1727406025426,-0.23144531,0.64349365,-0.2769165,41.59375,-2.515625,-7.5
210,210,1727406025466,-0.22680664,0.6935425,-0.25909424,30.015625,-4.3125,-3.09375
211,211,1727406025506,-0.28198242,0.77508545,-0.21099854,20.96875,-5.375,-3.75
212,212,1727406025546,-0.2800293,0.8529663,-0.10211182,18.953125,-10.875,2.515625
213,213,1727406025586,-0.27539062,0.95111084,-0.06427002,17.140625,-10.3125,4.140625
214,214,1727406025626,-0.2548828,0.9738159,-0.05987549,10.71875,-5.125,2.765625
215,215,1727406025666,-0.1796875,0.9220581,-0.037902832,4.484375,-11.671875,6.4375
216,216,1727406025706,-0.19921875,0.8300171,-0.18243408,0.734375,-23.28125,9.859375
217,217,1727406025746,-0.24633789,0.7999878,-0.066467285,-8.234375,-14.921875,-0.125
218,218,1727406025786,-0.27539062,0.8444214,-0.0869751,-12.921875,-13.71875,0.3125
219,219,1727406025826,-0.24853516,0.9562378,-0.06011963,-15.0625,-18.203125,1.5625
220,220,1727406025866,-0.21826172,0.87323,-0.12677002,-17.765625,-18.96875,-1.84375
221,221,1727406025906,-0.2626953,0.82928467,-0.14801025,-22.4375,-19.578125,-7.40625
222,222,1727406025946,-0.28344727,0.87664795,-0.22515869,-29.15625,-14.09375,-5.1875
223,223,1727406025986,-0.31152344,0.85272217,-0.34991455,-36.546875,-9.5625,-4.578125
224,224,1727406026026,-0.27734375,0.7770386,-0.47491455,-40.28125,4.5,-6.0
225,225,1727406026066,-0.3010254,0.76361084,-0.53497314,-42.03125,15.890625,-5.84375
226,226,1727406026106,-0.2770996,0.8048706,-0.58258057,-38.296875,15.453125,-1.4375
227,227,1727406026146,-0.24023438,0.8148804,-0.6140747,-40.78125,20.265625,-3.375
228,228,1727406026186,-0.21289062,0.6810913,-0.6724243,-37.0625,25.4375,-8.234375
229,229,1727406026226,-0.22045898,0.55096436,-0.7163696,-32.140625,21.703125,-0.75
230,230,1727406026266,-0.25512695,0.4628296,-0.9373169,-31.046875,27.390625,6.9375
231,231,1727406026306,-0.296875,0.52752686,-0.85943604,-32.609375,23.546875,4.3125
232,232,1727406026346,-0.2175293,0.6051636,-0.8670044,-32.578125,24.015625,0.0625
233,233,1727406026386,-0.38110352,0.56951904,-0.8928833,-30.640625,19.03125,3.1875
234,234,1727406026426,-0.3930664,0.5133667,-0.8584595,-19.546875,18.5,7.40625
235,235,1727406026466,-0.2927246,0.5343628,-1.0222778,-18.984375,17.53125,4.359375
236,236,1727406026506,-0.2939453,0.6351929,-0.8838501,-12.484375,9.1875,-7.875
237,237,1727406026546,-0.359375,0.5397339,-0.9871216,-6.34375,2.28125,-2.234375
238,238,1727406026586,-0.45581055,0.47528076,-0.960022,0.671875,-5.171875,3.921875
239,239,1727406026626,-0.41381836,0.53289795,-0.9067993,4.3125,-8.171875,0.8125
240,240,1727406026666,-0.3203125,0.5988159,-0.9307251,9.28125,-9.84375,0.6875
241,241,1727406026706,-0.33007812,0.49749756,-0.9673462,14.015625,-17.328125,-2.859375
242,242,1727406026746,-0.41015625,0.4977417,-0.80792236,24.796875,-13.09375,-7.453125
243,243,1727406026786,-0.39648438,0.6137085,-0.88165283,26.875,-12.078125,-7.65625
244,244,1727406026826,-0.31347656,0.6444702,-0.8130493,27.546875,-23.25,-4.921875
245,245,1727406026866,-0.24511719,0.4940796,-0.8098755,39.765625,-14.0625,-0.75
246,246,1727406026906,-0.29541016,0.5372925,-0.71710205,42.71875,-13.421875,-6.671875
247,247,1727406026946,-0.26586914,0.70526123,-0.7937622,42.515625,-10.765625,-8.703125
248,248,1727406026986,-0.19018555,0.7247925,-0.58062744,44.203125,-7.78125,-5.921875
249,249,1727406027026,-0.22436523,0.6769409,-0.583313,40.859375,-10.671875,-11.1875
250,250,1727406027066,-0.2199707,0.6713257,-0.5654907,39.1875,-8.703125,-9.46875
251,251,1727406027106,-0.22363281,0.70526123,-0.44952393,34.8125,-9.03125,-5.296875
252,252,1727406027146,-0.17822266,0.8278198,-0.45611572,30.375,-3.125,-2.015625
253,253,1727406027186,-0.17553711,0.8461304,-0.39678955,31.625,-13.46875,1.4375
254,254,1727406027226,-0.19384766,0.78900146,-0.30596924,26.640625,-9.921875,-3.078125
255,255,1727406027266,-0.15600586,0.8163452,-0.27178955,24.1875,-8.03125,-0.40625
256,256,1727406027306,-0.14575195,0.8563843,-0.22979736,20.921875,-12.515625,3.71875
257,257,1727406027346,-0.18603516,0.9215698,-0.13702393,15.953125,-15.265625,10.546875
258,258,1727406027386,-0.25732422,1.0241089,-0.10015869,14.875,-10.671875,13.5625
259,259,1727406027426,-0.26708984,0.94329834,-0.09210205,10.625,-7.375,9.140625
260,260,1727406027466,-0.20043945,0.8825073,-0.04888916,8.796875,-6.84375,6.921875
261,261,1727406027506,-0.21606445,0.8829956,-0.051330566,3.875,-5.15625,4.03125
262,262,1727406027546,-0.24194336,0.88616943,-0.074035645,-2.71875,-4.9375,0.953125
263,263,1727406027586,-0.26171875,0.9684448,0.009216309,-7.359375,-5.296875,2.078125
264,264,1727406027626,-0.20092773,0.9611206,-0.077941895,-9.984375,-6.703125,2.328125
265,265,1727406027666,-0.21264648,0.887146,-0.03277588,-16.015625,-10.171875,-0.0625
266,266,1727406027706,-0.2290039,0.8632202,-0.081848145,-19.03125,-9.3125,-0.09375
267,267,1727406027746,-0.2355957,0.86639404,-0.08453369,-22.21875,-10.40625,0.1875
268,268,1727406027786,-0.23803711,0.8864136,-0.09576416,-24.640625,-12.25,-1.28125
269,269,1727406027826,-0.20361328,0.9525757,-0.05670166,-20.921875,-9.765625,-1.53125
270,270,1727406027866,-0.2487793,1.008728,-0.3057251,-19.546875,-6.703125,4.609375
271,271,1727406027906,-0.32958984,0.71014404,-0.4204712,-23.78125,0.828125,4.484375
272,272,1727406027946,-0.32788086,0.69647217,-0.5281372,-40.875,2.203125,2.84375
273,273,1727406027986,-0.21557617,0.79974365,-0.5745239,-41.5,5.375,8.578125
274,274,1727406028026,-0.1508789,0.7921753,-0.569397,-36.703125,1.421875,0.390625
275,275,1727406028066,-0.2746582,0.7272339,-0.552063,-35.53125,12.265625,-12.921875
276,276,1727406028106,-0.2878418,0.68377686,-0.7625122,-32.078125,19.4375,-10.59375
277,277,1727406028146,-0.2919922,0.77020264,-0.73516846,-31.5,12.015625,-2.4375
278,278,1727406028186,-0.18115234,0.69696045,-0.82598877,-26.71875,14.09375,1.96875
279,279,1727406028226,-0.18066406,0.7164917,-0.87042236,-22.9375,14.5625,-10.921875
280,280,1727406028266,-0.30249023,0.7477417,-0.8953247,-18.03125,12.3125,-9.6875
281,281,1727406028306,-0.30541992,0.71673584,-0.92974854,-12.25,7.359375,-2.46875
282,282,1727406028346,-0.2487793,0.7123413,-1.0276489,-2.921875,-2.265625,-4.9375
283,283,1727406028386,-0.19140625,0.67596436,-0.86431885,9.34375,-15.78125,-6.734375
284,284,1727406028426,-0.22241211,0.67230225,-0.80718994,11.15625,-3.4375,-8.1875
285,285,1727406028466,-0.18041992,0.64276123,-0.7661743,-0.359375,-0.203125,-8.109375
286,286,1727406028506,-0.20043945,0.79437256,-0.8364868,2.78125,0.921875,-6.25
287,287,1727406028546,-0.26586914,0.7255249,-0.80426025,14.140625,1.359375,-6.9375
288,288,1727406028586,-0.2421875,0.65911865,-0.756897,23.515625,-8.046875,-6.171875
289,289,1727406028626,-0.18579102,0.7111206,-0.7024536,28.515625,-3.5625,-8.65625
290,290,1727406028666,-0.1472168,0.6571655,-0.66290283,29.28125,-1.53125,-8.6875
291,291,1727406028706,-0.076660156,0.6586304,-0.7168579,29.0,-4.015625,-10.703125
292,292,1727406028746,-0.18701172,0.70233154,-0.63116455,30.453125,-11.71875,-8.75
293,293,1727406028786,-0.17919922,0.75042725,-0.5449829,31.15625,-8.625,-1.75
294,294,1727406028826,-0.11645508,0.75579834,-0.57647705,29.71875,-9.6875,-0.609375
295,295,1727406028866,-0.09082031,0.73358154,-0.49786377,28.3125,-11.578125,-2.625
296,296,1727406028906,-0.08081055,0.7809448,-0.5076294,26.96875,-12.8125,-3.09375
297,297,1727406028946,-0.10644531,0.8290405,-0.46539307,27.078125,-15.40625,1.5625
298,298,1727406028986,-0.10644531,0.87127686,-0.38604736,25.03125,-16.515625,6.1875
299,299,1727406029026,-0.11010742,0.9069214,-0.3106079,21.90625,-16.0625,7.78125
300,300,1727406029066,-0.13647461,0.8602905,-0.2937622,19.09375,-13.71875,12.953125
301,301,1727406029106,-0.13769531,0.91278076,-0.27105713,16.15625,-11.46875,11.359375
302,302,1727406029146,-0.2163086,0.9647827,-0.17730713,17.25,-7.890625,9.125
303,303,1727406029186,-0.19091797,0.93963623,-0.18218994,16.859375,-3.546875,7.96875
304,304,1727406029226,-0.15698242,0.93499756,-0.15386963,13.28125,-4.734375,7.53125
305,305,1727406029266,-0.17504883,0.88861084,-0.10015869,8.328125,0.1875,7.21875
306,306,1727406029306,-0.2006836,0.8800659,-0.078186035,5.96875,-2.40625,8.28125
307,307,1727406029346,-0.17480469,0.94451904,-0.019104004,17.34375,-3.375,10.84375
308,308,1727406029386,-0.21264648,1.0097046,0.070495605,16.953125,-1.546875,7.390625
309,309,1727406029426,-0.22460938,1.0077515,0.08807373,-1.796875,-1.265625,5.140625
310,310,1727406029466,-0.19702148,0.9447632,0.0006713867,-4.390625,-1.96875,3.03125
311,311,1727406029506,-0.19848633,0.9237671,-0.054748535,-4.953125,-4.703125,1.09375
312,312,1727406029546,-0.17700195,0.9249878,-0.023498535,-5.34375,-4.546875,-0.734375
313,313,1727406029586,-0.19921875,0.9303589,0.038024902,-10.09375,-3.421875,-2.125
314,314,1727406029626,-0.20996094,0.965271,0.046081543,-13.1875,-3.46875,-2.421875
315,315,1727406029666,-0.18481445,0.9923706,0.019958496,-12.125,-7.015625,-2.578125
316,316,1727406029706,-0.19165039,0.9484253,-0.010070801,-14.25,-9.140625,-0.59375
317,317,1727406029746,-0.17993164,0.9035034,-0.026672363,-15.328125,-12.6875,-1.171875
318,318,1727406029786,-0.18188477,0.8529663,-0.04034424,-15.359375,-15.796875,-1.484375
319,319,1727406029826,-0.18823242,0.8222046,-0.10845947,-21.1875,-14.953125,-0.640625
320,320,1727406029866,-0.24023438,0.87127686,-0.25006104,-29.375,-7.875,1.5
321,321,1727406029906,-0.2746582,0.8798218,-0.48199463,-36.0,-6.90625,3.625
322,322,1727406029946,-0.26464844,0.70965576,-0.64678955,-39.0,6.03125,2.734375
323,323,1727406029986,-0.099609375,0.66741943,-0.64849854,-47.75,7.875,-2.484375
324,324,1727406030026,-0.16870117,0.8161011,-0.6375122,-44.421875,10.3125,-18.453125
325,325,1727406030066,-0.22705078,0.85565186,-0.7041626,-40.640625,22.4375,-17.0
326,326,1727406030106,-0.2536621,0.977478,-0.6428833,-36.75,16.953125,-9.609375
327,327,1727406030146,-0.20532227,0.92230225,-0.7398071,-27.390625,13.375,-3.25
328,328,1727406030186,-0.15258789,0.85565186,-0.8274536,-19.71875,6.15625,-4.625
329,329,1727406030226,-0.123046875,0.7489624,-0.9011841,-10.765625,0.203125,-6.625
330,330,1727406030266,-0.16870117,0.75457764,-0.8989868,-3.546875,-3.90625,-4.015625
331,331,1727406030306,-0.17382812,0.80218506,-0.84869385,-1.59375,-1.296875,-5.90625
332,332,1727406030346,-0.20141602,0.76361084,-0.79815674,-1.359375,0.34375,-7.765625
333,333,1727406030386,-0.18408203,0.7316284,-0.7576294,3.703125,2.328125,-8.4375
334,334,1727406030426,-0.15551758,0.6991577,-0.7510376,9.796875,0.703125,-5.546875
335,335,1727406030466,-0.10620117,0.6676636,-0.75323486,15.46875,-1.71875,-3.734375
336,336,1727406030506,-0.1340332,0.6622925,-0.7085571,19.0625,-5.25,-7.09375
337,337,1727406030546,-0.1352539,0.65374756,-0.6397095,19.984375,-6.25,-7.359375
338,338,1727406030586,-0.1340332,0.6703491,-0.647522,19.75,-3.875,-6.703125
339,339,1727406030626,-0.13720703,0.69744873,-0.6646118,21.015625,-3.640625,-5.015625
340,340,1727406030666,-0.11010742,0.744812,-0.6655884,20.296875,-4.75,-4.265625
341,341,1727406030706,-0.12597656,0.7597046,-0.6411743,23.578125,-4.71875,-2.4375
342,342,1727406030746,-0.1081543,0.7821655,-0.5733032,25.0,-6.78125,-0.4375
343,343,1727406030786,-0.1105957,0.9057007,-0.5093384,27.8125,-4.25,2.390625
344,344,1727406030826,-0.11669922,0.81707764,-0.46881104,25.6875,-8.09375,5.875
345,345,1727406030866,-0.095214844,0.840271,-0.37750244,24.734375,-7.65625,7.125
346,346,1727406030906,-0.08203125,0.8134155,-0.35357666,22.734375,-8.390625,7.890625
347,347,1727406030946,-0.09106445,0.8488159,-0.3164673,20.9375,-10.015625,4.46875
348,348,1727406030986,-0.12158203,0.930603,-0.1795044,18.765625,-10.296875,2.734375
349,349,1727406031026,-0.15844727,0.98846436,-0.0869751,13.4375,-8.78125,2.90625
350,350,1727406031066,-0.14624023,0.9660034,-0.09063721,9.78125,-4.1875,1.421875
351,351,1727406031106,-0.1105957,0.9130249,-0.105529785,11.484375,-5.265625,-0.3125
352,352,1727406031146,-0.08569336,0.9137573,-0.09136963,12.3125,-6.265625,0.203125
353,353,1727406031186,-0.10498047,0.9838257,-0.025939941,5.03125,-5.828125,-1.828125
354,354,1727406031226,-0.11352539,1.0390015,-0.008605957,-3.5,-1.890625,-4.53125
355,355,1727406031266,-0.087402344,0.9857788,-0.0056762695,-5.046875,0.03125,-5.765625
356,356,1727406031306,-0.049316406,0.9454956,-0.03375244,-0.59375,-0.203125,1.09375
357,357,1727406031346,-0.014404297,0.9281616,-0.06402588,0.359375,-6.15625,5.03125
358,358,1727406031386,-0.09350586,0.90789795,-0.055236816,-5.609375,-11.1875,-0.375
359,359,1727406031426,-0.111328125,0.94403076,-0.02520752,-11.90625,-11.46875,0.140625
360,360,1727406031466,-0.06274414,0.9972534,-0.018615723,-15.84375,-9.34375,1.390625
361,361,1727406031506,-0.07519531,1.0436401,-0.00982666,-20.296875,-3.484375,0.203125
362,362,1727406031546,-0.15112305,0.857605,0.06439209,-3.109375,-11.015625,-0.328125
363,363,1727406031586,-0.0793457,0.7428589,-0.061340332,1.515625,-11.59375,-3.15625
364,364,1727406031626,-0.07080078,0.8480835,-0.29888916,-18.703125,-10.53125,-6.796875
365,365,1727406031666,-0.09838867,0.8756714,-0.54473877,-38.859375,-1.765625,-1.625
366,366,1727406031706,-0.26611328,0.53338623,-0.66607666,-50.46875,1.0625,-5.203125
367,367,1727406031746,0.05517578,0.7416382,-0.6211548,-62.9375,7.28125,3.328125
368,368,1727406031786,0.068115234,0.85076904,-0.6231079,-51.0,11.390625,-11.703125
369,369,1727406031826,-0.12060547,0.75164795,-0.6929321,-48.34375,14.53125,-14.5625
370,370,1727406031866,-0.10107422,0.7382202,-0.6309204,-33.0625,15.609375,-6.71875
371,371,1727406031906,-0.13769531,0.83099365,-0.73028564,-39.546875,15.90625,2.6875
372,372,1727406031946,-0.12646484,0.8004761,-0.7649536,-31.3125,16.1875,2.484375
373,373,1727406031986,-0.059326172,0.697937,-0.8213501,-21.96875,18.078125,2.90625
374,374,1727406032026,-0.13012695,0.7123413,-0.96051025,-32.390625,17.34375,-3.390625
375,375,1727406032066,-0.15795898,0.72698975,-1.0151978,-19.15625,16.75,-4.015625
376,376,1727406032106,-0.22045898,0.7880249,-0.9890747,-10.015625,10.890625,0.09375
377,377,1727406032146,-0.23120117,0.776062,-0.9246216,-7.578125,6.65625,0.1875
378,378,1727406032186,-0.19091797,0.6769409,-0.8804321,0.359375,6.140625,-2.171875
379,379,1727406032226,0.07495117,0.57928467,-0.89434814,7.84375,4.59375,6.0
380,380,1727406032266,-0.008300781,0.5656128,-0.9866333,3.90625,-4.375,-7.59375
381,381,1727406032306,-0.37231445,0.59417725,-0.9246216,19.578125,-14.484375,-4.125
382,382,1727406032346,-0.17407227,0.6989136,-0.89630127,11.796875,-5.140625,6.28125
383,383,1727406032386,-0.08911133,0.63031006,-0.8206177,29.625,-13.25,1.0625
384,384,1727406032426,-0.14941406,0.6310425,-0.6477661,26.6875,-13.390625,-4.25
385,385,1727406032466,-0.12573242,0.7680054,-0.75201416,34.703125,-4.78125,-3.6875
386,386,1727406032506,-0.24658203,0.58099365,-0.66607666,34.328125,-5.375,1.375
387,387,1727406032546,-0.11401367,0.574646,-0.6777954,28.46875,-0.703125,4.734375
388,388,1727406032586,-0.09667969,0.6911011,-0.69122314,29.65625,1.09375,-0.1875
389,389,1727406032626,-0.08520508,0.70062256,-0.5586548,30.703125,2.109375,-2.296875
390,390,1727406032666,-0.067871094,0.74505615,-0.5881958,29.59375,3.5,-5.6875
391,391,1727406032706,-0.12084961,0.74505615,-0.5601196,30.78125,4.46875,-4.265625
392,392,1727406032746,-0.103027344,0.7523804,-0.4985962,29.171875,3.78125,-3.953125
393,393,1727406032786,-0.09082031,0.774353,-0.44976807,28.03125,5.75,-5.28125
394,394,1727406032826,-0.091796875,0.7719116,-0.41461182,28.5625,2.890625,-1.96875
395,395,1727406032866,-0.1081543,0.8493042,-0.34698486,26.671875,0.28125,1.09375
396,396,1727406032906,-0.08105469,0.87542725,-0.34014893,22.953125,-0.84375,6.3125
397,397,1727406032946,-0.10424805,0.97283936,-0.18267822,16.171875,-9.9375,5.9375
398,398,1727406032986,-0.17407227,1.0875854,-0.10821533,18.53125,-11.375,10.359375
399,399,1727406033026,-0.03540039,0.8812866,-0.112854004,17.609375,-15.703125,7.296875
400,400,1727406033066,-0.11425781,0.9076538,-0.105529785,11.359375,-14.671875,-1.5625
401,401,1727406033106,-0.18115234,0.9332886,-0.049621582,9.65625,-14.015625,-1.0
402,402,1727406033146,-0.21679688,0.95721436,0.015075684,3.21875,-11.203125,-0.09375
403,403,1727406033186,-0.19042969,0.9430542,-0.0037231445,-0.640625,-5.390625,2.234375
404,404,1727406033226,-0.12939453,0.9286499,0.007019043,-3.90625,-3.890625,-3.09375
405,405,1727406033266,-0.10058594,0.97650146,0.034362793,-5.625,-3.40625,-3.75
406,406,1727406033306,-0.044433594,0.9850464,0.024597168,-8.671875,-3.765625,-5.96875
407,407,1727406033346,-0.09033203,0.9291382,0.0016479492,-13.734375,-5.34375,-8.078125
408,408,1727406033386,-0.1015625,0.9179077,0.006286621,-20.0625,-7.5625,-5.984375
409,409,1727406033426,-0.103271484,0.9130249,-0.02911377,-24.046875,-8.203125,-0.53125
410,410,1727406033466,-0.14550781,0.8341675,-0.0647583,-29.1875,-8.640625,-0.171875
411,411,1727406033506,-0.15771484,0.87005615,-0.06719971,-35.265625,-2.734375,0.15625
412,412,1727406033546,-0.14428711,0.88934326,-0.16290283,-37.046875,-0.5,4.84375
413,413,1727406033586,-0.18383789,0.89349365,-0.42462158,-45.84375,11.78125,8.875
414,414,1727406033626,-0.1484375,0.59832764,-0.62042236,-44.6875,15.5,11.734375
415,415,1727406033666,-0.2241211,0.51116943,-0.61431885,-52.40625,20.84375,9.234375
416,416,1727406033706,-0.140625,0.94989014,-0.6746216,-52.953125,26.078125,11.6875
417,417,1727406033746,-0.19262695,0.91937256,-0.7451782,-43.359375,17.5625,-1.4375
418,418,1727406033786,-0.09863281,0.6635132,-0.7463989,-38.3125,19.0625,-2.71875
419,419,1727406033826,-0.22143555,0.54608154,-0.89263916,-30.703125,14.140625,3.40625
420,420,1727406033866,-0.36791992,0.697937,-0.81085205,-30.59375,17.1875,6.546875
421,421,1727406033906,-0.2734375,0.73480225,-0.84991455,-30.0,16.75,0.21875
422,422,1727406033946,-0.28955078,0.72943115,-0.82232666,-14.8125,18.734375,1.765625
423,423,1727406033986,-0.39892578,0.60443115,-0.98272705,-11.25,9.109375,3.53125
424,424,1727406034026,-0.29638672,0.5883179,-0.9121704,-4.765625,12.9375,1.109375
425,425,1727406034066,-0.22045898,0.6522827,-1.0484009,-4.125,2.484375,-8.03125
426,426,1727406034106,-0.2824707,0.59002686,-0.8467407,-0.078125,-9.03125,-11.25
427,427,1727406034146,-0.33911133,0.55145264,-0.8809204,7.078125,-8.125,-2.40625
428,428,1727406034186,-0.2998047,0.49969482,-0.87579346,9.984375,-8.796875,-5.03125
429,429,1727406034226,-0.2290039,0.5751343,-0.833313,11.3125,-9.390625,-11.3125
430,430,1727406034266,-0.2331543,0.67718506,-0.8682251,12.109375,-11.96875,-9.21875
431,431,1727406034306,-0.2397461,0.5619507,-0.8386841,18.03125,-20.15625,-6.625
432,432,1727406034346,-0.24414062,0.6029663,-0.7737427,14.65625,-14.5625,-9.0
433,433,1727406034386,-0.19189453,0.67352295,-0.81744385,21.609375,-15.171875,-8.59375
434,434,1727406034426,-0.1694336,0.6329956,-0.710022,23.203125,-19.890625,-9.96875
435,435,1727406034466,-0.17749023,0.62908936,-0.68927,27.234375,-14.046875,-8.71875
436,436,1727406034506,-0.18041992,0.6310425,-0.675354,33.859375,-12.296875,-6.171875
437,437,1727406034546,-0.103271484,0.62249756,-0.6067505,28.953125,-9.578125,-11.03125
438,438,1727406034586,-0.107177734,0.6473999,-0.68170166,30.84375,-4.640625,-9.703125
439,439,1727406034626,-0.13330078,0.68548584,-0.5383911,32.234375,-4.296875,-5.28125
440,440,1727406034666,-0.12939453,0.7501831,-0.55255127,29.15625,0.75,-3.796875
441,441,1727406034706,-0.12426758,0.8812866,-0.44952393,29.78125,-1.9375,0.890625
442,442,1727406034746,-0.046142578,0.96307373,-0.40631104,29.125,-3.234375,6.828125
443,443,1727406034786,-0.007080078,0.86639404,-0.38043213,26.859375,-7.21875,5.421875
444,444,1727406034826,-0.010498047,0.82928467,-0.32476807,24.171875,-9.4375,-0.375
445,445,1727406034866,-0.010253906,0.8895874,-0.27471924,21.328125,-8.09375,-5.609375
446,446,1727406034906,-0.048095703,0.92889404,-0.19952393,17.34375,-9.734375,-4.984375
447,447,1727406034946,-0.08496094,0.91204834,-0.15118408,15.0,-9.40625,-0.21875
448,448,1727406034986,-0.05444336,0.92401123,-0.06329346,10.828125,-6.015625,0.71875
449,449,1727406035026,-0.009033203,0.97943115,-0.08258057,10.453125,-4.9375,-0.234375
450,450,1727406035066,-0.030517578,0.99334717,-0.0413208,7.828125,-3.09375,-1.515625
451,451,1727406035106,-0.044677734,0.98236084,-0.08087158,3.734375,-2.78125,-2.953125
452,452,1727406035146,-0.012451172,0.9760132,-0.023498535,-2.109375,-4.546875,0.171875
453,453,1727406035186,0.018554688,0.949646,-0.04864502,-4.6875,-6.453125,3.84375
454,454,1727406035226,-0.007080078,0.8966675,-0.057434082,-8.90625,-7.3125,3.625
455,455,1727406035266,-0.033935547,0.89105225,-0.07623291,-14.578125,-8.328125,5.03125
456,456,1727406035306,-0.036132812,0.8973999,-0.078430176,-18.34375,-7.75,6.109375
457,457,1727406035346,-0.0625,0.9381714,-0.08526611,-23.078125,-7.78125,7.171875
458,458,1727406035386,-0.043945312,0.89642334,-0.13848877,-26.625,-9.859375,9.578125
459,459,1727406035426,-0.07714844,0.9135132,-0.13897705,-29.5,-9.65625,8.875
460,460,1727406035466,-0.10498047,0.9232788,-0.18878174,-31.21875,-10.328125,7.640625
461,461,1727406035506,-0.096191406,0.87054443,-0.34210205,-36.890625,-4.9375,10.796875
462,462,1727406035546,-0.23120117,0.79315186,-0.47979736,-41.65625,1.71875,9.796875
463,463,1727406035586,-0.2849121,0.62615967,-0.49786377,-43.5625,6.796875,13.515625
464,464,1727406035626,-0.13085938,0.66937256,-0.7041626,-43.265625,8.0,17.78125
465,465,1727406035666,-0.22314453,0.75579834,-0.67852783,-45.0,10.515625,3.578125
466,466,1727406035706,-0.1459961,0.74334717,-0.7476196,-35.28125,16.59375,-3.46875
467,467,1727406035746,-0.15649414,0.732605,-0.89385986,-25.390625,11.03125,3.71875
468,468,1727406035786,-0.3095703,0.6864624,-0.8584595,-28.359375,4.421875,0.453125
469,469,1727406035826,-0.27172852,0.6498413,-0.8323364,-25.96875,11.296875,-4.828125
470,470,1727406035866,-0.16503906,0.6637573,-0.9788208,-15.28125,15.375,4.015625
471,471,1727406035906,-0.21459961,0.6798706,-0.89971924,-5.765625,6.09375,-0.453125
472,472,1727406035946,-0.3100586,0.62371826,-0.99298096,-4.328125,8.765625,-1.859375
473,473,1727406035986,-0.30932617,0.66522217,-0.95880127,-0.6875,7.5,-6.390625
474,474,1727406036026,-0.24951172,0.6286011,-0.93585205,3.65625,7.171875,-4.296875
475,475,1727406036066,-0.24072266,0.64764404,-0.97369385,13.625,4.140625,-6.09375
476,476,1727406036106,-0.2121582,0.6901245,-0.84259033,15.3125,-0.34375,-12.375
477,477,1727406036146,-0.1694336,0.7094116,-0.93951416,20.265625,-2.125,-12.609375
478,478,1727406036186,-0.1640625,0.6586304,-0.81207275,23.40625,-9.484375,-14.578125
479,479,1727406036226,-0.21459961,0.6503296,-0.75909424,26.078125,-14.890625,-10.140625
480,480,1727406036266,-0.11645508,0.6112671,-0.73150635,30.296875,-18.375,-3.0625
481,481,1727406036306,-0.050048828,0.5932007,-0.64849854,33.8125,-28.671875,-2.875
482,482,1727406036346,-0.10546875,0.59906006,-0.6367798,35.421875,-24.796875,-0.34375
483,483,1727406036386,-0.17919922,0.6947632,-0.55963135,35.296875,-20.765625,3.171875
484,484,1727406036426,-0.19042969,0.6845093,-0.6018677,37.921875,-11.609375,3.34375
485,485,1727406036466,-0.16040039,0.6732788,-0.56256104,36.609375,-5.203125,3.53125
486,486,1727406036506,-0.095458984,0.74823,-0.5147095,32.125,-2.734375,-3.078125
487,487,1727406036546,-0.07885742,0.8673706,-0.3616333,32.15625,-1.40625,-3.515625
488,488,1727406036586,-0.10229492,1.0631714,-0.25616455,30.25,-5.75,3.890625
489,489,1727406036626,-0.14208984,0.8842163,-0.16973877,30.578125,-4.59375,7.859375
490,490,1727406036666,-0.078125,0.7284546,-0.23175049,23.078125,-6.96875,6.25
491,491,1727406036706,-0.079589844,0.86639404,-0.13092041,15.875,-3.859375,0.53125
492,492,1727406036746,-0.14477539,0.9945679,-0.0647583,15.625,-3.84375,7.484375
493,493,1727406036786,-0.18896484,1.0258179,-0.04058838,10.265625,-3.25,7.96875
494,494,1727406036826,-0.16723633,0.934021,-0.06036377,4.59375,-0.171875,6.859375
495,495,1727406036866,-0.14086914,0.95965576,-0.047912598,4.3125,5.859375,5.390625
496,496,1727406036906,-0.123291016,0.9660034,-0.054748535,0.46875,5.390625,0.8125
497,497,1727406036946,-0.12475586,1.0111694,-0.003479004,-1.578125,2.234375,0.453125
498,498,1727406036986,-0.11645508,0.95721436,-0.04156494,-1.59375,-0.21875,0.6875
499,499,1727406037026,-0.10180664,0.9525757,-0.029846191,-4.109375,-3.703125,-2.484375
500,500,1727406037066,-0.11791992,0.9447632,-0.04083252,-6.21875,-9.171875,-1.28125
501,501,1727406037106,-0.1665039,0.89642334,-0.06524658,-10.953125,-13.8125,0.3125
502,502,1727406037146,-0.1508789,1.0390015,0.018005371,-13.90625,-14.140625,2.5625
503,503,1727406037186,-0.11791992,0.9606323,-0.06011963,-12.765625,-17.921875,4.984375
504,504,1727406037226,-0.07861328,0.9996948,-0.032043457,-17.40625,-19.578125,0.46875
505,505,1727406037266,-0.04345703,0.88079834,-0.074035645,-15.25,-26.6875,4.921875
506,506,1727406037306,-0.125,0.8253784,-0.093322754,-19.3125,-29.84375,5.796875
507,507,1727406037346,-0.14672852,0.86883545,-0.05230713,-22.15625,-33.125,9.71875
508,508,1727406037386,-0.13891602,0.8534546,-0.33721924,-24.5625,-32.296875,16.828125
509,509,1727406037426,-0.33740234,0.87908936,-0.39923096,-35.84375,-23.09375,22.46875
510,510,1727406037466,-0.28125,0.5006714,-0.7612915,-37.3125,-12.09375,25.640625
511,511,1727406037506,-0.17333984,0.61883545,-0.53790283,-55.609375,-5.359375,19.75
512,512,1727406037546,-0.104003906,0.8773804,-0.7053833,-47.25,1.796875,3.46875
513,513,1727406037586,-0.24804688,0.8463745,-0.5462036,-30.78125,0.125,-1.828125
514,514,1727406037626,-0.0637207,0.6691284,-0.8362427,-20.234375,9.484375,8.203125
515,515,1727406037666,-0.20507812,0.9906616,-0.7866821,-22.046875,-6.546875,-1.875
516,516,1727406037706,-0.18139648,0.8275757,-0.8682251,-19.046875,1.71875,-10.5625
517,517,1727406037746,-0.05834961,0.8024292,-0.93585205,-5.28125,-0.578125,0.03125
518,518,1727406037786,-0.1184082,0.85028076,-0.87677,-1.6875,-10.53125,-5.484375
519,519,1727406037826,-0.16210938,0.7391968,-0.7764282,4.953125,-14.4375,-0.875
520,520,1727406037866,-0.19311523,0.7345581,-0.8230591,2.609375,-6.359375,-6.671875
521,521,1727406037906,-0.21264648,0.76312256,-0.8479614,12.96875,-1.1875,-4.125
522,522,1727406037946,-0.09716797,0.7584839,-0.8621216,10.609375,-5.515625,-1.375
523,523,1727406037986,-0.10620117,0.7440796,-0.7962036,15.609375,-5.765625,-10.234375
524,524,1727406038026,-0.21118164,0.8016968,-0.82647705,16.6875,1.171875,-8.40625
525,525,1727406038066,-0.24536133,0.7333374,-0.7295532,19.34375,-2.109375,-1.46875
526,526,1727406038106,-0.08203125,0.76971436,-0.65997314,26.6875,0.625,-5.359375
527,527,1727406038146,-0.006591797,0.74261475,-0.6091919,30.640625,-4.84375,-5.703125
528,528,1727406038186,0.041748047,0.7250366,-0.5371704,36.640625,-5.546875,-4.921875
529,529,1727406038226,-0.0637207,0.6481323,-0.50860596,33.578125,-9.171875,-9.953125
530,530,1727406038266,-0.12695312,0.7333374,-0.4258423,31.953125,-2.9375,0.5625
531,531,1727406038306,-0.05053711,0.7887573,-0.4553833,28.0625,-6.0,4.0
532,532,1727406038346,-0.009033203,0.78460693,-0.39190674,26.21875,-5.125,4.890625
533,533,1727406038386,-0.033691406,0.84490967,-0.41900635,20.5,-5.875,3.75
534,534,1727406038426,-0.11230469,0.89520264,-0.33746338,18.21875,-5.5,5.546875
535,535,1727406038466,-0.08911133,0.87542725,-0.34210205,14.9375,-4.921875,13.984375
536,536,1727406038506,-0.079833984,0.9003296,-0.29180908,12.578125,-5.734375,14.71875
537,537,1727406038546,-0.08081055,0.930603,-0.28082275,13.265625,-3.546875,16.09375
538,538,1727406038586,-0.09350586,0.8903198,-0.3057251,10.359375,-5.984375,14.34375
539,539,1727406038626,-0.17797852,0.9191284,-0.2263794,7.203125,-4.0625,13.59375
540,540,1727406038666,-0.21459961,0.97650146,-0.22027588,8.671875,-2.46875,16.40625
541,541,1727406038706,-0.24511719,0.9574585,-0.13214111,5.953125,-0.03125,17.203125
542,542,1727406038746,-0.24487305,0.8969116,-0.1807251,4.53125,-0.125,16.3125
543,543,1727406038786,-0.28295898,0.90496826,-0.16412354,-1.703125,5.5,14.4375
544,544,1727406038826,-0.33642578,0.85076904,-0.1506958,-3.734375,0.375,15.5625
545,545,1727406038866,-0.25146484,0.9227905,-0.008605957,-8.6875,9.265625,2.40625
546,546,1727406038906,-0.18310547,0.9957886,-0.06695557,-5.84375,15.859375,-3.21875
547,547,1727406038946,-0.43359375,0.92352295,-0.008361816,-7.359375,7.203125,1.421875
548,548,1727406038986,-0.39672852,0.80926514,0.03753662,-8.796875,4.046875,11.765625
549,549,1727406039026,-0.33398438,0.8036499,-0.0413208,-14.0625,5.6875,8.046875
550,550,1727406039066,-0.3076172,0.9472046,-0.020568848,-18.71875,2.390625,3.453125
551,551,1727406039106,-0.2607422,0.9557495,-0.039367676,-21.578125,-4.1875,-3.640625
552,552,1727406039146,-0.29711914,0.8480835,-0.04156494,-25.046875,-9.25,-6.640625
553,553,1727406039186,-0.34277344,0.840271,-0.051574707,-24.578125,-15.0625,-4.0
554,554,1727406039226,-0.3095703,0.826355,-0.054504395,-24.6875,-19.625,-1.15625
555,555,1727406039266,-0.25756836,0.86590576,-0.121154785,-23.859375,-23.21875,-7.34375
556,556,1727406039306,-0.3708496,0.8673706,-0.46905518,-29.875,-11.59375,-6.671875
557,557,1727406039346,-0.45483398,0.67059326,-0.44732666,-28.546875,-3.390625,-17.90625
558,558,1727406039386,-0.057128906,0.90545654,-0.7144165,-31.046875,-7.171875,-0.9375
559,559,1727406039426,-0.05029297,0.89349365,-0.73931885,-21.859375,-18.375,-12.171875
560,560,1727406039466,-0.34326172,0.836853,-0.7229614,-27.171875,9.328125,-32.5
561,561,1727406039506,-0.2590332,0.82318115,-0.8423462,-16.8125,12.265625,-18.09375
562,562,1727406039546,-0.2290039,0.77557373,-0.8069458,-7.375,-2.515625,4.1875
563,563,1727406039586,-0.1459961,0.82025146,-0.7600708,-13.71875,11.171875,-9.09375
564,564,1727406039626,0.032226562,0.8373413,-0.80792236,1.640625,10.40625,-23.6875
565,565,1727406039666,-0.08105469,0.6569214,-0.8154907,7.21875,2.140625,-8.328125
566,566,1727406039706,-0.16015625,0.6535034,-0.8411255,-8.703125,1.59375,-17.859375
567,567,1727406039746,-0.06982422,0.6415405,-0.78375244,-7.9375,8.671875,-19.375
568,568,1727406039786,-0.013671875,0.83709717,-0.7979126,-6.203125,4.84375,-14.0
569,569,1727406039826,-0.11303711,0.89056396,-0.7920532,1.359375,-2.46875,-11.28125
570,570,1727406039866,-0.08081055,0.7929077,-0.7803345,5.828125,2.859375,-9.34375
571,571,1727406039906,-0.03491211,0.821228,-0.74468994,4.734375,-2.5625,-19.125
572,572,1727406039946,-0.03540039,0.7838745,-0.7190552,10.265625,-4.46875,-9.390625
573,573,1727406039986,-0.049316406,0.76312256,-0.62945557,19.765625,-5.84375,-3.140625
574,574,1727406040026,-0.052978516,0.69647217,-0.64508057,18.015625,-4.953125,-7.59375
575,575,1727406040066,-0.036621094,0.744812,-0.553772,20.328125,-2.328125,-9.421875
576,576,1727406040106,-0.053710938,0.75164795,-0.53448486,26.796875,0.28125,-5.21875
577,577,1727406040146,-0.008300781,0.68670654,-0.5430298,30.5625,0.796875,0.3125
578,578,1727406040186,-0.006591797,0.72161865,-0.52130127,29.203125,1.546875,4.75
579,579,1727406040226,0.042236328,0.91937256,-0.47247314,29.203125,0.8125,4.078125
580,580,1727406040266,-0.017822266,1.0145874,-0.35333252,26.03125,-3.359375,4.421875
581,581,1727406040306,-0.013427734,0.9105835,-0.35821533,23.59375,-4.609375,7.25
582,582,1727406040346,-0.023925781,0.79193115,-0.31036377,21.8125,-5.9375,4.984375
583,583,1727406040386,-0.028564453,0.7560425,-0.2871704,18.8125,-4.28125,7.734375
584,584,1727406040426,-0.07788086,0.87054443,-0.1819458,12.390625,-5.765625,9.53125
585,585,1727406040466,-0.12011719,0.9833374,-0.12628174,9.75,-3.4375,10.46875
586,586,1727406040506,-0.118652344,0.9857788,-0.08673096,7.8125,-2.5625,10.953125
587,587,1727406040546,-0.122558594,0.9435425,-0.10723877,6.046875,-1.84375,8.5625
588,588,1727406040586,-0.16772461,0.9550171,-0.0491333,7.46875,1.109375,9.71875
589,589,1727406040626,-0.16870117,1.0009155,-0.055236816,7.609375,2.34375,13.453125
590,590,1727406040666,-0.21948242,0.9503784,-0.05987549,3.75,5.796875,14.546875
591,591,1727406040706,-0.20483398,0.9347534,-0.028869629,-0.546875,6.609375,16.109375
592,592,1727406040746,-0.14453125,0.98236084,-0.051574707,-1.15625,6.484375,14.609375
593,593,1727406040786,-0.114746094,0.963562,0.03338623,-5.6875,-1.3125,8.53125
594,594,1727406040826,-0.11206055,0.9335327,0.01751709,-6.015625,-5.3125,7.015625
595,595,1727406040866,-0.1628418,0.89764404,0.016784668,-9.359375,-12.078125,5.671875
596,596,1727406040906,-0.2446289,0.8915405,0.020935059,-14.4375,-17.5,9.109375
597,597,1727406040946,-0.25805664,0.80877686,-0.026916504,-18.875,-21.34375,13.25
598,598,1727406040986,-0.2927246,0.83465576,-0.033996582,-25.375,-22.703125,10.15625
599,599,1727406041026,-0.30493164,0.91204834,0.020690918,-25.203125,-25.03125,8.046875
600,600,1727406041066,-0.30004883,0.87713623,-0.057434082,-23.28125,-24.625,6.171875
601,601,1727406041106,-0.2836914,0.9047241,-0.003967285,-20.234375,-16.4375,-4.1875
602,602,1727406041146,-0.20727539,0.8920288,-0.61187744,-35.15625,-2.203125,-0.296875
603,603,1727406041186,-0.37280273,0.6781616,-0.75323486,-18.84375,-3.640625,-16.734375
604,604,1727406041226,-0.22509766,1.0167847,-0.62994385,-35.65625,-9.359375,-2.53125
605,605,1727406041266,-0.0043945312,0.96990967,-0.8032837,-13.015625,-9.203125,-7.015625
606,606,1727406041306,-0.33081055,0.79364014,-0.645813,-21.09375,9.515625,-30.09375
607,607,1727406041346,-0.09399414,0.71990967,-0.92510986,-11.09375,28.203125,-20.984375
608,608,1727406041386,-0.32299805,0.91082764,-0.92315674,1.046875,8.59375,2.21875
609,609,1727406041426,-0.12231445,0.94744873,-0.7510376,-6.109375,18.546875,-10.75
610,610,1727406041466,0.076171875,0.9008179,-0.9224243,4.890625,20.0625,-26.234375
611,611,1727406041506,-0.14990234,0.8595581,-0.7786255,11.375,12.078125,-16.109375
612,612,1727406041546,-0.17773438,0.8317261,-0.78692627,11.140625,5.03125,-9.84375
613,613,1727406041586,-0.02709961,0.89886475,-0.7107544,16.15625,1.8125,-7.265625
614,614,1727406041626,0.08325195,0.8722534,-0.6218872,20.640625,-4.71875,-9.734375
615,615,1727406041666,-0.057128906,0.66448975,-0.6177368,19.84375,-8.5,-8.8125
616,616,1727406041706,-0.107910156,0.71136475,-0.53912354,22.25,-9.625,-5.3125
617,617,1727406041746,-0.059814453,0.80755615,-0.50177,21.3125,-9.828125,1.09375
618,618,1727406041786,-0.04321289,0.74090576,-0.40704346,25.3125,-10.046875,2.609375
619,619,1727406041826,-0.040039062,0.71917725,-0.44903564,26.8125,-6.796875,-0.859375
620,620,1727406041866,-0.08203125,0.7765503,-0.38409424,24.234375,-6.625,2.78125
621,621,1727406041906,-0.0625,0.89715576,-0.40704346,19.25,-6.9375,5.34375
622,622,1727406041946,-0.041748047,1.0319214,-0.24395752,18.890625,-9.546875,8.921875
623,623,1727406041986,-0.078125,1.0094604,-0.25616455,17.765625,-12.203125,10.484375
624,624,1727406042026,-0.0949707,0.8637085,-0.20367432,13.390625,-14.46875,7.59375
625,625,1727406042066,-0.07861328,0.8493042,-0.16485596,11.59375,-15.046875,7.4375
626,626,1727406042106,-0.12719727,0.8624878,-0.12408447,10.359375,-16.71875,9.140625
627,627,1727406042146,-0.19824219,0.9603882,-0.030578613,7.0625,-16.1875,10.421875
628,628,1727406042186,-0.18017578,1.017273,-0.034240723,8.046875,-14.421875,11.703125
629,629,1727406042226,-0.25170898,0.9413452,-0.049865723,6.140625,-12.359375,9.375
630,630,1727406042266,-0.25976562,0.98309326,-0.038879395,4.90625,-12.515625,12.140625
631,631,1727406042306,-0.27563477,0.9960327,0.0079956055,6.546875,-13.703125,15.0
632,632,1727406042346,-0.30615234,0.97650146,-0.032287598,4.84375,-11.546875,14.890625
633,633,1727406042386,-0.35986328,0.9447632,0.014343262,1.8125,-8.796875,12.34375
634,634,1727406042426,-0.33764648,0.9215698,0.04534912,1.375,-8.90625,12.734375
635,635,1727406042466,-0.27612305,0.96795654,0.09197998,1.484375,-10.375,10.46875
636,636,1727406042506,-0.2758789,0.9574585,0.034851074,0.875,-13.828125,7.359375
637,637,1727406042546,-0.28442383,0.85028076,0.04071045,-3.109375,-15.6875,6.03125
638,638,1727406042586,-0.30664062,0.84295654,0.051696777,-6.65625,-17.78125,6.8125
639,639,1727406042626,-0.35229492,0.8641968,0.026794434,-9.890625,-18.328125,4.84375
640,640,1727406042666,-0.32299805,0.8800659,0.026550293,-13.078125,-19.046875,1.65625
641,641,1727406042706,-0.32592773,0.8817749,0.04486084,-15.625,-21.765625,-3.296875
642,642,1727406042746,-0.34936523,0.8522339,0.0099487305,-15.953125,-21.03125,-7.9375
643,643,1727406042786,-0.3046875,0.8744507,-0.09259033,-18.21875,-18.546875,-11.953125
644,644,1727406042826,-0.3552246,0.89056396,-0.23956299,-30.328125,-10.75,-11.4375
645,645,1727406042866,-0.22436523,0.74798584,-0.46832275,-27.890625,4.671875,-20.734375
646,646,1727406042906,-0.011474609,1.1134644,-0.5733032,10.0,-36.8125,-15.703125
647,647,1727406042946,-0.068359375,0.74505615,-0.46002197,-27.703125,-4.046875,-28.3125
648,648,1727406042986,-0.0949707,0.92645264,-0.55303955,-51.40625,21.328125,-29.0
649,649,1727406043026,-0.044921875,0.9845581,-0.7324829,-31.265625,38.3125,-24.59375
650,650,1727406043066,-0.19213867,0.8378296,-0.75323486,-36.0,17.53125,-18.65625
651,651,1727406043106,0.071777344,0.89593506,-0.7444458,-16.671875,22.25,-21.828125
652,652,1727406043146,0.19995117,0.9105835,-0.80352783,-6.171875,16.28125,-26.234375
653,653,1727406043186,-0.022705078,0.93621826,-0.7127075,-6.0625,8.21875,-23.328125
654,654,1727406043226,0.00024414062,0.90057373,-0.7876587,-4.625,12.46875,-18.78125
655,655,1727406043266,0.1081543,0.9713745,-0.708313,4.125,4.59375,-13.0625
656,656,1727406043306,0.11425781,0.9064331,-0.77593994,6.59375,4.140625,-12.71875
657,657,1727406043346,-0.024902344,0.8834839,-0.7427368,7.34375,3.03125,-15.484375
658,658,1727406043386,0.05078125,0.96502686,-0.6116333,12.71875,-1.578125,-8.359375
659,659,1727406043426,0.12695312,0.758728,-0.82696533,19.96875,-8.921875,-4.171875
660,660,1727406043466,0.07470703,0.69158936,-0.36553955,15.390625,-1.859375,-9.71875
661,661,1727406043506,0.05859375,0.7103882,-0.32354736,16.671875,3.75,-9.9375
662,662,1727406043546,0.04663086,0.7484741,-0.41168213,23.84375,-6.296875,-6.890625
663,663,1727406043586,0.05834961,0.59783936,-0.42681885,24.515625,-11.0625,-2.53125
664,664,1727406043626,0.064208984,0.58514404,-0.4085083,23.375,-14.21875,-1.796875
665,665,1727406043666,0.12719727,0.83221436,-0.43267822,17.125,-8.4375,1.71875
666,666,1727406043706,0.099853516,0.9098511,-0.4763794,12.921875,-9.609375,6.734375
667,667,1727406043746,0.11791992,0.9254761,-0.38067627,2.75,-16.21875,0.3125
668,668,1727406043786,0.013427734,0.9520874,-0.35430908,13.734375,-6.75,6.75
669,669,1727406043826,0.030517578,0.83807373,-0.43756104,16.71875,-9.28125,15.65625
670,670,1727406043866,0.061767578,1.1434937,-0.23150635,13.875,-19.4375,14.25
671,671,1727406043906,0.061523438,1.0819702,-0.093566895,22.421875,-18.125,20.46875
672,672,1727406043946,0.10449219,0.88323975,-0.16168213,13.03125,-18.625,9.765625
673,673,1727406043986,0.045410156,0.8727417,-0.10650635,12.828125,-18.015625,7.8125
674,674,1727406044026,-0.006591797,0.855896,-0.02960205,10.328125,-17.265625,9.65625
675,675,1727406044066,-0.091552734,0.9750366,0.055358887,7.734375,-14.046875,17.25
676,676,1727406044106,-0.05078125,1.0905151,0.0016479492,1.40625,-8.109375,13.453125
677,677,1727406044146,-0.025390625,0.9640503,-0.026916504,-1.59375,-4.515625,2.53125
678,678,1727406044186,-0.037597656,0.9984741,-0.0012817383,-2.203125,-4.390625,2.90625
679,679,1727406044226,0.005126953,0.99627686,-0.013000488,-0.921875,-7.28125,4.078125
680,680,1727406044266,-0.029052734,0.9755249,0.006286621,-3.25,-8.484375,2.4375
681,681,1727406044306,-0.041992188,0.9581909,-0.004699707,-3.265625,-10.453125,3.328125
682,682,1727406044346,-0.07348633,0.99261475,0.01361084,-5.546875,-10.8125,2.9375
683,683,1727406044386,-0.07299805,1.0145874,0.023620605,-7.671875,-11.484375,4.078125
684,684,1727406044426,-0.068115234,0.9315796,-0.0115356445,-10.1875,-13.1875,2.953125
685,685,1727406044466,-0.071777344,0.9359741,-0.00030517578,-12.890625,-12.484375,0.6875
686,686,1727406044506,-0.07299805,0.94085693,-0.0015258789,-14.0,-14.203125,0.375
687,687,1727406044546,-0.09375,0.93426514,-0.0115356445,-16.15625,-11.78125,-1.40625
688,688,1727406044586,-0.0925293,0.9269409,-0.057922363,-19.25,-10.5,-5.3125
689,689,1727406044626,-0.08691406,1.046814,-0.24810791,-29.03125,-2.34375,-6.28125
690,690,1727406044666,-0.0625,0.8341675,-0.45074463,-29.296875,9.28125,-4.5625
691,691,1727406044706,-0.008056641,0.65496826,-0.5105591,-41.875,5.953125,-12.46875
692,692,1727406044746,0.12792969,0.8788452,-0.5298462,-40.671875,8.96875,-11.5625
693,693,1727406044786,-0.018798828,0.8173218,-0.57037354,-36.265625,11.640625,-17.390625
694,694,1727406044826,-0.0009765625,0.7230835,-0.6860962,-32.84375,21.671875,-12.90625
695,695,1727406044866,0.04736328,1.0014038,-0.7661743,-29.390625,14.71875,-9.359375
696,696,1727406044906,0.028564453,0.9242554,-0.708313,-29.484375,11.109375,-4.546875
697,697,1727406044946,0.1418457,0.9003296,-0.73516846,-19.546875,7.015625,-6.75
698,698,1727406044986,0.103515625,0.8407593,-0.74591064,-9.046875,6.984375,-10.390625
699,699,1727406045026,0.03881836,0.76556396,-0.7012329,-1.234375,-0.984375,-5.0
700,700,1727406045066,0.08325195,0.87249756,-0.6633911,4.375,-2.15625,-1.5625
701,701,1727406045106,0.09643555,0.7374878,-0.69903564,6.390625,-8.140625,-0.890625
702,702,1727406045146,0.10961914,0.62005615,-0.65875244,6.78125,-12.953125,0.578125
703,703,1727406045186,0.091796875,0.6408081,-0.6345825,5.515625,-13.328125,2.328125
704,704,1727406045226,0.052734375,0.7723999,-0.62994385,4.3125,-11.734375,6.1875
705,705,1727406045266,0.08203125,0.74749756,-0.6289673,3.03125,-11.890625,7.078125
706,706,1727406045306,0.0769043,0.72650146,-0.6375122,3.578125,-12.546875,8.390625
707,707,1727406045346,0.0703125,0.7328491,-0.6279907,3.984375,-13.015625,8.40625
708,708,1727406045386,0.06518555,0.72821045,-0.6226196,4.25,-13.328125,6.453125
709,709,1727406045426,0.09790039,0.8031616,-0.57769775,6.515625,-13.546875,7.640625
710,710,1727406045466,0.1027832,0.7362671,-0.5701294,8.515625,-16.0625,7.90625
711,711,1727406045506,0.123535156,0.7616577,-0.58062744,8.8125,-14.703125,6.34375
712,712,1727406045546,0.08959961,0.89056396,-0.51641846,5.296875,-21.984375,8.359375
713,713,1727406045586,0.029785156,0.9957886,-0.43951416,5.890625,-18.296875,12.8125
714,714,1727406045626,0.02709961,0.8283081,-0.4758911,4.296875,-15.09375,10.578125
715,715,1727406045666,0.09643555,0.7597046,-0.5252075,1.234375,-13.125,4.671875
716,716,1727406045706,0.104003906,0.8324585,-0.52423096,2.453125,-13.21875,4.859375
717,717,1727406045746,0.0690918,0.91815186,-0.45465088,5.78125,-12.203125,4.09375
718,718,1727406045786,0.03881836,0.94036865,-0.4751587,8.328125,-7.140625,3.578125
719,719,1727406045826,0.0859375,0.93621826,-0.49664307,11.46875,-5.140625,1.09375
720,720,1727406045866,0.07446289,0.8410034,-0.47979736,13.609375,-4.71875,5.140625
721,721,1727406045906,0.07519531,0.8759155,-0.41656494,13.40625,-5.90625,4.5
722,722,1727406045946,0.041748047,0.9310913,-0.4463501,16.84375,-1.015625,7.0625
723,723,1727406045986,0.05126953,0.94085693,-0.36309814,16.234375,-4.875,7.515625
724,724,1727406046026,0.061035156,0.98846436,-0.38336182,18.90625,-1.171875,10.4375
725,725,1727406046066,0.05493164,0.96014404,-0.3135376,21.796875,-3.734375,11.671875
726,726,1727406046106,0.03173828,0.9747925,-0.3106079,22.875,-2.65625,12.171875
727,727,1727406046146,0.046875,0.95843506,-0.24346924,22.578125,-4.484375,15.84375
728,728,1727406046186,-0.014404297,0.87176514,-0.2654419,21.90625,-1.640625,15.421875
729,729,1727406046226,-0.07324219,0.838562,-0.19732666,15.28125,-4.734375,15.546875
730,730,1727406046266,-0.12060547,0.9069214,-0.1194458,10.53125,-7.53125,20.65625
731,731,1727406046306,-0.09106445,0.9059448,-0.05255127,7.234375,-5.8125,19.484375
732,732,1727406046346,-0.14086914,0.8817749,0.008239746,9.59375,-8.421875,8.28125
733,733,1727406046386,-0.16870117,0.76312256,0.048034668,7.15625,-8.953125,9.0
734,734,1727406046426,-0.19628906,0.90618896,0.074157715,-12.4375,-8.28125,4.125
735,735,1727406046466,-0.1328125,0.99676514,0.04144287,-13.671875,-3.4375,1.859375
736,736,1727406046506,-0.1274414,0.9122925,0.034851074,-21.8125,-14.09375,-8.078125
737,737,1727406046546,-0.1262207,0.91937256,-0.066467285,-26.265625,-14.375,-17.625
738,738,1727406046586,-0.08300781,1.0033569,-0.1963501,-28.6875,-12.71875,-20.953125
739,739,1727406046626,-0.016601562,0.9574585,-0.4541626,-29.09375,-8.34375,-24.671875
740,740,1727406046666,0.043945312,0.8444214,-0.5108032,-26.921875,-13.90625,-24.578125
741,741,1727406046706,0.04711914,0.95721436,-0.39923096,-33.96875,-5.8125,-22.6875
742,742,1727406046746,-0.0021972656,0.9310913,-0.5354614,-28.140625,14.125,-21.984375
743,743,1727406046786,0.06616211,0.887146,-0.50445557,-26.984375,29.390625,-19.171875
744,744,1727406046826,0.11328125,0.8851929,-0.663147,-19.59375,20.859375,-10.390625
745,745,1727406046866,0.017822266,0.9093628,-0.5335083,-4.453125,-0.59375,-5.59375
746,746,1727406046906,0.13842773,0.90423584,-0.6104126,-8.828125,16.53125,-4.34375
747,747,1727406046946,0.15405273,0.8602905,-0.6682739,3.75,6.765625,1.421875
748,748,1727406046986,0.19873047,0.7340698,-0.63726807,2.03125,2.921875,5.5
749,749,1727406047026,0.1418457,0.934021,-0.5725708,0.796875,9.0625,-0.125
750,750,1727406047066,0.095214844,0.80682373,-0.6140747,3.96875,5.78125,4.46875
751,751,1727406047106,0.1496582,0.70526123,-0.614563,1.203125,3.015625,5.78125
752,752,1727406047146,0.09765625,0.7501831,-0.6033325,3.734375,-1.984375,3.484375
753,753,1727406047186,0.060546875,0.7970581,-0.57110596,1.734375,2.21875,6.484375
754,754,1727406047226,0.059326172,0.84661865,-0.5706177,4.734375,1.515625,4.234375
755,755,1727406047266,0.05102539,0.83514404,-0.583313,6.59375,1.609375,3.328125
756,756,1727406047306,0.060058594,0.8156128,-0.5952759,8.296875,-0.546875,7.65625
757,757,1727406047346,0.0715332,0.89227295,-0.5784302,10.640625,-5.96875,6.6875
758,758,1727406047386,0.064697266,0.91693115,-0.5359497,20.109375,-13.828125,6.234375
759,759,1727406047426,0.057373047,0.8690796,-0.48443604,18.953125,-15.90625,7.453125
