,Unnamed: 0,timestamp,accel_x,accel_y,accel_z,gyro_x,gyro_y,gyro_z
0,0,1727292644705,0.3803711,-0.74420166,-0.1519165,8.125,0.921875,15.78125
1,1,1727292644748,0.3737793,-0.70147705,-0.15753174,12.140625,5.71875,17.609375
2,2,1727292644802,0.36083984,-0.7774048,-0.19927979,11.3125,3.0,11.515625
3,3,1727292644837,0.29907227,-0.7058716,-0.3237915,13.140625,7.015625,15.34375
4,4,1727292644866,0.46533203,-0.6760864,-0.25787354,16.34375,10.4375,14.453125
5,5,1727292644896,0.3244629,-0.73272705,-0.2991333,16.90625,-4.96875,20.34375
6,6,1727292644943,0.17993164,-0.5911255,-0.37457275,19.765625,5.84375,15.125
7,7,1727292645001,0.6870117,-0.57159424,-0.47027588,24.984375,-1.859375,17.484375
8,8,1727292645015,0.5078125,-0.7564087,-0.3587036,28.640625,-19.53125,31.34375
9,9,1727292645061,0.01977539,-0.7605591,-0.35723877,18.375,-8.765625,15.21875
10,10,1727292645107,0.34399414,-0.65289307,-0.41412354,18.046875,11.203125,10.09375
11,11,1727292645153,0.66552734,-0.6765747,-0.47686768,23.125,-1.703125,13.421875
12,12,1727292645181,0.4296875,-0.70098877,-0.51885986,19.34375,-7.0625,17.078125
13,13,1727292645211,0.46044922,-0.6790161,-0.55181885,20.046875,-1.09375,14.46875
14,14,1727292645257,0.51293945,-0.6921997,-0.5498657,16.671875,-6.375,10.1875
15,15,1727292645302,0.5629883,-0.8208618,-0.60406494,9.828125,-1.984375,11.265625
16,16,1727292645331,0.6838379,-0.66973877,-0.6433716,5.671875,2.8125,14.734375
17,17,1727292645376,0.689209,-0.7144165,-0.48492432,6.765625,-12.328125,19.765625
18,18,1727292645467,0.44482422,-0.7341919,-0.57769775,0.34375,-1.1875,11.453125
19,19,1727292645470,0.6586914,-0.62872314,-0.5261841,-9.609375,0.296875,0.78125
20,20,1727292645498,0.9177246,-0.5022583,-0.65631104,-0.546875,0.546875,12.828125
21,21,1727292645526,0.5930176,-0.6243286,-0.5742798,0.1875,-3.859375,-2.3125
22,22,1727292645571,0.70825195,-0.5523071,-0.6013794,-7.109375,-2.9375,8.96875
23,23,1727292645616,0.64868164,-0.54571533,-0.5977173,0.0,0.0,-0.578125
24,24,1727292645647,0.5744629,-0.5081177,-0.5195923,-3.234375,-1.40625,-2.375
25,25,1727292645692,0.6452637,-0.5239868,-0.49542236,-1.359375,-1.96875,-4.15625
26,26,1727292645737,0.6755371,-0.53204346,-0.6433716,-3.375,-4.015625,-11.34375
27,27,1727292645765,0.5834961,-0.6069946,-0.53570557,0.015625,0.578125,-11.828125
28,28,1727292645812,0.7246094,-0.6470337,-0.6795044,-9.78125,3.140625,-10.296875
29,29,1727292645841,0.6401367,-0.71417236,-0.5708618,-20.265625,-2.25,-22.421875
30,30,1727292645886,0.50512695,-0.7119751,-0.51226807,-23.15625,-0.75,-22.046875
31,31,1727292645931,0.532959,-0.6243286,-0.47906494,-22.640625,-0.578125,-25.6875
32,32,1727292645961,0.4326172,-0.7107544,-0.42877197,-12.796875,-0.78125,-26.890625
33,33,1727292646007,0.5373535,-0.7373657,-0.5059204,-13.953125,-0.40625,-23.71875
34,34,1727292646052,0.48217773,-0.6921997,-0.39141846,-18.421875,3.328125,-22.984375
35,35,1727292646081,0.51342773,-0.79107666,-0.46051025,-24.59375,0.859375,-25.78125
36,36,1727292646127,0.42358398,-0.79473877,-0.37750244,-30.8125,0.125,-19.203125
37,37,1727292646156,0.39160156,-0.7971802,-0.37677002,-29.75,4.515625,-23.40625
38,38,1727292646202,0.38427734,-0.848938,-0.30523682,-28.75,5.203125,-23.296875
39,39,1727292646248,0.3623047,-1.0288696,-0.25909424,-27.390625,0.84375,-28.046875
40,40,1727292646292,0.3310547,-0.95880127,-0.3255005,-28.359375,-0.125,-26.1875
41,41,1727292646321,0.23657227,-0.9883423,-0.28570557,-25.234375,1.328125,-23.59375
42,42,1727292646367,0.1274414,-1.0164185,-0.16314697,-22.078125,6.9375,-22.03125
43,43,1727292646398,0.16918945,-1.0635376,-0.0869751,-24.8125,3.59375,-18.28125
44,44,1727292646442,0.17651367,-0.97857666,-0.057922363,-26.125,-0.828125,-11.53125
45,45,1727292646487,0.14550781,-1.0130005,0.04925537,-28.984375,-2.34375,-13.28125
46,46,1727292646516,0.015625,-1.0090942,0.055114746,-30.203125,-6.296875,-15.5
47,47,1727292646563,0.09375,-0.9631958,0.13494873,-29.375,-8.53125,-12.28125
48,48,1727292646591,0.048095703,-0.97003174,0.15863037,-24.125,-5.359375,-8.015625
49,49,1727292646637,-0.029541016,-1.0889282,0.26019287,-17.375,-3.5,-7.109375
50,50,1727292646683,0.017333984,-1.098938,0.25213623,-16.03125,-2.078125,-6.03125
51,51,1727292646711,0.044189453,-1.0112915,0.26898193,-13.21875,2.546875,-4.640625
52,52,1727292646758,0.012451172,-0.9939575,0.24017334,-7.671875,1.640625,-4.34375
53,53,1727292646786,0.032226562,-0.95562744,0.2538452,-4.375,2.953125,-0.859375
54,54,1727292646834,0.013427734,-0.9534302,0.21478271,-2.046875,2.203125,0.171875
55,55,1727292646879,0.047607422,-0.9241333,0.20428467,-2.734375,3.6875,1.59375
56,56,1727292646912,0.06713867,-0.92266846,0.21209717,-0.25,1.15625,3.171875
57,57,1727292646951,0.041748047,-0.98883057,0.21917725,4.4375,1.5625,4.703125
58,58,1727292646998,0.05859375,-1.0342407,0.22088623,8.6875,2.28125,7.765625
59,59,1727292647028,0.07763672,-1.0271606,0.22796631,13.65625,1.046875,8.46875
60,60,1727292647073,0.0546875,-0.9873657,0.1954956,16.359375,5.078125,10.203125
61,61,1727292647116,0.13012695,-1.0376587,0.16693115,21.578125,3.1875,13.421875
62,62,1727292647146,0.048339844,-0.9834595,0.10443115,22.484375,2.78125,16.921875
63,63,1727292647193,0.13134766,-0.95880127,0.070495605,27.546875,2.375,20.421875
64,64,1727292647222,0.19946289,-0.98931885,0.049743652,30.234375,0.359375,26.421875
65,65,1727292647269,0.19165039,-0.9771118,0.0138549805,29.609375,-1.25,28.96875
66,66,1727292647312,0.13110352,-1.0264282,-0.028137207,31.84375,-1.46875,26.671875
67,67,1727292647342,0.21362305,-1.0169067,-0.08502197,31.0625,1.125,27.25
68,68,1727292647387,0.38842773,-0.8562622,-0.1795044,40.84375,3.390625,28.703125
69,69,1727292647417,0.34594727,-0.94732666,-0.2498169,46.109375,8.4375,27.015625
70,70,1727292647462,0.36669922,-0.8569946,-0.40899658,55.734375,4.75,31.375
71,71,1727292647507,0.46557617,-0.8230591,-0.39215088,39.46875,4.34375,33.421875
72,72,1727292647567,0.49145508,-0.802063,-0.50787354,41.1875,6.5,32.328125
73,73,1727292647582,0.53759766,-0.86187744,-0.581604,22.09375,6.609375,24.1875
74,74,1727292647628,0.65283203,-0.7288208,-0.57891846,6.984375,6.296875,17.046875
75,75,1727292647657,0.6052246,-0.7307739,-0.5720825,-0.640625,2.796875,10.28125
76,76,1727292647703,0.58935547,-0.73931885,-0.57696533,0.03125,4.9375,5.734375
77,77,1727292647731,0.623291,-0.66241455,-0.5125122,18.28125,12.0625,7.90625
78,78,1727292647778,0.63256836,-0.66192627,-0.5737915,18.15625,7.109375,9.828125
79,79,1727292647823,0.63500977,-0.6585083,-0.6572876,16.0625,6.859375,15.859375
80,80,1727292647867,0.64086914,-0.66485596,-0.6746216,19.59375,6.78125,14.9375
81,81,1727292647897,0.6064453,-0.7197876,-0.6748657,25.265625,6.046875,15.828125
82,82,1727292647942,0.7446289,-0.7424927,-0.7288208,16.296875,-5.375,14.90625
83,83,1727292647972,0.7578125,-0.6277466,-0.6885376,5.015625,-6.3125,11.234375
84,84,1727292648017,0.6977539,-0.5852661,-0.567688,-2.9375,-7.609375,11.4375
85,85,1727292648063,0.7861328,-0.5327759,-0.5449829,-3.421875,-12.25,6.296875
86,86,1727292648091,0.6328125,-0.5881958,-0.60821533,1.0,-12.828125,6.53125
87,87,1727292648137,0.56030273,-0.548645,-0.5508423,-3.359375,-5.265625,-4.203125
88,88,1727292648167,0.54711914,-0.57354736,-0.5713501,-5.78125,-4.96875,-12.671875
89,89,1727292648212,0.5488281,-0.62872314,-0.5515747,-9.78125,0.53125,-16.09375
90,90,1727292648259,0.5637207,-0.6231079,-0.5256958,-15.0,2.140625,-15.359375
91,91,1727292648287,0.5852051,-0.63531494,-0.48687744,-20.703125,1.578125,-19.125
92,92,1727292648332,0.51660156,-0.66534424,-0.4776001,-23.0,-0.5625,-24.875
93,93,1727292648377,0.5354004,-0.6135864,-0.43292236,-26.96875,4.0,-29.65625
94,94,1727292648406,0.5083008,-0.6382446,-0.39874268,-27.234375,1.421875,-31.375
95,95,1727292648452,0.48046875,-0.65411377,-0.39117432,-32.9375,2.28125,-34.421875
96,96,1727292648528,0.46826172,-0.6502075,-0.3743286,-29.125,0.46875,-35.640625
97,97,1727292648532,0.45776367,-0.6345825,-0.35308838,-34.546875,-1.296875,-32.921875
98,98,1727292648573,0.3425293,-0.5979614,-0.30889893,-28.671875,-1.875,-28.0
99,99,1727292648602,0.4621582,-0.6524048,-0.2263794,-21.625,-2.921875,-20.71875
100,100,1727292648647,0.30297852,-0.48394775,-0.21051025,-19.421875,-7.6875,-15.125
101,101,1727292648693,0.32739258,-0.4048462,-0.14752197,-7.875,-7.375,-8.828125
102,102,1727292648721,0.34326172,-0.54400635,-0.07525635,1.625,-10.515625,-1.40625
103,103,1727292648768,0.34716797,-0.76812744,-0.042053223,5.546875,-6.21875,0.25
104,104,1727292648813,0.47094727,-0.8682251,0.014831543,6.34375,0.25,7.296875
105,105,1727292648842,0.27563477,-0.83917236,0.01776123,3.921875,8.921875,19.71875
106,106,1727292648887,0.10229492,-0.6782837,-0.010803223,5.5,29.140625,22.34375
107,107,1727292648918,0.19458008,-0.63116455,-0.13043213,9.203125,40.734375,21.734375
108,108,1727292648963,0.23144531,-0.50494385,-0.33477783,14.375,53.640625,26.59375
109,109,1727292649006,0.29174805,-0.33477783,-0.5178833,22.171875,48.890625,39.40625
110,110,1727292649036,0.45922852,-0.38775635,-0.66900635,31.96875,31.1875,52.078125
111,111,1727292649082,0.31884766,-0.5869751,-0.62506104,51.546875,9.9375,50.328125
112,112,1727292649127,0.5397949,-0.9649048,-0.39874268,39.90625,13.84375,42.421875
113,113,1727292649157,0.18676758,-0.7324829,-0.5269165,16.859375,7.203125,41.484375
114,114,1727292649202,0.4892578,-0.44683838,-0.73638916,29.234375,-1.015625,33.734375
115,115,1727292649232,0.44995117,-0.2625122,-0.6760864,28.53125,9.375,39.125
116,116,1727292649278,0.48901367,-0.5029907,-0.62872314,33.65625,10.484375,34.609375
117,117,1727292649322,0.96533203,-0.7258911,-0.49298096,0.875,11.546875,41.78125
118,118,1727292649352,0.5563965,-0.5371704,-0.62042236,-4.59375,16.078125,42.578125
119,119,1727292649397,0.47143555,-0.29522705,-0.76885986,11.265625,27.921875,30.84375
120,120,1727292649426,0.90234375,-0.5996704,-0.98809814,8.65625,16.0625,48.5
121,121,1727292649473,0.8034668,-0.27716064,-0.68927,6.015625,22.78125,33.3125
122,122,1727292649519,0.43359375,-0.40118408,-0.7703247,3.6875,24.71875,30.578125
123,123,1727292649547,0.8105469,-0.39117432,-0.7515259,1.140625,16.6875,31.875
124,124,1727292649592,0.6335449,-0.3809204,-0.77301025,-2.65625,18.921875,17.125
125,125,1727292649637,0.59375,-0.4282837,-0.6638794,-2.234375,20.015625,13.90625
126,126,1727292649666,0.41430664,-0.37408447,-0.64508057,-4.734375,18.59375,15.484375
127,127,1727292649712,0.39453125,-0.39801025,-0.6992798,-8.34375,24.984375,18.984375
128,128,1727292649741,0.4501953,-0.39752197,-0.7788696,-6.90625,35.53125,29.390625
129,129,1727292649787,0.27612305,-0.3045044,-0.975647,-16.0,31.53125,31.0
130,130,1727292649833,0.9760742,-0.12701416,-1.4002075,-69.375,17.46875,20.84375
131,131,1727292649862,0.8540039,-0.15093994,-1.187561,-42.921875,10.640625,-1.984375
132,132,1727292649907,-0.4020996,-0.08526611,-0.90338135,-44.8125,30.390625,-5.421875
133,133,1727292649953,0.15112305,-0.36968994,-0.8250122,-49.0,47.515625,-6.515625
134,134,1727292649981,0.6401367,-0.33746338,-1.0623169,-63.40625,33.828125,-1.515625
135,135,1727292650030,0.28588867,-0.2612915,-0.68096924,-38.375,35.34375,0.890625
136,136,1727292650057,-0.20922852,-0.38067627,-0.90093994,-52.375,35.640625,-9.984375
137,137,1727292650133,0.08520508,-0.4985962,-0.7341919,-33.5,46.75,1.328125
138,138,1727292650147,0.07470703,-0.65460205,-0.80718994,-47.015625,44.25,4.625
139,139,1727292650180,0.0053710938,-0.50201416,-0.77789307,-42.5625,47.984375,11.203125
140,140,1727292650223,-0.026611328,-0.5803833,-0.7317505,-39.46875,42.75,-1.890625
141,141,1727292650267,-0.040527344,-1.022522,-0.84698486,-46.5625,34.328125,4.921875
142,142,1727292650297,-0.20922852,-0.74346924,-0.71881104,-37.671875,33.125,16.8125
143,143,1727292650358,0.03955078,-0.63482666,-0.6104126,-25.796875,26.921875,15.4375
144,144,1727292650372,0.078125,-0.8694458,-0.7473755,-28.015625,36.96875,23.984375
145,145,1727292650417,0.064697266,-0.82696533,-0.5750122,-20.3125,35.359375,29.828125
146,146,1727292650462,0.088134766,-0.7637329,-0.46466064,-16.5,29.609375,32.28125
147,147,1727292650492,0.011962891,-0.8088989,-0.55792236,-6.90625,29.03125,30.609375
148,148,1727292650537,0.045898438,-0.9221802,-0.5154419,-13.609375,28.609375,23.203125
149,149,1727292650583,0.0009765625,-0.8587036,-0.45587158,-23.671875,30.078125,20.359375
150,150,1727292650612,0.14941406,-0.9319458,-0.42926025,-25.53125,29.96875,13.609375
151,151,1727292650672,-0.041748047,-1.1567993,-0.54693604,-21.421875,26.5,13.484375
152,152,1727292650687,0.119628906,-0.83917236,-0.5327759,-22.34375,30.125,1.1875
153,153,1727292650735,-0.056396484,-0.98565674,-0.38531494,-14.203125,35.796875,-8.296875
154,154,1727292650776,-0.072753906,-0.9859009,-0.33551025,-11.375,33.578125,-16.984375
155,155,1727292650807,-0.07763672,-1.0652466,-0.3040161,-10.765625,26.984375,-18.59375
156,156,1727292650853,-0.076416016,-0.8909302,-0.31451416,-12.953125,25.1875,-20.5625
157,157,1727292650912,-0.13647461,-0.91290283,-0.253479,-14.9375,19.34375,-25.6875
158,158,1727292650926,-0.1303711,-0.95684814,-0.26202393,-18.90625,19.0625,-32.71875
159,159,1727292650987,-0.20043945,-0.8311157,-0.24273682,-20.3125,16.53125,-35.921875
160,160,1727292651019,-0.36206055,-0.75616455,-0.20953369,-17.828125,14.375,-41.421875
161,161,1727292651047,-0.27734375,-0.9873657,-0.29083252,-9.125,8.390625,-52.578125
162,162,1727292651092,-0.32885742,-0.81988525,-0.3069458,-13.15625,1.265625,-66.859375
163,163,1727292651123,-0.3017578,-0.84552,-0.09893799,-11.765625,-11.65625,-82.625
164,164,1727292651167,-0.59765625,-0.73516846,-0.097229004,-15.921875,-10.9375,-74.625
165,165,1727292651212,-0.47338867,-0.50860596,0.3366089,-12.5625,2.171875,-86.90625
166,166,1727292651241,-1.5251465,-1.5586548,-0.27520752,-13.484375,8.0,-8.078125
167,167,1727292651288,-0.98217773,-1.2371216,-0.25909424,-44.4375,52.21875,-14.203125
168,168,1727292651332,-0.77075195,-0.14337158,0.14398193,-15.234375,40.359375,-14.375
169,169,1727292651361,-0.8496094,-0.7151489,-0.11383057,-12.203125,41.703125,13.890625
170,170,1727292651408,-0.859375,-0.5130005,0.01727295,-16.40625,36.921875,-2.765625
171,171,1727292651437,-0.74194336,-0.2805786,-0.0025024414,-6.984375,32.09375,-15.375
172,172,1727292651482,-0.7285156,-0.6494751,0.030944824,-5.609375,25.125,-8.9375
173,173,1727292651527,-0.8601074,-0.65948486,0.17938232,-10.9375,23.0625,-6.53125
174,174,1727292651557,-0.85717773,-0.7217407,0.19207764,-10.359375,23.203125,-9.203125
175,175,1727292651617,-0.80200195,-0.55303955,0.18890381,-9.109375,19.328125,-6.296875
176,176,1727292651678,-0.795166,-0.5430298,0.30340576,-9.171875,20.96875,-6.296875
177,177,1727292651683,-0.7163086,-0.5003052,0.2753296,-11.796875,18.703125,-6.71875
178,178,1727292651722,-0.6789551,-0.5105591,0.31756592,-18.765625,18.25,-8.0625
179,179,1727292651752,-0.7429199,-0.57696533,0.33807373,-24.921875,19.359375,-8.65625
180,180,1727292651798,-0.69555664,-0.4841919,0.37127686,-30.453125,14.171875,-16.34375
181,181,1727292651842,-0.64501953,-0.28741455,0.4960327,-35.1875,10.875,-24.6875
182,182,1727292651872,-0.8071289,-0.36212158,0.63812256,-44.546875,11.015625,-35.140625
183,183,1727292651935,-1.1960449,-0.68536377,0.7731323,-49.09375,25.484375,-37.984375
184,184,1727292651993,-0.79589844,-0.40045166,0.69451904,-26.859375,31.84375,-23.953125
185,185,1727292652001,-0.58691406,-0.35186768,0.74017334,-13.953125,22.53125,-16.984375
186,186,1727292652039,-0.6813965,-0.15411377,0.61395264,-16.28125,20.796875,-12.0
187,187,1727292652068,-0.920166,-0.21466064,0.77020264,-9.96875,25.328125,-3.65625
188,188,1727292652113,-0.67871094,-0.19146729,0.7350464,-7.59375,25.328125,-13.34375
189,189,1727292652157,-0.58032227,-0.035217285,0.8185425,-9.9375,18.921875,-3.65625
190,190,1727292652186,-0.75878906,-0.06011963,0.7626343,-5.546875,12.5,2.453125
191,191,1727292652247,-0.6411133,-0.16925049,0.79730225,-1.59375,19.078125,-11.359375
192,192,1727292652278,-0.57910156,-0.07183838,0.81121826,-4.6875,8.75,-4.8125
193,193,1727292652308,-0.7192383,-0.20928955,0.8353882,1.265625,9.71875,-4.40625
194,194,1727292652353,-0.6218262,-0.10040283,0.8200073,-1.328125,4.984375,-8.625
195,195,1727292652382,-0.6123047,-0.16461182,0.8434448,-5.25,-0.875,-1.484375
196,196,1727292652428,-0.6984863,-0.1585083,0.8348999,1.140625,1.78125,-4.78125
197,197,1727292652472,-0.49658203,-0.12261963,0.7872925,-4.4375,4.21875,-10.109375
198,198,1727292652502,-0.6699219,0.015808105,0.7821655,-6.328125,-3.671875,-2.640625
199,199,1727292652547,-0.6320801,-0.10308838,0.7247925,-3.140625,-0.609375,-2.078125
200,200,1727292652592,-0.66503906,-0.035217285,0.7453003,0.453125,-3.03125,-1.125
201,201,1727292652622,-0.5864258,-0.08868408,0.82196045,1.75,0.703125,0.296875
202,202,1727292652683,-0.62158203,-0.06549072,0.76068115,0.015625,-0.171875,2.125
203,203,1727292652697,-0.55322266,0.0053100586,0.76971436,-0.71875,0.15625,1.84375
204,204,1727292652744,-0.657959,-0.04058838,0.80633545,2.21875,-6.40625,9.5625
205,205,1727292652786,-0.5673828,-0.11114502,0.8222046,3.171875,-13.640625,7.5625
206,206,1727292652818,-0.5749512,-0.049621582,0.8139038,13.921875,-33.359375,11.921875
207,207,1727292652863,-0.7402344,-0.034240723,0.7633667,22.15625,-32.25,16.9375
208,208,1727292652907,-0.8618164,-0.13043213,0.6469116,21.265625,-30.25,10.765625
209,209,1727292652937,-0.8808594,-0.2979126,0.7526245,26.0625,-22.859375,14.046875
210,210,1727292652982,-0.8395996,-0.26690674,0.63275146,21.453125,-14.328125,14.59375
211,211,1727292653011,-0.8269043,-0.35235596,0.5934448,18.9375,-12.9375,16.046875
212,212,1727292653056,-0.6894531,-0.3526001,0.6703491,20.515625,-17.625,14.421875
213,213,1727292653102,-0.88500977,-0.3743286,0.6725464,19.015625,-14.96875,17.984375
214,214,1727292653132,-0.94140625,-0.33795166,0.60272217,27.25,-9.8125,18.5
215,215,1727292653178,-0.9421387,-0.3477173,0.5883179,27.546875,1.125,28.4375
216,216,1727292653222,-0.72875977,-0.34429932,0.41497803,28.59375,3.734375,25.46875
217,217,1727292653251,-0.6582031,-0.47955322,0.42352295,30.515625,-2.671875,22.125
218,218,1727292653311,-0.72998047,-0.58551025,0.40911865,33.15625,-8.0,16.03125
219,219,1727292653327,-0.6376953,-0.6567993,0.36517334,31.984375,-6.59375,9.84375
220,220,1727292653371,-0.60302734,-0.6362915,0.32147217,29.828125,-5.734375,7.15625
221,221,1727292653416,-0.6921387,-0.7149048,0.34661865,22.921875,-4.140625,4.375
222,222,1727292653446,-0.60058594,-0.8184204,0.2584839,30.640625,-11.5,4.34375
223,223,1727292653506,-0.58154297,-0.66534424,0.28997803,30.578125,-8.203125,0.875
224,224,1727292653537,-0.67211914,-0.63897705,0.22283936,30.59375,-5.609375,6.34375
225,225,1727292653565,-0.5505371,-0.7036743,0.23553467,20.21875,-4.78125,2.609375
226,226,1727292653610,-0.6706543,-0.7461548,0.14324951,20.28125,-10.296875,-1.421875
227,227,1727292653641,-0.72216797,-0.70440674,0.11004639,17.15625,-12.875,-1.3125
228,228,1727292653686,-0.73999023,-0.77960205,0.11395264,13.171875,-16.078125,-2.765625
229,229,1727292653731,-0.76293945,-0.77960205,0.105895996,13.921875,-20.328125,-3.453125
230,230,1727292653761,-0.7758789,-0.7385864,-0.009094238,7.171875,-21.046875,-1.21875
231,231,1727292653822,-0.6274414,-0.66534424,-0.06378174,6.375,-24.515625,3.5
232,232,1727292653851,-0.7270508,-0.69366455,-0.058410645,4.609375,-28.78125,4.953125
233,233,1727292653882,-0.6875,-0.7090454,-0.0881958,9.890625,-32.171875,1.59375
234,234,1727292653928,-0.6765137,-0.7217407,-0.15679932,7.0,-39.734375,-2.34375
235,235,1727292653972,-0.6977539,-0.6917114,-0.2263794,5.203125,-42.453125,-0.6875
236,236,1727292654001,-0.86083984,-0.80963135,-0.23565674,10.296875,-48.46875,0.984375
237,237,1727292654048,-0.7792969,-0.85235596,-0.30841064,12.40625,-39.25,3.484375
238,238,1727292654077,-0.79907227,-0.51641846,-0.27105713,19.859375,-39.421875,-10.890625
239,239,1727292654122,-0.62890625,-0.5120239,-0.34429932,22.046875,-43.96875,-11.640625
240,240,1727292654167,-0.71728516,-0.7485962,-0.49957275,24.65625,-39.265625,-9.859375
241,241,1727292654196,-0.71899414,-0.5874634,-0.50494385,21.796875,-40.421875,-12.296875
242,242,1727292654242,-0.73291016,-0.6321411,-0.6074829,24.359375,-40.421875,-9.90625
243,243,1727292654287,-0.56469727,-0.628479,-0.7317505,27.328125,-46.953125,-12.765625
244,244,1727292654316,-0.4206543,-0.6008911,-0.72906494,27.375,-53.421875,-17.625
245,245,1727292654361,-0.56225586,-0.3970337,-0.831604,36.65625,-54.296875,-19.65625
246,246,1727292654393,-0.63842773,-0.5408325,-0.91656494,38.625,-42.3125,-9.515625
247,247,1727292654453,-0.4482422,-0.53863525,-0.86676025,41.78125,-40.046875,-8.53125
248,248,1727292654482,-0.4086914,-0.47833252,-0.8948364,39.8125,-45.546875,-13.0
249,249,1727292654512,-0.18481445,-0.26031494,-0.87750244,41.515625,-49.609375,-0.609375
250,250,1727292654557,-0.08105469,-0.29034424,-0.78082275,37.546875,-61.15625,10.65625
251,251,1727292654602,-0.19677734,-0.3196411,-0.88775635,36.90625,-50.75,19.296875
252,252,1727292654647,-0.3251953,-0.27471924,-0.8086548,38.5,-38.046875,11.609375
253,253,1727292654676,-0.12109375,-0.3303833,-0.78692627,39.546875,-33.96875,3.40625
254,254,1727292654707,0.0087890625,-0.24395752,-0.8689575,31.703125,-27.390625,-2.5
255,255,1727292654754,-0.22021484,-0.2420044,-0.88287354,37.703125,-28.421875,-14.390625
256,256,1727292654797,0.16040039,-0.26153564,-1.1365356,13.765625,-35.125,-22.234375
257,257,1727292654826,0.046875,0.20135498,-0.9067993,25.21875,-21.484375,-23.15625
258,258,1727292654871,-0.33642578,-0.24591064,-1.0032349,22.265625,-18.328125,-36.78125
259,259,1727292654918,0.09106445,0.11663818,-0.9319458,12.515625,-3.484375,-37.3125
260,260,1727292654948,0.16259766,0.26068115,-0.98931885,18.828125,-1.53125,-20.75
261,261,1727292654992,0.119140625,0.3060913,-0.8948364,22.078125,-2.421875,-15.921875
262,262,1727292655023,0.100097656,0.24066162,-0.93585205,14.296875,-2.734375,-8.6875
263,263,1727292655067,0.09082031,0.2687378,-0.9356079,10.375,-6.578125,-12.484375
264,264,1727292655112,0.17822266,0.2826538,-0.8665161,10.28125,-7.390625,-7.859375
265,265,1727292655141,0.037597656,0.30926514,-0.86676025,17.84375,-2.5,-6.1875
266,266,1727292655186,0.18066406,0.30560303,-0.9463501,10.8125,-9.9375,-11.53125
267,267,1727292655247,0.15356445,0.29412842,-0.9126587,6.828125,-13.109375,-6.25
268,268,1727292655276,0.26342773,0.3324585,-0.9692993,9.59375,-18.140625,-10.53125
269,269,1727292655308,0.13208008,0.3300171,-1.0264282,16.734375,-11.203125,-17.625
270,270,1727292655336,-0.053222656,0.15106201,-0.94317627,13.140625,-11.640625,-25.5625
271,271,1727292655381,0.06713867,0.21160889,-0.91363525,11.5,-5.390625,-26.15625
272,272,1727292655427,0.20507812,0.2584839,-0.8977661,15.328125,-9.3125,-25.5625
273,273,1727292655458,0.09008789,0.09881592,-1.0484009,3.796875,2.78125,-28.078125
274,274,1727292655502,0.5986328,0.38690186,-0.9937134,-4.84375,-8.265625,-22.84375
275,275,1727292655546,0.74609375,0.1918335,-0.944397,-13.09375,-8.53125,-16.90625
276,276,1727292655576,0.7092285,0.08050537,-0.9702759,-17.90625,-14.46875,-22.46875
277,277,1727292655623,0.6147461,0.20770264,-1.0227661,-19.109375,-20.8125,-22.53125
278,278,1727292655652,0.56811523,0.16595459,-0.91192627,-13.765625,-22.625,-25.203125
279,279,1727292655697,0.6789551,-0.053527832,-0.88238525,-19.59375,-27.875,-37.171875
280,280,1727292655742,0.8652344,0.06829834,-0.8587036,-31.359375,-38.671875,-51.96875
281,281,1727292655772,0.9921875,-0.090148926,-0.8521118,-33.71875,-49.0625,-63.859375
282,282,1727292655817,0.6430664,-0.26617432,-0.71466064,-35.71875,-39.4375,-57.40625
283,283,1727292655862,0.42358398,-0.25689697,-0.82476807,-46.484375,-31.609375,-59.75
284,284,1727292655892,0.4963379,-0.31134033,-0.7842407,-44.109375,-18.859375,-52.8125
285,285,1727292655937,0.51586914,-0.4055786,-0.63409424,-36.734375,-18.84375,-45.53125
286,286,1727292655966,0.48535156,-0.46661377,-0.5405884,-37.28125,-14.828125,-49.265625
287,287,1727292656012,0.5300293,-0.6279907,-0.42926025,-32.765625,-4.359375,-46.625
288,288,1727292656058,0.54785156,-0.7034302,-0.4500122,-35.1875,-2.328125,-41.78125
289,289,1727292656087,0.6411133,-0.72247314,-0.43341064,-30.6875,-4.671875,-38.6875
290,290,1727292656132,0.60791016,-0.64727783,-0.42633057,-30.65625,-11.015625,-37.90625
291,291,1727292656178,0.44458008,-0.71417236,-0.39117432,-24.96875,-10.578125,-41.640625
292,292,1727292656206,0.3876953,-0.7539673,-0.37335205,-23.78125,-12.390625,-46.234375
293,293,1727292656253,0.25073242,-0.7781372,-0.3430786,-19.46875,-5.09375,-48.640625
294,294,1727292656282,0.21411133,-0.82940674,-0.32232666,-24.75,9.0625,-54.59375
295,295,1727292656327,0.21289062,-0.86187744,-0.41046143,-26.65625,12.359375,-52.359375
296,296,1727292656373,0.26464844,-0.77960205,-0.36846924,-30.03125,0.296875,-44.796875
297,297,1727292656401,0.026611328,-0.66973877,-0.36260986,-26.59375,-0.703125,-31.8125
298,298,1727292656447,-0.013183594,-0.78912354,-0.456604,-12.0,14.28125,-23.21875
299,299,1727292656493,-0.030517578,-0.87213135,-0.35308838,0.015625,21.890625,-7.578125
300,300,1727292656523,-0.08251953,-0.8518677,-0.35772705,0.796875,26.015625,4.71875
301,301,1727292656566,-0.17578125,-0.84503174,-0.33013916,1.5625,22.0625,5.453125
302,302,1727292656597,-0.15722656,-0.80426025,-0.4463501,6.84375,26.203125,5.84375
303,303,1727292656641,0.014404297,-0.80963135,-0.47930908,12.328125,27.046875,2.96875
304,304,1727292656687,-0.0048828125,-0.92974854,-0.40582275,16.875,19.3125,8.1875
305,305,1727292656717,0.036865234,-0.8526001,-0.40509033,14.234375,11.109375,12.5
306,306,1727292656764,0.13720703,-0.612854,-0.40655518,16.28125,7.84375,16.546875
307,307,1727292656807,0.22802734,-0.520813,-0.49761963,30.28125,-10.96875,24.3125
308,308,1727292656837,0.068115234,-0.85723877,-0.25421143,25.296875,-19.96875,22.390625
309,309,1727292656882,0.11303711,-1.2605591,-0.04815674,30.78125,-29.5,16.203125
310,310,1727292656912,-0.26538086,-1.1856079,-0.11602783,-1.671875,-30.25,21.859375
311,311,1727292656957,0.7290039,-0.9002075,-0.49224854,20.125,-22.328125,29.203125
312,312,1727292657002,0.084228516,-0.9541626,-0.45977783,16.25,-35.578125,37.34375
313,313,1727292657031,-0.08886719,-0.9260864,-0.4668579,16.125,-44.90625,29.375
314,314,1727292657077,0.4267578,-0.7737427,-0.3513794,10.828125,-23.71875,29.1875
315,315,1727292657123,-0.056640625,-0.7944946,-0.44171143,22.515625,0.140625,28.53125
316,316,1727292657152,0.4416504,-0.6526489,-0.5261841,14.046875,-8.0,-3.515625
317,317,1727292657197,0.66918945,-0.78448486,-0.6902466,22.15625,-1.125,8.75
318,318,1727292657227,1.0478516,-0.77349854,-0.6343384,27.546875,-11.5,14.09375
319,319,1727292657272,0.66748047,-0.96173096,-0.33135986,36.234375,-12.296875,-3.25
320,320,1727292657317,0.8022461,-1.0042114,-0.3953247,37.578125,31.15625,9.40625
321,321,1727292657347,1.0444336,-0.51641846,-1.2739868,6.34375,0.515625,23.8125
322,322,1727292657393,0.32543945,-0.37872314,-0.66290283,17.0,-0.828125,17.625
323,323,1727292657439,0.5095215,-0.7349243,-0.79522705,22.46875,1.828125,7.09375
324,324,1727292657467,0.93310547,-0.57696533,-0.7798462,19.5,3.203125,23.15625
325,325,1727292657513,0.54711914,-0.51348877,-0.73931885,27.03125,-0.5625,15.515625
326,326,1727292657575,0.6784668,-0.5293579,-0.75616455,18.953125,1.390625,17.609375
327,327,1727292657586,0.7661133,-0.5010376,-0.8406372,19.921875,-0.875,16.78125
328,328,1727292657633,0.7141113,-0.33624268,-0.7359009,11.546875,-1.484375,20.171875
329,329,1727292657678,0.61279297,-0.124816895,-0.7529907,8.828125,-5.015625,17.71875
330,330,1727292657707,0.7331543,-0.05670166,-0.76763916,10.484375,-13.515625,11.640625
331,331,1727292657752,0.7595215,-0.27227783,-0.71954346,5.078125,-15.703125,2.875
332,332,1727292657814,0.71240234,-0.18463135,-0.659729,0.734375,-25.609375,4.8125
333,333,1727292657827,0.84887695,-0.14263916,-0.5540161,-0.453125,-37.890625,-7.703125
334,334,1727292657873,0.7062988,-0.269104,-0.60528564,-5.609375,-38.515625,-12.0
335,335,1727292657903,0.6604004,-0.24664307,-0.61846924,-7.0625,-28.046875,-23.375
336,336,1727292657947,0.6699219,-0.23248291,-0.59991455,1.40625,-18.859375,-30.515625
337,337,1727292657992,0.7492676,-0.2954712,-0.505188,5.71875,-19.421875,-33.421875
338,338,1727292658023,0.7475586,-0.34332275,-0.4595337,1.75,-19.8125,-39.328125
339,339,1727292658068,0.76049805,-0.35113525,-0.38726807,-0.171875,-15.015625,-36.75
340,340,1727292658098,0.57177734,-0.38555908,-0.31671143,0.390625,-16.5,-36.734375
341,341,1727292658142,0.6628418,-0.44073486,-0.28131104,-3.921875,-13.9375,-46.78125
342,342,1727292658187,0.6213379,-0.45758057,-0.22540283,-11.734375,-13.125,-48.890625
343,343,1727292658217,0.57714844,-0.49005127,-0.20318604,-16.40625,-8.640625,-48.6875
344,344,1727292658262,0.55078125,-0.536438,-0.18341064,-22.296875,-3.03125,-50.53125
345,345,1727292658292,0.4584961,-0.62945557,-0.18243408,-29.453125,4.875,-48.34375
346,346,1727292658337,0.43945312,-0.69903564,-0.21246338,-32.8125,22.0,-44.109375
347,347,1727292658383,0.5439453,-0.7293091,-0.30645752,-34.78125,30.5625,-42.296875
348,348,1727292658427,0.50683594,-0.7932739,-0.5042114,-26.5,30.890625,-27.40625
349,349,1727292658456,0.2602539,-0.8328247,-0.5562134,-10.8125,24.78125,-13.5625
350,350,1727292658532,-0.014160156,-1.0100708,-0.5396118,-4.671875,12.09375,-11.96875
351,351,1727292658537,0.057128906,-1.1394653,-0.40704346,-3.984375,14.0625,-28.65625
352,352,1727292658577,0.3720703,-1.0637817,-0.30670166,-6.1875,21.40625,-26.875
353,353,1727292658607,0.119384766,-0.81427,-0.3274536,-14.046875,4.1875,-18.875
354,354,1727292658653,0.025634766,-0.58721924,-0.34014893,-11.890625,-1.953125,-29.171875
355,355,1727292658727,0.087646484,-0.67315674,-0.3731079,-8.921875,-5.109375,-30.671875
356,356,1727292658732,-0.04321289,-0.80914307,-0.27886963,-2.078125,-9.046875,-19.609375
357,357,1727292658773,-0.21362305,-0.9067993,-0.33502197,-5.46875,-5.328125,-16.421875
358,358,1727292658837,-0.016113281,-1.0488892,-0.29718018,-3.890625,6.859375,-20.546875
359,359,1727292658846,0.14526367,-1.1187134,-0.2925415,-12.984375,8.5,-18.3125
360,360,1727292658892,0.059326172,-0.95562744,-0.29888916,-19.734375,6.578125,-10.234375
361,361,1727292658922,0.057617188,-0.8381958,-0.3086548,-15.46875,5.78125,-8.0
362,362,1727292658968,0.038330078,-0.848938,-0.26568604,-12.984375,8.578125,-3.875
363,363,1727292659012,0.0637207,-0.8706665,-0.28155518,-13.140625,12.46875,4.5
364,364,1727292659088,0.19311523,-0.8699341,-0.25445557,-10.6875,9.453125,9.8125
365,365,1727292659092,0.104003906,-0.87994385,-0.2901001,-7.078125,4.171875,21.0
366,366,1727292659133,0.123046875,-1.0422974,-0.2390747,2.3125,1.921875,24.609375
367,367,1727292659163,0.029296875,-1.2451782,-0.051818848,5.796875,1.765625,27.890625
368,368,1727292659208,-0.1730957,-1.1638794,-0.03692627,2.75,3.578125,22.3125
369,369,1727292659238,-0.10107422,-0.956604,-0.1885376,8.953125,-1.015625,5.546875
370,370,1727292659284,0.04736328,-1.0820923,-0.13238525,15.515625,-5.359375,5.828125
371,371,1727292659328,0.14477539,-1.1387329,-0.07867432,13.859375,-3.90625,15.484375
372,372,1727292659358,-0.052978516,-1.1228638,0.030700684,11.59375,-5.6875,14.46875
373,373,1727292659402,-0.017333984,-0.9348755,-0.082092285,4.625,4.796875,6.734375
374,374,1727292659446,0.14233398,-0.7944946,-0.10089111,10.296875,6.78125,1.234375
375,375,1727292659478,0.16918945,-0.8447876,-0.13897705,10.65625,3.125,7.171875
376,376,1727292659522,0.16845703,-0.81573486,-0.15533447,11.8125,3.796875,12.671875
377,377,1727292659552,0.20898438,-0.77056885,-0.1795044,18.0625,3.0625,16.921875
378,378,1727292659596,0.2434082,-0.77178955,-0.19976807,26.265625,1.140625,21.359375
379,379,1727292659644,0.328125,-0.8867798,-0.20513916,24.609375,-3.953125,20.671875
380,380,1727292659671,0.26953125,-0.84381104,-0.12213135,18.65625,3.953125,22.796875
381,381,1727292659717,0.060302734,-0.7305298,-0.22711182,20.0625,17.15625,22.078125
382,382,1727292659763,0.20410156,-0.5930786,-0.43829346,18.078125,24.171875,14.0
383,383,1727292659792,0.4880371,-0.57037354,-0.80718994,19.703125,-2.765625,25.6875
384,384,1727292659839,0.6081543,-0.6355591,-0.81036377,41.53125,0.5,40.890625
385,385,1727292659867,-0.05126953,-1.0715942,-0.440979,30.71875,-2.78125,31.09375
386,386,1727292659912,-0.2841797,-1.000061,-0.42510986,19.328125,22.0625,-3.8125
387,387,1727292659958,0.5690918,-0.7276001,-0.63531494,11.8125,11.484375,31.234375
388,388,1727292659986,0.34887695,-0.36676025,-0.7107544,19.375,-2.53125,0.96875
389,389,1727292660031,0.3022461,-0.5647583,-0.6174927,21.828125,4.46875,14.640625
390,390,1727292660076,0.3725586,-0.772522,-0.6399536,20.0,-7.515625,13.65625
391,391,1727292660107,0.3720703,-0.61260986,-0.6914673,9.234375,-3.359375,19.8125
392,392,1727292660152,0.5402832,-0.4746704,-0.628479,6.4375,-3.234375,26.734375
393,393,1727292660199,0.40942383,-0.49468994,-0.5557251,9.109375,-2.953125,22.65625
394,394,1727292660227,0.42041016,-0.66729736,-0.5523071,2.203125,-7.34375,17.625
395,395,1727292660272,0.5827637,-0.61798096,-0.5745239,-10.375,-1.875,20.0
396,396,1727292660302,0.5234375,-0.46466064,-0.6021118,-10.015625,-5.953125,10.125
397,397,1727292660363,0.4650879,-0.5112915,-0.6211548,-9.40625,-0.421875,10.625
398,398,1727292660391,0.51708984,-0.5418091,-0.63238525,-10.890625,5.140625,11.296875
399,399,1727292660422,0.54125977,-0.4265747,-0.69366455,-13.34375,12.90625,15.53125
400,400,1727292660467,0.49243164,-0.5274048,-0.7163696,-27.78125,22.203125,5.265625
401,401,1727292660496,0.6152344,-0.6343384,-0.5640259,-25.453125,26.828125,2.53125
402,402,1727292660542,0.7512207,-0.600647,-0.489563,-24.015625,14.21875,-7.25
403,403,1727292660588,0.57714844,-0.6577759,-0.66973877,-15.40625,1.765625,-33.375
404,404,1727292660632,0.5168457,-0.61431885,-0.7427368,-19.03125,-4.53125,-28.015625
405,405,1727292660662,0.46313477,-0.82232666,-0.6448364,-34.078125,-1.703125,-31.953125
406,406,1727292660722,0.42114258,-0.90826416,-0.58306885,-25.90625,0.515625,-27.46875
407,407,1727292660737,0.41674805,-0.8682251,-0.64678955,-37.84375,-3.6875,-31.234375
408,408,1727292660784,0.5336914,-0.9138794,-0.48492432,-37.46875,-4.5625,-31.046875
409,409,1727292660828,0.39404297,-0.93463135,-0.47418213,-28.84375,-0.65625,-19.953125
410,410,1727292660858,0.29077148,-0.96588135,-0.42218018,-22.96875,3.40625,-13.875
411,411,1727292660903,0.23754883,-0.99786377,-0.3196411,-16.5,4.09375,-11.25
412,412,1727292660932,0.26538086,-0.9351196,-0.29962158,-17.1875,1.4375,-11.359375
413,413,1727292660977,0.24511719,-0.909729,-0.30914307,-12.671875,1.953125,-13.703125
414,414,1727292661037,0.22094727,-0.9541626,-0.31671143,-10.703125,2.8125,-2.484375
415,415,1727292661052,0.19067383,-0.9351196,-0.3665161,-11.296875,8.640625,9.359375
416,416,1727292661098,0.22583008,-0.90045166,-0.3250122,-5.3125,13.203125,11.578125
417,417,1727292661142,0.23730469,-0.97857666,-0.33184814,3.25,21.0,14.828125
418,418,1727292661172,0.2775879,-0.99176025,-0.22442627,0.328125,17.921875,10.953125
419,419,1727292661218,0.20947266,-0.89312744,-0.25494385,-0.40625,10.0,10.4375
420,420,1727292661262,0.25512695,-0.8772583,-0.22296143,5.0,6.59375,7.5625
421,421,1727292661292,0.25708008,-0.96710205,-0.17266846,10.34375,1.96875,6.8125
422,422,1727292661337,0.3791504,-0.94854736,-0.26226807,9.9375,-4.59375,7.03125
423,423,1727292661367,0.3305664,-0.942688,-0.22540283,10.59375,-5.28125,7.0625
424,424,1727292661413,0.29003906,-1.0005493,-0.27056885,8.09375,-7.046875,4.5
425,425,1727292661457,0.32983398,-0.9277954,-0.37774658,11.515625,-7.296875,5.0
426,426,1727292661487,0.3815918,-1.0015259,-0.44854736,8.65625,-7.109375,3.578125
427,427,1727292661533,0.46728516,-1.0567017,-0.5166626,17.796875,-12.703125,0.5
428,428,1727292661561,0.4482422,-0.93414307,-0.4968872,20.765625,-16.21875,0.515625
429,429,1727292661607,0.38867188,-0.9541626,-0.58599854,33.546875,-15.265625,9.765625
430,430,1727292661653,0.4555664,-0.940979,-0.6296997,39.9375,-4.96875,14.1875
431,431,1727292661681,0.43774414,-0.85113525,-0.66778564,25.234375,-1.40625,21.671875
432,432,1727292661726,0.55493164,-1.0090942,-0.64385986,23.140625,-6.5625,19.265625
433,433,1727292661803,0.6291504,-1.0686646,-0.6878052,10.578125,-5.53125,13.578125
434,434,1727292661808,0.5942383,-0.8479614,-0.56451416,4.34375,-7.71875,10.6875
435,435,1727292661846,0.72265625,-0.72442627,-0.5388794,-3.125,-7.921875,9.046875
436,436,1727292661878,0.6130371,-0.5562134,-0.45489502,-4.96875,-14.390625,6.4375
437,437,1727292661922,0.56518555,-0.7637329,-0.49298096,10.453125,-8.328125,1.65625
438,438,1727292661968,0.59228516,-0.79937744,-0.5977173,-1.53125,-3.46875,-4.609375
439,439,1727292661997,0.5449219,-0.74884033,-0.56988525,1.46875,7.796875,2.171875
440,440,1727292662043,0.4309082,-0.65631104,-0.46832275,-1.703125,10.6875,1.09375
441,441,1727292662104,0.41357422,-0.7781372,-0.41290283,-12.53125,18.6875,3.71875
442,442,1727292662117,0.3491211,-0.70269775,-0.36187744,-24.65625,23.78125,2.4375
443,443,1727292662162,0.19555664,-0.5835571,-0.32305908,-30.953125,24.734375,0.015625
444,444,1727292662192,0.16992188,-0.4763794,-0.30255127,-41.078125,28.703125,-6.890625
445,445,1727292662238,0.107910156,-0.4319458,-0.3027954,-44.453125,33.328125,-13.125
446,446,1727292662282,-0.037841797,-0.44537354,-0.3821411,-45.890625,39.6875,-20.453125
447,447,1727292662327,-0.036621094,-0.6482544,-0.4824829,-42.359375,46.4375,-22.171875
448,448,1727292662357,0.0949707,-0.927063,-0.6001587,-38.71875,53.921875,-26.15625
449,449,1727292662402,0.13232422,-1.0691528,-0.60894775,-38.421875,47.890625,-18.296875
450,450,1727292662431,0.04638672,-0.9221802,-0.51226807,-41.234375,46.890625,-2.703125
451,451,1727292662478,0.0949707,-0.7835083,-0.3809204,-39.484375,44.90625,-3.734375
452,452,1727292662506,0.0925293,-0.7341919,-0.31036377,-35.71875,41.140625,-5.171875
453,453,1727292662552,0.22827148,-0.75372314,-0.31524658,-26.65625,33.375,-0.796875
454,454,1727292662597,0.20385742,-0.76934814,-0.2727661,-21.109375,20.046875,1.75
455,455,1727292662643,0.14111328,-0.6565552,-0.08868408,-15.46875,24.265625,3.9375
456,456,1727292662672,0.15307617,-0.81622314,-0.08258057,-8.5625,26.234375,3.046875
457,457,1727292662732,0.11376953,-1.2549438,-0.05987549,-9.890625,32.015625,-1.890625
458,458,1727292662748,0.036132812,-1.4834595,-0.03375244,-14.65625,45.734375,1.8125
459,459,1727292662794,0.025146484,-1.3862915,-0.07745361,-15.359375,60.265625,16.796875
460,460,1727292662822,-0.022949219,-1.1157837,-0.01763916,-19.625,65.578125,13.109375
461,461,1727292662867,-0.02319336,-0.86724854,-0.08843994,-19.15625,77.453125,18.5625
462,462,1727292662928,-0.068603516,-0.5869751,-0.16534424,-16.265625,86.671875,17.453125
463,463,1727292662942,-0.103515625,-0.458313,-0.1819458,-13.40625,98.109375,12.703125
464,464,1727292662989,-0.12402344,-0.40997314,-0.21002197,-14.28125,116.546875,7.5625
465,465,1727292663033,-0.13183594,-0.54693604,-0.29693604,-10.046875,124.125,0.484375
466,466,1727292663062,-0.04296875,-1.097229,-0.6333618,2.640625,132.01562,-15.59375
467,467,1727292663108,0.4025879,-1.5996704,-0.6860962,-1.796875,111.671875,-9.46875
468,468,1727292663137,0.03857422,-1.4702759,-0.48443604,5.515625,90.875,32.3125
469,469,1727292663182,-0.2434082,-1.4692993,-0.505188,-6.828125,63.421875,11.765625
470,470,1727292663227,-0.27441406,-1.392395,-0.14898682,-15.015625,82.734375,-9.78125
471,471,1727292663257,-0.037353516,-1.0847778,-0.315979,-23.5,89.375,8.546875
472,472,1727292663303,-0.118896484,-0.6819458,-0.26715088,-25.59375,68.59375,-0.953125
473,473,1727292663362,0.11743164,-0.5083618,-0.19610596,-24.6875,61.296875,-2.53125
474,474,1727292663377,0.123535156,-0.29058838,-0.19561768,-19.296875,49.625,8.828125
475,475,1727292663422,0.13110352,-0.120666504,-0.14263916,-10.609375,42.90625,17.9375
476,476,1727292663452,0.19799805,-0.16412354,-0.2300415,21.28125,29.578125,22.734375
477,477,1727292663497,-0.017333984,-1.260315,0.1539917,43.171875,39.9375,14.734375
478,478,1727292663542,-0.022949219,-2.0,0.21844482,10.21875,67.40625,2.796875
479,479,1727292663571,0.39697266,-2.0,0.007751465,-8.296875,69.421875,25.609375
480,480,1727292663617,0.1821289,-1.6282349,-0.018127441,-2.140625,64.71875,18.5625
481,481,1727292663677,-0.0061035156,-1.0271606,-0.023254395,-9.921875,78.28125,21.703125
482,482,1727292663692,0.018554688,-0.33380127,-0.1638794,-13.421875,86.296875,26.078125
483,483,1727292663752,-0.068603516,0.18157959,-0.2588501,-9.515625,79.078125,27.75
484,484,1727292663767,-0.26293945,0.19989014,-0.25738525,-2.25,85.125,8.015625
485,485,1727292663813,-0.091796875,-0.25543213,-0.25787354,1.171875,90.84375,-17.6875
486,486,1727292663859,-0.08496094,-1.0144653,-0.4336548,18.296875,95.796875,-32.75
487,487,1727292663887,0.15258789,-2.0,-0.46343994,13.59375,79.171875,-27.359375
488,488,1727292663932,0.23852539,-2.0,-0.2930298,0.21875,59.65625,32.859375
489,489,1727292663977,-0.48242188,-1.99469,-0.24029541,-12.015625,56.0,19.4375
490,490,1727292664010,-0.13208008,-1.4390259,-0.36212158,-19.6875,94.0,12.515625
491,491,1727292664053,-0.033203125,-0.8726196,-0.39312744,-18.328125,79.53125,12.15625
492,492,1727292664097,0.11425781,-0.4595337,-0.270813,-27.71875,66.296875,14.0625
493,493,1727292664126,0.13623047,0.12738037,-0.13140869,-19.90625,58.953125,16.28125
494,494,1727292664173,0.06567383,0.35369873,-0.04498291,-3.796875,45.375,16.46875
495,495,1727292664202,0.020019531,0.008728027,-0.09307861,0.265625,46.921875,14.28125
496,496,1727292664247,0.13183594,-0.35894775,-0.109680176,19.1875,38.796875,12.578125
497,497,1727292664291,-0.31323242,-1.729065,-0.284729,38.703125,55.953125,-5.71875
498,498,1727292664337,0.4350586,-2.0,-0.35723877,-2.828125,65.265625,-1.25
499,499,1727292664366,0.8190918,-2.0,-0.14996338,-10.140625,58.203125,27.078125
500,500,1727292664412,0.13769531,-1.8079224,-0.16314697,-6.25,35.078125,25.890625
501,501,1727292664441,0.09741211,-1.149231,-0.06719971,-13.703125,51.53125,23.984375
502,502,1727292664487,0.07446289,-0.42926025,-0.057922363,-29.125,59.34375,30.1875
503,503,1727292664518,0.006591797,0.16326904,-0.24005127,-31.671875,49.140625,25.875
504,504,1727292664563,0.013183594,0.45770264,-0.14971924,-10.609375,39.90625,5.640625
505,505,1727292664606,-0.12060547,-0.059143066,0.029968262,-4.15625,47.796875,-7.625
506,506,1727292664651,-0.13500977,-0.22613525,-0.013244629,-13.03125,56.8125,-5.109375
507,507,1727292664682,-0.03149414,-0.28692627,-0.19073486,-4.71875,56.078125,-9.765625
508,508,1727292664727,0.13574219,-1.3501587,-0.42999268,37.828125,49.6875,-31.921875
509,509,1727292664757,0.5029297,-2.0,-0.26617432,9.90625,40.3125,4.53125
510,510,1727292664804,-0.1459961,-2.0,-0.18048096,-19.25,69.15625,42.8125
511,511,1727292664831,0.12915039,-2.0,-0.1975708,-19.859375,77.40625,18.390625
512,512,1727292664877,0.1459961,-1.0767212,-0.38653564,-19.21875,71.140625,22.546875
513,513,1727292664922,0.068847656,-0.32354736,-0.25567627,-35.875,52.65625,19.453125
514,514,1727292664952,0.1027832,0.4257202,-0.08331299,-13.4375,39.28125,13.328125
515,515,1727292664997,-0.14453125,0.39300537,-0.027160645,-4.71875,28.328125,-2.21875
516,516,1727292665074,-0.2006836,-0.10430908,-0.120666504,-0.140625,50.78125,-7.484375
517,517,1727292665079,0.0068359375,-0.016906738,-0.07672119,5.9375,53.421875,-7.703125
518,518,1727292665120,0.05493164,-0.42315674,-0.34429932,20.546875,22.921875,-12.84375
519,519,1727292665147,0.020996094,-1.9800415,-0.57769775,34.1875,39.609375,-39.578125
520,520,1727292665191,0.45385742,-2.0,-0.19830322,2.125,-22.125,37.3125
521,521,1727292665252,-0.7307129,-2.0,-0.43145752,-12.6875,5.53125,17.15625
522,522,1727292665267,-0.2993164,-2.0,-0.09649658,-6.390625,34.28125,-22.46875
523,523,1727292665311,0.026367188,-1.4446411,-0.34918213,-13.71875,24.609375,-2.484375
524,524,1727292665357,-0.09082031,-0.70440674,-0.2498169,-18.828125,2.5,-2.125
525,525,1727292665387,0.122802734,-0.27520752,-0.1260376,-18.65625,1.28125,2.21875
526,526,1727292665432,0.11376953,0.11102295,-0.08453369,-18.78125,-5.890625,8.140625
527,527,1727292665492,0.15307617,0.22528076,-0.010314941,-11.09375,-11.296875,4.875
528,528,1727292665507,0.12548828,-0.07623291,-0.018127441,-8.71875,-17.671875,1.796875
529,529,1727292665551,0.088378906,-0.25494385,-0.13848877,7.265625,-21.046875,-0.515625
530,530,1727292665582,0.0063476562,-1.2564087,-0.008361816,37.828125,8.21875,-10.0625
531,531,1727292665628,0.48901367,-2.0,0.20062256,12.859375,2.46875,5.984375
532,532,1727292665672,0.42993164,-2.0,0.08685303,-7.546875,4.53125,31.6875
533,533,1727292665701,0.092285156,-1.8748169,0.054138184,-0.84375,-9.296875,3.546875
534,534,1727292665763,0.47314453,-1.6726685,0.17327881,-3.171875,8.59375,10.625
535,535,1727292665777,0.3334961,-1.0945435,0.08782959,-9.21875,-0.046875,18.765625
536,536,1727292665822,0.17993164,-0.5708618,0.03338623,-11.453125,-5.875,13.625
537,537,1727292665868,0.06665039,-0.2432251,-0.06768799,-15.859375,-3.9375,10.375
538,538,1727292665897,0.028564453,-0.02545166,-0.04156494,-14.28125,3.828125,-1.671875
539,539,1727292665943,-0.032470703,-0.101867676,0.012634277,-12.71875,11.75,-13.546875
540,540,1727292665987,0.018798828,-0.25958252,-0.09918213,-3.828125,6.578125,-18.6875
541,541,1727292666017,0.07421875,-0.80841064,-0.1975708,23.40625,8.90625,-31.0625
542,542,1727292666062,0.32177734,-2.0,-0.6655884,37.125,-3.46875,-25.453125
543,543,1727292666092,-0.040039062,-1.8865356,-0.19342041,10.1875,-48.28125,23.515625
544,544,1727292666139,-0.9165039,-1.5425415,-0.26837158,13.953125,-37.046875,-13.0
545,545,1727292666196,-0.27563477,-1.5300903,-0.27593994,15.390625,-6.5,-36.0625
546,546,1727292666211,0.25146484,-1.1226196,-0.38604736,8.234375,-21.359375,1.296875
547,547,1727292666258,-0.110839844,-0.7329712,-0.2678833,8.5,-40.75,6.34375
548,548,1727292666302,-0.1496582,-0.5720825,-0.1651001,7.796875,-32.515625,7.296875
549,549,1727292666332,0.13378906,-0.38043213,-0.13092041,0.125,-27.890625,6.03125
550,550,1727292666378,0.3918457,-0.28155518,-0.22540283,-0.796875,-40.953125,15.140625
551,551,1727292666406,0.34204102,-0.06427002,-0.34161377,9.359375,-68.421875,21.3125
552,552,1727292666452,0.34375,-0.46417236,-0.047180176,35.0625,-85.6875,1.125
553,553,1727292666500,-0.4375,-1.9778442,-0.27349854,18.484375,-58.796875,-34.328125
554,554,1727292666527,0.98706055,-2.0,-0.07550049,8.796875,-12.859375,-22.140625
555,555,1727292666572,0.25732422,-1.9226685,-0.16070557,-22.8125,-84.71875,32.46875
556,556,1727292666618,-0.27734375,-1.2288208,0.14202881,1.640625,-44.84375,-26.296875
557,557,1727292666646,0.6538086,-1.2993774,0.07684326,-11.890625,-32.265625,-21.9375
558,558,1727292666693,0.4453125,-0.7346802,-0.014221191,-22.390625,-54.40625,2.5
559,559,1727292666721,0.2956543,-0.2769165,-0.065979004,-15.625,-63.5625,-1.640625
560,560,1727292666767,0.19042969,-0.302063,0.034362793,-7.734375,-69.21875,-9.765625
561,561,1727292666813,0.13012695,-0.39996338,0.055358887,-4.3125,-71.15625,-16.828125
562,562,1727292666841,0.10546875,-0.4446411,0.038269043,-1.859375,-66.609375,-17.296875
563,563,1727292666887,0.08642578,-0.60723877,-0.17779541,8.546875,-64.125,-19.875
564,564,1727292666932,0.14916992,-0.8130493,-0.38970947,11.265625,-69.5625,-16.984375
565,565,1727292666962,0.047851562,-1.3147583,-0.53131104,27.296875,-80.0625,-1.40625
566,566,1727292667008,-0.42822266,-1.930481,-0.24346924,24.515625,-84.171875,-8.125
567,567,1727292667037,-0.27124023,-1.9028931,-0.081848145,3.84375,-64.3125,-30.828125
568,568,1727292667082,-0.03515625,-1.6785278,-0.21905518,-3.984375,-57.703125,-13.546875
569,569,1727292667127,0.10571289,-1.1282349,-0.29034424,0.0625,-73.75,-11.78125
570,570,1727292667156,0.040283203,-0.9138794,-0.24053955,5.84375,-85.0,-5.421875
571,571,1727292667202,0.16235352,-0.6321411,-0.21099854,1.046875,-98.0,3.546875
572,572,1727292667248,0.31347656,-0.33233643,-0.33013916,2.765625,-108.734375,20.828125
573,573,1727292667276,0.24145508,-0.11553955,-0.46246338,11.015625,-124.109375,26.09375
574,574,1727292667322,-0.04248047,-0.20074463,-0.3731079,20.671875,-130.09375,16.671875
575,575,1727292667367,-0.036376953,-0.6555786,-0.3579712,29.796875,-122.640625,9.53125
576,576,1727292667397,-0.026367188,-1.4412231,0.050231934,30.5625,-101.75,-0.765625
577,577,1727292667442,-0.25683594,-1.5593872,-0.023254395,25.59375,-71.078125,-14.25
578,578,1727292667472,0.4104004,-1.767395,0.074645996,14.125,-55.65625,-10.859375
579,579,1727292667519,0.51660156,-1.7293091,-0.034729004,12.984375,-75.78125,-4.296875
580,580,1727292667562,0.20751953,-1.3391724,0.0368042,10.65625,-75.9375,-13.5625
581,581,1727292667592,0.13378906,-0.97613525,-0.11846924,8.9375,-73.953125,-15.53125
582,582,1727292667637,0.06958008,-0.73028564,-0.04498291,8.6875,-66.25,-17.203125
583,583,1727292667681,0.055908203,-0.6043091,-0.028381348,4.953125,-61.546875,-15.28125
584,584,1727292667727,0.0041503906,-0.41412354,-0.017150879,3.296875,-61.75,-17.796875
585,585,1727292667757,0.014160156,-0.4024048,-0.016418457,6.984375,-50.9375,-21.609375
586,586,1727292667787,0.24682617,-0.522522,0.018737793,6.265625,-48.390625,-15.453125
587,587,1727292667832,0.107910156,-0.6836548,-0.11236572,3.875,-54.765625,-6.3125
588,588,1727292667878,0.13232422,-0.94122314,-0.34283447,-8.921875,-63.15625,-1.828125
589,589,1727292667907,0.2565918,-1.3203735,-0.6001587,20.609375,-69.421875,8.890625
590,590,1727292667952,-0.56274414,-1.8460083,-0.41168213,20.65625,-85.5625,-6.234375
591,591,1727292667997,-0.76342773,-1.7197876,-0.21490479,9.484375,-36.953125,-32.3125
592,592,1727292668044,-0.020996094,-1.6890259,-0.28961182,-13.125,-36.421875,-23.28125
593,593,1727292668072,0.056884766,-0.9924927,-0.2600708,-9.5625,-56.671875,-19.59375
594,594,1727292668102,0.041259766,-0.8882446,-0.16461182,-5.171875,-61.765625,-4.171875
595,595,1727292668147,-0.015380859,-0.58673096,-0.15509033,-11.640625,-69.984375,-2.515625
596,596,1727292668192,-0.023925781,-0.35430908,-0.25665283,-15.140625,-73.390625,-2.15625
597,597,1727292668221,-0.08276367,-0.3340454,-0.2901001,-7.703125,-74.171875,-3.625
598,598,1727292668267,-0.12207031,-0.6343384,-0.09527588,1.890625,-59.828125,-7.015625
599,599,1727292668346,-0.17041016,-1.0564575,-0.002746582,7.8125,-48.015625,-5.109375
600,600,1727292668351,-0.18066406,-1.5215454,0.08514404,4.78125,-29.546875,-6.171875
601,601,1727292668389,0.007080078,-1.440979,0.121276855,-7.609375,-9.359375,4.453125
602,602,1727292668419,-0.018310547,-1.3528442,0.17913818,-4.84375,-3.40625,13.671875
603,603,1727292668477,-0.119384766,-1.4163208,0.3451538,-6.34375,3.140625,8.5
604,604,1727292668506,0.041992188,-1.2627563,0.26434326,-12.234375,16.625,14.1875
605,605,1727292668537,0.083496094,-0.9102173,0.21356201,-11.28125,24.359375,15.15625
606,606,1727292668583,0.10498047,-0.68096924,0.1593628,-6.375,25.625,12.5625
607,607,1727292668627,-0.03125,-0.61383057,0.16204834,0.921875,30.34375,13.75
608,608,1727292668656,-0.07324219,-0.54473877,0.0758667,2.609375,42.96875,9.75
609,609,1727292668703,-0.047607422,-0.4517212,0.018737793,5.59375,59.015625,9.03125
610,610,1727292668733,-0.0107421875,-0.4981079,-0.14483643,16.171875,68.34375,10.78125
611,611,1727292668797,0.23510742,-0.7515259,-0.30718994,32.046875,68.96875,9.140625
612,612,1727292668824,0.5410156,-1.0623169,-0.31524658,38.25,62.953125,20.921875
613,613,1727292668851,0.114746094,-0.98516846,-0.37677002,31.75,54.234375,52.4375
614,614,1727292668898,0.20166016,-0.8814087,-0.48394775,27.625,52.015625,38.21875
615,615,1727292668942,0.27978516,-1.1672974,-0.36993408,35.265625,29.1875,17.890625
616,616,1727292668972,0.35180664,-1.3660278,-0.3711548,20.1875,21.71875,30.328125
617,617,1727292669017,-0.016113281,-0.9434204,-0.4944458,19.46875,16.9375,32.0
618,618,1727292669046,0.19897461,-0.8284302,-0.5027466,25.140625,12.875,23.125
619,619,1727292669093,0.24731445,-0.7896118,-0.5396118,25.515625,3.828125,29.453125
620,620,1727292669138,0.13891602,-0.89508057,-0.548645,25.53125,-10.0,14.015625
621,621,1727292669166,0.27319336,-0.90509033,-0.5874634,18.625,-10.796875,14.953125
622,622,1727292669212,0.20727539,-0.91729736,-0.7149048,24.046875,-20.8125,-1.46875
623,623,1727292669259,0.42285156,-0.8743286,-0.7944946,9.09375,-15.734375,-7.21875
624,624,1727292669333,0.8376465,-0.83966064,-0.6165161,11.609375,-31.96875,-6.421875
625,625,1727292669338,0.4958496,-0.9065552,-0.45147705,19.453125,-50.84375,-24.28125
626,626,1727292669361,0.49047852,-0.5757446,-0.40582275,20.90625,-41.078125,-34.546875
627,627,1727292669408,0.8605957,-0.6621704,-0.4036255,17.25,-46.84375,-26.6875
628,628,1727292669452,0.7219238,-1.0474243,-0.38482666,12.5,-53.78125,-32.90625
629,629,1727292669483,0.5407715,-1.0637817,-0.4590454,4.390625,-41.21875,-37.40625
630,630,1727292669527,0.66796875,-0.9241333,-0.44854736,2.078125,-40.1875,-35.25
631,631,1727292669572,0.43554688,-0.9529419,-0.37457275,-6.875,-43.328125,-37.15625
632,632,1727292669602,0.45385742,-0.7727661,-0.3086548,-13.59375,-37.78125,-40.484375
633,633,1727292669646,0.4074707,-0.7131958,-0.24053955,-11.515625,-39.484375,-37.96875
634,634,1727292669677,0.29638672,-0.6995239,-0.22296143,-18.796875,-34.8125,-40.5
635,635,1727292669722,0.3486328,-0.5274048,-0.21661377,-18.796875,-32.140625,-40.640625
636,636,1727292669768,0.3046875,-0.46783447,-0.28741455,-18.375,-28.8125,-38.5
637,637,1727292669797,0.41674805,-0.45587158,-0.3255005,-6.34375,-35.078125,-33.125
638,638,1727292669857,0.26513672,-0.67315674,-0.3345337,8.625,-42.21875,-22.5625
639,639,1727292669886,0.021240234,-1.0491333,-0.32305908,9.875,-61.296875,-17.21875
640,640,1727292669918,-0.20141602,-1.2642212,-0.19805908,13.59375,-55.453125,-36.046875
641,641,1727292669962,-0.17871094,-1.56427,-0.06817627,-0.78125,-52.515625,-38.5625
642,642,1727292669992,-0.0061035156,-1.4729614,-0.15826416,-14.34375,-52.796875,-30.046875
643,643,1727292670037,0.0026855469,-1.1265259,-0.23687744,-8.953125,-59.796875,-22.15625
644,644,1727292670081,-0.1850586,-0.9439087,-0.24420166,-2.09375,-63.5,-23.03125
645,645,1727292670112,-0.11328125,-0.7449341,-0.21832275,-2.71875,-66.765625,-17.96875
646,646,1727292670161,0.05908203,-0.54229736,-0.253479,-4.671875,-74.421875,-3.15625
647,647,1727292670202,0.15893555,-0.49346924,-0.3069458,13.96875,-74.0625,12.8125
648,648,1727292670231,0.35791016,-0.6477661,-0.3652954,25.765625,-78.515625,32.265625
649,649,1727292670277,0.29907227,-0.71881104,0.09197998,37.40625,-63.65625,58.34375
650,650,1727292670307,-0.19970703,-1.1038208,0.12957764,24.734375,-59.953125,46.46875
651,651,1727292670351,-0.34277344,-1.177063,-0.023498535,31.34375,-18.296875,26.28125
652,652,1727292670397,0.46875,-0.7085571,-0.2029419,37.4375,9.296875,27.625
653,653,1727292670426,0.51953125,-0.84991455,0.020202637,50.5,-0.28125,44.640625
654,654,1727292670471,0.14282227,-0.89312744,-0.010559082,44.4375,0.171875,50.65625
655,655,1727292670517,0.31420898,-0.6370239,-0.049865723,39.796875,15.8125,36.109375
656,656,1727292670547,0.48632812,-0.50738525,-0.19854736,27.5,13.03125,28.421875
657,657,1727292670607,0.4482422,-0.41241455,-0.40142822,24.59375,-1.75,35.265625
658,658,1727292670637,0.5722656,-0.40216064,-0.47857666,32.84375,-11.84375,29.796875
659,659,1727292670666,0.71191406,-0.5342407,-0.42486572,36.515625,-21.140625,17.9375
660,660,1727292670713,0.57592773,-1.0386353,-0.56329346,10.015625,-20.78125,18.765625
661,661,1727292670741,0.37158203,-0.7876587,-0.58477783,5.359375,-4.9375,1.015625
662,662,1727292670787,0.86865234,-0.54473877,-0.55670166,7.9375,-9.46875,17.578125
663,663,1727292670835,0.7062988,-0.44586182,-0.68463135,1.53125,-5.046875,3.453125
664,664,1727292670862,0.6010742,-0.6213989,-0.60723877,2.875,12.65625,24.734375
665,665,1727292670907,0.49169922,-0.4776001,-0.58721924,0.234375,12.859375,10.59375
666,666,1727292670952,0.7717285,-0.55352783,-0.47906494,2.578125,19.515625,12.296875
667,667,1727292670983,0.9362793,-0.5720825,-0.4336548,4.328125,13.96875,-8.171875
668,668,1727292671029,0.921875,-0.7280884,-0.53790283,4.5,10.84375,-11.484375
669,669,1727292671057,0.9343262,-0.6240845,-0.79693604,-13.609375,-2.484375,-19.796875
670,670,1727292671103,0.7001953,-0.51348877,-0.5808716,-25.6875,-3.265625,-24.78125
671,671,1727292671147,0.7038574,-0.6567993,-0.55963135,-34.484375,0.125,-26.046875
672,672,1727292671176,0.7468262,-0.6680298,-0.4776001,-37.953125,-0.546875,-27.84375
673,673,1727292671222,0.75927734,-0.69976807,-0.58477783,-37.3125,0.078125,-31.84375
674,674,1727292671268,0.66430664,-0.72784424,-0.48223877,-32.421875,-0.21875,-35.609375
675,675,1727292671297,0.5498047,-0.77593994,-0.47003174,-29.828125,-3.1875,-34.671875
676,676,1727292671342,0.5007324,-0.79034424,-0.43756104,-29.9375,-6.078125,-37.03125
677,677,1727292671371,0.48095703,-0.80670166,-0.38702393,-23.171875,-6.359375,-39.453125
678,678,1727292671417,0.5031738,-0.8731079,-0.30548096,-24.125,-8.625,-44.921875
679,679,1727292671462,0.40112305,-0.88848877,-0.28302002,-20.28125,-6.203125,-45.984375
680,680,1727292671491,0.38061523,-0.95562744,-0.20025635,-18.890625,-6.390625,-43.46875
681,681,1727292671537,0.23754883,-0.9644165,-0.2288208,-11.140625,-3.53125,-38.0
682,682,1727292671614,0.20581055,-1.0505981,-0.237854,-7.203125,-9.515625,-29.3125
683,683,1727292671618,0.18603516,-0.91900635,-0.22052002,-4.359375,-2.53125,-23.875
684,684,1727292671657,0.053710938,-0.928772,-0.17266846,17.53125,7.875,-11.40625
685,685,1727292671687,-0.045654297,-0.93634033,-0.19805908,2.875,16.4375,-7.359375
686,686,1727292671735,-0.17382812,-0.9951782,-0.14215088,-12.71875,20.546875,-24.171875
687,687,1727292671777,-0.13842773,-0.9685669,-0.15411377,-24.484375,18.6875,-24.90625
688,688,1727292671807,0.009033203,-0.91119385,-0.13800049,-21.484375,10.078125,-22.5625
689,689,1727292671852,-0.05517578,-1.0454712,-0.12286377,-25.453125,7.03125,-23.546875
690,690,1727292671898,-0.23364258,-1.1436157,0.018005371,-26.421875,17.59375,-19.640625
691,691,1727292671928,-0.27270508,-1.1870728,0.09954834,-29.96875,24.140625,-9.765625
692,692,1727292671972,-0.16040039,-1.1008911,0.09466553,-28.046875,21.8125,-5.21875
693,693,1727292672002,-0.21191406,-1.015686,0.15594482,-23.421875,22.46875,-7.015625
694,694,1727292672048,-0.21264648,-1.0020142,0.2189331,-22.578125,23.265625,-3.453125
695,695,1727292672093,-0.14550781,-0.94366455,0.17010498,-20.15625,17.25,2.15625
696,696,1727292672122,-0.06567383,-0.9014282,0.18109131,-11.9375,10.296875,1.890625
697,697,1727292672167,-0.09692383,-1.0093384,0.17108154,-6.671875,3.96875,1.421875
698,698,1727292672213,-0.11376953,-0.9927368,0.15960693,-3.03125,-3.734375,5.484375
699,699,1727292672241,-0.08886719,-0.99835205,0.18450928,5.265625,-5.765625,5.921875
700,700,1727292672287,-0.10131836,-1.0432739,0.16522217,5.875,-8.8125,7.453125
701,701,1727292672316,-0.043945312,-0.956604,0.1671753,10.75,-9.203125,10.515625
702,702,1727292672362,-0.0793457,-1.015686,0.16375732,15.625,-9.5625,9.359375
703,703,1727292672409,-0.099365234,-0.9866333,0.13421631,17.265625,-10.03125,13.921875
704,704,1727292672437,-0.107910156,-0.96417236,0.13885498,21.046875,-5.703125,18.5
705,705,1727292672485,-0.03515625,-1.0852661,0.12542725,14.578125,-1.421875,14.4375
706,706,1727292672527,0.09301758,-0.9829712,0.00091552734,13.359375,-3.875,12.375
707,707,1727292672556,0.13916016,-0.9981079,-0.022033691,17.59375,-6.9375,17.96875
708,708,1727292672603,-0.0146484375,-1.0264282,0.02923584,17.84375,-7.625,17.625
709,709,1727292672631,0.034423828,-0.98028564,0.018981934,15.390625,-6.796875,20.8125
710,710,1727292672677,0.107177734,-0.991272,-0.005432129,14.578125,-4.796875,21.171875
711,711,1727292672722,0.044677734,-0.97076416,-0.036193848,13.921875,-1.5625,17.921875
712,712,1727292672752,0.14331055,-0.98883057,-0.06890869,16.515625,3.71875,21.046875
713,713,1727292672797,0.17675781,-0.92755127,-0.12872314,18.703125,4.828125,21.453125
714,714,1727292672841,0.22143555,-0.98565674,-0.08013916,21.875,4.875,20.84375
715,715,1727292672873,0.3540039,-0.9812622,-0.10772705,16.921875,-1.46875,21.046875
716,716,1727292672917,0.30322266,-0.8501587,-0.27764893,21.40625,-8.765625,22.65625
717,717,1727292672946,0.3190918,-0.9624634,-0.17608643,28.609375,-8.328125,23.453125
718,718,1727292672991,0.25805664,-1.0098267,-0.28570557,26.34375,-3.59375,25.953125
719,719,1727292673037,0.36743164,-0.94488525,-0.33258057,29.078125,-6.921875,24.484375
720,720,1727292673067,0.43896484,-0.91656494,-0.44976807,25.328125,-7.875,20.859375
721,721,1727292673112,0.49023438,-0.99786377,-0.5042114,21.578125,-8.859375,12.8125
722,722,1727292673174,0.45629883,-0.94244385,-0.5264282,10.609375,-11.125,15.1875
723,723,1727292673202,0.5007324,-0.82110596,-0.45513916,18.03125,-8.578125,19.5
724,724,1727292673232,0.44458008,-0.8760376,-0.54522705,23.0,-2.40625,27.234375
725,725,1727292673262,0.48779297,-0.78253174,-0.520813,21.46875,2.421875,32.578125
726,726,1727292673308,0.5654297,-0.83477783,-0.59210205,15.265625,-0.703125,34.1875
727,727,1727292673352,0.57177734,-0.7485962,-0.66241455,5.421875,-5.609375,38.515625
728,728,1727292673382,0.70410156,-0.60821533,-0.6748657,5.59375,-18.96875,35.5
729,729,1727292673427,0.82006836,-0.58721924,-0.4590454,-7.328125,-20.5,32.65625
730,730,1727292673473,0.7307129,-0.49395752,-0.40948486,-22.59375,-33.671875,22.921875
731,731,1727292673503,0.7766113,-0.58184814,-0.34991455,-9.390625,-29.90625,19.140625
732,732,1727292673548,0.8190918,-0.59210205,-0.3057251,-14.40625,-22.921875,23.421875
733,733,1727292673577,0.8630371,-0.5906372,-0.30889893,-19.328125,-18.515625,27.578125
734,734,1727292673623,0.8029785,-0.4631958,-0.28277588,-28.53125,-13.75,25.25
735,735,1727292673668,0.75390625,-0.46514893,-0.18927002,-16.234375,-0.875,30.09375
736,736,1727292673698,0.8535156,-0.47149658,-0.1560669,-19.859375,3.34375,25.484375
737,737,1727292673741,0.923584,-0.4541626,-0.16607666,-29.140625,-2.265625,19.0
738,738,1727292673787,1.019043,-0.44317627,-0.11627197,-31.65625,0.9375,14.265625
739,739,1727292673817,0.8569336,-0.4133911,-0.1182251,-38.5625,3.515625,12.53125
740,740,1727292673863,0.87158203,-0.34869385,-0.11602783,-34.6875,13.96875,11.390625
741,741,1727292673908,0.74780273,-0.29278564,-0.03277588,-39.78125,8.9375,7.75
742,742,1727292673953,0.68530273,-0.19952393,-0.07696533,-38.90625,9.765625,-7.234375
743,743,1727292673982,0.814209,-0.1609497,-0.047424316,-33.671875,14.625,-14.59375
744,744,1727292674013,0.8029785,-0.2029419,-0.05255127,-28.15625,14.796875,-15.984375
745,745,1727292674057,0.8486328,-0.25006104,-0.023742676,-20.984375,14.0,-20.3125
746,746,1727292674102,0.88012695,-0.36798096,-0.036193848,-18.140625,13.6875,-20.34375
747,747,1727292674132,0.91503906,-0.32110596,-0.0335083,-13.28125,9.921875,-22.140625
748,748,1727292674177,0.9560547,-0.36505127,-0.06915283,-6.5,8.15625,-23.3125
749,749,1727292674222,0.9116211,-0.43951416,-0.051086426,-2.78125,2.375,-27.265625
750,750,1727292674251,0.8425293,-0.42462158,-0.042785645,-1.1875,0.53125,-30.34375
751,751,1727292674297,0.84277344,-0.44659424,-0.026916504,1.140625,-2.875,-36.234375
752,752,1727292674328,0.76831055,-0.5276489,0.003112793,2.734375,-0.640625,-40.53125
753,753,1727292674372,0.6657715,-0.5615845,0.004333496,5.53125,2.71875,-42.96875
754,754,1727292674448,0.6599121,-0.6538696,0.07293701,7.828125,6.015625,-47.546875
755,755,1727292674453,0.6105957,-0.6848755,0.013122559,2.734375,6.5625,-48.796875
756,756,1727292674492,0.5751953,-0.71588135,-0.065979004,4.75,8.3125,-50.953125
757,757,1727292674538,0.52856445,-0.85162354,-0.112854004,6.78125,3.609375,-55.375
758,758,1727292674568,0.40307617,-0.91729736,-0.17828369,-0.53125,0.5,-57.140625
759,759,1727292674612,0.31860352,-0.942688,-0.21881104,3.375,-3.25,-58.203125
760,760,1727292674642,0.2800293,-1.0090942,-0.20074463,5.84375,2.0,-56.46875
761,761,1727292674689,0.12011719,-0.8789673,-0.23468018,5.640625,2.625,-53.015625
762,762,1727292674733,-0.037353516,-0.8789673,-0.22320557,9.375,-1.75,-59.375
763,763,1727292674762,-0.1730957,-1.003479,-0.3015747,7.828125,-0.21875,-58.625
764,764,1727292674808,-0.059814453,-0.8882446,-0.33306885,7.484375,4.34375,-49.640625
765,765,1727292674885,-0.20214844,-0.8115845,-0.333313,11.265625,-1.828125,-44.46875
766,766,1727292674889,-0.23388672,-0.84552,-0.29522705,9.359375,-2.171875,-41.15625
767,767,1727292674928,-0.23730469,-0.784729,-0.39971924,9.125,-6.375,-30.796875
768,768,1727292674957,-0.36865234,-0.89312744,-0.3970337,6.03125,-5.34375,-29.265625
769,769,1727292675002,-0.35375977,-0.86065674,-0.37017822,6.4375,-8.046875,-23.953125
770,770,1727292675048,-0.2841797,-0.8569946,-0.4085083,5.125,-11.640625,-16.765625
771,771,1727292675077,-0.38671875,-0.9038696,-0.43218994,7.421875,-14.90625,-3.71875
772,772,1727292675122,-0.44604492,-0.9026489,-0.40753174,4.359375,-15.609375,-4.484375
773,773,1727292675167,-0.38208008,-0.89068604,-0.43023682,1.46875,-14.828125,-0.71875
774,774,1727292675212,-0.4326172,-0.8731079,-0.43658447,1.359375,-15.21875,5.484375
775,775,1727292675241,-0.3955078,-0.861145,-0.43463135,-3.71875,-15.484375,5.734375
776,776,1727292675272,-0.4013672,-0.91729736,-0.43023682,-9.484375,-10.9375,12.890625
777,777,1727292675318,-0.39086914,-0.88848877,-0.44610596,-13.671875,-6.71875,14.296875
778,778,1727292675362,-0.3088379,-0.8508911,-0.4360962,-15.640625,-7.828125,18.359375
779,779,1727292675391,-0.3095703,-0.91656494,-0.3977661,-19.328125,-8.421875,23.46875
780,780,1727292675437,-0.31225586,-0.91192627,-0.36968994,-21.59375,-9.53125,28.28125
781,781,1727292675482,-0.25463867,-0.87506104,-0.38970947,-24.15625,-9.609375,30.390625
782,782,1727292675512,-0.22363281,-0.9053345,-0.3838501,-24.515625,-13.859375,32.546875
783,783,1727292675556,-0.091552734,-0.96417236,-0.3320923,-22.328125,-16.9375,28.59375
784,784,1727292675602,0.16870117,-1.1167603,-0.19464111,-22.28125,-14.046875,33.5625
785,785,1727292675633,0.22729492,-1.1365356,-0.113098145,-33.3125,-22.6875,48.4375
786,786,1727292675677,0.022705078,-0.90875244,-0.06744385,-24.78125,-16.4375,46.90625
787,787,1727292675722,0.07495117,-0.89971924,0.07220459,-25.734375,-11.359375,26.671875
788,788,1727292675752,0.27905273,-0.92266846,0.018981934,-24.828125,-2.5625,22.859375
789,789,1727292675797,0.40795898,-0.9209595,0.11151123,-21.8125,-1.28125,35.0625
790,790,1727292675827,0.31201172,-1.0281372,0.1918335,-27.0,4.015625,31.25
791,791,1727292675872,0.3869629,-0.88726807,0.15911865,-32.171875,5.890625,29.90625
792,792,1727292675902,0.41577148,-0.80596924,0.20697021,-28.875,8.125,27.203125
793,793,1727292675947,0.4416504,-0.850647,0.22821045,-24.75,16.640625,27.71875
794,794,1727292675993,0.4802246,-0.72979736,0.23699951,-25.953125,17.34375,22.71875
795,795,1727292676022,0.45581055,-0.7127075,0.25994873,-19.828125,23.3125,19.4375
796,796,1727292676067,0.56689453,-0.6860962,0.23822021,-17.578125,20.046875,12.84375
797,797,1727292676112,0.62719727,-0.76226807,0.27386475,-12.984375,20.546875,11.15625
798,798,1727292676142,0.6062012,-0.78790283,0.2897339,-13.359375,19.796875,6.890625
799,799,1727292676187,0.6472168,-0.71417236,0.2567749,-11.546875,20.375,2.140625
800,800,1727292676217,0.66625977,-0.74542236,0.26971436,-8.078125,20.265625,-1.734375
801,801,1727292676262,0.66552734,-0.7866821,0.2592163,-6.6875,18.96875,-6.3125
802,802,1727292676307,0.64575195,-0.7776489,0.25579834,-5.65625,17.5,-8.453125
803,803,1727292676336,0.6003418,-0.7398071,0.21868896,-5.296875,19.0625,-12.890625
804,804,1727292676381,0.5732422,-0.74224854,0.22894287,-1.796875,17.875,-15.984375
