,timestamp,accel_x,accel_y,accel_z,gyro_x,gyro_y,gyro_z
0,1727180949886,0.14013672,-1.302063,0.049743652,11.921875,1.234375,17.65625
1,1727180949926,0.06689453,-1.06427,0.016540527,16.40625,12.78125,16.890625
2,1727180949966,0.11743164,-1.1643677,-0.17047119,10.09375,9.125,0.90625
3,1727180950006,0.34716797,-1.4629517,-0.06890869,14.71875,9.25,8.75
4,1727180950046,0.1730957,-1.4448853,-0.04156494,8.765625,7.265625,-1.171875
5,1727180950086,0.12915039,-1.4837036,-0.05279541,-5.71875,-5.671875,-16.03125
6,1727180950126,0.22558594,-1.4404907,-0.1272583,-5.484375,-1.609375,-13.40625
7,1727180950166,0.18652344,-1.3250122,-0.054260254,9.75,1.1875,-9.125
8,1727180950206,0.21020508,-1.1682739,0.109069824,1.8125,15.65625,-2.65625
9,1727180950246,0.004638672,-0.47955322,0.03704834,2.890625,32.75,12.953125
10,1727180950286,-0.11816406,0.30047607,-0.1951294,-13.4375,17.90625,6.78125
11,1727180950326,0.16186523,0.26019287,-0.15362549,2.703125,7.15625,-9.28125
12,1727180950366,0.11376953,-0.101379395,-0.24029541,-2.265625,-7.546875,-4.84375
13,1727180950406,0.049804688,-0.50079346,-0.12237549,7.609375,-20.546875,-4.71875
14,1727180950446,-0.19677734,-0.81988525,-0.30377197,11.78125,-3.90625,-7.171875
15,1727180950486,0.028808594,-0.5474243,-0.32965088,3.40625,-5.875,0.65625
16,1727180950526,0.11669922,-0.88604736,-0.17095947,7.625,5.078125,4.0625
17,1727180950566,0.17675781,-1.0789185,-0.3250122,8.84375,-22.953125,9.515625
18,1727180950606,-0.2705078,-0.36505127,0.11053467,40.046875,10.28125,40.203125
19,1727180950646,-0.04663086,-0.24713135,-0.27008057,14.71875,-10.15625,17.09375
20,1727180950686,0.28808594,-0.5442505,-0.17047119,23.890625,-11.828125,14.78125
21,1727180950726,0.47827148,-1.0762329,-0.41192627,19.5625,-33.203125,13.90625
22,1727180950766,0.25952148,-1.2398071,-0.30474854,15.390625,-33.5625,16.046875
23,1727180950806,0.3527832,-1.4292603,-0.097717285,-12.140625,-18.578125,22.34375
24,1727180950846,0.22851562,-1.1621704,-0.43292236,-12.546875,-11.484375,6.8125
25,1727180950886,0.42114258,-1.4334106,-0.13677979,12.140625,-1.328125,-6.5625
26,1727180950926,0.5163574,-2.0,-0.012023926,-38.953125,-6.359375,-27.375
27,1727180950966,0.16918945,-2.0,-0.121398926,-7.453125,22.109375,-20.703125
28,1727180951006,0.26611328,-1.2241821,0.16009521,10.09375,40.65625,18.84375
29,1727180951046,0.16064453,-0.3970337,-0.14019775,-8.75,16.84375,10.109375
30,1727180951086,0.053466797,-0.29888916,-0.16802979,-3.75,2.90625,-12.90625
31,1727180951126,0.14794922,-0.7918091,-0.10040283,-13.265625,-4.40625,-18.359375
32,1727180951166,0.1027832,-1.0083618,-0.1831665,-17.9375,-8.21875,-15.203125
33,1727180951206,0.2175293,-1.281311,-0.27178955,-14.0625,-14.015625,-22.40625
34,1727180951246,0.1328125,-1.4710083,-0.14312744,-2.953125,2.5625,-15.28125
35,1727180951286,0.0234375,-1.0574341,-0.13165283,-12.796875,11.59375,-3.8125
36,1727180951326,0.15917969,-0.7041626,-0.1453247,-6.96875,3.5625,-5.359375
37,1727180951366,0.15454102,-0.80426025,-0.12359619,-9.375,-6.546875,-8.140625
38,1727180951406,0.11816406,-1.0488892,-0.19439697,-19.078125,-3.890625,-10.5
39,1727180951446,0.17675781,-0.94903564,-0.09259033,-16.796875,1.5,-11.25
40,1727180951486,0.14794922,-0.93341064,-0.14581299,-21.390625,-7.953125,-11.9375
41,1727180951526,0.10888672,-0.99786377,-0.089416504,-24.546875,-8.953125,-13.796875
42,1727180951566,0.05029297,-1.0755005,-0.027404785,-31.578125,-3.734375,-18.203125
43,1727180951606,0.018798828,-1.0073853,0.018005371,-41.1875,-6.203125,-20.671875
44,1727180951646,0.00048828125,-0.9175415,0.06365967,-44.984375,-8.234375,-26.265625
45,1727180951686,-0.038330078,-0.88409424,0.16888428,-39.09375,-1.5,-25.671875
46,1727180951726,-0.15039062,-0.95098877,0.27508545,-33.375,1.515625,-22.640625
47,1727180951766,-0.13110352,-1.0562134,0.32318115,-32.40625,17.359375,-16.890625
48,1727180951806,-0.095214844,-0.9859009,0.23968506,-25.96875,0.25,-15.875
49,1727180951846,-0.0925293,-0.83917236,0.4179077,-27.15625,-0.953125,-11.46875
50,1727180951886,-0.21704102,-0.81085205,0.40618896,-27.859375,-8.484375,-8.609375
51,1727180951926,-0.31030273,-0.76153564,0.4833374,-14.859375,-8.40625,-11.015625
52,1727180951966,-0.2902832,-0.82281494,0.479187,-18.84375,-3.890625,-10.203125
53,1727180952006,-0.25683594,-0.7468872,0.5651245,-21.5625,3.875,-13.203125
54,1727180952046,-0.24926758,-0.77716064,0.465271,-22.71875,-0.453125,-11.125
55,1727180952086,-0.2133789,-0.7576294,0.8217163,-11.296875,8.921875,-5.796875
56,1727180952126,-0.62231445,-0.847229,0.8187866,-5.46875,-6.78125,7.9375
57,1727180952166,-0.34277344,-0.6514282,0.7616577,5.25,11.359375,7.234375
58,1727180952206,-0.2836914,-0.5484009,0.6400757,13.21875,6.875,10.1875
59,1727180952246,-0.17651367,-0.5862427,0.5932007,9.984375,2.203125,10.15625
60,1727180952286,-0.2541504,-0.8140259,0.5236206,4.4375,-5.21875,4.09375
61,1727180952326,-0.23071289,-0.9595337,0.571228,7.609375,-1.78125,5.296875
62,1727180952366,-0.19506836,-0.9968872,0.44476318,13.5625,-2.53125,7.625
63,1727180952406,-0.13549805,-0.90631104,0.44281006,22.546875,-1.171875,14.578125
64,1727180952446,-0.15063477,-0.8779907,0.3776245,26.71875,-4.75,19.515625
65,1727180952486,-0.091308594,-0.86553955,0.41131592,28.640625,-3.140625,18.375
66,1727180952526,-0.123291016,-0.88482666,0.3817749,24.5625,-6.203125,18.40625
67,1727180952566,-0.14550781,-0.8936157,0.43206787,21.109375,-9.046875,14.015625
68,1727180952606,-0.11743164,-0.93634033,0.3925171,14.84375,-11.265625,12.109375
69,1727180952646,-0.091308594,-0.8674927,0.40057373,24.78125,0.9375,14.234375
70,1727180952686,-0.22680664,-0.94195557,0.37200928,33.984375,12.265625,20.96875
71,1727180952726,-0.068115234,-0.93829346,0.3126831,42.640625,1.640625,18.953125
72,1727180952766,0.04248047,-0.8862915,0.28533936,59.625,6.9375,27.390625
73,1727180952806,-0.02758789,-0.96417236,0.11126709,58.75,3.546875,35.359375
74,1727180952846,0.18896484,-1.2056274,-0.08087158,43.15625,-19.546875,22.21875
75,1727180952886,0.29541016,-1.2427368,0.07928467,44.375,-6.09375,1.484375
76,1727180952926,0.099609375,-1.3308716,-0.33111572,31.3125,-18.53125,8.78125
77,1727180952966,0.296875,-1.2771606,-0.13360596,24.28125,-24.6875,-7.59375
78,1727180953006,0.16552734,-1.3899536,-0.40875244,2.328125,-25.015625,-23.625
79,1727180953046,0.4206543,-1.7036743,-0.41583252,10.828125,-20.96875,-35.78125
80,1727180953086,0.31420898,-2.0,-0.6565552,-1.640625,-35.390625,-34.875
81,1727180953126,0.39135742,-2.0,-0.52349854,-18.46875,-23.453125,-18.765625
82,1727180953166,0.4428711,-1.3855591,-0.59869385,-17.296875,-22.921875,-5.671875
83,1727180953206,0.3540039,-0.7571411,-0.3579712,-2.84375,-9.75,6.21875
84,1727180953246,0.064453125,0.029724121,0.23846436,-3.875,-18.53125,35.296875
85,1727180953286,-0.48486328,0.6930542,-0.24810791,-35.46875,-49.328125,0.96875
86,1727180953326,0.2607422,0.24066162,-0.10650635,-2.40625,-57.078125,-35.796875
87,1727180953366,0.18139648,-0.116760254,0.109558105,2.109375,-65.265625,-4.953125
88,1727180953406,0.021972656,-0.045715332,-0.17584229,-17.625,-84.53125,4.296875
89,1727180953446,-0.111816406,0.14056396,-0.055480957,-9.8125,-72.609375,-7.6875
90,1727180953486,-0.13354492,0.12762451,-0.101135254,-7.46875,-55.65625,-0.625
91,1727180953526,0.2734375,0.09466553,-0.20587158,11.140625,-60.953125,7.953125
92,1727180953566,-0.0061035156,-0.3789673,0.010192871,15.5,-99.125,3.59375
93,1727180953606,-0.4765625,-2.0,0.05731201,44.921875,-36.59375,-47.8125
94,1727180953646,0.40161133,-2.0,0.70062256,6.984375,-40.09375,11.015625
95,1727180953686,0.6838379,-2.0,-0.20025635,-31.203125,-59.171875,-6.0625
96,1727180953726,-0.47314453,-2.0,0.40472412,13.8125,-43.6875,23.546875
97,1727180953766,-0.38427734,-1.6482544,0.20672607,-11.25,-20.8125,-21.828125
98,1727180953806,0.35351562,-1.1780396,-0.18121338,-16.625,-13.734375,-27.328125
99,1727180953846,0.7036133,-0.68829346,0.0993042,-3.65625,-14.453125,26.390625
100,1727180953886,-0.16210938,0.08123779,-0.13848877,-19.6875,-33.1875,42.015625
101,1727180953926,-0.75024414,0.652771,-0.02911377,7.015625,-26.765625,-20.203125
102,1727180953966,0.17773438,-0.043518066,0.086364746,1.609375,-27.265625,-28.609375
103,1727180954006,0.19995117,-0.07647705,0.024841309,6.796875,-28.53125,8.0
104,1727180954046,0.06762695,0.22576904,-0.16168213,19.71875,-28.90625,12.4375
105,1727180954086,0.016845703,0.09710693,0.022155762,4.390625,-52.078125,5.15625
106,1727180954126,-0.053710938,-0.6079712,-0.62628174,29.484375,-94.875,-11.25
107,1727180954166,0.3671875,-2.0,-0.0071411133,-9.75,-121.296875,-160.84375
108,1727180954206,-0.23657227,-2.0,-0.72906494,-22.28125,-25.34375,19.359375
109,1727180954246,-0.828125,-2.0,-0.55010986,-24.453125,-70.78125,-1.765625
110,1727180954286,-0.15258789,-1.7730103,-0.34747314,-9.375,-11.640625,-23.09375
111,1727180954326,0.2084961,-0.7793579,0.014831543,-3.21875,-14.96875,21.421875
112,1727180954366,0.12695312,0.6256714,-0.14337158,-29.171875,-59.25,18.265625
113,1727180954406,0.0029296875,0.88983154,-0.28448486,6.1875,-58.515625,2.265625
114,1727180954446,0.023925781,-0.3477173,-0.15386963,23.0625,-71.875,-12.28125
115,1727180954486,0.07836914,-0.33477783,0.014831543,-4.296875,-79.1875,9.921875
116,1727180954526,0.018310547,0.039245605,-0.15093994,-15.25,-81.890625,8.328125
117,1727180954566,-0.047851562,0.2062378,-0.13092041,-3.859375,-82.65625,3.59375
118,1727180954606,0.045410156,0.0045776367,-0.050354004,-4.96875,-88.40625,0.890625
119,1727180954646,-0.12426758,-0.22735596,-0.4788208,-8.234375,-109.53125,-6.046875
120,1727180954686,-0.203125,-1.4856567,-0.16461182,52.5625,-78.765625,-39.484375
121,1727180954726,0.7043457,-2.0,-0.11480713,2.3125,-118.171875,-0.84375
122,1727180954766,0.044433594,-2.0,0.121276855,8.609375,-48.59375,-5.453125
123,1727180954806,-0.4790039,-2.0,-0.13018799,-17.453125,-76.046875,-24.65625
124,1727180954846,0.104003906,-1.3953247,0.23040771,-17.828125,-47.78125,15.1875
125,1727180954886,0.088134766,-0.54229736,-0.035705566,0.21875,-58.296875,1.859375
126,1727180954926,0.2368164,-0.48345947,-0.04937744,-9.625,-75.03125,0.90625
127,1727180954966,0.31933594,-0.39801025,0.002380371,-14.53125,-73.5,6.140625
128,1727180955006,-0.08325195,-0.2588501,-0.06036377,-30.359375,-76.921875,-0.5
129,1727180955046,-0.32080078,-0.5552368,-0.20977783,-38.359375,-93.296875,-22.65625
130,1727180955086,0.057617188,-1.7129517,-0.3670044,-7.984375,-92.703125,-35.5625
131,1727180955126,0.006591797,-1.7085571,-0.08477783,-38.609375,-99.890625,34.328125
132,1727180955166,-0.6875,-0.81915283,-0.0413208,-27.203125,-92.53125,9.546875
133,1727180955206,-0.30859375,-0.68927,0.12176514,-8.234375,-84.90625,-13.890625
134,1727180955246,0.046875,-1.0962524,-0.012268066,-2.0,-81.109375,20.375
135,1727180955286,-0.028808594,-0.69976807,-0.11260986,-8.234375,-91.984375,15.421875
136,1727180955326,-0.23657227,-0.8604126,-0.05303955,-4.6875,-102.578125,5.171875
137,1727180955366,-0.21362305,-1.1934204,-0.015930176,-3.390625,-99.1875,13.9375
138,1727180955406,-0.22680664,-1.0796509,-0.047180176,-5.703125,-89.875,21.796875
139,1727180955446,-0.16333008,-0.9002075,-0.08917236,-4.09375,-92.59375,18.953125
140,1727180955486,-0.13989258,-0.97052,-0.105041504,3.453125,-96.109375,20.078125
141,1727180955526,-0.13061523,-1.05719,-0.105529785,9.484375,-94.53125,20.828125
142,1727180955566,0.057373047,-1.0056763,0.016296387,16.28125,-83.640625,26.3125
143,1727180955606,0.07055664,-0.9475708,-0.03692627,26.4375,-83.234375,29.21875
144,1727180955646,-0.12646484,-0.87701416,0.041931152,23.90625,-72.46875,14.171875
145,1727180955686,-0.07910156,-1.147522,0.12738037,15.21875,-63.640625,-6.125
146,1727180955726,0.12548828,-1.2044067,0.11395264,-4.578125,-54.65625,-6.546875
147,1727180955766,0.16870117,-0.84820557,0.047302246,-4.03125,-54.390625,-3.265625
148,1727180955806,0.115722656,-0.7905884,0.10784912,4.984375,-62.03125,-1.890625
149,1727180955846,0.019042969,-0.9729614,0.093688965,10.21875,-63.296875,-1.90625
150,1727180955886,0.10131836,-1.0945435,0.16033936,5.015625,-59.203125,-9.84375
151,1727180955926,0.17675781,-1.107727,0.12860107,0.46875,-56.984375,-6.328125
152,1727180955966,0.16333008,-1.0039673,0.14129639,4.59375,-55.078125,1.828125
153,1727180956006,0.13012695,-1.0215454,0.13983154,6.9375,-57.4375,0.203125
154,1727180956046,0.06201172,-0.9529419,0.16937256,0.671875,-52.421875,-1.96875
155,1727180956086,0.028564453,-0.9866333,0.12249756,-1.234375,-50.3125,-4.25
156,1727180956126,0.05517578,-1.1174927,-0.00079345703,-5.765625,-54.1875,-7.03125
157,1727180956166,0.047607422,-1.0601196,-0.10992432,-4.3125,-45.890625,4.015625
158,1727180956206,-0.08227539,-0.8911743,-0.11871338,3.421875,-43.59375,2.46875
159,1727180956246,-0.19702148,-0.9143677,-0.1338501,1.9375,-40.125,-4.828125
160,1727180956286,-0.06274414,-0.9421997,0.0065307617,1.25,-43.390625,-5.578125
161,1727180956326,-0.078125,-0.98809814,0.035339355,3.90625,-39.890625,-3.515625
162,1727180956366,-0.23950195,-0.90093994,0.012390137,5.984375,-30.109375,-6.921875
163,1727180956406,-0.053955078,-0.84820557,-0.010070801,5.703125,-25.953125,-7.03125
164,1727180956446,0.045654297,-1.0444946,0.03338623,10.375,-33.640625,-3.09375
165,1727180956486,-0.0078125,-1.2144165,0.093688965,8.453125,-38.0625,-0.609375
166,1727180956526,-0.13916016,-1.0022583,0.11566162,3.609375,-28.359375,8.09375
167,1727180956566,-0.13330078,-0.8274536,0.06365967,8.328125,-20.640625,5.6875
168,1727180956606,-0.09057617,-0.9212036,0.10321045,5.390625,-25.390625,4.0
169,1727180956646,-0.1628418,-0.9373169,0.13421631,-4.953125,-28.59375,-1.09375
170,1727180956686,-0.20483398,-0.91241455,-0.10870361,-14.34375,-32.625,-9.125
171,1727180956726,0.04345703,-1.0845337,-0.11212158,-0.65625,-15.875,-11.3125
172,1727180956766,0.7314453,-1.0957642,-0.06768799,12.828125,-24.15625,7.671875
173,1727180956806,0.5292969,-1.2075806,0.27044678,3.3125,-34.921875,12.5
174,1727180956846,-0.20336914,-1.5618286,-0.12701416,1.796875,-46.1875,4.25
175,1727180956886,-0.009765625,-1.1997681,0.008239746,1.390625,-11.625,9.5
176,1727180956926,0.16601562,-0.8591919,0.06976318,3.234375,-9.5,0.015625
177,1727180956966,0.22973633,-0.8965454,0.10223389,12.984375,-18.46875,11.40625
178,1727180957006,0.08959961,-0.8357544,0.11151123,7.546875,-18.71875,13.390625
179,1727180957046,0.05517578,-0.723938,0.15325928,0.859375,-24.828125,-1.46875
180,1727180957086,0.13061523,-0.7061157,0.07489014,5.421875,-30.5625,-6.640625
181,1727180957126,0.1586914,-0.77545166,0.24359131,-1.25,-41.03125,-19.296875
182,1727180957166,-0.0793457,-0.8843384,0.20550537,-2.65625,-40.03125,-36.4375
183,1727180957206,-0.45703125,-0.58721924,-0.8167114,-10.296875,-32.328125,-28.765625
184,1727180957246,0.26416016,-0.76812744,-0.6777954,-7.984375,-92.625,-40.578125
185,1727180957286,0.6008301,-2.0,-0.20684814,10.1875,-35.53125,-18.984375
186,1727180957326,-0.7438965,-1.9622192,-0.24957275,-18.765625,-80.875,1.546875
187,1727180957366,0.23803711,-2.0,-0.4570923,23.890625,-45.21875,-36.46875
188,1727180957406,0.02758789,-2.0,-0.4060669,-7.703125,-74.296875,-15.65625
189,1727180957446,0.14526367,-0.881897,-0.6506958,1.5,-63.46875,10.328125
190,1727180957486,0.22192383,-0.15289307,-0.14361572,15.109375,-86.28125,8.5
191,1727180957526,0.030517578,0.309021,-0.2053833,-16.4375,-128.375,-3.578125
192,1727180957566,0.056884766,0.23968506,-0.2185669,-11.28125,-135.85938,8.375
193,1727180957606,-0.1105957,-0.049865723,-0.33477783,19.96875,-128.375,1.21875
194,1727180957646,-0.25830078,0.0028686523,-0.37750244,-11.375,-151.71875,-15.84375
195,1727180957686,-0.23461914,0.21551514,-0.22393799,-2.9375,-133.57812,-7.84375
196,1727180957726,-0.21728516,0.1786499,-0.31500244,-4.625,-118.4375,0.0625
197,1727180957766,-0.27416992,0.0836792,-0.17877197,22.796875,-106.671875,-2.21875
198,1727180957806,-0.16381836,-0.46124268,-0.27398682,12.328125,-121.421875,-28.25
199,1727180957846,0.47265625,-2.0,-0.43048096,76.65625,-127.84375,-115.890625
200,1727180957886,-0.32250977,-2.0,-0.39508057,6.875,-113.515625,53.46875
201,1727180957926,-1.3303223,-2.0,-0.2600708,-2.671875,-73.265625,20.90625
202,1727180957966,-0.55493164,-2.0,0.27581787,4.625,-52.203125,-18.859375
203,1727180958006,0.3359375,-1.4495239,0.1954956,-2.0625,-36.546875,-14.84375
204,1727180958046,0.16748047,-1.0740356,0.030700684,-5.234375,-33.078125,8.328125
205,1727180958086,-0.0024414062,-0.67510986,0.029968262,-0.109375,-39.875,10.0625
206,1727180958126,-0.32592773,-0.30059814,-0.08917236,-10.171875,-40.75,-7.359375
207,1727180958166,0.041503906,-0.41070557,0.025817871,-9.234375,-27.3125,-18.40625
208,1727180958206,0.16772461,-0.78082275,-0.008361816,-18.375,-37.4375,-17.765625
209,1727180958246,0.068359375,-1.0427856,-0.00079345703,-17.96875,-39.9375,-8.9375
210,1727180958286,0.029541016,-1.111145,0.08465576,-8.875,-23.34375,-4.9375
211,1727180958326,-0.14746094,-1.0032349,0.1083374,-12.546875,-12.484375,-9.71875
212,1727180958366,-0.19750977,-0.90411377,0.12005615,-12.265625,1.4375,-15.828125
213,1727180958406,-0.13452148,-0.9678345,0.08343506,-13.03125,11.40625,-20.65625
214,1727180958446,-0.05126953,-1.0073853,0.010437012,-10.15625,15.3125,-13.53125
215,1727180958486,-0.07910156,-0.9898071,0.02166748,-7.65625,23.421875,-9.375
216,1727180958526,-0.0546875,-1.0151978,0.028259277,-10.171875,14.015625,-5.109375
217,1727180958566,-0.001953125,-0.9390259,-0.0056762695,-2.578125,12.171875,6.078125
218,1727180958606,-0.16918945,-0.9451294,-0.0010375977,5.46875,9.90625,5.6875
219,1727180958646,-0.3557129,-1.0357056,0.020935059,8.75,17.296875,-0.234375
220,1727180958686,-0.24023438,-0.9612427,0.027526855,6.484375,28.984375,2.90625
221,1727180958726,-0.24584961,-0.88482666,0.011657715,6.015625,33.265625,1.53125
222,1727180958766,-0.25170898,-0.94415283,-0.0256958,2.96875,36.46875,-3.890625
223,1727180958806,-0.08105469,-1.02594,-0.043273926,-4.234375,29.109375,-2.109375
224,1727180958846,0.0014648438,-1.0874634,-0.015686035,-3.765625,21.078125,2.296875
225,1727180958886,0.05029297,-1.1438599,-0.061340332,-1.046875,17.796875,2.328125
226,1727180958926,-0.052978516,-1.1143188,-0.010803223,4.4375,23.25,5.484375
227,1727180958966,-0.09741211,-0.9595337,-0.08306885,-4.828125,20.265625,6.5625
228,1727180959006,0.004638672,-0.9011841,0.0446167,-4.34375,17.046875,3.96875
229,1727180959046,0.041992188,-1.0606079,0.116882324,-5.9375,16.78125,3.703125
230,1727180959086,0.017333984,-0.942688,0.046325684,-6.875,21.859375,11.34375
231,1727180959126,0.025878906,-0.8008423,0.0848999,3.984375,19.859375,11.03125
232,1727180959166,0.057373047,-0.79107666,0.11053467,13.96875,22.8125,10.21875
233,1727180959206,0.10961914,-0.9404907,0.090270996,14.3125,22.828125,9.5
234,1727180959246,0.09667969,-1.0237427,0.12738037,13.34375,9.09375,8.359375
235,1727180959286,0.02709961,-1.041565,0.15594482,14.796875,9.265625,11.296875
236,1727180959326,0.05029297,-0.99176025,0.1083374,12.390625,9.046875,10.875
237,1727180959366,-0.010986328,-0.9746704,0.10394287,15.140625,12.796875,10.34375
238,1727180959406,0.022460938,-0.9907837,0.1161499,10.28125,13.953125,9.28125
239,1727180959446,0.020263672,-0.9805298,0.14154053,13.15625,21.375,5.640625
240,1727180959486,0.06933594,-1.0523071,-0.20269775,3.71875,22.671875,0.890625
241,1727180959526,0.37524414,-1.2886353,-0.69976807,27.5,9.28125,1.015625
242,1727180959566,0.13623047,-1.0745239,-0.5269165,19.703125,27.421875,27.046875
243,1727180959606,-0.08544922,-0.8110962,-0.5628052,12.3125,3.53125,13.015625
244,1727180959646,0.25512695,-0.8381958,-0.30718994,36.03125,2.46875,0.828125
245,1727180959686,0.13208008,-1.1729126,-0.29083252,24.765625,-2.15625,22.8125
246,1727180959726,-0.040039062,-0.6865845,-0.3867798,8.671875,0.828125,19.890625
247,1727180959766,-0.046875,-0.3904419,-0.4175415,25.1875,3.625,5.78125
248,1727180959806,0.3737793,-0.68218994,-0.36260986,26.34375,-3.6875,12.484375
249,1727180959846,0.32104492,-0.9690552,-0.58380127,30.015625,-8.6875,13.015625
250,1727180959886,-0.114990234,-0.93536377,-0.26617432,41.453125,-19.734375,27.328125
251,1727180959926,0.07324219,-1.0083618,-0.20172119,43.78125,5.671875,24.90625
252,1727180959966,0.23120117,-0.74224854,-0.4932251,23.234375,13.0625,13.453125
253,1727180960006,0.034179688,-0.51812744,-0.33087158,43.859375,16.265625,19.75
254,1727180960046,0.0126953125,-0.6226196,-0.5918579,45.5,16.40625,12.90625
255,1727180960086,0.3527832,-0.6812134,-0.6255493,51.015625,14.875,8.78125
256,1727180960126,0.30859375,-0.64263916,-0.7678833,66.078125,11.78125,12.265625
257,1727180960166,0.34399414,-0.51568604,-0.78912354,53.09375,10.609375,25.171875
258,1727180960206,0.21044922,-0.44586182,-0.5574341,51.390625,11.71875,25.578125
259,1727180960246,0.14160156,-0.3171997,-0.43096924,35.53125,11.296875,24.5
260,1727180960286,0.26000977,0.10272217,-0.56207275,39.015625,3.484375,21.484375
261,1727180960326,0.40966797,0.16497803,-0.25689697,60.71875,10.453125,31.328125
262,1727180960366,0.45703125,0.21990967,-0.72247314,8.609375,-40.328125,17.4375
263,1727180960406,0.45922852,0.28607178,-1.0044556,-0.265625,-38.796875,11.203125
264,1727180960446,0.22973633,0.45892334,-0.63116455,-28.59375,9.4375,-4.5
265,1727180960486,0.7265625,-0.23712158,-1.9109497,5.453125,-13.5625,-13.4375
266,1727180960526,0.9172363,-0.0076293945,-2.0,4.3125,10.046875,1.109375
267,1727180960566,0.9433594,-0.09991455,-2.0,24.328125,12.640625,9.046875
268,1727180960606,0.69921875,-0.05621338,-1.6279907,18.046875,10.5625,7.140625
269,1727180960646,0.2824707,-0.11480713,-1.0042114,7.328125,15.75,4.234375
270,1727180960686,0.17602539,-0.2456665,-0.5928345,-10.265625,11.96875,-0.625
271,1727180960726,0.12792969,-0.10430908,-0.36358643,-13.390625,7.03125,-2.203125
272,1727180960766,0.1796875,-0.14239502,-0.36236572,-13.921875,4.71875,-4.171875
273,1727180960806,0.14355469,-0.17095947,-0.5293579,-14.625,9.546875,-4.75
274,1727180960846,0.2211914,-0.1885376,-0.78692627,-13.984375,9.1875,-5.15625
275,1727180960886,0.30322266,-0.23492432,-1.0796509,-15.109375,7.171875,-5.140625
276,1727180960926,0.35424805,-0.28570557,-1.3425903,-7.859375,7.34375,-3.25
277,1727180960966,0.39526367,-0.28204346,-1.4580688,-1.65625,6.203125,-0.6875
278,1727180961006,0.3154297,-0.25299072,-1.2163696,3.140625,6.96875,1.078125
279,1727180961046,0.25,-0.23614502,-1.1011353,-24.5625,6.125,-9.140625
280,1727180961086,0.25024414,-0.20245361,-1.2000122,-28.0,-12.796875,-17.0625
281,1727180961126,0.8312988,-0.0017700195,-1.3775024,22.3125,-53.46875,-28.640625
282,1727180961166,0.31445312,-0.42852783,-1.0203247,-10.84375,-33.421875,0.1875
283,1727180961206,0.35742188,-0.15338135,-1.1262817,0.859375,-9.8125,2.078125
284,1727180961246,0.34301758,0.117126465,-1.1199341,7.140625,-13.59375,3.453125
285,1727180961286,0.2475586,0.21160889,-0.83917236,21.984375,4.140625,-9.703125
286,1727180961326,0.5041504,-0.024963379,-1.0059204,14.78125,-1.953125,-9.015625
287,1727180961366,0.57470703,-0.28936768,-0.78082275,20.578125,18.5625,6.53125
288,1727180961406,0.21899414,-0.2991333,-0.8272095,17.609375,23.53125,5.390625
289,1727180961446,0.22924805,-0.41656494,-0.7727661,36.234375,32.328125,13.390625
290,1727180961486,-0.013671875,-0.43902588,-0.8779907,-13.546875,28.4375,12.65625
291,1727180961526,-0.037841797,-0.07159424,-0.6240845,-3.125,-2.046875,10.53125
292,1727180961566,-0.1352539,-0.69854736,-0.6734009,-17.265625,6.453125,6.703125
293,1727180961606,0.057617188,-0.4998169,-0.61676025,-20.28125,4.078125,4.609375
294,1727180961646,0.25878906,-0.20733643,-0.6970825,-17.15625,-5.265625,-5.453125
295,1727180961686,-0.078125,-0.0947876,-0.97198486,10.53125,-5.375,7.46875
296,1727180961726,0.022460938,-0.13677979,-1.0769653,18.046875,-8.953125,15.3125
297,1727180961766,0.14233398,-0.30670166,-0.7476196,35.8125,-14.203125,2.921875
298,1727180961806,0.43920898,-0.43829346,-0.99298096,19.796875,-18.75,-1.453125
299,1727180961846,0.06713867,-0.286438,-1.0708618,11.515625,-27.71875,0.140625
300,1727180961886,0.6845703,0.10003662,-1.2095337,-7.703125,-37.78125,-1.984375
301,1727180961926,0.45288086,-0.09576416,-0.8701782,9.84375,-28.109375,7.203125
302,1727180961966,0.45751953,-0.18927002,-0.87994385,-1.078125,-37.953125,-3.265625
303,1727180962006,0.47216797,-0.12017822,-0.76519775,-7.359375,-39.296875,-11.40625
304,1727180962046,0.5085449,0.00970459,-0.7300415,-15.171875,-35.96875,-13.640625
305,1727180962086,0.44995117,-0.026916504,-0.76226807,-8.328125,-16.34375,-23.46875
306,1727180962126,0.7282715,-0.19781494,-0.7839966,-15.515625,-14.984375,-32.859375
307,1727180962166,0.79589844,-0.4204712,-0.864563,-15.109375,-14.390625,-24.296875
308,1727180962206,0.8273926,-0.54156494,-0.89263916,-38.921875,-28.1875,-32.796875
309,1727180962246,0.77368164,-0.6560669,-0.7654419,-32.71875,-15.40625,-39.421875
310,1727180962286,0.5192871,-0.70391846,-0.70684814,-46.21875,-20.984375,-41.5
311,1727180962326,0.5654297,-0.6201782,-0.56915283,-49.015625,-25.171875,-54.5625
312,1727180962366,0.57666016,-0.6773071,-0.54107666,-45.1875,-40.3125,-55.015625
313,1727180962406,0.62939453,-0.7229614,-0.5671997,-31.90625,-31.953125,-52.015625
314,1727180962446,0.59155273,-0.74835205,-0.44122314,-14.1875,-15.0,-44.546875
315,1727180962486,0.36914062,-0.739563,-0.32525635,-14.046875,-13.171875,-39.140625
316,1727180962526,0.3166504,-0.65338135,-0.2925415,-21.0,-23.40625,-40.984375
317,1727180962566,0.28515625,-0.6148071,-0.27789307,-19.625,-26.640625,-39.109375
318,1727180962606,0.38256836,-0.71051025,-0.19317627,-18.015625,-27.578125,-33.078125
319,1727180962646,0.20361328,-0.7703247,-0.15142822,-14.09375,-29.796875,-29.171875
320,1727180962686,0.08886719,-0.84869385,-0.07891846,-15.046875,-12.578125,-29.6875
321,1727180962726,0.1796875,-0.9793091,-0.1296997,-15.90625,5.40625,-31.0625
322,1727180962766,0.22949219,-1.1155396,-0.1609497,-11.078125,6.9375,-25.375
323,1727180962806,0.27392578,-1.2876587,-0.3040161,-22.578125,-6.1875,-31.34375
324,1727180962846,0.39575195,-1.2468872,-0.40533447,-18.5625,-12.890625,-21.984375
325,1727180962886,-0.04638672,-1.0559692,0.012390137,-18.5625,23.421875,-3.828125
326,1727180962926,-0.12158203,-0.5413208,-0.27886963,-38.90625,15.609375,-30.28125
327,1727180962966,0.12451172,-0.5149536,-0.25543213,-35.375,-1.75,-40.0625
328,1727180963006,0.28759766,-1.0801392,-0.2871704,-25.203125,-1.1875,-34.28125
329,1727180963046,0.08105469,-1.2710571,-0.20855713,-17.59375,-25.609375,-5.484375
330,1727180963086,-0.19995117,-0.8345337,-0.043273926,-2.765625,-13.203125,-0.421875
331,1727180963126,-0.32641602,-0.87750244,-0.06378174,-1.625,-3.546875,-12.296875
332,1727180963166,0.01171875,-0.96221924,-0.10284424,0.78125,-4.875,-6.703125
333,1727180963206,0.044921875,-0.9187622,-0.050354004,2.859375,-15.203125,0.015625
334,1727180963246,-0.15283203,-0.9224243,-0.012512207,-1.484375,-24.3125,0.6875
335,1727180963286,-0.21459961,-0.89678955,0.045837402,-2.609375,-22.859375,-1.375
336,1727180963326,-0.2006836,-0.9151001,0.0289917,-11.109375,-18.1875,-3.1875
337,1727180963366,-0.2685547,-1.017395,-0.034240723,-5.796875,-17.53125,-2.484375
338,1727180963406,-0.18725586,-1.0977173,0.04168701,-11.34375,-14.140625,-5.953125
339,1727180963446,-0.07348633,-1.2380981,0.13543701,-12.015625,-23.875,-4.515625
340,1727180963486,-0.25732422,-1.3442993,-0.11114502,-8.34375,-37.640625,-9.0
341,1727180963526,-0.13574219,-0.9055786,0.016784668,-20.65625,7.640625,0.15625
342,1727180963566,0.057128906,-0.68829346,-0.11529541,-16.171875,-17.265625,3.578125
343,1727180963606,0.3708496,-0.8267212,0.12567139,12.734375,-20.203125,-2.1875
344,1727180963646,-0.02368164,-1.2532349,0.00579834,8.484375,-32.609375,0.765625
345,1727180963686,-0.20947266,-1.2896118,0.08465576,-0.5,-3.921875,9.765625
346,1727180963726,-0.009277344,-0.8833618,-0.043029785,-0.953125,6.3125,2.0625
347,1727180963766,0.037841797,-0.770813,0.010925293,5.40625,2.515625,3.453125
348,1727180963806,0.12573242,-0.8147583,0.09295654,8.15625,0.5,11.375
349,1727180963846,-0.15771484,-0.8779907,0.12322998,5.765625,0.8125,5.75
350,1727180963886,-0.20239258,-0.833313,0.07342529,-0.609375,11.28125,1.953125
351,1727180963926,-0.040039062,-0.8875122,0.105895996,7.328125,16.78125,-4.484375
352,1727180963966,-0.09301758,-1.071106,0.19866943,-3.40625,6.828125,-11.71875
353,1727180964006,-0.16723633,-1.2905884,0.1671753,-7.5625,13.671875,-21.40625
354,1727180964046,-0.18701172,-1.6033325,-0.051574707,-19.65625,7.6875,-35.859375
355,1727180964086,0.52124023,-1.5247192,-0.16534424,-20.484375,4.359375,-12.34375
356,1727180964126,0.20239258,-0.6309204,0.07098389,-9.734375,18.515625,33.96875
357,1727180964166,-0.08276367,-0.38653564,-0.22540283,-5.625,-21.65625,-6.765625
358,1727180964206,0.10864258,-1.1773071,-0.07086182,1.21875,-34.46875,-27.359375
359,1727180964246,0.25708008,-1.4441528,-0.027648926,-13.09375,-35.546875,14.6875
360,1727180964286,0.13867188,-0.51690674,-0.19610596,-8.140625,-54.015625,29.8125
361,1727180964326,-0.2626953,-0.64727783,-0.15240479,-1.78125,-70.09375,4.953125
362,1727180964366,-0.19677734,-1.2173462,-0.049621582,-4.5625,-73.71875,-14.03125
363,1727180964406,-0.053222656,-1.2427368,0.10296631,-13.703125,-65.0,4.53125
364,1727180964446,-0.21069336,-0.9631958,0.10736084,-9.46875,-57.5,8.65625
365,1727180964486,-0.28759766,-0.89556885,0.1305542,-1.265625,-51.0625,-0.15625
366,1727180964526,-0.075927734,-0.9492798,0.17352295,-1.65625,-41.171875,2.515625
367,1727180964566,-0.049804688,-0.93585205,0.15985107,-0.9375,-35.453125,7.65625
368,1727180964606,-0.095214844,-0.93096924,0.12322998,-4.03125,-40.921875,10.859375
369,1727180964646,-0.016845703,-0.87164307,0.058532715,-3.15625,-46.765625,16.421875
370,1727180964686,-0.020751953,-0.97125244,0.058532715,-5.21875,-69.015625,16.296875
371,1727180964726,-0.02709961,-1.048645,0.20428467,-4.265625,-85.515625,22.15625
372,1727180964766,-0.39672852,-0.9685669,0.12249756,-8.53125,-70.53125,22.59375
373,1727180964806,-0.60424805,-0.91485596,0.016540527,-14.171875,-58.234375,3.0
374,1727180964846,-0.2199707,-1.359436,-0.30718994,8.609375,-54.40625,-25.28125
375,1727180964886,0.75683594,-1.5230103,0.46209717,10.390625,4.640625,19.5
376,1727180964926,0.08496094,-0.83917236,-0.19439697,-7.15625,-45.234375,20.265625
377,1727180964966,0.24047852,-0.66485596,0.15618896,33.109375,-35.375,6.8125
378,1727180965006,0.14990234,-1.0779419,-0.07574463,6.75,-63.296875,2.90625
379,1727180965046,0.064697266,-1.1773071,0.07977295,-1.078125,-36.484375,8.140625
380,1727180965086,-0.07324219,-0.8999634,0.0072631836,-4.5,-21.609375,7.453125
381,1727180965126,-0.09350586,-0.6658325,-0.011291504,7.0625,-13.671875,2.890625
382,1727180965166,0.13623047,-0.86724854,0.06829834,13.921875,-8.703125,-5.8125
383,1727180965206,0.118652344,-1.0217896,0.097595215,-1.015625,-1.109375,-3.53125
384,1727180965246,0.19384766,-0.9060669,0.07366943,-7.078125,4.46875,-2.734375
385,1727180965286,0.32983398,-0.8171997,-0.020568848,-4.515625,-4.484375,-6.71875
386,1727180965326,0.09692383,-0.9768677,-0.074035645,6.234375,-6.359375,-2.90625
387,1727180965366,-0.0024414062,-0.96954346,-0.15264893,9.703125,-9.234375,-5.125
388,1727180965406,0.04736328,-0.800354,-0.03717041,15.78125,1.421875,2.9375
389,1727180965446,-0.12817383,-0.76690674,-0.01739502,3.546875,-3.125,-8.234375
390,1727180965486,0.076416016,-0.8057251,-0.058898926,10.65625,-0.828125,-10.859375
391,1727180965526,0.026123047,-0.630188,-0.11920166,12.53125,6.984375,6.828125
392,1727180965566,0.17407227,-0.4649048,-0.18121338,6.609375,-3.109375,7.296875
393,1727180965606,0.119140625,-0.40948486,-0.12701416,14.4375,-10.59375,10.8125
394,1727180965646,0.014404297,-0.74102783,-0.2234497,-1.609375,-24.203125,0.375
395,1727180965686,0.06274414,-1.1104126,-0.22369385,-0.828125,-6.875,-11.40625
396,1727180965726,0.043945312,-1.1746216,-0.29522705,-17.015625,-1.953125,10.953125
397,1727180965766,0.056640625,-1.3609009,-0.07745361,-11.234375,-2.640625,4.9375
398,1727180965806,-0.2512207,-2.0,-0.20025635,-17.640625,-10.890625,-61.421875
399,1727180965846,0.06323242,-1.8067017,0.34320068,-75.96875,38.640625,-9.8125
400,1727180965886,-0.4230957,-0.14263916,0.43963623,-54.59375,17.828125,-12.734375
401,1727180965926,0.091552734,0.12664795,0.02923584,-30.875,5.671875,-37.40625
402,1727180965966,-0.14697266,-0.6921997,0.31878662,-28.390625,-3.828125,-12.9375
403,1727180966006,-0.28100586,-1.3403931,0.35858154,-52.3125,-17.265625,-32.328125
404,1727180966046,-0.14575195,-0.95684814,0.3944702,-65.28125,-7.453125,-31.359375
405,1727180966086,-0.36645508,-0.82940674,0.93255615,-47.953125,10.171875,-18.796875
406,1727180966126,-0.5739746,-0.8406372,0.8903198,-34.3125,-26.96875,-19.96875
407,1727180966166,-0.6245117,-0.8049927,0.774353,-6.640625,-7.84375,-12.03125
408,1727180966206,-0.45263672,-0.41583252,0.44573975,18.109375,-8.46875,8.1875
409,1727180966246,-0.36254883,-0.37554932,0.51312256,28.34375,3.5,14.5625
410,1727180966286,-0.32299805,-0.94366455,0.27069092,9.109375,-14.53125,6.859375
411,1727180966326,-0.2541504,-1.270813,0.33441162,6.953125,-12.234375,-5.53125
412,1727180966366,-0.21801758,-0.87042236,0.29119873,-3.515625,7.421875,4.984375
413,1727180966406,-0.27539062,-0.81988525,0.20477295,-2.5,-5.375,-1.0
414,1727180966446,-0.40014648,-1.1245728,0.3209839,-7.109375,3.5,-7.671875
415,1727180966486,-0.22680664,-0.97857666,0.28411865,-12.390625,13.609375,-1.875
416,1727180966526,-0.17504883,-0.72857666,0.3336792,-5.765625,8.984375,-0.90625
417,1727180966566,-0.2841797,-0.767395,0.47088623,-2.625,-1.828125,-0.375
418,1727180966606,-0.4506836,-0.8726196,0.56292725,0.828125,-1.5625,2.0625
419,1727180966646,-0.47070312,-0.79571533,0.6220093,2.078125,5.875,2.34375
420,1727180966686,-0.4260254,-0.69366455,0.51776123,7.765625,5.109375,7.03125
421,1727180966726,-0.27490234,-0.736145,0.5578003,6.984375,6.21875,8.046875
422,1727180966766,-0.30541992,-0.90948486,0.43963623,2.6875,2.5625,12.25
423,1727180966806,-0.2355957,-0.91485596,0.4022827,8.65625,9.328125,14.953125
424,1727180966846,-0.22485352,-0.8804321,0.3925171,10.0625,13.21875,14.125
425,1727180966886,-0.203125,-0.848938,0.340271,13.609375,8.890625,14.640625
426,1727180966926,-0.14477539,-0.8843384,0.40496826,23.65625,7.40625,14.78125
427,1727180966966,-0.14868164,-0.954895,0.36688232,23.84375,1.515625,17.40625
428,1727180967006,-0.15039062,-0.9192505,0.36029053,26.109375,0.359375,18.703125
429,1727180967046,-0.1274414,-0.90582275,0.34173584,23.5625,-1.640625,18.78125
430,1727180967086,-0.10888672,-0.9038696,0.31219482,22.984375,-4.75,18.796875
431,1727180967126,-0.1015625,-0.95147705,0.30633545,21.40625,-6.46875,17.984375
432,1727180967166,-0.13720703,-0.94244385,0.27972412,22.25,-6.125,18.3125
433,1727180967206,-0.10498047,-0.9541626,0.27264404,23.21875,-5.671875,16.984375
434,1727180967246,-0.06738281,-0.9714966,0.22503662,24.796875,-3.484375,18.046875
435,1727180967286,0.008544922,-0.9385376,0.16741943,33.515625,1.375,25.484375
436,1727180967326,0.06616211,-0.93292236,0.062438965,36.46875,4.234375,30.65625
437,1727180967366,0.1081543,-0.94732666,0.028747559,42.703125,6.375,32.015625
438,1727180967406,0.17504883,-1.0027466,-0.042785645,42.25,1.453125,32.3125
439,1727180967446,0.17895508,-1.1226196,-0.034729004,42.28125,0.921875,25.546875
440,1727180967486,0.19726562,-1.2029419,-0.2234497,26.609375,-6.375,18.0
441,1727180967526,0.3635254,-1.1848755,-0.3399048,25.90625,-1.859375,11.03125
442,1727180967566,0.5246582,-1.1494751,-0.38116455,15.890625,-4.265625,-0.390625
443,1727180967606,0.3864746,-1.1812134,-0.35308838,13.765625,-2.4375,2.9375
444,1727180967646,0.35107422,-1.2439575,-0.42095947,7.109375,-4.59375,-3.03125
445,1727180967686,0.39160156,-1.1069946,-0.4607544,0.03125,-1.453125,-9.3125
446,1727180967726,0.44433594,-1.1199341,-0.39556885,0.3125,-2.3125,-10.734375
447,1727180967766,0.36938477,-1.2546997,-0.3994751,-1.328125,-11.234375,-7.578125
448,1727180967806,0.29418945,-1.1687622,-0.32110596,-4.640625,-8.78125,-2.875
449,1727180967846,0.18554688,-0.9192505,-0.24810791,-15.546875,-2.703125,-12.6875
450,1727180967886,0.09106445,-0.75079346,-0.20855713,-21.90625,0.015625,-22.59375
451,1727180967926,0.15551758,-0.6741333,-0.15142822,-25.34375,-3.890625,-29.109375
452,1727180967966,0.11669922,-0.64630127,-0.10015869,-37.09375,-7.28125,-32.75
453,1727180968006,0.060302734,-0.49395752,-0.06011963,-31.3125,-1.9375,-29.59375
454,1727180968046,0.024169922,-0.3242798,-0.09625244,-37.125,0.21875,-25.890625
455,1727180968086,0.05493164,-0.4277954,-0.11846924,-43.3125,-7.625,-33.203125
456,1727180968126,0.07104492,-0.84552,-0.17364502,-8.53125,-23.484375,-35.0
457,1727180968166,0.11303711,-1.331604,-0.03668213,-15.5,-9.515625,-21.703125
458,1727180968206,-0.14746094,-1.0564575,0.0692749,-12.390625,3.71875,3.015625
459,1727180968246,-0.22045898,-0.772522,0.08319092,-9.625,6.234375,-3.21875
460,1727180968286,-0.12890625,-0.9468384,0.08758545,-4.640625,-2.46875,-11.890625
461,1727180968326,0.04272461,-1.1126099,0.14202881,-3.40625,-4.828125,-4.0625
462,1727180968366,-0.12719727,-1.0176392,0.14569092,-5.46875,1.6875,1.265625
463,1727180968406,-0.14770508,-0.8999634,0.11004639,-3.71875,5.09375,2.03125
464,1727180968446,-0.09082031,-0.93756104,0.08685303,1.78125,4.53125,0.703125
465,1727180968486,-0.09008789,-1.0093384,0.12542725,3.046875,6.140625,0.625
466,1727180968526,-0.10546875,-0.9939575,0.13861084,3.140625,10.25,2.765625
467,1727180968566,-0.1472168,-0.9697876,0.09515381,3.15625,14.703125,1.625
468,1727180968606,-0.15283203,-0.97540283,0.09320068,3.78125,18.171875,0.578125
469,1727180968646,-0.12451172,-0.9805298,0.117126465,5.125,22.640625,-0.09375
470,1727180968686,-0.12402344,-0.94537354,0.08465576,4.421875,24.265625,-1.25
471,1727180968726,-0.1315918,-0.9902954,0.07489014,4.75,29.578125,-1.296875
472,1727180968766,-0.13330078,-0.9697876,0.03778076,4.78125,29.796875,-2.078125
473,1727180968806,-0.10620117,-0.9710083,0.043640137,6.796875,34.546875,-2.1875
474,1727180968846,-0.056152344,-0.95391846,-0.016174316,7.78125,34.015625,-1.578125
475,1727180968886,0.0031738281,-0.86309814,0.00018310547,13.015625,35.5,1.484375
476,1727180968926,0.071777344,-0.60040283,-0.0044555664,22.109375,40.375,8.484375
477,1727180968966,-0.030517578,-0.30377197,-0.08673096,42.671875,48.03125,14.921875
478,1727180969006,-0.2277832,-0.46759033,-0.050109863,33.1875,55.65625,1.234375
479,1727180969046,0.049804688,-0.94488525,-0.22369385,-16.546875,4.125,-11.5
480,1727180969086,0.1418457,-1.5073853,0.098083496,6.671875,-4.078125,-14.953125
481,1727180969126,0.54296875,-1.5615845,-0.36993408,12.609375,-17.078125,-4.90625
482,1727180969166,0.028320312,-1.8015747,-0.082336426,11.5625,-36.984375,-7.328125
483,1727180969206,-0.029052734,-1.8335571,-0.39556885,-7.78125,-87.859375,-3.9375
484,1727180969246,0.1730957,-1.670227,-0.362854,11.0,-112.65625,-14.71875
485,1727180969286,-0.16577148,-1.9048462,-0.6211548,0.296875,-124.71875,-2.59375
486,1727180969326,-0.13378906,-1.2288208,-0.7786255,-9.765625,-135.96875,-4.75
487,1727180969366,-0.008300781,-0.7337036,-0.4837036,-3.59375,-111.140625,-6.703125
488,1727180969406,0.068115234,-0.19464111,-0.08917236,35.96875,-89.046875,22.078125
489,1727180969446,-0.1940918,0.18548584,-0.17364502,-14.640625,-115.25,18.828125
490,1727180969486,-0.22827148,0.36639404,-0.34796143,-18.734375,-121.96875,-27.234375
491,1727180969526,-0.14819336,-0.16461182,-0.3369751,-2.484375,-108.34375,-23.140625
492,1727180969566,0.034423828,-0.4360962,-0.39801025,-15.890625,-128.79688,3.015625
493,1727180969606,0.3203125,-1.1526489,-0.3110962,24.71875,-175.54688,5.609375
494,1727180969646,-0.005126953,-2.0,-0.5088501,19.296875,-151.35938,-5.109375
495,1727180969686,-0.6621094,-1.7200317,0.3156128,-4.265625,6.140625,46.21875
496,1727180969726,-0.7861328,-0.96343994,-0.3743286,-17.078125,-20.75,-37.53125
497,1727180969766,0.40722656,-0.69537354,0.08441162,-0.75,-4.5,-29.15625
498,1727180969806,0.14672852,-1.138977,0.010437012,-3.21875,0.875,7.5
499,1727180969846,-0.4128418,-0.8032837,-0.14068604,-6.75,3.90625,-21.984375
500,1727180969886,0.064453125,-0.6506958,-0.1638794,-6.65625,5.625,-23.65625
501,1727180969926,0.17993164,-1.0261841,-0.10089111,-5.4375,-12.296875,-7.265625
502,1727180969966,-0.068115234,-1.133606,-0.09967041,2.359375,0.4375,0.28125
503,1727180970006,-0.13647461,-0.9246216,-0.038146973,-0.6875,12.859375,1.5
504,1727180970046,0.015625,-0.97125244,0.014099121,-6.15625,13.9375,-1.75
505,1727180970086,0.026611328,-0.9717407,0.016540527,-8.25,14.171875,4.5
506,1727180970126,-0.099121094,-0.94781494,-0.055480957,-5.1875,19.40625,10.578125
507,1727180970166,-0.020019531,-1.0293579,-0.1519165,-13.765625,16.171875,11.859375
508,1727180970206,0.18701172,-1.0025024,-0.06768799,-4.84375,26.8125,3.46875
509,1727180970246,-0.057861328,-0.9944458,0.02142334,2.453125,41.84375,12.25
510,1727180970286,-0.16918945,-0.9522095,0.014099121,-9.140625,54.375,11.359375
511,1727180970326,-0.103271484,-0.9668579,-0.05255127,-15.234375,59.046875,-0.34375
512,1727180970366,-0.19848633,-0.99664307,-0.057678223,-15.53125,82.015625,10.046875
513,1727180970406,-0.29833984,-1.1018677,-0.144104,-18.65625,107.140625,2.921875
514,1727180970446,-0.38842773,-1.0789185,-0.27911377,-26.703125,120.453125,-7.8125
515,1727180970486,0.034179688,-1.0899048,-0.22906494,-29.375,141.75,-6.484375
516,1727180970526,-0.007080078,-1.30719,-0.21807861,-26.890625,151.3125,1.046875
517,1727180970566,-0.16455078,-1.1140747,-0.3213501,-36.9375,155.73438,-3.046875
518,1727180970606,-0.2211914,-0.95269775,-0.35821533,-29.734375,169.625,-16.734375
519,1727180970646,-0.13916016,-0.97052,-0.5803833,-20.828125,170.10938,-17.796875
520,1727180970686,0.0087890625,-0.98443604,-0.48223877,-5.109375,177.29688,-13.265625
521,1727180970726,0.09887695,-0.9104614,-0.48712158,-4.890625,168.51562,-11.3125
522,1727180970766,0.18237305,-0.8777466,-0.39141846,4.90625,160.625,-8.59375
523,1727180970806,0.06298828,-0.986145,-0.41705322,4.296875,146.59375,-13.828125
524,1727180970846,-0.011230469,-1.0303345,-0.41900635,5.984375,143.28125,-17.171875
525,1727180970886,0.036376953,-1.022522,-0.3953247,4.3125,150.09375,-15.390625
526,1727180970926,0.115478516,-1.098938,-0.36114502,-11.015625,132.32812,-22.15625
527,1727180970966,0.042236328,-1.2056274,-0.19439697,-6.125,123.875,-13.75
528,1727180971006,-0.041015625,-1.0447388,-0.21881104,-11.9375,112.8125,-6.953125
529,1727180971046,-0.17260742,-0.9871216,-0.20245361,-13.09375,104.640625,-10.734375
530,1727180971086,0.053466797,-1.0718384,-0.1338501,-5.4375,97.984375,-16.859375
531,1727180971126,0.21362305,-1.0066528,-0.08673096,-4.5,86.0625,2.40625
532,1727180971166,0.10595703,-0.850647,-0.030822754,3.625,65.203125,6.421875
533,1727180971206,0.009521484,-0.96759033,0.12542725,-2.09375,53.140625,-1.53125
534,1727180971246,0.045166016,-0.96539307,0.07489014,-4.46875,47.859375,1.65625
535,1727180971286,-0.0075683594,-0.90753174,0.09857178,-0.5,41.15625,0.0625
536,1727180971326,-0.03149414,-0.923645,0.101745605,-0.46875,32.34375,-5.015625
537,1727180971366,-0.076416016,-0.91412354,0.08905029,1.765625,32.0625,-5.234375
538,1727180971406,-0.15893555,-1.0632935,0.005065918,-4.640625,19.703125,-9.28125
539,1727180971446,-0.04345703,-1.1841431,-0.008850098,-10.28125,19.984375,-12.65625
540,1727180971486,0.07885742,-1.1721802,0.117370605,-8.640625,18.53125,1.703125
541,1727180971526,-0.08251953,-0.89678955,0.105163574,-8.21875,12.484375,4.109375
542,1727180971566,-0.2434082,-0.8008423,0.058532715,-0.59375,10.921875,-4.921875
543,1727180971606,-0.26879883,-0.9570923,0.004333496,-4.5,18.140625,-9.671875
544,1727180971646,-0.1262207,-0.93951416,0.0099487305,-2.703125,16.984375,-10.515625
545,1727180971686,-0.041748047,-1.0090942,0.039489746,-1.3125,11.25,-8.015625
546,1727180971726,-0.12573242,-1.0115356,0.08392334,-1.75,11.0625,-1.09375
547,1727180971766,-0.1640625,-0.9446411,0.10418701,-1.046875,10.25,-3.265625
548,1727180971806,-0.1574707,-0.9859009,0.13812256,0.03125,10.203125,-5.59375
549,1727180971846,-0.18310547,-0.9907837,0.1083374,-0.125,9.75,-1.765625
550,1727180971886,-0.13598633,-0.96881104,0.0927124,-2.25,9.78125,-1.03125
551,1727180971926,-0.092285156,-0.9937134,0.07684326,1.34375,5.28125,1.484375
552,1727180971966,-0.09448242,-1.0025024,0.09588623,4.359375,4.046875,3.0625
553,1727180972006,-0.115234375,-0.9998169,0.10687256,7.140625,6.53125,6.203125
554,1727180972046,-0.13891602,-0.95147705,0.0993042,9.03125,6.140625,5.890625
555,1727180972086,-0.17504883,-0.98760986,0.12615967,7.34375,8.5625,1.484375
556,1727180972126,-0.16821289,-1.0393677,0.10809326,5.421875,14.3125,2.421875
557,1727180972166,-0.14013672,-0.9602661,0.08880615,8.03125,20.84375,5.046875
558,1727180972206,-0.20654297,-0.94000244,0.0524292,9.046875,28.4375,5.234375
559,1727180972246,-0.16259766,-1.038147,0.01727295,5.0625,23.328125,1.234375
560,1727180972286,-0.0107421875,-1.0967407,-0.0056762695,2.078125,16.5,2.0625
561,1727180972326,-0.09887695,-0.95196533,0.0211792,11.953125,36.265625,13.8125
562,1727180972366,-0.33935547,-0.8555298,0.012878418,8.890625,38.15625,6.40625
563,1727180972406,-0.40454102,-0.9902954,0.0119018555,3.890625,42.265625,-9.5
564,1727180972446,-0.32861328,-1.1011353,-0.09259033,-6.53125,69.359375,-8.0
565,1727180972486,-0.1586914,-1.0098267,-0.07183838,-5.9375,80.453125,-8.21875
566,1727180972526,-0.12133789,-0.91973877,-0.11236572,-10.34375,76.75,-9.03125
567,1727180972566,-0.049316406,-1.0105591,-0.050842285,-4.84375,66.5,-15.484375
568,1727180972606,-0.042236328,-1.1011353,0.028503418,1.8125,71.765625,-10.390625
569,1727180972646,-0.09887695,-0.93414307,0.0914917,-2.75,76.65625,-8.078125
570,1727180972686,-0.041015625,-0.90631104,0.04852295,4.46875,72.921875,-11.171875
571,1727180972726,-0.08154297,-1.154602,0.15423584,0.09375,71.015625,-13.75
572,1727180972766,-0.033935547,-1.109436,0.031433105,-0.96875,73.59375,-4.890625
573,1727180972806,0.07543945,-0.84259033,0.11444092,7.4375,71.359375,2.09375
574,1727180972846,-0.0075683594,-0.8648071,0.07513428,7.984375,53.921875,-1.859375
575,1727180972886,0.025390625,-1.0508423,0.08734131,7.765625,44.6875,-1.40625
576,1727180972926,0.118652344,-1.019104,0.10491943,6.78125,35.5625,4.4375
577,1727180972966,0.010498047,-0.94415283,0.13983154,7.203125,29.328125,5.078125
578,1727180973006,-0.057373047,-0.944397,0.15423584,7.34375,23.609375,3.453125
579,1727180973046,-0.08154297,-0.9402466,0.1539917,6.0625,18.0625,1.078125
580,1727180973086,-0.0075683594,-0.9331665,0.1317749,13.875,13.4375,1.578125
581,1727180973126,0.008544922,-0.93341064,0.19256592,8.75,11.453125,2.921875
582,1727180973166,-0.11743164,-0.95391846,0.24627686,2.734375,13.59375,-2.84375
583,1727180973206,-0.118896484,-0.9546509,0.2164917,-3.359375,9.0625,-8.625
584,1727180973246,-0.015136719,-1.0264282,0.2518921,-1.40625,7.421875,-12.265625
585,1727180973286,-0.07006836,-1.2769165,0.10614014,-8.875,-9.078125,-13.609375
586,1727180973326,-0.0026855469,-1.4351196,-0.028381348,-4.59375,-8.53125,-3.015625
587,1727180973366,-0.11425781,-1.1987915,-0.11260986,-1.984375,11.8125,11.28125
588,1727180973406,-0.018310547,-0.77301025,-0.19171143,-4.6875,12.140625,4.75
589,1727180973446,0.10083008,-0.7246704,-0.00079345703,0.9375,2.59375,8.234375
590,1727180973486,0.084472656,-0.9295044,-0.07159424,-2.84375,-12.28125,0.375
591,1727180973526,-0.080078125,-1.1177368,-0.039855957,-13.65625,-19.90625,2.53125
592,1727180973566,-0.083984375,-1.0725708,-0.06427002,-8.21875,-18.90625,11.90625
593,1727180973606,-0.09326172,-0.80670166,-0.06451416,1.0,-8.609375,9.984375
594,1727180973646,-0.33203125,-0.9636841,0.015075684,3.734375,4.203125,-6.390625
595,1727180973686,-0.11987305,-1.0059204,0.11639404,-2.125,9.140625,-7.90625
596,1727180973726,-0.001953125,-0.9458618,0.10809326,0.484375,6.890625,-3.65625
597,1727180973766,0.014160156,-0.9092407,0.12005615,-7.453125,0.390625,2.3125
598,1727180973806,0.021972656,-0.9204712,0.1251831,-1.828125,-5.953125,3.90625
599,1727180973846,-0.11425781,-0.9602661,0.16033936,-1.34375,-8.96875,3.09375
600,1727180973886,-0.10107422,-0.989563,0.16033936,-2.96875,-15.90625,0.71875
601,1727180973926,-0.08300781,-1.0581665,0.17645264,-9.234375,-16.671875,-0.515625
602,1727180973966,-0.21704102,-0.9673462,0.16741943,2.28125,-15.109375,5.46875
603,1727180974006,-0.35424805,-0.9920044,0.21282959,5.453125,-11.109375,-3.140625
604,1727180974046,-0.4560547,-1.3740845,0.18328857,9.640625,-8.65625,-21.46875
605,1727180974086,-0.12548828,-1.5112915,-0.034973145,-7.25,4.90625,-7.203125
606,1727180974126,0.18066406,-0.82940674,-0.15533447,-3.359375,26.546875,10.0625
607,1727180974166,0.19140625,-0.6531372,-0.07501221,2.125,17.96875,0.484375
608,1727180974206,0.21411133,-0.7398071,0.043640137,7.96875,2.40625,4.828125
609,1727180974246,0.040039062,-1.0437622,0.12298584,0.5,-1.4375,3.234375
610,1727180974286,-0.08911133,-1.0947876,0.059509277,-2.84375,4.34375,2.34375
611,1727180974326,-0.16015625,-0.9234009,-0.01373291,5.96875,15.890625,2.453125
612,1727180974366,0.07324219,-0.9282837,0.0446167,9.453125,20.90625,-2.6875
613,1727180974406,0.04272461,-1.0667114,0.21453857,-2.953125,18.53125,1.421875
614,1727180974446,-0.12207031,-0.89141846,0.20599365,-6.890625,24.328125,6.0625
615,1727180974486,-0.03100586,-0.6174927,0.15130615,1.609375,16.546875,-5.015625
616,1727180974526,-0.043945312,-0.8320923,0.2526245,-1.109375,6.46875,-18.671875
617,1727180974566,0.014404297,-1.241272,0.16497803,-4.296875,4.359375,-25.65625
618,1727180974606,0.10644531,-1.1670532,0.20428467,-11.84375,6.046875,-6.578125
619,1727180974646,-0.21044922,-1.1609497,0.11053467,-13.484375,1.78125,-9.65625
620,1727180974686,-0.1850586,-1.4580688,-0.0071411133,-12.6875,-7.46875,-29.6875
621,1727180974726,0.30639648,-1.1785278,0.08660889,-14.4375,16.0,5.8125
622,1727180974766,-0.041259766,-0.5149536,0.11907959,1.28125,22.953125,22.796875
623,1727180974806,-0.265625,-0.536438,-0.20635986,-5.046875,-8.5625,-15.390625
624,1727180974846,-0.076660156,-1.3369751,-0.010559082,9.65625,-19.109375,-20.453125
625,1727180974886,0.29760742,-1.4585571,0.019958496,0.03125,-24.5,16.328125
626,1727180974926,-0.1328125,-0.72003174,0.0211792,-7.71875,-30.84375,26.15625
627,1727180974966,-0.4362793,-0.710022,-0.032287598,3.796875,-35.171875,2.734375
628,1727180975006,-0.0048828125,-0.9014282,0.036071777,10.890625,-35.515625,2.90625
629,1727180975046,0.13012695,-1.0835571,0.039733887,4.046875,-51.953125,8.890625
630,1727180975086,0.025390625,-1.008606,-0.105773926,-12.625,-73.453125,19.78125
631,1727180975126,-0.119140625,-1.0481567,-0.050109863,2.0,-74.390625,16.875
632,1727180975166,-0.042236328,-1.2088013,-0.2798462,9.578125,-75.765625,16.1875
633,1727180975206,0.26416016,-1.206604,0.11199951,5.796875,-71.046875,32.015625
634,1727180975246,0.01977539,-1.0274048,-0.09649658,3.15625,-84.078125,37.28125
635,1727180975286,0.051513672,-0.73883057,-0.09552002,11.53125,-89.6875,28.359375
636,1727180975326,0.037597656,-0.9795532,0.001159668,12.90625,-84.203125,15.484375
637,1727180975366,0.25756836,-1.0671997,0.020690918,5.234375,-76.484375,12.203125
638,1727180975406,0.29785156,-0.98443604,-0.008117676,7.5625,-80.203125,17.421875
639,1727180975446,0.24267578,-0.9517212,0.09588623,5.125,-83.21875,17.40625
640,1727180975486,0.16235352,-0.98443604,0.09222412,-0.90625,-88.765625,12.34375
641,1727180975526,0.22314453,-0.94366455,0.007751465,7.03125,-77.3125,5.3125
642,1727180975566,0.11035156,-0.9546509,0.16473389,3.15625,-64.078125,7.3125
643,1727180975606,0.030029297,-0.8735962,0.16131592,3.84375,-48.609375,2.15625
644,1727180975646,0.08569336,-0.8045044,0.19403076,10.515625,-35.140625,-6.65625
645,1727180975686,0.1940918,-0.9331665,0.23504639,7.015625,-31.625,-10.03125
646,1727180975726,0.15161133,-1.0576782,0.2682495,6.28125,-26.484375,-14.9375
647,1727180975766,0.14746094,-1.1047974,0.277771,2.03125,-14.65625,-16.625
648,1727180975806,0.24682617,-0.9429321,0.2662964,-1.328125,-10.65625,-14.46875
649,1727180975846,0.22583008,-0.8184204,0.24871826,-3.609375,-13.1875,-14.15625
650,1727180975886,0.19165039,-1.0349731,0.24066162,-24.296875,-29.234375,-17.59375
651,1727180975926,0.123535156,-1.3379517,0.0033569336,-42.484375,-63.8125,-27.1875
652,1727180975966,0.012451172,-1.005188,0.15203857,-26.3125,-39.421875,11.0625
653,1727180976006,-0.29418945,-0.7432251,0.11224365,-16.484375,-32.21875,4.640625
654,1727180976046,-0.22290039,-0.8386841,0.17230225,-15.40625,-30.671875,-22.3125
655,1727180976086,0.064941406,-1.3821411,0.16204834,-7.421875,-17.21875,-1.734375
656,1727180976126,0.10522461,-1.0388794,0.12054443,-0.03125,-40.40625,15.53125
657,1727180976166,-0.25170898,-0.7307739,0.0602417,9.984375,-53.109375,13.421875
658,1727180976206,-0.2861328,-0.83062744,0.117126465,10.90625,-46.671875,2.3125
659,1727180976246,-0.1430664,-0.97613525,0.11468506,6.203125,-50.140625,3.703125
660,1727180976286,-0.16894531,-0.9993286,0.14764404,3.359375,-51.96875,6.796875
661,1727180976326,-0.23657227,-1.0108032,0.20965576,1.578125,-51.8125,8.28125
662,1727180976366,-0.2241211,-0.98687744,0.21258545,0.625,-42.546875,9.828125
663,1727180976406,-0.19995117,-0.91851807,0.18475342,0.296875,-30.984375,10.46875
664,1727180976446,-0.18652344,-0.9092407,0.16619873,4.21875,-34.984375,6.734375
665,1727180976486,-0.14208984,-0.93707275,0.21624756,4.59375,-35.21875,8.171875
666,1727180976526,-0.1574707,-0.9299927,0.19671631,1.015625,-32.890625,10.4375
667,1727180976566,-0.19750977,-0.9209595,0.2098999,4.265625,-31.96875,12.28125
668,1727180976606,-0.22680664,-0.909729,0.23773193,4.96875,-30.96875,9.390625
669,1727180976646,-0.22973633,-0.95880127,0.2555542,3.28125,-26.203125,6.828125
670,1727180976686,-0.2043457,-0.9915161,0.22161865,0.234375,-24.90625,5.15625
671,1727180976726,-0.100097656,-0.9817505,0.2555542,-6.390625,-30.546875,5.828125
672,1727180976766,-0.13134766,-1.484436,0.12542725,-2.53125,-44.546875,-5.71875
673,1727180976806,-0.0390625,-1.373352,0.0033569336,-6.734375,-15.125,6.609375
674,1727180976846,0.095214844,-0.8753052,-0.08135986,3.640625,-4.15625,12.03125
675,1727180976886,0.06201172,-0.71343994,-0.10845947,9.5,-12.296875,8.6875
676,1727180976926,-0.056640625,-0.8340454,-0.0015258789,7.28125,-24.53125,-1.71875
677,1727180976966,-0.12011719,-1.1411743,0.0040893555,-2.8125,-13.125,-12.078125
678,1727180977006,0.056152344,-1.1882935,0.09295654,-9.890625,-5.96875,-11.78125
679,1727180977046,0.061523438,-0.9224243,0.012390137,-8.375,-1.28125,-3.078125
680,1727180977086,-0.03466797,-0.84039307,0.0602417,-3.65625,1.96875,-3.59375
681,1727180977126,-0.13232422,-0.9458618,0.078552246,-4.21875,6.5625,-6.734375
682,1727180977166,-0.05102539,-1.0227661,0.04925537,-6.203125,4.953125,-9.515625
683,1727180977206,0.032470703,-1.0532837,0.10638428,-4.734375,5.875,-7.28125
684,1727180977246,-0.053466797,-1.0427856,0.12567139,-6.6875,8.0625,-0.03125
685,1727180977286,-0.10180664,-0.97052,0.109802246,-6.421875,4.625,-3.5
686,1727180977326,-0.043945312,-0.9690552,0.15203857,-4.828125,3.75,-3.109375
687,1727180977366,-0.08276367,-0.9390259,0.13446045,-6.046875,3.984375,0.71875
688,1727180977406,-0.043945312,-0.96710205,0.12176514,-3.140625,0.59375,3.296875
689,1727180977446,-0.019042969,-0.99298096,0.18328857,0.0,-1.609375,6.3125
690,1727180977486,-0.13964844,-0.9397583,0.17230225,-4.71875,-2.03125,4.484375
691,1727180977526,-0.18066406,-0.93048096,0.16131592,0.484375,0.625,0.078125
692,1727180977566,0.14013672,-1.302063,0.049743652,11.921875,1.234375,17.65625
693,1727180977606,0.06689453,-1.06427,0.016540527,16.40625,12.78125,16.890625
694,1727180977646,0.11743164,-1.1643677,-0.17047119,10.09375,9.125,0.90625
695,1727180977686,0.34716797,-1.4629517,-0.06890869,14.71875,9.25,8.75
696,1727180977726,0.1730957,-1.4448853,-0.04156494,8.765625,7.265625,-1.171875
697,1727180977766,0.12915039,-1.4837036,-0.05279541,-5.71875,-5.671875,-16.03125
698,1727180977806,0.22558594,-1.4404907,-0.1272583,-5.484375,-1.609375,-13.40625
699,1727180977846,0.18652344,-1.3250122,-0.054260254,9.75,1.1875,-9.125
700,1727180977886,0.21020508,-1.1682739,0.109069824,1.8125,15.65625,-2.65625
701,1727180977926,0.004638672,-0.47955322,0.03704834,2.890625,32.75,12.953125
702,1727180977966,-0.11816406,0.30047607,-0.1951294,-13.4375,17.90625,6.78125
703,1727180978006,0.16186523,0.26019287,-0.15362549,2.703125,7.15625,-9.28125
704,1727180978046,0.11376953,-0.101379395,-0.24029541,-2.265625,-7.546875,-4.84375
705,1727180978086,0.049804688,-0.50079346,-0.12237549,7.609375,-20.546875,-4.71875
706,1727180978126,-0.19677734,-0.81988525,-0.30377197,11.78125,-3.90625,-7.171875
707,1727180978166,0.028808594,-0.5474243,-0.32965088,3.40625,-5.875,0.65625
708,1727180978206,0.11669922,-0.88604736,-0.17095947,7.625,5.078125,4.0625
709,1727180978246,0.17675781,-1.0789185,-0.3250122,8.84375,-22.953125,9.515625
710,1727180978286,-0.2705078,-0.36505127,0.11053467,40.046875,10.28125,40.203125
711,1727180978326,-0.04663086,-0.24713135,-0.27008057,14.71875,-10.15625,17.09375
712,1727180978366,0.28808594,-0.5442505,-0.17047119,23.890625,-11.828125,14.78125
713,1727180978406,0.47827148,-1.0762329,-0.41192627,19.5625,-33.203125,13.90625
714,1727180978446,0.25952148,-1.2398071,-0.30474854,15.390625,-33.5625,16.046875
715,1727180978486,0.3527832,-1.4292603,-0.097717285,-12.140625,-18.578125,22.34375
716,1727180978526,0.22851562,-1.1621704,-0.43292236,-12.546875,-11.484375,6.8125
717,1727180978566,0.42114258,-1.4334106,-0.13677979,12.140625,-1.328125,-6.5625
718,1727180978606,0.5163574,-2.0,-0.012023926,-38.953125,-6.359375,-27.375
719,1727180978646,0.16918945,-2.0,-0.121398926,-7.453125,22.109375,-20.703125
720,1727180978686,0.26611328,-1.2241821,0.16009521,10.09375,40.65625,18.84375
721,1727180978726,0.16064453,-0.3970337,-0.14019775,-8.75,16.84375,10.109375
722,1727180978766,0.053466797,-0.29888916,-0.16802979,-3.75,2.90625,-12.90625
723,1727180978806,0.14794922,-0.7918091,-0.10040283,-13.265625,-4.40625,-18.359375
724,1727180978846,0.1027832,-1.0083618,-0.1831665,-17.9375,-8.21875,-15.203125
725,1727180978886,0.2175293,-1.281311,-0.27178955,-14.0625,-14.015625,-22.40625
726,1727180978926,0.1328125,-1.4710083,-0.14312744,-2.953125,2.5625,-15.28125
727,1727180978966,0.0234375,-1.0574341,-0.13165283,-12.796875,11.59375,-3.8125
728,1727180979006,0.15917969,-0.7041626,-0.1453247,-6.96875,3.5625,-5.359375
729,1727180979046,0.15454102,-0.80426025,-0.12359619,-9.375,-6.546875,-8.140625
730,1727180979086,0.11816406,-1.0488892,-0.19439697,-19.078125,-3.890625,-10.5
731,1727180979126,0.17675781,-0.94903564,-0.09259033,-16.796875,1.5,-11.25
732,1727180979166,0.14794922,-0.93341064,-0.14581299,-21.390625,-7.953125,-11.9375
733,1727180979206,0.10888672,-0.99786377,-0.089416504,-24.546875,-8.953125,-13.796875
734,1727180979246,0.05029297,-1.0755005,-0.027404785,-31.578125,-3.734375,-18.203125
735,1727180979286,0.018798828,-1.0073853,0.018005371,-41.1875,-6.203125,-20.671875
736,1727180979326,0.00048828125,-0.9175415,0.06365967,-44.984375,-8.234375,-26.265625
737,1727180979366,-0.038330078,-0.88409424,0.16888428,-39.09375,-1.5,-25.671875
738,1727180979406,-0.15039062,-0.95098877,0.27508545,-33.375,1.515625,-22.640625
739,1727180979446,-0.13110352,-1.0562134,0.32318115,-32.40625,17.359375,-16.890625
740,1727180979486,-0.095214844,-0.9859009,0.23968506,-25.96875,0.25,-15.875
741,1727180979526,-0.0925293,-0.83917236,0.4179077,-27.15625,-0.953125,-11.46875
742,1727180979566,-0.21704102,-0.81085205,0.40618896,-27.859375,-8.484375,-8.609375
743,1727180979606,-0.31030273,-0.76153564,0.4833374,-14.859375,-8.40625,-11.015625
744,1727180979646,-0.2902832,-0.82281494,0.479187,-18.84375,-3.890625,-10.203125
745,1727180979686,-0.25683594,-0.7468872,0.5651245,-21.5625,3.875,-13.203125
746,1727180979726,-0.24926758,-0.77716064,0.465271,-22.71875,-0.453125,-11.125
747,1727180979766,-0.2133789,-0.7576294,0.8217163,-11.296875,8.921875,-5.796875
748,1727180979806,-0.62231445,-0.847229,0.8187866,-5.46875,-6.78125,7.9375
749,1727180979846,-0.34277344,-0.6514282,0.7616577,5.25,11.359375,7.234375
750,1727180979886,-0.2836914,-0.5484009,0.6400757,13.21875,6.875,10.1875
751,1727180979926,-0.17651367,-0.5862427,0.5932007,9.984375,2.203125,10.15625
752,1727180979966,-0.2541504,-0.8140259,0.5236206,4.4375,-5.21875,4.09375
753,1727180980006,-0.23071289,-0.9595337,0.571228,7.609375,-1.78125,5.296875
754,1727180980046,-0.19506836,-0.9968872,0.44476318,13.5625,-2.53125,7.625
755,1727180980086,-0.13549805,-0.90631104,0.44281006,22.546875,-1.171875,14.578125
756,1727180980126,-0.15063477,-0.8779907,0.3776245,26.71875,-4.75,19.515625
757,1727180980166,-0.091308594,-0.86553955,0.41131592,28.640625,-3.140625,18.375
758,1727180980206,-0.123291016,-0.88482666,0.3817749,24.5625,-6.203125,18.40625
759,1727180980246,-0.14550781,-0.8936157,0.43206787,21.109375,-9.046875,14.015625
760,1727180980286,-0.11743164,-0.93634033,0.3925171,14.84375,-11.265625,12.109375
761,1727180980326,-0.091308594,-0.8674927,0.40057373,24.78125,0.9375,14.234375
762,1727180980366,-0.22680664,-0.94195557,0.37200928,33.984375,12.265625,20.96875
763,1727180980406,-0.068115234,-0.93829346,0.3126831,42.640625,1.640625,18.953125
764,1727180980446,0.04248047,-0.8862915,0.28533936,59.625,6.9375,27.390625
765,1727180980486,-0.02758789,-0.96417236,0.11126709,58.75,3.546875,35.359375
766,1727180980526,0.18896484,-1.2056274,-0.08087158,43.15625,-19.546875,22.21875
767,1727180980566,0.29541016,-1.2427368,0.07928467,44.375,-6.09375,1.484375
768,1727180980606,0.099609375,-1.3308716,-0.33111572,31.3125,-18.53125,8.78125
769,1727180980646,0.296875,-1.2771606,-0.13360596,24.28125,-24.6875,-7.59375
770,1727180980686,0.16552734,-1.3899536,-0.40875244,2.328125,-25.015625,-23.625
771,1727180980726,0.4206543,-1.7036743,-0.41583252,10.828125,-20.96875,-35.78125
