,timestamp,accel_x,accel_y,accel_z,gyro_x,gyro_y,gyro_z
0,1726929501910,-0.14550781,-0.96661377,0.11981201,-1.21875,-2.96875,-0.21875
1,1726929501950,-0.15893555,-0.97979736,0.11785889,-0.09375,-2.484375,-0.375
2,1726929501990,-0.15332031,-0.9780884,0.116882324,-0.40625,-2.078125,-0.234375
3,1726929502030,-0.1381836,-0.98028564,0.10491943,-1.96875,-2.9375,-1.28125
4,1726929502070,-0.13452148,-0.97979736,0.12420654,-0.046875,-1.9375,-0.578125
5,1726929502110,-0.15722656,-0.9817505,0.11224365,-0.34375,-1.625,-0.25
6,1726929502150,-0.14624023,-0.97906494,0.12347412,0.15625,-0.71875,-0.4375
7,1726929502190,-0.15209961,-0.9866333,0.12030029,-0.359375,-1.109375,0.6875
8,1726929502230,-0.13061523,-0.9795532,0.09857178,-1.8125,-0.265625,-1.328125
9,1726929502270,-0.1484375,-0.9890747,0.11541748,0.125,-1.90625,-1.109375
10,1726929502310,-0.16064453,-0.9751587,0.120788574,-2.546875,0.984375,-1.546875
11,1726929502350,-0.1496582,-0.97735596,0.1251831,0.53125,-0.765625,-0.71875
12,1726929502390,-0.1706543,-0.9656372,0.12786865,-0.390625,2.9375,-1.375
13,1726929502430,-0.22802734,-0.95977783,0.17230225,8.578125,5.359375,2.703125
14,1726929502470,-0.28271484,-0.894104,0.26922607,16.140625,16.890625,5.703125
15,1726929502510,-0.3708496,-0.9277954,0.16497803,27.84375,24.75,14.515625
16,1726929502550,-0.19482422,-0.83258057,-0.109191895,15.640625,1.328125,7.328125
17,1726929502590,0.24194336,-0.9920044,0.230896,31.65625,-5.703125,19.171875
18,1726929502630,-0.16723633,-1.1087036,0.15789795,44.03125,13.9375,31.59375
19,1726929502670,-0.2824707,-0.8323364,-0.0791626,14.9375,-8.15625,20.125
20,1726929502710,0.051513672,-0.9102173,0.022399902,36.265625,-4.5625,27.046875
21,1726929502750,-0.09741211,-1.0391235,-0.12994385,36.953125,0.359375,35.765625
22,1726929502790,0.09790039,-1.0283813,-0.16973877,46.0625,-11.171875,43.015625
23,1726929502830,0.033691406,-1.0261841,-0.29693604,42.1875,8.484375,44.078125
24,1726929502870,0.099853516,-1.1516724,-0.38189697,40.421875,3.828125,43.96875
25,1726929502910,0.5449219,-1.0440063,-0.73760986,31.484375,-13.765625,58.65625
26,1726929502950,0.5270996,-1.156311,-0.6272583,28.15625,-5.53125,16.125
27,1726929502990,0.37304688,-1.2542114,-0.76934814,21.890625,-4.96875,11.640625
28,1726929503030,0.6357422,-1.0901489,-0.7661743,20.96875,-3.984375,3.328125
29,1726929503070,0.57177734,-1.0181274,-0.69073486,15.90625,-1.5625,-2.921875
30,1726929503110,0.43847656,-1.0852661,-0.70635986,0.921875,-1.875,-7.40625
31,1726929503150,0.46166992,-1.0117798,-0.60943604,-13.234375,-0.859375,-17.78125
32,1726929503190,0.4567871,-1.0488892,-0.49468994,-11.734375,0.765625,-11.75
33,1726929503230,0.3330078,-1.0667114,-0.51568604,-22.078125,4.5,-12.578125
34,1726929503270,0.31054688,-1.0020142,-0.4414673,-18.84375,8.203125,-17.25
35,1726929503310,0.34545898,-0.9800415,-0.31671143,-20.609375,9.5,-17.015625
36,1726929503350,0.22583008,-0.8447876,-0.26861572,-32.046875,11.875,-19.34375
37,1726929503390,0.15917969,-0.61846924,-0.2727661,-42.21875,6.734375,-28.0
38,1726929503430,0.13110352,-0.59698486,-0.13873291,-39.59375,2.890625,-30.1875
39,1726929503470,0.08325195,-0.52789307,-0.13311768,-49.5625,2.65625,-34.5
40,1726929503510,0.056640625,-0.5286255,-0.12310791,-49.234375,3.421875,-37.96875
41,1726929503550,0.024902344,-0.5420532,-0.058166504,-45.90625,8.0625,-43.40625
42,1726929503590,0.037597656,-0.33966064,-0.14019775,-40.84375,6.90625,-34.484375
43,1726929503630,0.16577148,-0.3562622,-0.09893799,-28.46875,15.6875,-21.578125
44,1726929503670,-0.049072266,-0.833313,-0.057922363,-25.171875,3.015625,-11.09375
45,1726929503710,-0.06591797,-1.2966919,-0.0491333,-27.328125,-5.578125,-12.90625
46,1726929503750,-0.033935547,-1.0789185,-0.0791626,-22.59375,4.03125,-10.484375
47,1726929503790,-0.007080078,-0.8970337,0.10247803,-6.984375,11.0625,-4.0625
48,1726929503830,-0.11206055,-0.87286377,0.036315918,-3.453125,-1.234375,5.34375
49,1726929503870,-0.013427734,-0.87579346,0.0036010742,13.53125,-8.109375,9.234375
50,1726929503910,0.030517578,-0.8135376,-0.0012817383,27.6875,-10.1875,20.765625
51,1726929503950,-0.026855469,-0.7149048,-0.031311035,36.96875,-10.140625,30.109375
52,1726929503990,0.091308594,-0.614563,-0.14312744,42.421875,-10.671875,37.96875
53,1726929504030,0.09887695,-0.6174927,-0.15411377,51.953125,-13.4375,39.09375
54,1726929504070,0.103759766,-0.6226196,-0.10821533,53.921875,-5.765625,41.21875
55,1726929504110,-0.0546875,-0.5750122,-0.13238525,42.234375,2.96875,41.046875
56,1726929504150,0.018798828,-0.6026001,-0.2498169,25.0,15.640625,15.71875
57,1726929504190,0.2565918,-0.6482544,-0.30499268,34.84375,3.8125,23.140625
58,1726929504230,0.30297852,-0.5598755,-0.28790283,29.375,-4.9375,23.203125
59,1726929504270,0.25634766,-0.8809204,-0.30523682,30.21875,-8.578125,17.53125
60,1726929504310,-0.045166016,-0.8386841,-0.41119385,12.25,-10.015625,8.828125
61,1726929504350,0.50683594,-0.89923096,-0.5088501,-11.125,-8.328125,-3.234375
62,1726929504390,0.18066406,-0.87994385,-0.3147583,31.65625,4.03125,2.6875
63,1726929504430,0.5065918,-1.0269165,-0.76568604,-39.578125,-28.09375,-3.75
64,1726929504470,0.70996094,-1.0930786,-0.16143799,31.859375,-10.75,-0.453125
65,1726929504510,0.28198242,-1.1936646,-0.6929321,-49.4375,-7.171875,-7.34375
66,1726929504550,0.018798828,-0.8648071,-0.616272,21.65625,-3.609375,-41.984375
67,1726929504590,0.6867676,-1.414856,-0.39556885,-53.890625,-9.21875,-7.359375
68,1726929504630,0.36108398,-1.5449829,-0.1675415,-6.71875,5.625,-23.375
69,1726929504670,-0.0715332,-1.404602,-0.317688,-22.953125,-4.90625,-32.75
70,1726929504710,0.18237305,-1.6087036,-0.13360596,-23.984375,2.53125,-15.4375
71,1726929504750,0.045166016,-1.4072876,-0.28155518,0.09375,5.296875,-9.234375
72,1726929504790,-0.1262207,-1.1038208,0.062194824,14.0625,16.21875,1.625
73,1726929504830,-0.20800781,-0.9468384,-0.050109863,4.25,11.78125,-6.03125
74,1726929504870,-0.08886719,-0.7798462,-0.04864502,0.890625,7.1875,-1.484375
75,1726929504910,0.091796875,-0.66534424,-0.0095825195,2.328125,-3.25,-5.9375
76,1726929504950,0.01977539,-0.6987915,-0.097229004,8.953125,-12.765625,7.71875
77,1726929504990,0.060302734,-0.96759033,-0.15167236,14.171875,-11.90625,16.5
78,1726929505030,0.06567383,-1.1829224,-0.17437744,29.75,-10.734375,30.0625
79,1726929505070,0.14990234,-1.2090454,-0.22247314,30.890625,-10.34375,34.078125
80,1726929505110,0.06762695,-1.2141724,-0.37261963,42.734375,-2.234375,35.84375
81,1726929505150,0.32226562,-1.048645,-0.49371338,-0.78125,-14.296875,28.0625
82,1726929505190,0.53637695,-1.4104614,-0.96832275,13.40625,-11.171875,16.1875
83,1726929505230,0.70532227,-1.5007935,-0.8362427,16.25,-9.859375,-11.375
84,1726929505270,0.51586914,-1.3547974,-0.8184204,3.28125,-1.6875,-6.546875
85,1726929505310,0.5341797,-1.1152954,-0.73687744,-1.515625,3.515625,-15.8125
86,1726929505350,0.54907227,-1.1514282,-0.6292114,-12.125,14.34375,-10.59375
87,1726929505390,0.30615234,-1.1358032,-0.47979736,-8.609375,9.015625,-11.578125
88,1726929505430,0.2626953,-0.96588135,-0.51446533,-30.1875,5.890625,-23.328125
89,1726929505470,0.2548828,-0.79351807,-0.38482666,-25.0,-0.578125,-22.1875
90,1726929505510,0.13183594,-0.78009033,-0.30255127,-28.578125,3.484375,-18.640625
91,1726929505550,0.046142578,-0.6836548,-0.25445557,-32.609375,4.84375,-23.453125
92,1726929505590,0.051513672,-0.5315552,-0.13043213,-33.515625,1.375,-27.328125
93,1726929505630,-0.001953125,-0.4290161,-0.20831299,-40.484375,3.015625,-24.734375
94,1726929505670,0.083740234,-0.3604126,-0.0335083,-32.140625,4.1875,-24.453125
95,1726929505710,0.012451172,-0.25152588,-0.101379395,-37.21875,6.390625,-23.4375
96,1726929505750,0.057617188,-0.37261963,-0.12188721,-34.734375,6.453125,-22.9375
97,1726929505790,0.12939453,-0.40386963,-0.14508057,-13.796875,3.109375,-18.65625
98,1726929505830,0.14379883,-0.9234009,-0.19586182,-8.515625,-6.25,-3.734375
99,1726929505870,-0.07006836,-1.3152466,-0.15411377,0.015625,-4.859375,1.25
100,1726929505910,0.01928711,-1.0305786,-0.11553955,-5.71875,8.71875,-5.40625
101,1726929505950,0.056640625,-0.89801025,-0.01763916,3.671875,9.46875,2.796875
102,1726929505990,0.010986328,-0.7251587,-0.1038208,6.203125,0.90625,4.421875
103,1726929506030,0.12207031,-0.77130127,-0.085998535,20.9375,2.21875,10.453125
104,1726929506070,0.040283203,-0.80474854,-0.16168213,27.078125,2.3125,19.25
105,1726929506110,0.033935547,-0.5767212,-0.25616455,28.4375,10.140625,22.359375
106,1726929506150,0.21313477,-0.7217407,-0.16217041,39.84375,1.046875,26.5
107,1726929506190,0.1538086,-0.62579346,-0.14678955,34.28125,-6.1875,29.921875
108,1726929506230,-0.008544922,-0.6296997,-0.124816895,29.703125,2.171875,33.4375
109,1726929506270,-0.017578125,-0.567688,-0.3977661,21.515625,-0.75,18.9375
110,1726929506310,0.26123047,-0.6021118,-0.20367432,30.234375,-4.1875,14.109375
111,1726929506350,0.083984375,-0.73101807,-0.21734619,16.765625,-8.25,21.4375
112,1726929506390,0.044433594,-0.79888916,-0.42608643,4.265625,-1.96875,11.5
113,1726929506430,0.36694336,-0.7608032,-0.4187622,0.109375,-20.375,-4.5
114,1726929506470,0.3540039,-0.99420166,-0.3201294,6.8125,-9.265625,4.828125
115,1726929506510,0.2043457,-1.1865845,-0.4758911,-20.765625,-15.65625,2.609375
116,1726929506550,0.14868164,-0.87677,-0.5100708,-7.0,-8.75,-25.953125
117,1726929506590,0.5283203,-1.1289673,-0.5112915,-38.1875,-12.9375,-25.578125
118,1726929506630,0.42700195,-1.140686,-0.4199829,0.0,-12.375,-17.953125
119,1726929506670,0.0,-1.3513794,-0.50909424,-37.875,-3.203125,-16.203125
120,1726929506710,0.25048828,-1.4678345,-0.2637329,-28.53125,0.609375,-47.46875
121,1726929506750,0.029296875,-1.5339966,-0.07720947,-41.78125,14.015625,-15.953125
122,1726929506790,0.084228516,-1.5886841,-0.13800049,-22.5625,8.5,-18.515625
123,1726929506830,0.19067383,-1.4522095,0.062927246,-9.890625,16.90625,-7.421875
124,1726929506870,-0.25268555,-1.0071411,0.13104248,9.0,27.765625,1.0625
125,1726929506910,-0.17358398,-0.8779907,0.10443115,12.0,11.859375,2.0
126,1726929506950,-0.061035156,-0.6838989,0.13079834,1.953125,3.171875,1.078125
127,1726929506990,-0.1977539,-0.90093994,0.07757568,-0.453125,-3.5625,4.8125
128,1726929507030,-0.067871094,-0.8796997,0.011413574,8.890625,-8.578125,2.5625
129,1726929507070,0.018798828,-0.96759033,-0.0005493164,20.546875,-7.34375,13.546875
130,1726929507110,-0.095703125,-1.1001587,-0.02911377,35.75,-6.890625,17.34375
131,1726929507150,-0.0026855469,-1.1895142,0.019470215,39.546875,-5.5625,21.21875
132,1726929507190,0.0087890625,-1.0899048,-0.26324463,34.484375,-9.3125,32.375
133,1726929507230,0.16308594,-1.092102,-0.31207275,36.328125,-12.84375,23.734375
134,1726929507270,0.33251953,-1.5667114,-0.72857666,20.15625,-16.875,32.734375
135,1726929507310,0.6320801,-1.3164673,-0.80181885,21.421875,-18.890625,18.28125
136,1726929507350,0.4116211,-1.5117798,-0.67437744,21.5625,-3.296875,6.0625
137,1726929507390,0.13696289,-1.2227173,-0.7810669,4.84375,-3.828125,0.53125
138,1726929507430,0.6081543,-1.2337036,-0.6524048,3.140625,-2.203125,-6.984375
139,1726929507470,0.50219727,-1.1851196,-0.5466919,-2.109375,11.15625,3.140625
140,1726929507510,0.11645508,-0.8916626,-0.6511841,-3.734375,5.234375,1.390625
141,1726929507550,0.31420898,-0.8994751,-0.3880005,-7.25,18.359375,-13.4375
142,1726929507590,0.20141602,-1.0015259,-0.32452393,-18.0625,6.375,-7.859375
143,1726929507630,0.07324219,-0.6856079,-0.36236572,-24.09375,9.484375,-11.421875
144,1726929507670,0.1550293,-0.579895,-0.20928955,-30.421875,-4.765625,-18.21875
145,1726929507710,0.2241211,-0.3977661,-0.06109619,-34.4375,-21.578125,-21.296875
146,1726929507750,0.20825195,-0.28375244,-0.19830322,-52.28125,-27.140625,-20.75
147,1726929507790,0.26513672,-0.22320557,-0.26397705,-23.640625,-37.140625,-17.9375
148,1726929507830,0.41479492,-0.48565674,-0.16534424,1.046875,-41.9375,-20.953125
149,1726929507870,0.14208984,-0.75323486,0.061950684,-4.0,-40.953125,-10.421875
150,1726929507910,-0.08105469,-0.8340454,-0.16656494,-18.625,-27.515625,-3.5625
151,1726929507950,0.041992188,-0.7227173,-0.008850098,0.921875,-16.5625,-20.390625
152,1726929507990,0.27124023,-0.8911743,0.08856201,4.046875,-32.828125,-19.796875
153,1726929508030,0.17529297,-0.97198486,-0.02911377,-11.53125,-34.890625,-12.71875
154,1726929508070,0.033203125,-0.95318604,0.013366699,-3.78125,-29.8125,-20.34375
155,1726929508110,-0.033447266,-0.7822876,0.054870605,-1.0625,-33.109375,-33.796875
156,1726929508150,0.035888672,-1.0806274,0.12054443,4.96875,-19.25,-32.921875
157,1726929508190,0.084228516,-1.4429321,-0.39898682,-2.046875,-33.046875,-25.578125
158,1726929508230,0.37524414,-1.3179321,-0.19366455,2.9375,-38.0625,-25.703125
159,1726929508270,0.068847656,-1.0969849,0.085876465,-17.34375,-42.9375,-8.125
160,1726929508310,-0.01171875,-0.6069946,-0.45025635,-35.5625,-60.84375,-15.4375
161,1726929508350,-0.00048828125,-0.56378174,-0.38287354,15.359375,-80.625,-21.421875
162,1726929508390,-0.09008789,-1.180481,-0.11553955,2.046875,-72.65625,-1.65625
163,1726929508430,0.034423828,-1.1367798,-0.29693604,-10.46875,-91.578125,-5.59375
164,1726929508470,-0.033447266,-0.8374634,-0.43023682,-7.640625,-105.09375,-1.328125
165,1726929508510,-0.053466797,-0.98223877,-0.30963135,-0.078125,-117.171875,-4.53125
166,1726929508550,-0.099609375,-0.9993286,-0.3538208,-17.3125,-129.5625,-2.171875
167,1726929508590,-0.072753906,-0.9143677,-0.47564697,-19.21875,-128.92188,-11.140625
168,1726929508630,0.07080078,-0.90948486,-0.4529419,-12.640625,-141.09375,-1.984375
169,1726929508670,-0.0009765625,-0.9326782,-0.58184814,-13.390625,-162.14062,9.421875
170,1726929508710,-0.061035156,-1.0671997,-0.506897,-10.578125,-157.1875,1.5625
171,1726929508750,-0.15795898,-1.3372192,-0.18829346,2.625,-163.64062,5.09375
172,1726929508790,0.07519531,-0.98516846,-0.2539673,-19.765625,-128.42188,1.265625
173,1726929508830,0.22290039,-1.0498657,0.0045776367,-23.640625,-123.53125,0.765625
174,1726929508870,-0.16430664,-0.9307251,-0.20147705,-9.609375,-125.453125,-4.0
175,1726929508910,-0.1928711,-0.67144775,-0.06329346,-6.96875,-109.09375,-15.0625
176,1726929508950,0.13452148,-0.769104,-0.026428223,-0.1875,-113.46875,-11.375
177,1726929508990,0.22802734,-0.97076416,0.036071777,6.125,-108.390625,-2.78125
178,1726929509030,0.030517578,-0.96417236,0.008239746,-4.3125,-113.375,-1.765625
179,1726929509070,-0.02368164,-0.9776001,-0.04449463,2.046875,-112.296875,-9.28125
180,1726929509110,0.10839844,-1.0015259,0.0138549805,0.46875,-106.96875,-8.421875
181,1726929509150,0.42407227,-1.0847778,0.035095215,-6.0625,-116.578125,3.5
182,1726929509190,0.2788086,-1.0894165,-0.058654785,-18.015625,-126.421875,12.1875
183,1726929509230,-0.3557129,-1.2649536,-0.4373169,-7.5625,-116.4375,19.15625
184,1726929509270,-0.27929688,-1.0501099,-0.082336426,-6.671875,-109.265625,0.671875
185,1726929509310,-0.4050293,-0.98101807,-0.30548096,-13.40625,-90.75,11.21875
186,1726929509350,-0.59472656,-0.97613525,-0.3574829,7.28125,-90.671875,-2.40625
187,1726929509390,-0.30541992,-1.0132446,-0.14239502,-1.25,-72.265625,-19.5
188,1726929509430,-0.015136719,-1.0857544,-0.09088135,-2.375,-72.75,8.921875
189,1726929509470,-0.2019043,-0.9343872,-0.19366455,-6.703125,-88.96875,12.21875
190,1726929509510,-0.31176758,-0.8167114,-0.20733643,-4.046875,-82.421875,5.125
191,1726929509550,-0.025878906,-0.9859009,-0.14678955,2.796875,-86.578125,3.171875
192,1726929509590,-0.0048828125,-1.029602,-0.2559204,0.0,-95.703125,12.734375
193,1726929509630,-0.20483398,-1.0789185,-0.15557861,3.5,-105.71875,10.890625
194,1726929509670,-0.01928711,-0.9607544,-0.33135986,-13.09375,-117.4375,3.71875
195,1726929509710,0.0043945312,-0.82769775,-0.37652588,-9.46875,-126.453125,3.484375
196,1726929509750,0.018554688,-0.91900635,-0.331604,-7.703125,-140.0625,9.765625
197,1726929509790,0.0012207031,-0.99664307,-0.2000122,0.609375,-134.64062,12.84375
198,1726929509830,-0.037841797,-1.6157837,-0.058654785,24.765625,-107.8125,21.265625
199,1726929509870,0.3371582,-1.3782349,0.23968506,11.671875,-95.03125,6.40625
200,1726929509910,0.17919922,-1.0322876,-0.053527832,-11.53125,-101.375,9.65625
201,1726929509950,-0.20214844,-0.66119385,0.0026245117,3.125,-104.953125,-9.359375
202,1726929509990,0.029541016,-0.45880127,-0.024719238,-1.859375,-92.859375,-14.125
203,1726929510030,0.3059082,-0.90802,0.11419678,18.90625,-85.921875,1.375
204,1726929510070,-0.03491211,-1.2241821,0.15203857,7.984375,-93.25,-3.390625
205,1726929510110,0.009033203,-0.8845825,-0.016174316,-2.390625,-84.40625,-21.0625
206,1726929510150,0.14648438,-0.91851807,0.12420654,5.828125,-80.484375,-15.515625
207,1726929510190,0.024414062,-1.022522,0.15911865,3.828125,-84.734375,-7.390625
208,1726929510230,0.12841797,-1.0735474,0.09295654,-6.53125,-84.546875,-13.390625
209,1726929510270,-0.017089844,-1.5901489,-0.4331665,-3.9375,-93.109375,3.1875
210,1726929510310,-0.13867188,-1.086731,-0.09039307,-15.953125,-90.984375,5.4375
211,1726929510350,-0.74487305,-1.1499634,-0.39630127,-8.40625,-67.5625,19.5
212,1726929510390,-0.35620117,-0.8587036,-0.21099854,-3.578125,-86.34375,-37.765625
213,1726929510430,0.037109375,-0.8423462,-0.059387207,-5.71875,-54.765625,-5.46875
214,1726929510470,-0.06298828,-0.86431885,-0.24029541,-16.390625,-71.46875,17.484375
215,1726929510510,-0.31884766,-0.7329712,-0.2756958,-0.03125,-79.625,7.078125
216,1726929510550,-0.30981445,-1.0408325,-0.11871338,-6.90625,-75.171875,-8.53125
217,1726929510590,-0.13549805,-1.1809692,-0.08258057,-8.75,-79.015625,-0.53125
218,1726929510630,-0.1472168,-0.9746704,-0.1572876,-16.421875,-80.59375,5.953125
219,1726929510670,-0.16796875,-0.88604736,-0.25372314,-5.640625,-89.453125,3.984375
220,1726929510710,-0.096191406,-0.9788208,-0.12506104,-7.0625,-90.5625,6.609375
221,1726929510750,-0.20043945,-0.96466064,-0.2649536,-13.296875,-99.484375,6.703125
222,1726929510790,-0.14575195,-0.83551025,-0.2954712,-7.734375,-105.84375,6.5625
223,1726929510830,-0.12426758,-0.9143677,-0.3213501,-2.03125,-114.328125,11.71875
224,1726929510870,-0.046142578,-1.2390747,-0.10699463,3.46875,-125.484375,9.03125
225,1726929510910,-0.043701172,-1.6184692,0.09588623,-1.78125,-100.078125,14.203125
226,1726929510950,0.21557617,-1.0276489,-0.0068969727,-13.953125,-81.875,8.640625
227,1726929510990,0.35009766,-0.84576416,0.14178467,-5.59375,-86.8125,15.46875
228,1726929511030,-0.07446289,-0.90509033,-0.08673096,-13.078125,-97.625,10.171875
229,1726929511070,-0.12963867,-0.72198486,0.06585693,2.140625,-85.59375,1.625
230,1726929511110,0.3930664,-0.90753174,0.1720581,-0.765625,-96.40625,5.75
231,1726929511150,0.19726562,-1.0071411,0.02508545,-4.578125,-102.15625,1.328125
232,1726929511190,0.0690918,-0.9578247,0.08026123,-3.0,-95.109375,-1.90625
233,1726929511230,0.1796875,-0.8948364,-0.0256958,-1.59375,-106.578125,-1.734375
234,1726929511270,0.106933594,-0.8098755,-0.04425049,2.40625,-107.421875,-3.015625
235,1726929511310,0.12402344,-1.0261841,-0.061584473,-2.21875,-113.34375,0.09375
236,1726929511350,0.1953125,-1.1401978,0.16741943,-11.71875,-118.078125,7.3125
237,1726929511390,-0.13720703,-1.2476196,-0.13458252,-32.96875,-124.515625,10.0
238,1726929511430,-0.25048828,-1.3308716,-0.5112915,-17.09375,-122.234375,2.125
239,1726929511470,-0.56274414,-0.7373657,-0.25152588,-3.375,-90.46875,9.109375
240,1726929511510,-0.6345215,-0.81817627,-0.19195557,13.359375,-78.015625,-8.796875
241,1726929511550,-0.18676758,-0.7817993,-0.05255127,8.75,-93.09375,-20.375
242,1726929511590,0.0014648438,-0.89849854,-0.1428833,-9.03125,-87.9375,23.6875
243,1726929511630,-0.2109375,-1.0029907,-0.30255127,0.125,-118.453125,14.0625
244,1726929511670,-0.4885254,-1.0078735,-0.19683838,0.453125,-110.75,6.109375
245,1726929511710,-0.19506836,-1.0601196,-0.2649536,-9.265625,-103.40625,-1.28125
246,1726929511750,-0.026855469,-0.96759033,-0.2498169,-1.265625,-114.171875,5.125
247,1726929511790,-0.20239258,-0.91900635,-0.33892822,-8.0,-117.703125,11.09375
248,1726929511830,-0.17626953,-0.9976196,-0.3723755,-9.953125,-124.421875,1.109375
249,1726929511870,-0.0769043,-0.9907837,-0.409729,-13.546875,-129.01562,5.984375
250,1726929511910,-0.010986328,-0.960022,-0.47491455,-11.984375,-139.54688,11.984375
251,1726929511950,-0.019042969,-1.0762329,-0.37750244,-8.640625,-154.64062,14.59375
252,1726929511990,-0.18261719,-1.4346313,-0.24664307,-2.515625,-147.01562,21.15625
253,1726929512030,-0.12866211,-1.1350708,0.0006713867,-5.875,-114.296875,24.296875
254,1726929512070,0.053222656,-0.9636841,0.031433105,-10.65625,-108.28125,17.078125
255,1726929512110,-0.107666016,-0.9002075,-0.1687622,3.34375,-114.640625,5.765625
256,1726929512150,-0.056152344,-0.97320557,0.0028686523,6.28125,-106.921875,-2.15625
257,1726929512190,0.15136719,-0.91070557,-0.077697754,-0.640625,-101.78125,5.578125
258,1726929512230,0.1105957,-0.75616455,0.031921387,10.890625,-102.234375,-1.390625
259,1726929512270,-0.0949707,-0.956604,-0.008850098,10.1875,-96.296875,-7.90625
260,1726929512310,0.107421875,-1.0315552,0.12200928,-0.4375,-97.453125,-15.078125
261,1726929512350,0.055419922,-0.9483032,0.11419678,-1.265625,-94.390625,-10.6875
262,1726929512390,0.07543945,-0.9451294,0.15081787,-3.25,-97.109375,-11.546875
263,1726929512430,0.2109375,-0.86431885,0.15374756,-8.578125,-92.8125,-2.46875
264,1726929512470,0.19433594,-0.81134033,-0.011047363,-13.3125,-100.3125,3.03125
265,1726929512510,0.012939453,-1.2092896,-0.28399658,-23.015625,-113.84375,0.515625
266,1726929512550,-0.07397461,-1.2991333,-0.4102173,-19.953125,-110.125,15.265625
267,1726929512590,-0.36279297,-1.1123657,-0.24932861,-3.21875,-81.859375,21.3125
268,1726929512630,-0.36743164,-1.081604,-0.26593018,-2.8125,-92.890625,-9.046875
269,1726929512670,-0.11425781,-1.050354,-0.020080566,-5.75,-85.578125,-12.65625
270,1726929512710,0.10668945,-1.0130005,-0.18927002,-15.078125,-95.21875,13.984375
271,1726929512750,-0.11010742,-0.8858032,-0.14312744,-3.0625,-106.6875,10.46875
272,1726929512790,-0.28710938,-0.97906494,-0.09210205,-2.15625,-102.859375,2.375
273,1726929512830,-0.08251953,-0.9570923,-0.17315674,-17.390625,-105.9375,-1.03125
274,1726929512870,-0.05517578,-1.0120239,-0.16949463,-4.703125,-101.0625,12.6875
275,1726929512910,-0.107177734,-0.93829346,-0.17095947,-0.515625,-108.265625,14.796875
276,1726929512950,-0.106933594,-0.98687744,-0.12310791,-3.859375,-110.828125,17.828125
277,1726929512990,-0.095947266,-0.97052,-0.2871704,-10.171875,-115.84375,19.3125
278,1726929513030,-0.036621094,-0.86309814,-0.30621338,1.375,-118.21875,15.3125
279,1726929513070,0.022949219,-1.0842896,-0.40631104,-8.328125,-128.48438,14.984375
280,1726929513110,-0.17822266,-1.3257446,-0.07501221,18.78125,-125.0625,26.546875
281,1726929513150,-0.20458984,-1.1192017,0.11663818,23.109375,-95.578125,21.65625
282,1726929513190,0.10083008,-0.93585205,0.11053467,-0.125,-82.140625,0.0625
283,1726929513230,0.12036133,-1.1362915,0.30584717,3.640625,-67.640625,7.4375
284,1726929513270,-0.09033203,-0.8284302,-0.021057129,3.828125,-76.0625,-0.265625
285,1726929513310,0.047851562,-0.80133057,0.09661865,16.234375,-64.234375,-1.46875
286,1726929513350,0.0925293,-1.0420532,0.22918701,10.875,-68.03125,-12.359375
287,1726929513390,0.07348633,-0.98394775,0.13568115,-4.609375,-64.375,-8.75
288,1726929513430,0.10498047,-0.8118286,0.03289795,-0.609375,-65.203125,-5.734375
289,1726929513470,0.01171875,-0.8855591,0.07684326,1.625,-62.328125,-1.734375
290,1726929513510,-0.028320312,-0.9360962,-0.113586426,-6.203125,-58.0,-1.25
291,1726929513550,-0.060791016,-1.2630005,-0.18243408,-1.953125,-69.296875,-11.765625
292,1726929513590,-0.6062012,-1.2874146,-0.05255127,10.5,-37.484375,9.578125
293,1726929513630,-0.7355957,-0.9312134,-0.022766113,-5.5625,-12.828125,-19.5
294,1726929513670,-0.23999023,-0.7842407,-0.08355713,7.0,-16.265625,-39.140625
295,1726929513710,-0.025146484,-1.1734009,0.0138549805,-7.0,-6.765625,-0.609375
296,1726929513750,-0.13867188,-1.0195923,-0.046203613,-6.359375,-15.515625,0.796875
297,1726929513790,-0.4182129,-0.7202759,-0.08526611,-5.71875,-8.28125,-4.796875
298,1726929513830,-0.35205078,-0.84820557,-0.10308838,2.96875,9.265625,-7.796875
299,1726929513870,-0.115722656,-0.7703247,-0.1663208,13.375,18.78125,2.125
300,1726929513910,-0.06933594,-0.5264282,-0.16070557,16.53125,14.28125,12.265625
301,1726929513950,-0.08129883,-0.7268677,-0.12310791,18.125,8.21875,11.6875
302,1726929513990,-0.1784668,-0.6592407,-0.101867676,24.1875,9.5,16.96875
303,1726929514030,-0.044921875,-0.32598877,-0.23834229,32.375,4.609375,28.4375
304,1726929514070,0.3010254,-0.42852783,-0.10455322,33.453125,7.640625,25.25
305,1726929514110,0.11279297,-0.87677,-0.21002197,27.390625,-15.0,23.453125
306,1726929514150,-0.10571289,-1.1965942,-0.2420044,5.1875,-12.890625,17.125
307,1726929514190,0.28100586,-0.9717407,-0.270813,1.375,-17.75,14.5
308,1726929514230,0.08666992,-0.9663696,-0.29522705,21.078125,-5.171875,30.015625
309,1726929514270,0.22875977,-0.84991455,-0.30718994,22.203125,-18.890625,12.734375
310,1726929514310,0.23999023,-1.1514282,-0.30889893,2.0,-7.671875,11.390625
311,1726929514350,0.35351562,-0.99224854,-0.40533447,-10.859375,-17.859375,-1.5
312,1726929514390,0.33007812,-1.0923462,-0.38238525,-10.71875,-9.15625,6.0
313,1726929514430,0.17333984,-1.0632935,-0.41192627,-20.484375,-32.03125,-7.59375
314,1726929514470,0.26391602,-1.3904419,-0.16802979,-6.71875,-4.953125,-10.828125
315,1726929514510,0.08154297,-1.3311157,-0.347229,-24.484375,-10.890625,-12.25
316,1726929514550,0.3461914,-1.270813,0.007507324,-33.828125,-1.75,-29.34375
317,1726929514590,0.11425781,-1.5335083,-0.10748291,-32.28125,-9.171875,-24.328125
318,1726929514630,-0.024902344,-1.3496704,0.062683105,-28.921875,12.515625,-40.6875
319,1726929514670,0.08691406,-1.31427,0.011413574,-23.171875,3.421875,-13.6875
320,1726929514710,-0.06713867,-1.1299438,0.31292725,7.03125,21.390625,-1.046875
321,1726929514750,-0.29541016,-0.89141846,0.13787842,-6.859375,15.046875,7.96875
322,1726929514790,-0.16625977,-0.76348877,-0.0056762695,-2.109375,3.796875,-5.296875
323,1726929514830,0.10546875,-0.8792114,0.18572998,5.890625,7.203125,5.203125
324,1726929514870,-0.13061523,-0.82403564,0.12860107,2.09375,5.03125,11.34375
325,1726929514910,-0.25390625,-0.74664307,0.062438965,10.90625,-2.453125,4.015625
326,1726929514950,-0.0068359375,-0.9011841,0.12860107,21.4375,-1.328125,14.4375
327,1726929514990,0.024902344,-1.0476685,0.022644043,29.78125,6.328125,26.46875
328,1726929515030,-0.010986328,-1.2105103,-0.034973145,39.03125,5.109375,34.4375
329,1726929515070,0.13671875,-1.1299438,-0.117492676,40.078125,2.765625,34.21875
330,1726929515110,0.1081543,-1.218811,-0.175354,35.8125,-1.890625,28.921875
331,1726929515150,0.27246094,-1.2163696,-0.34918213,32.875,-6.203125,21.5625
332,1726929515190,0.53930664,-1.36969,-0.5852661,16.546875,-6.75,25.75
333,1726929515230,0.6040039,-1.4387817,-0.64556885,20.796875,-5.671875,13.796875
334,1726929515270,0.5048828,-1.3189087,-0.6067505,11.59375,-2.4375,10.078125
335,1726929515310,0.45751953,-1.0806274,-0.60357666,4.1875,-5.34375,1.25
336,1726929515350,0.52978516,-1.0615845,-0.51641846,1.890625,0.734375,3.34375
337,1726929515390,0.4128418,-1.0222778,-0.44488525,0.296875,4.125,-0.515625
338,1726929515430,0.42089844,-0.9229126,-0.40216064,0.6875,4.59375,-3.671875
339,1726929515470,0.3605957,-0.9819946,-0.380188,-11.21875,0.640625,-6.34375
340,1726929515510,0.22045898,-0.880188,-0.2925415,-11.625,3.0,-12.359375
341,1726929515550,0.2133789,-0.72735596,-0.27642822,-25.953125,3.71875,-16.0
342,1726929515590,0.18139648,-0.6567993,-0.18292236,-17.375,2.890625,-16.734375
343,1726929515630,0.19848633,-0.6734009,-0.19830322,-33.609375,1.6875,-19.796875
344,1726929515670,0.20629883,-0.6235962,-0.24127197,-41.453125,-0.90625,-24.8125
345,1726929515710,0.16894531,-0.68218994,-0.09625244,-35.515625,-0.984375,-29.0625
346,1726929515750,0.17773438,-0.74957275,-0.17120361,-52.625,-15.4375,-30.109375
347,1726929515790,0.17138672,-0.6514282,-0.016418457,-46.203125,-7.5,-36.953125
348,1726929515830,0.08203125,-0.48199463,-0.05328369,-39.015625,0.34375,-33.421875
349,1726929515870,0.037597656,-0.362854,-0.15411377,-33.984375,-7.6875,-32.484375
350,1726929515910,0.111572266,-0.7649536,0.020935059,-27.34375,-11.65625,-21.421875
351,1726929515950,0.053710938,-1.4053345,0.17010498,-39.78125,-28.71875,-14.796875
352,1726929515990,-0.19799805,-0.9644165,0.12420654,-33.203125,-7.25,-26.078125
353,1726929516030,-0.2685547,-0.78326416,0.0524292,-17.671875,5.625,-25.640625
354,1726929516070,-0.19018555,-0.9351196,0.22698975,-2.40625,7.84375,-12.03125
355,1726929516110,-0.025146484,-1.0186157,0.27825928,-2.21875,-5.125,-9.984375
356,1726929516150,-0.055908203,-0.894104,0.1906128,-6.734375,-0.125,-8.421875
357,1726929516190,-0.103759766,-0.94244385,0.21038818,-7.359375,0.265625,-0.734375
358,1726929516230,-0.19458008,-0.9854126,0.2694702,-2.453125,-2.40625,0.09375
359,1726929516270,-0.22851562,-0.92852783,0.21624756,-2.78125,-2.78125,-2.90625
360,1726929516310,-0.1772461,-0.9541626,0.14886475,15.296875,-5.8125,12.03125
361,1726929516350,-0.14257812,-0.8845825,0.08856201,16.484375,-1.296875,15.09375
362,1726929516390,-0.118652344,-0.8843384,0.105407715,26.4375,-4.046875,20.828125
363,1726929516430,-0.08276367,-0.8904419,0.05267334,22.890625,-8.9375,21.3125
364,1726929516470,-0.0146484375,-0.85479736,-0.022766113,27.25,-10.59375,24.203125
365,1726929516510,0.052001953,-0.70269775,-0.02911377,34.015625,-9.03125,31.96875
366,1726929516550,0.018310547,-0.6494751,-0.07501221,39.828125,-11.5625,37.234375
367,1726929516590,0.03881836,-0.70098877,-0.081848145,46.890625,-8.9375,36.0
368,1726929516630,0.17773438,-0.67755127,-0.15020752,36.46875,-18.890625,37.015625
369,1726929516670,0.060791016,-0.66241455,-0.101623535,40.078125,-9.046875,31.296875
370,1726929516710,0.07470703,-0.70196533,-0.17852783,26.953125,-11.0625,24.0
371,1726929516750,0.06640625,-0.77911377,-0.1885376,25.9375,-9.453125,10.703125
372,1726929516790,0.1105957,-0.9077759,-0.10015869,12.90625,-6.65625,12.609375
373,1726929516830,0.028808594,-0.8062134,-0.3706665,7.859375,-3.609375,-4.265625
374,1726929516870,0.33935547,-0.9885864,-0.2798462,-5.515625,-14.1875,-13.203125
375,1726929516910,0.38256836,-1.071106,-0.15679932,6.46875,-14.390625,-7.546875
376,1726929516950,0.083984375,-1.1607056,-0.38775635,-16.6875,-8.140625,14.484375
377,1726929516990,0.1652832,-0.6538696,-0.34625244,-11.046875,-15.0625,-33.71875
378,1726929517030,0.10253906,-1.2901001,-0.49908447,-16.1875,-15.609375,-0.3125
379,1726929517070,0.53100586,-1.2097778,-0.35821533,-16.28125,-23.421875,-43.3125
380,1726929517110,0.21972656,-1.6294556,-0.2144165,-27.859375,1.546875,4.4375
381,1726929517150,-0.11010742,-1.0842896,-0.3723755,-44.609375,-14.671875,-49.640625
382,1726929517190,0.23925781,-1.4807739,0.19525146,-28.015625,9.421875,-23.328125
383,1726929517230,0.0014648438,-1.0562134,-0.18463135,-41.109375,-2.40625,-36.109375
384,1726929517270,0.078125,-1.2488403,0.1906128,-12.015625,-7.0625,-26.984375
385,1726929517310,-0.11279297,-1.3789673,0.016296387,-35.984375,-11.546875,-22.921875
386,1726929517350,-0.17919922,-1.2276001,0.42230225,0.28125,29.9375,-21.015625
387,1726929517390,-0.3486328,-0.8916626,0.093933105,-12.515625,28.390625,-11.296875
388,1726929517430,0.17578125,-0.82818604,0.17108154,-4.671875,-10.125,-14.40625
389,1726929517470,-0.025878906,-1.0881958,0.20452881,-6.546875,1.796875,3.140625
390,1726929517510,-0.31518555,-0.86553955,0.15740967,-10.390625,0.375,-15.796875
391,1726929517550,-0.2607422,-0.736145,0.32244873,0.078125,5.796875,-14.75
392,1726929517590,-0.27734375,-0.72369385,0.27752686,-3.28125,-1.953125,-11.578125
393,1726929517630,-0.37573242,-1.0115356,0.30755615,-7.9375,5.828125,-8.3125
394,1726929517670,-0.24707031,-1.0215454,0.05999756,-9.03125,-0.171875,2.953125
395,1726929517710,0.09838867,-1.1755981,0.230896,-1.390625,-8.140625,4.203125
396,1726929517750,-0.24902344,-1.0664673,0.06732178,17.34375,18.21875,14.0625
397,1726929517790,-0.2529297,-0.89849854,0.15545654,0.453125,-2.734375,-10.875
398,1726929517830,-0.16235352,-1.0095825,0.26507568,-3.25,-6.25,-6.3125
399,1726929517870,-0.27197266,-0.84747314,0.025817871,-9.65625,-9.03125,-2.203125
400,1726929517910,-0.359375,-0.94122314,0.081970215,2.96875,-12.96875,-8.609375
401,1726929517950,-0.10522461,-1.0703735,0.14105225,-5.859375,-10.203125,1.21875
402,1726929517990,0.024169922,-1.0054321,0.1083374,-1.5,4.671875,13.46875
403,1726929518030,-0.09863281,-1.0054321,0.09979248,2.328125,-8.484375,3.5
404,1726929518070,-0.28198242,-0.9932251,0.14276123,-3.484375,-3.5,-2.75
405,1726929518110,-0.2084961,-0.9517212,0.047058105,-4.953125,4.984375,4.078125
406,1726929518150,-0.09082031,-0.91412354,0.14471436,0.796875,-1.875,2.265625
407,1726929518190,-0.18847656,-1.0718384,0.09979248,-10.421875,-3.71875,-0.78125
408,1726929518230,-0.22753906,-1.0457153,0.12298584,-13.953125,-1.765625,-6.4375
409,1726929518270,-0.15332031,-1.0498657,0.16571045,-21.015625,5.9375,-18.015625
410,1726929518310,-0.14770508,-1.0098267,0.11468506,-25.421875,8.921875,-18.8125
411,1726929518350,-0.1328125,-0.90338135,0.14349365,-23.6875,7.296875,-20.4375
412,1726929518390,-0.109375,-0.94903564,0.184021,-26.4375,4.4375,-19.375
413,1726929518430,-0.17456055,-0.9092407,0.2267456,-37.25,10.75,-23.125
414,1726929518470,-0.1496582,-0.88482666,0.24481201,-35.859375,10.21875,-22.578125
415,1726929518510,-0.2614746,-0.7954712,0.24627686,-32.09375,17.0,-22.609375
416,1726929518550,-0.27001953,-0.78326416,0.369812,-26.03125,10.078125,-23.109375
417,1726929518590,-0.3017578,-0.80718994,0.40740967,-34.46875,10.109375,-23.09375
418,1726929518630,-0.28686523,-0.77056885,0.5663452,-29.59375,17.0,-25.640625
419,1726929518670,-0.43066406,-0.74664307,0.42718506,-23.09375,9.390625,-25.921875
420,1726929518710,-0.29858398,-0.6494751,0.65911865,-20.015625,7.171875,-32.40625
421,1726929518750,-0.38354492,-0.55352783,0.701355,-27.09375,8.4375,-21.65625
422,1726929518790,-0.4169922,-0.5679321,0.71380615,-32.125,1.734375,-28.640625
423,1726929518830,-0.53637695,-0.47930908,0.9242554,-33.546875,5.25,-24.203125
424,1726929518870,-0.69750977,-0.31134033,0.94281006,-29.140625,1.78125,-18.9375
425,1726929518910,-0.6147461,-0.3267212,0.9164429,-24.765625,2.046875,-11.6875
426,1726929518950,-0.63012695,-0.23760986,1.0123901,-23.484375,5.984375,-14.359375
427,1726929518990,-0.56884766,-0.105773926,0.8432007,-27.171875,15.59375,-17.65625
428,1726929519030,-0.33496094,-0.2390747,0.696228,-8.3125,-7.15625,-5.921875
429,1726929519070,-0.65600586,-0.5132446,0.918396,37.359375,-9.1875,23.4375
430,1726929519110,-0.6008301,-0.60943604,0.8217163,33.921875,-13.09375,22.875
431,1726929519150,-0.58203125,-0.51885986,0.76361084,30.46875,-6.515625,25.515625
432,1726929519190,-0.5410156,-0.5022583,0.6132202,30.484375,-13.5,22.84375
433,1726929519230,-0.32641602,-0.5588989,0.527771,28.796875,3.8125,23.921875
434,1726929519270,-0.4946289,-0.65045166,0.52020264,25.78125,-16.671875,20.859375
435,1726929519310,-0.32470703,-0.7178345,0.4442749,23.828125,2.65625,16.390625
436,1726929519350,-0.5,-0.78863525,0.5770874,30.421875,0.28125,18.28125
437,1726929519390,-0.35083008,-0.85162354,0.38372803,20.875,-13.875,13.46875
438,1726929519430,-0.32788086,-0.86602783,0.47088623,33.90625,0.484375,18.296875
439,1726929519470,-0.3569336,-0.850647,0.40960693,41.390625,-5.0,31.0625
440,1726929519510,-0.2487793,-0.8711548,0.3366089,50.546875,-9.203125,30.84375
441,1726929519550,-0.21508789,-0.8477173,0.36419678,51.796875,0.703125,40.546875
442,1726929519590,-0.23950195,-0.7896118,0.25482178,59.265625,-8.703125,45.828125
443,1726929519630,-0.21972656,-0.7371216,0.22479248,54.84375,-8.171875,39.71875
444,1726929519670,-0.27075195,-0.87335205,0.15203857,56.59375,-14.53125,47.125
445,1726929519710,-0.122802734,-0.92974854,0.0446167,41.0625,-24.359375,41.921875
446,1726929519750,0.0029296875,-1.15802,-0.18170166,37.46875,-18.046875,37.296875
447,1726929519790,0.17944336,-1.237854,-0.26715088,39.90625,-19.234375,43.921875
448,1726929519830,0.34521484,-1.3626099,-0.33868408,34.265625,-17.796875,45.21875
449,1726929519870,0.42260742,-1.5479126,-0.7451782,18.328125,-25.5625,36.796875
450,1726929519910,0.7409668,-1.357727,-0.51446533,35.859375,-1.8125,30.640625
451,1726929519950,0.37524414,-1.1672974,-0.5796509,28.53125,-4.40625,31.03125
452,1726929519990,0.34643555,-1.1057739,-0.6013794,22.65625,-4.71875,12.828125
453,1726929520030,0.6347656,-1.0557251,-0.48712158,4.484375,-4.078125,11.21875
454,1726929520070,0.57250977,-1.0335083,-0.5125122,-2.40625,0.78125,4.78125
455,1726929520110,0.36450195,-0.9990845,-0.44586182,-0.609375,4.609375,-4.890625
456,1726929520150,0.27783203,-0.9612427,-0.3340454,-8.0625,3.34375,-12.21875
457,1726929520190,0.30029297,-0.866272,-0.35430908,-22.9375,5.125,-23.03125
458,1726929520230,0.27392578,-0.80792236,-0.18218994,-14.234375,6.53125,-20.28125
459,1726929520270,0.11669922,-0.67681885,-0.3015747,-31.203125,3.078125,-23.765625
460,1726929520310,0.095703125,-0.5757446,-0.12774658,-28.109375,11.34375,-36.71875
461,1726929520350,0.11010742,-0.5444946,-0.1975708,-38.859375,6.59375,-33.03125
462,1726929520390,0.16552734,-0.40924072,-0.20855713,-34.03125,1.421875,-32.578125
463,1726929520430,0.23510742,-0.34039307,-0.19708252,-39.515625,-16.09375,-25.171875
464,1726929520470,0.23583984,-0.5679321,-0.14459229,-34.78125,-28.328125,-21.015625
465,1726929520510,0.049316406,-0.8753052,0.07269287,-28.984375,-28.6875,-20.65625
466,1726929520550,0.061523438,-1.1611938,0.049743652,-35.359375,-22.8125,-25.875
467,1726929520590,0.10449219,-0.7600708,0.008728027,-35.203125,-9.21875,-24.671875
468,1726929520630,0.052001953,-0.75006104,0.023376465,-20.28125,-8.453125,-10.703125
469,1726929520670,-0.123535156,-1.0303345,0.0836792,-17.796875,-17.28125,2.625
470,1726929520710,-0.20800781,-1.1067505,0.14251709,-20.796875,-14.65625,-12.3125
471,1726929520750,-0.015136719,-0.88726807,0.13909912,-14.859375,-6.015625,-16.703125
472,1726929520790,-0.050048828,-0.86920166,0.12640381,-13.75,-4.484375,-8.1875
473,1726929520830,-0.09643555,-0.96710205,0.27435303,-1.625,-6.328125,-1.375
474,1726929520870,-0.13891602,-1.036438,0.24969482,-7.65625,-3.125,-2.828125
475,1726929520910,-0.083740234,-0.9417114,0.19256592,-2.203125,0.421875,-3.6875
476,1726929520950,-0.075683594,-0.83306885,0.17230225,4.40625,-2.515625,1.34375
477,1726929520990,-0.0234375,-0.9788208,0.16766357,9.875,-10.8125,11.8125
478,1726929521030,0.06298828,-0.98028564,0.19525146,7.125,-17.734375,22.0625
479,1726929521070,0.041992188,-1.0193481,0.25164795,13.6875,-17.65625,29.375
480,1726929521110,-0.099121094,-0.9973755,0.2670288,6.71875,-15.75,23.109375
481,1726929521150,-0.07470703,-0.9380493,0.27166748,6.796875,-14.1875,13.296875
482,1726929521190,-0.043701172,-0.95977783,0.24700928,3.015625,-19.109375,4.40625
483,1726929521230,-0.11206055,-0.9507446,0.27264404,6.09375,-14.1875,-0.921875
484,1726929521270,-0.044921875,-0.9343872,0.22015381,7.296875,-13.125,-1.875
485,1726929521310,-0.02319336,-0.8994751,0.25726318,8.3125,-13.4375,-3.875
486,1726929521350,-0.024414062,-0.89971924,0.29241943,5.0625,-16.9375,-4.5625
487,1726929521390,-0.04736328,-0.9002075,0.24505615,-1.203125,-15.375,-11.328125
488,1726929521430,-0.009521484,-0.9636841,0.19281006,-7.984375,-19.078125,-18.40625
489,1726929521470,-0.1081543,-1.331604,0.17669678,-16.296875,-26.84375,-16.984375
490,1726929521510,-0.23754883,-1.1860962,0.1239624,-5.84375,-17.796875,-16.890625
491,1726929521550,-0.20410156,-1.0271606,-0.013244629,-0.921875,3.34375,-17.34375
492,1726929521590,-0.013427734,-0.897522,0.06732178,9.546875,-7.71875,-18.3125
493,1726929521630,-0.16992188,-0.8862915,0.09686279,11.9375,-3.875,-5.59375
494,1726929521670,-0.19824219,-0.89385986,-0.04107666,0.171875,-7.875,0.03125
495,1726929521710,-0.2709961,-0.87506104,0.002380371,11.703125,-11.46875,-2.578125
496,1726929521750,-0.3798828,-0.99591064,0.020935059,5.6875,-8.375,-7.65625
497,1726929521790,-0.16235352,-0.8999634,0.026062012,7.09375,-10.796875,-3.984375
498,1726929521830,-0.29833984,-1.0012817,-0.008850098,4.328125,-14.40625,4.046875
499,1726929521870,-0.37670898,-0.95562744,0.031433105,2.484375,-11.03125,6.078125
500,1726929521910,-0.28564453,-0.97662354,0.046325684,0.671875,-10.015625,4.8125
501,1726929521950,-0.27416992,-0.9194946,0.01776123,-1.328125,-11.53125,9.59375
502,1726929521990,-0.28955078,-0.9011841,0.08416748,-2.25,-11.65625,7.96875
503,1726929522030,-0.34643555,-0.9356079,0.03363037,-10.546875,-8.921875,7.546875
504,1726929522070,-0.28857422,-0.88067627,0.0072631836,-15.109375,0.65625,2.734375
505,1726929522110,-0.17700195,-0.94537354,0.11444092,-9.203125,0.84375,5.46875
506,1726929522150,-0.21240234,-1.1052856,0.11102295,-16.3125,-16.96875,7.59375
507,1726929522190,-0.3215332,-1.5247192,0.14422607,-21.109375,-15.953125,17.140625
508,1726929522230,0.16992188,-1.5903931,0.22772217,-11.671875,-11.71875,8.140625
509,1726929522270,0.15527344,-0.9993286,0.04437256,-5.9375,-2.671875,12.171875
510,1726929522310,-0.016357422,-0.5042114,-0.0051879883,3.765625,-0.015625,29.96875
511,1726929522350,0.06640625,-0.27789307,-0.0064086914,-4.46875,-15.109375,16.5
512,1726929522390,0.09106445,-0.7229614,0.1239624,-2.5,-24.5,1.921875
513,1726929522430,0.032226562,-1.538147,0.309021,-4.0625,-23.28125,-9.171875
514,1726929522470,-0.016357422,-1.3591919,0.22357178,-9.6875,2.734375,8.5625
515,1726929522510,0.08935547,-0.7542114,0.11102295,-3.90625,-4.984375,2.984375
516,1726929522550,0.034179688,-0.62994385,0.17645264,5.203125,-9.984375,3.03125
517,1726929522590,-0.02709961,-0.9002075,0.19769287,4.09375,-6.796875,4.578125
518,1726929522630,0.1015625,-1.0620728,0.27996826,1.71875,-2.84375,-0.328125
519,1726929522670,0.044677734,-0.9036255,0.22283936,-5.359375,2.140625,-3.65625
520,1726929522710,0.037109375,-0.89263916,0.19500732,3.375,1.40625,-4.96875
521,1726929522750,0.033935547,-0.90338135,0.2164917,2.140625,-6.9375,-10.96875
522,1726929522790,-0.0847168,-0.94195557,0.26190186,-1.734375,-6.359375,-16.21875
523,1726929522830,-0.22973633,-0.9175415,0.25750732,-0.015625,-1.828125,-24.484375
524,1726929522870,-0.27026367,-0.9468384,0.29119873,-0.5625,0.65625,-31.4375
525,1726929522910,-0.3232422,-1.3555298,0.10369873,-4.421875,-13.0,-36.71875
526,1726929522950,0.0014648438,-1.4776001,0.03704834,1.09375,11.703125,-30.140625
527,1726929522990,0.11621094,-0.9776001,0.059509277,6.890625,13.234375,-2.671875
528,1726929523030,0.03515625,-0.55548096,0.05682373,-1.65625,3.1875,-1.734375
529,1726929523070,-0.16748047,-0.46905518,-0.14849854,-1.828125,-22.796875,-6.078125
530,1726929523110,-0.28442383,-1.0261841,-0.085998535,4.546875,-30.703125,-1.546875
531,1726929523150,-0.1303711,-1.6477661,0.11224365,0.234375,-40.734375,-18.234375
532,1726929523190,-0.36914062,-1.204895,0.06561279,-4.21875,-26.46875,10.171875
533,1726929523230,-0.35986328,-0.755188,-0.05279541,-5.75,-25.796875,8.03125
534,1726929523270,-0.16430664,-0.6638794,-0.09576416,3.578125,-40.5625,8.21875
535,1726929523310,-0.09814453,-1.0181274,-0.10870361,-9.765625,-51.03125,13.9375
536,1726929523350,-0.18579102,-1.1187134,-0.073791504,-11.25,-59.46875,11.609375
537,1726929523390,-0.20288086,-1.008606,-0.15045166,-16.890625,-63.125,11.46875
538,1726929523430,-0.1459961,-1.0430298,-0.13995361,-17.734375,-66.421875,12.484375
539,1726929523470,-0.09741211,-1.0039673,-0.17608643,-14.28125,-71.796875,18.03125
540,1726929523510,-0.10644531,-0.9776001,-0.1609497,-17.59375,-80.515625,23.390625
541,1726929523550,-0.15014648,-0.9065552,-0.15557861,-14.234375,-84.046875,24.03125
542,1726929523590,-0.13012695,-0.8201294,-0.14337158,-17.109375,-86.84375,26.03125
543,1726929523630,-0.014160156,-0.96661377,-0.21539307,-21.109375,-105.515625,32.9375
544,1726929523670,0.055419922,-1.5127563,0.15081787,2.265625,-101.140625,32.578125
545,1726929523710,-0.10888672,-1.3152466,0.32318115,4.171875,-79.484375,41.5
546,1726929523750,-0.42163086,-0.92266846,0.018981934,-17.75,-75.9375,21.546875
547,1726929523790,-0.041992188,-0.7197876,0.059020996,7.953125,-78.734375,7.359375
548,1726929523830,0.056640625,-0.87701416,0.019714355,-2.03125,-76.734375,23.53125
549,1726929523870,-0.036376953,-0.9312134,0.16351318,2.015625,-79.78125,21.296875
550,1726929523910,-0.11987305,-0.9517212,0.1552124,-3.359375,-76.828125,3.375
551,1726929523950,-0.13696289,-0.9710083,0.20819092,0.46875,-64.859375,-1.6875
552,1726929523990,-0.01953125,-0.8948364,0.16131592,2.0625,-57.03125,-3.5625
553,1726929524030,0.005859375,-0.9780884,0.25238037,3.71875,-55.078125,-6.75
554,1726929524070,-0.09838867,-0.93878174,0.23236084,1.5,-54.75,-6.546875
555,1726929524110,-0.040771484,-0.8887329,0.25628662,1.5,-51.8125,-9.84375
556,1726929524150,-0.037597656,-0.8430786,0.2567749,1.546875,-49.921875,-11.6875
557,1726929524190,-0.041015625,-0.9517212,0.27874756,1.671875,-49.40625,-7.8125
558,1726929524230,0.0012207031,-0.9907837,0.32244873,-1.421875,-50.21875,-5.53125
559,1726929524270,-0.014404297,-1.0278931,0.36956787,-2.546875,-45.359375,-3.53125
560,1726929524310,-0.17114258,-1.2056274,-0.022277832,-7.5,-57.96875,-2.15625
561,1726929524350,-0.13476562,-1.1296997,-0.18463135,-5.109375,-43.65625,-5.671875
562,1726929524390,-0.010253906,-1.2688599,0.06048584,7.390625,-30.71875,12.84375
563,1726929524430,-0.35766602,-0.85943604,0.030212402,-3.25,-29.296875,-11.46875
564,1726929524470,-0.5234375,-0.8855591,-0.17877197,-6.484375,-14.703125,-9.84375
565,1726929524510,-0.1171875,-0.97662354,-0.077941895,5.15625,-13.125,-0.96875
566,1726929524550,-0.17919922,-0.8855591,-0.035217285,7.4375,-17.765625,-6.609375
567,1726929524590,-0.42358398,-0.88238525,0.022155762,2.5625,-11.046875,2.171875
568,1726929524630,-0.24487305,-0.92926025,-0.03765869,2.328125,-7.140625,-5.109375
569,1726929524670,-0.29614258,-0.9483032,0.015075684,5.734375,-5.859375,-1.734375
570,1726929524710,-0.21508789,-0.9570923,0.05731201,0.578125,-6.015625,6.21875
571,1726929524750,-0.18359375,-0.91607666,0.050476074,-1.609375,-13.359375,5.75
572,1726929524790,-0.23632812,-0.9290161,0.07733154,-5.4375,-15.453125,8.421875
573,1726929524830,-0.2565918,-0.9109497,0.04559326,-9.046875,-19.140625,10.546875
574,1726929524870,-0.26586914,-0.8880005,-0.00079345703,-14.15625,-17.5625,8.203125
575,1726929524910,-0.3232422,-0.9951782,-0.01373291,-14.234375,-10.546875,4.578125
576,1726929524950,-0.20532227,-1.0906372,0.03704834,-19.859375,-22.78125,4.84375
577,1726929524990,-0.21289062,-1.4541626,0.06097412,-29.84375,-34.34375,13.671875
578,1726929525030,0.19262695,-1.7288208,0.3168335,-11.046875,-23.953125,17.125
579,1726929525070,0.18896484,-0.9578247,0.015075684,-8.1875,-8.96875,11.765625
580,1726929525110,0.056396484,-0.4668579,0.1408081,14.875,-14.25,18.984375
581,1726929525150,0.06323242,-0.5857544,0.08294678,-7.890625,-27.34375,16.65625
582,1726929525190,-0.044677734,-0.9668579,0.11468506,-9.25,-38.75,-2.90625
583,1726929525230,-0.041748047,-1.1887817,0.16864014,-7.625,-19.609375,-10.328125
584,1726929525270,0.10888672,-0.913147,0.21063232,-2.09375,-11.578125,-2.171875
585,1726929525310,0.07763672,-0.7822876,0.21429443,0.75,-17.578125,13.5625
586,1726929525350,0.013183594,-0.8982544,0.30316162,3.4375,-21.6875,1.96875
587,1726929525390,-0.043945312,-0.9624634,0.2897339,-2.125,-13.75,-0.59375
588,1726929525430,-0.052490234,-0.90826416,0.26727295,4.71875,-8.59375,1.578125
589,1726929525470,0.079589844,-0.90753174,0.29681396,2.75,-10.296875,-5.9375
590,1726929525510,0.0859375,-1.0105591,0.22991943,-1.375,-10.015625,-0.171875
591,1726929525550,0.013916016,-0.8682251,0.1359253,6.703125,-14.359375,-2.125
592,1726929525590,-0.024169922,-0.8887329,0.27288818,3.78125,-13.203125,-12.65625
593,1726929525630,-0.2541504,-0.95025635,0.26971436,1.515625,3.921875,-17.96875
594,1726929525670,-0.3876953,-0.9890747,0.23919678,8.65625,4.96875,-27.296875
595,1726929525710,-0.122802734,-0.97857666,0.23406982,8.921875,2.625,-29.765625
596,1726929525750,0.013427734,-1.3711548,0.17669678,-1.234375,-10.578125,-11.03125
597,1726929525790,0.0029296875,-1.5112915,0.23406982,-5.65625,-7.28125,-11.5
598,1726929525830,-0.08935547,-1.0962524,0.15960693,-0.296875,9.296875,-4.3125
599,1726929525870,-0.2590332,-0.57037354,-0.03375244,-0.484375,15.046875,-11.1875
600,1726929525910,-0.15600586,-0.43341064,-0.24957275,-4.46875,1.65625,-7.1875
601,1726929525950,-0.021728516,-0.97369385,-0.120666504,-3.625,-21.703125,-0.796875
602,1726929525990,-0.13842773,-1.5986938,0.07366943,0.984375,-38.75,-0.875
603,1726929526030,-0.29516602,-1.0982056,0.0368042,-12.421875,-19.71875,12.359375
604,1726929526070,-0.25756836,-0.72198486,-0.0049438477,-4.15625,-22.578125,5.21875
605,1726929526110,-0.25073242,-0.8233032,0.007507324,1.03125,-30.265625,3.28125
606,1726929526150,-0.17822266,-1.078186,-0.07159424,-7.046875,-30.265625,8.984375
607,1726929526190,-0.12060547,-1.052063,-0.043762207,-2.75,-38.375,11.25
608,1726929526230,-0.13549805,-0.92755127,-0.037902832,-6.0,-47.5625,15.828125
609,1726929526270,-0.17382812,-1.0149536,0.028747559,-3.078125,-51.0625,16.328125
610,1726929526310,-0.19116211,-1.0401001,0.0028686523,-10.625,-55.203125,19.109375
611,1726929526350,-0.05126953,-1.0042114,-0.07501221,-9.96875,-61.203125,22.25
612,1726929526390,-0.049072266,-1.0466919,-0.06695557,-7.265625,-70.203125,25.0625
613,1726929526430,-0.15332031,-1.0012817,-0.046936035,-12.265625,-74.90625,25.28125
614,1726929526470,-0.19873047,-0.9746704,-0.09088135,-21.078125,-82.390625,23.515625
615,1726929526510,-0.07495117,-1.0171509,-0.024230957,-14.53125,-84.5625,24.828125
616,1726929526550,0.0009765625,-1.1882935,0.08441162,5.4375,-75.203125,30.1875
617,1726929526590,0.28955078,-1.0942993,0.17279053,19.890625,-72.046875,40.28125
618,1726929526630,0.1665039,-0.9710083,0.048034668,2.578125,-70.765625,36.8125
619,1726929526670,0.01953125,-0.927063,-0.004699707,0.453125,-79.53125,16.15625
620,1726929526710,0.09301758,-0.87286377,0.036315918,1.96875,-70.765625,14.09375
621,1726929526750,0.12670898,-0.927063,0.050720215,-0.296875,-67.078125,14.109375
622,1726929526790,0.044921875,-0.9512329,0.15179443,1.234375,-67.015625,11.03125
623,1726929526830,0.057373047,-1.0032349,0.17645264,-0.640625,-68.390625,2.671875
624,1726929526870,0.10864258,-0.95635986,0.16229248,-0.015625,-61.71875,1.078125
625,1726929526910,0.03100586,-0.9194946,0.16571045,0.96875,-60.140625,0.375
626,1726929526950,0.032470703,-0.96466064,0.20184326,1.8125,-56.75,-6.03125
627,1726929526990,0.03930664,-0.94610596,0.215271,-4.234375,-52.796875,-8.34375
628,1726929527030,0.046142578,-0.9417114,0.24603271,4.03125,-47.34375,-6.1875
629,1726929527070,-0.0034179688,-0.94366455,0.25213623,5.75,-43.4375,-3.6875
630,1726929527110,-0.029052734,-0.96343994,0.28070068,6.859375,-38.59375,-6.8125
631,1726929527150,-0.0078125,-0.9446411,0.28631592,7.1875,-35.765625,-6.28125
632,1726929527190,-0.044921875,-0.9663696,0.24969482,5.171875,-30.625,-7.21875
633,1726929527230,-0.0073242188,-0.95513916,0.2814331,13.15625,-26.75,-4.65625
634,1726929527270,0.037597656,-0.8838501,0.31341553,9.90625,-24.90625,-8.328125
635,1726929527310,0.00390625,-0.9673462,0.13568115,-7.34375,-27.546875,-8.140625
636,1726929527350,-0.08154297,-1.248352,0.11126709,-17.109375,-44.28125,-14.703125
637,1726929527390,-0.20336914,-1.0874634,0.09613037,-11.4375,-36.796875,-14.046875
638,1726929527430,-0.25268555,-0.85528564,0.01776123,-1.125,-20.09375,-5.5625
639,1726929527470,-0.2397461,-0.8953247,-0.06549072,-10.25,-17.921875,-13.21875
640,1726929527510,-0.1694336,-1.2537231,0.13079834,-5.484375,-21.75,-6.046875
641,1726929527550,-0.030761719,-1.0144653,0.11273193,0.71875,-27.4375,1.671875
642,1726929527590,-0.29248047,-0.7678833,0.020446777,-0.3125,-26.765625,3.03125
643,1726929527630,-0.40307617,-0.8880005,0.015319824,-0.625,-21.375,-3.6875
644,1726929527670,-0.15258789,-0.9714966,0.03314209,1.25,-25.859375,2.609375
645,1726929527710,-0.18432617,-0.9812622,0.089538574,9.828125,-28.109375,2.671875
646,1726929527750,-0.28979492,-0.95513916,0.07122803,6.890625,-27.84375,4.765625
647,1726929527790,-0.19873047,-0.9812622,0.09588623,1.71875,-25.921875,3.28125
648,1726929527830,-0.1862793,-0.99786377,0.04852295,1.015625,-27.328125,7.390625
649,1726929527870,-0.20825195,-0.96661377,0.105895996,-0.34375,-28.453125,6.453125
650,1726929527910,-0.2121582,-0.9307251,0.039245605,-5.859375,-33.734375,6.53125
651,1726929527950,-0.1965332,-0.9155884,0.08123779,-5.109375,-30.734375,6.9375
652,1726929527990,-0.18774414,-0.98321533,0.047302246,-8.078125,-30.828125,7.625
653,1726929528030,-0.21508789,-1.006897,0.101989746,-9.328125,-27.8125,10.375
654,1726929528070,-0.1977539,-1.0369263,0.14056396,-17.453125,-29.78125,10.15625
655,1726929528110,-0.19384766,-1.1184692,0.16375732,-20.75,-33.421875,12.375
656,1726929528150,-0.25024414,-1.2473755,0.1083374,-23.109375,-30.46875,12.875
657,1726929528190,-0.06958008,-1.3572388,0.1774292,-16.609375,-24.09375,14.546875
658,1726929528230,0.12402344,-0.9690552,0.1954956,3.421875,-17.890625,16.828125
659,1726929528270,0.08251953,-0.49371338,-0.13897705,-7.3125,-26.171875,15.96875
660,1726929528310,0.021484375,-0.3826294,-0.16339111,7.71875,-17.90625,18.328125
661,1726929528350,-0.059814453,-1.1160278,0.19525146,3.203125,-15.75,14.15625
662,1726929528390,-0.06738281,-1.5098267,0.32073975,-22.578125,-15.5,-0.078125
663,1726929528430,-0.015136719,-1.0532837,0.16351318,-7.28125,1.0625,-1.765625
664,1726929528470,-0.028808594,-0.90045166,0.18572998,4.53125,14.921875,-8.6875
665,1726929528510,0.06665039,-0.7974243,0.19232178,10.265625,17.34375,2.703125
666,1726929528550,0.1574707,-0.85479736,0.21380615,11.15625,18.34375,7.015625
667,1726929528590,0.092041016,-0.86602783,0.17669678,4.78125,16.921875,1.984375
668,1726929528630,0.037109375,-0.9939575,0.21160889,4.5625,26.6875,2.328125
669,1726929528670,0.03857422,-1.045227,0.058288574,0.03125,27.921875,-0.90625
670,1726929528710,0.15356445,-1.024231,0.07269287,9.484375,29.0625,-7.984375
671,1726929528750,0.13110352,-0.96954346,0.13763428,9.40625,34.921875,-3.59375
672,1726929528790,0.06762695,-0.9463501,0.113708496,7.734375,37.53125,-4.96875
673,1726929528830,0.09765625,-0.9092407,0.16009521,9.921875,45.015625,-9.515625
674,1726929528870,0.119140625,-0.9673462,0.18157959,10.671875,48.734375,-3.53125
675,1726929528910,0.05859375,-0.8850708,0.2333374,7.421875,53.71875,-6.828125
676,1726929528950,-0.079833984,-0.9089966,0.062683105,-3.40625,61.6875,-11.8125
677,1726929528990,-0.18066406,-1.0891724,-0.11578369,9.265625,55.171875,-18.515625
678,1726929529030,-0.26464844,-1.2490845,-0.34332275,14.65625,45.3125,-25.046875
679,1726929529070,-0.08862305,-1.0110474,-0.37335205,23.4375,67.078125,-15.65625
680,1726929529110,-0.29589844,-0.80596924,-0.23883057,38.015625,83.40625,-11.234375
681,1726929529150,0.08251953,-0.7588501,-0.12335205,21.453125,58.875,-10.71875
682,1726929529190,-0.103515625,-1.0559692,-0.17022705,10.59375,49.390625,0.5625
683,1726929529230,-0.46264648,-1.3567505,-0.18682861,16.59375,46.09375,-12.15625
684,1726929529270,-0.24633789,-1.0054321,-0.1687622,6.015625,47.328125,-16.21875
685,1726929529310,-0.16186523,-0.9644165,-0.10992432,9.09375,38.640625,-8.40625
686,1726929529350,-0.14550781,-0.96661377,0.11981201,-1.21875,-2.96875,-0.21875
687,1726929529390,-0.15893555,-0.97979736,0.11785889,-0.09375,-2.484375,-0.375
688,1726929529430,-0.15332031,-0.9780884,0.116882324,-0.40625,-2.078125,-0.234375
689,1726929529470,-0.1381836,-0.98028564,0.10491943,-1.96875,-2.9375,-1.28125
690,1726929529510,-0.13452148,-0.97979736,0.12420654,-0.046875,-1.9375,-0.578125
691,1726929529550,-0.15722656,-0.9817505,0.11224365,-0.34375,-1.625,-0.25
692,1726929529590,-0.14624023,-0.97906494,0.12347412,0.15625,-0.71875,-0.4375
693,1726929529630,-0.15209961,-0.9866333,0.12030029,-0.359375,-1.109375,0.6875
694,1726929529670,-0.13061523,-0.9795532,0.09857178,-1.8125,-0.265625,-1.328125
695,1726929529710,-0.1484375,-0.9890747,0.11541748,0.125,-1.90625,-1.109375
696,1726929529750,-0.16064453,-0.9751587,0.120788574,-2.546875,0.984375,-1.546875
697,1726929529790,-0.1496582,-0.97735596,0.1251831,0.53125,-0.765625,-0.71875
698,1726929529830,-0.1706543,-0.9656372,0.12786865,-0.390625,2.9375,-1.375
699,1726929529870,-0.22802734,-0.95977783,0.17230225,8.578125,5.359375,2.703125
700,1726929529910,-0.28271484,-0.894104,0.26922607,16.140625,16.890625,5.703125
701,1726929529950,-0.3708496,-0.9277954,0.16497803,27.84375,24.75,14.515625
702,1726929529990,-0.19482422,-0.83258057,-0.109191895,15.640625,1.328125,7.328125
703,1726929530030,0.24194336,-0.9920044,0.230896,31.65625,-5.703125,19.171875
704,1726929530070,-0.16723633,-1.1087036,0.15789795,44.03125,13.9375,31.59375
705,1726929530110,-0.2824707,-0.8323364,-0.0791626,14.9375,-8.15625,20.125
706,1726929530150,0.051513672,-0.9102173,0.022399902,36.265625,-4.5625,27.046875
707,1726929530190,-0.09741211,-1.0391235,-0.12994385,36.953125,0.359375,35.765625
708,1726929530230,0.09790039,-1.0283813,-0.16973877,46.0625,-11.171875,43.015625
709,1726929530270,0.033691406,-1.0261841,-0.29693604,42.1875,8.484375,44.078125
710,1726929530310,0.099853516,-1.1516724,-0.38189697,40.421875,3.828125,43.96875
711,1726929530350,0.5449219,-1.0440063,-0.73760986,31.484375,-13.765625,58.65625
712,1726929530390,0.5270996,-1.156311,-0.6272583,28.15625,-5.53125,16.125
713,1726929530430,0.37304688,-1.2542114,-0.76934814,21.890625,-4.96875,11.640625
714,1726929530470,0.6357422,-1.0901489,-0.7661743,20.96875,-3.984375,3.328125
715,1726929530510,0.57177734,-1.0181274,-0.69073486,15.90625,-1.5625,-2.921875
716,1726929530550,0.43847656,-1.0852661,-0.70635986,0.921875,-1.875,-7.40625
717,1726929530590,0.46166992,-1.0117798,-0.60943604,-13.234375,-0.859375,-17.78125
718,1726929530630,0.4567871,-1.0488892,-0.49468994,-11.734375,0.765625,-11.75
719,1726929530670,0.3330078,-1.0667114,-0.51568604,-22.078125,4.5,-12.578125
720,1726929530710,0.31054688,-1.0020142,-0.4414673,-18.84375,8.203125,-17.25
721,1726929530750,0.34545898,-0.9800415,-0.31671143,-20.609375,9.5,-17.015625
722,1726929530790,0.22583008,-0.8447876,-0.26861572,-32.046875,11.875,-19.34375
723,1726929530830,0.15917969,-0.61846924,-0.2727661,-42.21875,6.734375,-28.0
724,1726929530870,0.13110352,-0.59698486,-0.13873291,-39.59375,2.890625,-30.1875
725,1726929530910,0.08325195,-0.52789307,-0.13311768,-49.5625,2.65625,-34.5
726,1726929530950,0.056640625,-0.5286255,-0.12310791,-49.234375,3.421875,-37.96875
727,1726929530990,0.024902344,-0.5420532,-0.058166504,-45.90625,8.0625,-43.40625
728,1726929531030,0.037597656,-0.33966064,-0.14019775,-40.84375,6.90625,-34.484375
729,1726929531070,0.16577148,-0.3562622,-0.09893799,-28.46875,15.6875,-21.578125
730,1726929531110,-0.049072266,-0.833313,-0.057922363,-25.171875,3.015625,-11.09375
731,1726929531150,-0.06591797,-1.2966919,-0.0491333,-27.328125,-5.578125,-12.90625
732,1726929531190,-0.033935547,-1.0789185,-0.0791626,-22.59375,4.03125,-10.484375
733,1726929531230,-0.007080078,-0.8970337,0.10247803,-6.984375,11.0625,-4.0625
734,1726929531270,-0.11206055,-0.87286377,0.036315918,-3.453125,-1.234375,5.34375
735,1726929531310,-0.013427734,-0.87579346,0.0036010742,13.53125,-8.109375,9.234375
736,1726929531350,0.030517578,-0.8135376,-0.0012817383,27.6875,-10.1875,20.765625
737,1726929531390,-0.026855469,-0.7149048,-0.031311035,36.96875,-10.140625,30.109375
738,1726929531430,0.091308594,-0.614563,-0.14312744,42.421875,-10.671875,37.96875
739,1726929531470,0.09887695,-0.6174927,-0.15411377,51.953125,-13.4375,39.09375
740,1726929531510,0.103759766,-0.6226196,-0.10821533,53.921875,-5.765625,41.21875
741,1726929531550,-0.0546875,-0.5750122,-0.13238525,42.234375,2.96875,41.046875
742,1726929531590,0.018798828,-0.6026001,-0.2498169,25.0,15.640625,15.71875
743,1726929531630,0.2565918,-0.6482544,-0.30499268,34.84375,3.8125,23.140625
744,1726929531670,0.30297852,-0.5598755,-0.28790283,29.375,-4.9375,23.203125
745,1726929531710,0.25634766,-0.8809204,-0.30523682,30.21875,-8.578125,17.53125
746,1726929531750,-0.045166016,-0.8386841,-0.41119385,12.25,-10.015625,8.828125
747,1726929531790,0.50683594,-0.89923096,-0.5088501,-11.125,-8.328125,-3.234375
748,1726929531830,0.18066406,-0.87994385,-0.3147583,31.65625,4.03125,2.6875
749,1726929531870,0.5065918,-1.0269165,-0.76568604,-39.578125,-28.09375,-3.75
750,1726929531910,0.70996094,-1.0930786,-0.16143799,31.859375,-10.75,-0.453125
751,1726929531950,0.28198242,-1.1936646,-0.6929321,-49.4375,-7.171875,-7.34375
752,1726929531990,0.018798828,-0.8648071,-0.616272,21.65625,-3.609375,-41.984375
753,1726929532030,0.6867676,-1.414856,-0.39556885,-53.890625,-9.21875,-7.359375
754,1726929532070,0.36108398,-1.5449829,-0.1675415,-6.71875,5.625,-23.375
755,1726929532110,-0.0715332,-1.404602,-0.317688,-22.953125,-4.90625,-32.75
756,1726929532150,0.18237305,-1.6087036,-0.13360596,-23.984375,2.53125,-15.4375
757,1726929532190,0.045166016,-1.4072876,-0.28155518,0.09375,5.296875,-9.234375
758,1726929532230,-0.1262207,-1.1038208,0.062194824,14.0625,16.21875,1.625
759,1726929532270,-0.20800781,-0.9468384,-0.050109863,4.25,11.78125,-6.03125
760,1726929532310,-0.08886719,-0.7798462,-0.04864502,0.890625,7.1875,-1.484375
761,1726929532350,0.091796875,-0.66534424,-0.0095825195,2.328125,-3.25,-5.9375
762,1726929532390,0.01977539,-0.6987915,-0.097229004,8.953125,-12.765625,7.71875
763,1726929532430,0.060302734,-0.96759033,-0.15167236,14.171875,-11.90625,16.5
764,1726929532470,0.06567383,-1.1829224,-0.17437744,29.75,-10.734375,30.0625
765,1726929532510,0.14990234,-1.2090454,-0.22247314,30.890625,-10.34375,34.078125
