,timestamp,accel_x,accel_y,accel_z,gyro_x,gyro_y,gyro_z
0,1726934558148,-0.32080078,-0.8887329,-0.14654541,1.25,48.0625,0.53125
1,1726934558177,-0.37841797,-0.8826294,-0.1482544,3.828125,49.34375,1.265625
2,1726934558221,-0.38183594,-0.9378052,-0.1416626,4.703125,51.65625,0.546875
3,1726934558274,-0.34204102,-0.9439087,-0.18634033,5.5625,51.765625,0.6875
4,1726934558299,-0.3310547,-0.8909302,-0.17144775,5.625,50.578125,-1.03125
5,1726934558345,-0.3317871,-0.88848877,-0.159729,4.1875,49.265625,2.875
6,1726934558373,-0.2800293,-0.90216064,-0.14068604,0.078125,43.125,3.015625
7,1726934558417,-0.24902344,-1.0100708,-0.097961426,-4.828125,33.625,4.703125
8,1726934558466,-0.24780273,-1.2088013,-0.016906738,-5.296875,20.53125,5.515625
9,1726934558537,-0.2548828,-1.125061,0.31195068,24.859375,49.796875,16.5
10,1726934558553,-0.46972656,-0.72662354,0.11663818,-23.09375,47.359375,12.609375
11,1726934558585,-0.24365234,-0.99005127,0.11053467,9.96875,44.671875,-7.40625
12,1726934558612,-0.11206055,-1.546936,0.27020264,2.65625,46.265625,2.328125
13,1726934558657,-0.10571289,-0.93463135,0.1942749,-7.09375,66.609375,11.21875
14,1726934558706,-0.16308594,-0.7127075,0.11419678,0.390625,65.109375,5.375
15,1726934558733,-0.11645508,-0.75567627,0.09881592,9.3125,62.640625,2.3125
16,1726934558777,-0.04638672,-0.78912354,0.08026123,9.890625,65.890625,-0.0625
17,1726934558824,-0.17260742,-0.7991333,0.0602417,10.078125,73.984375,-3.421875
18,1726934558854,-0.1484375,-0.9483032,0.023620605,13.703125,76.546875,-7.0
19,1726934558897,-0.064697266,-0.9524536,-0.0005493164,19.0625,70.40625,-3.78125
20,1726934558944,-0.078125,-1.0557251,0.070251465,16.953125,71.5,-3.015625
21,1726934558971,-0.115722656,-1.0227661,0.057800293,12.546875,69.078125,-5.515625
22,1726934559018,-0.1274414,-0.96759033,0.05267334,9.03125,65.578125,-5.0625
23,1726934559061,-0.07543945,-0.9788208,0.08392334,13.984375,62.5,0.359375
24,1726934559091,-0.06958008,-0.9302368,0.09564209,12.171875,55.859375,1.234375
25,1726934559137,-0.13012695,-0.9234009,0.13690186,10.375,52.8125,0.671875
26,1726934559167,-0.22363281,-0.8989868,0.17303467,9.6875,56.59375,-1.6875
27,1726934559213,-0.38867188,-0.7852173,0.12005615,5.0625,59.46875,-7.9375
28,1726934559261,-0.37109375,-0.7815552,0.049987793,15.78125,55.34375,-20.1875
29,1726934559287,-0.42529297,-0.8735962,-0.07940674,15.203125,57.53125,-34.03125
30,1726934559332,-0.21801758,-2.0,-0.44561768,36.484375,49.53125,-41.40625
31,1726934559377,0.075683594,-1.1997681,-0.48199463,-0.609375,59.859375,-4.765625
32,1726934559408,0.21459961,-1.3057251,0.31292725,6.96875,56.34375,-7.921875
33,1726934559452,-0.33642578,-1.0772095,-0.08355713,2.765625,44.859375,3.75
34,1726934559528,-0.38061523,-0.81866455,-0.16925049,6.171875,45.71875,-5.765625
35,1726934559545,-0.17895508,-0.87677,-0.11773682,-1.984375,39.0625,-3.234375
36,1726934559572,-0.2019043,-0.8406372,0.023132324,3.21875,24.15625,2.15625
37,1726934559618,-0.20654297,-0.8230591,0.04168701,-0.8125,20.703125,8.046875
38,1726934559647,-0.20678711,-0.7798462,0.10809326,0.96875,12.84375,7.59375
39,1726934559707,-0.30541992,-0.76641846,0.13226318,2.0625,4.109375,9.984375
40,1726934559738,-0.30371094,-0.7481079,0.13690186,-2.6875,0.703125,9.640625
41,1726934559768,-0.2175293,-0.722229,0.12225342,-7.515625,-9.828125,9.6875
42,1726934559812,-0.23657227,-0.9133911,0.16497803,-9.65625,-21.203125,11.25
43,1726934559857,-0.16699219,-0.98443604,0.26239014,-16.296875,-28.703125,12.484375
44,1726934559886,-0.46704102,-1.3809204,0.07537842,-16.859375,-58.390625,-2.828125
45,1726934559932,0.33447266,-1.867981,-0.024963379,40.453125,-35.65625,-0.046875
46,1726934559961,0.8261719,-1.5974731,-0.30059814,-17.515625,-28.671875,12.125
47,1726934560007,-0.4802246,-1.289856,-0.2312622,-17.953125,-22.109375,25.765625
48,1726934560052,-0.22021484,-0.8804321,-0.042053223,-12.0625,-21.71875,-5.734375
49,1726934560097,-0.0107421875,-0.74053955,0.12689209,-12.671875,-20.125,-12.640625
50,1726934560127,-0.12841797,-0.71759033,-0.04522705,-15.265625,-5.0,-5.6875
51,1726934560176,0.07910156,-0.5552368,0.034606934,11.328125,-11.4375,-3.0
52,1726934560203,-0.12768555,-0.76519775,0.09320068,5.203125,-17.8125,-7.140625
53,1726934560246,-0.07543945,-0.9194946,0.20477295,1.65625,-17.65625,-7.46875
54,1726934560293,-0.057861328,-0.7852173,0.1918335,2.25,-10.140625,-3.609375
55,1726934560321,-0.17578125,-0.7678833,0.27142334,6.359375,-10.34375,-8.203125
56,1726934560367,-0.25561523,-0.6826782,0.24822998,2.515625,4.53125,-5.859375
57,1726934560412,-0.30004883,-0.68292236,0.39007568,13.375,11.84375,-11.90625
58,1726934560443,-0.4033203,-0.78009033,0.23651123,8.9375,14.140625,-15.109375
59,1726934560487,0.25439453,-0.9439087,0.10784912,20.984375,-5.734375,-19.375
60,1726934560532,-0.31225586,-1.2420044,0.3619995,23.34375,0.1875,16.25
61,1726934560562,-0.9157715,-1.3911743,0.18670654,2.28125,2.09375,-22.71875
62,1726934560607,0.05078125,-2.0,-0.5991821,-14.625,0.8125,-26.96875
63,1726934560652,-0.38720703,-1.6235962,-0.42803955,1.28125,31.859375,14.703125
64,1726934560685,-0.24194336,-1.0886841,-0.17144775,-14.59375,30.484375,-6.53125
65,1726934560727,-0.1550293,-1.0420532,-0.004699707,-19.046875,16.9375,-19.59375
66,1726934560758,0.041748047,-0.8389282,-0.1519165,-2.578125,10.546875,8.734375
67,1726934560803,-0.1538086,-0.6489868,-0.10821533,-12.046875,-6.28125,16.734375
68,1726934560847,-0.46972656,-0.44317627,-0.04473877,3.53125,-10.3125,-6.390625
69,1726934560877,-0.32299805,-0.71173096,0.0018920898,-5.171875,-6.65625,-1.78125
70,1726934560922,-0.20654297,-0.8118286,0.035827637,-1.03125,-6.546875,8.4375
71,1726934560970,-0.33984375,-0.7998657,0.10882568,-6.640625,-7.203125,7.65625
72,1726934560997,-0.35131836,-0.7654419,0.184021,-8.453125,-8.359375,6.703125
73,1726934561047,-0.34643555,-0.8369751,0.1552124,-5.59375,-6.0,8.1875
74,1726934561087,-0.31420898,-1.0230103,0.1486206,-0.953125,-9.859375,13.0
75,1726934561117,-0.10546875,-1.2925415,0.29803467,-17.625,-22.609375,20.34375
76,1726934561167,-0.31713867,-0.96466064,0.22235107,-12.234375,-25.8125,22.0625
77,1726934561225,-0.5078125,-0.85406494,0.004333496,-15.578125,-41.390625,17.171875
78,1726934561237,0.22216797,-1.7981567,-0.10308838,7.40625,-45.265625,6.9375
79,1726934561281,0.6516113,-1.329895,0.08782959,-9.109375,-20.46875,18.078125
80,1726934561330,-0.44213867,-1.3286743,-0.026672363,-6.859375,-32.0625,5.328125
81,1726934561357,-0.46484375,-0.9517212,0.06878662,-15.375,-15.09375,-10.5625
82,1726934561402,-0.02709961,-0.5093384,0.17010498,-11.0,-6.84375,-11.484375
83,1726934561477,-0.1472168,-0.45611572,0.17303467,-5.921875,-9.5625,-9.984375
84,1726934561494,-0.28466797,-0.6980591,0.20013428,26.859375,24.390625,-5.78125
85,1726934561521,0.11694336,-0.7283325,0.17449951,17.4375,12.734375,-13.796875
86,1726934561553,0.15795898,-0.86676025,0.22088623,7.421875,15.015625,-9.78125
87,1726934561598,-0.08178711,-0.7564087,0.20111084,4.359375,10.0625,-7.046875
88,1726934561642,-0.23632812,-0.78619385,0.20965576,12.9375,5.46875,-18.109375
89,1726934561673,-0.10913086,-1.1157837,0.26654053,7.34375,-0.109375,-15.296875
90,1726934561717,-0.4321289,-1.0264282,0.23797607,7.859375,-0.625,-10.484375
91,1726934561762,-0.6364746,-0.9348755,0.2975464,2.96875,13.53125,-22.265625
92,1726934561794,-0.45629883,-0.7798462,0.24822998,-2.65625,28.671875,-36.75
93,1726934561853,-0.21801758,-1.2109985,-0.1326294,-14.34375,17.21875,-29.75
94,1726934561885,0.0793457,-2.0,-0.5484009,-3.796875,-8.453125,13.671875
95,1726934561915,-0.12988281,-1.5025024,-0.20440674,-2.984375,-3.203125,4.078125
96,1726934561958,-0.067871094,-1.227356,0.2694702,-13.734375,-21.453125,-9.46875
97,1726934562002,0.041015625,-0.8604126,0.121520996,-13.546875,-26.078125,27.078125
98,1726934562049,-0.049804688,-0.54107666,-0.12896729,-21.09375,-60.90625,19.328125
99,1726934562078,-0.039794922,-0.77789307,-0.17999268,-18.875,-76.4375,-11.765625
100,1726934562121,-0.15551758,-0.8604126,-0.08795166,-17.75,-85.0625,7.5625
101,1726934562168,-0.1694336,-1.0689087,-0.08331299,-27.53125,-94.78125,18.65625
102,1726934562197,-0.3371582,-1.0125122,-0.043273926,-19.953125,-86.53125,15.953125
103,1726934562241,-0.56347656,-0.78302,0.006286621,-9.953125,-79.03125,14.984375
104,1726934562272,-0.3984375,-1.0459595,0.1461792,-14.171875,-69.84375,11.40625
105,1726934562318,-0.26733398,-1.1096802,0.13275146,-20.0625,-65.953125,12.140625
106,1726934562347,-0.22314453,-0.85040283,0.090026855,-19.234375,-64.21875,16.703125
107,1726934562393,-0.15136719,-0.84039307,0.09539795,-22.625,-70.046875,19.296875
108,1726934562441,-0.08544922,-0.678772,0.036315918,-27.84375,-71.3125,22.6875
109,1726934562468,0.08520508,-0.47979736,-0.1506958,-25.453125,-80.8125,25.09375
110,1726934562516,0.16430664,-0.72369385,-0.009094238,-7.5,-108.734375,23.359375
111,1726934562558,0.19702148,-2.0,-0.09429932,-28.203125,-137.07812,26.6875
112,1726934562587,-0.16259766,-1.5142212,0.03363037,-24.453125,-60.5,32.515625
113,1726934562635,-0.14916992,-1.2612915,-0.0005493164,-6.953125,-58.28125,25.140625
114,1726934562677,0.099609375,-1.0737915,0.23016357,7.65625,-48.21875,15.046875
115,1726934562707,-0.03173828,-0.54351807,0.08392334,-2.8125,-56.25,10.625
116,1726934562755,0.0546875,-0.3320923,0.007751465,-1.5,-57.65625,11.96875
117,1726934562798,0.16430664,-0.46636963,0.10076904,4.671875,-62.96875,5.65625
118,1726934562827,0.09838867,-0.9939575,0.12176514,7.421875,-70.953125,0.3125
119,1726934562874,0.0007324219,-1.4343872,0.262146,2.109375,-60.359375,-0.546875
120,1726934562917,-0.095458984,-1.0151978,0.23040771,-7.71875,-43.765625,-0.21875
121,1726934562961,-0.010253906,-0.9636841,0.27020264,-1.234375,-40.0,-7.421875
122,1726934562991,0.06518555,-0.9360962,0.21990967,-0.03125,-36.59375,-6.46875
123,1726934563037,0.052246094,-0.80474854,0.18206787,0.765625,-34.109375,-7.265625
124,1726934563067,0.005859375,-0.75079346,0.18695068,-0.609375,-34.015625,-6.125
125,1726934563113,-0.0859375,-0.82696533,0.25628662,0.828125,-33.625,-8.828125
126,1726934563149,-0.17382812,-0.8303833,0.29608154,4.0625,-25.4375,-13.234375
127,1726934563187,-0.052734375,-0.8821411,0.37005615,10.71875,-24.28125,-12.78125
128,1726934563235,-0.038085938,-1.0603638,0.4611206,7.609375,-25.734375,-11.484375
129,1726934563265,-0.041748047,-1.2122192,0.19696045,-5.875,-38.0,-10.546875
130,1726934563308,0.056396484,-1.6687622,-0.026672363,-13.3125,-75.453125,-9.453125
131,1726934563354,-0.5019531,-1.0671997,-0.0413208,4.890625,-14.09375,30.859375
132,1726934563382,-0.61279297,-0.9702759,-0.18780518,-20.765625,-12.6875,-8.234375
133,1726934563427,0.041748047,-1.067688,-0.30743408,-18.1875,-37.9375,-38.171875
134,1726934563472,0.14575195,-1.4016724,-0.16534424,-10.265625,-26.390625,27.75
135,1726934563504,-0.5986328,-0.9014282,-0.07476807,-2.5,-15.765625,7.671875
136,1726934563548,-0.47070312,-0.74835205,-0.13848877,-6.234375,-17.8125,-11.203125
137,1726934563598,-0.0925293,-0.93218994,-0.06011963,1.15625,-15.890625,-1.984375
138,1726934563622,-0.119140625,-0.92974854,0.013366699,6.109375,-10.375,9.984375
139,1726934563668,-0.23461914,-0.7444458,0.0368042,-3.140625,-19.71875,7.671875
140,1726934563711,-0.23632812,-0.708313,0.07879639,-7.4375,-22.640625,4.71875
141,1726934563742,-0.19433594,-0.6956177,0.08465576,-8.53125,-27.703125,7.90625
142,1726934563787,-0.28881836,-0.79107666,0.12347412,-13.328125,-29.6875,8.65625
143,1726934563832,-0.4338379,-0.9180298,0.1708374,-12.40625,-28.5,5.34375
144,1726934563866,-0.40039062,-1.0606079,0.2140503,-12.921875,-16.734375,6.609375
145,1726934563908,-0.35327148,-1.1680298,0.2772827,-9.765625,-19.28125,6.296875
146,1726934563938,-0.35009766,-1.6216431,0.006286621,-8.6875,-35.8125,7.546875
147,1726934563981,0.3166504,-1.288147,0.027770996,1.8125,-7.59375,13.359375
148,1726934564027,0.8261719,-1.1460571,-0.13092041,-17.78125,-31.640625,6.359375
149,1726934564057,-0.34887695,-1.2730103,0.02532959,-6.125,-20.234375,14.703125
150,1726934564102,-0.30078125,-1.0095825,0.0914917,-6.09375,-16.96875,-2.140625
151,1726934564151,0.18969727,-0.7776489,0.13470459,-7.453125,-11.625,-12.671875
152,1726934564177,-0.088134766,-0.737854,0.11077881,1.640625,-1.984375,-7.03125
153,1726934564241,-0.072509766,-0.704895,0.16912842,5.6875,5.234375,-0.5
154,1726934564267,0.015625,-0.6096802,0.18011475,-0.171875,1.5625,-5.6875
155,1726934564297,-0.011474609,-0.6045532,0.10638428,6.265625,2.875,-10.5
156,1726934564344,-0.20507812,-0.6392212,0.14007568,11.640625,6.03125,-6.9375
157,1726934564387,-0.11767578,-0.8518677,0.2802124,18.078125,12.421875,-9.96875
158,1726934564419,-0.08154297,-1.1135864,0.22332764,10.546875,0.78125,-2.828125
159,1726934564461,-0.026367188,-1.2058716,0.32659912,7.71875,2.390625,-1.765625
160,1726934564508,-0.29248047,-1.1897583,0.42352295,8.09375,10.640625,0.4375
161,1726934564538,-0.29663086,-0.94537354,0.34735107,-9.28125,16.65625,-1.65625
162,1726934564586,-0.31176758,-1.3308716,-0.23370361,-14.953125,-23.75,-0.03125
163,1726934564657,-0.29223633,-1.4578247,-0.49127197,10.625,13.703125,-9.640625
164,1726934564675,-0.3552246,-1.3833618,-0.40997314,3.046875,55.3125,7.328125
165,1726934564704,-0.4296875,-1.3389282,-0.04107666,-2.28125,20.15625,-25.640625
166,1726934564732,0.17651367,-1.248352,0.019226074,3.6875,34.3125,3.3125
167,1726934564776,-0.09863281,-0.66778564,-0.0635376,2.25,33.953125,24.109375
168,1726934564825,-0.579834,-0.41168213,-0.0049438477,16.109375,29.109375,-3.640625
169,1726934564852,-0.2109375,-0.42144775,-0.04449463,0.625,34.6875,-7.0625
170,1726934564897,0.1586914,-0.5239868,-0.039367676,-0.0625,22.78125,-2.234375
171,1726934564948,0.14428711,-0.6487427,0.05316162,-6.875,-3.296875,8.765625
172,1726934564972,-0.16333008,-0.93463135,0.12664795,-15.359375,-18.890625,6.65625
173,1726934565017,-0.41845703,-0.8711548,0.18743896,-15.53125,-19.953125,4.78125
174,1726934565065,-0.4777832,-0.9216919,0.14886475,-17.640625,-12.546875,6.9375
175,1726934565095,-0.20703125,-1.0188599,0.21697998,-10.796875,-14.078125,3.09375
176,1726934565137,-0.22094727,-1.0562134,-0.21246338,-29.484375,-48.15625,6.625
177,1726934565185,0.5095215,-2.0,0.28338623,32.390625,-22.65625,7.421875
178,1726934565213,0.43603516,-1.5100708,-0.09259033,-33.875,-16.71875,1.3125
179,1726934565258,-0.7841797,-1.4414673,-0.0015258789,-15.453125,-5.578125,1.484375
180,1726934565305,-0.34716797,-0.8399048,0.0758667,6.109375,6.8125,-18.34375
181,1726934565333,0.013671875,-0.7698364,0.22601318,12.40625,27.625,-15.703125
182,1726934565378,-0.3317871,-0.57281494,0.047058105,-5.21875,35.890625,-3.6875
183,1726934565422,-0.1616211,-0.35455322,-0.03692627,13.234375,50.125,-2.453125
184,1726934565454,0.048583984,-0.61065674,0.08905029,25.96875,34.78125,-14.59375
185,1726934565497,-0.026611328,-1.0134888,0.16815186,11.578125,31.75,-8.84375
186,1726934565527,-0.16577148,-0.98150635,0.19134521,5.890625,39.3125,-2.90625
187,1726934565573,-0.18017578,-0.78326416,0.15545654,9.5625,31.75,-14.78125
188,1726934565618,-0.20385742,-0.92266846,0.26800537,12.5,27.4375,-10.140625
189,1726934565648,-0.29956055,-1.092102,0.24920654,6.8125,23.8125,-10.828125
190,1726934565694,-0.35253906,-0.9216919,0.29119873,5.40625,30.1875,-15.234375
191,1726934565737,-0.4741211,-0.9258423,-0.13311768,-4.625,14.9375,-15.40625
192,1726934565767,-0.24121094,-1.8328247,-0.28155518,1.46875,11.359375,-21.46875
193,1726934565817,-0.15478516,-1.1826782,-0.65460205,6.65625,35.8125,1.6875
194,1726934565857,-0.34057617,-1.4419556,-0.018127441,5.140625,34.796875,-4.109375
195,1726934565888,-0.3149414,-1.3062134,0.34417725,13.296875,27.5625,-3.640625
196,1726934565932,-0.3017578,-0.8411255,-0.18682861,-1.53125,34.8125,5.75
197,1726934565978,-0.22998047,-0.5286255,-0.14703369,10.515625,31.3125,4.5
198,1726934566009,-0.2055664,-0.5264282,-0.0256958,11.921875,19.578125,-7.3125
199,1726934566066,-0.3178711,-0.9500122,-0.005432129,2.78125,16.28125,0.8125
200,1726934566097,-0.33764648,-0.8862915,0.011169434,-5.140625,15.515625,5.828125
201,1726934566128,-0.29345703,-0.7959595,0.124938965,-0.28125,9.15625,2.0625
202,1726934566176,-0.32788086,-0.8220825,0.168396,1.890625,6.25,8.296875
203,1726934566217,-0.4411621,-0.8206177,0.11175537,-9.15625,-0.59375,8.625
204,1726934566247,-0.43945312,-0.82891846,0.112976074,-7.734375,-0.90625,8.71875
205,1726934566291,-0.33325195,-0.9212036,0.1359253,-8.15625,0.328125,10.03125
206,1726934566338,-0.26904297,-1.0449829,0.23822021,-7.671875,-4.59375,16.796875
207,1726934566368,-0.2956543,-0.9429321,0.11590576,-16.5625,-15.28125,18.984375
208,1726934566415,-0.2680664,-1.0872192,0.039001465,15.5,-21.171875,19.421875
209,1726934566444,0.296875,-1.2398071,0.010925293,33.46875,-1.171875,24.1875
210,1726934566488,0.35473633,-1.0889282,0.023132324,-11.1875,3.765625,18.265625
211,1726934566536,-0.68774414,-1.397522,-0.04498291,-10.65625,20.890625,3.453125
212,1726934566562,0.033447266,-0.97491455,0.04046631,1.515625,29.015625,-4.53125
213,1726934566607,0.0026855469,-0.80596924,0.081970215,15.609375,40.0,-11.0
214,1726934566651,0.02709961,-0.76519775,0.03656006,16.890625,37.484375,-5.140625
215,1726934566681,0.16479492,-0.70440674,0.08685303,23.25,31.25,2.5
216,1726934566733,0.051757812,-0.73809814,0.08905029,29.515625,21.265625,3.265625
217,1726934566775,-0.011474609,-0.7925415,0.09320068,24.875,22.328125,1.5
218,1726934566801,-0.032226562,-0.6970825,0.090026855,30.25,16.03125,0.953125
219,1726934566847,-0.052490234,-0.6694946,0.039733887,36.828125,10.8125,1.4375
220,1726934566895,-0.024902344,-0.7817993,-0.07232666,42.9375,0.796875,-2.328125
221,1726934566921,-0.06591797,-0.925354,0.03265381,42.71875,8.25,2.203125
222,1726934566968,-0.34887695,-0.880188,-0.074279785,42.21875,22.0,11.453125
223,1726934567015,0.15014648,-0.78985596,-0.9187622,50.640625,-12.71875,0.515625
224,1726934567045,1.052002,-1.0335083,-1.0022583,79.9375,-29.421875,55.265625
225,1726934567087,0.3720703,-1.5933228,-0.80792236,56.40625,-9.9375,70.65625
226,1726934567135,-0.3293457,-0.8233032,-0.64190674,91.328125,-33.453125,-16.703125
227,1726934567169,0.57250977,-0.7698364,-0.51446533,50.703125,-20.828125,45.59375
228,1726934567207,0.58569336,-0.15264893,-0.48858643,83.328125,-61.0625,25.265625
229,1726934567237,0.8305664,-0.16046143,-0.46636963,36.21875,-75.78125,44.359375
230,1726934567282,-0.1472168,-1.1104126,-0.67266846,10.71875,-74.703125,8.671875
231,1726934567328,-1.0913086,-0.8635864,-0.20758057,-7.921875,-11.703125,-14.8125
232,1726934567357,1.701416,-0.18878174,-1.9111938,26.390625,-10.171875,-1.671875
233,1726934567402,-0.024902344,-0.49542236,-1.3518677,46.703125,113.375,51.8125
234,1726934567447,0.9121094,-0.98150635,-0.62042236,57.265625,25.671875,-27.203125
235,1726934567492,1.999939,-0.9368286,-1.0593872,-30.296875,5.703125,17.671875
236,1726934567522,-0.30151367,0.17474365,-1.3550415,-21.9375,-40.34375,-29.984375
237,1726934567567,0.023925781,-0.6121216,-0.48077393,-72.640625,-29.234375,-22.515625
238,1726934567597,1.0488281,-0.819397,-1.1775513,3.359375,-30.71875,44.828125
239,1726934567648,-0.2019043,-0.7905884,-0.8508911,16.625,95.328125,-25.625
240,1726934567687,-0.52734375,-0.57647705,-1.166565,-3.484375,66.0625,-6.671875
241,1726934567718,0.8239746,-0.55059814,-1.6519165,24.5625,55.453125,-16.890625
242,1726934567765,1.999939,-1.3284302,-0.88897705,-27.640625,-6.0,-9.4375
243,1726934567807,-0.12841797,-0.48101807,-0.9578247,-18.171875,-13.046875,7.078125
244,1726934567838,-0.46362305,0.39935303,-0.60894775,29.734375,-5.828125,-36.3125
245,1726934567882,0.6437988,-0.25323486,-0.72491455,13.921875,-26.75,-33.984375
246,1726934567927,0.70581055,-0.8584595,-0.8584595,36.203125,-41.703125,31.921875
247,1726934567957,0.09838867,-0.4788208,-0.59259033,34.0625,-50.40625,33.671875
248,1726934568002,-0.2993164,-0.026428223,-0.69366455,29.890625,-60.046875,-26.125
249,1726934568032,0.2487793,-0.2991333,-0.5005493,31.265625,-51.09375,-9.828125
250,1726934568077,-0.14379883,-0.4907837,-0.31695557,27.8125,-38.140625,1.71875
251,1726934568121,0.37719727,-0.14093018,-0.42218018,19.421875,-46.390625,-25.453125
252,1726934568157,0.42749023,-0.07305908,-0.67315674,16.15625,-53.46875,-17.015625
253,1726934568198,0.43237305,0.038513184,-0.50079346,3.984375,-45.21875,-3.484375
254,1726934568243,-0.4111328,-0.13531494,-0.8242798,19.828125,-65.609375,-14.515625
255,1726934568275,0.9921875,-0.5083618,-1.1538696,12.9375,-53.984375,-79.03125
256,1726934568317,1.7224121,-1.6524048,-1.2940063,-34.4375,-28.671875,-15.4375
257,1726934568362,0.6274414,-0.25811768,-0.96832275,21.765625,-20.3125,-58.359375
258,1726934568396,0.62158203,0.007507324,-0.78302,-28.90625,-42.46875,-44.015625
259,1726934568438,0.8261719,-0.54351807,-0.27496338,-22.9375,-50.46875,-56.28125
260,1726934568485,0.86328125,-0.5588989,-0.61602783,-22.234375,-58.875,-51.0
261,1726934568533,0.73828125,-0.38287354,-0.5730591,-18.546875,-70.046875,-32.515625
262,1726934568558,0.71850586,-0.49591064,-0.52960205,-21.125,-80.59375,-32.203125
263,1726934568614,0.6213379,-0.66973877,-0.5022583,-8.171875,-77.375,-32.53125
264,1726934568631,0.71484375,-0.7036743,-0.22393799,-9.96875,-67.640625,-40.296875
265,1726934568677,0.7216797,-0.63482666,-0.31329346,-11.234375,-60.53125,-44.5625
266,1726934568726,0.7211914,-0.66973877,-0.07696533,-21.6875,-67.796875,-47.015625
267,1726934568751,0.7072754,-0.5623169,-0.04156494,-26.609375,-67.5625,-57.09375
268,1726934568797,0.5654297,-0.57476807,-0.013977051,-35.1875,-71.59375,-58.859375
269,1726934568827,0.56469727,-0.48272705,-0.012512207,-45.5,-75.359375,-60.078125
270,1726934568875,0.26904297,-0.41314697,0.09832764,-35.234375,-63.8125,-54.8125
271,1726934568918,0.15185547,-0.6057739,0.31732178,-47.671875,-53.65625,-55.25
272,1726934568947,0.4038086,-0.81866455,0.4100952,-45.90625,-72.390625,-50.28125
273,1726934568996,0.017333984,-1.4563599,0.65960693,-51.046875,-67.421875,-45.125
274,1726934569038,-0.5280762,-1.5735474,0.88812256,-75.734375,-53.453125,-39.140625
275,1726934569067,-1.2575684,-0.96661377,0.8095093,-49.390625,-27.828125,-38.71875
276,1726934569116,-0.8171387,-0.58673096,0.43597412,-21.5625,-43.75,-40.703125
277,1726934569158,-0.82006836,-0.69244385,0.52801514,-9.65625,-45.9375,-36.046875
278,1726934569189,-0.6086426,-0.7390747,0.28778076,-22.875,-41.953125,-32.1875
279,1726934569232,-0.6320801,-0.24102783,0.40570068,-17.75,-44.25,-31.796875
280,1726934569278,-0.6953125,-0.548645,0.5062866,4.828125,-32.421875,-11.25
281,1726934569307,-0.68847656,-0.67755127,0.37835693,11.8125,-11.890625,-2.265625
282,1726934569355,-0.5690918,-0.520813,0.5487671,-1.359375,-5.921875,-5.671875
283,1726934569402,-0.59350586,-0.27545166,0.6288452,-0.59375,4.828125,4.90625
284,1726934569427,-0.86328125,-0.5640259,0.47161865,29.296875,9.796875,8.96875
285,1726934569488,-0.48388672,-0.75079346,0.65496826,32.578125,2.859375,2.078125
286,1726934569547,-0.5361328,-0.6350708,0.35565186,21.8125,13.484375,15.296875
287,1726934569565,-0.54589844,-0.7102661,0.4689331,15.75,-0.203125,7.9375
288,1726934569595,-0.45532227,-0.8777466,0.5878296,10.703125,2.984375,13.59375
289,1726934569622,-0.43408203,-0.71881104,0.4869995,18.171875,-3.078125,18.53125
290,1726934569667,-0.42285156,-0.79766846,0.510437,21.734375,-8.515625,18.125
291,1726934569712,-0.4025879,-0.8135376,0.3986206,17.59375,-12.796875,19.671875
292,1726934569742,-0.39868164,-0.7839966,0.4015503,18.328125,-15.640625,21.359375
293,1726934569787,-0.42529297,-0.81036377,0.39886475,23.796875,-14.875,24.984375
294,1726934569835,-0.42016602,-0.7888794,0.3619995,24.421875,-11.265625,29.3125
295,1726934569862,-0.39160156,-0.7966919,0.322937,30.796875,-11.859375,28.046875
296,1726934569907,-0.3137207,-0.8255005,0.2789917,34.03125,-9.3125,32.1875
297,1726934569952,-0.3395996,-0.87994385,0.2399292,38.09375,-5.359375,37.875
298,1726934569983,-0.28271484,-0.8562622,0.16497803,52.453125,-0.109375,45.375
299,1726934570031,-0.21264648,-0.9517212,0.16693115,65.625,14.125,43.953125
300,1726934570078,-0.0061035156,-1.0498657,0.09295654,68.5,12.3125,39.703125
301,1726934570103,-0.25219727,-1.0508423,-0.20172119,81.359375,16.984375,36.328125
302,1726934570147,0.0061035156,-0.9212036,-0.1362915,52.8125,5.59375,24.25
303,1726934570197,0.036376953,-1.1004028,-0.29400635,49.328125,3.3125,24.5625
304,1726934570223,0.24658203,-1.0420532,-0.40216064,18.4375,-15.796875,23.21875
305,1726934570268,-0.11425781,-1.0195923,-0.32476807,25.796875,-6.140625,5.78125
306,1726934570317,0.25634766,-0.9065552,-0.4619751,20.296875,-17.703125,20.0
307,1726934570342,-0.038330078,-0.95928955,-0.440979,22.5625,-11.640625,12.890625
308,1726934570388,0.40112305,-1.078186,-0.78790283,30.671875,-26.09375,29.65625
309,1726934570417,0.12060547,-1.3486938,-0.9151001,19.40625,-30.921875,25.84375
310,1726934570463,0.5480957,-1.5942993,-1.2127075,13.03125,-21.890625,17.1875
311,1726934570507,0.57373047,-1.3665161,-1.1084595,9.9375,-10.9375,2.640625
312,1726934570537,0.60058594,-1.1084595,-0.8340454,10.21875,-14.9375,-5.578125
313,1726934570598,0.6152344,-1.0247192,-0.897522,1.4375,-4.3125,-0.34375
314,1726934570628,0.7158203,-0.8428345,-0.74884033,17.515625,-4.515625,-9.890625
315,1726934570657,0.12841797,-0.7659302,-0.42364502,12.390625,4.5625,-1.171875
316,1726934570702,-0.16430664,-0.54571533,-0.31573486,-29.765625,21.625,-17.609375
317,1726934570747,-0.061035156,-0.40093994,-0.2029419,-52.65625,29.875,-39.6875
318,1726934570779,0.103271484,-0.28277588,-0.34136963,-57.375,37.171875,-42.0
319,1726934570822,-0.013916016,-0.19122314,-0.40142822,-59.6875,26.953125,-37.21875
320,1726934570867,0.19165039,-0.29815674,-0.33380127,-48.921875,16.875,-44.6875
321,1726934570897,0.11035156,-0.5774536,-0.28497314,-49.09375,-2.6875,-27.46875
322,1726934570943,0.14916992,-0.64556885,-0.5147095,-53.390625,-17.015625,-27.171875
323,1726934570986,0.18945312,-0.8362427,-0.4824829,-47.296875,-35.25,-34.859375
324,1726934571017,0.1652832,-1.1541138,-0.2078247,-19.984375,-37.765625,-29.734375
325,1726934571062,-0.06274414,-0.96295166,-0.16827393,-35.265625,-11.484375,-19.890625
326,1726934571109,-0.05029297,-0.6555786,-0.13726807,-30.40625,-5.859375,-16.46875
327,1726934571137,-0.033447266,-0.6865845,-0.04840088,-15.203125,-9.90625,-18.125
328,1726934571182,-0.008056641,-1.0032349,0.0848999,-14.0625,-6.75,-13.375
329,1726934571211,-0.023925781,-1.1079712,0.039489746,-24.203125,0.03125,-12.15625
330,1726934571258,-0.036132812,-0.89141846,0.0048217773,-12.21875,16.125,-0.21875
331,1726934571302,0.014404297,-0.6836548,-0.008117676,-7.640625,17.515625,-1.78125
332,1726934571332,0.09448242,-0.5786743,-0.049865723,1.6875,26.34375,4.484375
333,1726934571377,0.11352539,-0.49664307,-0.006164551,12.640625,24.9375,10.859375
334,1726934571422,0.09301758,-0.38409424,0.024841309,12.046875,31.640625,15.609375
335,1726934571452,-0.087646484,-0.085510254,0.031921387,7.453125,48.8125,24.078125
336,1726934571498,-0.03930664,0.2675171,0.007507324,17.890625,44.453125,21.984375
337,1726934571543,0.07397461,0.21502686,-0.00982666,30.28125,25.875,16.0
338,1726934571572,0.17456055,-0.11431885,0.13128662,40.640625,-14.03125,13.671875
339,1726934571618,-0.23339844,-0.9146118,0.23895264,27.890625,18.046875,2.078125
340,1726934571662,-2.0,-2.0,1.1046753,-66.15625,-45.03125,-93.5625
341,1726934571696,0.049072266,-2.0,-0.19171143,-112.9375,18.78125,-107.890625
342,1726934571738,-1.6462402,-2.0,0.79315186,-96.734375,69.234375,-45.390625
343,1726934571782,-0.84521484,-0.87750244,1.2208862,-48.328125,62.171875,-79.828125
344,1726934571818,-0.19091797,0.057800293,0.34197998,-94.65625,42.21875,-48.765625
345,1726934571857,-0.07910156,1.0331421,0.50701904,-18.015625,6.421875,-0.1875
346,1726934571902,-0.5024414,0.008972168,0.73553467,13.71875,-22.0625,-3.5625
347,1726934571936,-0.73535156,-0.4024048,0.54315186,-4.015625,3.609375,-17.25
348,1726934571978,-0.06933594,-0.14630127,0.45916748,-23.796875,10.96875,-7.171875
349,1726934572007,-0.24804688,-0.18243408,0.5026245,-7.609375,3.03125,-2.5625
350,1726934572067,-0.3881836,-0.5010376,0.6051636,-8.0625,-4.734375,-1.328125
351,1726934572098,-0.45874023,-0.6616821,0.6647339,2.625,-1.609375,8.671875
352,1726934572127,-0.5773926,-0.7197876,0.72406006,6.296875,-1.296875,11.1875
353,1726934572172,-0.5185547,-0.753479,0.7201538,15.1875,-3.296875,15.53125
354,1726934572217,-0.6237793,-0.98223877,0.76312256,27.4375,-11.078125,22.515625
355,1726934572248,-0.578125,-0.954895,0.7094116,28.875,-5.703125,20.453125
356,1726934572294,-0.52246094,-0.77545166,0.69989014,32.234375,-8.359375,17.3125
357,1726934572337,-0.3996582,-0.64312744,0.51434326,39.234375,-10.1875,18.15625
358,1726934572369,-0.46972656,-0.63116455,0.48236084,42.75,-10.71875,26.046875
359,1726934572412,-0.3359375,-0.6921997,0.1786499,46.6875,-15.265625,26.609375
360,1726934572457,0.10424805,-0.7022095,0.5470581,45.65625,-5.625,33.578125
361,1726934572491,-0.67871094,-1.0147095,0.2789917,36.6875,-20.71875,41.859375
362,1726934572532,-0.15307617,-0.83258057,0.18035889,41.609375,-9.21875,42.546875
363,1726934572577,0.14331055,-0.8657837,0.05999756,44.578125,-9.21875,61.140625
364,1726934572607,0.064697266,-1.1079712,-0.08428955,98.015625,-0.578125,59.765625
365,1726934572655,-0.26831055,-1.0105591,-0.039367676,74.1875,-8.140625,46.0625
366,1726934572728,-0.26220703,-1.1231079,-0.15240479,71.0625,2.65625,45.171875
367,1726934572743,0.13769531,-1.1565552,-0.3591919,44.21875,-2.859375,25.515625
368,1726934572775,0.4567871,-1.4710083,-0.36871338,44.265625,19.640625,19.625
369,1726934572818,0.19042969,-0.8291626,-0.23028564,19.828125,-10.765625,14.015625
370,1726934572847,0.31103516,-1.190979,-0.62286377,22.734375,-4.28125,6.34375
371,1726934572891,0.3737793,-0.8867798,-0.55133057,7.234375,-3.0625,7.703125
372,1726934572924,0.26245117,-1.052063,-0.48565674,8.453125,-13.5625,2.859375
373,1726934572967,0.27392578,-1.1436157,-0.79229736,9.78125,-10.296875,5.921875
374,1726934573015,0.48242188,-1.3154907,-0.68292236,8.59375,-6.109375,4.953125
375,1726934573045,0.39160156,-1.2630005,-0.82110596,-8.90625,-14.6875,2.15625
376,1726934573088,0.6179199,-1.1812134,-0.5396118,-3.546875,-15.5625,-4.875
377,1726934573135,0.29858398,-0.9402466,-0.517395,-1.125,-5.28125,2.375
378,1726934573166,0.007080078,-0.8335571,-0.4331665,8.921875,-0.796875,-1.71875
379,1726934573208,0.018798828,-0.90631104,-0.30792236,3.25,11.859375,-15.5625
380,1726934573255,0.20117188,-0.86187744,-0.26055908,-11.09375,15.40625,-32.6875
381,1726934573284,0.14453125,-0.6865845,-0.24224854,-26.296875,10.8125,-42.71875
382,1726934573328,0.109375,-0.58013916,-0.23150635,-35.46875,11.78125,-46.96875
383,1726934573373,0.014892578,-0.6045532,-0.25299072,-39.3125,13.296875,-42.796875
384,1726934573405,-0.1159668,-0.5940552,-0.23736572,-47.328125,9.09375,-41.46875
385,1726934573447,-0.11694336,-0.6709595,-0.23394775,-40.015625,8.765625,-38.453125
386,1726934573491,-0.11254883,-0.739563,-0.19317627,-39.5,7.953125,-31.75
387,1726934573522,-0.08666992,-0.7241821,-0.14459229,-26.59375,8.40625,-22.703125
388,1726934573567,-0.1184082,-0.71954346,-0.13238525,-24.390625,4.0625,-13.84375
389,1726934573597,-0.1274414,-0.788147,-0.02130127,-22.109375,-2.90625,-6.6875
390,1726934573645,-0.2277832,-0.92193604,-0.003479004,-26.1875,-11.84375,-3.3125
391,1726934573688,-0.35351562,-0.928772,0.08294678,-24.625,-6.703125,-3.734375
392,1726934573717,-0.28515625,-0.8850708,0.07635498,-14.3125,-10.0625,-0.015625
393,1726934573765,-0.18017578,-0.86553955,0.11956787,-14.28125,-19.390625,2.890625
394,1726934573807,-0.21508789,-0.9065552,0.15106201,-16.578125,-22.21875,6.1875
395,1726934573837,-0.265625,-0.89190674,0.17279053,-11.46875,-22.671875,10.328125
396,1726934573885,-0.27172852,-0.94366455,0.22088623,-5.0,-28.015625,14.1875
397,1726934573927,-0.34521484,-0.9429321,0.19158936,-4.828125,-37.1875,15.453125
398,1726934573958,-0.24902344,-0.9590454,0.11785889,-13.421875,-45.859375,14.59375
399,1726934574003,-0.19213867,-1.2146606,0.0060424805,-12.21875,-61.765625,16.203125
400,1726934574049,0.1472168,-1.4419556,0.039733887,15.453125,-60.765625,18.796875
401,1726934574078,0.41992188,-1.1780396,-0.09259033,-14.515625,-62.765625,13.078125
402,1726934574125,0.16137695,-1.0852661,-0.25787354,-12.296875,-75.859375,11.953125
403,1726934574168,0.20019531,-1.0828247,-0.08306885,0.15625,-78.03125,10.203125
404,1726934574198,0.080078125,-1.0049438,-0.10772705,-11.921875,-88.328125,-0.6875
405,1726934574242,-0.01928711,-0.878479,-0.10650635,-16.046875,-75.4375,-4.234375
406,1726934574288,-0.029296875,-0.8152466,-0.011779785,-15.890625,-65.8125,-2.59375
407,1726934574317,-0.03125,-0.81256104,-0.023986816,-8.859375,-71.96875,-5.640625
408,1726934574365,-0.021484375,-0.85357666,0.14276123,0.515625,-65.140625,-4.15625
409,1726934574407,-0.060546875,-0.8740845,0.04144287,-14.90625,-65.515625,-7.1875
410,1726934574437,-0.16992188,-0.83551025,0.1005249,-13.453125,-59.984375,-9.5
411,1726934574485,-0.35180664,-0.8496704,0.2243042,-10.515625,-49.828125,-14.984375
412,1726934574516,-0.2121582,-0.8999634,0.18353271,-17.234375,-39.234375,-12.140625
413,1726934574558,-0.31689453,-0.92852783,0.24188232,-11.5,-30.96875,-7.96875
414,1726934574605,-0.41357422,-0.7727661,0.20916748,-14.375,-33.3125,-8.453125
415,1726934574677,-0.5031738,-0.71588135,0.26849365,-5.34375,-24.953125,-1.546875
416,1726934574692,-0.6125488,-0.7932739,0.36541748,3.890625,-13.796875,-9.5
417,1726934574725,-0.66137695,-0.7341919,0.37664795,10.78125,9.859375,-13.203125
418,1726934574752,-0.576416,-0.6865845,0.33929443,17.953125,26.1875,-16.109375
419,1726934574798,-0.7463379,-0.723938,0.3554077,32.015625,28.296875,-15.9375
420,1726934574857,-0.7741699,-1.1538696,-0.16143799,24.15625,29.84375,-4.25
421,1726934574872,-0.5930176,-2.0,-0.710022,2.703125,44.453125,-4.734375
422,1726934574918,0.032226562,-1.2720337,-0.48199463,27.109375,84.703125,7.21875
423,1726934574966,-0.25830078,-0.71466064,0.1642456,43.4375,106.875,30.265625
424,1726934574997,-0.32983398,-0.65289307,-0.16436768,22.65625,112.234375,15.578125
425,1726934575038,-0.55126953,-0.5562134,-0.49957275,27.890625,92.875,-6.234375
426,1726934575085,-0.103027344,-0.8977661,-0.3562622,13.125,53.40625,11.015625
427,1726934575114,0.076660156,-1.2715454,0.016296387,17.171875,56.765625,17.390625
428,1726934575171,-0.36108398,-0.925354,-0.109680176,0.015625,48.46875,12.5625
429,1726934575205,-0.33203125,-0.8579712,-0.06036377,7.1875,39.25,10.625
430,1726934575236,-0.19458008,-0.96417236,0.03656006,6.484375,45.328125,15.921875
431,1726934575277,-0.026611328,-0.90704346,-0.010314941,-1.6875,25.8125,6.90625
432,1726934575309,-0.072021484,-1.0020142,0.11907959,2.390625,8.359375,1.515625
433,1726934575352,-0.057128906,-0.91363525,0.13494873,-6.921875,-3.5625,9.359375
434,1726934575397,-0.020263672,-0.7632446,0.10784912,-8.625,-9.625,14.8125
435,1726934575427,-0.11254883,-0.78863525,0.1461792,-5.625,-21.0625,12.75
436,1726934575475,-0.07836914,-0.9483032,0.15716553,-14.171875,-40.5625,1.09375
437,1726934575517,0.05126953,-1.0073853,0.15301514,-20.21875,-65.890625,0.015625
438,1726934575548,0.12573242,-1.3604126,-0.3093872,-7.703125,-96.1875,-3.421875
439,1726934575591,0.00024414062,-1.9285278,-0.112854004,11.71875,-68.578125,11.609375
440,1726934575638,0.19067383,-1.0466919,-0.2991333,-8.734375,-44.6875,23.46875
441,1726934575670,-0.076660156,-0.9963989,-0.3970337,15.40625,-87.96875,21.859375
442,1726934575712,-0.19897461,-0.7918091,0.11663818,-2.40625,-46.859375,14.65625
443,1726934575757,0.14477539,-0.92926025,0.1630249,-3.578125,-72.6875,-7.109375
444,1726934575787,-0.13208008,-1.0037231,0.15496826,-6.15625,-54.734375,-18.0625
445,1726934575836,-0.16821289,-1.0027466,-0.0115356445,-1.828125,-34.78125,-19.21875
446,1726934575877,0.1899414,-0.9404907,0.11907959,-9.078125,-40.109375,-8.828125
447,1726934575908,0.103271484,-0.9915161,0.116882324,-0.328125,-57.09375,-0.75
448,1726934575959,-0.21655273,-0.97613525,0.1305542,-3.8125,-51.109375,-1.109375
449,1726934575997,-0.1772461,-0.8735962,0.18890381,-7.734375,-42.4375,-6.765625
450,1726934576029,-0.19433594,-0.70318604,0.15228271,-4.5,-37.21875,-6.359375
451,1726934576088,-0.29125977,-0.64263916,0.19134521,2.65625,-27.078125,-4.6875
452,1726934576101,-0.38964844,-0.62750244,0.23358154,5.265625,-9.421875,-8.0625
453,1726934576147,-0.4284668,-0.68585205,0.2855835,11.796875,2.109375,-13.359375
454,1726934576192,-0.2919922,-0.88531494,0.22845459,10.484375,9.8125,-21.953125
455,1726934576224,-0.2199707,-1.0122681,0.26434326,14.34375,12.609375,-19.375
456,1726934576267,-0.42797852,-1.0857544,0.28729248,15.1875,18.578125,-10.15625
457,1726934576317,-0.5192871,-1.0493774,0.15863037,14.234375,14.625,-16.453125
458,1726934576342,-0.2319336,-1.8276978,-0.3706665,10.203125,-15.203125,-4.265625
459,1726934576402,0.1015625,-1.8196411,-0.4915161,17.46875,16.6875,23.3125
460,1726934576434,-0.025390625,-1.2703247,-0.27349854,5.453125,32.578125,15.421875
461,1726934576461,-0.75146484,-0.8713989,-0.18048096,-11.34375,32.234375,3.234375
462,1726934576507,-0.50146484,-0.72662354,-0.3657837,-12.59375,62.28125,-8.28125
463,1726934576553,0.13183594,-0.50909424,-0.25054932,-5.390625,31.859375,-3.0
464,1726934576584,0.047851562,-0.5923462,-0.18511963,3.609375,18.5625,2.609375
465,1726934576627,-0.1809082,-0.72442627,-0.07281494,6.984375,11.578125,-7.796875
466,1726934576672,-0.29077148,-1.0701294,-0.14727783,10.1875,14.359375,-7.0625
467,1726934576702,-0.24780273,-0.9849243,-0.016418457,1.09375,8.734375,6.296875
468,1726934576747,-0.32495117,-0.9390259,-0.066467285,-0.1875,0.765625,8.5
469,1726934576797,-0.3317871,-0.9483032,-0.06036377,4.171875,-5.765625,4.1875
470,1726934576825,-0.23144531,-0.97003174,-0.046203613,2.09375,-7.71875,7.21875
471,1726934576867,-0.08178711,-0.96954346,-0.02178955,1.015625,-18.515625,15.75
472,1726934576898,-0.17504883,-0.9104614,-0.004211426,-8.65625,-20.90625,17.875
473,1726934576946,-0.31713867,-0.7774048,0.051452637,-13.34375,-21.34375,19.25
474,1726934576987,-0.29101562,-0.68707275,0.10296631,-15.28125,-23.796875,10.296875
475,1726934577017,-0.23657227,-0.76031494,0.15228271,-21.40625,-32.359375,5.21875
476,1726934577063,-0.3088379,-0.90704346,0.11175537,-21.28125,-37.953125,2.625
477,1726934577108,-0.15966797,-0.8596802,-0.08477783,-21.3125,-47.796875,12.140625
478,1726934577139,-0.39794922,-2.0,-0.16705322,23.3125,-54.296875,-4.359375
479,1726934577185,0.6455078,-1.6050415,0.17767334,0.328125,36.0625,29.59375
480,1726934577227,0.25219727,-0.7473755,-0.45562744,-5.046875,-20.984375,30.109375
481,1726934577257,-0.68310547,-0.95147705,-0.09503174,-2.84375,-19.265625,24.296875
482,1726934577303,-0.19726562,-0.73809814,0.17108154,7.296875,-4.78125,-23.796875
483,1726934577348,0.6516113,-1.3833618,0.17523193,-15.921875,-2.4375,-26.34375
484,1726934577378,0.20629883,-1.0615845,0.093688965,-8.890625,-2.203125,-8.640625
485,1726934577425,0.012451172,-0.7913208,0.051696777,-6.21875,1.375,-17.4375
486,1726934577468,0.03125,-0.7439575,0.066101074,-2.59375,-16.953125,-20.3125
487,1726934577500,-0.018310547,-0.7073364,0.13616943,4.46875,-6.375,-7.71875
488,1726934577547,-0.21728516,-0.7798462,0.16546631,2.125,-11.21875,-11.625
489,1726934577587,-0.19067383,-0.6824341,0.14691162,-2.65625,-7.46875,-13.6875
490,1726934577618,-0.10522461,-0.6934204,0.12445068,3.578125,-10.34375,-3.9375
491,1726934577666,-0.24047852,-0.9248657,0.13787842,6.796875,-10.109375,-4.875
492,1726934577696,-0.53344727,-1.0391235,0.25775146,9.046875,2.4375,-4.796875
493,1726934577738,-0.6804199,-1.0056763,0.24310303,8.984375,26.71875,-14.0625
494,1726934577782,-0.50390625,-0.84381104,0.22698975,9.90625,42.0,-28.15625
495,1726934577828,-0.37573242,-0.7620239,0.26312256,14.71875,49.953125,-28.15625
496,1726934577857,-0.2915039,-0.6655884,0.022644043,11.0,46.28125,-30.328125
497,1726934577908,-0.24023438,-1.4859009,-0.56329346,5.609375,21.21875,-10.015625
498,1726934577932,0.2836914,-1.8777466,-0.8027954,26.140625,3.53125,22.3125
499,1726934577977,0.13989258,-1.1021118,-0.11505127,-24.125,24.078125,12.40625
500,1726934578022,-0.37329102,-0.84381104,0.3270874,19.625,2.375,5.0
501,1726934578058,-0.30200195,-0.60528564,0.032409668,3.71875,21.90625,7.828125
502,1726934578098,0.1003418,-0.3279419,-0.074523926,-3.3125,-4.546875,4.984375
503,1726934578144,-0.118896484,-0.5281372,-0.0791626,5.21875,-17.4375,0.140625
504,1726934578175,-0.37353516,-1.0689087,0.010925293,4.1875,-30.875,-6.5
505,1726934578219,-0.6665039,-1.3630981,0.07098389,2.46875,-6.5,4.25
506,1726934578265,-0.39526367,-0.87994385,0.06829834,-10.296875,6.734375,3.171875
507,1726934578295,-0.42333984,-0.8040161,-0.020080566,-8.453125,-1.421875,2.0625
508,1726934578337,-0.30493164,-0.9885864,0.03289795,-1.90625,0.25,13.65625
509,1726934578382,-0.061523438,-0.9224243,0.030456543,-3.84375,-6.703125,9.953125
510,1726934578415,-0.091796875,-0.8062134,0.097839355,-1.40625,-13.84375,18.203125
511,1726934578458,-0.2475586,-0.8513794,0.2062378,-8.234375,-21.828125,19.4375
512,1726934578488,-0.16992188,-0.8508911,0.21282959,-15.296875,-28.8125,13.265625
513,1726934578536,-0.099121094,-0.7546997,0.11834717,-19.390625,-40.34375,6.9375
514,1726934578579,-0.16333008,-1.5291138,-0.39385986,-30.015625,-91.296875,-10.265625
515,1726934578607,0.8796387,-1.7786255,0.29022217,14.46875,-43.046875,28.4375
516,1726934578655,0.07324219,-1.3704224,-0.45098877,-48.671875,-67.8125,30.375
517,1726934578697,-0.8769531,-1.0840454,-0.07623291,1.96875,-50.046875,14.65625
518,1726934578728,0.07080078,-0.7654419,0.22698975,5.890625,-26.90625,-9.28125
519,1726934578771,0.21948242,-1.0444946,0.17181396,-6.34375,-40.71875,-7.578125
520,1726934578817,0.061767578,-0.60040283,-0.04840088,-6.203125,-26.203125,-2.21875
521,1726934578847,0.103027344,-0.3267212,0.007507324,6.640625,-17.25,-6.40625
522,1726934578895,0.091552734,-0.6577759,0.09100342,15.0625,-40.71875,-13.21875
523,1726934578938,-0.10473633,-0.89678955,0.18157959,3.71875,-30.65625,-5.515625
524,1726934578969,-0.2211914,-0.8430786,0.2230835,2.484375,-20.484375,-7.953125
525,1726934579012,-0.2758789,-0.83599854,0.25628662,8.734375,-10.140625,-21.9375
526,1726934579057,-0.0041503906,-1.1585083,0.27581787,2.5625,-10.859375,-20.015625
527,1726934579087,-0.09277344,-1.0164185,0.26849365,-11.90625,-17.546875,-10.0625
528,1726934579136,-0.4873047,-0.95513916,0.24090576,5.875,2.46875,-9.90625
529,1726934579178,-0.45825195,-0.7905884,0.11566162,-3.5,5.28125,-30.265625
530,1726934579208,-0.036865234,-1.6372681,-0.1975708,-16.40625,-23.53125,-27.296875
531,1726934579255,-0.036132812,-1.769104,-0.44830322,-29.28125,-11.703125,7.859375
532,1726934579282,-0.20019531,-1.2026978,-0.3501587,-6.609375,-0.71875,8.703125
533,1726934579329,-0.19506836,-1.0488892,0.035095215,-22.3125,-26.3125,-15.484375
534,1726934579372,0.24633789,-1.1404419,0.050231934,-14.84375,-22.375,10.0
535,1726934579405,0.0769043,-0.62335205,-0.18829346,-34.84375,-49.875,15.734375
536,1726934579447,-0.26049805,-0.51519775,-0.13360596,-15.9375,-61.78125,-5.296875
537,1726934579493,-0.3371582,-0.80718994,-0.034240723,-23.359375,-63.578125,-6.6875
538,1726934579522,-0.083984375,-1.1187134,-0.039367676,-32.84375,-68.140625,16.03125
539,1726934579569,-0.43823242,-0.9639282,-0.0154418945,-17.46875,-68.03125,12.875
540,1726934579612,-0.63964844,-0.92974854,0.10687256,-10.6875,-51.03125,6.046875
541,1726934579642,-0.4272461,-0.96588135,0.10369873,-10.0,-43.90625,3.78125
542,1726934579687,-0.19750977,-0.9993286,0.184021,-10.0,-41.203125,5.96875
543,1726934579747,-0.30151367,-0.88653564,0.18231201,-15.828125,-42.265625,10.34375
544,1726934579766,-0.3154297,-0.7371216,0.16253662,-15.546875,-42.578125,7.171875
545,1726934579807,-0.18530273,-0.8213501,0.19866943,-14.984375,-47.953125,7.15625
546,1726934579854,-0.119140625,-0.8591919,0.1720581,-18.546875,-55.265625,14.65625
547,1726934579885,-0.020019531,-0.6321411,0.074157715,-18.21875,-66.4375,18.234375
548,1726934579928,0.2163086,-0.61260986,-0.4595337,-26.015625,-100.875,26.125
549,1726934579972,0.8569336,-2.0,0.402771,7.046875,-139.70312,-0.359375
550,1726934580011,-0.17041016,-1.4910278,-0.12750244,-41.34375,-74.0625,28.828125
551,1726934580049,-0.35668945,-1.1194458,-0.42999268,-12.125,-88.03125,11.09375
552,1726934580079,-0.022216797,-0.958313,-0.010070801,14.046875,-78.59375,10.75
553,1726934580125,-0.01171875,-1.0154419,0.24798584,-7.953125,-81.453125,14.9375
554,1726934580167,-0.068603516,-0.66192627,-0.028869629,-25.5625,-76.328125,5.671875
555,1726934580197,-0.15673828,-0.38311768,-0.062805176,-6.796875,-68.15625,4.453125
556,1726934580245,-0.10131836,-0.6013794,0.02532959,12.96875,-68.171875,-1.921875
557,1726934580288,-0.12695312,-1.0852661,0.1864624,7.40625,-66.078125,-2.765625
558,1726934580318,-0.28979492,-1.1531372,0.26019287,-5.4375,-43.40625,-4.25
559,1726934580364,-0.26391602,-0.9451294,0.29022217,-0.46875,-31.90625,-16.28125
560,1726934580409,-0.07446289,-1.1384888,0.23309326,-2.921875,-23.375,-21.125
561,1726934580439,0.122558594,-1.0130005,0.14422607,-5.296875,-33.109375,-13.125
562,1726934580485,-0.080322266,-0.9182739,0.2267456,2.3125,-31.125,-2.828125
563,1726934580528,-0.29345703,-0.9570923,0.32000732,-3.21875,-28.359375,-5.46875
564,1726934580557,-0.14135742,-0.7901001,0.35443115,-11.734375,-32.890625,-14.21875
565,1726934580602,-0.12646484,-0.9385376,0.23016357,-14.28125,-49.109375,-7.84375
566,1726934580648,0.009277344,-1.7175903,-0.17218018,-26.640625,-75.8125,-5.15625
567,1726934580678,-0.60546875,-1.30719,-0.2571411,-5.875,-23.421875,16.796875
568,1726934580726,-0.49536133,-1.0940552,-0.46539307,-22.015625,-15.90625,-11.8125
569,1726934580798,-0.1430664,-1.2249146,-0.31402588,-0.28125,-24.546875,-9.84375
570,1726934580817,-0.12866211,-1.3040161,-0.07330322,-5.875,-9.953125,16.171875
571,1726934580845,-0.34375,-0.75909424,-0.07672119,-9.40625,-7.25,8.046875
572,1726934580876,-0.4345703,-0.52911377,-0.1494751,-3.828125,-9.828125,2.0
573,1726934580918,-0.21850586,-0.6824341,-0.10650635,-4.8125,-16.609375,0.609375
574,1726934580966,-0.13842773,-0.95391846,0.012878418,-6.546875,-19.296875,3.734375
575,1726934580993,-0.2553711,-0.9089966,0.053894043,-5.1875,-17.15625,11.90625
576,1726934581037,-0.3491211,-0.82647705,0.07684326,-13.140625,-20.234375,8.828125
577,1726934581085,-0.38085938,-0.8809204,0.07342529,-7.984375,-23.34375,3.40625
578,1726934581113,-0.3486328,-0.9793091,0.07244873,-18.921875,-15.421875,5.3125
579,1726934581157,-0.28466797,-0.9356079,0.13690186,-26.796875,-6.796875,9.1875
580,1726934581201,-0.21240234,-0.7761841,0.13665771,-32.515625,-15.5625,5.8125
581,1726934581234,-0.18139648,-0.93048096,-0.0881958,-26.0625,-39.171875,16.140625
582,1726934581277,0.15454102,-1.3650513,0.1083374,6.859375,-32.640625,19.6875
583,1726934581322,0.5539551,-1.3450317,0.28070068,-6.484375,-23.203125,25.421875
584,1726934581354,-0.3125,-1.5593872,0.10882568,-17.9375,-30.015625,19.34375
585,1726934581415,-0.3083496,-1.0186157,0.13983154,-0.921875,-13.515625,-5.171875
586,1726934581442,-0.035888672,-0.85357666,0.2567749,-0.1875,1.046875,-6.1875
587,1726934581472,-0.32080078,-0.79034424,0.16375732,-9.171875,8.28125,0.015625
588,1726934581517,-0.18920898,-0.69415283,0.33343506,1.171875,15.78125,-8.578125
589,1726934581568,-0.032470703,-0.7686157,0.20452881,13.609375,12.734375,-5.53125
590,1726934581593,0.08251953,-0.9248657,0.12982178,-0.359375,11.15625,-0.578125
591,1726934581638,-0.009521484,-0.80352783,0.14056396,9.609375,6.796875,0.484375
592,1726934581669,-0.3293457,-0.6856079,0.2711792,9.1875,22.8125,-4.078125
593,1726934581728,-0.43188477,-0.65045166,0.17279053,10.71875,39.78125,-13.609375
594,1726934581758,-0.3100586,-0.6453247,0.25360107,24.296875,45.171875,-15.234375
595,1726934581787,-0.23486328,-0.47442627,0.61224365,37.828125,40.5,-18.0625
596,1726934581835,-0.25854492,-0.80010986,0.10369873,31.875,30.796875,-16.921875
597,1726934581878,0.122558594,-0.8760376,0.246521,23.515625,25.96875,-32.515625
598,1726934581908,0.026123047,-1.8626099,-0.2942505,-20.53125,-19.671875,-1.15625
599,1726934581952,-0.32861328,-2.0,-0.8735962,13.90625,-29.5625,-7.390625
600,1726934581998,-0.75561523,-0.93634033,-0.8723755,6.546875,14.375,22.921875
601,1726934582027,-0.70458984,-0.644104,0.20355225,37.03125,61.90625,18.953125
602,1726934582073,-0.021484375,-0.6638794,-0.24591064,18.609375,76.0,-25.6875
603,1726934582117,-0.19873047,-0.9783325,-0.3513794,31.671875,49.953125,-5.09375
604,1726934582147,-0.53027344,-1.0510864,-0.44610596,4.171875,50.296875,12.796875
605,1726934582192,-0.31689453,-1.1084595,-0.24542236,5.984375,52.1875,12.75
606,1726934582237,-0.043945312,-1.0662231,-0.051574707,8.484375,48.046875,9.890625
607,1726934582267,-0.055419922,-1.081604,-0.03326416,-8.640625,28.28125,18.734375
608,1726934582314,-0.19848633,-0.78253174,-0.07086182,-10.765625,15.921875,20.828125
609,1726934582357,-0.30615234,-0.42388916,-0.074035645,-0.65625,17.234375,13.484375
610,1726934582388,-0.35668945,-0.49713135,-0.06451416,-1.890625,18.46875,1.265625
611,1726934582433,-0.19970703,-0.77545166,0.10101318,-4.1875,18.625,3.53125
612,1726934582477,-0.40283203,-0.8530884,0.16448975,-7.140625,9.828125,10.078125
613,1726934582508,-0.47631836,-0.7503052,0.18231201,-6.546875,11.921875,8.265625
614,1726934582552,-0.54541016,-0.86920166,0.039245605,0.8125,3.75,7.8125
615,1726934582585,-0.41186523,-0.9282837,0.04071045,-12.75,-12.40625,0.9375
616,1726934582627,-0.42822266,-1.552063,-0.033996582,-7.59375,-12.984375,4.984375
617,1726934582673,0.18164062,-1.1519165,-0.022277832,27.15625,24.90625,46.078125
618,1726934582748,0.52563477,-0.897522,-0.0115356445,-11.171875,-7.59375,19.265625
619,1726934582767,-0.024658203,-1.1499634,-0.2876587,18.65625,-15.484375,26.578125
620,1726934582795,0.75927734,-1.5401001,0.18133545,-0.703125,-22.046875,-12.53125
621,1726934582826,0.16479492,-2.0,-0.011291504,-24.6875,-30.09375,11.640625
622,1726934582868,0.22680664,-2.0,0.42913818,0.953125,-41.6875,-15.046875
623,1726934582912,-0.14648438,-1.9578247,0.097351074,-22.734375,-29.359375,-14.1875
624,1726934582945,0.09448242,-1.1438599,0.1930542,-15.171875,0.703125,-25.09375
625,1726934582987,-0.06567383,-0.12701416,-0.016662598,-42.265625,1.140625,2.21875
626,1726934583034,-0.34570312,0.78704834,-0.2510376,-24.3125,13.4375,25.25
627,1726934583065,0.110839844,0.3805542,0.04510498,26.828125,2.78125,-22.71875
628,1726934583107,-0.47875977,-0.07354736,-0.22979736,23.6875,9.96875,-5.265625
629,1726934583153,-0.22143555,0.10394287,-0.0032348633,13.796875,34.953125,-6.140625
630,1726934583185,-0.123291016,0.34735107,-0.035705566,19.921875,33.578125,-17.0625
631,1726934583228,0.04345703,-0.17193604,0.054382324,39.796875,9.359375,-22.375
632,1726934583273,-0.8742676,-1.5239868,-0.7463989,15.296875,44.171875,16.078125
633,1726934583305,0.1694336,-2.0,0.18060303,-71.625,1.703125,-19.359375
634,1726934583347,-2.0,-2.0,0.98724365,-33.9375,71.90625,-25.296875
635,1726934583378,-0.42089844,-2.0,-0.34698486,-80.515625,82.890625,-39.453125
636,1726934583424,0.55908203,-0.3640747,-0.41827393,-44.296875,-20.984375,-13.234375
637,1726934583467,1.3713379,0.19134521,-0.7463989,-56.265625,2.484375,44.96875
638,1726934583498,-0.57543945,1.9293823,-0.041809082,64.796875,-33.625,33.890625
639,1726934583551,-0.91748047,-0.35601807,0.0446167,53.734375,-4.3125,-17.296875
640,1726934583587,-0.1730957,-0.82476807,0.043884277,27.625,36.875,15.875
641,1726934583617,0.091796875,0.03704834,0.058532715,4.453125,43.65625,40.703125
642,1726934583662,0.23901367,0.51434326,-0.016906738,18.859375,20.21875,39.15625
643,1726934583707,-0.107666016,0.35687256,-0.08526611,42.5625,5.3125,5.828125
644,1726934583737,-0.13964844,-0.32354736,0.15960693,37.703125,12.96875,-16.328125
645,1726934583782,-0.14746094,-0.472229,0.101989746,7.90625,17.828125,6.15625
646,1726934583828,-0.25708008,-0.039611816,0.113708496,-0.9375,24.0,-10.109375
647,1726934583858,-0.12133789,-0.035461426,0.07513428,10.3125,8.515625,-18.71875
648,1726934583905,-1.204834,-1.0076294,-1.1240845,45.75,-16.90625,9.203125
649,1726934583948,0.84521484,-2.0,-1.492981,19.0625,115.640625,52.03125
650,1726934583992,-2.0,-2.0,0.91937256,-31.828125,-0.734375,33.75
651,1726934584025,-0.35253906,-2.0,-0.5557251,-25.234375,72.0,-52.1875
652,1726934584068,-0.51782227,-0.9885864,-0.13580322,-20.671875,71.1875,-16.390625
653,1726934584098,0.27685547,-0.16778564,-0.24884033,-13.75,44.578125,2.59375
654,1726934584143,0.3503418,0.4850464,0.059753418,-41.96875,19.34375,18.109375
655,1726934584172,0.12548828,0.44256592,-0.32086182,7.953125,-10.828125,11.96875
656,1726934584217,-0.045898438,-0.20611572,-0.03326416,2.640625,-0.484375,9.734375
657,1726934584265,0.18969727,-0.42926025,-0.28204346,-21.796875,-30.03125,1.765625
658,1726934584292,1.1333008,-2.0,-1.3318481,12.421875,-119.484375,-26.59375
659,1726934584337,1.1918945,-1.6294556,-0.3670044,-17.34375,-5.25,63.0
660,1726934584385,-1.3630371,-2.0,0.29412842,60.484375,-34.640625,30.671875
661,1726934584418,0.35766602,-0.7583618,-0.2288208,-12.453125,7.0625,-60.25
662,1726934584458,0.7624512,-0.91485596,0.10491943,15.96875,-52.234375,-5.609375
663,1726934584505,0.33081055,-0.53131104,-0.36114502,2.265625,-71.359375,65.78125
664,1726934584533,-0.1784668,-0.36212158,-0.05596924,-8.28125,-71.4375,25.6875
665,1726934584578,0.16699219,-0.37652588,-0.19537354,-0.703125,-87.09375,-5.609375
666,1726934584625,0.04736328,-1.2251587,-0.3640747,-2.75,-140.26562,-8.484375
667,1726934584652,-0.059570312,-0.8897095,-0.050842285,3.671875,-83.6875,-8.1875
668,1726934584698,-0.24536133,-0.93951416,-0.07867432,-8.78125,-46.859375,-13.984375
669,1726934584747,-0.16210938,-1.0166626,-0.20611572,-19.96875,-64.15625,-6.703125
670,1726934584772,0.26098633,-0.8755493,-0.07940674,-21.328125,-68.578125,-8.34375
671,1726934584817,-0.046875,-0.8765259,-0.17730713,-11.9375,-68.65625,4.671875
672,1726934584862,-0.19604492,-0.5249634,-0.20587158,-19.390625,-69.46875,-4.3125
673,1726934584895,-0.19360352,-0.27886963,-0.10235596,-2.703125,-57.796875,-1.921875
674,1726934584938,-0.38134766,-0.13677979,-0.0256958,7.5625,-53.921875,7.21875
675,1726934584969,-0.044189453,0.0138549805,-0.14556885,11.109375,-52.609375,3.90625
676,1726934585012,0.0048828125,0.054382324,-0.18414307,20.46875,-63.96875,13.84375
677,1726934585058,0.31689453,-0.08648682,-0.54522705,40.03125,-101.046875,-1.625
678,1726934585087,0.024902344,-0.2732544,-0.24151611,44.015625,-126.515625,-2.359375
679,1726934585132,-0.27148438,-1.18927,-0.25054932,8.515625,-105.03125,22.0
680,1726934585178,-0.65722656,-2.0,1.1251831,-38.609375,-87.609375,-15.421875
681,1726934585208,0.109375,-2.0,0.9347534,-134.28125,-97.765625,-60.3125
682,1726934585256,0.25854492,-2.0,0.8251343,-107.546875,-6.28125,-17.8125
683,1726934585297,-1.0061035,-1.2901001,1.3661499,-35.5,31.109375,-18.890625
684,1726934585327,-0.080078125,-0.7481079,0.38323975,-55.46875,66.25,-32.84375
685,1726934585372,0.13012695,0.14959717,0.2753296,-40.78125,21.21875,-20.21875
686,1726934585418,0.061767578,-0.2876587,0.31292725,-47.875,16.234375,-7.703125
687,1726934585448,-0.14941406,-0.27301025,0.21356201,-49.234375,8.71875,-10.484375
688,1726934585492,-0.15795898,-0.20391846,0.42303467,-47.75,10.859375,-21.515625
689,1726934585538,-0.07421875,-0.32867432,0.50531006,-48.125,-4.75,-19.390625
690,1726934585568,-0.2006836,-0.46270752,0.9113159,-33.53125,-18.15625,-16.984375
691,1726934585612,-0.3762207,-0.82403564,1.0140991,-22.9375,-38.828125,-21.671875
692,1726934585689,-0.5280762,-0.9495239,0.9887085,-17.640625,-23.96875,-14.25
693,1726934585705,-0.5180664,-0.82769775,1.109314,-17.734375,-6.296875,-4.859375
694,1726934585736,-0.31054688,-0.53082275,0.92401123,-12.59375,2.515625,-8.734375
695,1726934585762,-0.20385742,-0.3477173,0.7802124,-5.90625,-0.015625,-3.703125
696,1726934585826,-0.33032227,-0.38531494,0.7494507,-0.6875,8.46875,2.578125
697,1726934585857,-0.24902344,-0.3526001,0.65252686,-5.890625,0.546875,-8.296875
698,1726934585885,-0.21655273,-0.4800415,0.69158936,-4.84375,-2.4375,-7.515625
699,1726934585928,-0.50341797,-0.74346924,0.70306396,-16.59375,7.125,-1.125
700,1726934585972,-0.203125,-0.89312744,0.8185425,-23.578125,7.59375,-24.328125
701,1726934586004,-0.40625,-0.7107544,0.74432373,2.078125,0.921875,4.90625
702,1726934586048,-0.36083984,-0.5042114,0.71258545,2.421875,5.296875,3.984375
703,1726934586093,-0.33251953,-0.6411743,0.81658936,18.265625,5.71875,9.34375
704,1726934586129,-0.29101562,-0.4343872,0.72406006,12.90625,6.6875,13.828125
705,1726934586168,-0.328125,-0.23394775,0.7748413,20.84375,6.578125,5.59375
706,1726934586216,-0.23095703,-0.5252075,0.7614136,23.078125,5.8125,9.171875
707,1726934586243,-0.053955078,-0.5762329,0.8432007,14.796875,4.515625,10.8125
708,1726934586288,-0.23583984,-0.60601807,0.8197632,27.078125,-1.359375,9.734375
709,1726934586332,-0.16870117,-0.7053833,0.82318115,19.21875,-0.1875,7.921875
710,1726934586362,-0.17138672,-0.7022095,0.66156006,26.4375,6.453125,8.34375
711,1726934586408,-0.21386719,-0.7974243,0.7428589,29.96875,3.015625,11.578125
712,1726934586452,-0.2578125,-0.786438,0.7304077,27.328125,4.375,11.71875
713,1726934586485,-0.15405273,-0.7124634,0.5648804,33.15625,4.96875,11.359375
714,1726934586530,-0.111083984,-0.7522583,0.58880615,32.625,2.28125,11.40625
715,1726934586557,-0.119628906,-0.800354,0.50115967,35.15625,-5.53125,12.71875
716,1726934586602,-0.075683594,-0.8218384,0.4718628,36.390625,-5.265625,13.609375
717,1726934586648,-0.16577148,-0.7998657,0.53045654,40.28125,-6.8125,11.8125
718,1726934586677,-0.11645508,-0.8225708,0.4069214,41.84375,-7.890625,12.703125
719,1726934586722,-0.095703125,-0.8682251,0.37078857,44.90625,-7.59375,13.28125
720,1726934586768,-0.05908203,-0.9024048,0.3451538,52.734375,-7.28125,14.984375
721,1726934586798,-0.03881836,-0.9121704,0.27435303,51.640625,-7.765625,18.0625
722,1726934586844,-0.030517578,-0.89068604,0.21087646,57.359375,-5.609375,20.046875
723,1726934586888,0.10424805,-0.850647,0.007751465,59.421875,-8.21875,23.140625
724,1726934586918,-0.1694336,-0.93756104,0.19891357,89.75,-8.015625,17.65625
725,1726934586964,0.25219727,-0.9854126,-0.0134887695,75.9375,-0.296875,10.296875
726,1726934587008,0.23632812,-1.0696411,-0.3862915,82.515625,-8.34375,7.359375
727,1726934587038,0.19995117,-0.8933716,-0.46417236,69.609375,-8.328125,12.140625
728,1726934587085,0.15576172,-0.98638916,-0.6397095,64.921875,-15.046875,25.046875
729,1726934587153,0.15039062,-1.3709106,-0.6079712,39.9375,-6.390625,15.25
730,1726934587165,0.44506836,-1.1636353,-0.93170166,37.96875,-11.078125,21.96875
731,1726934587206,0.17236328,-1.3674927,-0.89434814,18.734375,-16.890625,7.375
732,1726934587247,0.3178711,-1.3079224,-1.041565,6.546875,-27.9375,10.125
733,1726934587277,0.44360352,-1.1074829,-0.9805298,-7.484375,-25.0,-3.625
734,1726934587327,0.34985352,-0.98883057,-0.70758057,-10.125,-23.109375,0.34375
735,1726934587353,0.22509766,-0.69537354,-0.6355591,-12.984375,-16.0625,11.78125
736,1726934587397,0.20043945,-0.6170044,-0.7144165,-3.46875,-16.34375,8.796875
737,1726934587448,0.03466797,-0.80474854,-0.5991821,-3.03125,2.609375,-12.421875
738,1726934587473,0.14233398,-1.1118774,-0.49005127,-14.359375,19.5625,-28.4375
739,1726934587518,0.06323242,-0.8460083,-0.31671143,-25.078125,34.828125,-30.109375
740,1726934587565,0.09350586,-0.54156494,-0.36138916,-38.09375,33.625,-27.96875
741,1726934587593,0.28076172,-0.40460205,-0.32647705,-37.65625,25.140625,-30.421875
742,1726934587637,0.21606445,-0.41705322,-0.29742432,-36.5,19.765625,-17.9375
743,1726934587682,-0.039794922,-0.44293213,-0.41461182,-44.046875,15.203125,-21.296875
744,1726934587713,-0.030517578,-0.51568604,-0.33892822,-39.453125,16.078125,-33.046875
745,1726934587757,-0.009277344,-0.7202759,-0.35992432,-34.703125,17.765625,-24.953125
746,1726934587812,0.059570312,-1.0525513,-0.29571533,-28.125,12.375,-18.828125
747,1726934587833,0.046875,-0.817688,-0.25006104,-25.03125,3.21875,-12.703125
748,1726934587878,-0.2133789,-0.86065674,-0.13116455,-23.671875,3.015625,-3.890625
749,1726934587925,-0.14794922,-0.8128052,-0.094055176,-15.40625,-1.078125,-8.640625
750,1726934587952,-0.099365234,-0.79644775,-0.1038208,-9.484375,-7.90625,-5.234375
751,1726934587998,-0.04272461,-0.8386841,-0.10089111,-8.203125,-15.734375,2.21875
752,1726934588045,-0.18261719,-0.9077759,-0.08502197,-9.90625,-23.484375,4.390625
753,1726934588073,-0.1628418,-0.9241333,-0.019592285,-11.453125,-29.15625,1.515625
754,1726934588117,-0.11621094,-0.96759033,0.007751465,-13.296875,-34.171875,6.375
755,1726934588148,-0.17480469,-0.8994751,-0.035461426,-16.5625,-41.171875,4.328125
756,1726934588192,-0.31762695,-1.0134888,-0.021057129,-7.46875,-42.71875,1.390625
757,1726934588237,-0.31103516,-1.0942993,0.10272217,-10.109375,-30.765625,5.03125
758,1726934588272,-0.3076172,-1.2300415,-0.022521973,-18.4375,-42.765625,4.59375
759,1726934588313,0.13305664,-1.5310669,-0.120910645,-10.40625,-42.296875,2.03125
760,1726934588357,0.42919922,-1.2879028,-0.03668213,-17.90625,-30.984375,17.703125
761,1726934588387,0.25,-0.956604,-0.28179932,-13.78125,-48.5,8.84375
762,1726934588432,0.16455078,-0.8657837,-0.10772705,-5.28125,-56.9375,10.828125
763,1726934588478,0.26098633,-0.8584595,-0.02154541,-7.828125,-61.515625,5.46875
764,1726934588508,0.16796875,-0.9314575,-0.03277588,-14.796875,-58.65625,7.1875
765,1726934588555,0.0048828125,-0.98101807,0.093688965,-7.671875,-49.328125,-5.375
766,1726934588598,0.099853516,-0.90631104,0.11517334,-9.703125,-42.140625,-6.359375
767,1726934588630,0.12158203,-0.8887329,0.18328857,-2.046875,-39.3125,-2.765625
768,1726934588677,-0.01586914,-0.7420044,0.17376709,1.265625,-38.3125,-7.53125
769,1726934588718,-0.09277344,-0.71099854,0.22064209,5.859375,-34.125,-10.703125
