,Unnamed: 0,timestamp,accel_x,accel_y,accel_z,gyro_x,gyro_y,gyro_z
0,0,1727462561655,0.0036621094,-1.0432739,0.23675537,0.890625,10.34375,-9.421875
1,1,1727462561695,-0.29638672,-1.1135864,0.19525146,-9.84375,21.375,-13.359375
2,2,1727462561735,-0.17773438,-0.9883423,0.20184326,-10.875,27.890625,-10.203125
3,3,1727462561775,-0.1977539,-0.923645,0.21746826,-6.765625,35.0625,-10.65625
4,4,1727462561815,-0.092285156,-0.956604,0.23602295,3.859375,34.203125,-8.796875
5,5,1727462561855,0.017578125,-0.92559814,0.2477417,1.125,36.03125,-6.578125
6,6,1727462561895,-0.07543945,-1.034729,0.29510498,-1.515625,35.9375,-8.0
7,7,1727462561935,-0.075927734,-1.0352173,0.19720459,-0.984375,31.59375,-5.140625
8,8,1727462561975,-0.0859375,-0.9014282,0.2868042,10.40625,38.046875,-2.625
9,9,1727462562015,-0.19042969,-0.91485596,0.27679443,6.234375,37.0625,-6.953125
10,10,1727462562055,-0.15600586,-0.9048462,0.24188232,9.125,42.578125,-5.671875
11,11,1727462562095,-0.17236328,-0.92559814,0.21258545,15.765625,42.75,-7.703125
12,12,1727462562135,-0.18139648,-0.9380493,0.1828003,19.046875,43.40625,-8.125
13,13,1727462562175,-0.17504883,-0.9734497,0.19598389,17.03125,46.765625,-7.671875
14,14,1727462562215,-0.17504883,-0.9837036,0.18426514,18.296875,46.734375,-7.875
15,15,1727462562255,-0.22338867,-0.99786377,0.20843506,12.859375,49.5625,-8.109375
16,16,1727462562295,-0.25073242,-0.96588135,0.21600342,9.484375,57.046875,-10.234375
17,17,1727462562335,-0.31274414,-0.9356079,0.12176514,6.28125,56.046875,-11.390625
18,18,1727462562375,-0.091796875,-0.9871216,0.12615967,5.109375,46.90625,-10.1875
19,19,1727462562415,-0.1538086,-0.9595337,0.18548584,2.234375,42.96875,-10.828125
20,20,1727462562455,-0.18359375,-0.9446411,0.20184326,3.828125,34.234375,-10.34375
21,21,1727462562495,-0.2607422,-0.9385376,0.1864624,1.4375,27.234375,-11.453125
22,22,1727462562535,-0.30395508,-0.84698486,0.15032959,9.859375,21.40625,-15.109375
23,23,1727462562575,-0.20532227,-0.9024048,0.09442139,24.390625,20.5625,-16.78125
24,24,1727462562615,-0.1796875,-1.0730591,-0.039123535,21.015625,14.78125,-19.265625
25,25,1727462562655,-0.2055664,-1.2671509,-0.021057129,29.859375,18.875,-14.078125
26,26,1727462562695,-0.18017578,-0.9204712,-0.17120361,51.828125,24.015625,5.28125
27,27,1727462562735,-0.19067383,-0.7647095,0.04486084,28.5625,26.890625,-9.078125
28,28,1727462562775,-0.43530273,-1.0425415,-0.09429932,9.421875,39.140625,-14.125
29,29,1727462562815,-0.3623047,-1.1150513,-0.101867676,13.03125,41.84375,-4.84375
30,30,1727462562855,-0.2211914,-0.99957275,0.01776123,-1.625,29.65625,-8.40625
31,31,1727462562895,-0.3178711,-0.99102783,-0.024963379,-1.265625,40.765625,-4.265625
32,32,1727462562935,-0.25048828,-0.8296509,-0.04449463,12.484375,34.328125,2.8125
33,33,1727462562975,-0.2668457,-0.9234009,-0.08282471,10.765625,24.296875,1.921875
34,34,1727462563015,-0.37670898,-0.98272705,-0.005432129,10.59375,22.15625,3.5625
35,35,1727462563055,-0.3786621,-0.93292236,-0.035949707,8.09375,19.515625,6.6875
36,36,1727462563095,-0.33569336,-0.944397,-0.09625244,3.671875,13.953125,7.796875
37,37,1727462563135,-0.3479004,-0.95684814,-0.047180176,5.65625,10.0,9.984375
38,38,1727462563175,-0.53393555,-0.8406372,0.051696777,0.984375,18.25,9.71875
39,39,1727462563215,-0.56689453,-0.8831177,0.020446777,4.453125,19.765625,9.046875
40,40,1727462563255,-0.4182129,-0.87506104,-0.04107666,-4.515625,25.8125,7.34375
41,41,1727462563295,-0.46533203,-0.8814087,-0.0115356445,-3.640625,24.09375,4.578125
42,42,1727462563335,-0.41967773,-0.9751587,-0.047180176,-5.046875,21.15625,0.8125
43,43,1727462563375,-0.24633789,-1.0271606,0.019958496,-0.21875,17.984375,-1.421875
44,44,1727462563415,-0.11791992,-1.0862427,0.0021362305,0.390625,17.40625,1.625
45,45,1727462563455,-0.18383789,-1.15094,0.105651855,-6.46875,22.90625,-6.578125
46,46,1727462563495,-0.1484375,-1.21344,-0.023986816,0.625,24.4375,-0.03125
47,47,1727462563535,0.06298828,-1.0332642,0.046813965,-3.84375,25.640625,3.71875
48,48,1727462563575,-0.06542969,-1.1160278,0.12982178,-12.5,22.546875,1.828125
49,49,1727462563615,-0.01928711,-0.9883423,0.116882324,-9.359375,16.5,6.703125
50,50,1727462563655,-0.026367188,-0.83135986,0.18939209,-7.890625,14.625,5.75
51,51,1727462563695,-0.044921875,-0.87945557,0.15301514,-7.625,8.875,5.890625
52,52,1727462563735,-0.15722656,-0.88946533,0.15765381,-2.6875,6.9375,5.390625
53,53,1727462563775,-0.16064453,-0.93536377,0.1071167,-7.140625,2.59375,1.578125
54,54,1727462563815,-0.17871094,-0.98321533,0.11199951,-0.796875,4.203125,1.421875
55,55,1727462563855,-0.25683594,-0.9402466,0.16351318,1.6875,12.171875,-0.34375
56,56,1727462563895,-0.17553711,-0.9024048,0.17718506,1.015625,12.765625,0.3125
57,57,1727462563935,-0.041748047,-0.93951416,0.24456787,-0.78125,7.734375,-1.25
58,58,1727462563975,-0.119628906,-0.91607666,0.2897339,-1.484375,0.75,-3.9375
59,59,1727462564015,-0.1171875,-0.90875244,0.28826904,-1.734375,-5.171875,-3.40625
60,60,1727462564055,-0.13964844,-0.90509033,0.2736206,-3.109375,-6.828125,-3.765625
61,61,1727462564095,-0.095214844,-0.9734497,0.2333374,-1.828125,-12.90625,-4.234375
62,62,1727462564135,-0.2512207,-0.9534302,0.29437256,-7.25,-11.671875,-5.125
63,63,1727462564175,-0.40161133,-1.015686,0.33441162,-6.140625,-7.640625,-5.390625
64,64,1727462564215,-0.18334961,-1.1497192,0.18353271,-2.546875,-22.625,-0.328125
65,65,1727462564255,0.026123047,-1.050354,0.25091553,-7.921875,-24.671875,5.375
66,66,1727462564295,-0.27392578,-1.0603638,0.13519287,-13.53125,-28.234375,-2.609375
67,67,1727462564335,-0.1586914,-1.0779419,0.058044434,-6.859375,-20.8125,2.03125
68,68,1727462564375,-0.13598633,-0.9541626,0.10076904,-12.25,-13.28125,-1.421875
69,69,1727462564415,-0.20019531,-0.98150635,0.09588623,-12.90625,-18.046875,-4.59375
70,70,1727462564455,-0.13598633,-1.0640259,0.10321045,-9.125,-23.640625,-3.4375
71,71,1727462564495,-0.15185547,-0.97906494,0.1227417,-12.453125,-30.203125,-3.09375
72,72,1727462564535,-0.1694336,-0.8845825,0.16473389,-9.734375,-33.71875,-0.234375
73,73,1727462564575,-0.27319336,-0.8826294,0.14935303,-10.234375,-33.59375,3.203125
74,74,1727462564615,-0.26660156,-0.9248657,0.08392334,-18.1875,-41.546875,5.21875
75,75,1727462564655,-0.32470703,-0.8994751,0.184021,-16.375,-43.1875,5.328125
76,76,1727462564695,-0.32714844,-0.8735962,0.22235107,-11.0,-37.21875,8.0625
77,77,1727462564735,-0.31103516,-0.8562622,0.21746826,-10.359375,-34.171875,8.65625
78,78,1727462564775,-0.28344727,-0.92510986,0.21453857,-7.203125,-30.625,9.390625
79,79,1727462564815,-0.3527832,-0.9180298,0.22869873,-9.0,-26.875,6.59375
80,80,1727462564855,-0.43676758,-0.9143677,0.19232178,-8.0,-29.3125,6.75
81,81,1727462564895,-0.3190918,-0.90093994,0.2772827,-9.734375,-23.921875,7.453125
82,82,1727462564935,-0.28393555,-0.9397583,0.33831787,-16.125,-30.28125,4.96875
83,83,1727462564975,-0.37402344,-0.95928955,0.2958374,-17.171875,-38.46875,5.40625
84,84,1727462565015,-0.39892578,-1.0342407,0.32366943,-18.984375,-39.96875,3.28125
85,85,1727462565055,-0.36279297,-1.038147,0.2597046,-6.578125,-29.328125,5.28125
86,86,1727462565095,-0.20214844,-1.1055298,0.2855835,-13.046875,-24.765625,9.09375
87,87,1727462565135,-0.1784668,-0.956604,0.2670288,-21.0,-30.765625,8.109375
88,88,1727462565175,-0.41430664,-0.8587036,0.1642456,-4.78125,-23.671875,9.078125
89,89,1727462565215,-0.107666016,-0.8064575,0.1828003,5.0,-17.03125,13.640625
90,90,1727462565255,0.11425781,-0.8694458,0.20111084,3.171875,-18.671875,18.3125
91,91,1727462565295,-0.20751953,-1.0022583,0.26483154,-7.15625,-26.140625,14.6875
92,92,1727462565335,-0.14916992,-1.1133423,0.25579834,-5.609375,-26.03125,16.375
93,93,1727462565375,-0.2265625,-0.9902954,0.3168335,-11.28125,-17.578125,12.578125
94,94,1727462565415,-0.26293945,-0.8633423,0.21673584,2.484375,-23.078125,10.765625
95,95,1727462565455,-0.12548828,-0.8711548,0.29730225,6.328125,-17.125,12.65625
96,96,1727462565495,-0.16015625,-0.9390259,0.28533936,2.140625,-19.828125,9.078125
97,97,1727462565535,-0.09814453,-0.92559814,0.30096436,-1.203125,-18.375,10.140625
98,98,1727462565575,-0.096191406,-0.9246216,0.30413818,0.1875,-18.375,7.03125
99,99,1727462565615,-0.072753906,-0.88726807,0.25408936,-2.59375,-23.875,5.40625
100,100,1727462565655,-0.09033203,-0.94000244,0.309021,-0.140625,-26.0,3.8125
101,101,1727462565695,-0.1274414,-0.9324341,0.27313232,-6.546875,-26.0625,2.96875
102,102,1727462565735,-0.26220703,-0.9019165,0.35858154,-7.734375,-22.671875,-0.109375
103,103,1727462565775,-0.32250977,-0.92681885,0.29852295,-2.171875,-20.78125,-3.828125
104,104,1727462565815,-0.2861328,-0.9338989,0.35809326,-4.328125,-15.015625,-4.203125
105,105,1727462565855,-0.2783203,-0.9951782,0.31658936,4.625,-18.9375,-4.234375
106,106,1727462565895,-0.15942383,-1.0342407,0.30340576,1.75,-20.1875,0.109375
107,107,1727462565935,-0.16796875,-1.1238403,0.26239014,5.65625,-20.09375,1.1875
108,108,1727462565975,-0.0009765625,-1.0994263,0.16986084,1.1875,-21.78125,7.734375
109,109,1727462566015,0.057128906,-1.003479,0.1395874,-4.84375,-28.0,2.71875
110,110,1727462566055,-0.20141602,-0.97247314,0.09197998,-8.359375,-30.203125,-2.125
111,111,1727462566095,-0.19458008,-0.91973877,-0.04083252,-5.546875,-25.484375,1.671875
112,112,1727462566135,-0.22949219,-0.9194946,-0.007873535,-4.609375,-27.53125,0.859375
113,113,1727462566175,-0.2548828,-1.0293579,0.055358887,-5.265625,-32.203125,-0.40625
114,114,1727462566215,-0.20117188,-1.0376587,0.04144287,-8.640625,-34.9375,2.828125
115,115,1727462566255,-0.22070312,-0.9927368,0.08660889,-13.265625,-40.78125,2.140625
116,116,1727462566295,-0.21972656,-0.8987427,0.0770874,-7.109375,-41.609375,6.53125
117,117,1727462566335,-0.18603516,-0.97857666,0.047302246,-11.640625,-48.828125,5.140625
118,118,1727462566375,-0.24511719,-1.0049438,0.034606934,-19.28125,-57.09375,8.375
119,119,1727462566415,-0.2541504,-1.0073853,0.050231934,-17.046875,-59.53125,10.671875
120,120,1727462566455,-0.26416016,-0.956604,0.018981934,-19.40625,-65.9375,14.984375
121,121,1727462566495,-0.2277832,-0.9170532,0.050964355,-17.921875,-68.03125,14.625
122,122,1727462566535,-0.3557129,-0.9507446,0.09246826,-19.359375,-61.265625,10.03125
123,123,1727462566575,-0.34960938,-0.9573364,0.062927246,-19.25,-69.6875,14.34375
124,124,1727462566615,-0.39257812,-0.93292236,0.048034668,-19.109375,-68.5,13.375
125,125,1727462566655,-0.38134766,-0.97540283,0.042907715,-25.609375,-66.5,12.75
126,126,1727462566695,-0.31933594,-0.927063,0.06390381,-27.15625,-77.359375,15.859375
127,127,1727462566735,-0.39819336,-1.0049438,0.10296631,-23.4375,-73.4375,17.6875
128,128,1727462566775,-0.22021484,-1.0056763,0.074645996,-21.625,-79.125,24.75
129,129,1727462566815,-0.24243164,-0.98272705,0.05999756,-17.078125,-76.625,27.34375
130,130,1727462566855,-0.10961914,-0.80133057,0.15863037,-6.453125,-77.734375,36.03125
131,131,1727462566895,0.15209961,-0.9492798,0.23480225,4.578125,-68.0,40.53125
132,132,1727462566935,-0.15283203,-1.0100708,0.14788818,-4.71875,-62.390625,26.75
133,133,1727462566975,-0.23779297,-1.0982056,0.082458496,12.34375,-51.96875,28.578125
134,134,1727462567015,-0.06958008,-0.9717407,0.19500732,7.328125,-48.6875,24.171875
135,135,1727462567055,0.0146484375,-0.8982544,0.11907959,9.453125,-50.125,22.734375
136,136,1727462567095,0.05908203,-0.91485596,0.1005249,16.515625,-49.328125,21.671875
137,137,1727462567135,-0.018310547,-0.9277954,0.044128418,9.765625,-50.515625,20.125
138,138,1727462567175,0.092041016,-0.88946533,-0.035217285,16.625,-49.765625,20.984375
139,139,1727462567215,0.084228516,-0.84161377,-0.06036377,20.84375,-43.5,19.875
140,140,1727462567255,0.0949707,-0.84332275,-0.053527832,21.453125,-41.25,19.90625
141,141,1727462567295,0.14770508,-0.70758057,-0.023742676,24.84375,-38.25,19.921875
142,142,1727462567335,0.033935547,-0.6589966,-0.04547119,26.390625,-28.734375,12.59375
143,143,1727462567375,-0.010498047,-0.6211548,-0.12945557,19.546875,-29.65625,6.78125
144,144,1727462567415,-0.017578125,-0.81427,-0.0713501,25.28125,-28.125,5.6875
145,145,1727462567455,0.15185547,-0.96466064,-0.14312744,4.546875,-31.90625,-1.3125
146,146,1727462567495,0.09277344,-0.8809204,-0.15264893,10.859375,-29.078125,2.140625
147,147,1727462567535,0.16601562,-1.0217896,-0.15533447,-4.8125,-34.5625,-10.375
148,148,1727462567575,0.10571289,-1.1472778,-0.07989502,-11.109375,-29.890625,-9.609375
149,149,1727462567615,-0.07104492,-1.2271118,-0.03765869,-12.203125,-16.65625,-28.34375
150,150,1727462567655,-0.01586914,-1.27594,0.043395996,-22.625,-13.5625,-26.328125
151,151,1727462567695,0.007080078,-1.1497192,0.18597412,-34.234375,-1.0,-26.6875
152,152,1727462567735,-0.061767578,-1.2368774,0.17791748,-41.0,-4.421875,-27.046875
153,153,1727462567775,-0.036376953,-1.3997192,0.30755615,-50.375,-2.3125,-25.078125
154,154,1727462567815,-0.27172852,-1.2632446,0.37054443,-58.359375,6.75,-33.03125
155,155,1727462567855,-0.2097168,-1.1807251,0.40447998,-41.546875,-5.234375,-21.40625
156,156,1727462567895,-0.36938477,-1.0606079,0.5170288,-40.859375,11.671875,-29.53125
157,157,1727462567935,-0.42651367,-0.87042236,0.41082764,-17.875,8.6875,-14.4375
158,158,1727462567975,-0.20410156,-0.79571533,0.39569092,-1.3125,3.828125,-9.40625
159,159,1727462568015,-0.20947266,-0.9092407,0.3788452,-3.3125,-3.34375,-9.96875
160,160,1727462568055,-0.20043945,-0.9492798,0.2670288,-6.296875,0.703125,-12.4375
161,161,1727462568095,-0.13232422,-0.70318604,0.41229248,-11.28125,-3.421875,-8.328125
162,162,1727462568135,-0.3010254,-0.67022705,0.4147339,-4.234375,-1.171875,-5.3125
163,163,1727462568175,-0.35473633,-0.77789307,0.3788452,-2.28125,-0.171875,-0.140625
164,164,1727462568215,-0.20605469,-0.9414673,0.4220581,0.8125,-0.203125,-1.25
165,165,1727462568255,-0.28442383,-0.90704346,0.42523193,-10.546875,-1.765625,-0.875
166,166,1727462568295,-0.27783203,-0.973938,0.4611206,-10.375,-5.703125,-1.890625
167,167,1727462568335,-0.2529297,-1.0706177,0.46307373,-9.8125,-4.0,-1.625
168,168,1727462568375,-0.30273438,-0.9859009,0.4833374,-5.765625,5.234375,-2.453125
169,169,1727462568415,-0.29541016,-0.83917236,0.46722412,5.859375,7.421875,0.390625
170,170,1727462568455,-0.18481445,-0.8413696,0.41815186,6.921875,4.203125,4.671875
171,171,1727462568495,-0.18139648,-0.8357544,0.463562,10.984375,1.703125,3.390625
172,172,1727462568535,-0.2211914,-0.76690674,0.34735107,16.953125,5.046875,5.953125
173,173,1727462568575,-0.17553711,-0.8106079,0.3612671,10.46875,-0.4375,8.75
174,174,1727462568615,-0.1484375,-0.9133911,0.3624878,9.546875,-3.890625,6.6875
175,175,1727462568655,-0.23217773,-0.87042236,0.30169678,5.234375,0.0625,8.125
176,176,1727462568695,-0.19042969,-0.9536743,0.3378296,17.0625,-1.828125,8.53125
177,177,1727462568735,-0.15356445,-0.9734497,0.3163452,10.421875,-2.203125,7.1875
178,178,1727462568775,-0.20874023,-0.9470825,0.3600464,14.890625,-1.171875,8.265625
179,179,1727462568815,-0.19506836,-0.9854126,0.32366943,16.09375,0.5625,7.234375
180,180,1727462568855,-0.17114258,-0.9204712,0.29925537,20.421875,3.0625,8.8125
181,181,1727462568895,-0.1315918,-0.93585205,0.27947998,22.5625,-1.453125,10.25
182,182,1727462568935,-0.140625,-0.96099854,0.24285889,26.484375,-0.375,11.8125
183,183,1727462568975,-0.12475586,-0.9324341,0.20062256,30.03125,-0.5625,13.65625
184,184,1727462569015,-0.15332031,-0.92633057,0.19720459,24.015625,0.34375,12.703125
185,185,1727462569055,-0.09326172,-0.89068604,0.12640381,40.59375,-4.234375,18.484375
186,186,1727462569095,-0.11694336,-0.9324341,0.12249756,46.390625,-0.984375,17.578125
187,187,1727462569135,-0.09301758,-0.9963989,-0.034240723,52.65625,-5.5,19.65625
188,188,1727462569175,0.049316406,-1.1494751,-0.08843994,52.234375,-4.9375,21.09375
189,189,1727462569215,0.06958008,-1.335022,-0.28692627,32.359375,-8.21875,16.984375
190,190,1727462569255,0.07763672,-1.4326782,-0.33868408,27.609375,0.5,14.25
191,191,1727462569295,0.11621094,-1.1904907,-0.28253174,17.046875,-3.546875,7.015625
192,192,1727462569335,0.04711914,-1.0911255,-0.3262329,12.265625,-3.9375,3.28125
193,193,1727462569375,0.12792969,-1.0559692,-0.3447876,12.59375,-6.34375,1.703125
194,194,1727462569415,0.24536133,-1.0591431,-0.39971924,4.171875,-10.484375,-0.90625
195,195,1727462569455,0.15625,-1.008606,-0.33746338,-5.59375,-6.015625,-4.59375
196,196,1727462569495,0.14941406,-1.0501099,-0.32940674,-8.90625,-4.546875,-7.390625
197,197,1727462569535,0.17675781,-1.1255493,-0.2822876,-11.6875,-2.015625,-11.078125
198,198,1727462569575,0.12866211,-1.131897,-0.2546997,-24.53125,-4.078125,-14.484375
199,199,1727462569615,0.04345703,-1.0183716,-0.19488525,-29.125,-3.8125,-15.734375
200,200,1727462569655,-0.0061035156,-0.93756104,-0.1765747,-30.625,-7.421875,-18.03125
201,201,1727462569695,-0.026611328,-0.88604736,-0.15704346,-28.578125,-4.9375,-24.4375
202,202,1727462569735,-0.1418457,-0.69537354,-0.144104,-26.265625,-0.828125,-27.078125
203,203,1727462569775,-0.028808594,-0.70880127,-0.12286377,-21.09375,0.875,-24.78125
204,204,1727462569815,-0.06689453,-0.77911377,-0.1038208,-31.75,10.1875,-29.046875
205,205,1727462569855,-0.16064453,-0.831604,-0.15997314,-35.71875,11.3125,-25.25
206,206,1727462569895,-0.15454102,-0.6358032,-0.093811035,-12.28125,18.171875,-18.125
207,207,1727462569935,-0.18530273,-0.70269775,0.009460449,-13.140625,15.328125,-17.40625
208,208,1727462569975,-0.2836914,-0.89727783,0.016540527,-9.390625,16.5625,-14.453125
209,209,1727462570015,-0.30493164,-0.788147,0.026306152,-0.5625,14.859375,-7.71875
210,210,1727462570055,-0.11352539,-0.8074341,0.04168701,2.796875,4.5,-8.203125
211,211,1727462570095,-0.21020508,-0.9055786,-0.11016846,4.15625,7.046875,-1.375
212,212,1727462570135,-0.3166504,-1.1970825,-0.05328369,-1.484375,-4.640625,0.6875
213,213,1727462570175,-0.37353516,-0.83599854,0.14007568,13.578125,-2.296875,12.421875
214,214,1727462570215,-0.47705078,-0.7842407,0.16815186,2.828125,8.71875,3.0
215,215,1727462570255,-0.27490234,-0.90875244,0.06512451,3.421875,-1.609375,4.140625
216,216,1727462570295,-0.31884766,-0.8977661,0.1305542,4.078125,0.828125,3.078125
217,217,1727462570335,-0.51049805,-0.99420166,0.09075928,-1.890625,10.0,4.5625
218,218,1727462570375,-0.36206055,-1.000061,0.09710693,-6.921875,11.046875,6.984375
219,219,1727462570415,-0.32470703,-1.0459595,0.112976074,-14.1875,-2.34375,1.109375
220,220,1727462570455,-0.33544922,-1.1843872,0.11956787,-15.421875,0.96875,-2.9375
221,221,1727462570495,-0.36254883,-1.468811,0.14105225,-19.015625,8.609375,-7.125
222,222,1727462570535,-0.1508789,-1.1218872,-0.03692627,-11.421875,7.0625,-1.515625
223,223,1727462570575,-0.24658203,-0.7666626,-0.017150879,0.609375,7.5625,5.96875
224,224,1727462570615,-0.030517578,-0.70758057,0.039245605,4.125,11.921875,1.09375
225,225,1727462570655,0.14916992,-0.8845825,0.06707764,-7.625,4.671875,-0.921875
226,226,1727462570695,-0.030029297,-0.9619751,0.18133545,-13.6875,1.875,-1.734375
227,227,1727462570735,-0.17944336,-1.0447388,0.14349365,-8.4375,0.5,-3.640625
228,228,1727462570775,-0.14501953,-1.1624146,0.17010498,-8.171875,-2.859375,-2.46875
229,229,1727462570815,-0.21264648,-0.9846802,0.17669678,-7.921875,1.890625,3.6875
230,230,1727462570855,-0.27661133,-0.8340454,0.18475342,-4.453125,3.203125,3.921875
231,231,1727462570895,-0.2241211,-0.8916626,0.2086792,5.078125,5.5,4.09375
232,232,1727462570935,-0.14672852,-0.90509033,0.20135498,2.421875,5.34375,5.734375
233,233,1727462570975,-0.1340332,-0.83306885,0.23822021,1.28125,6.5,3.328125
234,234,1727462571015,-0.15258789,-0.8389282,0.21429443,1.359375,1.5625,-0.90625
235,235,1727462571055,-0.13671875,-0.9126587,0.24285889,-1.375,-3.046875,-4.21875
236,236,1727462571095,-0.19116211,-0.93878174,0.2296753,-6.203125,-7.828125,-3.953125
237,237,1727462571135,-0.18261719,-0.90826416,0.18695068,-2.5,-12.75,-5.109375
238,238,1727462571175,-0.29516602,-0.99713135,0.35198975,-14.984375,-5.0,-6.953125
239,239,1727462571215,-0.6965332,-0.96954346,0.4784546,-20.640625,13.03125,-14.359375
240,240,1727462571255,-0.5275879,-0.9343872,0.35736084,2.046875,20.734375,-12.96875
241,241,1727462571295,-0.10986328,-1.0903931,0.387146,1.53125,16.09375,-13.28125
242,242,1727462571335,-0.078125,-1.0701294,0.21697998,-0.09375,9.59375,-5.828125
243,243,1727462571375,-0.21655273,-1.187561,0.121032715,-14.5625,6.375,-5.5
244,244,1727462571415,-0.107177734,-0.87457275,0.120788574,9.9375,4.328125,11.734375
245,245,1727462571455,-0.2121582,-0.71051025,0.21014404,16.859375,4.75,-4.0625
246,246,1727462571495,-0.2265625,-0.99957275,0.13006592,-5.6875,9.625,-8.359375
247,247,1727462571535,-0.20800781,-1.1101685,0.03338623,-4.1875,5.640625,-1.765625
248,248,1727462571575,-0.23144531,-1.0630493,0.09661865,-5.53125,-8.9375,-2.8125
249,249,1727462571615,-0.16210938,-0.99957275,0.17718506,-3.453125,-16.578125,-0.203125
250,250,1727462571655,-0.17456055,-0.91900635,0.22332764,-0.5,-18.234375,0.515625
251,251,1727462571695,-0.28833008,-0.82037354,0.15985107,11.015625,-17.484375,4.25
252,252,1727462571735,-0.33081055,-0.8701782,0.152771,12.5,-13.015625,3.296875
253,253,1727462571775,-0.40283203,-0.8899536,0.13031006,5.15625,-12.8125,3.515625
254,254,1727462571815,-0.34643555,-0.9026489,0.13812256,4.359375,-11.921875,6.21875
255,255,1727462571855,-0.3857422,-0.92388916,0.16619873,-1.78125,-6.65625,5.359375
256,256,1727462571895,-0.35888672,-0.87164307,0.20159912,-3.0,-5.015625,7.09375
257,257,1727462571935,-0.31323242,-0.9060669,0.16497803,-3.890625,-3.171875,6.046875
258,258,1727462571975,-0.3317871,-0.909729,0.17132568,-8.6875,-1.515625,5.59375
259,259,1727462572015,-0.31689453,-0.9109497,0.2230835,-6.421875,-4.15625,6.046875
260,260,1727462572055,-0.21972656,-0.9475708,0.32781982,-9.0625,-14.90625,4.765625
261,261,1727462572095,-0.32177734,-1.0308228,0.3751831,-9.765625,-22.203125,3.328125
262,262,1727462572135,-0.48632812,-0.92388916,0.3944702,-8.546875,-13.265625,2.515625
263,263,1727462572175,-0.60595703,-1.0593872,0.277771,-6.765625,1.140625,-3.546875
264,264,1727462572215,-0.43920898,-1.0718384,0.21380615,3.03125,4.125,-4.546875
265,265,1727462572255,-0.33129883,-1.1428833,0.16400146,-0.796875,15.9375,-3.734375
266,266,1727462572295,-0.122802734,-0.9065552,0.057556152,-5.984375,15.15625,-2.015625
267,267,1727462572335,-0.09399414,-0.8855591,0.04071045,-4.40625,12.78125,4.078125
268,268,1727462572375,-0.16577148,-0.87945557,0.11566162,5.59375,14.296875,-0.03125
269,269,1727462572415,-0.114990234,-0.96466064,0.18865967,1.671875,15.203125,-0.5
270,270,1727462572455,-0.19311523,-1.0022583,0.21453857,-10.375,23.78125,-3.546875
271,271,1727462572495,-0.34545898,-0.9949341,0.11859131,-0.15625,26.71875,-6.015625
272,272,1727462572535,-0.21801758,-0.95440674,0.16571045,-0.3125,31.453125,-4.234375
273,273,1727462572575,-0.24658203,-0.8538208,0.24871826,8.34375,40.34375,-2.328125
274,274,1727462572615,-0.2175293,-0.8587036,0.22039795,4.625,42.09375,-2.5625
275,275,1727462572655,-0.14404297,-0.9158325,0.2518921,7.0625,40.203125,-3.296875
276,276,1727462572695,-0.19165039,-0.8279419,0.28533936,5.6875,40.265625,-4.0625
277,277,1727462572735,-0.21679688,-0.88409424,0.277771,9.140625,39.28125,-5.296875
278,278,1727462572775,-0.17529297,-0.92755127,0.23138428,10.40625,33.203125,-6.1875
279,279,1727462572815,-0.13916016,-0.95635986,0.29803467,9.265625,30.765625,-4.859375
280,280,1727462572855,-0.18920898,-0.94244385,0.30755615,8.71875,29.59375,-4.09375
281,281,1727462572895,-0.25,-0.86138916,0.35491943,12.953125,33.046875,-3.453125
282,282,1727462572935,-0.2397461,-0.86676025,0.28729248,11.125,31.90625,-5.921875
283,283,1727462572975,-0.19482422,-0.9024048,0.28460693,9.3125,27.15625,-6.6875
284,284,1727462573015,-0.24731445,-1.0772095,0.36810303,5.59375,29.546875,-5.75
285,285,1727462573055,-0.23486328,-1.1812134,0.19232178,-4.796875,19.640625,-8.546875
286,286,1727462573095,-0.29223633,-1.2183228,0.1383667,-1.328125,16.25,-4.9375
287,287,1727462573135,-0.3149414,-1.1126099,0.19232178,-2.421875,24.6875,0.234375
288,288,1727462573175,-0.080322266,-0.8982544,0.10028076,-0.21875,32.515625,2.921875
289,289,1727462573215,-0.20532227,-0.84991455,0.08074951,1.109375,24.8125,-13.59375
290,290,1727462573255,-0.17358398,-0.9429321,-0.04888916,8.25,22.0625,-7.390625
291,291,1727462573295,-0.1237793,-0.99298096,0.04144287,13.9375,17.125,-9.125
292,292,1727462573335,-0.23535156,-1.0249634,0.09954834,7.953125,11.78125,-7.25
293,293,1727462573375,-0.33129883,-0.9885864,0.14813232,12.0625,19.703125,-7.515625
294,294,1727462573415,-0.26123047,-0.8496704,0.12005615,10.65625,21.375,-6.78125
295,295,1727462573455,-0.1508789,-0.8838501,0.054870605,11.78125,15.765625,-9.375
296,296,1727462573495,-0.27612305,-0.9915161,0.11126709,9.328125,16.609375,-7.03125
297,297,1727462573535,-0.25830078,-0.9976196,0.07684326,6.578125,10.703125,-2.984375
298,298,1727462573575,-0.1928711,-0.9793091,0.08123779,7.15625,4.8125,-1.859375
299,299,1727462573615,-0.29003906,-0.9624634,0.1293335,3.09375,4.8125,-1.0
300,300,1727462573655,-0.37304688,-0.8699341,0.10418701,6.359375,9.171875,-0.03125
301,301,1727462573695,-0.35180664,-0.8460083,0.09857178,10.15625,5.84375,0.078125
302,302,1727462573735,-0.2397461,-0.91607666,0.09637451,0.828125,3.078125,0.21875
303,303,1727462573775,-0.34643555,-1.0125122,0.10491943,-9.09375,10.109375,0.171875
304,304,1727462573815,-0.26123047,-0.99884033,0.18548584,-10.390625,3.140625,-1.71875
305,305,1727462573855,-0.31396484,-0.95928955,0.20355225,-17.25,-0.5625,-3.203125
306,306,1727462573895,-0.453125,-0.9483032,0.291687,-11.609375,-0.03125,-2.59375
307,307,1727462573935,-0.5144043,-0.83721924,0.25335693,-10.59375,-0.671875,-2.453125
308,308,1727462573975,-0.41503906,-0.9649048,0.19744873,-9.71875,3.5,-8.828125
309,309,1727462574015,-0.37426758,-1.0025024,0.22088623,-8.90625,9.171875,-5.484375
310,310,1727462574055,-0.33862305,-1.1438599,0.20501709,-6.46875,10.5,-10.09375
311,311,1727462574095,-0.36010742,-0.9456177,0.13421631,-5.609375,20.203125,-8.328125
312,312,1727462574135,-0.29638672,-0.8948364,0.08905029,-0.640625,13.8125,-5.78125
313,313,1727462574175,-0.1171875,-0.86724854,0.17889404,2.765625,23.5625,-4.9375
314,314,1727462574215,-0.12963867,-0.9429321,0.13690186,3.90625,22.546875,-6.078125
315,315,1727462574255,-0.17895508,-1.0256958,0.24334717,0.84375,23.28125,-6.1875
316,316,1727462574295,-0.31420898,-1.0615845,0.24090576,3.234375,31.21875,-4.03125
317,317,1727462574335,-0.34179688,-1.0720825,0.19281006,0.328125,36.375,-3.8125
318,318,1727462574375,-0.20800781,-0.8899536,0.25823975,4.640625,37.265625,0.96875
319,319,1727462574415,-0.23266602,-0.8587036,0.26556396,2.59375,38.84375,-1.96875
320,320,1727462574455,-0.1743164,-0.9053345,0.21380615,1.390625,34.671875,-2.234375
321,321,1727462574495,-0.12963867,-0.8899536,0.26263428,6.296875,36.25,-3.171875
322,322,1727462574535,-0.16796875,-0.83721924,0.246521,5.640625,30.90625,-4.40625
323,323,1727462574575,-0.15234375,-0.9702759,0.22698975,10.15625,23.53125,-3.921875
324,324,1727462574615,-0.18823242,-1.0264282,0.30560303,4.734375,19.765625,-2.015625
325,325,1727462574655,-0.30932617,-0.89434814,0.35125732,0.984375,20.53125,-5.109375
326,326,1727462574695,-0.19238281,-0.9014282,0.3522339,-1.921875,17.0625,-7.65625
327,327,1727462574735,-0.2836914,-0.82525635,0.3505249,2.125,14.328125,-7.203125
328,328,1727462574775,-0.24682617,-0.88897705,0.324646,4.296875,12.640625,-7.59375
329,329,1727462574815,-0.26831055,-0.88848877,0.3456421,2.75,12.828125,-7.984375
330,330,1727462574855,-0.36767578,-0.9224243,0.30950928,4.421875,12.296875,-9.703125
331,331,1727462574895,-0.24023438,-1.0584106,0.27069092,-2.875,6.71875,-5.421875
332,332,1727462574935,-0.24560547,-0.9849243,0.2694702,0.734375,10.203125,-1.109375
333,333,1727462574975,-0.47070312,-1.0967407,0.22259521,-1.375,11.90625,-6.984375
334,334,1727462575015,-0.14624023,-0.9783325,0.1618042,6.59375,8.015625,1.375
335,335,1727462575055,-0.18896484,-0.7913208,0.2850952,13.140625,19.5,-7.40625
336,336,1727462575095,-0.16381836,-0.95684814,0.18328857,1.90625,12.984375,-10.6875
337,337,1727462575135,-0.13720703,-1.0110474,0.043884277,5.265625,16.8125,-5.34375
338,338,1727462575175,-0.2529297,-1.0088501,0.11883545,12.578125,13.578125,-8.265625
339,339,1727462575215,-0.2290039,-0.99420166,0.18548584,6.8125,8.140625,-9.703125
340,340,1727462575255,-0.21435547,-0.9883423,0.19818115,8.703125,4.765625,-7.84375
341,341,1727462575295,-0.26586914,-0.90338135,0.1317749,8.28125,4.609375,-8.40625
342,342,1727462575335,-0.3244629,-0.92144775,0.1083374,7.234375,5.796875,-7.953125
343,343,1727462575375,-0.25805664,-0.93756104,0.13421631,7.234375,1.703125,-7.421875
344,344,1727462575415,-0.3125,-0.940979,0.10809326,3.71875,-3.390625,-5.4375
345,345,1727462575455,-0.32885742,-0.9326782,0.0836792,-4.734375,-5.734375,-2.484375
346,346,1727462575495,-0.3371582,-0.95928955,0.09588623,-4.734375,-12.0625,-1.53125
347,347,1727462575535,-0.3840332,-0.93048096,0.12347412,-9.484375,-10.890625,-2.125
348,348,1727462575575,-0.34985352,-0.95196533,0.15814209,-11.53125,-13.96875,-0.546875
349,349,1727462575615,-0.38183594,-0.9102173,0.15887451,-10.9375,-18.609375,1.546875
350,350,1727462575655,-0.40063477,-0.86309814,0.13201904,-12.171875,-22.125,5.5
351,351,1727462575695,-0.4272461,-0.8772583,0.10491943,-9.375,-25.703125,7.03125
352,352,1727462575735,-0.44604492,-0.892395,0.034362793,-3.5625,-25.734375,10.75
353,353,1727462575775,-0.40844727,-0.87677,0.018981934,-1.390625,-22.515625,13.546875
354,354,1727462575815,-0.42089844,-0.8374634,0.030212402,8.75,-22.1875,17.421875
355,355,1727462575855,-0.22509766,-0.84381104,-0.12530518,7.171875,-36.375,23.859375
356,356,1727462575895,-0.10180664,-0.88360596,-0.07354736,21.8125,-47.046875,25.46875
357,357,1727462575935,0.09375,-0.7593384,0.13861084,38.28125,-51.703125,33.78125
358,358,1727462575975,0.06640625,-0.8779907,0.16131592,33.296875,-49.625,35.46875
359,359,1727462576015,-0.54663086,-1.175354,0.3522339,-8.3125,-21.75,15.21875
360,360,1727462576055,-0.23388672,-1.1338501,-0.14996338,16.1875,2.3125,23.53125
361,361,1727462576095,0.2722168,-0.91607666,0.17474365,23.65625,-8.9375,16.453125
362,362,1727462576135,0.17333984,-0.9746704,0.19720459,6.796875,-18.5625,17.53125
363,363,1727462576175,-0.2512207,-0.8677368,0.0079956055,-5.265625,-14.21875,9.28125
364,364,1727462576215,0.001953125,-0.91290283,0.019958496,16.421875,-4.03125,13.9375
365,365,1727462576255,0.007080078,-0.76397705,-0.021057129,10.25,-1.546875,7.625
366,366,1727462576295,0.059326172,-0.9434204,-0.049865723,15.359375,-1.9375,5.734375
367,367,1727462576335,-0.11401367,-0.8706665,-0.023742676,2.765625,7.03125,0.46875
368,368,1727462576375,0.040283203,-0.84161377,-0.03668213,6.234375,0.625,4.78125
369,369,1727462576415,0.125,-0.9360962,-0.11065674,-4.34375,-1.6875,3.75
370,370,1727462576455,0.03955078,-0.9968872,-0.011047363,3.25,0.28125,1.6875
371,371,1727462576495,-0.051513672,-0.9356079,-0.15435791,-3.390625,4.09375,-0.953125
372,372,1727462576535,0.06665039,-1.0527954,-0.093322754,5.3125,4.25,4.78125
373,373,1727462576575,0.12719727,-1.1299438,-0.18170166,-7.640625,4.0,-5.953125
374,374,1727462576615,-0.026611328,-1.0244751,-0.101379395,-14.71875,0.21875,4.5625
375,375,1727462576655,0.06616211,-1.1567993,-0.12310791,-14.25,8.390625,-10.640625
376,376,1727462576695,0.0126953125,-1.1216431,-0.20635986,-23.953125,-2.03125,0.734375
377,377,1727462576735,0.14404297,-1.2017212,-0.042785645,-33.125,-0.4375,-5.125
378,378,1727462576775,-0.056884766,-1.190979,-0.13433838,-34.84375,-2.046875,-13.53125
379,379,1727462576815,0.052734375,-1.2766724,-0.0064086914,-30.9375,-1.140625,-6.25
380,380,1727462576855,-0.119140625,-1.3364868,-0.0012817383,-28.703125,2.734375,-19.140625
381,381,1727462576895,-0.17993164,-1.0925903,0.14813232,-30.484375,-4.109375,-14.78125
382,382,1727462576935,-0.072265625,-1.0325317,0.27215576,-24.03125,-4.28125,-12.875
383,383,1727462576975,-0.18725586,-1.1358032,0.30584717,-28.125,0.0,-16.34375
384,384,1727462577015,-0.16040039,-0.9534302,0.24676514,-23.6875,-1.140625,-15.140625
385,385,1727462577055,-0.14404297,-0.9024048,0.3192749,-18.046875,-0.578125,-10.203125
386,386,1727462577095,-0.19458008,-0.85894775,0.3463745,-15.03125,-1.515625,-10.1875
387,387,1727462577135,-0.17895508,-0.8574829,0.2892456,-11.59375,0.953125,-10.5
388,388,1727462577175,-0.20751953,-0.87701416,0.35491943,-10.953125,-0.671875,-9.171875
389,389,1727462577215,-0.21875,-0.9246216,0.35369873,-11.078125,-0.984375,-8.015625
390,390,1727462577255,-0.2265625,-0.94854736,0.37371826,-8.046875,-3.671875,-5.71875
391,391,1727462577295,-0.27075195,-0.94659424,0.4088745,-8.03125,-6.203125,-2.4375
392,392,1727462577335,-0.28588867,-0.91290283,0.3793335,-5.0,-3.28125,-2.1875
393,393,1727462577375,-0.2541504,-0.895813,0.34368896,-6.859375,-7.5625,-0.90625
394,394,1727462577415,-0.22827148,-0.9019165,0.3685913,-10.53125,-6.34375,-0.71875
395,395,1727462577455,-0.29516602,-0.83306885,0.37298584,-9.09375,-6.59375,-0.125
396,396,1727462577495,-0.23925781,-0.8887329,0.37738037,-4.46875,-9.125,1.875
397,397,1727462577535,-0.2553711,-0.90289307,0.40863037,-8.28125,-7.3125,0.484375
398,398,1727462577575,-0.3005371,-0.8911743,0.38568115,-7.0,-5.625,0.71875
399,399,1727462577615,-0.33422852,-0.9475708,0.42132568,18.15625,10.859375,2.4375
400,400,1727462577655,-0.19628906,-0.788147,0.37249756,9.265625,-1.53125,2.5625
401,401,1727462577695,-0.27514648,-0.9224243,0.41082764,5.078125,-1.125,1.890625
402,402,1727462577735,-0.27197266,-0.9146118,0.36541748,-3.09375,-4.90625,0.171875
403,403,1727462577775,-0.22998047,-0.8875122,0.36151123,-2.375,-4.8125,1.28125
404,404,1727462577815,-0.23803711,-0.9299927,0.38885498,-2.734375,-3.765625,-0.078125
405,405,1727462577855,-0.29296875,-0.8833618,0.369812,-0.921875,-3.3125,0.140625
406,406,1727462577895,-0.28076172,-0.8965454,0.38494873,2.765625,-1.578125,0.0
407,407,1727462577935,-0.26489258,-0.8994751,0.3624878,0.8125,-0.46875,-1.0625
408,408,1727462577975,-0.2607422,-0.8989868,0.36883545,3.125,1.375,-1.15625
409,409,1727462578015,-0.30395508,-0.9067993,0.31365967,8.765625,1.171875,-0.09375
410,410,1727462578055,-0.23413086,-0.928772,0.34881592,8.359375,2.140625,0.90625
411,411,1727462578095,-0.27563477,-0.9260864,0.29608154,7.953125,2.125,0.125
412,412,1727462578135,-0.23217773,-0.9077759,0.3307495,7.984375,0.6875,0.5
413,413,1727462578175,-0.26000977,-0.9368286,0.2843628,8.15625,1.28125,0.921875
414,414,1727462578215,-0.25073242,-0.94000244,0.27142334,12.75,6.390625,1.0625
415,415,1727462578255,-0.28759766,-0.9522095,0.2909546,10.53125,5.078125,0.390625
416,416,1727462578295,-0.24829102,-0.973938,0.24993896,10.78125,5.609375,0.9375
417,417,1727462578335,-0.23364258,-0.93292236,0.23382568,6.515625,3.421875,2.03125
418,418,1727462578375,-0.22460938,-0.94000244,0.20843506,7.40625,2.078125,3.46875
419,419,1727462578415,-0.21826172,-0.92510986,0.2230835,7.71875,0.65625,3.671875
420,420,1727462578455,-0.23779297,-0.9558716,0.21380615,11.6875,-1.109375,4.859375
421,421,1727462578495,-0.22949219,-0.9578247,0.21478271,12.140625,0.296875,5.75
422,422,1727462578535,-0.21386719,-0.97369385,0.2074585,16.796875,4.515625,6.109375
423,423,1727462578575,-0.19604492,-0.97198486,0.1876831,15.734375,6.890625,6.859375
424,424,1727462578615,-0.21362305,-0.9209595,0.17694092,12.84375,1.328125,7.203125
425,425,1727462578655,-0.13134766,-0.93829346,0.1473999,18.75,-1.21875,9.671875
426,426,1727462578695,-0.22485352,-1.0090942,0.13861084,13.046875,-0.703125,4.90625
427,427,1727462578735,-0.1772461,-0.94610596,0.07733154,21.3125,-5.109375,7.34375
428,428,1727462578775,-0.1550293,-1.03302,-0.0015258789,21.796875,-11.96875,7.71875
429,429,1727462578815,-0.17675781,-1.0591431,0.14202881,15.484375,1.078125,10.90625
430,430,1727462578855,-0.2590332,-0.83795166,0.016296387,20.265625,-4.375,7.953125
431,431,1727462578895,-0.02368164,-0.95806885,-0.030334473,25.953125,-5.109375,13.125
432,432,1727462578935,-0.19824219,-1.0247192,-0.04083252,14.828125,-0.171875,6.875
433,433,1727462578975,-0.115478516,-0.9644165,-0.14312744,20.765625,-4.515625,10.6875
434,434,1727462579015,-0.099609375,-1.0789185,-0.19146729,27.921875,-1.40625,10.796875
435,435,1727462579055,-0.118896484,-1.1567993,-0.27789307,20.046875,-5.84375,12.734375
436,436,1727462579095,0.030273438,-1.2539673,-0.2612915,8.375,-8.46875,10.109375
437,437,1727462579135,0.022460938,-1.1965942,-0.28131104,-4.578125,-13.140625,6.265625
438,438,1727462579175,-0.007080078,-1.0425415,-0.22125244,-0.65625,-8.0,7.3125
439,439,1727462579215,-0.016601562,-1.0376587,-0.27520752,-1.953125,-4.8125,-0.328125
440,440,1727462579255,0.08178711,-1.1074829,-0.24932861,-2.59375,-7.078125,1.453125
441,441,1727462579295,-0.04345703,-1.0545044,-0.28790283,-9.84375,-4.765625,-2.34375
442,442,1727462579335,0.026855469,-1.0828247,-0.24908447,-3.140625,-4.234375,-2.765625
443,443,1727462579375,0.0029296875,-1.1550903,-0.2835083,-7.546875,-3.265625,-2.84375
444,444,1727462579415,-0.020751953,-1.0840454,-0.23272705,1.15625,-2.546875,-0.984375
445,445,1727462579455,0.005126953,-1.1050415,-0.17877197,-21.609375,-6.25,-4.859375
446,446,1727462579495,0.018554688,-1.0925903,-0.14239502,-8.890625,-4.8125,-5.015625
447,447,1727462579535,-0.07446289,-1.0501099,-0.11114502,-13.8125,-7.375,-7.40625
448,448,1727462579575,-0.0078125,-1.0496216,-0.07672119,-19.375,-9.9375,-7.390625
449,449,1727462579615,-0.04272461,-0.9824829,-0.027648926,-23.0,-9.109375,-8.15625
450,450,1727462579655,0.0,-0.940979,-0.061340332,-14.125,-11.265625,-9.265625
451,451,1727462579695,-0.048095703,-0.93707275,-0.01763916,-21.5,-7.984375,-10.15625
452,452,1727462579735,-0.083984375,-0.8635864,-0.0032348633,-24.015625,-6.65625,-9.296875
453,453,1727462579775,-0.09667969,-0.8213501,0.025817871,-14.578125,-6.65625,-10.1875
454,454,1727462579815,-0.05419922,-0.8452759,0.010681152,-14.609375,-7.109375,-7.921875
455,455,1727462579855,-0.07104492,-0.8960571,0.04095459,-19.53125,-6.15625,-7.71875
456,456,1727462579895,-0.10107422,-0.9429321,0.09051514,-15.609375,-6.578125,-8.59375
457,457,1727462579935,-0.17016602,-0.8340454,0.08294678,-18.34375,-1.234375,-7.859375
458,458,1727462579975,-0.19238281,-0.9116821,0.09637451,-13.1875,-4.515625,-8.375
459,459,1727462580015,-0.10083008,-0.86187744,0.121520996,-6.46875,-2.4375,-7.703125
460,460,1727462580055,-0.15258789,-0.83306885,0.093688965,2.421875,2.65625,-7.234375
461,461,1727462580095,-0.2175293,-0.9182739,0.18328857,-8.625,5.984375,-4.6875
462,462,1727462580135,-0.11743164,-0.8833618,0.12249756,-11.328125,5.296875,-8.203125
463,463,1727462580175,-0.18334961,-0.8587036,0.17840576,-8.578125,5.0,-7.8125
464,464,1727462580215,-0.21704102,-0.93170166,0.15130615,-12.953125,6.796875,-8.28125
465,465,1727462580255,-0.22485352,-0.8880005,0.17254639,-14.015625,6.515625,-6.125
466,466,1727462580295,-0.21459961,-0.92559814,0.21209717,-11.515625,6.4375,-7.5625
467,467,1727462580335,-0.24804688,-0.92266846,0.23480225,-10.140625,7.890625,-5.921875
468,468,1727462580375,-0.23925781,-0.8892212,0.22601318,-8.875,6.0625,-5.59375
469,469,1727462580415,-0.20922852,-0.9260864,0.2518921,-6.125,4.90625,-4.4375
470,470,1727462580455,-0.2607422,-0.94659424,0.28167725,-6.875,3.484375,-5.453125
471,471,1727462580495,-0.2944336,-0.92633057,0.2831421,-4.59375,3.28125,-4.6875
472,472,1727462580535,-0.27783203,-0.90875244,0.2765503,-2.515625,3.421875,-3.46875
473,473,1727462580575,-0.27270508,-0.9463501,0.2921753,-2.109375,3.234375,-4.8125
474,474,1727462580615,-0.24145508,-0.9246216,0.27801514,-1.609375,1.765625,-3.453125
475,475,1727462580655,-0.29125977,-0.93634033,0.29241943,3.171875,5.5,-2.828125
476,476,1727462580695,-0.2902832,-0.9180298,0.26019287,2.1875,3.96875,-2.328125
477,477,1727462580735,-0.25024414,-0.9385376,0.28363037,7.0,8.09375,-0.296875
478,478,1727462580775,-0.28833008,-0.92144775,0.24822998,7.71875,9.90625,1.4375
479,479,1727462580815,-0.25341797,-0.9295044,0.22406006,3.203125,7.046875,1.484375
480,480,1727462580855,-0.29003906,-0.94000244,0.22821045,5.15625,9.0,-0.8125
481,481,1727462580895,-0.30249023,-0.9348755,0.22650146,2.328125,10.703125,0.46875
482,482,1727462580935,-0.31103516,-0.944397,0.2345581,3.75,13.765625,-1.9375
483,483,1727462580975,-0.3408203,-0.928772,0.23406982,3.5625,14.0,-2.03125
484,484,1727462581015,-0.3137207,-0.92681885,0.21136475,2.890625,13.21875,-3.25
485,485,1727462581055,-0.31152344,-0.9373169,0.20452881,0.375,12.0,-4.453125
486,486,1727462581095,-0.30078125,-0.9434204,0.16473389,-4.203125,7.703125,-2.609375
487,487,1727462581135,-0.2668457,-0.90338135,0.18695068,0.0625,2.21875,-1.375
488,488,1727462581175,-0.3557129,-0.92926025,0.21234131,-3.921875,3.953125,-1.84375
489,489,1727462581215,-0.33129883,-0.958313,0.22235107,-4.390625,0.4375,-3.171875
490,490,1727462581255,-0.2775879,-0.8936157,0.31756592,-6.828125,5.90625,-3.875
491,491,1727462581295,-0.38549805,-0.89801025,0.25115967,-2.59375,5.5625,-3.953125
492,492,1727462581335,-0.31347656,-0.9229126,0.19256592,-3.546875,5.609375,-5.5
493,493,1727462581375,-0.2253418,-0.9902954,0.260437,10.90625,13.03125,-3.34375
494,494,1727462581415,-0.123046875,-0.9793091,0.34832764,10.9375,16.28125,0.5
495,495,1727462581455,-0.23095703,-0.9661255,0.3883667,2.875,14.046875,-1.4375
496,496,1727462581495,-0.41210938,-0.9331665,0.40911865,-1.296875,30.21875,-4.875
497,497,1727462581535,-0.36743164,-0.9470825,0.25726318,6.921875,33.859375,-7.546875
498,498,1727462581575,-0.15063477,-0.8899536,0.31707764,8.6875,38.859375,-6.015625
499,499,1727462581615,-0.28466797,-0.8633423,0.2999878,8.265625,41.734375,-6.9375
500,500,1727462581655,-0.2241211,-0.8880005,0.29315186,7.953125,43.453125,-9.078125
501,501,1727462581695,-0.2524414,-0.8648071,0.3060913,10.578125,47.96875,-11.234375
502,502,1727462581735,-0.3178711,-0.90631104,0.28875732,9.359375,47.796875,-14.515625
503,503,1727462581775,-0.3071289,-0.9663696,0.2658081,12.953125,49.84375,-14.140625
504,504,1727462581815,-0.31152344,-1.0137329,0.2970581,11.4375,51.640625,-12.890625
505,505,1727462581855,-0.21484375,-0.93634033,0.291687,4.640625,51.984375,-11.609375
506,506,1727462581895,-0.33618164,-0.84820557,0.3397827,10.421875,57.21875,-13.0625
507,507,1727462581935,-0.31860352,-0.9006958,0.24017334,14.765625,51.6875,-15.4375
508,508,1727462581975,-0.23730469,-0.94976807,0.28900146,14.484375,53.6875,-13.265625
509,509,1727462582015,-0.36083984,-0.89923096,0.29315186,13.546875,51.46875,-14.109375
510,510,1727462582055,-0.48095703,-0.8496704,0.26678467,16.75,54.15625,-16.671875
511,511,1727462582095,-0.41577148,-0.81378174,0.22869873,25.96875,58.703125,-18.109375
512,512,1727462582135,-0.34423828,-1.0093384,0.14129639,18.21875,56.984375,-22.046875
513,513,1727462582175,-0.26953125,-0.9873657,0.1359253,12.875,54.84375,-17.046875
514,514,1727462582215,-0.2590332,-1.003479,0.10345459,14.53125,49.421875,-15.5
515,515,1727462582255,-0.35229492,-0.96954346,0.16082764,11.765625,52.75,-13.15625
516,516,1727462582295,-0.32543945,-0.92755127,0.13031006,15.453125,53.046875,-11.640625
517,517,1727462582335,-0.21386719,-1.0466919,0.06951904,18.125,58.3125,-13.109375
518,518,1727462582375,-0.25952148,-1.0195923,0.08001709,14.25,65.921875,-11.578125
519,519,1727462582415,-0.31689453,-0.9470825,0.12786865,16.75,72.71875,-10.765625
520,520,1727462582455,-0.34106445,-0.9854126,0.168396,9.328125,65.921875,-17.734375
521,521,1727462582495,-0.2541504,-0.9751587,0.10760498,24.921875,64.53125,-14.921875
522,522,1727462582535,-0.3166504,-0.9631958,0.11053467,13.921875,66.65625,-18.625
523,523,1727462582575,-0.22998047,-0.9060669,0.14910889,19.6875,60.78125,-16.09375
524,524,1727462582615,-0.28833008,-0.8777466,0.13519287,23.78125,59.71875,-17.015625
525,525,1727462582655,-0.40063477,-0.89678955,0.13079834,27.34375,59.46875,-14.71875
526,526,1727462582695,-0.33544922,-0.82818604,0.08685303,29.140625,54.796875,-7.75
527,527,1727462582735,-0.37890625,-0.9805298,0.1317749,22.921875,48.546875,-10.15625
528,528,1727462582775,-0.37036133,-0.9871216,0.11395264,22.3125,52.453125,-3.953125
529,529,1727462582815,-0.37817383,-0.9295044,0.13446045,13.640625,42.640625,-3.453125
530,530,1727462582855,-0.29541016,-0.90753174,0.17010498,9.921875,41.65625,-1.84375
531,531,1727462582895,-0.25634766,-0.9065552,0.14202881,7.796875,26.453125,1.28125
532,532,1727462582935,-0.3059082,-0.91363525,0.20355225,3.28125,22.796875,0.9375
533,533,1727462582975,-0.35107422,-0.9036255,0.25823975,0.65625,17.421875,5.34375
534,534,1727462583015,-0.27368164,-0.91729736,0.22503662,-2.640625,2.703125,8.71875
535,535,1727462583055,-0.2565918,-0.94195557,0.24310303,-6.46875,6.25,12.78125
536,536,1727462583095,-0.39648438,-0.9180298,0.2489624,6.59375,6.359375,12.609375
537,537,1727462583135,-0.39916992,-0.95562744,0.12689209,4.25,-9.421875,7.9375
538,538,1727462583175,-0.42089844,-0.9404907,0.168396,15.34375,-0.609375,6.15625
539,539,1727462583215,-0.41455078,-0.97369385,0.066101074,-5.140625,-13.640625,0.75
540,540,1727462583255,-0.31982422,-1.0588989,0.0065307617,-5.25,1.890625,-2.78125
541,541,1727462583295,-0.036865234,-1.0440063,-0.027404785,-0.109375,9.203125,-2.0
542,542,1727462583335,0.25732422,-1.0911255,-0.093566895,10.1875,0.734375,5.28125
543,543,1727462583375,0.1574707,-1.5181274,0.05706787,5.8125,-5.703125,11.578125
544,544,1727462583415,0.2446289,-1.3765259,-0.01739502,8.546875,-30.625,34.4375
545,545,1727462583455,-0.088134766,-0.64923096,0.1918335,25.671875,-18.21875,28.421875
546,546,1727462583495,-0.28881836,-0.7017212,0.09613037,14.796875,-23.53125,15.859375
547,547,1727462583535,-0.040039062,-0.8777466,0.113464355,-2.25,-13.8125,11.125
548,548,1727462583575,-0.23706055,-0.7073364,-0.058166504,-10.828125,1.78125,-8.453125
549,549,1727462583615,-0.004638672,-0.77471924,-0.070617676,-0.4375,3.234375,-1.59375
550,550,1727462583655,0.05126953,-0.54473877,0.062194824,2.609375,15.03125,-2.796875
551,551,1727462583695,-0.11230469,-0.39385986,0.031677246,-14.78125,0.953125,-2.953125
552,552,1727462583735,-0.08178711,-0.6260376,0.22576904,8.171875,9.65625,-11.296875
553,553,1727462583775,0.018066406,-0.8442993,0.00579834,-29.546875,-17.90625,-8.328125
554,554,1727462583815,0.123291016,-1.3843384,0.17327881,-15.015625,21.015625,-16.875
555,555,1727462583855,-0.38720703,-1.8247681,0.2909546,4.46875,19.671875,-18.203125
556,556,1727462583895,-0.4519043,-2.0,0.2946167,19.0,28.453125,-3.8125
557,557,1727462583935,-0.56225586,-2.0,-0.032043457,11.203125,30.421875,-20.15625
558,558,1727462583975,-0.16845703,-2.0,-0.018371582,-34.046875,18.453125,-30.96875
559,559,1727462584015,-0.2980957,-1.7112427,0.2904663,7.734375,-27.75,-19.109375
560,560,1727462584055,-0.04663086,0.37176514,-0.75201416,-46.84375,12.578125,7.109375
561,561,1727462584095,0.46972656,1.4000854,-0.49224854,-16.703125,-12.1875,21.5625
562,562,1727462584135,0.33447266,-0.20440674,-0.028625488,-3.03125,-34.34375,-26.328125
563,563,1727462584175,-0.296875,-0.2539673,0.15008545,1.984375,-29.515625,5.5625
564,564,1727462584215,-0.06274414,0.19500732,0.14129639,3.109375,-20.8125,-0.296875
565,565,1727462584255,0.016113281,-0.07110596,0.15594482,0.21875,-18.0625,-8.640625
566,566,1727462584295,-0.095703125,-0.1194458,0.09222412,-5.8125,-22.265625,-15.0
567,567,1727462584335,-0.057373047,-0.03277588,0.043884277,-2.53125,-32.8125,-6.796875
568,568,1727462584375,0.10107422,-0.003967285,-0.108947754,7.5625,-28.859375,0.484375
569,569,1727462584415,-0.21875,-0.33673096,-0.15435791,-25.5,-34.78125,1.859375
570,570,1727462584455,-1.0627441,-1.2971802,-0.12554932,-48.296875,23.21875,-41.8125
571,571,1727462584495,-1.359375,-2.0,0.35369873,33.234375,16.390625,10.28125
572,572,1727462584535,-0.29003906,-2.0,0.48919678,79.0625,-50.65625,0.421875
573,573,1727462584575,-0.41992188,-0.60601807,1.1298218,-58.75,22.609375,5.734375
574,574,1727462584615,-0.94433594,-1.8794556,-0.2078247,-38.71875,-13.609375,-34.1875
575,575,1727462584655,0.2644043,-1.8342896,0.35028076,-2.890625,-76.1875,59.53125
576,576,1727462584695,-0.48291016,-0.4751587,0.27191162,-51.5625,-51.296875,-6.1875
577,577,1727462584735,-0.30908203,-0.74176025,0.17254639,-14.359375,-57.390625,25.734375
578,578,1727462584775,0.024902344,-0.5015259,0.020935059,-26.4375,-64.15625,27.109375
579,579,1727462584815,-0.26464844,-0.6157837,-0.0076293945,-11.46875,-52.203125,8.609375
580,580,1727462584855,-0.14160156,-1.048645,0.022888184,-33.84375,-52.546875,21.9375
581,581,1727462584895,-0.08203125,-1.447815,0.31195068,-21.015625,-22.34375,8.015625
582,582,1727462584935,-0.5629883,-1.0713501,0.06536865,-20.265625,-22.78125,1.515625
583,583,1727462584975,0.025146484,-0.8518677,0.09832764,22.84375,-33.890625,33.546875
584,584,1727462585015,0.23168945,-0.72857666,0.27386475,-10.578125,-29.859375,12.921875
585,585,1727462585055,-0.33984375,-0.93218994,0.09906006,-7.96875,-24.125,8.265625
586,586,1727462585095,-0.018554688,-1.0007935,0.20501709,1.015625,-27.515625,11.9375
587,587,1727462585135,-0.01171875,-0.9429321,0.24456787,4.109375,-26.90625,8.203125
588,588,1727462585175,-0.16308594,-0.9246216,0.17327881,-2.0,-31.234375,5.4375
589,589,1727462585215,-0.057861328,-0.90582275,0.1954956,-1.96875,-37.5,6.5
590,590,1727462585255,-0.050048828,-0.958313,0.32489014,-0.375,-42.953125,5.625
591,591,1727462585295,-0.09082031,-0.8892212,0.19256592,-6.75,-45.203125,8.84375
592,592,1727462585335,-0.10131836,-0.8689575,0.22601318,-5.234375,-51.984375,5.484375
593,593,1727462585375,-0.15356445,-0.960022,0.29144287,-10.109375,-47.03125,2.90625
594,594,1727462585415,-0.23486328,-0.9014282,0.30633545,-14.984375,-45.59375,5.640625
595,595,1727462585455,-0.3173828,-0.8555298,0.36517334,-9.9375,-34.390625,3.34375
596,596,1727462585495,-0.34301758,-0.9324341,0.34954834,-0.65625,-33.578125,-0.359375
597,597,1727462585535,-0.4567871,-0.9663696,0.40863037,-2.171875,-17.25,-5.671875
598,598,1727462585575,-0.45629883,-1.0269165,0.23162842,9.40625,-9.765625,-5.21875
599,599,1727462585615,0.14208984,-1.2957153,0.21063232,-10.859375,-24.46875,2.328125
600,600,1727462585655,0.14672852,-1.4971313,0.20843506,-23.640625,-30.109375,-5.21875
601,601,1727462585695,-0.10546875,-0.7918091,0.105163574,-3.9375,-28.4375,5.703125
602,602,1727462585735,-0.107177734,-0.756897,0.109069824,-11.9375,-33.78125,-14.4375
603,603,1727462585775,-0.09448242,-1.0357056,-0.1362915,-7.015625,-35.0625,-2.390625
604,604,1727462585815,-0.10131836,-1.0198364,-0.03302002,-13.890625,-54.375,3.34375
605,605,1727462585855,-0.2824707,-1.083313,0.045837402,-21.125,-50.78125,1.734375
606,606,1727462585895,-0.35595703,-0.8743286,0.039733887,-13.078125,-54.171875,12.671875
607,607,1727462585935,-0.23608398,-0.8567505,0.035095215,-14.3125,-52.546875,11.015625
608,608,1727462585975,-0.2487793,-0.9331665,0.042663574,-16.5,-53.453125,13.4375
609,609,1727462586015,-0.32495117,-1.0046997,0.051696777,-27.578125,-53.8125,16.921875
610,610,1727462586055,-0.3491211,-0.94195557,0.07562256,-35.734375,-55.5625,19.5
611,611,1727462586095,-0.2836914,-0.90704346,0.10076904,-27.6875,-63.96875,21.125
612,612,1727462586135,-0.26098633,-0.9109497,0.08685303,-27.40625,-64.75,22.8125
613,613,1727462586175,-0.28466797,-0.95806885,0.09710693,-34.921875,-67.390625,20.203125
614,614,1727462586215,-0.29492188,-1.0691528,0.062438965,-26.4375,-73.671875,20.765625
615,615,1727462586255,-0.35229492,-1.0811157,0.090270996,-33.796875,-87.890625,23.25
616,616,1727462586295,-0.37304688,-0.8377075,0.2062378,-17.5,-89.359375,26.171875
617,617,1727462586335,-0.24389648,-0.8748169,0.17181396,-5.75,-77.953125,32.28125
618,618,1727462586375,0.10864258,-1.0940552,0.17938232,13.390625,-82.5,41.703125
619,619,1727462586415,-0.08325195,-0.9356079,0.35980225,9.40625,-61.734375,38.046875
620,620,1727462586455,-0.26782227,-0.9522095,0.21673584,5.59375,-56.0,36.9375
621,621,1727462586495,-0.15991211,-0.8982544,0.14276123,13.453125,-40.65625,24.78125
622,622,1727462586535,0.015380859,-0.881897,0.10272217,22.140625,-45.328125,26.109375
623,623,1727462586575,-0.019042969,-0.7490845,0.23406982,17.734375,-40.453125,18.9375
624,624,1727462586615,-0.23632812,-0.7739868,0.08929443,6.890625,-29.65625,11.546875
625,625,1727462586655,0.037353516,-0.7542114,-0.059143066,13.4375,-27.65625,18.40625
626,626,1727462586695,-0.0014648438,-0.81451416,0.0993042,19.0625,-24.125,18.296875
627,627,1727462586735,0.19702148,-0.880188,0.0060424805,25.8125,-30.65625,14.984375
628,628,1727462586775,0.030273438,-0.6157837,-0.11456299,17.125,-27.75,17.078125
629,629,1727462586815,0.2529297,-0.77789307,-0.097717285,17.765625,-46.984375,20.109375
630,630,1727462586855,-0.25,-0.91729736,0.003112793,10.296875,-6.34375,10.53125
631,631,1727462586895,-0.09790039,-0.928772,-0.04058838,3.34375,-33.21875,-3.90625
632,632,1727462586935,0.22314453,-1.06427,0.05657959,-5.96875,-21.328125,-2.265625
633,633,1727462586975,-0.17236328,-1.0872192,-0.040100098,-17.0,-11.25,-20.96875
634,634,1727462587015,0.25048828,-1.3355103,-0.055725098,-14.765625,-25.234375,-15.578125
635,635,1727462587055,-0.05102539,-1.3262329,0.10223389,-50.203125,-11.09375,-31.375
636,636,1727462587095,-0.13452148,-1.2713013,0.09564209,-62.734375,-10.421875,-34.40625
637,637,1727462587135,0.044921875,-1.140686,0.28851318,-48.640625,-18.46875,-28.5625
638,638,1727462587175,-0.0925293,-1.1394653,0.3986206,-64.03125,-18.59375,-32.390625
639,639,1727462587215,-0.34887695,-0.89801025,0.5734253,-59.328125,5.34375,-31.0625
640,640,1727462587255,-0.60253906,-0.8526001,0.5934448,-10.28125,2.734375,-21.171875
641,641,1727462587295,-0.13647461,-0.7971802,0.54559326,-5.515625,4.453125,-22.3125
642,642,1727462587335,-0.37524414,-0.81573486,0.49798584,-31.0,0.046875,-30.40625
643,643,1727462587375,-0.37548828,-0.7529907,0.51483154,-41.34375,2.1875,-32.546875
644,644,1727462587415,-0.43774414,-0.68218994,0.48065186,-43.75,10.046875,-36.125
645,645,1727462587455,-0.22436523,-0.59039307,0.54193115,-46.65625,1.40625,-31.609375
646,646,1727462587495,-0.43481445,-0.65704346,0.56829834,-51.515625,0.84375,-32.484375
647,647,1727462587535,-0.5288086,-0.61016846,0.7001343,-52.921875,1.109375,-32.328125
648,648,1727462587575,-0.5546875,-0.5339966,0.70526123,-49.3125,6.15625,-31.46875
649,649,1727462587615,-0.63842773,-0.50909424,0.8258667,-50.015625,9.9375,-34.3125
650,650,1727462587655,-0.5205078,-0.4414673,0.8204956,-46.375,12.34375,-32.875
651,651,1727462587695,-0.4580078,-0.34381104,0.93426514,-43.171875,9.90625,-29.984375
652,652,1727462587735,-0.6591797,-0.28619385,0.95306396,-39.21875,18.65625,-32.015625
653,653,1727462587775,-0.41430664,-0.15167236,0.9069214,-33.96875,9.9375,-23.578125
654,654,1727462587815,-0.65600586,-0.12432861,1.0558472,-31.84375,16.203125,-34.546875
655,655,1727462587855,-0.39257812,-0.066223145,0.9262085,-36.46875,8.328125,-16.140625
656,656,1727462587895,-0.56811523,0.09979248,1.260437,-19.3125,7.234375,-21.34375
657,657,1727462587935,-0.4572754,0.05340576,0.9113159,-18.078125,4.078125,-6.578125
658,658,1727462587975,-0.5410156,0.30584717,1.1759644,-3.09375,-8.734375,-3.625
659,659,1727462588015,-0.5263672,0.00091552734,0.7406616,1.4375,13.421875,-0.625
660,660,1727462588055,-0.40039062,0.1918335,0.95355225,-1.8125,-18.890625,8.5
661,661,1727462588095,-0.5275879,-0.16314697,0.8275757,16.5,11.296875,-0.796875
662,662,1727462588135,-0.2927246,0.0079956055,0.7941284,9.328125,1.96875,6.75
663,663,1727462588175,-0.4423828,-0.04498291,0.8825073,7.203125,2.90625,0.515625
664,664,1727462588215,-0.31347656,-0.11187744,0.8768921,-0.78125,-4.734375,3.046875
665,665,1727462588255,-0.4794922,-0.039855957,0.8878784,0.578125,-7.296875,3.96875
666,666,1727462588295,-0.4814453,-0.09649658,0.9520874,-1.78125,-4.625,5.9375
667,667,1727462588335,-0.49023438,-0.12677002,0.94281006,-0.90625,-6.515625,2.015625
668,668,1727462588375,-0.47875977,-0.18218994,0.99749756,-3.15625,-0.84375,-0.15625
669,669,1727462588415,-0.47705078,-0.13287354,0.88275146,-5.546875,-5.78125,-0.875
670,670,1727462588455,-0.4807129,-0.14605713,0.7807007,-6.3125,-6.4375,-6.203125
671,671,1727462588495,-0.4206543,-0.06329346,0.7953491,-9.75,-3.09375,-0.90625
672,672,1727462588535,-0.4375,-0.034240723,0.8912964,-9.921875,-3.71875,0.28125
673,673,1727462588575,-0.4765625,-0.054016113,0.9164429,-9.578125,-3.09375,1.0
674,674,1727462588615,-0.47509766,-0.04888916,0.9816284,-5.953125,0.671875,2.421875
675,675,1727462588655,-0.55249023,-0.027404785,0.9581909,-3.21875,-1.6875,1.21875
676,676,1727462588695,-0.5473633,-0.013000488,0.91326904,-2.46875,0.625,0.21875
677,677,1727462588735,-0.5761719,0.007507324,0.85321045,1.671875,1.5,0.515625
678,678,1727462588775,-0.50878906,0.0016479492,0.86468506,3.1875,2.671875,0.125
679,679,1727462588815,-0.5097656,-0.015686035,0.852478,16.46875,2.921875,-1.84375
680,680,1727462588855,-0.46655273,-0.1494751,1.0092163,16.0625,9.953125,-3.65625
681,681,1727462588895,-0.47607422,-0.124572754,0.94818115,-4.640625,5.515625,-0.0625
682,682,1727462588935,-0.34106445,-0.04522705,0.7440796,-8.8125,10.015625,0.765625
683,683,1727462588975,-0.54125977,-0.06744385,1.0180054,-14.921875,7.1875,-2.078125
684,684,1727462589015,-0.3581543,0.0021362305,0.7814331,-6.0625,12.515625,7.375
685,685,1727462589055,-0.40454102,0.046813965,0.91693115,-7.734375,6.515625,7.625
686,686,1727462589095,-0.32958984,-0.018371582,0.77923584,5.28125,6.75,16.34375
687,687,1727462589135,-0.32128906,-0.03375244,0.92767334,-2.546875,-17.71875,9.71875
688,688,1727462589175,-0.5288086,-0.046203613,0.9623413,5.546875,-17.921875,6.953125
689,689,1727462589215,-0.41357422,-0.058410645,1.0192261,9.890625,-22.6875,9.921875
690,690,1727462589255,-0.5083008,0.011413574,0.9953003,17.140625,-15.015625,15.59375
691,691,1727462589295,-0.5488281,-0.03643799,0.93084717,29.375,-14.65625,19.328125
692,692,1727462589335,-0.5527344,-0.12359619,1.0202026,35.140625,-5.65625,19.359375
693,693,1727462589375,-0.69873047,-0.18487549,0.9911499,44.109375,-3.671875,25.203125
694,694,1727462589415,-0.64697266,-0.2756958,1.0140991,51.140625,3.71875,25.953125
695,695,1727462589455,-0.595459,-0.3748169,0.94940186,53.140625,-3.5625,24.796875
696,696,1727462589495,-0.54125977,-0.47198486,0.93914795,52.609375,-3.234375,22.015625
697,697,1727462589535,-0.56347656,-0.5784302,0.7848511,48.40625,1.25,18.46875
698,698,1727462589575,-0.3918457,-0.565979,0.76776123,45.3125,5.15625,18.234375
699,699,1727462589615,-0.40429688,-0.60406494,0.6161499,38.796875,4.625,17.796875
700,700,1727462589655,-0.33325195,-0.5442505,0.68426514,40.734375,2.734375,15.9375
701,701,1727462589695,-0.3720703,-0.45513916,0.47088623,40.28125,-2.140625,21.546875
702,702,1727462589735,-0.3088379,-0.5930786,0.48236084,37.59375,-1.4375,20.953125
703,703,1727462589775,-0.3708496,-0.62091064,0.56707764,46.234375,1.28125,20.5625
704,704,1727462589815,-0.31323242,-0.61065674,0.230896,48.859375,-11.859375,21.765625
705,705,1727462589855,-0.072753906,-1.0142212,0.47235107,40.765625,-15.859375,12.5
706,706,1727462589895,-0.560791,-1.0278931,0.3085327,31.609375,-9.859375,14.515625
707,707,1727462589935,-0.24658203,-1.0025024,0.37982178,40.96875,-16.484375,14.1875
708,708,1727462589975,-0.4140625,-1.0161743,0.3866577,42.734375,-6.828125,20.15625
709,709,1727462590015,-0.27368164,-0.9282837,0.23553467,48.078125,-13.84375,19.28125
710,710,1727462590055,-0.140625,-0.89385986,0.19915771,64.5625,-14.953125,22.578125
711,711,1727462590095,-0.32421875,-0.9746704,0.09539795,61.953125,-23.734375,22.21875
712,712,1727462590135,-0.2241211,-1.0083618,0.061462402,94.75,-21.09375,24.84375
713,713,1727462590175,-0.3798828,-1.2295532,-0.30059814,84.078125,-18.328125,28.171875
714,714,1727462590215,0.1796875,-1.3059692,-0.60040283,68.265625,-31.46875,31.53125
715,715,1727462590255,0.16894531,-1.4107056,-0.63726807,44.203125,-25.125,11.125
716,716,1727462590295,-0.27514648,-0.9841919,-0.3965454,9.484375,-27.296875,7.328125
717,717,1727462590335,0.1027832,-0.9727173,-0.61431885,26.125,-21.5,9.5625
718,718,1727462590375,0.13720703,-1.0403442,-0.65582275,1.703125,-19.078125,3.21875
719,719,1727462590415,0.057128906,-0.86920166,-0.5852661,-6.140625,-15.03125,-2.484375
720,720,1727462590455,0.048095703,-0.8530884,-0.50860596,-12.125,-15.171875,-6.578125
721,721,1727462590495,0.0024414062,-0.79815674,-0.48712158,-19.25,-13.578125,-6.5
722,722,1727462590535,0.07055664,-0.86383057,-0.44293213,-26.234375,-10.59375,-9.578125
723,723,1727462590575,0.03540039,-0.7918091,-0.31500244,-32.703125,-5.828125,-11.75
724,724,1727462590615,-0.118652344,-0.7424927,-0.3123169,-38.0,-3.71875,-15.28125
725,725,1727462590655,-0.04736328,-0.6057739,-0.2654419,-30.046875,5.34375,-11.390625
726,726,1727462590695,0.0026855469,-0.739563,-0.2949829,-28.828125,13.640625,-14.671875
727,727,1727462590735,-0.123046875,-0.7962036,-0.23052979,-28.515625,17.125,-12.53125
728,728,1727462590775,-0.10229492,-0.923645,-0.30914307,-35.265625,19.265625,-10.34375
729,729,1727462590815,-0.083984375,-0.86187744,-0.17266846,-31.796875,18.703125,-12.796875
730,730,1727462590855,-0.21362305,-0.85479736,-0.11260986,-40.234375,18.546875,-9.890625
731,731,1727462590895,-0.2199707,-0.88067627,-0.13189697,-28.90625,15.71875,-8.296875
732,732,1727462590935,-0.12084961,-0.9312134,-0.15386963,-19.078125,17.109375,-8.3125
733,733,1727462590975,-0.114746094,-0.9968872,0.008483887,-23.0625,29.09375,-6.53125
734,734,1727462591015,-0.27954102,-0.89849854,-0.11187744,-18.75,27.09375,-6.421875
735,735,1727462591055,0.0012207031,-0.98321533,-0.031555176,-5.53125,30.125,-4.5
736,736,1727462591095,-0.13256836,-1.0252075,0.045837402,-17.890625,33.453125,-4.390625
737,737,1727462591135,-0.16625977,-0.96710205,0.024597168,-9.859375,38.3125,-1.125
738,738,1727462591175,-0.059814453,-0.925354,0.1149292,0.8125,39.328125,3.234375
739,739,1727462591215,-0.03881836,-0.8987427,0.12982178,0.15625,47.03125,0.625
740,740,1727462591255,-0.083496094,-0.99786377,0.1071167,2.1875,42.40625,-1.625
741,741,1727462591295,-0.10839844,-1.0073853,0.17059326,-1.515625,45.265625,-0.59375
742,742,1727462591335,-0.18139648,-0.95635986,0.20452881,12.609375,49.578125,0.3125
743,743,1727462591375,-0.07446289,-0.9529419,0.042907715,7.65625,46.34375,-1.75
744,744,1727462591415,-0.12451172,-0.909729,0.12445068,5.890625,47.953125,-0.21875
745,745,1727462591455,-0.04345703,-0.95391846,0.06903076,4.96875,45.40625,-6.78125
746,746,1727462591495,-0.0793457,-0.9834595,0.17572021,1.765625,45.546875,-9.859375
747,747,1727462591535,-0.25073242,-0.91729736,0.14422607,3.734375,55.546875,-11.234375
748,748,1727462591575,-0.1328125,-0.9480591,0.14520264,11.609375,58.828125,-7.890625
749,749,1727462591615,-0.10205078,-0.9961548,0.17376709,-1.71875,55.53125,-9.984375
