,Unnamed: 0,timestamp,accel_x,accel_y,accel_z,gyro_x,gyro_y,gyro_z
0,0,1727975034802,-0.01171875,-0.99346924,0.08001709,2.53125,2.0625,-0.4375
1,1,1727975034842,-0.029785156,-1.0032349,0.059265137,-0.625,5.078125,-1.71875
2,2,1727975034882,-0.035888672,-0.98760986,0.090270996,1.046875,3.515625,-1.4375
3,3,1727975034922,-0.030273438,-0.9768677,0.073913574,1.78125,3.34375,-0.734375
4,4,1727975034962,-0.029052734,-0.9902954,0.06317139,-0.5,3.296875,-0.84375
5,5,1727975035002,-0.04321289,-0.9866333,0.042663574,-5.09375,1.90625,-1.03125
6,6,1727975035042,-0.06542969,-0.9985962,0.105163574,-5.40625,6.171875,1.890625
7,7,1727975035082,-0.01953125,-0.9714966,0.11834717,-0.375,6.3125,1.359375
8,8,1727975035122,-0.095947266,-0.9348755,0.16888428,11.71875,6.03125,3.421875
9,9,1727975035162,-0.03930664,-0.9234009,0.17547607,27.921875,2.984375,8.546875
10,10,1727975035202,-0.0034179688,-0.9402466,0.117614746,41.78125,0.796875,7.734375
11,11,1727975035242,-0.02368164,-1.0095825,0.042419434,56.5625,3.296875,13.890625
12,12,1727975035282,-0.0107421875,-1.0264282,-0.128479,58.53125,11.078125,19.0625
13,13,1727975035322,-0.064208984,-0.9871216,-0.12310791,70.734375,9.921875,25.515625
14,14,1727975035362,-0.038085938,-0.9126587,-0.1675415,95.859375,14.125,32.0625
15,15,1727975035402,0.015380859,-0.9048462,-0.38311768,120.25,14.859375,37.5
16,16,1727975035442,0.0625,-0.92755127,-0.5630493,123.640625,13.421875,41.546875
17,17,1727975035482,0.17602539,-0.9295044,-0.78985596,97.40625,-6.8125,44.421875
18,18,1727975035522,0.25976562,-0.7280884,-1.0046997,82.1875,-10.609375,40.171875
19,19,1727975035562,0.43798828,-0.38360596,-1.1238403,42.859375,-17.828125,30.875
20,20,1727975035602,0.57177734,-0.43829346,-1.2788696,50.09375,-20.96875,28.953125
21,21,1727975035642,0.3774414,-0.39971924,-1.1660767,29.390625,-12.5625,14.0625
22,22,1727975035682,0.44335938,-0.33111572,-1.0515747,-11.125,-15.15625,7.125
23,23,1727975035722,0.42456055,-0.27838135,-0.987854,-15.234375,-4.640625,5.078125
24,24,1727975035762,0.4086914,-0.22467041,-0.94122314,-17.15625,6.125,1.09375
25,25,1727975035802,0.43603516,-0.2913208,-0.8994751,5.140625,18.203125,-2.796875
26,26,1727975035842,0.4074707,-0.28692627,-0.9036255,-3.140625,16.234375,-2.875
27,27,1727975035882,0.35961914,-0.36090088,-0.8687134,-5.109375,12.3125,-7.125
28,28,1727975035922,0.35107422,-0.3394165,-0.84820557,-8.90625,4.1875,-4.375
29,29,1727975035962,0.28955078,-0.3357544,-0.81085205,-11.234375,5.15625,-4.796875
30,30,1727975036002,0.24804688,-0.35650635,-0.73687744,-18.890625,4.046875,-5.8125
31,31,1727975036042,0.23706055,-0.2852173,-0.73760986,-35.265625,-7.203125,-8.875
32,32,1727975036082,0.2290039,-0.3694458,-0.70562744,-19.3125,9.765625,-5.359375
33,33,1727975036122,0.19262695,-0.42095947,-0.7005005,-30.984375,6.0,-9.953125
34,34,1727975036162,0.2734375,-0.41461182,-0.73760986,-38.84375,-0.4375,-14.484375
35,35,1727975036202,0.2548828,-0.5220337,-0.68048096,-43.125,-1.109375,-17.34375
36,36,1727975036242,0.12573242,-0.53497314,-0.63409424,-39.359375,1.859375,-17.359375
37,37,1727975036282,0.15625,-0.55352783,-0.5869751,-48.3125,1.75,-18.625
38,38,1727975036322,0.234375,-0.54693604,-0.5388794,-51.265625,2.5625,-18.390625
39,39,1727975036362,0.15039062,-0.58477783,-0.503479,-55.09375,-4.71875,-20.765625
40,40,1727975036402,0.14746094,-0.71417236,-0.47369385,-55.8125,-5.03125,-23.375
41,41,1727975036442,0.1496582,-0.710022,-0.42242432,-44.5625,4.953125,-23.140625
42,42,1727975036482,0.08691406,-0.7131958,-0.36871338,-42.1875,-3.875,-18.796875
43,43,1727975036522,0.053955078,-0.7793579,-0.36260986,-51.453125,0.015625,-19.984375
44,44,1727975036562,0.083496094,-0.8064575,-0.31622314,-42.78125,2.265625,-18.203125
45,45,1727975036602,0.1027832,-0.82598877,-0.26690674,-41.203125,-3.3125,-12.921875
46,46,1727975036642,0.040771484,-0.86065674,-0.23150635,-35.09375,-1.921875,-10.109375
47,47,1727975036682,0.068359375,-0.88238525,-0.23492432,-28.015625,0.765625,-6.625
48,48,1727975036722,0.037597656,-0.9414673,-0.17584229,-20.984375,1.34375,-5.84375
49,49,1727975036762,0.012207031,-0.9763794,-0.09991455,-13.328125,2.71875,-4.6875
50,50,1727975036802,0.03857422,-0.9451294,-0.10821533,-8.921875,1.09375,-1.09375
51,51,1727975036842,0.04736328,-0.954895,-0.12823486,-6.765625,1.328125,-0.421875
52,52,1727975036882,-0.029052734,-0.99713135,-0.08673096,-5.765625,2.890625,-3.03125
53,53,1727975036922,0.0048828125,-0.97076416,-0.08282471,-2.28125,4.109375,-1.828125
54,54,1727975036962,0.017822266,-0.96759033,-0.08306885,-1.96875,3.046875,-1.84375
55,55,1727975037002,-0.016845703,-0.9783325,-0.03765869,-3.15625,3.984375,-1.5
56,56,1727975037042,-0.040039062,-1.020813,-0.02545166,-3.15625,1.25,-1.15625
57,57,1727975037082,0.028076172,-1.0098267,-0.062316895,-6.03125,-2.03125,-0.828125
58,58,1727975037122,0.010009766,-0.99224854,-0.04547119,-4.96875,-0.078125,-1.140625
59,59,1727975037162,-0.0034179688,-0.9793091,-0.030334473,0.875,0.4375,-0.453125
60,60,1727975037202,0.00048828125,-0.9898071,-0.024963379,3.421875,-4.234375,0.6875
61,61,1727975037242,0.00048828125,-0.9927368,-0.042541504,5.59375,-5.109375,0.0625
62,62,1727975037282,-0.009765625,-0.96539307,-0.06402588,3.984375,-4.296875,0.5625
63,63,1727975037322,0.0017089844,-0.98687744,-0.051330566,6.15625,-4.390625,0.078125
64,64,1727975037362,-0.020263672,-0.9614868,-0.09893799,6.046875,-4.671875,-0.484375
65,65,1727975037402,0.0031738281,-0.9417114,-0.113586426,7.671875,-3.09375,1.71875
66,66,1727975037442,0.048583984,-0.9500122,-0.14312744,7.953125,-6.203125,1.984375
67,67,1727975037482,0.061767578,-0.91851807,-0.11846924,17.4375,-7.0,5.734375
68,68,1727975037522,0.004638672,-0.9417114,-0.17633057,19.984375,-7.671875,9.875
69,69,1727975037562,0.061035156,-0.9104614,-0.20318604,22.453125,-4.4375,8.3125
70,70,1727975037602,0.053710938,-0.9002075,-0.20611572,26.296875,-6.046875,11.71875
71,71,1727975037642,-0.012207031,-0.8994751,-0.23028564,26.609375,-3.703125,8.46875
72,72,1727975037682,0.029541016,-0.78619385,-0.2786255,30.609375,2.671875,9.640625
73,73,1727975037722,0.1430664,-0.8855591,-0.37286377,33.328125,-6.453125,13.96875
74,74,1727975037762,0.20043945,-0.75250244,-0.2649536,37.765625,8.3125,10.265625
75,75,1727975037802,-0.02319336,-0.79888916,-0.38946533,34.6875,-13.453125,18.765625
76,76,1727975037842,0.28051758,-0.8386841,-0.4031372,37.796875,1.734375,16.015625
77,77,1727975037882,0.12475586,-0.58843994,-0.39996338,45.921875,-4.0625,24.390625
78,78,1727975037922,0.23071289,-0.6712036,-0.5112915,37.3125,-11.5625,19.984375
79,79,1727975037962,0.14770508,-0.6013794,-0.3579712,50.40625,15.359375,10.34375
80,80,1727975038002,0.104003906,-0.614563,-0.6553345,18.859375,-14.15625,27.046875
81,81,1727975038042,0.4699707,-0.56329346,-0.52911377,43.1875,7.0,12.65625
82,82,1727975038082,0.016601562,-0.6326294,-0.53497314,34.90625,-2.34375,17.40625
83,83,1727975038122,0.43945312,-0.5762329,-0.7444458,13.6875,-5.671875,22.09375
84,84,1727975038162,0.2861328,-0.47808838,-0.56451416,41.828125,8.265625,4.875
85,85,1727975038202,0.055664062,-0.5046997,-0.5549927,10.25,7.75,9.640625
86,86,1727975038242,0.29296875,-0.487854,-0.72906494,-2.0,5.4375,8.34375
87,87,1727975038282,0.43041992,-0.42730713,-0.77911377,-5.203125,3.296875,7.25
88,88,1727975038322,0.3256836,-0.61676025,-0.7085571,-10.875,-3.6875,-1.4375
89,89,1727975038362,0.27148438,-0.54766846,-0.6873169,-7.921875,-1.875,0.453125
90,90,1727975038402,0.26391602,-0.50982666,-0.8015747,-8.5625,3.8125,-5.0625
91,91,1727975038442,0.4489746,-0.4680786,-0.8362427,-19.1875,-2.53125,-3.984375
92,92,1727975038482,0.2578125,-0.62823486,-0.83258057,-26.359375,-0.4375,-19.734375
93,93,1727975038522,0.37060547,-0.736145,-0.92193604,-32.46875,0.71875,-11.71875
94,94,1727975038562,0.39331055,-0.84161377,-0.9480591,-43.71875,-1.53125,-17.59375
95,95,1727975038602,0.31030273,-0.9170532,-0.8936157,-49.8125,0.390625,-25.609375
96,96,1727975038642,0.31054688,-0.94122314,-0.74542236,-59.65625,-3.40625,-28.8125
97,97,1727975038682,0.2548828,-1.0354614,-0.5252075,-61.1875,-3.0,-25.515625
98,98,1727975038722,0.1850586,-1.0801392,-0.37384033,-45.703125,-6.59375,-23.90625
99,99,1727975038762,0.14160156,-1.187561,-0.2642212,-38.09375,1.671875,-18.15625
100,100,1727975038802,0.10180664,-1.2000122,-0.1506958,-50.234375,-2.625,-17.328125
101,101,1727975038842,0.014160156,-1.1680298,-0.046936035,-47.078125,3.21875,-17.984375
102,102,1727975038882,-0.03515625,-1.0083618,-0.055480957,-41.109375,6.484375,-15.03125
103,103,1727975038922,0.057373047,-0.8982544,-0.08111572,-27.5625,8.078125,-11.03125
104,104,1727975038962,-0.0031738281,-0.85479736,-0.042297363,-10.78125,16.53125,-10.484375
105,105,1727975039002,-0.008056641,-0.8880005,-0.06060791,-14.9375,5.28125,-7.171875
106,106,1727975039042,0.049316406,-0.9512329,-0.04840088,-14.75,2.390625,-8.28125
107,107,1727975039082,0.010498047,-0.99420166,-0.04473877,-12.984375,2.375,-9.375
108,108,1727975039122,-0.015380859,-1.0237427,-0.029846191,-13.171875,-2.765625,-4.15625
109,109,1727975039162,-0.02368164,-1.0288696,0.038024902,-18.5625,-1.953125,-4.09375
110,110,1727975039202,-0.048828125,-0.9951782,0.0602417,-7.71875,-0.84375,-5.421875
111,111,1727975039242,-0.0075683594,-0.99005127,0.028747559,-6.125,-5.359375,-5.96875
112,112,1727975039282,-0.032226562,-0.99591064,0.036071777,-6.1875,-6.484375,-9.453125
113,113,1727975039322,-0.0769043,-1.0193481,0.061950684,-10.109375,-4.765625,-6.9375
114,114,1727975039362,-0.045654297,-0.98443604,0.053894043,-17.171875,-4.703125,-5.453125
115,115,1727975039402,-0.03149414,-0.9678345,0.070251465,-11.421875,-1.484375,-5.046875
116,116,1727975039442,-0.091552734,-0.9829712,0.08734131,-7.78125,-3.265625,-3.796875
117,117,1727975039482,-0.061523438,-0.9961548,0.097595215,-7.109375,-5.625,-2.203125
118,118,1727975039522,-0.075683594,-0.9829712,0.121520996,-9.5,-5.53125,-3.640625
119,119,1727975039562,-0.087402344,-0.9924927,0.14202881,-5.203125,-7.609375,-2.03125
120,120,1727975039602,-0.045898438,-0.9673462,0.10394287,-0.78125,0.75,0.25
121,121,1727975039642,-0.1159668,-1.0342407,0.059509277,21.625,6.703125,1.796875
122,122,1727975039682,-0.07910156,-0.96588135,0.09979248,8.609375,2.0625,2.640625
123,123,1727975039722,-0.08862305,-1.010315,0.09197998,7.15625,-3.265625,2.71875
124,124,1727975039762,-0.07495117,-1.0059204,0.06732178,4.625,-4.859375,2.265625
125,125,1727975039802,-0.05859375,-1.008606,0.03265381,-3.234375,-3.390625,2.125
126,126,1727975039842,-0.048828125,-1.0042114,0.047302246,-9.75,-5.765625,0.203125
127,127,1727975039882,-0.05517578,-0.96661377,0.08734131,-12.09375,-4.296875,-0.234375
128,128,1727975039922,-0.032714844,-1.0054321,0.07122803,2.9375,0.984375,1.0625
129,129,1727975039962,-0.059814453,-0.98272705,0.08709717,2.96875,0.3125,0.671875
130,130,1727975040002,-0.044189453,-0.9939575,0.08416748,0.421875,-0.84375,1.1875
131,131,1727975040042,-0.052978516,-0.9890747,0.08685303,4.71875,1.3125,0.625
132,132,1727975040082,-0.06298828,-0.9883423,0.0758667,4.671875,1.515625,1.15625
133,133,1727975040122,-0.041259766,-0.99957275,0.054626465,2.984375,0.28125,1.09375
134,134,1727975040162,-0.05102539,-0.99664307,0.05657959,-0.28125,1.765625,0.25
135,135,1727975040202,-0.06298828,-1.0020142,0.07366943,-0.875,1.25,0.375
136,136,1727975040242,-0.059326172,-0.9741821,0.08660889,-1.125,0.9375,0.9375
137,137,1727975040282,-0.032958984,-1.0105591,0.050720215,0.46875,0.328125,1.796875
138,138,1727975040322,-0.05102539,-0.9817505,0.07220459,5.609375,3.890625,1.765625
139,139,1727975040362,-0.030273438,-0.97369385,0.0602417,1.875,2.90625,2.296875
140,140,1727975040402,-0.025878906,-0.989563,0.06488037,6.390625,0.671875,2.234375
141,141,1727975040442,-0.03564453,-0.9981079,0.047546387,9.546875,-1.84375,3.6875
142,142,1727975040482,-0.06665039,-0.98638916,0.047546387,9.671875,-2.875,5.078125
143,143,1727975040522,-0.03540039,-0.9685669,0.042419434,12.34375,-0.96875,6.875
144,144,1727975040562,-0.018554688,-0.9585571,0.018737793,13.0625,0.953125,8.53125
145,145,1727975040602,-0.008300781,-0.9702759,0.00091552734,20.125,-0.171875,11.1875
146,146,1727975040642,-0.015136719,-0.9812622,0.017028809,30.953125,3.5625,14.015625
147,147,1727975040682,0.018066406,-1.0039673,-0.057434082,43.484375,7.109375,18.40625
148,148,1727975040722,0.030517578,-1.0015259,-0.1638794,51.765625,3.359375,20.90625
149,149,1727975040762,0.044433594,-1.0032349,-0.18585205,54.21875,5.875,22.3125
150,150,1727975040802,0.07543945,-0.93634033,-0.2720337,62.40625,11.609375,24.125
151,151,1727975040842,0.103759766,-0.8987427,-0.37017822,73.578125,15.0625,26.03125
152,152,1727975040882,0.08666992,-0.84332275,-0.40020752,86.6875,20.109375,29.765625
153,153,1727975040922,0.14819336,-0.78131104,-0.56256104,99.734375,19.09375,35.21875
154,154,1727975040962,0.14208984,-0.71588135,-0.6963501,100.53125,23.28125,35.765625
155,155,1727975041002,0.21704102,-0.50616455,-0.89971924,104.046875,10.390625,36.984375
156,156,1727975041042,0.3017578,-0.3718872,-1.111145,84.9375,6.671875,24.46875
157,157,1727975041082,0.24291992,-0.3040161,-1.1795044,66.25,0.953125,15.234375
158,158,1727975041122,0.37036133,-0.1494751,-1.3626099,53.140625,-7.6875,13.5625
159,159,1727975041162,0.36279297,-0.13726807,-1.3001099,18.828125,-9.453125,9.828125
160,160,1727975041202,0.37817383,-0.11114502,-1.2317505,-14.96875,-22.828125,9.09375
161,161,1727975041242,0.3322754,-0.03302002,-1.1150513,-15.328125,-23.90625,9.9375
162,162,1727975041282,0.40112305,-0.008850098,-0.99005127,-2.84375,-7.984375,5.8125
163,163,1727975041322,0.29101562,-0.12261963,-1.0098267,-2.5,-3.5,2.234375
164,164,1727975041362,0.3737793,-0.16046143,-0.9126587,-0.6875,17.90625,-2.4375
165,165,1727975041402,0.2668457,-0.17730713,-0.8135376,-2.875,17.265625,-6.625
166,166,1727975041442,0.25463867,-0.4265747,-0.7119751,-10.625,12.171875,-8.953125
167,167,1727975041482,0.24414062,-0.47198486,-0.66973877,-12.0,9.46875,-5.421875
168,168,1727975041522,0.2607422,-0.26983643,-0.72442627,-22.078125,3.5625,-2.328125
169,169,1727975041562,0.25878906,-0.3418579,-0.8093872,-28.21875,-1.0,-9.625
170,170,1727975041602,0.30786133,-0.3574829,-0.85943604,-36.75,-3.40625,-13.96875
171,171,1727975041642,0.18408203,-0.37408447,-0.8406372,-28.96875,3.921875,-15.234375
172,172,1727975041682,0.16064453,-0.425354,-0.7822876,-40.4375,-0.34375,-16.96875
173,173,1727975041722,0.2163086,-0.45855713,-0.76568604,-47.734375,-2.34375,-17.53125
174,174,1727975041762,0.20263672,-0.45025635,-0.6878052,-43.296875,3.84375,-17.984375
175,175,1727975041802,0.09399414,-0.50372314,-0.6577759,-53.1875,-1.84375,-19.625
176,176,1727975041842,0.18554688,-0.56207275,-0.6355591,-57.359375,-2.375,-21.6875
177,177,1727975041882,0.11352539,-0.5671997,-0.5991821,-58.15625,2.796875,-20.890625
178,178,1727975041922,0.14794922,-0.61383057,-0.5930786,-53.921875,0.328125,-18.28125
179,179,1727975041962,0.13964844,-0.663147,-0.53253174,-57.875,-5.640625,-20.15625
180,180,1727975042002,0.099121094,-0.69073486,-0.4746704,-51.265625,0.78125,-18.515625
181,181,1727975042042,0.122558594,-0.70269775,-0.38653564,-45.171875,-5.015625,-13.109375
182,182,1727975042082,0.107421875,-0.70562744,-0.36187744,-48.1875,-10.796875,-13.515625
183,183,1727975042122,0.025146484,-0.7678833,-0.32452393,-41.46875,-7.75,-15.859375
184,184,1727975042162,0.016601562,-0.8040161,-0.3106079,-34.359375,-0.6875,-12.421875
185,185,1727975042202,0.05517578,-0.85821533,-0.28302002,-31.671875,0.421875,-9.421875
186,186,1727975042242,0.107421875,-0.8897095,-0.21661377,-27.65625,-0.5625,-5.859375
187,187,1727975042282,0.01953125,-0.9429321,-0.18902588,-21.796875,-0.78125,-3.59375
188,188,1727975042322,-0.0021972656,-0.98394775,-0.1416626,-19.859375,5.53125,-3.125
189,189,1727975042362,0.044433594,-0.94122314,-0.07183838,-10.046875,4.90625,-2.09375
190,190,1727975042402,0.0546875,-0.9522095,-0.14727783,-10.65625,1.234375,-0.90625
191,191,1727975042442,0.022705078,-0.98028564,-0.12872314,-3.703125,5.078125,-0.21875
192,192,1727975042482,0.0053710938,-0.95098877,-0.1260376,-8.359375,4.328125,-1.6875
193,193,1727975042522,0.038085938,-0.9819946,-0.10235596,-4.65625,3.8125,-1.375
194,194,1727975042562,0.0024414062,-0.991272,-0.062072754,-5.8125,3.421875,-0.765625
195,195,1727975042602,0.00024414062,-0.9824829,-0.061340332,-4.015625,1.5625,-1.15625
196,196,1727975042642,0.024169922,-1.0037231,-0.03277588,-2.390625,1.390625,-1.109375
197,197,1727975042682,0.017089844,-0.98321533,-0.051086426,1.03125,0.015625,0.265625
198,198,1727975042722,0.048095703,-0.99053955,-0.02545166,0.078125,-2.734375,-2.078125
199,199,1727975042762,-0.032226562,-1.0015259,-0.04473877,0.1875,-3.90625,-3.078125
200,200,1727975042802,0.0068359375,-0.9963989,-0.05279541,-1.890625,-0.328125,-1.03125
201,201,1727975042842,0.014404297,-0.98638916,-0.0491333,-1.796875,-4.15625,-1.75
202,202,1727975042882,-0.010498047,-0.99591064,-0.024475098,-0.21875,-4.21875,-0.375
203,203,1727975042922,0.018798828,-0.9939575,-0.04547119,0.65625,-7.375,-1.0
204,204,1727975042962,0.0043945312,-0.98272705,-0.046936035,-2.453125,-4.109375,-1.125
205,205,1727975043002,-0.010253906,-0.9902954,-0.046203613,0.546875,-4.5625,-0.421875
206,206,1727975043042,0.007080078,-0.99176025,-0.03692627,0.921875,-3.3125,-0.578125
207,207,1727975043082,-0.020751953,-0.99468994,-0.020324707,1.515625,-3.21875,-0.5625
208,208,1727975043122,-0.0107421875,-0.99053955,-0.042785645,4.34375,-5.03125,-0.015625
209,209,1727975043162,-0.017333984,-0.9717407,-0.021057129,4.15625,-4.734375,0.328125
210,210,1727975043202,-0.027832031,-1.0095825,-0.0647583,3.078125,-6.140625,0.09375
211,211,1727975043242,0.0021972656,-0.9981079,-0.05328369,1.3125,-3.953125,0.6875
212,212,1727975043282,-0.008300781,-1.0037231,-0.04473877,1.625,-2.421875,0.046875
213,213,1727975043322,-0.01928711,-0.9780884,-0.059143066,2.1875,-2.75,-0.296875
214,214,1727975043362,0.005126953,-0.98321533,-0.0803833,1.71875,-3.296875,-0.265625
215,215,1727975043402,-0.015380859,-0.9907837,-0.061584473,1.984375,-2.75,0.375
216,216,1727975043442,-0.0014648438,-1.0061646,-0.062072754,0.9375,-3.0,0.375
217,217,1727975043482,0.008544922,-0.9793091,-0.07159424,2.75,-1.875,0.40625
218,218,1727975043522,0.009033203,-0.9727173,-0.09429932,1.796875,-1.578125,1.1875
219,219,1727975043562,0.0078125,-0.96417236,-0.08843994,2.4375,-0.25,0.921875
220,220,1727975043602,0.017578125,-0.9651489,-0.09698486,3.234375,-0.390625,1.4375
221,221,1727975043642,0.021972656,-0.9595337,-0.11651611,5.0,-1.765625,2.140625
222,222,1727975043682,0.033691406,-0.95758057,-0.1404419,7.15625,-1.5,2.84375
223,223,1727975043722,0.048339844,-0.909729,-0.17437744,15.265625,-1.4375,5.671875
224,224,1727975043762,0.013916016,-0.90948486,-0.11407471,11.703125,-2.546875,9.953125
225,225,1727975043802,0.029541016,-0.95562744,-0.20489502,12.421875,-3.65625,9.890625
226,226,1727975043842,0.1171875,-0.92071533,-0.23297119,18.0,-1.359375,13.578125
227,227,1727975043882,0.13110352,-0.90045166,-0.22808838,20.703125,1.171875,10.734375
228,228,1727975043922,0.10620117,-0.835022,-0.24102783,27.75,3.8125,14.796875
229,229,1727975043962,0.09423828,-0.78131104,-0.2871704,30.234375,5.515625,16.265625
230,230,1727975044002,0.13842773,-0.80255127,-0.30914307,29.734375,6.65625,16.484375
231,231,1727975044042,0.24731445,-0.85943604,-0.4138794,35.703125,1.515625,16.71875
232,232,1727975044082,0.2253418,-0.75860596,-0.3772583,39.3125,8.21875,14.515625
233,233,1727975044122,0.08496094,-0.663147,-0.37774658,45.546875,-0.015625,19.5
234,234,1727975044162,0.30517578,-0.7227173,-0.5010376,38.515625,-2.515625,19.09375
235,235,1727975044202,0.2409668,-0.62872314,-0.41558838,45.3125,-8.21875,16.734375
236,236,1727975044242,0.092285156,-0.6709595,-0.50445557,36.453125,-8.515625,18.71875
237,237,1727975044282,0.16259766,-0.61724854,-0.53448486,35.28125,0.71875,15.640625
238,238,1727975044322,0.26831055,-0.6448364,-0.49517822,36.484375,7.640625,17.84375
239,239,1727975044362,0.15844727,-0.5840454,-0.5552368,33.5,11.265625,11.3125
240,240,1727975044402,0.22949219,-0.5852661,-0.67852783,10.25,2.796875,9.375
241,241,1727975044442,0.63549805,-0.58306885,-0.62091064,9.65625,1.953125,12.75
242,242,1727975044482,0.21948242,-0.49591064,-0.6272583,13.84375,-5.1875,5.296875
243,243,1727975044522,0.19580078,-0.5894165,-0.80426025,-1.296875,-5.09375,7.0625
244,244,1727975044562,0.51953125,-0.48687744,-0.7996216,-7.234375,2.8125,2.28125
245,245,1727975044602,0.3251953,-0.5610962,-0.6651001,4.0,1.3125,-5.640625
246,246,1727975044642,0.12597656,-0.58673096,-0.62628174,-0.25,17.9375,-9.8125
247,247,1727975044682,0.3371582,-0.50128174,-0.70928955,-18.5,7.59375,3.40625
248,248,1727975044722,0.26416016,-0.50787354,-0.72247314,-20.359375,4.296875,-10.171875
249,249,1727975044762,0.2631836,-0.57525635,-0.69073486,-31.734375,5.203125,-4.6875
250,250,1727975044802,0.33789062,-0.5706177,-0.81451416,-41.34375,-3.21875,-4.109375
251,251,1727975044842,0.40405273,-0.7930298,-0.8616333,-48.03125,-8.90625,-11.5625
252,252,1727975044882,0.31420898,-0.9002075,-0.82647705,-40.8125,-10.234375,-20.140625
253,253,1727975044922,0.2619629,-1.0122681,-0.75982666,-49.96875,-11.953125,-27.0625
254,254,1727975044962,0.2709961,-1.0923462,-0.6062622,-58.765625,-15.0,-33.5625
255,255,1727975045002,0.25048828,-1.2219849,-0.41412354,-71.984375,-20.484375,-35.28125
256,256,1727975045042,0.13061523,-1.232727,-0.1897583,-56.953125,-12.296875,-30.125
257,257,1727975045082,0.083496094,-1.2991333,-0.058166504,-52.765625,-9.65625,-23.390625
258,258,1727975045122,0.052246094,-1.2505493,-0.027404785,-54.0625,-4.296875,-20.578125
259,259,1727975045162,-0.00024414062,-1.0344849,0.11419678,-50.765625,9.703125,-24.359375
260,260,1727975045202,-0.103515625,-0.9224243,0.12322998,-16.875,18.203125,-17.515625
261,261,1727975045242,-0.04248047,-0.76763916,0.14105225,-19.375,10.421875,-14.546875
262,262,1727975045282,-0.0063476562,-0.9380493,0.09979248,-21.328125,11.484375,-9.125
263,263,1727975045322,0.02758789,-0.9529419,0.07977295,-16.53125,12.921875,-6.0625
264,264,1727975045362,0.041015625,-0.9944458,0.11590576,-20.828125,4.421875,-5.125
265,265,1727975045402,-0.09350586,-0.99835205,0.1281128,-28.21875,1.921875,-8.09375
266,266,1727975045442,0.027832031,-0.991272,0.19207764,-14.203125,-4.34375,-6.640625
267,267,1727975045482,-0.07861328,-1.0230103,0.22454834,-14.046875,-5.828125,-10.84375
268,268,1727975045522,-0.09863281,-1.0405884,0.17938232,-14.75,-12.03125,-8.3125
269,269,1727975045562,-0.06201172,-0.99664307,0.20159912,-2.390625,-4.5625,-6.90625
270,270,1727975045602,-0.05444336,-0.94415283,0.23724365,1.359375,8.21875,-8.609375
271,271,1727975045642,-0.08886719,-0.9380493,0.18914795,7.359375,-0.953125,-3.796875
272,272,1727975045682,-0.07763672,-0.9607544,0.12982178,4.015625,-4.921875,-1.546875
273,273,1727975045722,-0.087646484,-0.9492798,0.17010498,0.34375,-1.984375,-1.5625
274,274,1727975045762,-0.11303711,-0.97442627,0.17962646,2.3125,-1.625,-1.078125
275,275,1727975045802,-0.0871582,-1.0078735,0.14276123,-3.9375,-3.046875,-0.609375
276,276,1727975045842,-0.13305664,-1.0247192,0.15765381,-2.96875,-0.578125,-1.703125
277,277,1727975045882,-0.09790039,-0.9771118,0.17034912,-3.734375,1.09375,-0.859375
278,278,1727975045922,-0.11303711,-0.9829712,0.2074585,1.328125,0.28125,0.125
279,279,1727975045962,-0.083984375,-0.9829712,0.16595459,-1.015625,-2.421875,1.34375
280,280,1727975046002,-0.08886719,-0.97198486,0.1828003,0.046875,-3.34375,0.21875
281,281,1727975046042,-0.103515625,-0.9668579,0.19525146,1.4375,0.625,-0.296875
282,282,1727975046082,-0.092041016,-0.97784424,0.16815186,2.53125,-2.078125,1.265625
283,283,1727975046122,-0.08300781,-0.9849243,0.16156006,1.515625,-1.0,0.234375
284,284,1727975046162,-0.09277344,-1.0025024,0.16229248,1.453125,-0.625,0.34375
285,285,1727975046202,-0.1171875,-0.9924927,0.16204834,1.578125,-1.15625,-0.546875
286,286,1727975046242,-0.10229492,-0.9849243,0.14959717,0.859375,-1.640625,0.953125
287,287,1727975046282,-0.09399414,-0.9898071,0.16693115,1.171875,-3.09375,0.171875
288,288,1727975046322,-0.10107422,-0.9817505,0.16253662,0.8125,-0.234375,0.140625
289,289,1727975046362,-0.10644531,-0.97662354,0.15838623,1.09375,-1.578125,0.90625
290,290,1727975046402,-0.09472656,-0.9993286,0.16546631,1.75,-1.265625,1.046875
291,291,1727975046442,-0.095458984,-0.9702759,0.14788818,-0.1875,-0.09375,-0.078125
292,292,1727975046482,-0.076416016,-0.9973755,0.13421631,-2.109375,-1.765625,-0.09375
293,293,1727975046522,-0.08496094,-0.97613525,0.15985107,1.0625,-0.109375,-0.40625
294,294,1727975046562,-0.068847656,-0.98443604,0.12738037,-2.546875,0.09375,-1.421875
295,295,1727975046602,-0.092041016,-0.99053955,0.14910889,-2.296875,4.0,-1.90625
296,296,1727975046642,-0.107421875,-0.975647,0.16156006,-0.453125,3.828125,-1.296875
297,297,1727975046682,-0.10131836,-0.9771118,0.16009521,-1.71875,2.890625,-1.15625
298,298,1727975046722,-0.09838867,-0.9907837,0.15985107,-1.1875,3.59375,-0.734375
299,299,1727975046762,-0.09838867,-0.987854,0.17425537,-1.265625,4.765625,-1.359375
300,300,1727975046802,-0.11816406,-0.9883423,0.17840576,-1.125,2.6875,0.015625
301,301,1727975046842,-0.1081543,-0.973938,0.18792725,-1.703125,0.125,0.140625
302,302,1727975046882,-0.08691406,-0.98638916,0.17816162,-0.875,3.4375,-0.203125
303,303,1727975046922,-0.07714844,-1.0027466,0.17572021,-0.5,2.671875,0.578125
304,304,1727975046962,-0.10888672,-0.9873657,0.14691162,-5.0625,-2.296875,0.53125
305,305,1727975047002,-0.103515625,-0.9470825,0.18963623,-5.578125,1.4375,-0.203125
306,306,1727975047042,-0.103271484,-0.9961548,0.1696167,2.109375,2.046875,2.109375
307,307,1727975047082,-0.07470703,-0.9133911,0.20184326,8.390625,12.0,0.3125
308,308,1727975047122,-0.0690918,-1.0169067,0.15618896,17.453125,22.125,-0.859375
309,309,1727975047162,-0.1015625,-0.98150635,0.2074585,36.390625,17.765625,1.25
310,310,1727975047202,-0.16577148,-0.95684814,0.19110107,37.578125,5.90625,8.046875
311,311,1727975047242,-0.092041016,-0.9949341,0.11932373,23.609375,-5.0625,9.90625
312,312,1727975047282,-0.049804688,-0.99786377,0.062194824,20.78125,-8.109375,11.515625
313,313,1727975047322,-0.06762695,-0.9336548,0.07196045,24.15625,-21.390625,12.828125
314,314,1727975047362,-0.104003906,-1.0010376,0.1239624,36.140625,-8.828125,16.171875
315,315,1727975047402,-0.06201172,-1.013977,-0.04449463,66.015625,4.515625,19.71875
316,316,1727975047442,-0.017578125,-0.9800415,-0.09039307,95.640625,-1.328125,27.15625
317,317,1727975047482,-0.044921875,-1.052063,-0.24591064,104.78125,5.1875,36.171875
318,318,1727975047522,0.06958008,-0.9282837,-0.38189697,109.265625,-0.84375,41.421875
319,319,1727975047562,0.14746094,-1.0012817,-0.8897095,68.328125,-0.84375,42.671875
320,320,1727975047602,0.43286133,-0.7546997,-1.0498657,47.84375,-11.734375,48.140625
321,321,1727975047642,0.24511719,-0.6362915,-0.89727783,57.078125,-5.515625,37.21875
322,322,1727975047682,0.4555664,-0.5628052,-1.0574341,43.578125,-19.296875,32.109375
323,323,1727975047722,0.47192383,-0.51031494,-0.91070557,25.484375,-13.046875,16.5
324,324,1727975047762,0.34326172,-0.45343018,-0.9529419,14.859375,-4.453125,7.703125
325,325,1727975047802,0.4885254,-0.40118408,-0.972229,19.125,6.015625,2.609375
326,326,1727975047842,0.5065918,-0.41192627,-0.90289307,5.890625,8.796875,-0.09375
327,327,1727975047882,0.4440918,-0.4505005,-0.9522095,25.3125,20.9375,-5.390625
328,328,1727975047922,0.5678711,-0.46710205,-0.83843994,16.5625,24.640625,-0.015625
329,329,1727975047962,0.25219727,-0.47174072,-0.8440552,2.96875,14.15625,-0.984375
330,330,1727975048002,0.296875,-0.4060669,-0.8345337,-2.125,5.953125,-2.0
331,331,1727975048042,0.32128906,-0.3965454,-0.7649536,-22.453125,9.734375,-5.0625
332,332,1727975048082,0.12646484,-0.4060669,-0.6963501,-36.578125,10.25,-2.828125
333,333,1727975048122,0.16235352,-0.45220947,-0.612854,-32.90625,16.3125,-5.484375
334,334,1727975048162,0.16796875,-0.41900635,-0.6008911,-41.796875,9.53125,-6.234375
335,335,1727975048202,0.14501953,-0.4282837,-0.61016846,-40.296875,5.578125,-7.546875
336,336,1727975048242,0.24121094,-0.5178833,-0.6211548,-46.53125,0.125,-9.984375
337,337,1727975048282,0.22460938,-0.59991455,-0.55841064,-46.8125,2.3125,-13.21875
338,338,1727975048322,0.0769043,-0.6018677,-0.5527954,-44.34375,-4.34375,-10.78125
339,339,1727975048362,0.19824219,-0.59454346,-0.58258057,-46.046875,-0.203125,-11.96875
340,340,1727975048402,0.1665039,-0.6572876,-0.5117798,-48.4375,-4.375,-16.703125
341,341,1727975048442,0.09741211,-0.77593994,-0.47906494,-50.65625,-5.640625,-16.453125
342,342,1727975048482,0.1538086,-0.82110596,-0.46148682,-45.578125,2.390625,-17.390625
343,343,1727975048522,0.1328125,-0.68927,-0.40899658,-39.078125,5.1875,-17.96875
344,344,1727975048562,0.1237793,-0.7053833,-0.37750244,-41.3125,-2.75,-14.796875
345,345,1727975048602,0.06689453,-0.78912354,-0.3357544,-38.25,-2.890625,-13.5625
346,346,1727975048642,0.05493164,-0.82598877,-0.28302002,-33.625,-1.140625,-11.046875
347,347,1727975048682,0.01953125,-0.85284424,-0.2341919,-31.046875,-4.375,-13.234375
348,348,1727975048722,0.021728516,-0.87384033,-0.20245361,-28.3125,-2.078125,-9.3125
349,349,1727975048762,0.03857422,-0.8855591,-0.18609619,-23.234375,-4.90625,-7.4375
350,350,1727975048802,0.053955078,-0.9338989,-0.16802979,-17.765625,-4.453125,-6.21875
351,351,1727975048842,0.057861328,-0.97125244,-0.13287354,-11.984375,-4.125,-4.359375
352,352,1727975048882,-0.013671875,-0.9351196,-0.1038208,-7.296875,-5.09375,-3.03125
353,353,1727975048922,-0.0021972656,-0.99713135,-0.08843994,-8.375,-1.328125,-2.0625
354,354,1727975048962,0.021728516,-0.98760986,-0.06524658,-3.390625,1.484375,-2.25
355,355,1727975049002,-0.00024414062,-0.95806885,-0.055725098,-4.03125,0.90625,-1.5
356,356,1727975049042,-0.026367188,-0.99468994,-0.03277588,-4.78125,2.15625,-1.25
357,357,1727975049082,0.01171875,-0.99053955,-0.04107666,-1.59375,0.515625,-1.34375
358,358,1727975049122,0.014160156,-0.972229,-0.08087158,-1.28125,1.53125,-2.125
359,359,1727975049162,0.0009765625,-1.0090942,-0.046203613,-1.328125,1.390625,-1.328125
360,360,1727975049202,-0.0068359375,-1.0032349,-0.02935791,2.0625,-0.875,-1.53125
361,361,1727975049242,-0.030273438,-0.99224854,-0.042297363,2.46875,-4.265625,-1.421875
362,362,1727975049282,-0.005859375,-1.022522,-0.04058838,3.25,-3.8125,-0.375
363,363,1727975049322,0.0146484375,-0.973938,-0.10601807,-1.453125,-2.359375,-1.796875
364,364,1727975049362,-0.025146484,-0.9927368,-0.019592285,2.65625,0.078125,-0.1875
365,365,1727975049402,-0.04272461,-1.0027466,-0.05596924,0.09375,-1.625,0.734375
366,366,1727975049442,0.0014648438,-0.987854,-0.054260254,3.3125,-2.28125,-0.125
367,367,1727975049482,-0.023925781,-0.9998169,-0.019592285,2.3125,-3.5,-0.640625
368,368,1727975049522,-0.0390625,-0.9961548,-0.065979004,2.25,-4.3125,-0.15625
369,369,1727975049562,-0.016357422,-0.96539307,-0.06719971,2.890625,-3.5625,-0.3125
370,370,1727975049602,-0.029541016,-0.9920044,-0.049621582,2.578125,-3.046875,0.0625
371,371,1727975049642,-0.02734375,-0.9956665,-0.058410645,1.859375,-2.375,0.578125
372,372,1727975049682,-0.0107421875,-0.9780884,-0.066711426,1.1875,-2.3125,0.828125
373,373,1727975049722,-0.012939453,-0.97613525,-0.06573486,-0.375,-1.03125,0.46875
374,374,1727975049762,0.0087890625,-0.973938,-0.070617676,1.703125,-1.1875,0.71875
375,375,1727975049802,-0.024414062,-1.00177,-0.0635376,0.203125,-0.84375,0.140625
376,376,1727975049842,-0.017089844,-0.98223877,-0.07501221,2.578125,0.15625,0.234375
377,377,1727975049882,-0.0007324219,-0.9763794,-0.08258057,1.765625,-1.4375,0.28125
378,378,1727975049922,-0.0068359375,-0.99176025,-0.07989502,2.34375,-1.390625,0.71875
379,379,1727975049962,0.0007324219,-0.98760986,-0.09942627,4.390625,-1.578125,0.921875
380,380,1727975050002,-0.012939453,-0.9702759,-0.08868408,5.234375,-0.25,1.265625
381,381,1727975050042,0.0234375,-0.9661255,-0.11578369,4.578125,-1.328125,0.921875
382,382,1727975050082,0.01928711,-0.9771118,-0.117492676,5.796875,-3.765625,1.296875
383,383,1727975050122,-0.0041503906,-0.97076416,-0.12261963,6.796875,-2.0,1.625
384,384,1727975050162,0.028076172,-0.9522095,-0.16363525,7.59375,-1.75,1.78125
385,385,1727975050202,0.033935547,-0.9487915,-0.18658447,9.46875,-3.59375,2.875
386,386,1727975050242,0.038085938,-0.93096924,-0.19415283,11.296875,-3.15625,4.515625
387,387,1727975050282,0.076171875,-0.9314575,-0.2131958,12.828125,-4.53125,6.859375
388,388,1727975050322,0.087402344,-0.9273071,-0.22955322,13.203125,-5.75,6.578125
389,389,1727975050362,0.10473633,-0.8965454,-0.26690674,18.25,-10.125,7.875
390,390,1727975050402,0.11816406,-0.87286377,-0.27178955,21.359375,-8.5625,9.0
391,391,1727975050442,0.045654297,-0.8411255,-0.25201416,26.03125,-3.5,11.453125
392,392,1727975050482,0.08618164,-0.8311157,-0.31915283,29.421875,-7.609375,17.171875
393,393,1727975050522,0.2097168,-0.80670166,-0.36627197,33.0,-12.5,17.90625
394,394,1727975050562,0.17553711,-0.7805786,-0.35772705,33.203125,-5.71875,14.40625
395,395,1727975050602,0.034423828,-0.7390747,-0.34210205,37.84375,-4.984375,18.734375
396,396,1727975050642,0.16674805,-0.7630005,-0.4368286,39.453125,-8.0625,18.5625
397,397,1727975050682,0.1821289,-0.5964966,-0.42364502,36.390625,3.671875,17.34375
398,398,1727975050722,0.1665039,-0.6148071,-0.5244751,34.8125,-5.34375,25.359375
399,399,1727975050762,0.20336914,-0.64556885,-0.40679932,33.0625,8.6875,12.765625
400,400,1727975050802,0.12182617,-0.63238525,-0.4817505,31.796875,9.828125,21.484375
401,401,1727975050842,0.28295898,-0.56085205,-0.5327759,26.015625,-0.84375,27.125
402,402,1727975050882,0.3918457,-0.5413208,-0.536438,19.0625,0.671875,17.25
403,403,1727975050922,0.23413086,-0.6133423,-0.6033325,13.328125,3.453125,12.421875
404,404,1727975050962,0.23754883,-0.5852661,-0.6387329,19.953125,9.875,13.703125
405,405,1727975051002,0.5148926,-0.51104736,-0.7490845,12.359375,-6.109375,17.625
406,406,1727975051042,0.6140137,-0.53009033,-0.73760986,-1.875,-7.859375,16.96875
407,407,1727975051082,0.17822266,-0.6589966,-0.73394775,11.5,10.28125,-5.953125
408,408,1727975051122,0.42578125,-0.53131104,-0.78790283,14.578125,11.078125,12.15625
409,409,1727975051162,0.4038086,-0.4121704,-0.6734009,6.640625,5.53125,-1.15625
410,410,1727975051202,0.17797852,-0.5252075,-0.73272705,0.28125,9.96875,-5.046875
411,411,1727975051242,0.4338379,-0.4487915,-0.77789307,-10.3125,3.515625,3.25
412,412,1727975051282,0.35083008,-0.4475708,-0.75079346,-18.359375,-1.703125,-6.203125
413,413,1727975051322,0.24072266,-0.51812744,-0.79156494,-20.0,4.875,-10.40625
414,414,1727975051362,0.48461914,-0.6231079,-0.93463135,-25.546875,3.171875,-11.078125
415,415,1727975051402,0.3918457,-0.7058716,-0.9224243,-28.84375,-1.671875,-20.625
416,416,1727975051442,0.29858398,-0.8074341,-0.8460083,-39.578125,-3.609375,-29.6875
417,417,1727975051482,0.34155273,-0.8821411,-0.84991455,-55.234375,-7.28125,-33.453125
418,418,1727975051522,0.3046875,-0.9714966,-0.6963501,-60.5625,-11.875,-39.5
419,419,1727975051562,0.26879883,-1.0205688,-0.49835205,-63.328125,-9.015625,-36.1875
420,420,1727975051602,0.15063477,-1.1130981,-0.34283447,-64.15625,-6.359375,-25.390625
421,421,1727975051642,0.12036133,-1.0735474,-0.1807251,-59.703125,-5.046875,-18.703125
422,422,1727975051682,0.099609375,-1.0737915,-0.11016846,-62.671875,-6.140625,-14.046875
423,423,1727975051722,-0.024658203,-0.975647,0.018249512,-50.515625,-3.90625,-20.90625
424,424,1727975051762,-0.012451172,-0.9290161,0.0038452148,-45.765625,7.71875,-17.875
425,425,1727975051802,0.0017089844,-0.97076416,0.01727295,-35.75,3.296875,-19.3125
426,426,1727975051842,-0.019042969,-0.9324341,0.0524292,-15.59375,9.046875,-15.578125
427,427,1727975051882,0.0063476562,-0.96099854,0.066589355,-11.5,-5.34375,-5.5625
428,428,1727975051922,0.028076172,-1.0098267,0.0770874,-2.234375,-2.15625,-3.8125
429,429,1727975051962,-0.0087890625,-1.020813,0.01361084,-7.875,2.859375,-6.8125
430,430,1727975052002,-0.034423828,-0.9854126,0.066101074,-7.796875,-7.65625,-2.265625
431,431,1727975052042,-0.022216797,-1.0071411,0.03338623,-21.71875,-11.09375,-5.421875
432,432,1727975052082,-0.040283203,-0.9866333,0.08782959,-13.765625,-2.390625,-6.46875
433,433,1727975052122,-0.046142578,-0.986145,0.117126465,-4.84375,0.921875,-4.765625
434,434,1727975052162,-0.049316406,-0.9717407,0.101989746,1.890625,2.03125,-5.703125
435,435,1727975052202,-0.020507812,-1.0169067,0.0993042,7.390625,-2.09375,-1.671875
436,436,1727975052242,-0.012939453,-0.98272705,0.06854248,-0.828125,-7.125,-2.5625
437,437,1727975052282,-0.080566406,-0.97857666,0.12054443,-2.21875,-0.9375,-3.109375
438,438,1727975052322,-0.06640625,-0.9998169,0.1071167,-1.65625,-1.03125,-1.453125
439,439,1727975052362,-0.05444336,-0.95147705,0.09686279,1.5625,-3.53125,-0.375
440,440,1727975052402,-0.07006836,-0.99835205,0.13104248,5.875,0.421875,0.859375
441,441,1727975052442,-0.059326172,-1.0293579,0.07635498,-0.75,0.328125,1.828125
442,442,1727975052482,-0.038085938,-1.0108032,0.07098389,-2.71875,1.5,-0.25
443,443,1727975052522,-0.05053711,-0.99713135,0.08734131,0.640625,3.328125,-0.078125
444,444,1727975052562,-0.045410156,-0.9692993,0.09124756,2.296875,1.734375,0.984375
445,445,1727975052602,-0.04736328,-1.0003052,0.06463623,2.703125,1.296875,1.046875
446,446,1727975052642,-0.024658203,-0.98443604,0.051452637,2.515625,0.546875,1.5
447,447,1727975052682,-0.028808594,-0.9993286,0.074401855,4.0625,-0.375,0.234375
448,448,1727975052722,-0.049804688,-0.97735596,0.062683105,-0.390625,1.625,-1.703125
449,449,1727975052762,-0.03857422,-1.0061646,0.06072998,1.0625,0.203125,0.015625
450,450,1727975052802,-0.043701172,-1.0144653,0.070739746,2.328125,-1.15625,0.359375
451,451,1727975052842,-0.043701172,-0.99542236,0.06121826,3.015625,1.0625,0.8125
452,452,1727975052882,-0.053710938,-1.0115356,0.050476074,0.28125,-0.125,0.53125
453,453,1727975052922,-0.049072266,-0.9819946,0.058288574,2.21875,0.5625,0.234375
454,454,1727975052962,-0.044433594,-0.9907837,0.050964355,0.640625,0.15625,0.328125
455,455,1727975053002,-0.026123047,-0.9956665,0.029968262,0.546875,-0.75,0.390625
456,456,1727975053042,-0.024169922,-0.99224854,0.0524292,-0.34375,-0.1875,-1.4375
457,457,1727975053082,-0.037109375,-0.9890747,0.054626465,0.375,1.515625,-1.96875
458,458,1727975053122,-0.044677734,-1.0003052,0.047546387,0.25,1.265625,0.046875
459,459,1727975053162,-0.041259766,-1.0081177,0.046569824,0.03125,-0.9375,-0.078125
460,460,1727975053202,-0.052246094,-1.0007935,0.058776855,-0.1875,0.953125,-0.515625
461,461,1727975053242,-0.052001953,-0.99176025,0.051208496,0.234375,1.046875,-0.484375
462,462,1727975053282,-0.049072266,-0.98638916,0.055114746,0.53125,-0.328125,-0.109375
463,463,1727975053322,-0.047851562,-0.99053955,0.059509277,2.515625,-0.484375,0.546875
464,464,1727975053362,-0.029296875,-0.9627075,0.04486084,1.15625,-0.4375,-1.609375
465,465,1727975053402,-0.05078125,-1.0090942,0.030944824,3.078125,-2.109375,0.765625
466,466,1727975053442,-0.03515625,-0.99176025,0.0079956055,-0.5625,-1.015625,1.03125
467,467,1727975053482,-0.040039062,-0.954895,0.05609131,-1.78125,7.46875,1.265625
468,468,1727975053522,-0.01171875,-0.99005127,0.040222168,0.484375,4.9375,1.265625
469,469,1727975053562,-0.041992188,-0.9788208,0.081970215,6.71875,4.828125,1.21875
470,470,1727975053602,-0.04638672,-0.9402466,0.08123779,17.703125,4.5625,5.15625
471,471,1727975053642,-0.095214844,-0.98516846,0.08660889,33.234375,6.78125,7.65625
472,472,1727975053682,-0.036621094,-0.97052,0.007019043,45.5625,4.046875,14.0625
473,473,1727975053722,-0.041992188,-0.9968872,-0.034240723,60.9375,10.859375,16.53125
474,474,1727975053762,-0.030029297,-0.97003174,-0.12506104,66.71875,10.21875,25.265625
475,475,1727975053802,-0.018554688,-0.94073486,-0.22247314,82.671875,11.640625,32.4375
476,476,1727975053842,-0.011230469,-0.87579346,-0.32598877,90.78125,9.15625,35.34375
477,477,1727975053882,0.08691406,-0.8477173,-0.48077393,103.3125,6.84375,38.46875
478,478,1727975053922,0.16992188,-0.82769775,-0.659729,91.40625,12.015625,28.34375
479,479,1727975053962,0.11791992,-0.8501587,-0.75006104,90.890625,10.84375,25.8125
480,480,1727975054002,0.2824707,-0.6416626,-0.8411255,70.609375,-23.65625,41.4375
481,481,1727975054042,0.25683594,-0.5449829,-0.92681885,68.046875,-24.65625,41.1875
482,482,1727975054082,0.37573242,-0.2720337,-1.0354614,78.328125,-19.625,38.203125
483,483,1727975054122,0.55200195,-0.094055176,-1.1399536,59.9375,-19.78125,26.078125
484,484,1727975054162,0.3190918,-0.15167236,-1.0696411,36.65625,-11.78125,16.40625
485,485,1727975054202,0.4873047,0.0138549805,-1.0288696,15.4375,-9.28125,16.625
486,486,1727975054242,0.46142578,0.014099121,-1.0679321,-16.046875,-6.125,8.046875
487,487,1727975054282,0.54052734,-0.069885254,-1.1253052,-51.65625,-4.125,-2.53125
488,488,1727975054322,0.51464844,-0.1572876,-1.0393677,-53.375,-8.0,-6.828125
489,489,1727975054362,0.5175781,-0.24468994,-1.0227661,-33.640625,-5.3125,-4.140625
490,490,1727975054402,0.44799805,-0.21051025,-0.9541626,-12.921875,11.390625,-8.390625
491,491,1727975054442,0.48168945,-0.302063,-0.8977661,-14.1875,7.296875,-2.765625
492,492,1727975054482,0.46362305,-0.34161377,-0.878479,-13.65625,9.875,-5.90625
493,493,1727975054522,0.4152832,-0.3274536,-0.7908325,-9.203125,6.25,-7.734375
494,494,1727975054562,0.3125,-0.29718018,-0.7937622,-12.171875,2.578125,-11.28125
495,495,1727975054602,0.3400879,-0.29156494,-0.7317505,-16.65625,5.484375,-12.078125
496,496,1727975054642,0.29711914,-0.30792236,-0.7095337,-22.625,3.734375,-12.96875
497,497,1727975054682,0.3034668,-0.3789673,-0.69244385,-27.140625,0.859375,-16.0625
498,498,1727975054722,0.3317871,-0.42266846,-0.67681885,-33.859375,2.609375,-20.625
499,499,1727975054762,0.2434082,-0.4661255,-0.6404419,-36.4375,-0.484375,-23.25
500,500,1727975054802,0.21069336,-0.49591064,-0.61553955,-37.5625,1.0625,-23.40625
501,501,1727975054842,0.23364258,-0.5027466,-0.5757446,-44.5,1.375,-23.671875
502,502,1727975054882,0.22094727,-0.550354,-0.5383911,-45.53125,3.65625,-23.953125
503,503,1727975054922,0.15844727,-0.56695557,-0.50982666,-55.0625,-1.6875,-23.328125
504,504,1727975054962,0.16748047,-0.61920166,-0.46173096,-56.15625,2.78125,-24.3125
505,505,1727975055002,0.13256836,-0.68829346,-0.39971924,-51.453125,-1.453125,-23.546875
506,506,1727975055042,0.14111328,-0.6773071,-0.39337158,-51.265625,-5.40625,-21.53125
507,507,1727975055082,0.08911133,-0.7407837,-0.3526001,-46.90625,-2.046875,-21.96875
508,508,1727975055122,0.06542969,-0.76275635,-0.30523682,-39.015625,1.109375,-15.328125
509,509,1727975055162,0.13842773,-0.831604,-0.30010986,-36.171875,1.625,-15.984375
510,510,1727975055202,0.118652344,-0.87506104,-0.31622314,-29.296875,-0.234375,-8.671875
511,511,1727975055242,0.08886719,-0.91241455,-0.23077393,-24.15625,2.234375,-8.71875
512,512,1727975055282,0.045898438,-0.9627075,-0.20123291,-22.265625,6.21875,-6.09375
513,513,1727975055322,0.06518555,-0.93585205,-0.20025635,-14.515625,7.125,-3.671875
514,514,1727975055362,0.0793457,-0.89678955,-0.15509033,-10.96875,7.46875,-2.90625
515,515,1727975055402,0.032958984,-0.96417236,-0.14605713,-10.03125,4.234375,-1.78125
516,516,1727975055442,0.059570312,-1.0186157,-0.10064697,-7.6875,3.75,-2.265625
517,517,1727975055482,-0.00048828125,-0.9990845,-0.109436035,-7.140625,5.4375,-1.203125
518,518,1727975055522,0.08203125,-0.94195557,-0.13287354,-2.1875,2.328125,-0.234375
519,519,1727975055562,0.08081055,-0.9751587,-0.11236572,-3.171875,-3.28125,-1.078125
520,520,1727975055602,-0.021484375,-0.9961548,-0.082336426,-7.625,-1.3125,-2.359375
521,521,1727975055642,0.004638672,-0.9985962,-0.047668457,-3.390625,0.015625,-1.109375
522,522,1727975055682,0.018066406,-0.94366455,-0.09893799,-2.515625,-2.703125,-0.09375
523,523,1727975055722,-0.0036621094,-1.0317993,-0.08087158,-6.015625,-2.796875,-0.015625
524,524,1727975055762,0.044433594,-1.022522,-0.05621338,-2.625,-1.09375,-0.375
525,525,1727975055802,0.028808594,-0.9834595,-0.059387207,0.890625,-1.375,-0.734375
526,526,1727975055842,0.026611328,-0.97613525,-0.058654785,0.125,-2.21875,0.046875
527,527,1727975055882,0.024658203,-0.9902954,-0.058410645,-1.109375,-0.828125,-1.390625
528,528,1727975055922,0.01171875,-0.9690552,-0.04888916,1.125,-1.703125,-1.28125
529,529,1727975055962,0.0234375,-0.9871216,-0.06719971,-0.3125,-2.171875,-1.078125
530,530,1727975056002,0.025634766,-0.97735596,-0.047424316,-0.0625,-0.234375,-1.625
531,531,1727975056042,0.014404297,-1.0037231,-0.05987549,0.328125,-3.34375,-0.59375
532,532,1727975056082,0.016845703,-0.9846802,-0.06793213,0.765625,-0.859375,-0.5625
533,533,1727975056122,0.013183594,-0.9927368,-0.054260254,1.28125,-1.734375,-0.84375
534,534,1727975056162,0.013183594,-0.99542236,-0.06402588,2.59375,-3.96875,-0.421875
535,535,1727975056202,0.0078125,-0.987854,-0.059631348,1.84375,-2.3125,-0.5
536,536,1727975056242,0.009277344,-0.9805298,-0.06793213,1.984375,-2.984375,-0.75
537,537,1727975056282,-0.0021972656,-0.9834595,-0.077941895,0.984375,-2.3125,-0.421875
538,538,1727975056322,0.012207031,-1.000061,-0.077941895,2.234375,-0.265625,-0.234375
539,539,1727975056362,0.017578125,-0.97613525,-0.074523926,2.375,-1.03125,-0.0625
540,540,1727975056402,0.0078125,-0.9873657,-0.10479736,2.046875,-0.765625,0.21875
541,541,1727975056442,0.016601562,-0.96466064,-0.117004395,4.4375,2.859375,0.578125
542,542,1727975056482,0.032470703,-0.9758911,-0.11431885,5.109375,3.03125,1.1875
543,543,1727975056522,0.016357422,-0.97540283,-0.11187744,3.671875,1.953125,2.0625
544,544,1727975056562,0.018310547,-0.944397,-0.12310791,8.828125,3.953125,3.015625
545,545,1727975056602,0.059570312,-0.923645,-0.15875244,13.03125,2.53125,4.828125
546,546,1727975056642,0.049560547,-0.92681885,-0.18267822,16.5,0.25,6.28125
547,547,1727975056682,0.030029297,-0.90875244,-0.18365479,21.15625,0.90625,8.0
548,548,1727975056722,0.07836914,-0.88165283,-0.24176025,24.734375,-1.625,10.796875
549,549,1727975056762,0.10668945,-0.8518677,-0.2649536,27.390625,-2.109375,12.53125
550,550,1727975056802,0.0715332,-0.8526001,-0.3069458,23.734375,0.171875,11.25
551,551,1727975056842,0.14404297,-0.7715454,-0.3045044,34.46875,0.34375,14.578125
552,552,1727975056882,0.12695312,-0.6851196,-0.36309814,39.59375,-8.0,19.1875
553,553,1727975056922,0.115478516,-0.7337036,-0.30474854,43.109375,1.8125,15.328125
554,554,1727975056962,0.14648438,-0.6177368,-0.45880127,40.15625,-6.078125,24.09375
555,555,1727975057002,0.20507812,-0.8933716,-0.611145,46.875,-24.546875,23.765625
556,556,1727975057042,0.1652832,-0.8062134,-0.47149658,51.625,22.375,9.734375
557,557,1727975057082,0.0390625,-0.53375244,-0.4631958,39.296875,9.84375,30.640625
558,558,1727975057122,0.39916992,-0.583313,-0.6592407,39.734375,-18.4375,21.21875
559,559,1727975057162,0.4428711,-0.6538696,-0.5803833,36.21875,-3.328125,18.3125
560,560,1727975057202,0.31420898,-0.5615845,-0.6309204,38.6875,-6.671875,23.640625
561,561,1727975057242,0.19189453,-0.54644775,-0.6692505,20.796875,-13.359375,12.421875
562,562,1727975057282,0.3310547,-0.5256958,-0.6008911,19.1875,4.5,11.234375
563,563,1727975057322,0.40014648,-0.49713135,-0.6380005,13.203125,-2.890625,14.1875
564,564,1727975057362,0.35351562,-0.45635986,-0.6917114,4.921875,-6.15625,4.109375
565,565,1727975057402,0.37036133,-0.50250244,-0.65582275,-0.890625,0.65625,7.640625
566,566,1727975057442,0.23413086,-0.47564697,-0.72247314,4.15625,2.234375,2.578125
567,567,1727975057482,0.53637695,-0.54888916,-0.75616455,-16.09375,-2.90625,4.46875
568,568,1727975057522,0.39135742,-0.47296143,-0.71588135,3.640625,2.859375,-3.5
569,569,1727975057562,0.34106445,-0.47833252,-0.6746216,-7.03125,3.15625,-5.90625
570,570,1727975057602,0.38183594,-0.4180298,-0.736145,-17.625,-1.140625,-4.0625
571,571,1727975057642,0.37768555,-0.47784424,-0.6878052,-20.59375,-1.234375,-9.78125
572,572,1727975057682,0.35327148,-0.48809814,-0.69537354,-28.4375,-3.5,-9.03125
573,573,1727975057722,0.3486328,-0.51153564,-0.6904907,-45.78125,-8.015625,-13.546875
574,574,1727975057762,0.37353516,-0.6453247,-0.8069458,-39.953125,-0.328125,-15.328125
575,575,1727975057802,0.44140625,-0.7876587,-0.8225708,-34.96875,0.953125,-16.4375
576,576,1727975057842,0.4597168,-0.927063,-0.86602783,-36.421875,4.75,-20.84375
577,577,1727975057882,0.49731445,-0.97906494,-0.85284424,-40.96875,0.921875,-23.3125
578,578,1727975057922,0.4729004,-0.98443604,-0.6585083,-38.28125,0.5625,-26.8125
579,579,1727975057962,0.35473633,-1.013977,-0.44732666,-38.734375,-2.96875,-28.234375
580,580,1727975058002,0.24438477,-1.0723267,-0.26837158,-36.3125,-4.484375,-24.890625
581,581,1727975058042,0.122802734,-1.0442505,-0.16949463,-34.609375,-2.5,-23.328125
582,582,1727975058082,0.08105469,-1.0564575,-0.12823486,-32.75,0.25,-18.296875
583,583,1727975058122,0.12768555,-0.96539307,-0.117492676,-39.859375,-2.21875,-18.875
584,584,1727975058162,0.056640625,-0.94659424,-0.12261963,-28.265625,3.640625,-21.625
585,585,1727975058202,0.059814453,-0.9290161,-0.14605713,-22.109375,2.28125,-16.546875
586,586,1727975058242,0.07104492,-0.9468384,-0.14971924,-14.078125,3.3125,-14.140625
587,587,1727975058282,0.022705078,-0.9199829,-0.15240479,-17.21875,2.421875,-13.59375
588,588,1727975058322,0.0087890625,-0.99957275,-0.0869751,-21.203125,-5.921875,-12.515625
589,589,1727975058362,-0.052001953,-0.9817505,-0.105529785,-23.078125,1.765625,-13.765625
590,590,1727975058402,0.006591797,-0.9397583,0.031188965,-13.3125,2.0625,-14.09375
591,591,1727975058442,-0.07080078,-1.0811157,-0.014953613,-12.6875,-5.25,-12.34375
592,592,1727975058482,-0.09399414,-0.97052,0.023620605,-1.265625,-0.8125,-8.265625
593,593,1727975058522,-0.0009765625,-1.0264282,-0.020324707,-12.40625,-1.78125,-5.265625
594,594,1727975058562,-0.07885742,-0.9956665,-0.00982666,-2.578125,7.046875,-6.015625
595,595,1727975058602,-0.05517578,-0.9883423,-0.015686035,9.390625,10.65625,0.96875
596,596,1727975058642,-0.08203125,-0.97369385,0.009216309,6.578125,11.09375,-2.09375
597,597,1727975058682,-0.052246094,-0.975647,0.0016479492,0.625,0.71875,0.15625
598,598,1727975058722,-0.040283203,-1.020813,-0.035461426,-3.65625,-0.265625,-1.953125
599,599,1727975058762,-0.045654297,-0.99884033,-0.008605957,0.296875,3.59375,-3.625
600,600,1727975058802,-0.04296875,-0.9614868,-0.016418457,-4.046875,-0.59375,-3.484375
601,601,1727975058842,-0.091552734,-0.9932251,-0.03302002,-5.25,-2.703125,-2.75
602,602,1727975058882,-0.05053711,-0.9937134,-0.049621582,-4.46875,0.90625,-1.640625
603,603,1727975058922,-0.0871582,-0.97857666,-0.0064086914,-3.0,3.078125,-2.21875
604,604,1727975058962,-0.11035156,-1.0042114,0.0072631836,1.875,4.03125,0.078125
605,605,1727975059002,-0.079833984,-1.000061,0.0021362305,-4.703125,-1.21875,0.921875
606,606,1727975059042,-0.053466797,-1.0132446,-0.019592285,-2.234375,-0.4375,-0.03125
607,607,1727975059082,-0.068847656,-0.98150635,0.001159668,0.015625,3.875,-1.09375
608,608,1727975059122,-0.08178711,-0.98809814,0.0006713867,-3.53125,-1.546875,-0.640625
609,609,1727975059162,-0.07861328,-0.9949341,0.024353027,-0.53125,0.234375,0.265625
610,610,1727975059202,-0.06738281,-0.9795532,0.006286621,-4.234375,1.15625,-0.390625
611,611,1727975059242,-0.072753906,-1.0007935,-0.0051879883,-1.34375,-1.515625,0.34375
612,612,1727975059282,-0.06347656,-1.0073853,-0.0025024414,-5.421875,-0.921875,-0.625
613,613,1727975059322,-0.08496094,-0.9898071,0.020935059,1.171875,1.96875,-0.015625
614,614,1727975059362,-0.076416016,-0.9973755,0.014831543,-2.71875,-2.03125,0.953125
615,615,1727975059402,-0.06347656,-0.9990845,0.019958496,-1.40625,0.25,0.140625
616,616,1727975059442,-0.083984375,-0.9973755,0.029724121,-1.453125,2.21875,0.546875
617,617,1727975059482,-0.07080078,-0.98443604,0.015075684,-0.890625,1.515625,1.640625
618,618,1727975059522,-0.06616211,-0.9927368,0.018981934,3.75,3.21875,1.09375
619,619,1727975059562,-0.05444336,-0.98931885,0.024841309,3.078125,0.421875,1.53125
620,620,1727975059602,-0.057617188,-1.015686,-0.00079345703,4.75,0.953125,1.578125
621,621,1727975059642,-0.06274414,-0.9849243,0.005554199,1.875,-0.671875,1.125
622,622,1727975059682,-0.06738281,-0.9961548,-0.002746582,2.546875,-0.046875,1.5625
623,623,1727975059722,-0.056396484,-0.9981079,-0.014465332,1.765625,-0.484375,2.03125
624,624,1727975059762,-0.07348633,-0.9973755,-0.015197754,2.921875,0.90625,1.890625
625,625,1727975059802,-0.056396484,-0.9902954,-0.0029907227,0.5625,-1.734375,2.375
626,626,1727975059842,-0.04345703,-0.9854126,-0.013977051,3.3125,-0.671875,2.15625
627,627,1727975059882,-0.046875,-0.98687744,-0.02911377,-0.828125,-0.15625,1.8125
628,628,1727975059922,-0.03564453,-1.0083618,-0.018127441,2.84375,1.546875,1.90625
629,629,1727975059962,-0.03540039,-1.0039673,-0.012512207,-0.625,-1.46875,1.375
630,630,1727975060002,-0.026855469,-1.0073853,-0.0115356445,-2.21875,-4.21875,1.453125
631,631,1727975060042,-0.04663086,-1.00177,-0.027404785,-6.921875,-3.5625,0.59375
632,632,1727975060082,-0.010498047,-0.96588135,-0.027160645,-3.203125,0.71875,0.5
633,633,1727975060122,-0.030761719,-0.99224854,-0.011047363,1.359375,0.4375,-0.390625
634,634,1727975060162,-0.03955078,-0.9932251,-0.018615723,-0.546875,-0.96875,0.3125
635,635,1727975060202,-0.015380859,-0.99591064,0.005065918,-3.015625,0.75,-0.65625
636,636,1727975060242,-0.04272461,-0.99468994,-0.006164551,-2.90625,1.296875,-0.71875
637,637,1727975060282,-0.03515625,-0.98931885,0.016784668,-4.21875,-1.390625,-0.578125
638,638,1727975060322,-0.044677734,-1.00177,0.0289917,-4.328125,-5.21875,-0.609375
639,639,1727975060362,-0.061523438,-0.9729614,0.035095215,-2.796875,-6.734375,-0.375
640,640,1727975060402,-0.039794922,-1.0003052,-0.0012817383,-1.921875,-1.40625,1.359375
641,641,1727975060442,0.017578125,-0.9692993,-0.0012817383,-11.21875,8.796875,-0.9375
642,642,1727975060482,-0.012451172,-0.98931885,0.03704834,-3.59375,6.703125,-2.015625
643,643,1727975060522,-0.03173828,-0.9314575,0.05731201,-4.4375,5.40625,-0.953125
644,644,1727975060562,-0.07446289,-0.98565674,0.05706787,0.625,3.546875,1.53125
645,645,1727975060602,-0.016113281,-0.96881104,0.15374756,8.78125,-0.546875,2.0625
646,646,1727975060642,-0.08862305,-0.9834595,0.07977295,20.3125,-5.21875,4.0
647,647,1727975060682,-0.09008789,-1.0073853,0.04827881,29.296875,-0.46875,10.59375
648,648,1727975060722,-0.0793457,-0.9661255,0.048034668,43.921875,-3.546875,17.328125
649,649,1727975060762,-0.05517578,-0.9734497,-0.020568848,60.0,1.203125,19.40625
650,650,1727975060802,-0.0036621094,-0.93951416,-0.117004395,81.5,8.25,25.1875
651,651,1727975060842,-0.0031738281,-0.94781494,-0.14874268,104.9375,9.109375,33.640625
652,652,1727975060882,0.040039062,-0.9314575,-0.4685669,105.8125,11.875,35.21875
653,653,1727975060922,0.07373047,-0.97613525,-0.56573486,101.03125,9.953125,30.640625
654,654,1727975060962,0.1538086,-0.8982544,-0.6826782,82.390625,8.375,32.578125
655,655,1727975061002,0.36547852,-0.6868286,-1.1089478,83.5,-4.4375,39.53125
656,656,1727975061042,0.36914062,-0.4973755,-1.1460571,66.25,-10.84375,32.296875
657,657,1727975061082,0.43481445,-0.33306885,-1.2078247,57.4375,-12.359375,23.515625
658,658,1727975061122,0.29003906,-0.3081665,-1.1140747,27.34375,-7.609375,7.578125
659,659,1727975061162,0.2800293,-0.30718994,-0.9990845,14.53125,-7.703125,10.46875
660,660,1727975061202,0.359375,-0.2695923,-1.0247192,2.046875,-14.734375,8.578125
661,661,1727975061242,0.3737793,-0.29595947,-1.0220337,-11.03125,-3.34375,-1.671875
662,662,1727975061282,0.35742188,-0.27667236,-1.0332642,-11.859375,-1.5,3.296875
663,663,1727975061322,0.46044922,-0.33135986,-0.9873657,4.796875,0.609375,0.96875
664,664,1727975061362,0.37890625,-0.36724854,-0.91412354,-5.375,-4.5,-4.25
665,665,1727975061402,0.328125,-0.43145752,-0.8428345,-11.5,4.171875,1.828125
666,666,1727975061442,0.33740234,-0.38970947,-0.78204346,-0.6875,2.609375,-3.296875
667,667,1727975061482,0.34375,-0.32159424,-0.76641846,-15.0,-4.25,-7.515625
668,668,1727975061522,0.25439453,-0.33746338,-0.73638916,-21.625,5.296875,-9.4375
669,669,1727975061562,0.23144531,-0.37457275,-0.64678955,-19.578125,3.84375,-9.1875
670,670,1727975061602,0.29345703,-0.3604126,-0.6838989,-35.59375,0.4375,-9.453125
671,671,1727975061642,0.28881836,-0.4277954,-0.6592407,-41.515625,-2.203125,-17.09375
672,672,1727975061682,0.3034668,-0.5029907,-0.70928955,-47.078125,-6.25,-21.265625
673,673,1727975061722,0.2277832,-0.57110596,-0.616272,-43.3125,7.421875,-24.484375
674,674,1727975061762,0.16772461,-0.5588989,-0.5376587,-48.328125,4.609375,-23.140625
675,675,1727975061802,0.24853516,-0.5623169,-0.5335083,-58.21875,-0.703125,-22.734375
676,676,1727975061842,0.19555664,-0.6433716,-0.58135986,-50.296875,-5.0,-17.265625
677,677,1727975061882,0.18139648,-0.69244385,-0.48492432,-54.21875,-2.546875,-22.21875
678,678,1727975061922,0.11401367,-0.69781494,-0.34649658,-48.296875,5.4375,-22.703125
679,679,1727975061962,0.028320312,-0.6692505,-0.3406372,-48.296875,5.140625,-16.75
680,680,1727975062002,0.099609375,-0.73150635,-0.35308838,-44.21875,6.453125,-16.78125
681,681,1727975062042,0.10449219,-0.78253174,-0.34576416,-38.765625,8.015625,-16.25
682,682,1727975062082,0.11376953,-0.8233032,-0.30255127,-32.84375,10.609375,-13.90625
683,683,1727975062122,0.13964844,-0.8699341,-0.2617798,-32.296875,6.78125,-9.984375
684,684,1727975062162,0.08886719,-0.9221802,-0.19342041,-29.59375,4.90625,-9.828125
685,685,1727975062202,0.08666992,-0.9163208,-0.16827393,-21.515625,2.921875,-8.0625
686,686,1727975062242,0.10253906,-0.92315674,-0.16021729,-14.296875,-3.171875,-4.234375
687,687,1727975062282,0.060058594,-0.9495239,-0.10406494,-9.5625,-2.09375,-4.703125
688,688,1727975062322,0.041748047,-0.95562744,-0.09844971,-7.828125,-4.0625,-3.859375
689,689,1727975062362,0.052001953,-0.96173096,-0.10284424,-6.3125,-5.09375,-1.59375
690,690,1727975062402,0.03515625,-0.9990845,-0.08917236,-6.3125,-3.515625,-2.03125
691,691,1727975062442,0.008056641,-0.9780884,-0.07720947,-3.453125,-0.734375,-1.515625
692,692,1727975062482,0.009277344,-0.9741821,-0.06011963,-3.453125,-2.984375,-1.046875
693,693,1727975062522,0.025878906,-1.006897,-0.047912598,-0.96875,-3.125,-0.125
694,694,1727975062562,0.0053710938,-0.97247314,-0.04547119,-2.3125,-1.921875,0.125
695,695,1727975062602,0.022705078,-0.987854,-0.06793213,-3.28125,-1.140625,-0.359375
696,696,1727975062642,0.017333984,-0.99224854,-0.026184082,-2.46875,-0.015625,0.046875
697,697,1727975062682,-0.0034179688,-0.9961548,-0.036193848,-1.34375,-0.8125,0.109375
698,698,1727975062722,0.015625,-0.98883057,-0.051086426,-1.3125,-0.375,-0.125
699,699,1727975062762,0.01953125,-0.991272,-0.03643799,-1.65625,-0.796875,0.359375
700,700,1727975062802,-0.021484375,-1.0010376,-0.027404785,-1.46875,0.203125,-0.796875
701,701,1727975062842,0.010498047,-0.9829712,-0.03717041,-0.75,0.296875,0.40625
702,702,1727975062882,0.0007324219,-0.9854126,-0.02935791,-1.15625,1.546875,-1.09375
703,703,1727975062922,-0.0026855469,-0.991272,-0.02911377,-2.0,2.078125,-0.515625
704,704,1727975062962,-0.0029296875,-0.98565674,-0.034240723,-0.390625,2.078125,-0.828125
705,705,1727975063002,0.008300781,-0.98150635,-0.03717041,-0.484375,1.171875,-0.578125
706,706,1727975063042,-0.0078125,-1.0142212,-0.020324707,-1.171875,1.9375,-0.78125
707,707,1727975063082,-0.016601562,-0.986145,-0.030090332,-1.28125,2.859375,-0.921875
708,708,1727975063122,0.024414062,-0.9846802,-0.00982666,-0.734375,1.65625,-0.40625
709,709,1727975063162,-0.013183594,-1.0027466,-0.007873535,-2.15625,1.453125,-0.71875
710,710,1727975063202,-0.00390625,-0.9961548,-0.022766113,-1.015625,1.1875,-0.828125
711,711,1727975063242,0.016357422,-0.9961548,-0.022033691,-2.125,1.734375,-1.453125
712,712,1727975063282,-0.0024414062,-0.99957275,-0.02178955,-0.4375,2.375,-0.90625
713,713,1727975063322,-0.011474609,-0.98760986,-0.022521973,-0.78125,0.375,-0.609375
714,714,1727975063362,-0.0021972656,-0.98883057,-0.031799316,0.890625,0.65625,-0.796875
715,715,1727975063402,-0.0029296875,-0.97662354,-0.053771973,1.296875,1.671875,0.25
716,716,1727975063442,-0.0041503906,-0.97052,-0.047912598,2.078125,1.109375,1.046875
717,717,1727975063482,0.01928711,-0.9758911,-0.07476807,4.0,2.0625,1.84375
718,718,1727975063522,0.01171875,-0.9512329,-0.0803833,9.078125,1.953125,2.96875
719,719,1727975063562,0.027832031,-0.93463135,-0.06793213,12.90625,1.625,3.71875
720,720,1727975063602,0.014404297,-0.95684814,-0.11187744,16.703125,-0.28125,6.84375
721,721,1727975063642,0.044433594,-0.9199829,-0.16046143,19.5,0.890625,7.546875
722,722,1727975063682,0.08862305,-0.8518677,-0.1831665,23.484375,2.546875,8.390625
723,723,1727975063722,0.09741211,-0.8377075,-0.21173096,29.015625,-1.515625,11.671875
724,724,1727975063762,0.11645508,-0.78082275,-0.22735596,29.8125,-0.296875,13.3125
725,725,1727975063802,0.17749023,-0.8911743,-0.36895752,27.203125,-17.78125,14.953125
726,726,1727975063842,0.2319336,-0.8862915,-0.30255127,42.890625,0.09375,6.21875
727,727,1727975063882,-0.034423828,-0.7151489,-0.2234497,53.5625,3.359375,10.484375
728,728,1727975063922,0.096191406,-0.77056885,-0.4319458,39.53125,-16.328125,20.96875
729,729,1727975063962,0.1665039,-0.71661377,-0.22784424,62.015625,17.96875,11.75
730,730,1727975064002,-0.09741211,-0.70513916,-0.61602783,36.203125,-19.09375,20.734375
731,731,1727975064042,0.40625,-0.76104736,-0.5498657,38.984375,4.578125,10.8125
732,732,1727975064082,0.07128906,-0.56427,-0.39117432,24.421875,12.171875,12.921875
733,733,1727975064122,0.19140625,-0.66363525,-0.6773071,1.671875,-3.90625,12.46875
734,734,1727975064162,0.42944336,-0.70025635,-0.49176025,43.625,2.0,9.875
735,735,1727975064202,0.09863281,-0.56988525,-0.6531372,23.65625,-11.984375,14.734375
736,736,1727975064242,0.030517578,-0.62457275,-0.581604,25.828125,2.125,-0.640625
737,737,1727975064282,0.49145508,-0.6355591,-0.6616821,5.421875,3.46875,14.765625
738,738,1727975064322,0.29052734,-0.5366821,-0.7324829,14.296875,-9.765625,8.875
739,739,1727975064362,0.15405273,-0.611145,-0.65948486,8.875,0.90625,6.203125
740,740,1727975064402,0.30249023,-0.53619385,-0.7505493,-9.078125,4.53125,7.34375
741,741,1727975064442,0.24267578,-0.5401001,-0.70098877,3.25,13.390625,0.984375
742,742,1727975064482,0.35620117,-0.52838135,-0.64923096,-11.78125,12.484375,3.90625
743,743,1727975064522,0.23583984,-0.5178833,-0.7127075,-9.3125,4.484375,-0.875
744,744,1727975064562,0.26342773,-0.57110596,-0.6511841,-29.234375,5.34375,-3.4375
745,745,1727975064602,0.33496094,-0.55255127,-0.68927,-36.546875,-1.875,-5.265625
746,746,1727975064642,0.33691406,-0.7112427,-0.77178955,-48.78125,-8.171875,-12.578125
747,747,1727975064682,0.3010254,-0.87677,-0.78082275,-45.734375,-5.625,-21.765625
748,748,1727975064722,0.25439453,-1.0042114,-0.8233032,-46.703125,-5.59375,-29.5625
749,749,1727975064762,0.32543945,-1.1465454,-0.7217407,-51.734375,-7.484375,-34.296875
750,750,1727975064802,0.23291016,-1.2107544,-0.5166626,-63.0,-8.796875,-32.921875
751,751,1727975064842,0.15136719,-1.3215942,-0.3086548,-64.921875,-6.34375,-23.1875
752,752,1727975064882,0.0703125,-1.2549438,-0.090148926,-51.15625,-0.046875,-18.453125
753,753,1727975064922,-0.052001953,-1.1895142,0.073913574,-50.1875,1.21875,-19.796875
754,754,1727975064962,-0.09008789,-1.0940552,0.11419678,-45.34375,2.578125,-24.625
755,755,1727975065002,-0.14672852,-0.9348755,0.09686279,-25.234375,10.984375,-21.109375
756,756,1727975065042,-0.037841797,-0.83966064,0.07342529,-25.15625,2.046875,-14.015625
757,757,1727975065082,-0.036376953,-0.8779907,0.050720215,-24.265625,9.296875,-16.6875
758,758,1727975065122,0.021240234,-0.87213135,0.027282715,-15.109375,5.734375,-10.140625
759,759,1727975065162,-0.03491211,-0.99468994,0.08660889,-20.71875,7.90625,-14.296875
