,Unnamed: 0,timestamp,accel_x,accel_y,accel_z,gyro_x,gyro_y,gyro_z
0,0,1728003820646,0.20922852,-0.8897095,-0.39678955,-2.90625,-0.25,-0.921875
1,1,1728003820686,0.18359375,-0.9380493,-0.41168213,-3.890625,2.40625,-3.015625
2,2,1728003820726,0.15332031,-0.91973877,-0.40826416,0.703125,4.5625,-5.578125
3,3,1728003820766,0.15136719,-0.91119385,-0.42877197,0.46875,5.5,-9.125
4,4,1728003820806,0.15600586,-0.8953247,-0.40899658,-0.234375,8.28125,-10.0625
5,5,1728003820846,0.17016602,-0.91412354,-0.43145752,-3.78125,10.90625,-10.921875
6,6,1728003820886,0.17285156,-0.8936157,-0.41973877,-6.046875,11.453125,-12.890625
7,7,1728003820926,0.15063477,-0.8994751,-0.42730713,-10.46875,9.703125,-13.59375
8,8,1728003820966,0.13867188,-0.9260864,-0.43658447,-10.734375,11.03125,-11.921875
9,9,1728003821006,0.10083008,-0.95635986,-0.42730713,-10.71875,7.25,-15.828125
10,10,1728003821046,-0.0029296875,-0.89141846,-0.41461182,-13.125,5.8125,-18.9375
11,11,1728003821086,-0.021240234,-0.8411255,-0.42022705,-12.421875,8.796875,-15.46875
12,12,1728003821126,0.01977539,-0.8911743,-0.3682251,-8.828125,11.515625,-12.09375
13,13,1728003821166,-0.022460938,-0.9483032,-0.33184814,-9.953125,13.546875,-13.921875
14,14,1728003821206,-0.1003418,-0.9458618,-0.3447876,-11.59375,17.71875,-14.828125
15,15,1728003821246,-0.103515625,-0.96466064,-0.34552002,-12.078125,19.171875,-16.75
16,16,1728003821286,-0.06567383,-0.98321533,-0.29962158,-12.375,18.359375,-14.59375
17,17,1728003821326,-0.099365234,-0.8916626,-0.29058838,-8.359375,16.953125,-14.328125
18,18,1728003821366,-0.0847168,-0.8960571,-0.2786255,-5.3125,11.0,-15.4375
19,19,1728003821406,-0.03100586,-0.9011841,-0.2522583,-10.78125,7.453125,-14.296875
20,20,1728003821446,-0.056152344,-0.93292236,-0.19805908,-4.40625,0.4375,-13.375
21,21,1728003821486,-0.12939453,-0.94244385,-0.23223877,-10.265625,-3.765625,-15.296875
22,22,1728003821526,-0.19384766,-0.8555298,-0.24664307,-9.5,-1.046875,-13.125
23,23,1728003821566,-0.25341797,-0.8201294,-0.24664307,-4.265625,-3.171875,-12.453125
24,24,1728003821606,-0.28295898,-0.88531494,-0.17755127,-2.84375,0.609375,-12.640625
25,25,1728003821646,-0.31811523,-1.0391235,-0.1482544,-4.03125,3.78125,-11.421875
26,26,1728003821686,-0.24951172,-1.1450806,-0.105529785,-8.28125,5.734375,-10.75
27,27,1728003821726,-0.21240234,-1.1511841,-0.089416504,-15.671875,3.765625,-7.984375
28,28,1728003821766,-0.26733398,-1.0562134,-0.065979004,-18.203125,1.25,-5.90625
29,29,1728003821806,-0.33764648,-1.0134888,-0.038146973,-18.796875,-3.75,-2.0625
30,30,1728003821846,-0.35791016,-1.041565,0.07147217,-21.796875,1.9375,-0.5625
31,31,1728003821886,-0.4399414,-0.9981079,0.05731201,-21.921875,0.828125,-1.515625
32,32,1728003821926,-0.30566406,-0.88946533,-0.007385254,-18.578125,1.21875,-1.28125
33,33,1728003821966,-0.1743164,-0.75982666,0.042907715,-4.9375,3.921875,-1.5
34,34,1728003822006,-0.25073242,-0.7246704,0.030944824,-5.484375,3.390625,2.625
35,35,1728003822046,-0.2919922,-0.83721924,0.08099365,-3.40625,3.265625,-1.296875
36,36,1728003822086,-0.3251953,-0.96759033,0.081726074,-1.296875,3.234375,-0.6875
37,37,1728003822126,-0.29907227,-0.99713135,0.043395996,-1.21875,-1.3125,-0.953125
38,38,1728003822166,-0.26293945,-0.9800415,0.05218506,6.203125,-3.046875,-2.359375
39,39,1728003822206,-0.23583984,-0.9439087,0.09295654,14.90625,-4.96875,-3.15625
40,40,1728003822246,-0.20776367,-0.9451294,0.04046631,16.234375,-9.515625,0.625
41,41,1728003822286,-0.21948242,-0.89312744,-0.009094238,8.921875,-12.9375,2.390625
42,42,1728003822326,-0.25268555,-0.9036255,0.0014038086,10.578125,-13.203125,3.90625
43,43,1728003822366,-0.30566406,-0.8689575,-0.06451416,3.109375,-7.921875,3.265625
44,44,1728003822406,-0.33618164,-0.9260864,-0.10479736,8.96875,-4.875,1.015625
45,45,1728003822446,-0.27661133,-1.0496216,-0.16070557,6.984375,5.109375,4.28125
46,46,1728003822486,-0.20947266,-1.0462036,-0.17584229,9.78125,7.96875,8.0
47,47,1728003822526,-0.34301758,-0.8711548,-0.13287354,14.921875,17.46875,6.34375
48,48,1728003822566,-0.47607422,-0.7737427,-0.16900635,13.75,26.0,10.46875
49,49,1728003822606,-0.49926758,-0.86920166,-0.26324463,-1.421875,28.671875,1.875
50,50,1728003822646,-0.47680664,-1.1074829,-0.26983643,-8.375,24.015625,-8.15625
51,51,1728003822686,-0.4519043,-1.1694946,-0.19244385,1.515625,29.25,-6.375
52,52,1728003822726,-0.34643555,-1.1152954,-0.14141846,10.671875,14.015625,-4.53125
53,53,1728003822766,-0.44970703,-0.93341064,-0.117248535,-0.328125,18.234375,-5.875
54,54,1728003822806,-0.45483398,-0.80133057,-0.18389893,0.046875,19.703125,-8.125
55,55,1728003822846,-0.3227539,-0.7698364,-0.23248291,0.6875,11.375,-5.9375
56,56,1728003822886,-0.29467773,-0.815979,-0.20391846,-2.578125,9.9375,-3.765625
57,57,1728003822926,-0.3388672,-0.9273071,-0.15582275,-3.125,6.546875,-4.1875
58,58,1728003822966,-0.41186523,-0.9656372,-0.13140869,-9.296875,5.015625,-1.125
59,59,1728003823006,-0.52197266,-0.94000244,-0.10748291,-4.0625,4.171875,3.078125
60,60,1728003823046,-0.5275879,-0.8689575,-0.12017822,0.828125,3.546875,4.15625
61,61,1728003823086,-0.38842773,-0.8389282,-0.17340088,-1.9375,4.984375,4.046875
62,62,1728003823126,-0.36450195,-0.8411255,-0.1716919,-1.703125,6.5625,7.296875
63,63,1728003823166,-0.47558594,-0.8423462,-0.17584229,1.4375,12.125,10.421875
64,64,1728003823206,-0.5319824,-0.8599243,-0.18634033,5.171875,16.609375,9.265625
65,65,1728003823246,-0.41796875,-0.91119385,-0.18682861,7.046875,17.640625,7.703125
66,66,1728003823286,-0.2866211,-0.9495239,-0.18048096,6.640625,12.953125,8.734375
67,67,1728003823326,-0.18774414,-0.99102783,-0.15704346,9.265625,6.578125,14.359375
68,68,1728003823366,-0.20117188,-1.0059204,-0.062316895,13.359375,3.71875,17.796875
69,69,1728003823406,-0.26586914,-0.9607544,-0.013244629,9.234375,2.546875,16.84375
70,70,1728003823446,-0.35791016,-0.90826416,-0.03668213,0.515625,5.078125,13.46875
71,71,1728003823486,-0.28271484,-0.944397,-0.15167236,1.0,4.140625,8.75
72,72,1728003823526,-0.099121094,-1.0879517,-0.05596924,9.53125,0.65625,8.953125
73,73,1728003823566,-0.014892578,-1.2080688,0.07513428,3.21875,-4.609375,11.03125
74,74,1728003823606,-0.111572266,-1.1629028,0.08270264,-9.75,-3.921875,11.375
75,75,1728003823646,-0.2434082,-0.99664307,0.026794434,-13.265625,-5.71875,9.625
76,76,1728003823686,-0.2626953,-0.894104,0.015563965,-4.5,-4.25,5.546875
77,77,1728003823726,-0.2019043,-0.8948364,0.034851074,-2.796875,3.578125,4.6875
78,78,1728003823766,-0.12817383,-0.89849854,0.01751709,-2.625,6.4375,4.625
79,79,1728003823806,-0.13134766,-0.91070557,0.028015137,2.359375,4.984375,2.5625
80,80,1728003823846,-0.12988281,-0.8850708,-0.019104004,3.921875,4.46875,2.6875
81,81,1728003823886,-0.12646484,-0.8677368,-0.02130127,13.46875,7.734375,5.59375
82,82,1728003823926,-0.17651367,-0.8364868,-0.06939697,7.546875,10.375,6.765625
83,83,1728003823966,-0.122802734,-0.9077759,-0.081604004,18.375,9.375,7.4375
84,84,1728003824006,-0.075683594,-0.86968994,-0.109191895,17.65625,9.125,7.484375
85,85,1728003824046,0.010986328,-0.8377075,-0.16607666,15.8125,5.921875,10.921875
86,86,1728003824086,0.026611328,-0.9092407,-0.20977783,13.625,0.484375,17.484375
87,87,1728003824126,-0.033691406,-0.909729,-0.1675415,22.921875,0.953125,15.5
88,88,1728003824166,-0.080078125,-0.8442993,-0.20953369,16.4375,-3.078125,17.71875
89,89,1728003824206,0.030761719,-0.85772705,-0.27886963,12.265625,-4.109375,21.3125
90,90,1728003824246,-0.0017089844,-0.87286377,-0.25860596,18.703125,0.578125,20.390625
91,91,1728003824286,-0.049560547,-0.87384033,-0.27105713,21.34375,2.328125,18.421875
92,92,1728003824326,0.049804688,-0.8545532,-0.28863525,20.046875,-6.625,17.046875
93,93,1728003824366,0.09667969,-0.8032837,-0.28009033,18.5625,0.9375,20.09375
94,94,1728003824406,0.07470703,-0.7815552,-0.34283447,14.921875,-2.375,16.25
95,95,1728003824446,0.11035156,-0.84991455,-0.40289307,5.796875,-5.359375,11.78125
96,96,1728003824486,0.13720703,-0.8765259,-0.35699463,11.953125,-1.40625,10.46875
97,97,1728003824526,0.06762695,-0.9072876,-0.3977661,10.421875,-5.375,4.65625
98,98,1728003824566,0.07299805,-0.8989868,-0.40679932,8.8125,-1.5,-6.65625
99,99,1728003824606,0.075927734,-0.8665161,-0.4590454,8.3125,2.28125,-2.109375
100,100,1728003824646,0.15942383,-0.86138916,-0.46124268,-1.78125,6.1875,-1.671875
101,101,1728003824686,0.1550293,-0.9468384,-0.4812622,-9.546875,5.140625,-3.453125
102,102,1728003824726,0.09863281,-0.9663696,-0.53741455,-6.125,6.296875,-5.4375
103,103,1728003824766,0.08666992,-0.9741821,-0.49005127,-2.4375,7.03125,-9.21875
104,104,1728003824806,0.07910156,-1.0474243,-0.472229,-5.0625,4.578125,-7.890625
105,105,1728003824846,0.16821289,-0.9998169,-0.5315552,-7.171875,5.5625,-3.671875
106,106,1728003824886,0.12036133,-0.97003174,-0.4204712,2.984375,2.734375,-4.390625
107,107,1728003824926,-0.019042969,-0.9788208,-0.47906494,-11.921875,4.1875,-4.4375
108,108,1728003824966,0.021972656,-0.97540283,-0.48565674,-11.984375,6.171875,-7.125
109,109,1728003825006,0.10595703,-0.9841919,-0.3850708,-4.625,4.703125,-6.34375
110,110,1728003825046,0.07128906,-0.95806885,-0.4368286,-18.34375,5.84375,-1.78125
111,111,1728003825086,0.056396484,-0.9360962,-0.46270752,-14.9375,5.828125,-1.515625
112,112,1728003825126,0.103515625,-1.0020142,-0.4180298,-0.40625,1.515625,0.734375
113,113,1728003825166,0.0690918,-1.0176392,-0.38433838,-7.625,2.015625,0.390625
114,114,1728003825206,-0.011474609,-0.9541626,-0.38482666,-0.890625,1.390625,-2.953125
115,115,1728003825246,-0.037597656,-1.048645,-0.39019775,0.09375,0.765625,-4.796875
116,116,1728003825286,0.0024414062,-0.9961548,-0.38604736,-2.03125,3.96875,-3.890625
117,117,1728003825326,0.0146484375,-0.96588135,-0.34942627,1.015625,3.421875,-1.828125
118,118,1728003825366,0.011230469,-0.97369385,-0.32354736,-3.109375,4.125,-3.40625
119,119,1728003825406,-0.036132812,-0.94073486,-0.35284424,-1.875,4.078125,-6.484375
120,120,1728003825446,-0.052246094,-0.9451294,-0.3633423,-3.53125,4.578125,-1.125
121,121,1728003825486,-0.001953125,-0.913147,-0.3345337,-1.75,4.34375,3.46875
122,122,1728003825526,0.027832031,-0.9429321,-0.32989502,-2.65625,3.71875,7.296875
123,123,1728003825566,0.039794922,-0.9158325,-0.30181885,-2.21875,1.609375,8.25
124,124,1728003825606,0.017578125,-0.93536377,-0.3123169,-1.375,-0.328125,1.75
125,125,1728003825646,-0.0024414062,-0.9573364,-0.331604,-1.984375,1.671875,0.59375
126,126,1728003825686,-0.0021972656,-0.93829346,-0.30889893,-1.5625,-0.59375,-0.1875
127,127,1728003825726,-0.0068359375,-0.9351196,-0.3201294,3.265625,-1.828125,-3.265625
128,128,1728003825766,-0.03857422,-0.9307251,-0.34405518,6.03125,-0.375,-2.71875
129,129,1728003825806,-0.02758789,-0.92510986,-0.31134033,-0.625,3.140625,-1.09375
130,130,1728003825846,0.025390625,-0.956604,-0.33062744,-0.15625,4.78125,0.8125
131,131,1728003825886,0.028808594,-1.0198364,-0.41827393,-7.5625,5.125,0.125
132,132,1728003825926,0.03100586,-1.1572876,-0.42022705,-2.5625,2.578125,5.484375
133,133,1728003825966,0.037597656,-1.2092896,-0.46051025,-1.109375,4.1875,9.46875
134,134,1728003826006,0.053710938,-1.210022,-0.517395,12.40625,5.21875,12.5625
135,135,1728003826046,0.072021484,-1.1218872,-0.5215454,23.171875,-0.34375,13.015625
136,136,1728003826086,0.078125,-1.0696411,-0.5054321,28.40625,-2.9375,12.0
137,137,1728003826126,0.123535156,-1.0247192,-0.48712158,28.359375,-2.109375,10.21875
138,138,1728003826166,0.10522461,-0.96954346,-0.52227783,24.125,-3.359375,6.203125
139,139,1728003826206,0.072265625,-1.0193481,-0.5432739,7.671875,-5.5,2.0
140,140,1728003826246,0.09399414,-1.006897,-0.5132446,4.59375,-0.375,1.046875
141,141,1728003826286,0.1171875,-0.9690552,-0.44610596,7.171875,-1.1875,0.484375
142,142,1728003826326,0.071777344,-0.87750244,-0.47174072,-4.84375,-0.640625,-2.125
143,143,1728003826366,0.041503906,-0.81329346,-0.4837036,-8.28125,0.296875,-6.46875
144,144,1728003826406,-0.014160156,-0.7827759,-0.50982666,-14.859375,2.296875,-10.359375
145,145,1728003826446,0.09887695,-0.9072876,-0.42437744,-7.90625,3.46875,-8.484375
146,146,1728003826486,0.111816406,-0.9380493,-0.3838501,-15.4375,2.078125,-10.828125
147,147,1728003826526,0.04345703,-0.90093994,-0.4204712,-10.515625,-1.65625,-11.65625
148,148,1728003826566,-0.0043945312,-0.850647,-0.40582275,-3.296875,-6.859375,-10.921875
149,149,1728003826606,-0.014160156,-0.7608032,-0.35406494,-5.671875,-6.0625,-13.578125
150,150,1728003826646,0.028076172,-0.6555786,-0.3484497,-8.71875,-13.4375,-15.5
151,151,1728003826686,-0.018798828,-0.6248169,-0.24615479,-14.6875,-7.0,-19.125
152,152,1728003826726,-0.08691406,-0.553772,-0.25787354,-21.375,-4.953125,-25.53125
153,153,1728003826766,-0.0715332,-0.5420532,-0.30133057,-20.8125,-7.65625,-26.0625
154,154,1728003826806,-0.055664062,-0.5733032,-0.27301025,-25.109375,-9.078125,-24.203125
155,155,1728003826846,0.0075683594,-0.74713135,-0.3731079,-22.453125,-20.21875,-16.0625
156,156,1728003826886,0.16308594,-1.0784302,-0.40997314,-24.5625,-36.078125,-4.3125
157,157,1728003826926,0.17602539,-1.1189575,-0.3106079,-38.71875,-49.6875,-3.21875
158,158,1728003826966,-0.123046875,-0.9546509,-0.36090088,-36.46875,-58.1875,-10.671875
159,159,1728003827006,-0.39013672,-0.79278564,-0.23760986,-22.890625,-49.375,-10.546875
160,160,1728003827046,-0.21362305,-0.89678955,0.030944824,-5.875,-22.96875,-15.25
161,161,1728003827086,0.079589844,-1.0513306,0.03338623,-21.8125,-28.828125,-22.546875
162,162,1728003827126,0.05883789,-1.1409302,-0.1104126,-17.828125,-50.21875,-18.0625
163,163,1728003827166,-0.028808594,-0.96759033,-0.026916504,-17.75,-50.140625,-5.984375
164,164,1728003827206,-0.13867188,-0.86505127,-0.0044555664,-19.96875,-51.765625,-14.46875
165,165,1728003827246,-0.18530273,-0.9404907,-0.0017700195,-18.625,-58.546875,-23.3125
166,166,1728003827286,-0.14672852,-1.029602,0.09954834,-13.125,-54.515625,-19.96875
167,167,1728003827326,-0.11303711,-0.84332275,-0.018859863,-17.421875,-53.71875,-18.3125
168,168,1728003827366,-0.14257812,-0.9475708,-0.016906738,-18.046875,-56.390625,-11.21875
169,169,1728003827406,-0.12597656,-1.0020142,0.0004272461,-20.734375,-56.578125,-9.703125
170,170,1728003827446,-0.32861328,-0.9678345,0.055358887,-21.21875,-51.703125,-7.8125
171,171,1728003827486,-0.50390625,-0.8977661,0.0036010742,-19.171875,-52.671875,-12.203125
172,172,1728003827526,-0.41845703,-0.89190674,0.09832764,-11.046875,-41.21875,-12.453125
173,173,1728003827566,-0.35302734,-0.92193604,0.11907959,-10.46875,-33.90625,-11.765625
174,174,1728003827606,-0.3713379,-0.9192505,0.15130615,-10.109375,-31.9375,-10.765625
175,175,1728003827646,-0.23583984,-1.0281372,0.028503418,-15.3125,-32.015625,-9.1875
176,176,1728003827686,-0.06689453,-1.1550903,0.21575928,-19.21875,-33.421875,-4.765625
177,177,1728003827726,-0.22045898,-1.0159302,-0.04058838,-25.359375,-47.109375,-3.765625
178,178,1728003827766,-0.35864258,-0.835022,-0.08380127,-21.140625,-49.0625,-11.890625
179,179,1728003827806,-0.32202148,-0.7944946,-0.1182251,-18.375,-47.234375,-12.125
180,180,1728003827846,-0.33691406,-0.92633057,-0.14678955,-15.71875,-44.203125,-3.703125
181,181,1728003827886,-0.4128418,-1.072815,-0.13482666,-11.1875,-50.1875,1.25
182,182,1728003827926,-0.41064453,-0.93927,-0.018859863,-7.109375,-47.375,-2.765625
183,183,1728003827966,-0.4321289,-0.8496704,-0.02178955,-10.546875,-45.34375,-4.640625
184,184,1728003828006,-0.43359375,-0.84503174,-0.032043457,-10.96875,-44.28125,-4.734375
185,185,1728003828046,-0.43554688,-0.940979,-0.06378174,-8.78125,-45.9375,-0.5
186,186,1728003828086,-0.3244629,-0.9817505,-0.04840088,-11.546875,-52.390625,-0.453125
187,187,1728003828126,-0.3503418,-0.9649048,-0.03643799,-13.890625,-49.3125,-1.203125
188,188,1728003828166,-0.4243164,-0.86065674,-0.09039307,-9.78125,-48.5625,1.5625
189,189,1728003828206,-0.53759766,-0.8074341,-0.15142822,-9.25,-46.59375,0.3125
190,190,1728003828246,-0.50512695,-0.85357666,-0.10064697,3.734375,-48.5625,-1.625
191,191,1728003828286,-0.49682617,-0.880188,-0.06524658,-0.078125,-39.828125,-0.46875
192,192,1728003828326,-0.44848633,-0.8987427,-0.085754395,-2.828125,-40.1875,-3.890625
193,193,1728003828366,-0.38354492,-0.97906494,-0.13214111,-9.84375,-39.0,-6.015625
194,194,1728003828406,-0.37182617,-0.96661377,-0.20391846,-13.203125,-39.625,-6.75
195,195,1728003828446,-0.49169922,-0.91412354,-0.21661377,-16.78125,-42.15625,-6.203125
196,196,1728003828486,-0.2133789,-1.0054321,-0.13116455,2.03125,-42.28125,-0.828125
197,197,1728003828526,0.013916016,-1.1902466,-0.0791626,-2.53125,-55.90625,6.28125
198,198,1728003828566,-0.10668945,-1.1211548,-0.14068604,-23.078125,-66.34375,-1.375
199,199,1728003828606,-0.25927734,-0.9053345,-0.19122314,-20.65625,-66.671875,2.515625
200,200,1728003828646,-0.13769531,-0.7954712,-0.17022705,-14.203125,-66.234375,-3.71875
201,201,1728003828686,-0.12036133,-0.92559814,-0.120666504,-18.796875,-63.375,-9.9375
202,202,1728003828726,-0.16577148,-1.1582642,-0.13995361,-23.953125,-68.078125,-9.953125
203,203,1728003828766,-0.16552734,-1.1148071,-0.19854736,-26.609375,-71.203125,-6.265625
204,204,1728003828806,-0.17602539,-0.94854736,-0.13677979,-17.03125,-71.890625,-6.21875
205,205,1728003828846,-0.18383789,-0.9011841,-0.15753174,-22.796875,-73.875,-16.265625
206,206,1728003828886,-0.23095703,-0.84820557,-0.20904541,-22.859375,-77.21875,-18.3125
207,207,1728003828926,-0.33764648,-0.8880005,-0.19781494,-21.8125,-69.578125,-15.21875
208,208,1728003828966,-0.25708008,-0.90631104,-0.12554932,-15.125,-68.0,-17.734375
209,209,1728003829006,-0.17089844,-1.0457153,-0.12872314,-25.5625,-65.75,-11.078125
210,210,1728003829046,-0.17822266,-1.0025024,-0.17633057,-27.921875,-66.5625,-10.953125
211,211,1728003829086,-0.24194336,-0.9380493,-0.1350708,-19.859375,-67.0625,-12.453125
212,212,1728003829126,-0.24438477,-0.8731079,-0.10333252,-20.140625,-65.234375,-14.359375
213,213,1728003829166,-0.27172852,-0.84381104,-0.121154785,-21.609375,-72.890625,-16.125
214,214,1728003829206,-0.3527832,-0.94366455,-0.10723877,-22.125,-70.59375,-17.71875
215,215,1728003829246,-0.34228516,-0.98516846,-0.1638794,-19.578125,-67.453125,-19.046875
216,216,1728003829286,-0.37475586,-0.9500122,-0.1038208,-17.21875,-45.546875,-15.296875
217,217,1728003829326,-0.19604492,-0.86968994,-0.10479736,-25.953125,-42.828125,-13.9375
218,218,1728003829366,-0.34399414,-0.97735596,-0.20269775,-30.75,-59.484375,-10.65625
219,219,1728003829406,-0.5510254,-1.0906372,-0.18927002,-25.3125,-69.578125,-14.296875
220,220,1728003829446,-0.6105957,-0.9434204,-0.18243408,-23.53125,-60.875,-17.703125
221,221,1728003829486,-0.5605469,-0.8460083,-0.21148682,-22.5,-42.609375,-17.5625
222,222,1728003829526,-0.46191406,-0.7510376,-0.20928955,-15.84375,-40.546875,-23.84375
223,223,1728003829566,-0.3173828,-0.7312622,-0.22003174,-10.296875,-43.359375,-10.875
224,224,1728003829606,-0.33740234,-0.83843994,-0.15875244,-13.734375,-48.921875,-2.6875
225,225,1728003829646,-0.45166016,-0.93048096,-0.15264893,-21.875,-54.984375,2.578125
226,226,1728003829686,-0.5722656,-0.9414673,-0.15289307,-21.71875,-57.671875,2.96875
227,227,1728003829726,-0.57910156,-0.9573364,-0.15093994,-14.921875,-50.78125,2.5
228,228,1728003829766,-0.48364258,-0.8994751,-0.1375122,-12.734375,-44.828125,4.6875
229,229,1728003829806,-0.48706055,-0.8272095,-0.17437744,-11.625,-44.484375,3.21875
230,230,1728003829846,-0.517334,-0.78741455,-0.16705322,-12.640625,-45.09375,2.3125
231,231,1728003829886,-0.4814453,-0.8550415,-0.21173096,-13.625,-44.953125,-2.359375
232,232,1728003829926,-0.44458008,-0.9570923,-0.2300415,-11.640625,-44.375,-3.5
233,233,1728003829966,-0.4387207,-0.9451294,-0.24493408,-12.65625,-43.25,0.328125
234,234,1728003830006,-0.5275879,-0.87457275,-0.24835205,-10.8125,-39.3125,-2.5625
235,235,1728003830046,-0.71655273,-0.8887329,-0.14801025,-18.796875,-25.046875,-7.96875
236,236,1728003830086,-0.36035156,-1.0227661,-0.058410645,-3.09375,-13.703125,-4.546875
237,237,1728003830126,-0.15063477,-1.003479,-0.03717041,-6.375,-22.15625,-0.5625
238,238,1728003830166,-0.16796875,-0.88848877,-0.1404419,-11.59375,-24.34375,1.859375
239,239,1728003830206,-0.24291992,-0.87945557,-0.17462158,-10.15625,-24.40625,3.109375
240,240,1728003830246,-0.19995117,-1.0025024,-0.17803955,-0.09375,-27.875,6.21875
241,241,1728003830286,-0.18066406,-1.1377563,0.045837402,-0.84375,-29.03125,9.921875
242,242,1728003830326,-0.2849121,-1.0361938,0.06048584,-12.171875,-23.046875,9.765625
243,243,1728003830366,-0.34277344,-0.8543091,-0.070373535,-17.875,-17.953125,2.125
244,244,1728003830406,-0.1875,-0.93585205,-0.0647583,-2.65625,-20.46875,-6.5625
245,245,1728003830446,-0.12768555,-1.0542603,0.074157715,1.859375,-13.9375,4.78125
246,246,1728003830486,-0.24438477,-0.8921509,0.035339355,-7.84375,-13.46875,7.078125
247,247,1728003830526,-0.30664062,-0.77301025,-0.08917236,-3.734375,-13.53125,-0.140625
248,248,1728003830566,-0.3112793,-0.89630127,-0.018127441,6.0,-10.453125,-1.484375
249,249,1728003830606,-0.26367188,-0.99298096,-0.0064086914,8.65625,1.484375,2.828125
250,250,1728003830646,-0.22216797,-0.87384033,-0.051574707,2.203125,10.6875,-0.296875
251,251,1728003830686,-0.010253906,-1.1138306,-0.25250244,4.25,-4.140625,2.265625
252,252,1728003830726,-0.004638672,-1.1221313,-0.14801025,14.28125,-10.8125,15.984375
253,253,1728003830766,-0.22753906,-0.83477783,-0.18218994,14.84375,-11.03125,23.28125
254,254,1728003830806,-0.17749023,-0.65704346,-0.21026611,23.78125,-12.828125,23.875
255,255,1728003830846,0.030761719,-0.86505127,-0.20758057,16.1875,-16.890625,24.125
256,256,1728003830886,0.06274414,-1.1087036,-0.16119385,11.859375,-18.96875,28.703125
257,257,1728003830926,0.016601562,-1.0203247,-0.26617432,4.484375,-21.328125,30.953125
258,258,1728003830966,0.061767578,-0.82476807,-0.35040283,8.390625,-22.5,33.5625
259,259,1728003831006,0.03955078,-0.8616333,-0.27301025,13.609375,-22.53125,37.171875
260,260,1728003831046,0.068847656,-0.96832275,-0.22393799,18.0,-16.78125,39.578125
261,261,1728003831086,0.06518555,-0.8911743,-0.30377197,13.765625,-17.515625,40.15625
262,262,1728003831126,0.17919922,-0.8008423,-0.3735962,8.0625,-18.8125,41.984375
263,263,1728003831166,0.32128906,-0.7300415,-0.27911377,18.4375,-3.703125,44.921875
264,264,1728003831206,0.38452148,-0.78448486,-0.38043213,7.296875,-12.578125,44.609375
265,265,1728003831246,0.39282227,-0.9014282,-0.32647705,11.828125,-10.234375,45.96875
266,266,1728003831286,0.4182129,-0.8530884,-0.23956299,11.65625,-4.0625,44.171875
267,267,1728003831326,0.58081055,-0.78741455,-0.3814087,1.203125,-12.8125,36.875
268,268,1728003831366,0.65185547,-0.8255005,-0.36724854,10.09375,-16.1875,40.03125
269,269,1728003831406,0.54956055,-0.71588135,-0.25152588,20.34375,-6.375,44.546875
270,270,1728003831446,0.43603516,-0.51641846,-0.37408447,1.9375,-7.265625,32.546875
271,271,1728003831486,0.64208984,-0.65289307,-0.37042236,-2.6875,-11.265625,23.421875
272,272,1728003831526,0.8117676,-0.6868286,-0.31988525,-4.828125,-7.640625,37.015625
273,273,1728003831566,0.80981445,-0.4902954,-0.317688,1.484375,-5.625,43.484375
274,274,1728003831606,0.76416016,-0.44024658,-0.27178955,-1.359375,-6.8125,30.21875
275,275,1728003831646,0.7687988,-0.4446411,-0.3460083,-9.078125,-6.875,29.671875
276,276,1728003831686,0.92993164,-0.45074463,-0.30377197,-4.84375,-7.25,33.15625
277,277,1728003831726,0.92456055,-0.42218018,-0.30255127,3.65625,-4.78125,30.71875
278,278,1728003831766,0.88378906,-0.38848877,-0.31744385,-1.75,-1.5,23.25
279,279,1728003831806,1.0532227,-0.39215088,-0.3381958,-6.5,-5.109375,22.703125
280,280,1728003831846,1.029541,-0.28424072,-0.36065674,8.328125,0.96875,19.8125
281,281,1728003831886,0.8666992,-0.33599854,-0.29644775,-4.96875,1.96875,0.890625
282,282,1728003831926,1.0683594,-0.36749268,-0.4006958,-10.0625,-2.1875,-4.125
283,283,1728003831966,1.0732422,-0.3555298,-0.33087158,2.34375,4.734375,-4.234375
284,284,1728003832006,0.9746094,-0.32598877,-0.3418579,-4.140625,2.875,-15.234375
285,285,1728003832046,0.97021484,-0.37701416,-0.3352661,-5.96875,5.921875,-24.40625
286,286,1728003832086,0.9108887,-0.42193604,-0.3267212,2.0,10.71875,-24.03125
287,287,1728003832126,0.8967285,-0.43023682,-0.35992432,-3.734375,11.4375,-28.765625
288,288,1728003832166,0.8552246,-0.49298096,-0.3899536,-5.90625,19.3125,-32.25
289,289,1728003832206,0.8029785,-0.50616455,-0.40826416,2.90625,22.15625,-35.53125
290,290,1728003832246,0.7548828,-0.60235596,-0.40533447,1.359375,19.9375,-41.171875
291,291,1728003832286,0.7480469,-0.65338135,-0.4085083,-2.921875,20.1875,-44.328125
292,292,1728003832326,0.6569824,-0.68951416,-0.4180298,-6.234375,17.40625,-43.359375
293,293,1728003832366,0.6213379,-0.69195557,-0.42559814,-10.125,13.78125,-44.3125
294,294,1728003832406,0.5202637,-0.72979736,-0.42803955,-9.046875,12.328125,-45.296875
295,295,1728003832446,0.46875,-0.74835205,-0.43389893,-15.34375,9.9375,-49.75
296,296,1728003832486,0.4086914,-0.75250244,-0.40020752,-11.953125,12.375,-48.484375
297,297,1728003832526,0.3383789,-0.7918091,-0.409729,-8.25,12.6875,-48.3125
298,298,1728003832566,0.2355957,-0.78131104,-0.42071533,-14.5,13.625,-47.828125
299,299,1728003832606,0.21191406,-0.77056885,-0.33795166,-14.390625,13.671875,-46.875
300,300,1728003832646,0.12841797,-0.8189087,-0.35772705,-17.96875,11.828125,-44.4375
301,301,1728003832686,0.09057617,-0.90411377,-0.3320923,-28.484375,15.34375,-46.875
302,302,1728003832726,0.07006836,-0.92852783,-0.26861572,-23.765625,13.984375,-47.4375
303,303,1728003832766,0.0026855469,-0.88946533,-0.26568604,-22.4375,8.765625,-44.96875
304,304,1728003832806,-0.0126953125,-0.8442993,-0.22662354,-17.6875,8.0,-42.671875
305,305,1728003832846,-0.05493164,-0.84039307,-0.19195557,-21.703125,7.5625,-41.65625
306,306,1728003832886,-0.083984375,-0.85357666,-0.14874268,-21.796875,6.234375,-38.1875
307,307,1728003832926,-0.18066406,-0.8845825,-0.1272583,-23.421875,2.828125,-31.28125
308,308,1728003832966,-0.22705078,-0.90045166,-0.08258057,-19.921875,1.703125,-30.875
309,309,1728003833006,-0.24243164,-0.90338135,-0.020568848,-16.125,1.359375,-30.234375
310,310,1728003833046,-0.3232422,-0.9194946,-0.016906738,-15.84375,0.421875,-22.828125
311,311,1728003833086,-0.34716797,-0.9793091,-0.016174316,-14.5,-1.3125,-15.03125
312,312,1728003833126,-0.32958984,-0.9446411,0.041931152,-9.578125,-0.890625,-12.171875
313,313,1728003833166,-0.41748047,-0.84747314,0.036315918,-10.8125,-4.203125,-8.71875
314,314,1728003833206,-0.44702148,-0.79107666,0.008483887,-3.46875,-5.84375,-5.515625
315,315,1728003833246,-0.46020508,-0.81085205,0.039001465,3.96875,-1.15625,-0.84375
316,316,1728003833286,-0.4230957,-0.8423462,0.019470215,4.015625,-0.90625,1.640625
317,317,1728003833326,-0.5073242,-0.88409424,0.007019043,1.25,-0.8125,2.234375
318,318,1728003833366,-0.578125,-0.87823486,0.047790527,6.0625,2.859375,-0.6875
319,319,1728003833406,-0.58325195,-0.81329346,0.014831543,8.6875,7.78125,-3.109375
320,320,1728003833446,-0.5637207,-0.76934814,-0.008361816,12.84375,14.421875,-8.21875
321,321,1728003833486,-0.54907227,-0.8284302,-0.12921143,11.203125,18.8125,-12.203125
322,322,1728003833526,-0.2993164,-1.190979,-0.15338135,18.921875,14.484375,-4.25
323,323,1728003833566,-0.22460938,-1.1170044,-0.11407471,15.796875,14.390625,9.546875
324,324,1728003833606,-0.26342773,-1.0127563,-0.25543213,3.5,1.0625,-4.421875
325,325,1728003833646,-0.4267578,-0.9553833,-0.1260376,10.078125,-3.640625,-4.640625
326,326,1728003833686,-0.58251953,-0.8418579,-0.1951294,5.625,1.3125,1.53125
327,327,1728003833726,-0.32104492,-0.79571533,-0.32989502,3.625,-2.390625,-6.3125
328,328,1728003833766,-0.27001953,-0.89385986,-0.21148682,4.03125,-12.140625,-5.0
329,329,1728003833806,-0.40722656,-0.9026489,-0.17193604,-3.765625,-15.859375,-4.234375
330,330,1728003833846,-0.5319824,-0.86505127,-0.2468872,-5.21875,-14.859375,-4.390625
331,331,1728003833886,-0.46875,-0.81573486,-0.24151611,-1.359375,-19.484375,1.171875
332,332,1728003833926,-0.43066406,-0.83306885,-0.25933838,-5.34375,-21.0625,2.0625
333,333,1728003833966,-0.4296875,-0.87457275,-0.2901001,-9.234375,-25.765625,2.015625
334,334,1728003834006,-0.4177246,-0.8897095,-0.3106079,-13.59375,-29.6875,5.015625
335,335,1728003834046,-0.39746094,-0.8513794,-0.34405518,-14.203125,-36.296875,5.171875
336,336,1728003834086,-0.40551758,-0.82232666,-0.38653564,-12.875,-40.421875,3.09375
337,337,1728003834126,-0.46142578,-0.7871704,-0.40093994,-14.671875,-37.125,1.765625
338,338,1728003834166,-0.36914062,-0.767395,-0.37554932,-14.671875,-38.1875,-3.078125
339,339,1728003834206,-0.31225586,-0.8740845,-0.4192505,-16.734375,-49.109375,-2.8125
340,340,1728003834246,-0.1875,-1.0039673,-0.36871338,-11.421875,-47.75,6.375
341,341,1728003834286,-0.03100586,-1.0877075,-0.1687622,-3.6875,-51.734375,14.484375
342,342,1728003834326,-0.2133789,-1.1419067,-0.2029419,-21.78125,-60.546875,10.875
343,343,1728003834366,-0.40234375,-1.1607056,-0.18292236,-19.90625,-51.0,6.28125
344,344,1728003834406,-0.18823242,-0.9673462,-0.1182251,-4.84375,-44.09375,-0.90625
345,345,1728003834446,-0.06518555,-0.909729,-0.013977051,1.453125,-41.578125,-4.640625
346,346,1728003834486,-0.16333008,-0.98028564,0.020935059,-17.734375,-37.671875,-2.984375
347,347,1728003834526,-0.2565918,-0.9961548,-0.08111572,-21.265625,-32.828125,-4.078125
348,348,1728003834566,-0.19873047,-0.89801025,-0.14581299,-6.515625,-36.15625,-10.234375
349,349,1728003834606,-0.013183594,-0.8713989,-0.12506104,-3.359375,-32.34375,-7.0625
350,350,1728003834646,0.03491211,-0.9714966,-0.109191895,-8.484375,-28.71875,-1.03125
351,351,1728003834686,-0.068847656,-0.9824829,-0.15557861,-9.125,-34.796875,-4.78125
352,352,1728003834726,-0.14819336,-0.94537354,-0.13433838,-3.84375,-36.125,-4.90625
353,353,1728003834766,-0.095458984,-0.8982544,-0.1494751,-0.328125,-27.8125,0.140625
354,354,1728003834806,-0.0078125,-0.8945923,-0.18365479,-2.359375,-21.421875,2.234375
355,355,1728003834846,-0.027832031,-0.94610596,-0.18658447,2.96875,-19.359375,1.75
356,356,1728003834886,-0.05493164,-0.94000244,-0.17462158,5.265625,-17.046875,-1.828125
357,357,1728003834926,-0.091796875,-0.972229,-0.21490479,7.5625,-12.609375,-0.8125
358,358,1728003834966,-0.091308594,-0.97613525,-0.2937622,8.390625,-7.9375,3.828125
359,359,1728003835006,-0.20483398,-1.1384888,-0.27423096,11.484375,-5.484375,9.3125
360,360,1728003835046,-0.2265625,-1.0090942,-0.1807251,19.21875,-11.59375,2.734375
361,361,1728003835086,-0.29882812,-0.8340454,-0.21148682,18.40625,-3.90625,1.453125
362,362,1728003835126,-0.15820312,-0.8008423,-0.35699463,12.21875,-15.75,1.234375
363,363,1728003835166,-0.07348633,-0.91485596,-0.3369751,12.546875,-20.953125,15.5
364,364,1728003835206,-0.049804688,-0.8569946,-0.35992432,9.484375,-25.4375,14.046875
365,365,1728003835246,-0.076660156,-0.8279419,-0.3970337,13.796875,-33.4375,11.359375
366,366,1728003835286,-0.11743164,-0.8340454,-0.42193604,22.5,-29.390625,18.59375
367,367,1728003835326,-0.05126953,-0.8880005,-0.38287354,32.171875,-34.796875,23.21875
368,368,1728003835366,0.064941406,-0.88360596,-0.38702393,14.109375,-28.28125,25.421875
369,369,1728003835406,-0.00390625,-0.71710205,-0.534729,10.859375,-31.578125,18.234375
370,370,1728003835446,-0.0068359375,-0.8218384,-0.36114502,17.921875,0.46875,17.359375
371,371,1728003835486,0.21362305,-0.91485596,-0.44683838,7.265625,-17.71875,14.234375
372,372,1728003835526,0.25,-1.0552368,-0.38311768,-5.671875,-13.6875,9.640625
373,373,1728003835566,0.080566406,-0.7925415,-0.43658447,-4.484375,3.25,-0.59375
374,374,1728003835606,0.06616211,-0.73321533,-0.458313,13.828125,-9.03125,-1.390625
375,375,1728003835646,0.111572266,-0.8772583,-0.30645752,-3.71875,4.140625,-6.984375
376,376,1728003835686,0.21118164,-0.8491821,-0.2786255,-15.234375,17.5625,-12.65625
377,377,1728003835726,0.23510742,-0.8291626,-0.5327759,-4.0,1.1875,-15.90625
378,378,1728003835766,0.39404297,-1.0342407,-0.35943604,-4.421875,-4.171875,-4.375
379,379,1728003835806,0.328125,-0.94000244,-0.25836182,-14.046875,2.59375,-0.578125
380,380,1728003835846,0.12036133,-0.8074341,-0.44586182,-16.90625,1.390625,-7.8125
381,381,1728003835886,0.09667969,-0.86138916,-0.48443604,0.5,7.359375,-13.03125
382,382,1728003835926,0.2705078,-0.9312134,-0.34698486,7.546875,10.234375,-1.34375
383,383,1728003835966,0.3022461,-0.83599854,-0.41412354,-13.0,6.296875,1.015625
384,384,1728003836006,0.23388672,-0.90093994,-0.49102783,-11.171875,2.4375,-7.3125
385,385,1728003836046,0.27026367,-1.0349731,-0.522522,1.15625,-2.265625,-7.859375
386,386,1728003836086,0.2993164,-1.0188599,-0.4751587,1.875,-4.984375,-0.578125
387,387,1728003836126,0.27563477,-0.9692993,-0.47979736,-0.3125,-0.640625,-6.28125
388,388,1728003836166,0.21948242,-0.9126587,-0.40338135,5.40625,-5.40625,-11.328125
389,389,1728003836206,0.08203125,-0.73028564,-0.35894775,2.578125,-6.671875,-6.609375
390,390,1728003836246,-0.0012207031,-0.6699829,-0.41070557,-12.71875,-5.0625,-15.125
391,391,1728003836286,0.11376953,-0.8428345,-0.33673096,-2.59375,1.21875,-29.265625
392,392,1728003836326,0.111572266,-1.0737915,-0.315979,4.25,1.890625,-28.546875
393,393,1728003836366,0.0073242188,-1.0510864,-0.43878174,-22.84375,0.890625,-32.703125
394,394,1728003836406,-0.022705078,-1.0491333,-0.3604126,-6.21875,5.296875,-33.03125
395,395,1728003836446,-0.21875,-1.255188,-0.39971924,-12.09375,10.375,-19.3125
396,396,1728003836486,-0.2861328,-1.194397,-0.3484497,-25.96875,11.734375,-16.0
397,397,1728003836526,-0.13085938,-0.93634033,-0.20709229,-12.578125,11.453125,-22.109375
398,398,1728003836566,-0.11669922,-0.7210083,-0.19366455,-12.6875,8.828125,-23.484375
399,399,1728003836606,-0.21240234,-0.7234497,-0.22857666,-11.703125,1.984375,-16.46875
400,400,1728003836646,-0.3076172,-0.8821411,-0.23858643,-9.140625,2.34375,-13.484375
401,401,1728003836686,-0.20629883,-1.0703735,-0.2234497,-11.015625,0.0,-14.203125
402,402,1728003836726,-0.13696289,-1.1033325,-0.22662354,-6.6875,-0.359375,-15.578125
403,403,1728003836766,-0.2277832,-0.93463135,-0.2564087,-3.65625,-1.125,-17.5
404,404,1728003836806,-0.46801758,-0.76934814,-0.26885986,-12.984375,-3.5,-14.203125
405,405,1728003836846,-0.4404297,-0.82940674,-0.11627197,-4.390625,-5.09375,-11.171875
406,406,1728003836886,-0.32128906,-0.9163208,-0.078430176,-2.375,3.625,-4.5
407,407,1728003836926,-0.29736328,-0.8887329,-0.15460205,-2.234375,-0.1875,-2.125
408,408,1728003836966,-0.3408203,-0.9170532,-0.116760254,0.953125,1.53125,-0.34375
409,409,1728003837006,-0.4309082,-0.9517212,-0.12628174,-4.3125,3.125,1.703125
410,410,1728003837046,-0.44580078,-0.9248657,-0.1104126,-6.3125,5.4375,4.6875
411,411,1728003837086,-0.33862305,-0.942688,-0.124816895,-4.890625,8.703125,6.359375
412,412,1728003837126,-0.26708984,-0.9837036,-0.09161377,-5.765625,8.4375,7.09375
413,413,1728003837166,-0.32299805,-1.0005493,-0.12774658,-11.625,2.859375,4.0
414,414,1728003837206,-0.30688477,-0.9385376,-0.1194458,-9.078125,2.109375,1.078125
415,415,1728003837246,-0.35180664,-0.92681885,-0.113098145,-3.71875,1.203125,1.0
416,416,1728003837286,-0.29736328,-0.9585571,-0.113342285,-3.84375,3.8125,0.125
417,417,1728003837326,-0.20043945,-0.94537354,-0.11505127,-7.65625,7.765625,1.359375
418,418,1728003837366,-0.13793945,-0.944397,-0.14312744,-4.9375,5.578125,3.515625
419,419,1728003837406,-0.2265625,-1.00177,-0.10064697,-2.078125,0.5625,3.3125
420,420,1728003837446,-0.29003906,-0.9805298,-0.08013916,-3.53125,-0.390625,5.4375
421,421,1728003837486,-0.28344727,-0.95025635,-0.09649658,-1.4375,0.171875,5.8125
422,422,1728003837526,-0.26708984,-0.9771118,-0.050109863,-7.953125,0.78125,3.78125
423,423,1728003837566,-0.2631836,-0.9595337,-0.059387207,-10.65625,-0.25,-0.6875
424,424,1728003837606,-0.26879883,-0.97662354,-0.08721924,-10.984375,2.125,-3.484375
425,425,1728003837646,-0.24780273,-1.0132446,-0.043029785,-7.8125,0.3125,-2.28125
426,426,1728003837686,-0.25512695,-0.98931885,-0.047668457,-8.28125,-1.1875,0.546875
427,427,1728003837726,-0.23510742,-0.9168091,-0.049865723,-0.234375,-2.171875,1.46875
428,428,1728003837766,-0.2878418,-0.9368286,-0.0056762695,1.140625,-1.28125,1.234375
429,429,1728003837806,-0.29907227,-0.98516846,-0.004211426,-4.453125,1.140625,-1.3125
430,430,1728003837846,-0.27612305,-0.989563,-0.016662598,-3.71875,1.78125,-0.921875
431,431,1728003837886,-0.26782227,-0.9661255,-0.028137207,-2.375,1.359375,0.046875
432,432,1728003837926,-0.25634766,-0.9656372,-0.019836426,-0.484375,0.765625,0.890625
433,433,1728003837966,-0.26953125,-0.96417236,0.0004272461,2.390625,2.125,1.3125
434,434,1728003838006,-0.28222656,-0.96710205,-0.0037231445,2.921875,1.65625,1.109375
435,435,1728003838046,-0.27172852,-0.9463501,-0.009338379,4.765625,-1.171875,1.84375
436,436,1728003838086,-0.3149414,-0.9651489,0.032165527,11.90625,-3.46875,3.28125
437,437,1728003838126,-0.3815918,-0.9458618,0.03778076,13.953125,-1.109375,5.734375
438,438,1728003838166,-0.2878418,-0.8933716,-0.009338379,12.34375,-2.078125,8.703125
439,439,1728003838206,-0.19604492,-0.87042236,-0.02960205,7.40625,-3.125,11.234375
440,440,1728003838246,-0.20239258,-0.9546509,-0.04547119,10.046875,-7.921875,16.40625
441,441,1728003838286,-0.27075195,-0.9734497,-0.061828613,16.625,-9.140625,22.796875
442,442,1728003838326,-0.24047852,-0.9314575,-0.09527588,22.15625,-9.25,26.421875
443,443,1728003838366,-0.2331543,-0.9282837,-0.13555908,27.828125,-8.8125,28.65625
444,444,1728003838406,-0.23486328,-0.9771118,-0.15362549,27.421875,-3.734375,34.875
445,445,1728003838446,-0.2614746,-1.1629028,-0.24420166,21.9375,2.859375,33.015625
446,446,1728003838486,-0.13891602,-1.072815,-0.39801025,36.234375,-2.578125,23.84375
447,447,1728003838526,0.043945312,-0.97735596,-0.4590454,38.765625,-5.046875,25.9375
448,448,1728003838566,0.24316406,-1.0650024,-0.50128174,12.75,2.234375,18.46875
449,449,1728003838606,0.41186523,-1.1663208,-0.5562134,14.96875,1.90625,4.03125
450,450,1728003838646,0.32592773,-1.1602173,-0.58062744,22.453125,-1.6875,1.59375
451,451,1728003838686,0.15527344,-1.1167603,-0.57354736,13.5625,-9.75,2.96875
452,452,1728003838726,0.10888672,-1.0623169,-0.5718384,11.296875,-8.328125,-0.78125
453,453,1728003838766,0.14819336,-1.0838013,-0.55914307,1.0625,-0.484375,-0.5
454,454,1728003838806,0.20410156,-1.086731,-0.41729736,-0.625,6.484375,-12.703125
455,455,1728003838846,0.13720703,-1.0095825,-0.33624268,-2.578125,0.875,-20.46875
456,456,1728003838886,-0.05810547,-0.8779907,-0.33721924,-4.65625,2.078125,-18.875
457,457,1728003838926,-0.064453125,-0.7612915,-0.31744385,-14.296875,10.453125,-26.234375
458,458,1728003838966,0.012939453,-0.72735596,-0.27911377,-20.34375,18.484375,-35.765625
459,459,1728003839006,-0.010498047,-0.769104,-0.24298096,-28.78125,16.46875,-38.609375
460,460,1728003839046,0.0026855469,-0.8189087,-0.11993408,-22.4375,17.046875,-40.484375
461,461,1728003839086,-0.06982422,-0.72003174,-0.20098877,-32.359375,15.0,-37.4375
462,462,1728003839126,-0.053222656,-0.6140747,-0.253479,-35.15625,13.515625,-34.859375
463,463,1728003839166,-0.0690918,-0.7476196,-0.25616455,-30.59375,13.53125,-31.421875
464,464,1728003839206,-0.13989258,-0.86187744,-0.25811768,-32.390625,9.34375,-20.6875
465,465,1728003839246,-0.30615234,-0.8530884,-0.18560791,-25.25,4.171875,-14.5
466,466,1728003839286,-0.42749023,-0.7630005,-0.16290283,-16.59375,6.421875,-8.78125
467,467,1728003839326,-0.5004883,-0.7595825,-0.24273682,-10.96875,9.15625,-10.796875
468,468,1728003839366,-0.54833984,-0.83721924,-0.2300415,-3.203125,8.171875,-10.484375
469,469,1728003839406,-0.5595703,-0.8850708,-0.11456299,-2.59375,5.890625,-9.390625
470,470,1728003839446,-0.46899414,-0.9404907,-0.016418457,-1.046875,4.9375,-6.921875
471,471,1728003839486,-0.4375,-0.90093994,-0.02911377,-1.34375,4.6875,-0.359375
472,472,1728003839526,-0.44311523,-0.7839966,-0.09625244,-3.25,2.28125,3.71875
473,473,1728003839566,-0.43774414,-0.7815552,-0.10723877,-2.40625,-2.078125,1.0
474,474,1728003839606,-0.4375,-0.8584595,-0.09283447,-1.859375,-4.78125,1.609375
475,475,1728003839646,-0.43115234,-0.93292236,-0.04449463,-4.484375,-8.859375,3.890625
476,476,1728003839686,-0.4074707,-0.90802,-0.030578613,-8.171875,-11.40625,8.65625
477,477,1728003839726,-0.45654297,-0.8574829,-0.14215088,-15.0625,-13.390625,10.03125
478,478,1728003839766,-0.5632324,-0.9038696,-0.08111572,-8.15625,-16.046875,9.265625
479,479,1728003839806,-0.6220703,-0.9536743,-0.013977051,-7.4375,-11.828125,4.75
480,480,1728003839846,-0.72680664,-1.0147095,-0.086242676,-11.140625,-1.75,-0.8125
481,481,1728003839886,-0.54467773,-1.1055298,-0.0256958,1.46875,5.84375,4.328125
482,482,1728003839926,-0.40283203,-0.96295166,-0.109680176,-0.734375,7.265625,0.9375
483,483,1728003839966,-0.42626953,-0.8591919,-0.085754395,-1.59375,4.859375,-1.25
484,484,1728003840006,-0.35180664,-0.77056885,-0.09552002,0.859375,7.046875,-1.296875
485,485,1728003840046,-0.123291016,-0.7559204,-0.09063721,4.53125,5.015625,0.8125
486,486,1728003840086,-0.034179688,-0.862854,-0.006652832,-3.390625,4.53125,-1.53125
487,487,1728003840126,-0.2866211,-1.1074829,-0.034240723,-12.40625,-3.0625,-6.171875
488,488,1728003840166,-0.53637695,-1.18927,-0.013000488,-2.109375,2.125,-4.484375
489,489,1728003840206,-0.4477539,-0.9668579,-0.062072754,4.375,15.71875,-1.25
490,490,1728003840246,-0.30932617,-0.8674927,-0.023498535,7.703125,24.046875,-8.046875
491,491,1728003840286,-0.30200195,-0.8882446,0.030456543,9.015625,19.84375,-4.46875
492,492,1728003840326,-0.33520508,-0.8735962,0.03656006,4.1875,18.046875,2.0625
493,493,1728003840366,-0.37402344,-0.84039307,0.04437256,5.84375,21.609375,3.8125
494,494,1728003840406,-0.41845703,-0.84576416,0.024353027,5.515625,23.234375,-0.5
495,495,1728003840446,-0.44750977,-0.8977661,0.02532959,8.796875,25.515625,-2.65625
496,496,1728003840486,-0.43603516,-0.9585571,0.026062012,11.71875,31.078125,-0.203125
497,497,1728003840526,-0.44311523,-0.9067993,0.0045776367,11.5625,32.3125,-0.625
498,498,1728003840566,-0.4855957,-0.9102173,0.034851074,14.234375,35.84375,-0.734375
499,499,1728003840606,-0.5344238,-0.85162354,0.050964355,20.375,38.5625,-2.84375
500,500,1728003840646,-0.5605469,-0.8413696,0.050476074,22.140625,45.34375,-5.859375
501,501,1728003840686,-0.4753418,-0.77911377,-0.023010254,16.109375,46.109375,-7.921875
502,502,1728003840726,-0.5473633,-0.9834595,-0.30010986,12.953125,34.78125,-5.984375
503,503,1728003840766,-0.31274414,-1.3948364,-0.19049072,27.5,34.8125,8.4375
504,504,1728003840806,-0.22924805,-1.0210571,-0.019836426,18.234375,37.3125,6.5
505,505,1728003840846,-0.35668945,-0.661438,-0.1951294,28.921875,40.28125,6.828125
506,506,1728003840886,-0.33203125,-0.5911255,-0.1975708,38.546875,32.390625,19.671875
507,507,1728003840926,-0.48242188,-0.7295532,-0.23687744,28.0625,40.953125,19.84375
508,508,1728003840966,-0.54589844,-1.0352173,-0.38165283,24.921875,48.96875,1.4375
509,509,1728003841006,-0.34521484,-1.1519165,-0.31280518,24.875,39.453125,1.984375
510,510,1728003841046,-0.33789062,-0.98028564,-0.20928955,25.453125,35.828125,7.125
511,511,1728003841086,-0.4970703,-0.9546509,-0.097717285,19.265625,38.71875,10.9375
512,512,1728003841126,-0.58154297,-0.85821533,-0.17193604,10.53125,43.359375,8.953125
513,513,1728003841166,-0.42944336,-0.74957275,-0.31573486,5.703125,39.71875,0.09375
514,514,1728003841206,-0.32177734,-0.90509033,-0.30230713,8.3125,35.96875,3.1875
515,515,1728003841246,-0.2919922,-0.9690552,-0.2341919,3.453125,28.078125,5.75
516,516,1728003841286,-0.43774414,-0.94317627,-0.19415283,-1.046875,20.625,5.625
517,517,1728003841326,-0.545166,-0.87164307,-0.22198486,-2.8125,22.03125,6.125
518,518,1728003841366,-0.5185547,-0.8147583,-0.21710205,-3.90625,23.6875,5.078125
519,519,1728003841406,-0.41918945,-0.8726196,-0.21246338,-0.3125,21.5,4.5625
520,520,1728003841446,-0.29541016,-0.97076416,-0.15118408,0.0625,13.125,6.8125
521,521,1728003841486,-0.2553711,-1.0325317,-0.09210205,5.078125,4.046875,6.1875
522,522,1728003841526,-0.33666992,-0.9302368,-0.09649658,1.953125,-3.515625,5.8125
523,523,1728003841566,-0.38891602,-0.84381104,-0.15118408,-0.171875,-7.8125,4.46875
524,524,1728003841606,-0.34106445,-0.8250122,-0.15386963,7.296875,-17.25,-2.203125
525,525,1728003841646,-0.3173828,-0.8521118,-0.08087158,7.015625,-19.1875,-4.0
526,526,1728003841686,-0.20922852,-0.83843994,-0.00030517578,4.765625,-21.4375,-2.1875
527,527,1728003841726,-0.18530273,-0.9439087,-0.012023926,-0.296875,-17.328125,3.109375
528,528,1728003841766,-0.42382812,-1.1663208,-0.032043457,-3.421875,-8.859375,5.75
529,529,1728003841806,-0.7133789,-1.4295044,-0.045959473,-7.703125,-4.140625,1.921875
530,530,1728003841846,-0.4506836,-1.170227,0.10394287,-13.8125,18.765625,1.640625
531,531,1728003841886,-0.34985352,-0.99542236,0.04144287,-19.359375,30.21875,-8.65625
532,532,1728003841926,-0.16503906,-0.75567627,0.06951904,-9.734375,22.921875,-6.53125
533,533,1728003841966,-0.10668945,-0.62677,0.07366943,-8.125,8.5,2.28125
534,534,1728003842006,-0.21264648,-0.7251587,0.06561279,-10.171875,6.078125,1.03125
535,535,1728003842046,-0.31933594,-1.0496216,0.09466553,-2.15625,6.65625,-2.5
536,536,1728003842086,-0.33862305,-1.0276489,0.12835693,0.46875,8.640625,-2.453125
537,537,1728003842126,-0.28881836,-0.90460205,0.109313965,6.25,3.953125,-6.234375
538,538,1728003842166,-0.2939453,-0.92510986,0.030700684,2.96875,-3.765625,-3.765625
539,539,1728003842206,-0.36889648,-1.0552368,0.08514404,8.578125,-9.28125,-0.421875
540,540,1728003842246,-0.35253906,-1.0791626,0.08074951,7.296875,-17.25,-5.203125
541,541,1728003842286,-0.30786133,-0.88775635,0.019226074,6.453125,-14.984375,-7.625
542,542,1728003842326,-0.34936523,-0.72857666,-0.0115356445,11.625,-13.484375,0.015625
543,543,1728003842366,-0.34399414,-0.7710571,-0.08380127,10.03125,-8.015625,4.375
544,544,1728003842406,-0.41259766,-0.972229,-0.08087158,6.40625,-3.9375,6.984375
545,545,1728003842446,-0.63061523,-1.2092896,-0.09454346,3.640625,3.265625,2.15625
546,546,1728003842486,-0.5612793,-1.1262817,-0.077941895,3.890625,16.59375,3.109375
547,547,1728003842526,-0.5756836,-1.0005493,-0.07696533,5.515625,32.75,1.265625
548,548,1728003842566,-0.44213867,-0.8633423,-0.10797119,4.921875,33.875,-4.640625
549,549,1728003842606,-0.2446289,-0.7468872,-0.0947876,6.34375,30.84375,-3.046875
550,550,1728003842646,-0.15185547,-0.6838989,-0.0713501,-0.625,27.640625,5.078125
551,551,1728003842686,-0.18066406,-0.8062134,-0.11016846,-2.875,20.140625,7.703125
552,552,1728003842726,-0.3059082,-0.97979736,-0.09918213,2.265625,7.859375,-3.4375
553,553,1728003842766,-0.40795898,-1.1565552,-0.031799316,1.015625,-4.203125,-6.15625
554,554,1728003842806,-0.46411133,-1.2981567,-0.032287598,7.515625,-7.6875,2.3125
555,555,1728003842846,-0.3857422,-0.987854,-0.010559082,15.6875,-20.125,-5.21875
556,556,1728003842886,-0.41308594,-0.71417236,-0.13409424,7.25,-21.421875,-4.109375
557,557,1728003842926,-0.44677734,-0.64556885,-0.18927002,7.71875,-12.546875,-2.0
558,558,1728003842966,-0.37963867,-0.68292236,-0.17584229,6.828125,-11.203125,-3.203125
559,559,1728003843006,-0.4104004,-0.86505127,-0.19586182,4.75,-8.5,-5.359375
560,560,1728003843046,-0.47436523,-1.1235962,-0.14483643,6.4375,-1.78125,0.046875
561,561,1728003843086,-0.4831543,-1.0620728,-0.16217041,4.828125,-0.046875,5.765625
562,562,1728003843126,-0.51782227,-0.96343994,-0.1819458,-2.625,4.859375,1.8125
563,563,1728003843166,-0.51049805,-0.9746704,-0.12310791,3.21875,9.125,-2.90625
564,564,1728003843206,-0.47021484,-0.87994385,-0.11480713,4.703125,9.96875,-0.515625
565,565,1728003843246,-0.31347656,-0.9014282,-0.11627197,-0.265625,12.0,1.546875
566,566,1728003843286,-0.3022461,-0.725647,-0.15118408,-3.34375,5.0625,-2.1875
567,567,1728003843326,-0.3466797,-0.5757446,-0.23760986,-6.25,2.578125,-0.265625
568,568,1728003843366,-0.28198242,-0.7288208,-0.17071533,-0.5,6.8125,-2.46875
569,569,1728003843406,-0.36889648,-1.0601196,-0.20831299,-12.703125,7.140625,-2.859375
570,570,1728003843446,-0.68896484,-1.3740845,-0.237854,-6.53125,-10.96875,-6.65625
571,571,1728003843486,-0.76953125,-1.1235962,-0.13092041,17.390625,-26.015625,-4.453125
572,572,1728003843526,-0.58032227,-0.767395,-0.101135254,16.734375,-10.234375,7.25
573,573,1728003843566,-0.36889648,-0.6682739,-0.12384033,4.9375,-9.3125,5.34375
574,574,1728003843606,-0.4716797,-0.7214966,-0.2798462,-27.65625,5.609375,8.21875
575,575,1728003843646,-0.6335449,-0.7769165,-0.39385986,-25.453125,18.59375,14.125
576,576,1728003843686,-0.5270996,-0.74542236,-0.16046143,3.671875,17.640625,7.71875
577,577,1728003843726,-0.2788086,-0.7752075,-0.20684814,-10.515625,10.359375,-3.671875
578,578,1728003843766,-0.29882812,-0.9229126,-0.13970947,-26.375,22.25,1.59375
579,579,1728003843806,-0.24072266,-1.2622681,0.01361084,-11.65625,3.6875,9.953125
580,580,1728003843846,-0.16967773,-1.1712036,-0.023254395,-19.125,-35.59375,1.71875
581,581,1728003843886,-0.21679688,-0.9771118,-0.11798096,-5.703125,-47.21875,1.453125
582,582,1728003843926,-0.49023438,-0.82476807,-0.1897583,-8.96875,-59.03125,-10.609375
583,583,1728003843966,-0.46240234,-0.8477173,-0.13116455,-6.6875,-57.765625,-9.859375
584,584,1728003844006,-0.24169922,-0.9414673,-0.04156494,-5.078125,-53.921875,-6.515625
585,585,1728003844046,-0.21704102,-0.9846802,-0.015930176,3.625,-62.453125,-14.171875
586,586,1728003844086,-0.5361328,-0.835022,-0.1428833,-5.09375,-42.78125,1.21875
587,587,1728003844126,-0.4963379,-0.8230591,-0.18463135,1.578125,-24.90625,6.890625
588,588,1728003844166,-0.4951172,-0.9846802,-0.15264893,-10.609375,-0.4375,-1.28125
589,589,1728003844206,-0.66967773,-0.8933716,-0.18292236,-10.71875,8.59375,-4.859375
590,590,1728003844246,-0.50512695,-0.9783325,-0.0335083,-0.484375,18.453125,-9.75
591,591,1728003844286,-0.21606445,-0.89068604,0.03704834,-5.46875,26.234375,-5.171875
592,592,1728003844326,-0.27392578,-0.8579712,0.0099487305,-15.046875,16.03125,3.71875
593,593,1728003844366,-0.26464844,-0.7959595,-0.14849854,-17.765625,-0.140625,11.6875
594,594,1728003844406,-0.10131836,-1.0767212,-0.008361816,4.1875,-5.453125,9.953125
595,595,1728003844446,-0.099365234,-1.1084595,0.026062012,-3.28125,-18.4375,-4.421875
596,596,1728003844486,-0.23779297,-1.1607056,-0.00592041,-3.078125,-32.453125,5.171875
597,597,1728003844526,-0.42138672,-0.9993286,0.06072998,0.421875,-29.515625,10.015625
598,598,1728003844566,-0.48754883,-0.8609009,-0.05621338,3.734375,-21.34375,2.84375
599,599,1728003844606,-0.43969727,-0.8567505,-0.14312744,3.84375,-6.125,0.890625
600,600,1728003844646,-0.421875,-1.0239868,-0.15216064,3.578125,7.3125,1.09375
601,601,1728003844686,-0.4489746,-1.0696411,-0.2041626,-7.375,23.703125,0.078125
602,602,1728003844726,-0.57006836,-0.8533325,-0.12530518,1.3125,29.5,-4.875
603,603,1728003844766,-0.40307617,-0.7920532,-0.02545166,-0.078125,36.34375,-9.171875
604,604,1728003844806,-0.15771484,-0.8965454,0.029968262,1.359375,28.921875,-7.59375
605,605,1728003844846,-0.045898438,-0.9890747,-0.04058838,0.546875,10.359375,4.21875
606,606,1728003844886,-0.09887695,-0.9326782,-0.08502197,0.09375,-1.28125,13.734375
607,607,1728003844926,-0.26513672,-0.989563,-0.04107666,7.5625,-3.71875,4.859375
608,608,1728003844966,-0.4440918,-0.9915161,-0.0010375977,13.171875,-6.34375,-4.46875
609,609,1728003845006,-0.38476562,-0.80059814,-0.012512207,12.75,-5.421875,0.796875
610,610,1728003845046,-0.2487793,-1.0044556,0.038757324,-0.796875,0.03125,-1.578125
611,611,1728003845086,-0.2861328,-0.97784424,-0.1873169,-5.75,-10.5625,-4.703125
612,612,1728003845126,-0.4814453,-0.9866333,-0.29400635,9.15625,-0.1875,8.703125
613,613,1728003845166,-0.42919922,-0.892395,-0.25201416,1.03125,15.625,2.640625
614,614,1728003845206,-0.5576172,-0.7971802,-0.2649536,0.359375,14.40625,-8.171875
615,615,1728003845246,-0.49487305,-0.7949829,-0.1807251,11.59375,16.53125,-13.5625
616,616,1728003845286,-0.28271484,-0.928772,-0.05718994,2.734375,13.28125,-1.703125
617,617,1728003845326,-0.22021484,-0.9985962,-0.047424316,-10.5625,-2.125,-4.0625
618,618,1728003845366,-0.37573242,-0.9570923,-0.23760986,-15.234375,-1.078125,-3.3125
619,619,1728003845406,-0.29785156,-0.8731079,-0.17559814,2.375,-5.28125,-3.421875
620,620,1728003845446,-0.36889648,-1.0100708,-0.120910645,3.671875,-6.140625,-0.4375
621,621,1728003845486,-0.46850586,-1.0195923,-0.1795044,-5.28125,-7.234375,-4.375
622,622,1728003845526,-0.49560547,-0.9973755,-0.19488525,1.3125,-10.984375,-6.015625
623,623,1728003845566,-0.4736328,-1.0567017,-0.13458252,1.359375,-7.515625,-8.015625
624,624,1728003845606,-0.45458984,-0.9585571,-0.14483643,-6.125,-9.796875,-6.9375
625,625,1728003845646,-0.41088867,-0.81817627,-0.13604736,1.15625,-6.640625,-10.796875
626,626,1728003845686,-0.29956055,-0.739563,-0.053527832,11.5625,3.296875,-7.0
627,627,1728003845726,-0.33691406,-0.63531494,-0.1716919,-5.8125,-3.625,5.703125
628,628,1728003845766,-0.5241699,-0.86553955,-0.18682861,-3.1875,-8.375,4.578125
629,629,1728003845806,-0.5029297,-0.86846924,-0.10015869,-10.828125,-2.125,-6.5625
630,630,1728003845846,-0.42504883,-0.8196411,-0.1362915,-3.53125,-6.1875,-1.5625
631,631,1728003845886,-0.4658203,-0.9351196,-0.14874268,2.59375,9.34375,7.4375
632,632,1728003845926,-0.4501953,-0.8545532,-0.2498169,-3.328125,5.15625,5.4375
633,633,1728003845966,-0.55908203,-1.015686,-0.22149658,5.859375,2.71875,3.84375
634,634,1728003846006,-0.49316406,-1.1882935,-0.124816895,9.625,2.3125,-4.140625
635,635,1728003846046,-0.38867188,-1.140686,-0.053771973,16.90625,-3.359375,-11.578125
636,636,1728003846086,-0.4711914,-0.89508057,-0.16070557,-0.890625,4.9375,-6.703125
637,637,1728003846126,-0.4230957,-0.68536377,-0.1585083,-3.953125,1.90625,-9.328125
638,638,1728003846166,-0.3659668,-0.68048096,-0.109191895,-0.6875,3.390625,-11.859375
639,639,1728003846206,-0.3010254,-0.7695923,-0.09844971,-0.140625,5.234375,-3.140625
640,640,1728003846246,-0.33764648,-0.9963989,-0.09234619,7.6875,-4.140625,4.4375
641,641,1728003846286,-0.39624023,-0.850647,-0.08258057,-18.046875,2.125,-3.6875
642,642,1728003846326,-0.5349121,-0.80841064,-0.08673096,-11.0625,-2.359375,2.34375
643,643,1728003846366,-0.4892578,-0.8743286,0.004333496,5.46875,8.015625,5.921875
644,644,1728003846406,-0.46850586,-0.9859009,-0.077697754,0.40625,12.390625,3.015625
645,645,1728003846446,-0.47802734,-1.1672974,-0.093566895,2.9375,6.15625,7.4375
646,646,1728003846486,-0.44189453,-1.2163696,-0.06768799,-1.328125,4.125,2.515625
647,647,1728003846526,-0.44970703,-1.0991821,-0.046447754,0.15625,11.71875,1.515625
648,648,1728003846566,-0.52001953,-0.9072876,-0.08502197,-7.921875,14.03125,-3.5
649,649,1728003846606,-0.47485352,-0.6975708,-0.11138916,-10.390625,15.03125,-7.0625
650,650,1728003846646,-0.30786133,-0.6223755,-0.035705566,-1.1875,17.015625,-1.390625
651,651,1728003846686,-0.27490234,-0.70025635,-0.085510254,-0.28125,14.875,9.546875
652,652,1728003846726,-0.3527832,-0.7283325,-0.03375244,0.75,10.453125,9.875
653,653,1728003846766,-0.48339844,-0.788147,-0.11090088,0.71875,-0.28125,8.9375
654,654,1728003846806,-0.3840332,-1.0093384,-0.14117432,5.34375,-2.3125,7.46875
655,655,1728003846846,-0.29882812,-1.4053345,-0.093566895,14.953125,-8.375,6.921875
656,656,1728003846886,-0.40844727,-1.0396118,-0.004699707,15.984375,-12.203125,-1.703125
657,657,1728003846926,-0.5234375,-0.8814087,-0.11798096,6.8125,-9.328125,7.140625
658,658,1728003846966,-0.6335449,-0.7918091,-0.17828369,3.390625,0.078125,3.796875
659,659,1728003847006,-0.5239258,-0.8098755,-0.24371338,4.46875,1.9375,-1.09375
660,660,1728003847046,-0.46166992,-0.87384033,-0.22198486,-0.09375,9.75,-2.59375
661,661,1728003847086,-0.48583984,-0.8362427,-0.15704346,-3.65625,18.046875,-1.75
662,662,1728003847126,-0.50097656,-0.8428345,-0.1194458,-14.484375,26.59375,3.546875
663,663,1728003847166,-0.46166992,-0.8845825,-0.09869385,-11.25,24.390625,0.796875
664,664,1728003847206,-0.46899414,-0.9480591,-0.12579346,-8.328125,17.171875,-1.046875
665,665,1728003847246,-0.29516602,-0.8821411,-0.06817627,-7.40625,6.171875,0.21875
666,666,1728003847286,-0.34106445,-0.7896118,-0.13214111,-10.21875,1.71875,-0.390625
667,667,1728003847326,-0.4716797,-0.82159424,-0.121398926,-17.015625,-2.015625,-1.125
668,668,1728003847366,-0.39770508,-0.98101807,-0.11456299,-12.34375,-10.1875,2.5
669,669,1728003847406,-0.47265625,-1.0806274,-0.13946533,-6.640625,-26.703125,3.671875
670,670,1728003847446,-0.47875977,-1.0247192,-0.09942627,-7.15625,-36.84375,-1.796875
671,671,1728003847486,-0.4753418,-0.95635986,-0.1375122,-0.40625,-48.890625,-3.8125
672,672,1728003847526,-0.513916,-0.74224854,-0.12017822,-1.359375,-43.171875,-4.34375
673,673,1728003847566,-0.5253906,-0.6087036,-0.17559814,-3.96875,-31.984375,2.234375
674,674,1728003847606,-0.48339844,-0.7854614,-0.13214111,4.34375,-28.859375,2.5625
675,675,1728003847646,-0.50805664,-0.9644165,-0.089904785,0.359375,-21.171875,-4.8125
676,676,1728003847686,-0.4584961,-0.9751587,-0.12945557,-2.984375,-14.640625,-0.171875
677,677,1728003847726,-0.34301758,-0.9402466,-0.1897583,-8.3125,-6.828125,8.265625
678,678,1728003847766,-0.26708984,-0.96173096,-0.124572754,-4.328125,-11.46875,11.84375
679,679,1728003847806,-0.25708008,-1.0459595,-0.018371582,-4.953125,-14.140625,18.09375
680,680,1728003847846,-0.26367188,-1.1856079,0.02166748,-4.84375,-16.703125,16.953125
681,681,1728003847886,-0.29638672,-1.0947876,0.06878662,-7.625,-14.296875,13.875
682,682,1728003847926,-0.28588867,-0.9085083,0.039245605,-7.65625,-13.296875,18.203125
683,683,1728003847966,-0.11743164,-0.76568604,-0.020080566,-7.390625,-18.953125,18.515625
684,684,1728003848006,-0.06665039,-0.85235596,0.030944824,-1.765625,-21.171875,15.828125
685,685,1728003848046,-0.26708984,-0.97662354,0.062683105,-2.8125,-17.6875,10.375
686,686,1728003848086,-0.32836914,-0.9351196,-0.014709473,0.375,-10.203125,10.375
687,687,1728003848126,-0.1665039,-0.8010864,-0.07891846,6.078125,-4.140625,12.234375
688,688,1728003848166,-0.11767578,-0.7510376,-0.04473877,17.390625,-4.265625,10.8125
689,689,1728003848206,-0.14453125,-0.77789307,-0.0044555664,20.046875,-1.203125,10.8125
690,690,1728003848246,-0.02709961,-0.70880127,-0.078186035,11.046875,-1.734375,14.84375
691,691,1728003848286,0.031982422,-0.7695923,-0.27471924,15.265625,-7.703125,20.28125
692,692,1728003848326,-0.022216797,-0.97076416,-0.2654419,19.9375,-7.390625,16.84375
693,693,1728003848366,-0.00048828125,-1.0361938,-0.30889893,12.828125,-19.609375,18.421875
694,694,1728003848406,-0.043701172,-1.0266724,-0.15386963,14.296875,-7.75,20.40625
695,695,1728003848446,-0.032958984,-0.91851807,-0.2781372,6.5,-11.734375,17.953125
696,696,1728003848486,-0.012451172,-0.84552,-0.31158447,14.15625,-20.078125,13.625
697,697,1728003848526,-0.096191406,-0.8008423,-0.21295166,14.28125,-8.625,10.296875
698,698,1728003848566,-0.13208008,-0.7468872,-0.32305908,-1.640625,-6.1875,3.28125
699,699,1728003848606,0.07910156,-0.8670044,-0.29595947,5.140625,-1.328125,-1.28125
700,700,1728003848646,0.16088867,-1.0137329,-0.26031494,3.75,1.28125,2.875
701,701,1728003848686,0.10449219,-1.00177,-0.29180908,9.03125,-3.71875,0.265625
702,702,1728003848726,0.036376953,-0.8792114,-0.3953247,-4.40625,2.0,-0.375
703,703,1728003848766,0.047607422,-0.98931885,-0.3652954,-3.046875,1.34375,-4.125
704,704,1728003848806,0.05859375,-1.1484985,-0.3106079,-19.078125,9.734375,-8.5
705,705,1728003848846,0.06640625,-1.0784302,-0.4829712,-21.6875,-6.5,-10.890625
706,706,1728003848886,0.10449219,-1.2029419,-0.36236572,4.59375,8.640625,-3.90625
707,707,1728003848926,0.09399414,-1.3140259,-0.35601807,-10.921875,6.546875,-6.046875
708,708,1728003848966,0.060302734,-1.3684692,-0.38824463,-12.59375,1.125,-10.453125
709,709,1728003849006,-0.025146484,-1.3599243,-0.42364502,3.71875,5.53125,-4.640625
710,710,1728003849046,0.0234375,-1.2661743,-0.38970947,5.21875,1.515625,-0.5625
711,711,1728003849086,0.011474609,-1.229065,-0.4006958,1.265625,2.0625,1.484375
712,712,1728003849126,0.030517578,-1.2175903,-0.36383057,8.125,3.46875,0.234375
713,713,1728003849166,0.01977539,-1.1936646,-0.34405518,8.78125,-0.1875,-0.703125
714,714,1728003849206,0.033203125,-1.104065,-0.32696533,10.09375,3.5625,0.234375
715,715,1728003849246,-0.01977539,-0.9963989,-0.35211182,9.34375,2.265625,0.046875
716,716,1728003849286,-0.013427734,-0.9714966,-0.39190674,13.375,-1.40625,-1.09375
717,717,1728003849326,-0.0012207031,-0.93292236,-0.39508057,12.65625,-0.3125,1.59375
718,718,1728003849366,-0.008300781,-0.9307251,-0.36968994,12.03125,0.546875,2.578125
719,719,1728003849406,-0.00390625,-0.90093994,-0.3574829,10.6875,1.734375,4.546875
720,720,1728003849446,-0.025634766,-0.8718872,-0.3562622,8.65625,2.421875,6.546875
721,721,1728003849486,-0.036376953,-0.8428345,-0.3477173,1.890625,4.4375,6.46875
722,722,1728003849526,-0.036621094,-0.80792236,-0.35772705,3.640625,3.953125,4.890625
723,723,1728003849566,0.05078125,-0.7822876,-0.31573486,5.078125,5.484375,1.90625
724,724,1728003849606,0.038085938,-0.6782837,-0.31158447,0.15625,3.171875,-1.546875
725,725,1728003849646,0.014892578,-0.62579346,-0.315979,0.78125,4.578125,-2.234375
726,726,1728003849686,0.017089844,-0.5750122,-0.3213501,-2.203125,7.8125,-2.796875
727,727,1728003849726,0.055419922,-0.61431885,-0.33966064,-5.421875,9.03125,-4.234375
728,728,1728003849766,0.0546875,-0.7078247,-0.37628174,-2.265625,8.15625,-4.65625
729,729,1728003849806,0.029785156,-0.83184814,-0.35968018,2.46875,6.28125,-4.640625
730,730,1728003849846,0.064941406,-0.8442993,-0.41705322,-3.0625,0.375,-0.296875
731,731,1728003849886,0.13427734,-0.81988525,-0.3748169,4.4375,-4.4375,7.9375
732,732,1728003849926,0.17041016,-0.7764282,-0.38482666,1.046875,-8.5625,9.875
733,733,1728003849966,0.19848633,-0.80670166,-0.39239502,3.75,-8.6875,10.5625
734,734,1728003850006,0.025634766,-0.8291626,-0.38238525,5.234375,-3.984375,13.875
735,735,1728003850046,-0.007080078,-0.89508057,-0.41583252,1.734375,-3.8125,15.859375
736,736,1728003850086,0.07006836,-0.9104614,-0.38970947,3.109375,-7.0625,15.765625
737,737,1728003850126,0.095947266,-0.909729,-0.3604126,6.21875,-8.265625,14.09375
738,738,1728003850166,0.06762695,-0.85406494,-0.4368286,2.078125,-13.578125,13.0
739,739,1728003850206,0.05493164,-0.8755493,-0.4595337,3.015625,-4.140625,16.78125
740,740,1728003850246,0.10839844,-0.89068604,-0.46832275,6.390625,1.625,17.40625
741,741,1728003850286,0.12792969,-0.8491821,-0.4746704,6.078125,4.4375,15.8125
742,742,1728003850326,0.20654297,-0.84332275,-0.44537354,17.53125,2.3125,12.921875
743,743,1728003850366,0.19848633,-0.7966919,-0.47711182,11.28125,-0.03125,9.25
744,744,1728003850406,0.21044922,-0.7686157,-0.5054321,14.1875,0.375,12.328125
745,745,1728003850446,0.2241211,-0.8206177,-0.52545166,5.390625,2.234375,14.84375
746,746,1728003850486,0.28637695,-0.8467407,-0.5586548,0.59375,5.203125,12.515625
747,747,1728003850526,0.30126953,-0.8687134,-0.54888916,7.640625,3.34375,11.9375
748,748,1728003850566,0.25146484,-0.84820557,-0.54034424,8.609375,2.078125,9.625
749,749,1728003850606,0.28686523,-0.76446533,-0.55792236,5.09375,1.96875,4.65625
750,750,1728003850646,0.3154297,-0.76885986,-0.58258057,6.96875,0.703125,5.453125
751,751,1728003850686,0.3540039,-0.800354,-0.52545166,4.28125,2.171875,7.296875
752,752,1728003850726,0.3190918,-0.76153564,-0.5459595,-0.328125,-0.484375,3.421875
753,753,1728003850766,0.28735352,-0.7427368,-0.56817627,1.53125,-2.53125,1.578125
754,754,1728003850806,0.25390625,-0.73516846,-0.5725708,1.59375,0.34375,0.75
755,755,1728003850846,0.28125,-0.7529907,-0.59088135,0.484375,0.71875,2.546875
756,756,1728003850886,0.31811523,-0.71759033,-0.5762329,-4.296875,1.296875,1.78125
757,757,1728003850926,0.30566406,-0.7588501,-0.5523071,1.96875,1.875,1.65625
758,758,1728003850966,0.32495117,-0.7803345,-0.55841064,0.4375,1.09375,-0.03125
759,759,1728003851006,0.32641602,-0.7883911,-0.5388794,1.390625,1.09375,0.8125
