,Unnamed: 0,timestamp,accel_x,accel_y,accel_z,gyro_x,gyro_y,gyro_z
0,0,1728019244738,0.3334961,-0.9627075,-0.05645752,-3.75,-3.203125,-2.6875
1,1,1728019244778,0.32226562,-0.9026489,-0.06451416,-2.9375,-4.84375,-3.09375
2,2,1728019244818,0.32055664,-0.90093994,-0.020080566,14.359375,-8.0,-4.0
3,3,1728019244858,0.23583984,-0.8648071,-0.06378174,22.390625,-8.5625,-4.890625
4,4,1728019244898,0.21484375,-0.9507446,-0.01763916,12.6875,-12.125,-3.328125
5,5,1728019244938,0.20239258,-0.9517212,0.04534912,18.421875,-5.765625,-2.5625
6,6,1728019244978,0.16479492,-0.89434814,0.00970459,26.109375,0.375,0.71875
7,7,1728019245018,0.20336914,-0.87579346,-0.0713501,29.484375,2.765625,1.71875
8,8,1728019245058,0.19335938,-0.8838501,-0.10015869,30.375,7.5625,2.4375
9,9,1728019245098,0.2446289,-0.9356079,-0.18756104,26.90625,10.328125,8.765625
10,10,1728019245138,0.25805664,-0.90704346,-0.10235596,21.578125,8.546875,7.359375
11,11,1728019245178,0.18188477,-0.96343994,-0.0020141602,41.71875,9.515625,9.59375
12,12,1728019245218,0.20825195,-0.9024048,-0.26568604,65.46875,14.640625,19.671875
13,13,1728019245258,0.2998047,-0.86431885,-0.49273682,86.28125,32.15625,30.28125
14,14,1728019245298,0.26098633,-0.7756958,-0.5310669,96.25,29.078125,31.859375
15,15,1728019245338,0.34106445,-0.93829346,-0.7424927,103.25,23.5625,30.96875
16,16,1728019245378,0.38330078,-0.8850708,-1.0733032,111.34375,26.765625,39.609375
17,17,1728019245418,0.25683594,-0.3809204,-1.0056763,35.6875,3.125,20.21875
18,18,1728019245458,0.3996582,-0.40826416,-1.1790161,19.859375,3.03125,14.71875
19,19,1728019245498,0.54833984,-0.40631104,-1.3845825,-15.9375,-21.84375,-5.109375
20,20,1728019245538,0.59375,-0.50860596,-0.9639282,-53.515625,-44.046875,-24.3125
21,21,1728019245578,0.6237793,-0.58673096,-0.92022705,-58.609375,-51.765625,-0.25
22,22,1728019245618,0.607666,-0.81451416,-0.96099854,-118.8125,-60.734375,31.046875
23,23,1728019245658,0.8354492,-0.74346924,-0.4644165,-22.15625,-93.765625,11.71875
24,24,1728019245698,0.65527344,-0.7642212,-0.27349854,-38.15625,-35.0625,10.140625
25,25,1728019245738,0.60546875,-0.6633911,-0.32403564,-59.484375,-31.328125,4.828125
26,26,1728019245778,0.7097168,-0.64556885,-0.253479,2.984375,-34.8125,-0.875
27,27,1728019245818,0.64575195,-0.7324829,-0.22589111,18.109375,-21.1875,-18.328125
28,28,1728019245858,0.5715332,-0.53253174,-0.26446533,-8.671875,-13.171875,-20.96875
29,29,1728019245898,0.45336914,-0.47003174,-0.1663208,-12.109375,-13.953125,-20.703125
30,30,1728019245938,0.5048828,-0.41583252,-0.17999268,-27.875,-23.78125,-19.59375
31,31,1728019245978,0.49560547,-0.458313,-0.10845947,-6.0,-27.234375,-17.53125
32,32,1728019246018,0.5107422,-0.520813,-0.07525635,-12.671875,-24.109375,-17.6875
33,33,1728019246058,0.4609375,-0.5117798,-0.11114502,-16.96875,-20.84375,-17.84375
34,34,1728019246098,0.39648438,-0.51763916,-0.144104,-8.375,-20.90625,-16.78125
35,35,1728019246138,0.46289062,-0.63067627,-0.07720947,-13.078125,-21.0625,-13.234375
36,36,1728019246178,0.4794922,-0.73883057,-0.035461426,-8.9375,-17.625,-15.21875
37,37,1728019246218,0.51904297,-0.7437134,-0.037902832,-12.234375,-14.28125,-11.484375
38,38,1728019246258,0.47583008,-0.7168579,-0.059631348,-2.75,-8.734375,-9.265625
39,39,1728019246298,0.4543457,-0.72369385,-0.046447754,-5.265625,-5.6875,-5.3125
40,40,1728019246338,0.43823242,-0.70806885,0.016052246,-3.578125,1.90625,-4.84375
41,41,1728019246378,0.4572754,-0.8027954,-0.016418457,-2.171875,3.8125,0.0
42,42,1728019246418,0.55444336,-0.80133057,-0.031066895,-4.828125,2.875,1.1875
43,43,1728019246458,0.5349121,-0.70880127,-0.039367676,8.296875,7.59375,5.25
44,44,1728019246498,0.5378418,-0.6956177,-0.08795166,6.703125,9.171875,8.71875
45,45,1728019246538,0.55688477,-0.7437134,-0.035217285,8.140625,7.421875,6.890625
46,46,1728019246578,0.48779297,-0.7503052,-0.07281494,6.3125,3.921875,10.671875
47,47,1728019246618,0.5004883,-0.7234497,-0.10675049,16.296875,1.265625,13.6875
48,48,1728019246658,0.6062012,-0.72613525,-0.14556885,9.5625,-4.921875,15.328125
49,49,1728019246698,0.5205078,-0.58428955,-0.034729004,14.421875,-2.1875,11.90625
50,50,1728019246738,0.32226562,-0.6116333,-0.031555176,21.78125,1.484375,11.28125
51,51,1728019246778,0.43530273,-0.736145,-0.09429932,10.375,-2.984375,14.84375
52,52,1728019246818,0.501709,-0.6201782,-0.08868408,24.71875,1.75,14.453125
53,53,1728019246858,0.40576172,-0.5652466,-0.1416626,18.40625,11.375,10.46875
54,54,1728019246898,0.6669922,-0.60040283,-0.12823486,6.46875,-1.734375,9.765625
55,55,1728019246938,0.4169922,-0.48077393,0.07659912,23.046875,20.71875,6.421875
56,56,1728019246978,0.3334961,-0.7661743,-0.08526611,-15.90625,10.609375,20.390625
57,57,1728019247018,0.5656738,-0.4758911,-0.18927002,4.796875,13.3125,8.265625
58,58,1728019247058,0.9033203,-0.76446533,-0.15704346,-18.484375,11.875,11.546875
59,59,1728019247098,0.77905273,-0.75445557,-0.15826416,-42.5,12.890625,-5.4375
60,60,1728019247138,0.6550293,-0.76641846,-0.03253174,-2.53125,21.296875,-8.625
61,61,1728019247178,0.779541,-0.8843384,-0.34014893,-43.625,2.75,4.21875
62,62,1728019247218,0.6933594,-0.704895,-0.14215088,-25.8125,10.328125,-10.546875
63,63,1728019247258,0.65649414,-0.74102783,-0.08380127,-32.703125,-3.453125,-19.203125
64,64,1728019247298,0.7714844,-0.8616333,-0.15484619,-10.125,-7.640625,-12.609375
65,65,1728019247338,0.7116699,-0.8933716,-0.1362915,-18.75,-8.75,-16.609375
66,66,1728019247378,0.8076172,-0.9055786,-0.13531494,-18.21875,-15.890625,-12.453125
67,67,1728019247418,0.64086914,-0.90509033,-0.049865723,-11.734375,-16.703125,-15.40625
68,68,1728019247458,0.5756836,-0.92071533,0.0018920898,-14.0,-11.515625,-20.171875
69,69,1728019247498,0.57470703,-0.9314575,0.016052246,-24.203125,-20.125,-19.453125
70,70,1728019247538,0.4868164,-0.9314575,0.12835693,-31.453125,-23.453125,-24.125
71,71,1728019247578,0.48510742,-1.0015259,0.19525146,-31.34375,-22.59375,-27.046875
72,72,1728019247618,0.5205078,-1.0525513,0.27630615,-31.296875,-21.578125,-24.25
73,73,1728019247658,0.44506836,-1.0803833,0.33709717,-17.421875,-17.640625,-21.140625
74,74,1728019247698,0.3269043,-1.015686,0.40252686,-14.546875,-12.296875,-20.4375
75,75,1728019247738,0.22680664,-0.913147,0.39544678,1.25,-7.71875,-18.296875
76,76,1728019247778,0.1862793,-0.8875122,0.35150146,-0.34375,-6.625,-13.71875
77,77,1728019247818,0.16845703,-0.80255127,0.34710693,-10.203125,-9.40625,-15.15625
78,78,1728019247858,0.114746094,-0.79034424,0.39398193,-11.359375,-3.484375,-17.609375
79,79,1728019247898,0.072021484,-0.9038696,0.36688232,-9.234375,-1.90625,-12.296875
80,80,1728019247938,0.1340332,-0.8467407,0.37664795,-6.75,0.046875,-7.0625
81,81,1728019247978,0.1875,-0.90704346,0.3908081,-10.03125,1.359375,-5.328125
82,82,1728019248018,0.21728516,-1.0054321,0.43572998,-9.9375,1.9375,-2.78125
83,83,1728019248058,0.21972656,-0.9380493,0.44403076,1.171875,3.546875,0.8125
84,84,1728019248098,0.17236328,-0.84039307,0.4467163,6.46875,8.703125,3.8125
85,85,1728019248138,0.119628906,-0.86968994,0.42718506,12.578125,10.578125,8.703125
86,86,1728019248178,0.16235352,-0.85943604,0.3600464,7.609375,7.625,13.75
87,87,1728019248218,0.18725586,-0.81817627,0.3554077,15.375,13.96875,14.234375
88,88,1728019248258,0.21679688,-0.82476807,0.34173584,15.5,20.296875,15.84375
89,89,1728019248298,0.23779297,-0.8599243,0.28778076,23.640625,26.96875,21.015625
90,90,1728019248338,0.26904297,-0.83380127,0.32635498,28.609375,23.5625,11.59375
91,91,1728019248378,0.37670898,-1.0674438,0.15765381,48.40625,32.484375,25.15625
92,92,1728019248418,0.36938477,-1.0652466,0.17962646,38.6875,25.390625,16.109375
93,93,1728019248458,0.35620117,-1.0664673,0.01727295,79.75,39.21875,1.15625
94,94,1728019248498,0.5847168,-1.286438,-0.378479,74.90625,32.796875,12.828125
95,95,1728019248538,0.82470703,-0.95635986,-0.5039673,41.0625,-30.515625,27.640625
96,96,1728019248578,0.89160156,-1.0056763,-0.23687744,14.75,-20.328125,17.140625
97,97,1728019248618,0.5661621,-0.6211548,-0.54400635,43.53125,-47.484375,25.09375
98,98,1728019248658,1.0827637,-0.8284302,-0.21685791,57.828125,-7.09375,49.171875
99,99,1728019248698,0.6184082,-0.8557739,-0.5195923,56.359375,48.984375,20.3125
100,100,1728019248738,0.6645508,-0.7107544,-0.39117432,1.078125,-54.828125,25.421875
101,101,1728019248778,0.7956543,-0.59210205,-0.3110962,0.578125,12.28125,4.703125
102,102,1728019248818,0.43847656,-0.8184204,-0.3147583,-30.671875,19.203125,-4.765625
103,103,1728019248858,0.5229492,-0.61724854,-0.21466064,-89.984375,-16.796875,-2.578125
104,104,1728019248898,0.59228516,-0.5808716,-0.20318604,-13.453125,-23.75,-5.75
105,105,1728019248938,0.6296387,-0.66851807,-0.22198486,-10.515625,-21.9375,-10.25
106,106,1728019248978,0.5864258,-0.57647705,-0.190979,-11.3125,-12.96875,-12.0
107,107,1728019249018,0.5361328,-0.59625244,-0.11016846,-13.046875,-6.53125,-14.859375
108,108,1728019249058,0.5090332,-0.6851196,-0.12774658,-18.453125,-14.171875,-12.890625
109,109,1728019249098,0.5354004,-0.661438,-0.10284424,-23.109375,-15.3125,-11.34375
110,110,1728019249138,0.5136719,-0.6477661,-0.0803833,-3.359375,-13.75,-13.0
111,111,1728019249178,0.49438477,-0.5901489,-0.074523926,-13.078125,-12.765625,-12.6875
112,112,1728019249218,0.39916992,-0.5918579,-0.059387207,-5.265625,-10.390625,-13.140625
113,113,1728019249258,0.35253906,-0.5786743,-0.06036377,-11.046875,-7.78125,-9.25
114,114,1728019249298,0.49023438,-0.5906372,-0.06500244,-12.78125,-12.296875,-7.8125
115,115,1728019249338,0.4987793,-0.6814575,-0.02130127,-1.421875,-6.171875,-8.03125
116,116,1728019249378,0.47485352,-0.725647,-0.035461426,-7.890625,-2.296875,-7.515625
117,117,1728019249418,0.53393555,-0.74664307,-0.08404541,-4.78125,-2.09375,-6.359375
118,118,1728019249458,0.5012207,-0.7017212,-0.073791504,3.21875,6.78125,-5.203125
119,119,1728019249498,0.47192383,-0.7620239,-0.03668213,2.90625,10.078125,-2.75
120,120,1728019249538,0.48461914,-0.8110962,-0.066711426,-6.375,5.625,3.484375
121,121,1728019249578,0.5197754,-0.7698364,-0.10601807,3.078125,5.5,4.25
122,122,1728019249618,0.56689453,-0.76226807,-0.07232666,5.171875,8.4375,5.9375
123,123,1728019249658,0.5397949,-0.72735596,-0.046691895,8.765625,11.015625,8.03125
124,124,1728019249698,0.5,-0.71466064,-0.08648682,6.5,8.53125,11.375
125,125,1728019249738,0.5270996,-0.6992798,-0.11212158,10.6875,9.671875,11.75
126,126,1728019249778,0.5661621,-0.6621704,-0.17364502,17.546875,7.671875,15.453125
127,127,1728019249818,0.55078125,-0.63775635,-0.10992432,7.0,3.78125,12.5
128,128,1728019249858,0.41577148,-0.5889282,-0.04888916,19.78125,15.75,7.34375
129,129,1728019249898,0.38452148,-0.56256104,-0.17974854,5.8125,17.046875,9.5
130,130,1728019249938,0.6291504,-0.55426025,-0.23052979,24.5,14.875,6.140625
131,131,1728019249978,0.5563965,-0.71954346,0.0048217773,-10.6875,17.078125,15.0
132,132,1728019250018,0.39038086,-0.6567993,-0.284729,0.78125,9.96875,11.03125
133,133,1728019250058,0.6262207,-0.6121216,-0.23638916,6.0625,2.9375,12.9375
134,134,1728019250098,0.59155273,-0.5606079,-0.13531494,-6.21875,-0.359375,10.9375
135,135,1728019250138,0.34765625,-0.5437622,-0.19146729,16.90625,8.9375,5.640625
136,136,1728019250178,0.82788086,-0.78375244,-0.42388916,-62.40625,-21.296875,12.734375
137,137,1728019250218,0.64208984,-0.506897,0.039245605,-27.9375,8.046875,-17.96875
138,138,1728019250258,0.5517578,-0.8694458,0.00970459,-28.65625,1.9375,-13.578125
139,139,1728019250298,0.6845703,-0.66656494,-0.2642212,-23.328125,-8.734375,-8.921875
140,140,1728019250338,0.6479492,-0.9265747,-0.20513916,-24.328125,-0.78125,-19.8125
141,141,1728019250378,0.63378906,-0.8936157,-0.089660645,-19.15625,-2.078125,-20.3125
142,142,1728019250418,0.6340332,-0.9031372,0.014343262,-27.703125,-15.8125,-21.703125
143,143,1728019250458,0.54418945,-0.9898071,-0.02520752,-47.78125,-18.59375,-27.9375
144,144,1728019250498,0.49975586,-0.8406372,0.22259521,-39.703125,-13.015625,-32.703125
145,145,1728019250538,0.47753906,-1.0164185,0.21429443,-49.296875,-20.796875,-29.984375
146,146,1728019250578,0.6357422,-1.2542114,0.33709717,-65.890625,-30.5,-18.390625
147,147,1728019250618,0.6604004,-1.4285278,0.52557373,-88.046875,-28.734375,-16.421875
148,148,1728019250658,0.5266113,-1.27594,0.7201538,-53.0625,-19.71875,-18.03125
149,149,1728019250698,0.29736328,-1.0115356,0.69451904,-1.59375,-13.609375,-17.484375
150,150,1728019250738,0.15966797,-0.80596924,0.58587646,28.546875,-4.515625,-17.46875
151,151,1728019250778,0.06347656,-0.59747314,0.4274292,40.296875,-2.484375,-15.296875
152,152,1728019250818,0.02709961,-0.5718384,0.3866577,20.0625,-7.90625,-11.328125
153,153,1728019250858,0.0068359375,-0.616272,0.4081421,-14.515625,-11.28125,-11.40625
154,154,1728019250898,0.07836914,-0.7493286,0.3961792,-27.375,-11.71875,-8.859375
155,155,1728019250938,0.18701172,-0.9092407,0.48797607,-25.390625,-9.03125,-6.671875
156,156,1728019250978,0.2277832,-1.036438,0.5866089,-29.984375,-6.25,-5.8125
157,157,1728019251018,0.20874023,-1.0281372,0.6637573,2.328125,4.28125,-4.75
158,158,1728019251058,0.1862793,-0.9053345,0.6156616,17.265625,7.625,-1.203125
159,159,1728019251098,0.14453125,-0.81695557,0.5360718,13.765625,7.828125,2.125
160,160,1728019251138,0.099609375,-0.76397705,0.48431396,19.78125,8.25,6.59375
161,161,1728019251178,0.088134766,-0.7451782,0.45477295,12.046875,5.203125,8.1875
162,162,1728019251218,0.06762695,-0.81500244,0.4882202,17.25,2.203125,11.234375
163,163,1728019251258,0.13183594,-0.7437134,0.37371826,19.140625,-5.609375,21.71875
164,164,1728019251298,0.2421875,-0.8008423,0.5075073,28.53125,6.421875,19.125
165,165,1728019251338,0.21386719,-0.98272705,0.43914795,25.34375,13.234375,22.515625
166,166,1728019251378,0.2841797,-0.92974854,0.3920288,56.75,20.265625,31.953125
167,167,1728019251418,0.32470703,-0.89434814,0.25653076,62.203125,24.90625,37.140625
168,168,1728019251458,0.35009766,-0.9356079,0.19476318,70.3125,28.078125,34.90625
169,169,1728019251498,0.4116211,-0.9627075,0.027282715,87.234375,21.40625,36.390625
170,170,1728019251538,0.5788574,-1.2107544,-0.1873169,140.65625,34.8125,27.859375
171,171,1728019251578,0.7739258,-0.9776001,-0.5576782,79.5,9.5,26.421875
172,172,1728019251618,0.9592285,-0.90753174,-0.61138916,9.828125,-2.71875,2.75
173,173,1728019251658,0.923584,-1.0576782,-0.59698486,-45.75,-31.671875,4.453125
174,174,1728019251698,0.82958984,-0.9439087,-0.32720947,-59.8125,-28.265625,23.515625
175,175,1728019251738,0.78759766,-0.9807739,-0.21514893,-32.8125,-3.875,24.0
176,176,1728019251778,0.79785156,-0.89678955,-0.22125244,-8.734375,6.453125,20.03125
177,177,1728019251818,0.66259766,-0.7595825,-0.2420044,9.859375,4.71875,6.671875
178,178,1728019251858,0.623291,-0.6831665,-0.18609619,3.671875,2.734375,6.0
179,179,1728019251898,0.6550293,-0.6812134,-0.17608643,27.90625,-2.640625,1.03125
180,180,1728019251938,0.6254883,-0.6292114,-0.20343018,3.140625,-0.671875,0.484375
181,181,1728019251978,0.5625,-0.62823486,-0.2144165,12.453125,-4.984375,-5.609375
182,182,1728019252018,0.58081055,-0.6777954,-0.18292236,-10.640625,-12.03125,-8.015625
183,183,1728019252058,0.6357422,-0.6152954,-0.19000244,-14.46875,-14.921875,-11.546875
184,184,1728019252098,0.5493164,-0.56256104,-0.17144775,-5.25,-8.03125,-14.921875
185,185,1728019252138,0.45898438,-0.5064087,-0.1404419,-19.515625,-15.546875,-18.21875
186,186,1728019252178,0.33642578,-0.41070557,-0.08917236,-12.5625,-13.265625,-16.34375
187,187,1728019252218,0.34326172,-0.39849854,-0.13165283,-15.40625,-16.453125,-13.578125
188,188,1728019252258,0.42895508,-0.40997314,-0.09869385,-18.84375,-18.28125,-11.328125
189,189,1728019252298,0.4736328,-0.46221924,-0.13092041,-7.71875,-13.078125,-6.1875
190,190,1728019252338,0.5437012,-0.6812134,-0.113586426,8.828125,-10.78125,-7.71875
191,191,1728019252378,0.6015625,-0.79400635,-0.101867676,4.78125,-6.390625,-8.3125
192,192,1728019252418,0.5883789,-0.7859497,-0.085998535,-1.8125,-1.78125,-6.28125
193,193,1728019252458,0.51342773,-0.7546997,-0.089660645,2.546875,0.40625,-3.71875
194,194,1728019252498,0.49926758,-0.7473755,-0.07940674,0.671875,-1.234375,-1.3125
195,195,1728019252538,0.48388672,-0.73101807,-0.08258057,1.828125,5.890625,0.125
196,196,1728019252578,0.49291992,-0.7427368,-0.07598877,0.484375,6.15625,1.265625
197,197,1728019252618,0.5788574,-0.73443604,-0.10357666,-0.015625,4.96875,4.40625
198,198,1728019252658,0.54467773,-0.66192627,-0.097717285,5.25,10.875,7.796875
199,199,1728019252698,0.5202637,-0.63848877,-0.11407471,15.046875,10.875,10.0
200,200,1728019252738,0.49780273,-0.6069946,-0.15045166,9.375,10.328125,18.1875
201,201,1728019252778,0.47998047,-0.49542236,-0.15118408,4.71875,18.65625,23.734375
202,202,1728019252818,0.5324707,-0.46221924,-0.19049072,12.8125,13.453125,20.0625
203,203,1728019252858,0.4765625,-0.53448486,-0.18829346,8.921875,13.140625,20.8125
204,204,1728019252898,0.54589844,-0.48883057,-0.18609619,7.4375,20.015625,20.203125
205,205,1728019252938,0.5463867,-0.5532837,-0.11846924,30.15625,18.6875,14.984375
206,206,1728019252978,0.9038086,-0.49395752,-0.35235596,-30.890625,-8.046875,21.765625
207,207,1728019253018,0.69921875,-0.4998169,-0.15411377,55.625,15.296875,7.921875
208,208,1728019253058,0.2734375,-0.7930298,-0.23956299,-17.359375,-3.703125,6.109375
209,209,1728019253098,0.532959,-0.3862915,-0.31500244,-13.90625,18.34375,-0.703125
210,210,1728019253138,0.8852539,-0.6687622,-0.28179932,-1.03125,-2.21875,12.3125
211,211,1728019253178,1.0791016,-0.57159424,-0.3340454,-52.671875,-9.5625,-9.984375
212,212,1728019253218,0.59472656,-0.645813,-0.109191895,-6.609375,4.359375,-32.03125
213,213,1728019253258,0.3239746,-0.9072876,-0.27667236,-9.921875,-16.453125,-13.703125
214,214,1728019253298,0.68408203,-0.8171997,-0.23614502,-15.09375,0.34375,-10.25
215,215,1728019253338,0.9741211,-0.8401489,-0.10723877,-11.96875,-1.296875,-20.1875
216,216,1728019253378,0.7385254,-0.9727173,-0.2798462,-18.484375,-20.078125,-19.28125
217,217,1728019253418,0.6750488,-0.909729,-0.11920166,-33.8125,-23.5,-21.75
218,218,1728019253458,0.6672363,-0.8999634,-0.07183838,-24.109375,-15.96875,-30.421875
219,219,1728019253498,0.63183594,-0.9224243,-0.038391113,-33.890625,-24.640625,-33.984375
220,220,1728019253538,0.5554199,-0.923645,0.109558105,-41.8125,-28.09375,-37.3125
221,221,1728019253578,0.43432617,-1.060852,0.19403076,-47.375,-28.015625,-34.125
222,222,1728019253618,0.43115234,-1.1792603,0.2892456,-59.25,-22.09375,-31.34375
223,223,1728019253658,0.42089844,-1.1409302,0.42962646,-39.25,-13.8125,-27.890625
224,224,1728019253698,0.31591797,-1.0281372,0.4845581,-12.375,-6.3125,-26.078125
225,225,1728019253738,0.203125,-0.940979,0.4381714,7.8125,-1.078125,-21.875
226,226,1728019253778,0.14111328,-0.8086548,0.387146,1.140625,-1.609375,-17.4375
227,227,1728019253818,0.13427734,-0.7058716,0.40057373,-7.0625,-5.421875,-17.6875
228,228,1728019253858,0.10839844,-0.7805786,0.37860107,-11.390625,-9.203125,-15.203125
229,229,1728019253898,0.06958008,-0.8477173,0.43841553,-7.421875,-5.0,-12.75
230,230,1728019253938,0.05444336,-0.9299927,0.41156006,-13.375,-6.96875,-10.890625
231,231,1728019253978,0.14941406,-0.96661377,0.42132568,-15.8125,-6.828125,-6.40625
232,232,1728019254018,0.16625977,-0.95440674,0.49041748,0.03125,-0.640625,-3.234375
233,233,1728019254058,0.13891602,-0.9417114,0.45721436,3.046875,1.453125,0.203125
234,234,1728019254098,0.12402344,-0.8855591,0.42401123,9.640625,3.625,4.109375
235,235,1728019254138,0.12036133,-0.8518677,0.40789795,10.265625,5.671875,6.921875
236,236,1728019254178,0.103515625,-0.86309814,0.39788818,12.75,9.625,9.0625
237,237,1728019254218,0.0925293,-0.8335571,0.3908081,8.296875,10.078125,9.015625
238,238,1728019254258,0.10131836,-0.85821533,0.40667725,12.1875,11.34375,13.28125
239,239,1728019254298,0.14086914,-0.8706665,0.39959717,16.015625,12.890625,19.0625
240,240,1728019254338,0.15527344,-0.88726807,0.39837646,30.109375,21.65625,22.5
241,241,1728019254378,0.20581055,-0.93951416,0.32757568,47.078125,23.5625,30.109375
242,242,1728019254418,0.30615234,-0.9229126,0.22210693,60.703125,26.6875,37.765625
243,243,1728019254458,0.34960938,-0.9241333,0.14251709,64.96875,25.84375,39.0
244,244,1728019254498,0.5161133,-1.3203735,0.1774292,87.09375,41.40625,29.0625
245,245,1728019254538,0.5041504,-1.0730591,-0.49908447,89.15625,20.15625,32.65625
246,246,1728019254578,0.7121582,-0.862854,-0.5405884,14.421875,-2.171875,15.65625
247,247,1728019254618,0.9055176,-0.9907837,-0.63067627,-24.6875,-53.03125,-2.828125
248,248,1728019254658,0.93896484,-1.060852,-0.24591064,-67.9375,-42.640625,18.390625
249,249,1728019254698,0.76904297,-1.0054321,-0.222229,7.1875,-9.984375,21.3125
250,250,1728019254738,0.73828125,-0.9241333,-0.13531494,35.59375,3.265625,18.4375
251,251,1728019254778,0.6472168,-0.8118286,-0.2000122,33.484375,6.4375,20.109375
252,252,1728019254818,0.67871094,-0.77349854,-0.17510986,2.546875,-13.515625,14.703125
253,253,1728019254858,0.72558594,-0.74835205,-0.17877197,-15.875,-14.0,8.375
254,254,1728019254898,0.6513672,-0.71710205,-0.13677979,21.6875,-6.828125,-1.96875
255,255,1728019254938,0.59350586,-0.65411377,-0.12432861,13.125,-7.78125,-9.3125
256,256,1728019254978,0.5136719,-0.6260376,-0.09259033,-4.8125,-6.734375,-10.640625
257,257,1728019255018,0.47680664,-0.57818604,-0.1585083,-2.859375,-5.96875,-11.65625
258,258,1728019255058,0.5187988,-0.5132446,-0.117492676,-15.171875,-7.578125,-12.15625
259,259,1728019255098,0.43286133,-0.54473877,-0.062805176,-15.28125,-9.75,-15.15625
260,260,1728019255138,0.40478516,-0.4968872,-0.10284424,-21.515625,-8.734375,-17.71875
261,261,1728019255178,0.40893555,-0.47442627,-0.08355713,-14.125,-12.96875,-19.015625
262,262,1728019255218,0.36987305,-0.49420166,-0.08087158,-5.5625,-4.34375,-13.328125
263,263,1728019255258,0.46533203,-0.5354614,-0.08673096,-7.34375,-8.4375,-11.59375
264,264,1728019255298,0.39648438,-0.57598877,-0.04522705,-9.359375,-2.703125,-11.609375
265,265,1728019255338,0.50756836,-0.7402954,-0.05206299,3.296875,5.046875,-7.3125
266,266,1728019255378,0.5649414,-0.91607666,-0.028869629,-5.34375,1.9375,-9.46875
267,267,1728019255418,0.5522461,-0.866272,-0.0491333,-5.34375,1.828125,-4.296875
268,268,1728019255458,0.48657227,-0.74957275,-0.06085205,-1.546875,1.03125,-2.375
269,269,1728019255498,0.45361328,-0.6987915,-0.066467285,1.3125,-0.8125,0.921875
270,270,1728019255538,0.52001953,-0.6983032,-0.10845947,-0.359375,0.375,4.3125
271,271,1728019255578,0.53100586,-0.62091064,-0.09942627,12.75,4.390625,6.046875
272,272,1728019255618,0.5500488,-0.68878174,-0.14630127,12.078125,0.6875,11.796875
273,273,1728019255658,0.4177246,-0.66070557,-0.17095947,18.796875,8.875,8.859375
274,274,1728019255698,0.34472656,-0.77008057,-0.1272583,13.4375,12.703125,13.640625
275,275,1728019255738,0.5761719,-0.61602783,-0.1885376,4.234375,11.15625,20.46875
276,276,1728019255778,0.6281738,-0.51446533,-0.15826416,19.984375,11.90625,17.15625
277,277,1728019255818,0.5439453,-0.6616821,-0.10040283,23.921875,16.09375,22.171875
278,278,1728019255858,0.5588379,-0.7227173,-0.16827393,6.03125,9.671875,28.296875
279,279,1728019255898,0.5554199,-0.5147095,-0.21002197,13.875,6.0,23.078125
280,280,1728019255938,0.5461426,-0.41607666,-0.13946533,13.265625,18.59375,13.84375
281,281,1728019255978,0.64990234,-0.67437744,-0.23809814,40.734375,4.671875,13.796875
282,282,1728019256018,0.42944336,-0.6482544,-0.41827393,-36.734375,10.234375,10.609375
283,283,1728019256058,0.515625,-0.24420166,0.018005371,41.484375,39.53125,-6.640625
284,284,1728019256098,0.8564453,-0.79693604,-0.26617432,5.109375,-23.28125,13.015625
285,285,1728019256138,0.5546875,-0.42633057,-0.49835205,2.359375,36.640625,7.609375
286,286,1728019256178,0.6376953,-0.84332275,-0.43267822,8.109375,-12.890625,-7.515625
287,287,1728019256218,0.9030762,-0.7473755,-0.49273682,-24.34375,10.6875,-6.234375
288,288,1728019256258,0.5461426,-0.40826416,-0.1375122,-52.0,18.296875,-20.671875
289,289,1728019256298,0.39575195,-0.89849854,-0.18365479,-35.109375,-1.03125,-15.484375
290,290,1728019256338,0.92944336,-0.7554321,-0.44024658,-5.09375,-10.234375,1.8125
291,291,1728019256378,0.65234375,-0.784729,-0.21392822,-20.40625,1.390625,-21.59375
292,292,1728019256418,0.7453613,-0.9846802,-0.27398682,-11.5625,-13.671875,-14.1875
293,293,1728019256458,0.6437988,-0.9390259,-0.34332275,-19.671875,-18.40625,-20.421875
294,294,1728019256498,0.6057129,-0.9194946,-0.12628174,-40.859375,-21.765625,-23.78125
295,295,1728019256538,0.49975586,-0.9439087,-0.06842041,-51.171875,-23.203125,-25.421875
296,296,1728019256578,0.4951172,-0.9963989,-0.020568848,-55.671875,-23.296875,-27.78125
297,297,1728019256618,0.5522461,-1.0847778,0.058776855,-59.71875,-23.078125,-24.75
298,298,1728019256658,0.560791,-1.1277466,0.16033936,-55.09375,-20.828125,-22.34375
299,299,1728019256698,0.47460938,-1.1133423,0.29193115,-36.9375,-15.921875,-22.640625
300,300,1728019256738,0.36376953,-1.0291138,0.38006592,-17.1875,-8.125,-21.703125
301,301,1728019256778,0.26293945,-0.88897705,0.34661865,-1.390625,-6.328125,-20.5
302,302,1728019256818,0.2121582,-0.7793579,0.34466553,-3.84375,-5.84375,-20.859375
303,303,1728019256858,0.15063477,-0.73516846,0.3283081,-4.65625,-6.34375,-21.171875
304,304,1728019256898,0.09277344,-0.7710571,0.34124756,-9.15625,-4.828125,-21.6875
305,305,1728019256938,0.111572266,-0.8196411,0.38641357,-25.84375,-2.1875,-17.09375
306,306,1728019256978,0.1538086,-0.90216064,0.39520264,-28.703125,-1.03125,-16.640625
307,307,1728019257018,0.22509766,-0.99957275,0.46136475,-25.84375,1.546875,-16.78125
308,308,1728019257058,0.12695312,-0.9553833,0.5387573,-9.015625,11.234375,-14.375
309,309,1728019257098,0.06225586,-0.9221802,0.43450928,-0.671875,-3.53125,-18.625
310,310,1728019257138,0.12451172,-0.9126587,0.4940796,5.046875,5.71875,-8.390625
311,311,1728019257178,0.088378906,-0.85040283,0.43792725,14.875,2.90625,-7.234375
312,312,1728019257218,0.024902344,-0.84625244,0.40496826,7.5,2.453125,-2.8125
313,313,1728019257258,0.056884766,-0.83673096,0.38494873,9.875,-7.234375,2.34375
314,314,1728019257298,0.059570312,-0.8272095,0.42816162,9.96875,-4.703125,4.75
315,315,1728019257338,0.09423828,-0.9170532,0.38909912,10.875,-8.5,16.71875
316,316,1728019257378,0.096191406,-0.956604,0.38006592,3.34375,-1.421875,15.828125
317,317,1728019257418,0.0715332,-0.9644165,0.3781128,18.234375,2.4375,17.59375
318,318,1728019257458,0.12036133,-0.9038696,0.3475952,21.4375,6.75,21.875
319,319,1728019257498,0.10205078,-0.87335205,0.32635498,43.15625,11.984375,27.046875
320,320,1728019257538,0.13208008,-0.8648071,0.29656982,57.625,18.640625,32.3125
321,321,1728019257578,0.2043457,-0.87213135,0.2333374,67.09375,16.78125,36.484375
322,322,1728019257618,0.2775879,-0.93536377,0.1708374,74.359375,22.453125,42.140625
323,323,1728019257658,0.37963867,-1.190979,0.16693115,90.515625,47.671875,35.03125
324,324,1728019257698,0.43554688,-1.2310181,-0.5462036,171.85938,48.609375,43.40625
325,325,1728019257738,0.7236328,-0.80596924,-0.82110596,74.84375,8.046875,25.3125
326,326,1728019257778,0.9663086,-0.9463501,-0.9649048,-29.859375,-49.734375,-10.359375
327,327,1728019257818,0.79174805,-1.0071411,-0.6326294,-61.125,-64.5625,-5.75
328,328,1728019257858,0.68408203,-0.87384033,-0.65704346,4.921875,-80.4375,75.390625
329,329,1728019257898,0.83251953,-0.7263794,-0.24957275,20.328125,8.875,21.609375
330,330,1728019257938,0.7314453,-0.59552,-0.27349854,-3.078125,-1.796875,19.375
331,331,1728019257978,0.7438965,-0.54693604,-0.33087158,4.546875,-20.734375,8.40625
332,332,1728019258018,0.7722168,-0.60650635,-0.26446533,17.078125,0.9375,1.359375
333,333,1728019258058,0.6948242,-0.72076416,-0.30352783,5.09375,2.0625,-3.90625
334,334,1728019258098,0.5944824,-0.5996704,-0.29473877,-24.296875,6.453125,-11.59375
335,335,1728019258138,0.578125,-0.5383911,-0.24591064,1.921875,-9.28125,-17.6875
336,336,1728019258178,0.5866699,-0.5274048,-0.2666626,-0.640625,0.9375,-20.65625
337,337,1728019258218,0.40014648,-0.52130127,-0.18609619,-12.046875,0.4375,-18.453125
338,338,1728019258258,0.49609375,-0.51397705,-0.23565674,-27.953125,-1.953125,-14.046875
339,339,1728019258298,0.5332031,-0.53497314,-0.21685791,-13.234375,-8.875,-13.84375
340,340,1728019258338,0.43920898,-0.5576782,-0.14556885,-7.609375,-6.703125,-18.015625
341,341,1728019258378,0.38916016,-0.44244385,-0.16680908,-13.375,-13.421875,-14.921875
342,342,1728019258418,0.39648438,-0.39019775,-0.14727783,-10.671875,-9.671875,-12.34375
343,343,1728019258458,0.4729004,-0.45855713,-0.1428833,-3.84375,-4.40625,-7.859375
344,344,1728019258498,0.56225586,-0.71661377,-0.15582275,-6.109375,-2.734375,-8.125
345,345,1728019258538,0.58691406,-0.79693604,-0.22418213,-11.765625,-0.375,-6.9375
346,346,1728019258578,0.51782227,-0.77130127,-0.18096924,-15.3125,4.34375,-7.296875
347,347,1728019258618,0.50439453,-0.7866821,-0.175354,-10.453125,1.53125,-7.875
348,348,1728019258658,0.4519043,-0.8074341,-0.1350708,-9.65625,6.296875,-6.671875
349,349,1728019258698,0.44848633,-0.81256104,-0.17315674,-2.78125,1.5625,0.84375
350,350,1728019258738,0.5336914,-0.6819458,-0.20440674,-6.71875,0.71875,5.796875
351,351,1728019258778,0.5019531,-0.62457275,-0.18170166,9.671875,7.875,5.421875
352,352,1728019258818,0.5046387,-0.71099854,-0.19024658,3.0625,9.75,9.6875
353,353,1728019258858,0.5300293,-0.66851807,-0.24615479,1.65625,12.015625,9.6875
354,354,1728019258898,0.5822754,-0.5930786,-0.23516846,10.09375,15.203125,11.421875
355,355,1728019258938,0.5661621,-0.56451416,-0.22418213,22.46875,12.21875,14.84375
356,356,1728019258978,0.5107422,-0.46368408,-0.24786377,17.90625,2.265625,23.671875
357,357,1728019259018,0.44677734,-0.27374268,-0.2041626,15.90625,14.21875,23.015625
358,358,1728019259058,0.39941406,-0.3189087,-0.1428833,32.65625,17.046875,15.703125
359,359,1728019259098,0.45532227,-0.7852173,-0.3477173,-6.109375,-17.5625,20.71875
360,360,1728019259138,0.81469727,-0.4854126,-0.12017822,-37.15625,14.46875,-9.4375
361,361,1728019259178,0.5332031,-0.80963135,-0.23468018,58.4375,34.921875,-8.453125
362,362,1728019259218,0.37695312,-0.6096802,-0.39093018,-12.4375,14.375,26.1875
363,363,1728019259258,0.59936523,-0.50250244,-0.35162354,35.359375,-37.140625,15.34375
364,364,1728019259298,0.4724121,-0.6121216,-0.44000244,20.859375,-3.140625,36.046875
365,365,1728019259338,0.79174805,-0.6123657,-0.25177002,-2.515625,42.265625,-17.890625
366,366,1728019259378,0.71606445,-0.5964966,-0.41607666,7.46875,15.484375,5.578125
367,367,1728019259418,0.46850586,-0.472229,-0.331604,-22.546875,27.390625,-15.640625
368,368,1728019259458,0.65722656,-0.7991333,-0.49273682,-5.578125,4.140625,-15.96875
369,369,1728019259498,0.9157715,-0.66656494,-0.38580322,-12.90625,5.828125,-25.953125
370,370,1728019259538,0.55029297,-0.8076782,-0.473938,-18.90625,-4.65625,-26.4375
371,371,1728019259578,0.6977539,-0.8599243,-0.45684814,-38.421875,-7.65625,-20.375
372,372,1728019259618,0.7426758,-0.9343872,-0.44854736,-37.71875,-7.484375,-27.09375
373,373,1728019259658,0.57543945,-0.86309814,-0.2571411,-42.953125,-10.203125,-32.53125
374,374,1728019259698,0.51049805,-1.0110474,-0.22906494,-59.484375,-16.796875,-32.53125
375,375,1728019259738,0.5317383,-1.1775513,-0.17315674,-76.546875,-20.9375,-32.234375
376,376,1728019259778,0.54589844,-1.3289185,-0.015930176,-85.46875,-24.234375,-33.953125
377,377,1728019259818,0.48828125,-1.3120728,0.16693115,-60.25,-22.96875,-28.3125
378,378,1728019259858,0.32885742,-1.1253052,0.31170654,-21.421875,-11.265625,-31.828125
379,379,1728019259898,0.14331055,-0.90216064,0.33148193,10.78125,-3.1875,-29.328125
380,380,1728019259938,0.02709961,-0.74468994,0.3234253,-0.078125,4.859375,-24.0625
381,381,1728019259978,-0.011962891,-0.67926025,0.2994995,-7.140625,-1.0625,-17.671875
382,382,1728019260018,0.06323242,-0.7739868,0.27825928,-19.75,-11.765625,-11.4375
383,383,1728019260058,0.12524414,-0.8406372,0.31610107,-37.53125,-10.171875,-17.8125
384,384,1728019260098,0.09326172,-1.0049438,0.35980225,-28.125,-8.609375,-19.078125
385,385,1728019260138,0.10083008,-1.0613403,0.40081787,-33.15625,-14.875,-14.046875
386,386,1728019260178,0.08959961,-0.98223877,0.45404053,-7.875,-6.9375,-11.390625
387,387,1728019260218,0.042236328,-0.97540283,0.4286499,-2.1875,-9.8125,-6.984375
388,388,1728019260258,0.016357422,-0.8845825,0.4076538,12.265625,-8.21875,-1.5
389,389,1728019260298,0.049560547,-0.8916626,0.40496826,9.671875,-4.71875,0.28125
390,390,1728019260338,0.001953125,-0.82037354,0.33831787,7.34375,-1.640625,-1.4375
391,391,1728019260378,-0.004638672,-0.91729736,0.32196045,6.5,-7.296875,-0.296875
392,392,1728019260418,0.06323242,-0.90045166,0.39007568,-8.515625,6.78125,-0.5
393,393,1728019260458,0.012939453,-0.8899536,0.3859253,1.703125,3.703125,0.28125
394,394,1728019260498,0.026855469,-0.96661377,0.38885498,5.671875,0.765625,4.421875
395,395,1728019260538,0.05102539,-0.95098877,0.3637085,3.171875,7.5625,6.484375
396,396,1728019260578,0.011474609,-0.89971924,0.41815186,10.0,14.34375,9.25
397,397,1728019260618,-0.038330078,-0.8831177,0.28485107,-3.578125,12.0,10.140625
398,398,1728019260658,0.08251953,-0.99102783,0.291687,28.421875,10.3125,23.75
399,399,1728019260698,0.107421875,-0.9104614,0.29730225,21.03125,8.921875,26.53125
400,400,1728019260738,0.05908203,-0.8858032,0.30950928,27.421875,9.703125,29.09375
401,401,1728019260778,0.068359375,-0.7527466,0.30633545,48.609375,8.359375,31.6875
402,402,1728019260818,0.099853516,-0.91607666,0.22259521,66.234375,16.140625,42.046875
403,403,1728019260858,0.23168945,-0.9312134,0.18817139,57.25,17.65625,47.28125
404,404,1728019260898,0.3840332,-1.0003052,0.2267456,59.703125,22.921875,36.59375
405,405,1728019260938,0.609375,-1.3550415,-0.42388916,172.67188,58.984375,41.4375
406,406,1728019260978,0.79125977,-1.1716919,-0.6565552,71.875,6.6875,22.296875
407,407,1728019261018,0.73706055,-0.9319458,-0.76690674,10.890625,-3.03125,9.25
408,408,1728019261058,0.8405762,-1.0969849,-0.67071533,-9.234375,-58.6875,19.84375
409,409,1728019261098,0.70043945,-1.055481,-0.50567627,-4.953125,-77.5625,48.90625
410,410,1728019261138,0.95166016,-0.8206177,-0.41534424,13.734375,-84.59375,22.375
411,411,1728019261178,0.8894043,-0.53302,-0.2539673,41.296875,-5.0,37.46875
412,412,1728019261218,0.7902832,-0.4841919,-0.41680908,75.046875,21.765625,20.796875
413,413,1728019261258,0.59033203,-0.7078247,-0.37042236,-15.734375,31.796875,5.640625
414,414,1728019261298,0.58813477,-0.8418579,-0.3189087,-5.5625,-14.3125,-14.609375
415,415,1728019261338,0.77197266,-0.585022,-0.3411255,-24.390625,-32.71875,-24.53125
416,416,1728019261378,0.6279297,-0.4282837,-0.26861572,29.59375,9.234375,-10.046875
417,417,1728019261418,0.4506836,-0.4475708,-0.35723877,-4.546875,19.875,-14.859375
418,418,1728019261458,0.3881836,-0.52056885,-0.21783447,-31.671875,-0.09375,-25.078125
419,419,1728019261498,0.4699707,-0.46929932,-0.19464111,-37.78125,-4.03125,-18.0625
420,420,1728019261538,0.4086914,-0.40386963,-0.22442627,-10.890625,12.859375,-25.515625
421,421,1728019261578,0.38549805,-0.378479,-0.1795044,-29.296875,-2.34375,-12.84375
422,422,1728019261618,0.4819336,-0.41461182,-0.23492432,-22.515625,-5.828125,-17.625
423,423,1728019261658,0.48779297,-0.5093384,-0.26837158,-12.3125,-3.890625,-24.03125
424,424,1728019261698,0.53149414,-0.6152954,-0.19171143,-25.453125,-1.921875,-5.953125
425,425,1728019261738,0.49804688,-0.65338135,-0.2642212,-8.46875,-1.28125,-1.0
426,426,1728019261778,0.46142578,-0.66485596,-0.21710205,-9.328125,5.265625,-6.421875
427,427,1728019261818,0.5109863,-0.72735596,-0.20709229,-9.0625,3.78125,-3.109375
428,428,1728019261858,0.52001953,-0.80792236,-0.22271729,-8.375,5.59375,-1.828125
429,429,1728019261898,0.4741211,-0.79571533,-0.21832275,-5.515625,3.5625,-1.53125
430,430,1728019261938,0.5124512,-0.75250244,-0.22296143,-2.140625,1.796875,2.3125
431,431,1728019261978,0.50878906,-0.7893677,-0.21929932,-0.5,6.78125,5.609375
432,432,1728019262018,0.5029297,-0.76226807,-0.21295166,-2.1875,4.71875,3.625
433,433,1728019262058,0.53759766,-0.7481079,-0.24151611,-3.390625,4.484375,5.90625
434,434,1728019262098,0.48388672,-0.7214966,-0.19586182,2.234375,10.078125,2.296875
435,435,1728019262138,0.49609375,-0.86553955,-0.20709229,1.0625,5.65625,9.125
436,436,1728019262178,0.5649414,-0.8242798,-0.25494385,2.640625,0.140625,13.203125
437,437,1728019262218,0.5671387,-0.64019775,-0.2695923,9.078125,4.6875,12.96875
438,438,1728019262258,0.5073242,-0.5623169,-0.28985596,9.671875,1.921875,8.40625
439,439,1728019262298,0.48754883,-0.5095825,-0.2703247,22.03125,4.5625,8.15625
440,440,1728019262338,0.40283203,-0.5401001,-0.2522583,9.921875,15.609375,6.0625
441,441,1728019262378,0.58203125,-0.6045532,-0.26153564,15.71875,-1.234375,15.59375
442,442,1728019262418,0.48217773,-0.40753174,-0.29888916,19.078125,1.6875,15.4375
443,443,1728019262458,0.56347656,-0.36309814,-0.23223877,21.921875,-7.796875,14.4375
444,444,1728019262498,0.3942871,-0.29351807,-0.13604736,11.84375,7.265625,10.984375
445,445,1728019262538,0.2919922,-0.5508423,-0.38238525,-2.4375,-17.96875,13.234375
446,446,1728019262578,0.73339844,-0.5640259,-0.14776611,-40.421875,9.875,12.40625
447,447,1728019262618,0.41601562,-0.7283325,-0.29229736,43.0625,15.15625,0.875
448,448,1728019262658,0.7023926,-0.6135864,-0.47686768,-38.0625,16.46875,16.09375
449,449,1728019262698,0.6904297,-0.6235962,-0.32843018,3.84375,7.859375,-7.90625
450,450,1728019262738,0.5222168,-0.60650635,-0.3916626,-30.625,25.46875,-10.453125
451,451,1728019262778,0.40795898,-0.784729,-0.24273682,15.0625,16.390625,-22.25
452,452,1728019262818,0.65722656,-0.6799927,-0.38433838,1.8125,26.75,-15.609375
453,453,1728019262858,0.9133301,-0.83477783,-0.6799927,-28.40625,14.765625,-20.15625
454,454,1728019262898,0.515625,-0.9859009,-0.38555908,-34.3125,-20.4375,-33.765625
455,455,1728019262938,0.55566406,-0.94073486,-0.37921143,-26.875,-8.046875,-23.0
456,456,1728019262978,0.6064453,-0.9536743,-0.33355713,-33.328125,-4.765625,-16.609375
457,457,1728019263018,0.58447266,-0.9385376,-0.30889893,-40.125,-10.109375,-22.78125
458,458,1728019263058,0.4716797,-1.0032349,-0.16705322,-66.4375,-21.328125,-29.984375
459,459,1728019263098,0.47631836,-1.1514282,-0.043762207,-78.765625,-26.203125,-27.65625
460,460,1728019263138,0.5168457,-1.2866821,0.03387451,-82.859375,-27.46875,-25.375
461,461,1728019263178,0.4177246,-1.3237915,0.23480225,-66.484375,-23.78125,-25.09375
462,462,1728019263218,0.27197266,-1.1814575,0.36444092,-35.90625,-12.515625,-23.84375
463,463,1728019263258,0.13232422,-0.9463501,0.40374756,-5.640625,-2.921875,-25.1875
464,464,1728019263298,0.021728516,-0.76568604,0.38250732,3.015625,6.5625,-22.21875
465,465,1728019263338,-0.033935547,-0.67388916,0.36273193,-5.96875,4.078125,-17.703125
466,466,1728019263378,0.048339844,-0.6995239,0.26434326,-8.140625,-12.671875,-13.28125
467,467,1728019263418,0.095458984,-0.8831177,0.40057373,-23.703125,-12.453125,-14.53125
468,468,1728019263458,0.09863281,-0.9307251,0.3973999,-30.6875,-10.75,-13.625
469,469,1728019263498,0.060302734,-0.96881104,0.45648193,-24.8125,-6.78125,-11.125
470,470,1728019263538,0.08081055,-0.99664307,0.47650146,-19.34375,-7.03125,-4.3125
471,471,1728019263578,0.0690918,-0.9763794,0.51190186,-10.296875,0.328125,-3.640625
472,472,1728019263618,0.072021484,-0.9043579,0.49700928,7.28125,5.046875,-6.734375
473,473,1728019263658,0.064208984,-0.8574829,0.42962646,11.21875,3.46875,-3.171875
474,474,1728019263698,0.07910156,-0.8401489,0.48236084,33.421875,6.3125,-0.171875
475,475,1728019263738,0.0036621094,-0.8875122,0.31976318,1.953125,-2.953125,0.6875
476,476,1728019263778,0.034179688,-0.9072876,0.3439331,16.9375,-0.953125,7.21875
477,477,1728019263818,0.03930664,-0.87335205,0.37225342,5.171875,1.390625,6.484375
478,478,1728019263858,0.030761719,-0.9126587,0.36834717,11.65625,3.296875,11.875
479,479,1728019263898,0.06958008,-0.954895,0.3756714,16.828125,3.046875,16.28125
480,480,1728019263938,0.111572266,-0.90704346,0.3632202,22.515625,9.75,23.6875
481,481,1728019263978,0.12133789,-0.8862915,0.32635498,34.828125,12.859375,23.578125
482,482,1728019264018,0.111572266,-0.8711548,0.25628662,69.390625,9.609375,35.875
483,483,1728019264058,0.1430664,-0.83306885,0.16986084,77.453125,19.53125,37.984375
484,484,1728019264098,0.25170898,-0.90631104,0.031921387,71.09375,17.71875,43.921875
485,485,1728019264138,0.32177734,-1.0100708,-0.07989502,67.84375,10.953125,35.859375
486,486,1728019264178,0.36157227,-1.0232544,0.03729248,84.390625,33.125,25.296875
487,487,1728019264218,0.40185547,-1.1707153,-0.77423096,137.73438,46.3125,27.390625
488,488,1728019264258,0.7805176,-0.9402466,-0.8726196,60.65625,13.421875,17.296875
489,489,1728019264298,0.7739258,-0.8010864,-0.95025635,-11.703125,-4.046875,-5.8125
490,490,1728019264338,0.6850586,-0.95098877,-0.75616455,-38.0625,-41.15625,-15.34375
491,491,1728019264378,0.50341797,-1.0349731,-0.58551025,-0.359375,-74.9375,47.0625
492,492,1728019264418,0.7541504,-0.6843872,-0.55914307,50.9375,-48.828125,51.234375
493,493,1728019264458,0.9343262,-0.5654907,-0.5054321,23.15625,-75.640625,32.65625
494,494,1728019264498,0.7468262,-0.5508423,-0.5298462,-12.5625,38.546875,35.609375
495,495,1728019264538,0.8041992,-0.7359009,-0.2300415,3.078125,32.734375,10.34375
496,496,1728019264578,0.5908203,-0.7937622,-0.44024658,-9.140625,-2.21875,-18.203125
497,497,1728019264618,0.64282227,-0.52960205,-0.35577393,-13.390625,-17.828125,-15.96875
498,498,1728019264658,0.5876465,-0.4619751,-0.33013916,7.296875,-7.859375,-23.609375
499,499,1728019264698,0.61083984,-0.5186157,-0.2979126,-20.296875,-8.09375,-30.671875
500,500,1728019264738,0.4560547,-0.52227783,-0.30426025,-7.21875,12.296875,-26.8125
501,501,1728019264778,0.42114258,-0.4343872,-0.24493408,-45.296875,-15.953125,-18.765625
502,502,1728019264818,0.46972656,-0.47784424,-0.29644775,-30.34375,9.109375,-16.796875
503,503,1728019264858,0.3557129,-0.6314087,-0.22955322,-43.46875,1.4375,-15.96875
504,504,1728019264898,0.45581055,-0.6279907,-0.25982666,-9.328125,-12.546875,-11.703125
505,505,1728019264938,0.52246094,-0.5100708,-0.16217041,5.953125,-13.09375,-4.6875
506,506,1728019264978,0.33325195,-0.30596924,-0.09136963,12.375,13.515625,-14.96875
507,507,1728019265018,0.15600586,-0.20562744,-0.14801025,8.34375,0.390625,-9.734375
508,508,1728019265058,0.34448242,-0.39068604,-0.3118286,15.046875,-51.84375,1.8125
509,509,1728019265098,0.74975586,-1.0545044,-0.34429932,18.65625,5.578125,30.984375
510,510,1728019265138,0.45874023,-1.3777466,-0.21832275,-53.578125,16.96875,4.671875
511,511,1728019265178,0.5461426,-0.6272583,-0.24810791,15.265625,24.03125,3.296875
512,512,1728019265218,0.4182129,-0.505188,-0.30352783,-20.046875,3.453125,-2.46875
513,513,1728019265258,0.48510742,-0.9573364,-0.27130127,-1.359375,-3.484375,9.03125
514,514,1728019265298,0.56225586,-0.661438,-0.25909424,-5.84375,-0.734375,4.6875
515,515,1728019265338,0.5144043,-0.7888794,-0.28936768,-1.609375,3.609375,-5.140625
516,516,1728019265378,0.43847656,-0.8933716,-0.17242432,-10.609375,1.625,-4.640625
517,517,1728019265418,0.47827148,-0.97003174,-0.1951294,-12.734375,-2.84375,-0.859375
518,518,1728019265458,0.52978516,-0.74957275,-0.28375244,-6.109375,1.71875,-1.9375
519,519,1728019265498,0.47680664,-0.5913696,-0.27423096,5.296875,-1.65625,-4.796875
520,520,1728019265538,0.4584961,-0.6851196,-0.28375244,4.59375,-0.75,-2.671875
521,521,1728019265578,0.52490234,-0.6453247,-0.28985596,-0.296875,-2.75,3.9375
522,522,1728019265618,0.59228516,-0.48565674,-0.30621338,-3.03125,2.34375,5.0625
523,523,1728019265658,0.4230957,-0.40509033,-0.13165283,28.96875,27.03125,7.671875
524,524,1728019265698,0.3815918,-0.54522705,-0.21685791,5.828125,-1.015625,20.140625
525,525,1728019265738,0.52075195,-0.72320557,-0.28131104,-17.921875,-30.6875,10.140625
526,526,1728019265778,0.7158203,-1.0422974,-0.1975708,5.84375,9.015625,2.4375
527,527,1728019265818,0.5036621,-0.7971802,-0.25201416,10.296875,36.140625,7.90625
528,528,1728019265858,0.27563477,-0.3086548,-0.29742432,22.734375,4.328125,10.015625
529,529,1728019265898,0.3630371,-0.51934814,-0.32720947,27.671875,7.765625,13.109375
530,530,1728019265938,0.58569336,-0.47247314,-0.39727783,-13.3125,-20.53125,7.90625
531,531,1728019265978,0.4230957,-0.29449463,-0.2744751,105.625,-50.359375,70.640625
532,532,1728019266018,0.6008301,-0.47320557,-0.46759033,5.0,81.234375,5.609375
533,533,1728019266058,0.16210938,-0.5232544,-0.30889893,68.203125,34.34375,-5.265625
534,534,1728019266098,0.7849121,-0.5527954,-0.4055786,-63.4375,-51.53125,25.703125
535,535,1728019266138,1.1374512,-0.5864868,-0.48590088,-26.078125,5.671875,-23.109375
536,536,1728019266178,0.1484375,-0.77349854,-0.53302,-18.375,39.265625,-39.765625
537,537,1728019266218,0.8105469,-0.7041626,-0.39361572,-7.5625,16.875,-18.890625
538,538,1728019266258,0.4897461,-0.7815552,-0.45587158,-21.921875,3.25,-23.96875
539,539,1728019266298,0.6899414,-0.8521118,-0.5444946,-27.578125,-5.3125,-18.109375
540,540,1728019266338,0.68725586,-0.9273071,-0.47808838,-41.65625,-2.5,-24.4375
541,541,1728019266378,0.5957031,-0.93292236,-0.41851807,-26.34375,-5.15625,-25.96875
542,542,1728019266418,0.57543945,-1.0479126,-0.3850708,-48.65625,-10.46875,-28.953125
543,543,1728019266458,0.6555176,-1.2368774,-0.40753174,-66.25,-14.046875,-28.921875
544,544,1728019266498,0.6816406,-1.3633423,-0.30767822,-88.09375,-21.78125,-27.015625
545,545,1728019266538,0.5263672,-1.2776489,0.016296387,-76.984375,-19.984375,-30.609375
546,546,1728019266578,0.29785156,-1.0464478,0.17010498,-14.703125,-4.84375,-22.546875
547,547,1728019266618,0.16357422,-0.8460083,0.17401123,-0.078125,-0.515625,-16.15625
548,548,1728019266658,0.09887695,-0.7173462,0.18499756,2.21875,-4.40625,-16.921875
549,549,1728019266698,0.07861328,-0.71954346,0.1605835,-18.34375,-8.0,-19.515625
550,550,1728019266738,0.10058594,-0.73516846,0.15814209,-23.8125,-8.453125,-18.125
551,551,1728019266778,0.17578125,-0.8772583,0.18719482,-37.125,-10.921875,-18.875
552,552,1728019266818,0.23120117,-0.9800415,0.20037842,-47.8125,-13.40625,-18.578125
553,553,1728019266858,0.24609375,-1.1184692,0.29437256,-22.484375,-7.25,-15.921875
554,554,1728019266898,0.2006836,-1.1189575,0.32659912,-24.359375,-9.5,-9.421875
555,555,1728019266938,0.072265625,-0.9631958,0.3991089,8.71875,-0.640625,-9.734375
556,556,1728019266978,0.03491211,-0.9397583,0.36883545,6.765625,-4.015625,-3.5625
557,557,1728019267018,0.032958984,-0.8538208,0.33392334,13.203125,-1.046875,-1.609375
558,558,1728019267058,0.020751953,-0.8381958,0.32025146,18.234375,-1.828125,-0.625
559,559,1728019267098,0.029052734,-0.8843384,0.3209839,0.046875,-3.46875,-1.578125
560,560,1728019267138,0.0048828125,-0.956604,0.34075928,-1.640625,-0.34375,-0.96875
561,561,1728019267178,0.036621094,-0.90460205,0.31756592,8.171875,-3.75,2.65625
562,562,1728019267218,0.114746094,-1.0405884,0.31610107,-1.640625,-1.609375,5.1875
563,563,1728019267258,0.12792969,-0.9854126,0.28631592,12.0625,4.90625,8.671875
564,564,1728019267298,0.08496094,-0.93829346,0.26263428,25.109375,9.15625,11.90625
565,565,1728019267338,0.06689453,-0.91729736,0.19696045,27.984375,11.0,18.4375
566,566,1728019267378,0.068115234,-0.89434814,0.14910889,16.6875,12.890625,21.15625
567,567,1728019267418,0.12670898,-0.8635864,0.14202881,45.796875,16.09375,25.390625
568,568,1728019267458,0.16674805,-0.94073486,0.1071167,40.484375,16.375,36.140625
569,569,1728019267498,0.28173828,-0.9314575,0.054626465,63.3125,20.3125,35.328125
570,570,1728019267538,0.35229492,-1.1314087,-0.035949707,89.046875,32.96875,39.828125
571,571,1728019267578,0.37182617,-1.1287231,-0.30718994,98.953125,27.625,39.125
572,572,1728019267618,0.33666992,-1.0806274,-0.61309814,86.90625,22.734375,32.4375
573,573,1728019267658,0.6057129,-0.9277954,-0.73931885,25.671875,-4.34375,26.625
574,574,1728019267698,0.74609375,-0.8694458,-0.91192627,-2.515625,-26.1875,3.34375
575,575,1728019267738,0.77685547,-0.89556885,-0.7022095,-34.8125,-64.015625,13.03125
576,576,1728019267778,0.82006836,-0.9939575,-0.45391846,-66.625,-49.4375,17.28125
577,577,1728019267818,0.7739258,-0.9006958,-0.32061768,-31.796875,-22.59375,19.203125
578,578,1728019267858,0.66967773,-0.72857666,-0.3015747,44.90625,4.984375,12.15625
579,579,1728019267898,0.5998535,-0.8435669,-0.34454346,71.046875,-11.9375,9.375
580,580,1728019267938,0.6833496,-0.7451782,-0.30914307,-37.640625,-13.5,-0.5
581,581,1728019267978,0.7138672,-0.73394775,-0.29156494,-10.21875,-0.90625,-2.125
582,582,1728019268018,0.6689453,-0.7127075,-0.17266846,-4.71875,-5.921875,-5.984375
583,583,1728019268058,0.5251465,-0.6567993,-0.23199463,4.140625,-1.90625,-16.484375
584,584,1728019268098,0.42626953,-0.57159424,-0.21954346,-12.203125,-16.15625,-14.640625
585,585,1728019268138,0.4897461,-0.49468994,-0.13409424,-26.8125,-19.9375,-15.1875
586,586,1728019268178,0.40283203,-0.5171509,-0.15899658,-18.859375,-10.25,-19.8125
587,587,1728019268218,0.3869629,-0.44366455,-0.15655518,-11.734375,-15.09375,-19.953125
588,588,1728019268258,0.4416504,-0.38531494,-0.11383057,-5.828125,18.265625,-18.75
589,589,1728019268298,0.18774414,-0.26641846,-0.1716919,-12.296875,-7.421875,-16.4375
590,590,1728019268338,0.42944336,-0.33502197,-0.15386963,-1.015625,-10.5625,-2.546875
591,591,1728019268378,0.4489746,-0.5845337,-0.19195557,41.21875,-0.28125,-5.984375
592,592,1728019268418,0.55981445,-1.0737915,-0.2649536,-24.09375,-11.203125,-0.90625
593,593,1728019268458,0.6484375,-0.8909302,-0.17388916,-4.0,1.890625,-1.59375
594,594,1728019268498,0.44360352,-0.72369385,-0.14678955,-13.953125,4.8125,2.0625
595,595,1728019268538,0.38232422,-0.68756104,-0.20684814,-2.984375,3.5,0.328125
596,596,1728019268578,0.48461914,-0.8323364,-0.12213135,-4.671875,5.375,2.015625
597,597,1728019268618,0.5148926,-0.7937622,-0.16192627,-12.28125,8.171875,2.125
598,598,1728019268658,0.49267578,-0.7637329,-0.19610596,-0.703125,7.015625,2.5
599,599,1728019268698,0.5229492,-0.78326416,-0.18414307,-4.59375,3.53125,4.734375
600,600,1728019268738,0.5251465,-0.7036743,-0.16827393,5.09375,8.875,5.515625
601,601,1728019268778,0.5361328,-0.6502075,-0.20123291,13.84375,5.625,10.75
602,602,1728019268818,0.6052246,-0.5303345,-0.2642212,18.359375,-4.265625,17.90625
603,603,1728019268858,0.63305664,-0.40264893,-0.3369751,35.28125,-15.75,31.390625
604,604,1728019268898,0.6032715,-0.30108643,-0.37139893,33.21875,-7.21875,25.78125
605,605,1728019268938,0.46826172,-0.24908447,-0.1182251,48.71875,27.859375,9.5625
606,606,1728019268978,0.044677734,-0.53326416,-0.0881958,32.265625,10.3125,17.203125
607,607,1728019269018,0.3166504,-0.644104,-0.6367798,-12.125,-44.078125,41.984375
608,608,1728019269058,0.61816406,-0.54107666,0.06756592,-70.859375,45.546875,-10.984375
609,609,1728019269098,0.9016113,-0.7925415,-0.32208252,9.34375,-3.84375,24.0625
610,610,1728019269138,0.46191406,-0.3682251,-0.22808838,-32.15625,75.875,-24.078125
611,611,1728019269178,0.2614746,-0.8311157,-0.24395752,60.09375,-18.640625,3.046875
612,612,1728019269218,0.7536621,-0.58135986,-0.4133911,-44.359375,-2.828125,7.71875
613,613,1728019269258,0.8647461,-0.5430298,-0.38604736,-1.734375,14.421875,-14.875
614,614,1728019269298,0.77612305,-0.79034424,-0.3562622,-50.609375,15.875,-16.484375
615,615,1728019269338,0.65527344,-0.7539673,-0.395813,-5.5625,3.234375,-13.40625
616,616,1728019269378,0.6208496,-0.85479736,-0.31695557,-11.15625,-6.375,-12.640625
617,617,1728019269418,0.67529297,-0.78253174,-0.3320923,-11.046875,0.65625,-24.3125
618,618,1728019269458,0.62060547,-0.98516846,-0.36846924,-21.90625,-9.421875,-20.53125
619,619,1728019269498,0.7416992,-0.92266846,-0.3406372,-24.234375,-9.8125,-20.890625
620,620,1728019269538,0.5300293,-0.9859009,-0.20025635,-49.5,-13.265625,-36.5625
621,621,1728019269578,0.4970703,-1.0835571,-0.06768799,-58.296875,-14.578125,-28.0
622,622,1728019269618,0.6057129,-1.2717896,-0.070617676,-75.734375,-13.140625,-19.125
623,623,1728019269658,0.63427734,-1.3665161,0.10101318,-78.03125,-12.859375,-21.796875
624,624,1728019269698,0.47607422,-1.2276001,0.29266357,-44.671875,-7.546875,-24.21875
625,625,1728019269738,0.31469727,-0.9915161,0.387146,-11.5625,-2.484375,-25.078125
626,626,1728019269778,0.1862793,-0.8569946,0.3414917,5.4375,-5.609375,-24.546875
627,627,1728019269818,0.08178711,-0.6851196,0.2999878,0.59375,-5.09375,-22.828125
628,628,1728019269858,0.059570312,-0.6929321,0.29364014,-16.734375,-8.96875,-23.390625
629,629,1728019269898,0.076171875,-0.7102661,0.28216553,-30.453125,-12.875,-20.484375
630,630,1728019269938,0.17822266,-0.8970337,0.3131714,-43.171875,-16.296875,-13.15625
631,631,1728019269978,0.2043457,-0.94488525,0.418396,-40.96875,-14.46875,-13.21875
632,632,1728019270018,0.13476562,-1.0254517,0.52264404,-21.859375,-4.09375,-13.40625
633,633,1728019270058,0.12475586,-1.0359497,0.4935913,-17.8125,-6.6875,-6.75
634,634,1728019270098,0.11401367,-0.9155884,0.55804443,4.296875,2.375,-7.65625
635,635,1728019270138,0.005859375,-0.85650635,0.508728,11.9375,7.453125,-6.265625
636,636,1728019270178,0.017333984,-0.78302,0.45184326,14.140625,4.828125,-2.609375
637,637,1728019270218,0.035888672,-0.786438,0.45037842,10.203125,2.046875,-1.6875
638,638,1728019270258,0.03930664,-0.848938,0.4286499,2.875,-1.84375,0.203125
639,639,1728019270298,0.013427734,-0.86968994,0.449646,2.890625,-1.578125,2.71875
640,640,1728019270338,0.047607422,-0.88946533,0.48724365,7.015625,3.921875,6.15625
641,641,1728019270378,0.06298828,-0.93951416,0.44403076,8.453125,4.296875,9.796875
642,642,1728019270418,0.083740234,-0.91729736,0.44378662,24.078125,6.4375,13.3125
643,643,1728019270458,0.07495117,-0.8513794,0.41082764,41.046875,14.140625,14.859375
644,644,1728019270498,0.08666992,-0.8623657,0.35858154,44.765625,12.953125,20.4375
645,645,1728019270538,0.11791992,-0.864563,0.26654053,74.234375,21.765625,28.4375
646,646,1728019270578,0.19628906,-0.8858032,0.14056396,86.21875,24.875,36.375
647,647,1728019270618,0.21875,-1.0637817,0.016784668,73.09375,11.296875,29.9375
648,648,1728019270658,0.41015625,-1.1240845,0.02532959,96.203125,17.640625,22.78125
649,649,1728019270698,0.32373047,-1.187561,-0.58721924,135.92188,25.453125,19.359375
650,650,1728019270738,0.5788574,-1.0357056,-0.88653564,49.375,-3.421875,17.875
651,651,1728019270778,0.88549805,-0.98150635,-0.76568604,-28.125,-27.4375,-16.515625
652,652,1728019270818,0.46850586,-1.21344,-0.55474854,-50.3125,-55.265625,1.59375
653,653,1728019270858,0.40722656,-1.0481567,-0.40338135,50.171875,-92.34375,74.34375
654,654,1728019270898,1.1157227,-0.6790161,-0.39361572,-17.953125,-68.90625,74.640625
655,655,1728019270938,0.8718262,-0.6182251,-0.35528564,95.625,26.875,52.0
656,656,1728019270978,0.5617676,-0.7022095,-0.5183716,36.171875,33.984375,9.21875
657,657,1728019271018,0.60498047,-0.9849243,-0.4031372,-48.4375,11.921875,-37.515625
658,658,1728019271058,0.6323242,-0.76568604,-0.34503174,-40.640625,7.578125,-7.78125
659,659,1728019271098,0.66503906,-0.47491455,-0.20928955,-21.6875,8.109375,-5.265625
660,660,1728019271138,0.5192871,-0.52545166,-0.30670166,-1.234375,-19.21875,-19.265625
661,661,1728019271178,0.56591797,-0.62506104,-0.2774048,-3.0,-17.375,-13.875
662,662,1728019271218,0.48413086,-0.630188,-0.23590088,7.0,7.390625,-13.671875
663,663,1728019271258,0.2529297,-0.62823486,-0.30889893,-20.96875,7.578125,-23.6875
664,664,1728019271298,0.31079102,-0.4746704,-0.17706299,-39.75,-0.265625,-13.078125
665,665,1728019271338,0.31860352,-0.39361572,-0.105529785,-34.625,12.6875,-17.953125
666,666,1728019271378,0.36157227,-0.32281494,-0.22149658,-31.203125,-6.609375,-17.296875
667,667,1728019271418,0.32885742,-0.26690674,-0.2630005,-16.59375,-7.375,-9.328125
668,668,1728019271458,0.35302734,-0.49273682,-0.27423096,8.8125,-1.671875,2.953125
669,669,1728019271498,0.5126953,-0.76812744,-0.2937622,3.03125,0.59375,-0.890625
670,670,1728019271538,0.6257324,-0.8501587,-0.31500244,-9.34375,3.6875,1.546875
671,671,1728019271578,0.5539551,-0.8362427,-0.30596924,0.359375,6.078125,3.5
672,672,1728019271618,0.4494629,-0.7839966,-0.2617798,-9.609375,7.171875,-2.265625
673,673,1728019271658,0.4099121,-0.7490845,-0.21661377,-6.078125,6.109375,1.125
674,674,1728019271698,0.4819336,-0.71710205,-0.25079346,-9.234375,4.59375,8.515625
675,675,1728019271738,0.4807129,-0.6838989,-0.29278564,-0.0625,6.90625,7.15625
676,676,1728019271778,0.5292969,-0.7522583,-0.2522583,-2.40625,6.34375,3.21875
677,677,1728019271818,0.49951172,-0.74102783,-0.29107666,-1.625,6.890625,6.53125
678,678,1728019271858,0.51220703,-0.6140747,-0.3591919,-0.21875,2.734375,13.96875
679,679,1728019271898,0.4868164,-0.4890747,-0.32037354,16.390625,10.3125,4.8125
680,680,1728019271938,0.3515625,-0.4517212,-0.24737549,13.546875,16.015625,2.171875
681,681,1728019271978,0.3984375,-0.51104736,-0.28253174,6.78125,12.890625,18.421875
682,682,1728019272018,0.38354492,-0.4277954,-0.25836182,4.234375,19.359375,10.265625
683,683,1728019272058,0.375,-0.6331177,-0.23565674,17.296875,8.0,20.8125
684,684,1728019272098,0.5913086,-0.3977661,-0.34039307,-29.40625,15.828125,12.265625
685,685,1728019272138,0.3479004,-0.7630005,-0.24810791,51.078125,-18.25,6.265625
686,686,1728019272178,0.4140625,-0.6038208,-0.24737549,-41.609375,30.125,0.828125
687,687,1728019272218,0.40942383,-0.41241455,-0.2991333,42.359375,6.046875,-1.75
688,688,1728019272258,0.66381836,-0.91729736,-0.364563,-13.3125,-31.375,21.359375
689,689,1728019272298,0.50927734,-0.57037354,-0.4854126,-59.875,9.015625,-19.328125
690,690,1728019272338,0.72387695,-1.0588989,-0.09820557,-19.890625,8.90625,-12.8125
691,691,1728019272378,0.46020508,-0.7913208,-0.46051025,5.75,2.5625,-6.8125
692,692,1728019272418,0.6130371,-0.70928955,-0.13677979,-30.75,4.515625,-20.328125
693,693,1728019272458,0.28149414,-0.8526001,-0.18511963,-19.65625,2.0,-30.640625
694,694,1728019272498,0.5427246,-0.9338989,-0.14752197,-31.890625,-15.796875,-23.84375
695,695,1728019272538,0.6591797,-1.060852,-0.18536377,-22.28125,-3.9375,-23.46875
696,696,1728019272578,0.6706543,-1.1685181,-0.2390747,-40.46875,-15.328125,-19.8125
697,697,1728019272618,0.6647949,-1.5176392,-0.20172119,-80.15625,-18.703125,-21.5
698,698,1728019272658,0.82299805,-1.6819458,-0.08404541,-78.4375,-23.453125,-16.5625
699,699,1728019272698,0.57177734,-1.4590454,0.24725342,-56.625,-30.109375,-21.90625
700,700,1728019272738,0.33935547,-0.87213135,0.34906006,11.75,-13.8125,-32.703125
701,701,1728019272778,-0.022216797,-0.7954712,0.34173584,20.6875,-2.6875,-22.59375
702,702,1728019272818,-0.012451172,-0.5906372,0.26605225,14.765625,-8.984375,-11.421875
703,703,1728019272858,-0.019042969,-0.6489868,0.25286865,-33.078125,-11.921875,-14.984375
704,704,1728019272898,-0.014892578,-0.6956177,0.2675171,-40.109375,-19.203125,-14.40625
705,705,1728019272938,0.0107421875,-0.87579346,0.2753296,-61.8125,-25.59375,-13.84375
706,706,1728019272978,0.12866211,-0.9771118,0.4286499,-60.9375,-19.6875,-16.078125
707,707,1728019273018,0.1184082,-1.1255493,0.5219116,-42.328125,-15.890625,-11.4375
708,708,1728019273058,0.12695312,-1.0369263,0.5765991,-23.75,-12.75,-7.109375
709,709,1728019273098,0.064208984,-0.9890747,0.6703491,9.796875,-5.109375,-5.65625
710,710,1728019273138,0.024414062,-0.8699341,0.5861206,12.484375,-2.953125,1.125
711,711,1728019273178,0.029296875,-0.74420166,0.5067749,31.5625,2.890625,1.890625
712,712,1728019273218,0.009277344,-0.74224854,0.42303467,15.53125,1.484375,0.671875
713,713,1728019273258,0.014404297,-0.7632446,0.49017334,1.75,6.078125,0.578125
714,714,1728019273298,0.0029296875,-0.8118286,0.47283936,-1.1875,4.796875,2.71875
715,715,1728019273338,0.036865234,-0.88848877,0.46380615,-9.171875,1.765625,5.375
716,716,1728019273378,0.07788086,-0.89508057,0.5055542,5.71875,8.421875,7.828125
717,717,1728019273418,0.04711914,-0.92926025,0.5446167,17.625,12.03125,12.75
718,718,1728019273458,0.037353516,-0.92022705,0.4689331,6.65625,13.4375,18.828125
719,719,1728019273498,0.1184082,-0.86846924,0.4052124,38.015625,20.703125,28.25
720,720,1728019273538,0.15014648,-0.77838135,0.34832764,47.15625,19.34375,24.546875
721,721,1728019273578,0.07714844,-0.81866455,0.32513428,68.453125,24.890625,29.84375
722,722,1728019273618,0.23095703,-0.9065552,0.23162842,89.984375,14.109375,44.09375
723,723,1728019273658,0.32470703,-0.9763794,0.19744873,103.65625,21.109375,42.171875
724,724,1728019273698,0.41577148,-1.2578735,-0.18341064,127.90625,28.046875,31.296875
725,725,1728019273738,0.81689453,-1.0874634,-0.53253174,88.1875,24.453125,36.28125
726,726,1728019273778,0.8137207,-0.90216064,-0.79644775,3.25,-20.375,4.109375
727,727,1728019273818,0.7409668,-1.0527954,-0.51934814,-38.125,-54.125,-9.765625
728,728,1728019273858,0.6916504,-1.159729,-0.5462036,-32.125,-44.921875,11.140625
729,729,1728019273898,0.86572266,-1.0569458,-0.31256104,-59.109375,-22.03125,35.75
730,730,1728019273938,0.7441406,-0.9273071,-0.1560669,-1.59375,2.53125,19.984375
731,731,1728019273978,0.6430664,-0.90460205,-0.2366333,46.46875,-6.515625,12.484375
732,732,1728019274018,0.640625,-0.7686157,-0.21807861,111.734375,-14.359375,40.234375
733,733,1728019274058,0.5720215,-0.8936157,-0.38897705,-0.46875,6.578125,-0.28125
734,734,1728019274098,0.6665039,-0.7617798,-0.2288208,-20.234375,-2.703125,-4.890625
735,735,1728019274138,0.6347656,-0.60040283,-0.17095947,-12.4375,8.890625,-7.890625
736,736,1728019274178,0.60668945,-0.66192627,-0.17218018,16.078125,0.078125,-20.625
737,737,1728019274218,0.45751953,-0.63360596,-0.22662354,-20.703125,0.5625,-21.234375
738,738,1728019274258,0.47607422,-0.548645,-0.1638794,-17.8125,0.796875,-36.296875
739,739,1728019274298,0.4404297,-0.6194458,-0.12799072,-33.53125,1.859375,-17.609375
740,740,1728019274338,0.2524414,-0.40899658,-0.08258057,-24.65625,13.859375,-24.125
741,741,1728019274378,0.079589844,-0.21685791,-0.11993408,-33.140625,0.375,-23.25
742,742,1728019274418,0.25024414,-0.05279541,-0.19537354,-45.4375,-7.921875,-1.109375
743,743,1728019274458,0.33154297,-0.30181885,-0.22979736,-6.765625,-10.953125,2.796875
744,744,1728019274498,0.5517578,-0.76397705,-0.31304932,87.265625,-13.515625,6.515625
745,745,1728019274538,0.70996094,-1.333313,-0.3567505,-23.953125,15.734375,-11.96875
746,746,1728019274578,0.49438477,-0.8328247,-0.18927002,-14.140625,25.484375,-4.484375
747,747,1728019274618,0.40161133,-0.61846924,-0.26324463,-12.484375,11.671875,-2.625
748,748,1728019274658,0.44677734,-0.6958618,-0.18414307,5.40625,11.453125,0.953125
749,749,1728019274698,0.51660156,-0.7227173,-0.2539673,2.515625,2.09375,11.671875
750,750,1728019274738,0.53271484,-0.60772705,-0.33624268,10.265625,3.140625,14.078125
751,751,1728019274778,0.5229492,-0.5618286,-0.33502197,19.8125,5.78125,14.375
752,752,1728019274818,0.50683594,-0.50909424,-0.40997314,11.328125,3.140625,19.515625
753,753,1728019274858,0.47338867,-0.4710083,-0.3652954,22.265625,18.6875,20.671875
754,754,1728019274898,0.39453125,-0.72442627,-0.2930298,15.140625,-0.15625,5.796875
755,755,1728019274938,0.25952148,-0.7061157,-0.25933838,-24.171875,22.21875,11.296875
756,756,1728019274978,0.39794922,-0.37652588,-0.10040283,27.390625,35.203125,9.375
757,757,1728019275018,0.21899414,-0.5117798,-0.23980713,27.09375,8.421875,19.75
758,758,1728019275058,0.27294922,-0.39093018,-0.39898682,-5.09375,-13.734375,42.296875
759,759,1728019275098,0.8959961,-0.44244385,-0.15093994,-6.140625,-10.21875,14.71875
