,Unnamed: 0,timestamp,accel_x,accel_y,accel_z,gyro_x,gyro_y,gyro_z
0,0,1727973959140,-0.0107421875,-0.92285156,-0.4267578,0.125,-0.03125,-0.09375
1,1,1727973959180,-0.017578125,-0.9199219,-0.4345703,0.1875,-0.03125,0.15625
2,2,1727973959220,-0.018554688,-0.9248047,-0.41796875,-0.09375,-0.09375,-0.03125
3,3,1727973959260,-0.0234375,-0.9199219,-0.43652344,-0.34375,-0.03125,-0.15625
4,4,1727973959300,-0.016601562,-0.92578125,-0.44335938,-0.21875,-0.09375,-0.09375
5,5,1727973959340,-0.009765625,-0.9199219,-0.4326172,-0.15625,-0.15625,-0.03125
6,6,1727973959380,-0.015625,-0.91796875,-0.43652344,0.0625,0.03125,-0.15625
7,7,1727973959420,-0.01953125,-0.9238281,-0.42089844,-0.21875,-0.09375,-0.09375
8,8,1727973959460,-0.0107421875,-0.9345703,-0.43164062,0.03125,0.03125,-0.09375
9,9,1727973959500,-0.018554688,-0.91796875,-0.4267578,0.4375,0.03125,-0.03125
10,10,1727973959540,-0.0146484375,-0.9267578,-0.4140625,0.125,-0.09375,0.09375
11,11,1727973959580,-0.015625,-0.9199219,-0.4345703,0.0625,0.03125,0.03125
12,12,1727973959620,-0.026367188,-0.9248047,-0.4267578,0.125,0.03125,0.03125
13,13,1727973959660,-0.01953125,-0.93066406,-0.4189453,-0.78125,0.09375,-0.15625
14,14,1727973959700,-0.0146484375,-0.9199219,-0.4248047,-0.84375,-0.09375,-0.15625
15,15,1727973959740,-0.017578125,-0.9189453,-0.43066406,-1.4375,-0.09375,-0.21875
16,16,1727973959780,-0.021484375,-0.9248047,-0.43359375,-0.71875,-0.15625,-0.03125
17,17,1727973959820,-0.018554688,-0.92285156,-0.43945312,-0.03125,0.03125,0.03125
18,18,1727973959860,-0.02734375,-0.92285156,-0.43652344,-0.46875,-0.09375,-0.09375
19,19,1727973959900,-0.013671875,-0.9238281,-0.44433594,-0.09375,-0.09375,0.03125
20,20,1727973959940,-0.020507812,-0.92285156,-0.43652344,-0.03125,-0.09375,-0.15625
21,21,1727973959980,-0.013671875,-0.9248047,-0.43652344,-0.21875,-0.15625,0.03125
22,22,1727973960020,-0.018554688,-0.92871094,-0.4248047,0.25,-0.09375,0.15625
23,23,1727973960060,-0.0146484375,-0.92578125,-0.4169922,-0.46875,-0.21875,-0.15625
24,24,1727973960100,-0.015625,-0.92578125,-0.43359375,-0.90625,-0.15625,-0.15625
25,25,1727973960140,-0.013671875,-0.92089844,-0.42773438,-0.15625,-0.21875,-0.09375
26,26,1727973960180,-0.016601562,-0.9248047,-0.4326172,-0.09375,-0.03125,-0.15625
27,27,1727973960220,-0.015625,-0.92089844,-0.43847656,-0.15625,-0.03125,-0.09375
28,28,1727973960260,-0.020507812,-0.921875,-0.43164062,0.4375,0.03125,0.15625
29,29,1727973960300,-0.013671875,-0.92089844,-0.41308594,0.625,-0.15625,0.03125
30,30,1727973960340,-0.0146484375,-0.9199219,-0.43164062,0.375,-0.03125,-0.09375
31,31,1727973960380,-0.0146484375,-0.9248047,-0.44140625,0.1875,-0.15625,0.03125
32,32,1727973960420,-0.015625,-0.92089844,-0.4267578,0.03125,-0.09375,0.09375
33,33,1727973960460,-0.0146484375,-0.92285156,-0.4423828,-0.71875,-0.15625,-0.21875
34,34,1727973960500,-0.018554688,-0.9248047,-0.44726562,-1.15625,-0.09375,-0.34375
35,35,1727973960540,-0.009765625,-0.92871094,-0.43847656,-1.3125,-0.15625,-0.15625
36,36,1727973960580,-0.0107421875,-0.92871094,-0.44335938,-0.65625,-0.03125,-0.09375
37,37,1727973960620,-0.013671875,-0.9199219,-0.4326172,-0.59375,-0.09375,-0.15625
38,38,1727973960660,-0.016601562,-0.92578125,-0.44628906,0.375,-0.03125,0.15625
39,39,1727973960700,-0.018554688,-0.9160156,-0.42773438,0.1875,0.15625,-0.03125
40,40,1727973960740,-0.016601562,-0.9160156,-0.43164062,-0.46875,-0.09375,-0.15625
41,41,1727973960780,-0.013671875,-0.9199219,-0.4423828,0.03125,0.03125,-0.03125
42,42,1727973960820,-0.026367188,-0.9248047,-0.43164062,0.1875,-0.09375,0.03125
43,43,1727973960860,-0.022460938,-0.9238281,-0.41992188,-0.09375,-0.03125,0.15625
44,44,1727973960900,-0.017578125,-0.9199219,-0.4345703,0.0625,-0.03125,-0.03125
45,45,1727973960940,-0.016601562,-0.92285156,-0.43847656,0.8125,0.09375,-0.03125
46,46,1727973960980,-0.016601562,-0.9238281,-0.42871094,0.5,0.03125,-0.15625
47,47,1727973961020,-0.0234375,-0.9267578,-0.42871094,0.375,0.03125,-0.03125
48,48,1727973961060,-0.016601562,-0.9199219,-0.42871094,-0.09375,-0.03125,-0.09375
49,49,1727973961100,-0.022460938,-0.9277344,-0.42382812,0.03125,0.03125,0.15625
50,50,1727973961140,-0.017578125,-0.9296875,-0.43066406,0.03125,-0.09375,0.09375
51,51,1727973961180,-0.013671875,-0.92578125,-0.42285156,-0.84375,-0.03125,-0.15625
52,52,1727973961220,-0.0146484375,-0.9267578,-0.4345703,-1.21875,-0.15625,-0.28125
53,53,1727973961260,-0.016601562,-0.92285156,-0.45117188,-0.84375,-0.03125,-0.15625
54,54,1727973961300,-0.0126953125,-0.9160156,-0.43652344,-0.78125,-0.15625,-0.21875
55,55,1727973961340,-0.009765625,-0.92285156,-0.43652344,-0.71875,-0.15625,0.03125
56,56,1727973961380,-0.020507812,-0.91503906,-0.4169922,-0.09375,-0.03125,0.09375
57,57,1727973961420,-0.018554688,-0.91503906,-0.44140625,-0.09375,-0.09375,-0.03125
58,58,1727973961460,-0.01953125,-0.91796875,-0.4326172,-0.53125,-0.09375,-0.09375
59,59,1727973961500,-0.0146484375,-0.9277344,-0.43554688,-0.09375,-0.09375,-0.21875
60,60,1727973961540,-0.013671875,-0.921875,-0.4248047,0.125,-0.09375,0.03125
61,61,1727973961580,-0.013671875,-0.9160156,-0.4404297,0.25,0.15625,0.03125
62,62,1727973961620,-0.015625,-0.92285156,-0.44335938,0.3125,0.03125,-0.09375
63,63,1727973961660,-0.0068359375,-0.93066406,-0.42871094,0.3125,-0.09375,0.09375
64,64,1727973961700,-0.016601562,-0.9248047,-0.43164062,0.03125,-0.03125,-0.09375
65,65,1727973961740,-0.016601562,-0.9160156,-0.42871094,-0.21875,-0.03125,-0.09375
66,66,1727973961780,-0.015625,-0.93066406,-0.43652344,-0.34375,0.03125,-0.15625
67,67,1727973961820,-0.0107421875,-0.92871094,-0.4326172,-0.59375,-0.15625,0.09375
68,68,1727973961860,-0.016601562,-0.9238281,-0.41601562,-0.09375,-0.09375,0.09375
69,69,1727973961900,-0.018554688,-0.921875,-0.4345703,0.03125,-0.03125,0.03125
70,70,1727973961940,-0.0234375,-0.9199219,-0.4326172,-0.21875,-0.03125,-0.03125
71,71,1727973961980,-0.017578125,-0.92285156,-0.4267578,-0.28125,-0.09375,-0.21875
72,72,1727973962020,-0.0107421875,-0.9169922,-0.43066406,0.25,0.03125,-0.15625
73,73,1727973962060,-0.016601562,-0.92285156,-0.4375,-0.40625,0.03125,-0.09375
74,74,1727973962100,-0.01171875,-0.9238281,-0.44433594,-0.53125,-0.09375,-0.21875
75,75,1727973962140,-0.0126953125,-0.9248047,-0.42285156,-0.09375,-0.15625,-0.03125
76,76,1727973962180,-0.024414062,-0.9248047,-0.42285156,-0.09375,-0.21875,-0.03125
77,77,1727973962220,-0.016601562,-0.9267578,-0.43066406,0.0625,0.03125,-0.03125
78,78,1727973962260,-0.01171875,-0.9277344,-0.4345703,-0.21875,-0.03125,-0.09375
79,79,1727973962300,-0.013671875,-0.92871094,-0.43945312,-0.28125,-0.09375,-0.03125
80,80,1727973962340,-0.017578125,-0.92871094,-0.42871094,-0.15625,-0.09375,-0.15625
81,81,1727973962380,-0.015625,-0.9355469,-0.4345703,-0.21875,-0.15625,0.03125
82,82,1727973962420,-0.0146484375,-0.91796875,-0.421875,-0.03125,-0.03125,0.09375
83,83,1727973962460,-0.016601562,-0.9238281,-0.4345703,0.25,0.09375,0.03125
84,84,1727973962500,-0.021484375,-0.9199219,-0.43066406,-0.21875,-0.09375,-0.09375
85,85,1727973962540,-0.016601562,-0.9267578,-0.41992188,-0.09375,-0.03125,-0.15625
86,86,1727973962580,-0.020507812,-0.9316406,-0.4248047,-0.15625,-0.21875,-0.09375
87,87,1727973962620,-0.0107421875,-0.92089844,-0.4248047,-0.03125,-0.21875,0.09375
88,88,1727973962660,-0.016601562,-0.9238281,-0.4326172,-0.15625,-0.09375,0.15625
89,89,1727973962700,-0.013671875,-0.9248047,-0.4248047,-0.59375,0.09375,-0.09375
90,90,1727973962740,-0.017578125,-0.92089844,-0.4375,-0.34375,-0.15625,-0.09375
91,91,1727973962780,-0.017578125,-0.9238281,-0.42578125,-0.46875,-0.09375,-0.09375
92,92,1727973962820,-0.022460938,-0.92871094,-0.44335938,-0.59375,-0.03125,-0.15625
93,93,1727973962860,-0.01953125,-0.92089844,-0.4404297,0.4375,0.03125,0.03125
94,94,1727973962900,-0.015625,-0.9267578,-0.43359375,0.25,-0.09375,0.09375
95,95,1727973962940,-0.013671875,-0.9345703,-0.42578125,0.1875,-0.15625,0.15625
96,96,1727973962980,-0.02734375,-0.9277344,-0.4296875,0.5,-0.15625,-0.03125
97,97,1727973963020,-0.013671875,-0.9199219,-0.4296875,-0.09375,-0.03125,-0.09375
98,98,1727973963060,-0.01171875,-0.91503906,-0.42382812,-0.03125,-0.03125,0.03125
99,99,1727973963100,-0.013671875,-0.92578125,-0.42578125,-0.03125,-0.09375,-0.03125
100,100,1727973963140,-0.022460938,-0.9277344,-0.43847656,-0.65625,-0.15625,-0.34375
101,101,1727973963180,-0.0107421875,-0.92578125,-0.43164062,-0.09375,-0.09375,-0.09375
102,102,1727973963220,-0.020507812,-0.9296875,-0.43164062,0.03125,-0.03125,0.21875
103,103,1727973963260,-0.0234375,-0.9277344,-0.42089844,-0.15625,-0.03125,0.09375
104,104,1727973963300,-0.0126953125,-0.92871094,-0.42773438,-0.21875,-0.09375,-0.03125
105,105,1727973963340,-0.017578125,-0.92285156,-0.43164062,-0.28125,-0.03125,-0.03125
106,106,1727973963380,-0.024414062,-0.92578125,-0.43652344,-0.21875,-0.03125,-0.15625
107,107,1727973963420,-0.017578125,-0.91796875,-0.42382812,-0.46875,-0.03125,-0.21875
108,108,1727973963460,-0.021484375,-0.9316406,-0.4375,-0.21875,-0.09375,0.15625
109,109,1727973963500,-0.017578125,-0.93066406,-0.4267578,-0.46875,-0.15625,0.03125
110,110,1727973963540,-0.022460938,-0.9238281,-0.42773438,-0.46875,-0.15625,-0.03125
111,111,1727973963580,-0.017578125,-0.9238281,-0.44335938,-0.03125,-0.09375,0.03125
112,112,1727973963620,-0.018554688,-0.9277344,-0.42285156,0.03125,-0.03125,-0.09375
113,113,1727973963660,-0.021484375,-0.921875,-0.42285156,-0.625,0.03125,-0.09375
114,114,1727973963700,-0.021484375,-0.91796875,-0.4248047,-0.75,0.03125,-0.15625
115,115,1727973963740,-0.022460938,-0.92285156,-0.42089844,-1.125,-0.03125,-0.15625
116,116,1727973963780,-0.013671875,-0.9140625,-0.4404297,-1.375,0.03125,-0.34375
117,117,1727973963820,-0.0087890625,-0.9189453,-0.4423828,-0.40625,-0.21875,0.15625
118,118,1727973963860,-0.015625,-0.9169922,-0.4296875,-0.28125,0.09375,-0.15625
119,119,1727973963900,-0.015625,-0.91308594,-0.43066406,0.21875,0.09375,-0.03125
120,120,1727973963940,-0.0146484375,-0.9267578,-0.4326172,0.53125,0.09375,0.03125
121,121,1727973963980,-0.0234375,-0.9238281,-0.4345703,0.21875,0.15625,0.09375
122,122,1727973964020,-0.017578125,-0.9277344,-0.42578125,0.53125,-0.09375,0.09375
123,123,1727973964060,-0.020507812,-0.9248047,-0.4404297,0.34375,0.03125,0.09375
124,124,1727973964100,-0.022460938,-0.9277344,-0.4404297,0.46875,0.15625,-0.03125
125,125,1727973964140,-0.0146484375,-0.92285156,-0.43554688,0.53125,-0.03125,-0.15625
126,126,1727973964180,-0.021484375,-0.921875,-0.4189453,0.40625,0.09375,-0.21875
127,127,1727973964220,-0.015625,-0.91796875,-0.42578125,0.34375,0.03125,-0.21875
128,128,1727973964260,-0.0087890625,-0.9316406,-0.43164062,-0.09375,-0.03125,-0.09375
129,129,1727973964300,-0.0107421875,-0.9316406,-0.42089844,-0.5,-0.03125,0.09375
130,130,1727973964340,-0.018554688,-0.91796875,-0.42285156,-1.0625,-0.09375,-0.21875
131,131,1727973964380,-0.015625,-0.9277344,-0.42382812,-0.5,-0.03125,-0.15625
132,132,1727973964420,-0.016601562,-0.93066406,-0.4345703,-1.0625,0.03125,-0.09375
133,133,1727973964460,-0.020507812,-0.9296875,-0.44140625,-2.59375,0.09375,-0.09375
134,134,1727973964500,-0.0146484375,-0.921875,-0.42773438,-2.65625,0.09375,-0.34375
135,135,1727973964540,-0.021484375,-0.9248047,-0.44335938,-3.09375,0.09375,-0.5
136,136,1727973964580,-0.015625,-0.92089844,-0.44140625,-3.3125,0.21875,-0.6875
137,137,1727973964620,-0.01953125,-0.9189453,-0.44140625,-1.75,-0.03125,-0.34375
138,138,1727973964660,-0.017578125,-0.93066406,-0.4248047,0.46875,0.03125,0.09375
139,139,1727973964700,-0.018554688,-0.9248047,-0.4404297,3.28125,-0.03125,0.46875
140,140,1727973964740,-0.0146484375,-0.92089844,-0.43164062,4.5,0.03125,0.65625
141,141,1727973964780,-0.016601562,-0.9238281,-0.43164062,4.78125,-0.03125,0.46875
142,142,1727973964820,-0.01953125,-0.9248047,-0.4267578,4.78125,0.09375,0.40625
143,143,1727973964860,-0.026367188,-0.92285156,-0.42089844,3.15625,-0.03125,0.21875
144,144,1727973964900,-0.020507812,-0.92578125,-0.44628906,1.0625,0.09375,-0.03125
145,145,1727973964940,-0.020507812,-0.9316406,-0.41601562,0.59375,0.03125,-0.15625
146,146,1727973964980,-0.017578125,-0.9248047,-0.41796875,0.46875,-0.03125,-0.09375
147,147,1727973965020,-0.026367188,-0.9267578,-0.42285156,-1.0625,0.15625,-0.5625
148,148,1727973965060,-0.01171875,-0.9267578,-0.4248047,-1.4375,0.03125,-0.21875
149,149,1727973965100,-0.0029296875,-0.9189453,-0.42871094,-1.625,0.09375,-0.15625
150,150,1727973965140,-0.013671875,-0.921875,-0.4326172,-1.0625,-0.09375,0.28125
151,151,1727973965180,-0.024414062,-0.921875,-0.42578125,-1.1875,0.03125,-0.03125
152,152,1727973965220,-0.021484375,-0.9248047,-0.42773438,-2.21875,0.03125,-0.21875
153,153,1727973965260,-0.018554688,-0.9199219,-0.4453125,-2.65625,-0.03125,-0.40625
154,154,1727973965300,-0.017578125,-0.9267578,-0.42871094,-1.0,-0.09375,-0.34375
155,155,1727973965340,-0.0126953125,-0.9248047,-0.4248047,0.34375,-0.03125,0.03125
156,156,1727973965380,-0.0146484375,-0.9189453,-0.4375,1.4375,-0.03125,0.09375
157,157,1727973965420,-0.01953125,-0.92871094,-0.4326172,2.71875,-0.03125,0.34375
158,158,1727973965460,-0.017578125,-0.9199219,-0.43359375,2.40625,0.03125,0.21875
159,159,1727973965500,-0.015625,-0.9267578,-0.43359375,2.21875,-0.09375,0.15625
160,160,1727973965540,-0.0234375,-0.9267578,-0.42773438,2.09375,0.09375,0.09375
161,161,1727973965580,-0.021484375,-0.9404297,-0.42382812,0.34375,0.15625,-0.34375
162,162,1727973965620,-0.0146484375,-0.9296875,-0.41992188,0.09375,0.09375,-0.15625
163,163,1727973965660,-0.015625,-0.9296875,-0.41015625,0.28125,0.09375,-0.03125
164,164,1727973965700,-0.017578125,-0.9199219,-0.41601562,-0.75,0.03125,-0.03125
165,165,1727973965740,-0.020507812,-0.9238281,-0.4267578,-0.8125,-0.03125,0.15625
166,166,1727973965780,-0.016601562,-0.93066406,-0.42089844,-1.4375,-0.09375,-0.21875
167,167,1727973965820,-0.022460938,-0.92285156,-0.43847656,-0.9375,0.03125,-0.09375
168,168,1727973965860,-0.01171875,-0.9248047,-0.42382812,-0.8125,0.03125,-0.21875
169,169,1727973965900,-0.0107421875,-0.9267578,-0.43359375,-0.34375,0.03125,-0.03125
170,170,1727973965940,-0.01953125,-0.92871094,-0.43164062,0.03125,0.03125,-0.09375
171,171,1727973965980,-0.018554688,-0.921875,-0.42382812,1.4375,-0.09375,0.46875
172,172,1727973966020,-0.020507812,-0.9267578,-0.42382812,1.0625,0.09375,0.09375
173,173,1727973966060,-0.01953125,-0.9199219,-0.43945312,1.3125,-0.09375,0.53125
174,174,1727973966100,-0.021484375,-0.91796875,-0.41796875,0.40625,0.15625,-0.09375
175,175,1727973966140,-0.017578125,-0.9316406,-0.41796875,-0.8125,0.15625,-0.21875
176,176,1727973966180,-0.018554688,-0.9277344,-0.43652344,-1.0,0.09375,-0.21875
177,177,1727973966220,-0.021484375,-0.91796875,-0.4345703,-1.3125,-0.03125,0.09375
178,178,1727973966260,-0.018554688,-0.92871094,-0.4404297,-0.46875,-0.21875,0.15625
179,179,1727973966300,-0.015625,-0.9316406,-0.42382812,0.40625,0.03125,0.15625
180,180,1727973966340,-0.018554688,-0.9238281,-0.4375,-0.5625,-0.03125,0.09375
181,181,1727973966380,-0.0234375,-0.9326172,-0.4345703,-1.3125,0.09375,-0.15625
182,182,1727973966420,-0.0146484375,-0.91796875,-0.42285156,-1.0,0.09375,-0.15625
183,183,1727973966460,-0.018554688,-0.9238281,-0.4326172,-0.75,0.15625,-0.6875
184,184,1727973966500,-0.0087890625,-0.91796875,-0.43945312,0.40625,0.03125,-0.21875
185,185,1727973966540,-0.013671875,-0.921875,-0.4267578,1.4375,0.15625,-0.34375
186,186,1727973966580,-0.020507812,-0.93066406,-0.42382812,2.90625,-0.03125,0.21875
187,187,1727973966620,-0.015625,-0.9199219,-0.42382812,2.59375,0.15625,0.34375
188,188,1727973966660,-0.024414062,-0.921875,-0.41796875,2.53125,-0.03125,0.78125
189,189,1727973966700,-0.020507812,-0.9277344,-0.42382812,0.78125,0.09375,-0.03125
190,190,1727973966740,-0.01953125,-0.9238281,-0.41308594,-0.75,-0.09375,-0.5
191,191,1727973966780,-0.017578125,-0.92871094,-0.4189453,-1.5,0.09375,-0.15625
192,192,1727973966820,-0.0234375,-0.9238281,-0.41796875,-4.53125,0.15625,-0.4375
193,193,1727973966860,-0.0146484375,-0.9316406,-0.4267578,-7.15625,0.15625,-0.875
194,194,1727973966900,-0.015625,-0.9238281,-0.43847656,-6.1875,-0.09375,-0.625
195,195,1727973966940,-0.021484375,-0.9248047,-0.4453125,-3.03125,0.03125,-0.6875
196,196,1727973966980,-0.0146484375,-0.9199219,-0.4375,-1.375,-0.03125,-0.5625
197,197,1727973967020,-0.0126953125,-0.91796875,-0.4560547,1.0,0.09375,0.03125
198,198,1727973967060,-0.01171875,-0.9277344,-0.43945312,2.71875,0.03125,0.46875
199,199,1727973967100,-0.015625,-0.921875,-0.4326172,4.4375,0.15625,0.46875
200,200,1727973967140,-0.017578125,-0.9267578,-0.43945312,5.71875,0.09375,0.53125
201,201,1727973967180,-0.01171875,-0.9267578,-0.41796875,5.59375,-0.03125,0.53125
202,202,1727973967220,-0.01171875,-0.9296875,-0.43164062,3.625,0.15625,0.21875
203,203,1727973967260,-0.0146484375,-0.9277344,-0.4326172,1.8125,-0.03125,0.21875
204,204,1727973967300,-0.021484375,-0.9248047,-0.4189453,0.34375,0.03125,0.46875
205,205,1727973967340,-0.01953125,-0.9267578,-0.4091797,-2.03125,-0.15625,-0.03125
206,206,1727973967380,-0.018554688,-0.9238281,-0.4169922,-3.8125,-0.03125,-0.28125
207,207,1727973967420,-0.02734375,-0.9199219,-0.42773438,-4.125,-0.09375,-0.6875
208,208,1727973967460,-0.017578125,-0.92089844,-0.4326172,-3.625,-0.09375,-0.4375
209,209,1727973967500,-0.018554688,-0.9189453,-0.42382812,-2.03125,-0.09375,-0.09375
210,210,1727973967540,-0.013671875,-0.9248047,-0.43847656,-1.0,-0.03125,-0.09375
211,211,1727973967580,-0.024414062,-0.92578125,-0.43847656,-0.46875,0.03125,-0.09375
212,212,1727973967620,-0.0146484375,-0.9267578,-0.43164062,0.09375,-0.03125,0.03125
213,213,1727973967660,-0.0146484375,-0.92871094,-0.45507812,0.875,-0.03125,-0.03125
214,214,1727973967700,-0.0146484375,-0.9316406,-0.43359375,1.3125,0.09375,-0.03125
215,215,1727973967740,-0.0087890625,-0.9160156,-0.43066406,2.09375,0.03125,0.15625
216,216,1727973967780,-0.017578125,-0.9248047,-0.4140625,2.78125,0.03125,0.34375
217,217,1727973967820,-0.0234375,-0.9238281,-0.42089844,2.21875,0.09375,0.34375
218,218,1727973967860,-0.0146484375,-0.9267578,-0.44140625,1.1875,0.15625,0.15625
219,219,1727973967900,-0.01953125,-0.9248047,-0.42285156,0.8125,0.03125,-0.09375
220,220,1727973967940,-0.021484375,-0.921875,-0.43066406,0.09375,0.09375,-0.09375
221,221,1727973967980,-0.017578125,-0.9316406,-0.4189453,-0.28125,-0.09375,-0.09375
222,222,1727973968020,-0.013671875,-0.93066406,-0.4296875,0.09375,0.09375,-0.03125
223,223,1727973968060,-0.013671875,-0.93066406,-0.4267578,0.03125,0.03125,-0.15625
224,224,1727973968100,-0.0107421875,-0.9248047,-0.42773438,-0.5,-0.03125,-0.21875
225,225,1727973968140,-0.018554688,-0.93652344,-0.4296875,0.03125,0.03125,0.03125
226,226,1727973968180,-0.017578125,-0.9296875,-0.41992188,0.03125,0.03125,-0.03125
227,227,1727973968220,-0.0146484375,-0.92089844,-0.43945312,-0.28125,0.09375,-0.15625
228,228,1727973968260,-0.017578125,-0.92285156,-0.4248047,0.21875,0.15625,0.03125
229,229,1727973968300,-0.016601562,-0.9277344,-0.41796875,0.65625,0.15625,0.09375
230,230,1727973968340,-0.017578125,-0.9326172,-0.42773438,0.8125,0.03125,0.03125
231,231,1727973968380,-0.01953125,-0.9277344,-0.42382812,1.3125,0.03125,0.03125
232,232,1727973968420,-0.0126953125,-0.9267578,-0.42382812,1.375,0.03125,0.28125
233,233,1727973968460,-0.021484375,-0.9326172,-0.41796875,0.9375,0.09375,0.09375
234,234,1727973968500,-0.020507812,-0.9267578,-0.4169922,0.34375,0.09375,-0.21875
235,235,1727973968540,-0.01953125,-0.9355469,-0.42773438,0.21875,0.03125,-0.40625
236,236,1727973968580,-0.015625,-0.9345703,-0.41796875,-0.21875,0.03125,-0.21875
237,237,1727973968620,-0.0146484375,-0.93066406,-0.4326172,-0.46875,-0.09375,-0.09375
238,238,1727973968660,-0.01953125,-0.9238281,-0.41796875,-0.40625,-0.03125,0.03125
239,239,1727973968700,-0.020507812,-0.921875,-0.42578125,-0.28125,-0.09375,-0.03125
240,240,1727973968740,-0.01953125,-0.9316406,-0.42382812,-0.46875,-0.09375,-0.15625
241,241,1727973968780,-0.01953125,-0.9277344,-0.4189453,-0.875,0.03125,-0.28125
242,242,1727973968820,-0.018554688,-0.92871094,-0.43554688,-0.5625,0.09375,-0.28125
243,243,1727973968860,-0.015625,-0.9326172,-0.4169922,-0.21875,0.03125,-0.09375
244,244,1727973968900,-0.021484375,-0.92871094,-0.43164062,-0.09375,-0.09375,-0.09375
245,245,1727973968940,-0.0234375,-0.93652344,-0.41992188,0.03125,0.03125,-0.15625
246,246,1727973968980,-0.01953125,-0.93066406,-0.41992188,0.46875,0.09375,-0.03125
247,247,1727973969020,-0.018554688,-0.93066406,-0.43359375,0.21875,-0.03125,-0.09375
248,248,1727973969060,-0.0146484375,-0.9199219,-0.41601562,-0.15625,0.03125,-0.21875
249,249,1727973969100,-0.022460938,-0.9375,-0.41601562,0.28125,0.09375,0.03125
250,250,1727973969140,-0.020507812,-0.9267578,-0.42382812,0.03125,-0.09375,0.28125
251,251,1727973969180,-0.022460938,-0.93066406,-0.4248047,-1.0625,-0.03125,-0.21875
252,252,1727973969220,-0.025390625,-0.9296875,-0.41992188,-0.21875,0.15625,-0.4375
253,253,1727973969260,-0.0146484375,-0.9248047,-0.42773438,0.15625,0.21875,-0.625
254,254,1727973969300,-0.009765625,-0.9267578,-0.41601562,-0.625,0.21875,-0.6875
255,255,1727973969340,-0.009765625,-0.92871094,-0.42871094,0.53125,0.21875,-0.21875
256,256,1727973969380,-0.016601562,-0.9277344,-0.42382812,0.9375,-0.09375,0.40625
257,257,1727973969420,-0.0146484375,-0.9267578,-0.42089844,1.125,-0.21875,0.34375
258,258,1727973969460,-0.024414062,-0.92871094,-0.41210938,0.71875,-0.03125,0.09375
259,259,1727973969500,-0.016601562,-0.9345703,-0.42871094,-0.15625,0.03125,-0.21875
260,260,1727973969540,-0.018554688,-0.9375,-0.42578125,0.21875,0.15625,-0.21875
261,261,1727973969580,-0.025390625,-0.92871094,-0.43164062,0.21875,0.09375,-0.09375
262,262,1727973969620,-0.018554688,-0.9277344,-0.4296875,0.40625,0.09375,-0.21875
263,263,1727973969660,-0.00390625,-0.9316406,-0.42285156,0.03125,0.09375,-0.21875
264,264,1727973969700,-0.0126953125,-0.92578125,-0.4248047,-0.09375,-0.03125,-0.09375
265,265,1727973969740,-0.015625,-0.9316406,-0.4248047,-0.28125,-0.03125,-0.03125
266,266,1727973969780,-0.015625,-0.92285156,-0.41210938,-1.0,0.09375,-0.28125
267,267,1727973969820,-0.0146484375,-0.92871094,-0.42285156,-1.1875,-0.09375,-0.21875
268,268,1727973969860,-0.01953125,-0.93066406,-0.4169922,-0.625,-0.09375,0.03125
269,269,1727973969900,-0.020507812,-0.9345703,-0.42285156,-0.9375,-0.03125,-0.03125
270,270,1727973969940,-0.0146484375,-0.9160156,-0.43359375,-0.625,-0.15625,-0.15625
271,271,1727973969980,-0.018554688,-0.9277344,-0.41992188,-1.0625,-0.03125,-0.34375
272,272,1727973970020,-0.01953125,-0.9326172,-0.4326172,-1.3125,-0.03125,-0.34375
273,273,1727973970060,-0.018554688,-0.91796875,-0.43554688,-0.28125,0.03125,-0.21875
274,274,1727973970100,-0.022460938,-0.92578125,-0.42285156,1.375,0.03125,0.15625
275,275,1727973970140,-0.009765625,-0.92871094,-0.41601562,2.09375,0.03125,0.34375
276,276,1727973970180,-0.0126953125,-0.9238281,-0.41992188,2.40625,0.03125,0.40625
277,277,1727973970220,-0.0107421875,-0.9238281,-0.4111328,1.8125,0.03125,0.21875
278,278,1727973970260,-0.022460938,-0.92871094,-0.4248047,0.34375,0.03125,0.03125
279,279,1727973970300,-0.0146484375,-0.94628906,-0.41992188,0.03125,-0.15625,-0.03125
280,280,1727973970340,-0.01953125,-0.9267578,-0.42773438,-0.8125,-0.03125,-0.21875
281,281,1727973970380,-0.0107421875,-0.9404297,-0.41992188,-2.28125,0.09375,-0.4375
282,282,1727973970420,-0.018554688,-0.93066406,-0.42773438,-1.75,0.09375,-0.28125
283,283,1727973970460,-0.015625,-0.92578125,-0.43066406,-1.125,-0.15625,-0.09375
284,284,1727973970500,-0.018554688,-0.9326172,-0.4326172,-0.28125,-0.15625,0.15625
285,285,1727973970540,-0.013671875,-0.92871094,-0.43554688,0.53125,-0.03125,0.21875
286,286,1727973970580,-0.01953125,-0.9394531,-0.41796875,0.8125,-0.03125,0.15625
287,287,1727973970620,-0.017578125,-0.92285156,-0.4296875,0.28125,0.03125,0.09375
288,288,1727973970660,-0.018554688,-0.9248047,-0.42773438,-0.28125,-0.09375,-0.34375
289,289,1727973970700,-0.015625,-0.93652344,-0.4169922,-0.34375,0.03125,-0.03125
290,290,1727973970740,-0.0087890625,-0.9267578,-0.4296875,-0.5625,-0.03125,-0.34375
291,291,1727973970780,-0.01953125,-0.93066406,-0.4189453,-0.40625,-0.03125,-0.15625
292,292,1727973970820,-0.018554688,-0.9238281,-0.42285156,0.03125,0.03125,-0.03125
293,293,1727973970860,-0.020507812,-0.9238281,-0.4169922,0.59375,-0.03125,0.09375
294,294,1727973970900,-0.016601562,-0.9345703,-0.42382812,0.78125,-0.03125,0.21875
295,295,1727973970940,-0.013671875,-0.92285156,-0.4326172,0.28125,0.09375,0.03125
296,296,1727973970980,-0.022460938,-0.92285156,-0.4169922,0.46875,0.21875,-0.21875
297,297,1727973971020,-0.01953125,-0.92871094,-0.4189453,0.53125,0.03125,-0.15625
298,298,1727973971060,-0.0146484375,-0.9355469,-0.4326172,0.03125,0.03125,-0.09375
299,299,1727973971100,-0.015625,-0.93066406,-0.4169922,-0.5,-0.09375,-0.09375
300,300,1727973971140,-0.013671875,-0.93652344,-0.41308594,-0.03125,-0.03125,0.28125
301,301,1727973971180,-0.015625,-0.93066406,-0.42382812,0.53125,0.03125,0.28125
302,302,1727973971220,-0.021484375,-0.9189453,-0.41992188,-0.34375,-0.21875,0.03125
303,303,1727973971260,-0.018554688,-0.9277344,-0.41503906,-0.5625,-0.03125,0.03125
304,304,1727973971300,-0.015625,-0.93066406,-0.4296875,-0.5625,-0.09375,-0.09375
305,305,1727973971340,-0.018554688,-0.9345703,-0.4111328,-0.5625,-0.09375,-0.09375
306,306,1727973971380,-0.013671875,-0.9169922,-0.42578125,-1.0,0.09375,-0.21875
307,307,1727973971420,-0.018554688,-0.92871094,-0.4345703,-0.5625,0.09375,-0.03125
308,308,1727973971460,-0.024414062,-0.92578125,-0.4169922,-0.03125,0.03125,0.09375
309,309,1727973971500,-0.01953125,-0.921875,-0.42382812,-0.46875,-0.03125,0.03125
310,310,1727973971540,-0.020507812,-0.92871094,-0.41796875,-0.40625,-0.03125,-0.09375
311,311,1727973971580,-0.0146484375,-0.9316406,-0.42773438,-0.28125,-0.03125,0.03125
312,312,1727973971620,-0.020507812,-0.92578125,-0.42871094,-0.03125,-0.03125,-0.09375
313,313,1727973971660,-0.015625,-0.921875,-0.4189453,0.40625,0.21875,-0.03125
314,314,1727973971700,-0.01953125,-0.9267578,-0.42578125,0.46875,0.21875,-0.15625
315,315,1727973971740,-0.021484375,-0.92871094,-0.42382812,0.21875,-0.03125,0.03125
316,316,1727973971780,-0.022460938,-0.9267578,-0.4140625,0.21875,-0.03125,0.21875
317,317,1727973971820,-0.021484375,-0.92285156,-0.40820312,-0.28125,-0.09375,0.03125
318,318,1727973971860,-0.0234375,-0.9248047,-0.41601562,-0.5625,0.09375,-0.21875
319,319,1727973971900,-0.025390625,-0.93652344,-0.4189453,-0.6875,0.09375,-0.34375
320,320,1727973971940,-0.020507812,-0.921875,-0.41796875,-0.21875,-0.03125,-0.21875
321,321,1727973971980,-0.015625,-0.921875,-0.4267578,-0.21875,-0.03125,-0.03125
322,322,1727973972020,-0.0146484375,-0.9199219,-0.42773438,0.65625,0.21875,0.15625
323,323,1727973972060,-0.01953125,-0.92871094,-0.43652344,0.53125,0.03125,-0.09375
324,324,1727973972100,-0.0146484375,-0.92871094,-0.42773438,0.46875,0.21875,-0.15625
325,325,1727973972140,-0.016601562,-0.9238281,-0.4248047,0.71875,0.15625,-0.09375
326,326,1727973972180,-0.026367188,-0.9345703,-0.41796875,1.25,0.09375,0.03125
327,327,1727973972220,-0.022460938,-0.9296875,-0.4296875,1.375,0.03125,0.03125
328,328,1727973972260,-0.016601562,-0.9326172,-0.42285156,1.125,0.03125,-0.03125
329,329,1727973972300,-0.018554688,-0.9345703,-0.41601562,1.125,0.03125,-0.21875
330,330,1727973972340,-0.018554688,-0.9394531,-0.42089844,1.875,0.09375,-0.28125
331,331,1727973972380,-0.0234375,-0.9296875,-0.41210938,2.09375,-0.15625,0.21875
332,332,1727973972420,-0.01171875,-0.94140625,-0.40429688,1.1875,0.28125,0.09375
333,333,1727973972460,-0.018554688,-0.9296875,-0.41015625,1.375,0.15625,-0.03125
334,334,1727973972500,-0.016601562,-0.92285156,-0.41796875,1.0,0.03125,0.09375
335,335,1727973972540,-0.018554688,-0.9404297,-0.40625,0.875,0.03125,0.09375
336,336,1727973972580,-0.013671875,-0.9296875,-0.4140625,0.875,-0.03125,0.09375
337,337,1727973972620,-0.016601562,-0.92871094,-0.41015625,0.59375,-0.03125,-0.09375
338,338,1727973972660,-0.016601562,-0.9375,-0.4111328,0.8125,0.15625,0.09375
339,339,1727973972700,-0.020507812,-0.9296875,-0.41601562,0.34375,0.15625,0.09375
340,340,1727973972740,-0.018554688,-0.93066406,-0.40722656,-0.28125,0.03125,-0.09375
341,341,1727973972780,-0.015625,-0.93652344,-0.41992188,-0.9375,0.09375,-0.34375
342,342,1727973972820,-0.017578125,-0.9277344,-0.43164062,-1.5,0.03125,-0.34375
343,343,1727973972860,-0.018554688,-0.9326172,-0.41601562,-1.5625,-0.03125,-0.28125
344,344,1727973972900,-0.018554688,-0.9345703,-0.421875,-1.0,-0.15625,-0.03125
345,345,1727973972940,-0.018554688,-0.9267578,-0.4111328,-0.09375,-0.03125,0.09375
346,346,1727973972980,-0.020507812,-0.9267578,-0.4140625,0.34375,0.09375,-0.03125
347,347,1727973973020,-0.025390625,-0.9267578,-0.41308594,0.34375,0.03125,0.03125
348,348,1727973973060,-0.018554688,-0.9296875,-0.4169922,0.34375,0.03125,0.03125
349,349,1727973973100,-0.01953125,-0.9355469,-0.39941406,0.21875,-0.09375,0.03125
350,350,1727973973140,-0.015625,-0.93359375,-0.41601562,-0.15625,-0.03125,-0.03125
351,351,1727973973180,-0.013671875,-0.9267578,-0.4189453,-0.21875,-0.15625,0.09375
352,352,1727973973220,-0.024414062,-0.9355469,-0.41308594,-0.625,-0.03125,0.15625
353,353,1727973973260,-0.0068359375,-0.92871094,-0.41308594,-0.40625,-0.09375,0.09375
354,354,1727973973300,-0.024414062,-0.91796875,-0.4248047,0.09375,0.03125,0.09375
355,355,1727973973340,-0.017578125,-0.93652344,-0.39746094,-0.9375,-0.09375,-0.03125
356,356,1727973973380,-0.015625,-0.93359375,-0.4267578,-1.125,0.09375,-0.28125
357,357,1727973973420,-0.01953125,-0.9326172,-0.41992188,-1.3125,-0.03125,-0.09375
358,358,1727973973460,-0.020507812,-0.92871094,-0.42089844,-2.34375,0.03125,-0.4375
359,359,1727973973500,-0.01953125,-0.93066406,-0.41796875,-2.09375,-0.09375,-0.34375
360,360,1727973973540,-0.01953125,-0.9316406,-0.4140625,-1.625,0.09375,-0.28125
361,361,1727973973580,-0.021484375,-0.92285156,-0.41210938,-1.5625,0.15625,-0.34375
362,362,1727973973620,-0.0234375,-0.9375,-0.42285156,-1.375,-0.03125,-0.09375
363,363,1727973973660,-0.013671875,-0.9316406,-0.4326172,-0.5625,-0.03125,0.03125
364,364,1727973973700,-0.020507812,-0.9189453,-0.42382812,0.34375,-0.03125,-0.03125
365,365,1727973973740,-0.017578125,-0.9404297,-0.41503906,0.09375,0.03125,0.03125
366,366,1727973973780,-0.018554688,-0.92871094,-0.43066406,0.21875,0.09375,-0.15625
367,367,1727973973820,-0.020507812,-0.92871094,-0.41796875,0.71875,0.03125,0.03125
368,368,1727973973860,-0.024414062,-0.92089844,-0.43164062,0.8125,0.21875,-0.15625
369,369,1727973973900,-0.022460938,-0.92089844,-0.42871094,0.46875,0.21875,-0.09375
370,370,1727973973940,-0.026367188,-0.92285156,-0.42773438,0.21875,-0.03125,0.03125
371,371,1727973973980,-0.015625,-0.92578125,-0.4111328,-0.28125,-0.21875,-0.03125
372,372,1727973974020,-0.0146484375,-0.93847656,-0.421875,-0.40625,-0.09375,-0.03125
373,373,1727973974060,-0.021484375,-0.9277344,-0.42578125,-0.15625,-0.09375,-0.15625
374,374,1727973974100,-0.022460938,-0.93652344,-0.41601562,-0.21875,-0.09375,-0.15625
375,375,1727973974140,-0.021484375,-0.9189453,-0.42578125,-0.5,0.03125,-0.03125
376,376,1727973974180,-0.020507812,-0.93066406,-0.42285156,-0.46875,0.03125,-0.09375
377,377,1727973974220,-0.021484375,-0.9267578,-0.41992188,-0.21875,0.03125,-0.09375
378,378,1727973974260,-0.020507812,-0.9248047,-0.42089844,0.15625,0.03125,-0.09375
379,379,1727973974300,-0.016601562,-0.93847656,-0.40527344,-0.09375,0.09375,-0.03125
380,380,1727973974340,-0.0146484375,-0.9267578,-0.41992188,0.40625,-0.03125,-0.03125
381,381,1727973974380,-0.017578125,-0.9277344,-0.42773438,0.65625,0.09375,0.03125
382,382,1727973974420,-0.01953125,-0.93652344,-0.4189453,0.28125,-0.03125,-0.09375
383,383,1727973974460,-0.01953125,-0.9316406,-0.41796875,0.21875,-0.03125,-0.03125
384,384,1727973974500,-0.022460938,-0.92578125,-0.40820312,0.53125,0.03125,0.03125
385,385,1727973974540,-0.017578125,-0.92871094,-0.42382812,0.21875,-0.03125,-0.03125
386,386,1727973974580,-0.021484375,-0.93359375,-0.4169922,-0.09375,0.09375,-0.21875
387,387,1727973974620,-0.0126953125,-0.9375,-0.41601562,0.09375,0.09375,-0.03125
388,388,1727973974660,-0.029296875,-0.9316406,-0.421875,0.09375,0.09375,0.03125
389,389,1727973974700,-0.016601562,-0.93359375,-0.4248047,0.28125,0.03125,0.15625
390,390,1727973974740,-0.0234375,-0.9238281,-0.421875,0.53125,-0.09375,0.15625
391,391,1727973974780,-0.01953125,-0.93652344,-0.4189453,0.21875,0.15625,-0.09375
392,392,1727973974820,-0.022460938,-0.92871094,-0.41992188,0.59375,0.21875,0.03125
393,393,1727973974860,-0.015625,-0.9316406,-0.41308594,0.28125,0.09375,-0.21875
394,394,1727973974900,-0.0234375,-0.93066406,-0.42773438,-0.09375,0.03125,-0.28125
395,395,1727973974940,-0.024414062,-0.9326172,-0.41210938,0.40625,0.15625,-0.03125
396,396,1727973974980,-0.013671875,-0.9267578,-0.4189453,0.03125,0.03125,-0.03125
397,397,1727973975020,-0.017578125,-0.9238281,-0.42089844,0.15625,0.03125,-0.03125
398,398,1727973975060,-0.016601562,-0.9238281,-0.42089844,0.21875,-0.03125,0.15625
399,399,1727973975100,-0.024414062,-0.93066406,-0.4140625,-0.21875,-0.09375,0.15625
400,400,1727973975140,-0.024414062,-0.9277344,-0.4111328,-0.9375,0.03125,-0.15625
401,401,1727973975180,-0.017578125,-0.9316406,-0.42871094,-0.6875,0.03125,-0.625
402,402,1727973975220,-0.013671875,-0.9277344,-0.4169922,-0.25,-0.125,-0.09375
403,403,1727973975260,-0.0234375,-0.9296875,-0.4169922,-0.5625,-0.1875,0.3125
404,404,1727973975300,-0.028320312,-0.9316406,-0.43359375,-0.3125,-0.25,0.625
405,405,1727973975340,-0.025390625,-0.92871094,-0.42089844,-0.6875,-0.1875,0.3125
406,406,1727973975380,-0.0234375,-0.91796875,-0.39941406,-1.96875,0.1875,-0.90625
407,407,1727973975420,-0.0087890625,-0.93359375,-0.4189453,-0.4375,0.125,-0.78125
408,408,1727973975460,-0.022460938,-0.9326172,-0.4267578,0.3125,0.0,0.03125
409,409,1727973975500,-0.015625,-0.93066406,-0.43066406,0.71875,0.125,0.5
410,410,1727973975540,-0.0146484375,-0.9267578,-0.42285156,3.03125,-0.0625,0.4375
411,411,1727973975580,-0.028320312,-0.9267578,-0.41210938,3.15625,-0.125,0.625
412,412,1727973975620,-0.025390625,-0.9277344,-0.4140625,1.875,0.0,0.1875
413,413,1727973975660,-0.020507812,-0.9355469,-0.4189453,1.59375,0.1875,-0.15625
414,414,1727973975700,-0.016601562,-0.9345703,-0.4091797,0.65625,0.125,0.0625
415,415,1727973975740,-0.016601562,-0.93652344,-0.42089844,-0.1875,-0.125,-0.03125
416,416,1727973975780,-0.022460938,-0.93652344,-0.41210938,-0.1875,-0.1875,0.0625
417,417,1727973975820,-0.018554688,-0.92871094,-0.421875,0.375,0.0,0.1875
418,418,1727973975860,-0.020507812,-0.9277344,-0.4267578,-0.125,-0.0625,0.125
419,419,1727973975900,-0.017578125,-0.9238281,-0.42382812,-0.5625,-0.0625,-0.03125
420,420,1727973975940,-0.022460938,-0.93066406,-0.4169922,-0.0625,0.0,0.03125
421,421,1727973975980,-0.018554688,-0.9345703,-0.41308594,-0.125,0.0,0.03125
422,422,1727973976020,-0.021484375,-0.9345703,-0.4033203,-0.25,0.0,-0.09375
423,423,1727973976060,-0.01953125,-0.9375,-0.4169922,-0.3125,0.0,0.03125
424,424,1727973976100,-0.017578125,-0.93359375,-0.4140625,-0.5,-0.1875,0.125
425,425,1727973976140,-0.020507812,-0.93066406,-0.39941406,-0.875,-0.0625,0.0625
426,426,1727973976180,-0.01171875,-0.94140625,-0.41796875,-0.96875,-0.0625,-0.03125
427,427,1727973976220,-0.0107421875,-0.9355469,-0.4248047,-0.375,0.0625,-0.15625
428,428,1727973976260,-0.018554688,-0.9296875,-0.41796875,0.0,0.0,-0.15625
429,429,1727973976300,-0.018554688,-0.9277344,-0.4111328,0.65625,0.0,0.03125
430,430,1727973976340,-0.0126953125,-0.93652344,-0.41503906,0.53125,-0.125,0.25
431,431,1727973976380,-0.020507812,-0.9326172,-0.40820312,0.1875,-0.0625,0.125
432,432,1727973976420,-0.025390625,-0.9375,-0.41015625,0.375,-0.0625,0.03125
433,433,1727973976460,-0.022460938,-0.93652344,-0.41601562,0.40625,0.0625,-0.09375
434,434,1727973976500,-0.024414062,-0.921875,-0.4111328,0.71875,0.0625,0.03125
435,435,1727973976540,-0.020507812,-0.9238281,-0.42285156,1.15625,0.125,-0.03125
436,436,1727973976580,-0.009765625,-0.9345703,-0.421875,0.90625,0.0,0.03125
437,437,1727973976620,-0.020507812,-0.9394531,-0.42578125,1.40625,-0.0625,0.375
438,438,1727973976660,-0.033203125,-0.9394531,-0.41210938,1.03125,-0.1875,0.03125
439,439,1727973976700,-0.015625,-0.93847656,-0.41015625,0.3125,0.0625,-0.21875
440,440,1727973976740,-0.016601562,-0.93066406,-0.40527344,0.375,0.125,-0.03125
441,441,1727973976780,-0.016601562,-0.92871094,-0.4033203,0.375,0.0625,0.03125
442,442,1727973976820,-0.02734375,-0.9267578,-0.4189453,-0.1875,0.0,0.125
443,443,1727973976860,-0.024414062,-0.9394531,-0.40722656,-0.375,0.0,0.125
444,444,1727973976900,-0.020507812,-0.9394531,-0.40625,-0.875,-0.0625,-0.15625
445,445,1727973976940,-0.021484375,-0.9326172,-0.43066406,-0.6875,0.0625,-0.15625
446,446,1727973976980,-0.0107421875,-0.9375,-0.42285156,-1.03125,0.0,-0.34375
447,447,1727973977020,-0.020507812,-0.93066406,-0.41015625,-0.4375,0.0,-0.15625
448,448,1727973977060,-0.0146484375,-0.9394531,-0.41015625,0.375,-0.0625,0.125
449,449,1727973977100,-0.0146484375,-0.92871094,-0.41796875,0.46875,0.0,0.1875
450,450,1727973977140,-0.028320312,-0.9404297,-0.41210938,0.46875,-0.0625,0.1875
451,451,1727973977180,-0.022460938,-0.9375,-0.40429688,0.375,0.0625,-0.03125
452,452,1727973977220,-0.016601562,-0.9248047,-0.41210938,-0.1875,-0.0625,-0.09375
453,453,1727973977260,-0.01953125,-0.9375,-0.41015625,-0.6875,-0.0625,-0.21875
454,454,1727973977300,-0.021484375,-0.93066406,-0.4140625,0.3125,0.125,-0.03125
455,455,1727973977340,-0.015625,-0.9316406,-0.421875,0.84375,0.0,0.0625
456,456,1727973977380,-0.021484375,-0.92871094,-0.4169922,0.78125,-0.0625,0.0625
457,457,1727973977420,-0.018554688,-0.92871094,-0.40527344,0.59375,0.0,-0.03125
458,458,1727973977460,-0.024414062,-0.9345703,-0.40820312,0.125,0.125,-0.09375
459,459,1727973977500,-0.024414062,-0.93847656,-0.40820312,0.375,0.125,-0.21875
460,460,1727973977540,-0.020507812,-0.93359375,-0.4013672,0.375,0.0625,0.03125
461,461,1727973977580,-0.017578125,-0.9345703,-0.39941406,0.0,0.0,0.03125
462,462,1727973977620,-0.013671875,-0.9326172,-0.40625,-0.3125,0.0,0.0625
463,463,1727973977660,-0.018554688,-0.9316406,-0.4140625,-0.1875,0.0,-0.09375
464,464,1727973977700,-0.0234375,-0.9433594,-0.40527344,-0.5,-0.125,-0.09375
465,465,1727973977740,-0.0234375,-0.9267578,-0.4169922,-0.75,-0.25,-0.15625
466,466,1727973977780,-0.02734375,-0.9267578,-0.4091797,-1.21875,0.0,-0.21875
467,467,1727973977820,-0.0234375,-0.93066406,-0.42089844,-0.625,0.0625,-0.21875
468,468,1727973977860,-0.016601562,-0.92871094,-0.4189453,0.0,-0.0625,0.125
469,469,1727973977900,-0.02734375,-0.92578125,-0.41503906,0.53125,0.0625,0.125
470,470,1727973977940,-0.0234375,-0.92578125,-0.4140625,0.25,-0.0625,-0.03125
471,471,1727973977980,-0.016601562,-0.9326172,-0.41308594,0.90625,0.125,0.0625
472,472,1727973978020,-0.025390625,-0.93066406,-0.40820312,0.40625,0.0625,-0.09375
473,473,1727973978060,-0.0146484375,-0.9375,-0.41015625,-0.125,-0.0625,-0.09375
474,474,1727973978100,-0.025390625,-0.93652344,-0.4248047,0.25,0.0,-0.03125
475,475,1727973978140,-0.022460938,-0.93652344,-0.4091797,0.78125,0.0625,0.03125
476,476,1727973978180,-0.026367188,-0.9316406,-0.40625,0.3125,0.0,0.03125
477,477,1727973978220,-0.0146484375,-0.93847656,-0.40039062,0.1875,0.0,0.03125
478,478,1727973978260,-0.01953125,-0.9267578,-0.40527344,-0.0625,0.0,-0.09375
479,479,1727973978300,-0.021484375,-0.93652344,-0.3984375,-0.0625,-0.0625,-0.03125
480,480,1727973978340,-0.015625,-0.9355469,-0.41308594,0.0625,0.0,-0.03125
481,481,1727973978380,-0.0234375,-0.9316406,-0.41601562,-0.0625,-0.1875,-0.09375
482,482,1727973978420,-0.017578125,-0.9277344,-0.40625,0.0625,0.0,0.0625
483,483,1727973978460,-0.020507812,-0.93066406,-0.40625,0.0,-0.0625,0.03125
484,484,1727973978500,-0.017578125,-0.9316406,-0.41601562,-0.5,-0.0625,-0.09375
485,485,1727973978540,-0.028320312,-0.93066406,-0.40625,-0.125,0.0,-0.15625
486,486,1727973978580,-0.01171875,-0.9355469,-0.40820312,-0.1875,-0.0625,-0.09375
487,487,1727973978620,-0.030273438,-0.9345703,-0.41210938,-0.5,-0.0625,-0.03125
488,488,1727973978660,-0.020507812,-0.9404297,-0.4140625,-0.1875,0.0,0.03125
489,489,1727973978700,-0.018554688,-0.9355469,-0.41210938,0.0,0.0,0.125
490,490,1727973978740,-0.022460938,-0.9355469,-0.41015625,-0.4375,-0.25,-0.03125
491,491,1727973978780,-0.0234375,-0.93066406,-0.4169922,-0.5625,0.0,-0.09375
492,492,1727973978820,-0.021484375,-0.9355469,-0.41503906,-0.5625,-0.0625,-0.03125
493,493,1727973978860,-0.029296875,-0.9326172,-0.41210938,-0.3125,-0.0625,0.03125
494,494,1727973978900,-0.018554688,-0.93066406,-0.40625,-1.65625,0.0,-0.15625
495,495,1727973978940,-0.032226562,-0.9296875,-0.4033203,-1.96875,-0.0625,-0.28125
496,496,1727973978980,-0.017578125,-0.9316406,-0.40625,-1.78125,-0.1875,-0.03125
497,497,1727973979020,-0.020507812,-0.93066406,-0.40820312,-1.34375,-0.125,-0.03125
498,498,1727973979060,-0.021484375,-0.9296875,-0.41992188,-0.0625,-0.125,0.0625
499,499,1727973979100,-0.020507812,-0.9277344,-0.41601562,-0.1875,-0.0625,0.0625
500,500,1727973979140,-0.021484375,-0.9277344,-0.41601562,-0.09375,-0.03125,-0.03125
501,501,1727973979180,-0.0234375,-0.92285156,-0.42089844,0.15625,0.03125,-0.03125
502,502,1727973979220,-0.030273438,-0.9248047,-0.41601562,0.21875,0.03125,-0.15625
503,503,1727973979260,-0.017578125,-0.9248047,-0.41308594,0.5,0.09375,-0.09375
504,504,1727973979300,-0.024414062,-0.9326172,-0.4169922,0.75,-0.03125,0.03125
505,505,1727973979340,-0.01953125,-0.93066406,-0.41015625,0.8125,0.03125,0.15625
506,506,1727973979380,-0.016601562,-0.9355469,-0.421875,1.0625,0.09375,0.03125
507,507,1727973979420,-0.018554688,-0.93359375,-0.41015625,1.625,0.09375,-0.03125
508,508,1727973979460,-0.022460938,-0.9345703,-0.4169922,1.125,0.09375,0.09375
509,509,1727973979500,-0.022460938,-0.9394531,-0.4111328,1.375,-0.03125,0.09375
510,510,1727973979540,-0.020507812,-0.93652344,-0.41796875,1.0,0.03125,0.03125
511,511,1727973979580,-0.017578125,-0.9267578,-0.40625,0.8125,0.09375,0.03125
512,512,1727973979620,-0.024414062,-0.9345703,-0.4189453,0.6875,-0.03125,0.15625
513,513,1727973979660,-0.01953125,-0.93359375,-0.41796875,0.5,0.09375,0.03125
514,514,1727973979700,-0.024414062,-0.9277344,-0.39648438,0.15625,-0.03125,-0.09375
515,515,1727973979740,-0.0234375,-0.9248047,-0.41796875,-0.59375,0.03125,-0.09375
516,516,1727973979780,-0.026367188,-0.9394531,-0.4091797,-0.21875,0.03125,-0.21875
517,517,1727973979820,-0.0126953125,-0.9267578,-0.40722656,-0.28125,-0.03125,-0.21875
518,518,1727973979860,-0.021484375,-0.9316406,-0.41796875,0.09375,0.03125,0.09375
519,519,1727973979900,-0.016601562,-0.9355469,-0.40625,0.8125,-0.03125,0.28125
520,520,1727973979940,-0.020507812,-0.9248047,-0.4033203,0.15625,0.03125,-0.09375
521,521,1727973979980,-0.021484375,-0.93847656,-0.4091797,0.21875,0.15625,-0.21875
522,522,1727973980020,-0.022460938,-0.9355469,-0.40625,0.8125,0.03125,-0.03125
523,523,1727973980060,-0.020507812,-0.9326172,-0.41796875,0.625,-0.03125,0.09375
524,524,1727973980100,-0.025390625,-0.9355469,-0.4111328,0.9375,-0.15625,0.09375
525,525,1727973980140,-0.017578125,-0.9316406,-0.42382812,1.0625,0.09375,-0.03125
526,526,1727973980180,-0.022460938,-0.9355469,-0.4169922,0.875,0.03125,0.03125
527,527,1727973980220,-0.01953125,-0.9267578,-0.41796875,0.75,0.09375,-0.21875
528,528,1727973980260,-0.022460938,-0.9355469,-0.41210938,0.375,0.03125,-0.15625
529,529,1727973980300,-0.020507812,-0.9345703,-0.41796875,0.5,0.09375,-0.09375
530,530,1727973980340,-0.02734375,-0.9345703,-0.41308594,0.09375,0.09375,0.03125
531,531,1727973980380,-0.028320312,-0.9394531,-0.4111328,-0.46875,-0.03125,-0.03125
532,532,1727973980420,-0.01953125,-0.93066406,-0.40429688,-0.53125,-0.03125,-0.09375
533,533,1727973980460,-0.0234375,-0.9345703,-0.41015625,-0.46875,0.03125,-0.09375
534,534,1727973980500,-0.0234375,-0.9375,-0.41210938,-0.21875,-0.03125,0.03125
535,535,1727973980540,-0.030273438,-0.93359375,-0.40039062,0.03125,-0.03125,-0.03125
536,536,1727973980580,-0.0107421875,-0.9345703,-0.40820312,0.15625,-0.03125,0.03125
537,537,1727973980620,-0.021484375,-0.9355469,-0.40429688,0.4375,0.03125,-0.03125
538,538,1727973980660,-0.025390625,-0.92871094,-0.41992188,0.28125,0.21875,-0.03125
539,539,1727973980700,-0.0078125,-0.9355469,-0.42089844,0.28125,0.03125,-0.03125
540,540,1727973980740,-0.0107421875,-0.93847656,-0.4111328,0.375,-0.03125,0.09375
541,541,1727973980780,-0.015625,-0.9248047,-0.40429688,0.5625,0.09375,-0.03125
542,542,1727973980820,-0.022460938,-0.9345703,-0.40234375,0.375,0.09375,-0.09375
543,543,1727973980860,-0.015625,-0.9345703,-0.41015625,0.28125,0.03125,-0.03125
544,544,1727973980900,-0.017578125,-0.9326172,-0.40722656,0.15625,-0.03125,0.09375
545,545,1727973980940,-0.016601562,-0.9345703,-0.39160156,-0.28125,0.09375,-0.03125
546,546,1727973980980,-0.020507812,-0.9345703,-0.40820312,-0.40625,0.21875,-0.15625
547,547,1727973981020,-0.017578125,-0.9375,-0.41015625,-0.34375,0.03125,-0.03125
548,548,1727973981060,-0.0146484375,-0.93066406,-0.4091797,-0.53125,0.03125,-0.03125
549,549,1727973981100,-0.013671875,-0.93652344,-0.41601562,0.09375,-0.03125,0.03125
550,550,1727973981140,-0.024414062,-0.94140625,-0.421875,0.875,0.09375,0.15625
551,551,1727973981180,-0.016601562,-0.94140625,-0.4169922,0.4375,-0.03125,-0.15625
552,552,1727973981220,-0.025390625,-0.9277344,-0.41796875,0.625,0.03125,-0.03125
553,553,1727973981260,-0.0107421875,-0.9472656,-0.41796875,0.4375,0.09375,-0.15625
554,554,1727973981300,-0.025390625,-0.93066406,-0.4248047,0.5,0.09375,-0.03125
555,555,1727973981340,-0.020507812,-0.9355469,-0.41015625,0.375,-0.03125,0.03125
556,556,1727973981380,-0.018554688,-0.9316406,-0.39453125,0.625,0.03125,0.15625
557,557,1727973981420,-0.015625,-0.9345703,-0.40820312,0.4375,0.09375,0.03125
558,558,1727973981460,-0.021484375,-0.92871094,-0.41210938,0.21875,-0.03125,-0.03125
559,559,1727973981500,-0.0234375,-0.9394531,-0.3984375,0.21875,0.09375,-0.09375
560,560,1727973981540,-0.026367188,-0.9277344,-0.40820312,0.09375,-0.09375,0.03125
561,561,1727973981580,-0.020507812,-0.94140625,-0.4013672,0.375,0.09375,0.03125
562,562,1727973981620,-0.01953125,-0.9316406,-0.4033203,0.4375,0.09375,0.15625
563,563,1727973981660,-0.024414062,-0.9433594,-0.40625,0.75,0.09375,0.09375
564,564,1727973981700,-0.022460938,-0.93066406,-0.4111328,0.03125,0.03125,-0.15625
565,565,1727973981740,-0.0107421875,-0.9345703,-0.39941406,-0.09375,0.09375,-0.28125
566,566,1727973981780,-0.017578125,-0.9345703,-0.4033203,0.4375,0.03125,0.09375
567,567,1727973981820,-0.022460938,-0.93066406,-0.41015625,0.4375,-0.15625,0.03125
568,568,1727973981860,-0.022460938,-0.93652344,-0.39648438,0.75,-0.09375,0.28125
569,569,1727973981900,-0.015625,-0.9355469,-0.40820312,0.3125,-0.03125,0.03125
570,570,1727973981940,-0.022460938,-0.9404297,-0.40039062,-0.09375,-0.09375,-0.03125
571,571,1727973981980,-0.024414062,-0.9326172,-0.40527344,-0.84375,0.09375,-0.40625
572,572,1727973982020,-0.017578125,-0.9326172,-0.4111328,-0.78125,0.03125,-0.40625
573,573,1727973982060,-0.017578125,-0.93847656,-0.43554688,-0.65625,-0.03125,-0.15625
574,574,1727973982100,-0.01953125,-0.9326172,-0.421875,-0.53125,-0.09375,0.09375
575,575,1727973982140,-0.025390625,-0.9345703,-0.40625,0.15625,-0.09375,0.09375
576,576,1727973982180,-0.0146484375,-0.9326172,-0.42382812,-0.03125,0.03125,-0.09375
577,577,1727973982220,-0.018554688,-0.9375,-0.41308594,-0.28125,0.03125,-0.03125
578,578,1727973982260,-0.017578125,-0.9316406,-0.40429688,0.3125,0.09375,-0.09375
579,579,1727973982300,-0.015625,-0.9375,-0.41308594,0.4375,-0.09375,-0.09375
580,580,1727973982340,-0.0234375,-0.92871094,-0.41308594,0.5,0.03125,-0.09375
581,581,1727973982380,-0.01171875,-0.92871094,-0.4091797,0.5625,0.03125,0.09375
582,582,1727973982420,-0.024414062,-0.9375,-0.41992188,0.9375,0.03125,0.15625
583,583,1727973982460,-0.0107421875,-0.94140625,-0.39746094,0.3125,0.09375,-0.03125
584,584,1727973982500,-0.025390625,-0.9355469,-0.41503906,-0.28125,-0.09375,-0.15625
585,585,1727973982540,-0.01953125,-0.93652344,-0.40429688,-0.15625,-0.03125,-0.09375
586,586,1727973982580,-0.015625,-0.9394531,-0.4111328,-0.53125,0.03125,-0.09375
587,587,1727973982620,-0.02734375,-0.9248047,-0.4140625,-0.65625,-0.09375,-0.03125
588,588,1727973982660,-0.0146484375,-0.9404297,-0.40722656,0.4375,0.15625,0.21875
589,589,1727973982700,-0.020507812,-0.9326172,-0.42089844,0.4375,0.15625,-0.03125
590,590,1727973982740,-0.021484375,-0.93652344,-0.41210938,-0.15625,-0.03125,-0.15625
591,591,1727973982780,-0.021484375,-0.9345703,-0.41503906,0.5625,0.15625,0.03125
592,592,1727973982820,-0.015625,-0.9345703,-0.40625,0.9375,0.15625,0.21875
593,593,1727973982860,-0.022460938,-0.9267578,-0.4033203,0.4375,-0.09375,0.15625
594,594,1727973982900,-0.02734375,-0.9355469,-0.42773438,0.375,0.03125,0.09375
595,595,1727973982940,-0.01953125,-0.9296875,-0.40625,0.21875,0.03125,-0.03125
596,596,1727973982980,-0.017578125,-0.9277344,-0.4111328,0.15625,0.15625,-0.28125
597,597,1727973983020,-0.021484375,-0.93652344,-0.41503906,-0.03125,0.21875,-0.28125
598,598,1727973983060,-0.022460938,-0.9404297,-0.4091797,-0.34375,-0.0625,0.0
599,599,1727973983100,-0.0234375,-0.9345703,-0.42382812,0.03125,-0.0625,0.125
600,600,1727973983140,-0.013671875,-0.9277344,-0.40820312,0.8125,0.0,0.15625
601,601,1727973983180,-0.015625,-0.93066406,-0.41210938,0.59375,-0.125,0.15625
602,602,1727973983220,-0.0107421875,-0.9355469,-0.41601562,0.53125,0.125,-0.1875
603,603,1727973983260,-0.01953125,-0.9375,-0.41308594,0.8125,0.0,0.0625
604,604,1727973983300,-0.01953125,-0.9267578,-0.40039062,0.625,0.1875,0.0
605,605,1727973983340,-0.022460938,-0.9316406,-0.41210938,0.15625,0.0625,0.0625
606,606,1727973983380,-0.015625,-0.9375,-0.41308594,0.40625,0.0,0.15625
607,607,1727973983420,-0.0234375,-0.9296875,-0.4111328,0.75,0.0,0.21875
608,608,1727973983460,-0.0146484375,-0.9375,-0.41503906,0.34375,-0.0625,-0.125
609,609,1727973983500,-0.021484375,-0.92871094,-0.4033203,-0.15625,-0.0625,-0.0625
610,610,1727973983540,-0.021484375,-0.9394531,-0.40625,0.03125,-0.0625,0.0
611,611,1727973983580,-0.021484375,-0.92578125,-0.41308594,0.46875,0.0,-0.0625
612,612,1727973983620,-0.015625,-0.9394531,-0.4033203,0.40625,0.0,0.0625
613,613,1727973983660,-0.018554688,-0.9355469,-0.3935547,-0.53125,-0.0625,0.0
614,614,1727973983700,-0.022460938,-0.93359375,-0.3984375,-0.09375,0.0625,0.0625
615,615,1727973983740,-0.018554688,-0.9394531,-0.4189453,-0.40625,0.0,-0.0625
616,616,1727973983780,-0.021484375,-0.92871094,-0.41308594,-0.75,-0.125,-0.1875
617,617,1727973983820,-0.024414062,-0.93066406,-0.39453125,-0.15625,-0.125,0.0
618,618,1727973983860,-0.01953125,-0.93066406,-0.40527344,-0.03125,-0.0625,0.0625
619,619,1727973983900,-0.025390625,-0.93652344,-0.41210938,0.09375,-0.0625,-0.125
620,620,1727973983940,-0.016601562,-0.9267578,-0.41796875,1.375,-0.1875,0.15625
621,621,1727973983980,-0.015625,-0.9326172,-0.4111328,0.59375,0.0,0.15625
622,622,1727973984020,-0.017578125,-0.92578125,-0.4033203,-0.40625,0.0625,0.0
623,623,1727973984060,-0.0146484375,-0.93359375,-0.42578125,0.09375,-0.0625,-0.0625
624,624,1727973984100,-0.01171875,-0.9267578,-0.41015625,-0.59375,0.0625,-0.1875
625,625,1727973984140,-0.025390625,-0.9394531,-0.40429688,-0.15625,-0.125,-0.125
626,626,1727973984180,-0.01953125,-0.9345703,-0.4189453,-0.46875,-0.1875,0.125
627,627,1727973984220,-0.025390625,-0.9345703,-0.40820312,-0.15625,-0.125,0.125
628,628,1727973984260,-0.01953125,-0.92871094,-0.4248047,0.03125,0.0,-0.0625
629,629,1727973984300,-0.022460938,-0.9433594,-0.41308594,0.15625,0.125,-0.125
630,630,1727973984340,-0.017578125,-0.93066406,-0.39941406,0.09375,0.0,-0.125
631,631,1727973984380,-0.01171875,-0.93652344,-0.4189453,-0.03125,-0.0625,0.0625
632,632,1727973984420,-0.024414062,-0.9375,-0.41992188,0.53125,-0.0625,0.125
633,633,1727973984460,-0.022460938,-0.9394531,-0.4091797,0.09375,-0.0625,0.125
634,634,1727973984500,-0.020507812,-0.93652344,-0.40722656,-0.21875,-0.25,-0.0625
635,635,1727973984540,-0.029296875,-0.9238281,-0.4169922,-0.40625,-0.125,-0.0625
636,636,1727973984580,-0.025390625,-0.9267578,-0.40429688,-0.8125,0.125,-0.3125
637,637,1727973984620,-0.026367188,-0.9316406,-0.41308594,-0.75,0.0625,-0.125
638,638,1727973984660,-0.01171875,-0.9375,-0.41015625,0.09375,-0.0625,0.0625
639,639,1727973984700,-0.022460938,-0.93652344,-0.41210938,0.09375,0.0,0.15625
640,640,1727973984740,-0.021484375,-0.93066406,-0.4248047,-0.15625,-0.125,0.15625
641,641,1727973984780,-0.018554688,-0.93652344,-0.40527344,-0.21875,-0.125,-0.0625
642,642,1727973984820,-0.021484375,-0.9326172,-0.41015625,-0.40625,-0.0625,-0.0625
643,643,1727973984860,-0.03125,-0.9453125,-0.41992188,-0.46875,-0.1875,0.125
644,644,1727973984900,-0.018554688,-0.9277344,-0.4013672,0.09375,-0.0625,0.0
645,645,1727973984940,-0.0126953125,-0.9394531,-0.41308594,-0.34375,-0.125,-0.1875
646,646,1727973984980,-0.021484375,-0.92871094,-0.41308594,0.28125,-0.0625,0.0625
647,647,1727973985020,-0.017578125,-0.9277344,-0.4189453,0.15625,0.0,0.125
648,648,1727973985060,-0.022460938,-0.93066406,-0.4169922,-0.21875,0.0,0.0
649,649,1727973985100,-0.015625,-0.9316406,-0.41210938,0.59375,0.0625,0.0625
650,650,1727973985140,-0.026367188,-0.93359375,-0.41992188,0.15625,0.0,0.0625
651,651,1727973985180,-0.0234375,-0.9375,-0.41796875,-0.09375,-0.25,0.0625
652,652,1727973985220,-0.016601562,-0.9345703,-0.3984375,0.40625,0.0,0.15625
653,653,1727973985260,-0.018554688,-0.93066406,-0.40527344,0.15625,0.0625,0.0
654,654,1727973985300,-0.022460938,-0.9326172,-0.42089844,-0.03125,0.0,-0.0625
655,655,1727973985340,-0.021484375,-0.9277344,-0.40722656,0.28125,0.0,0.0
656,656,1727973985380,-0.021484375,-0.9267578,-0.41601562,0.15625,0.0,0.0
657,657,1727973985420,-0.026367188,-0.9326172,-0.40625,0.09375,0.0,0.125
658,658,1727973985460,-0.013671875,-0.9375,-0.41015625,0.46875,-0.1875,0.21875
659,659,1727973985500,-0.024414062,-0.9394531,-0.40625,0.09375,-0.0625,0.21875
660,660,1727973985540,-0.026367188,-0.9316406,-0.4111328,-0.15625,-0.0625,0.0
661,661,1727973985580,-0.0234375,-0.9326172,-0.41503906,0.03125,-0.0625,-0.0625
662,662,1727973985620,-0.017578125,-0.9394531,-0.40625,-0.75,0.0625,-0.25
663,663,1727973985660,-0.013671875,-0.93359375,-0.40722656,-0.34375,-0.0625,0.0625
664,664,1727973985700,-0.02734375,-0.9355469,-0.41308594,0.625,-0.0625,0.21875
665,665,1727973985740,-0.01953125,-0.9248047,-0.4169922,0.59375,0.0,0.125
666,666,1727973985780,-0.028320312,-0.92871094,-0.41308594,0.28125,-0.0625,0.0625
667,667,1727973985820,-0.01953125,-0.9326172,-0.41503906,0.40625,0.0,0.125
668,668,1727973985860,-0.0234375,-0.9423828,-0.4169922,0.21875,0.0,0.125
669,669,1727973985900,-0.016601562,-0.9296875,-0.41601562,-0.46875,-0.125,-0.125
670,670,1727973985940,-0.013671875,-0.9316406,-0.42578125,0.53125,0.125,0.0625
671,671,1727973985980,-0.021484375,-0.9345703,-0.4189453,0.46875,0.0,0.0
672,672,1727973986020,-0.0107421875,-0.9277344,-0.42773438,-0.46875,0.0,0.0
673,673,1727973986060,-0.0234375,-0.93652344,-0.41308594,-0.15625,0.0625,0.0
674,674,1727973986100,-0.0146484375,-0.9267578,-0.40234375,0.28125,0.0625,0.125
675,675,1727973986140,-0.015625,-0.9326172,-0.40722656,0.15625,0.0625,0.0
676,676,1727973986180,-0.016601562,-0.9345703,-0.42871094,-0.09375,0.125,-0.125
677,677,1727973986220,-0.020507812,-0.93847656,-0.41015625,0.03125,-0.125,0.0
678,678,1727973986260,-0.022460938,-0.93652344,-0.4111328,0.46875,0.0,0.21875
679,679,1727973986300,-0.02734375,-0.9316406,-0.41308594,0.875,-0.0625,0.21875
680,680,1727973986340,-0.024414062,-0.93359375,-0.42285156,0.75,0.0,0.15625
681,681,1727973986380,-0.01171875,-0.93652344,-0.41308594,0.21875,-0.0625,-0.0625
682,682,1727973986420,-0.020507812,-0.9355469,-0.39941406,0.46875,0.0625,-0.125
683,683,1727973986460,-0.0146484375,-0.93652344,-0.40429688,0.34375,0.125,-0.1875
684,684,1727973986500,-0.01953125,-0.9248047,-0.42089844,0.28125,0.0,0.0625
685,685,1727973986540,-0.022460938,-0.9326172,-0.4091797,0.75,0.0625,0.0625
686,686,1727973986580,-0.024414062,-0.9394531,-0.40722656,0.34375,-0.0625,0.125
687,687,1727973986620,-0.017578125,-0.9296875,-0.40820312,-0.09375,0.0,0.0625
688,688,1727973986660,-0.016601562,-0.9355469,-0.40722656,0.21875,0.0625,-0.125
689,689,1727973986700,-0.026367188,-0.9326172,-0.41503906,-0.09375,-0.0625,0.0
690,690,1727973986740,-0.022460938,-0.9345703,-0.41210938,-0.34375,0.0,-0.125
691,691,1727973986780,-0.022460938,-0.9296875,-0.40625,-0.59375,0.0,-0.125
692,692,1727973986820,-0.01953125,-0.9453125,-0.41503906,-0.03125,-0.0625,0.0625
693,693,1727973986860,-0.016601562,-0.93652344,-0.41503906,0.28125,0.0,0.0625
694,694,1727973986900,-0.022460938,-0.93652344,-0.41308594,-0.15625,-0.0625,-0.0625
695,695,1727973986940,-0.013671875,-0.9375,-0.40039062,0.09375,0.0625,0.0
696,696,1727973986980,-0.018554688,-0.9267578,-0.4169922,0.59375,0.0625,0.0625
697,697,1727973987020,-0.013671875,-0.9345703,-0.40625,0.75,0.0625,0.0625
698,698,1727973987060,-0.018554688,-0.9326172,-0.41796875,0.75,-0.0625,0.15625
699,699,1727973987100,-0.022460938,-0.9355469,-0.421875,0.875,0.125,0.15625
700,700,1727973987140,-0.01953125,-0.9355469,-0.41503906,0.40625,0.0,0.21875
701,701,1727973987180,-0.02734375,-0.9345703,-0.41015625,-0.09375,0.0,-0.0625
702,702,1727973987220,-0.016601562,-0.9394531,-0.40234375,-0.59375,0.0,-0.125
703,703,1727973987260,-0.0126953125,-0.9345703,-0.41796875,-0.53125,0.0,-0.1875
704,704,1727973987300,-0.01953125,-0.9326172,-0.41308594,-0.09375,0.0625,0.125
705,705,1727973987340,-0.017578125,-0.9355469,-0.4296875,-0.21875,-0.125,-0.0625
706,706,1727973987380,-0.017578125,-0.93652344,-0.41015625,-0.65625,-0.125,-0.125
707,707,1727973987420,-0.021484375,-0.9267578,-0.40039062,-0.15625,0.0625,-0.125
708,708,1727973987460,-0.024414062,-0.9316406,-0.41308594,-0.28125,0.0,-0.0625
709,709,1727973987500,-0.021484375,-0.9316406,-0.42285156,0.28125,0.0625,0.0625
710,710,1727973987540,-0.018554688,-0.9316406,-0.4111328,0.9375,0.125,0.15625
711,711,1727973987580,-0.018554688,-0.9355469,-0.40820312,0.53125,-0.125,0.125
712,712,1727973987620,-0.021484375,-0.9296875,-0.4111328,0.21875,-0.125,-0.0625
713,713,1727973987660,-0.024414062,-0.9326172,-0.40722656,-0.09375,0.0,-0.1875
714,714,1727973987700,-0.025390625,-0.9316406,-0.4013672,0.15625,0.125,0.0625
715,715,1727973987740,-0.017578125,-0.9394531,-0.40429688,-0.15625,0.0,0.0
716,716,1727973987780,-0.018554688,-0.92871094,-0.39941406,-0.09375,-0.0625,0.15625
717,717,1727973987820,-0.026367188,-0.9404297,-0.4140625,0.34375,0.125,0.125
718,718,1727973987860,-0.022460938,-0.93847656,-0.40820312,0.09375,0.0625,0.0
719,719,1727973987900,-0.022460938,-0.93847656,-0.4169922,-0.53125,0.0,-0.125
720,720,1727973987940,-0.01953125,-0.92285156,-0.41015625,-0.6875,-0.125,-0.25
721,721,1727973987980,-0.015625,-0.9296875,-0.4033203,0.40625,0.0,0.125
722,722,1727973988020,-0.01953125,-0.9394531,-0.39746094,0.15625,-0.0625,0.0625
723,723,1727973988060,-0.022460938,-0.9355469,-0.4189453,-0.40625,-0.0625,-0.0625
724,724,1727973988100,-0.020507812,-0.9296875,-0.4111328,0.03125,-0.1875,0.125
725,725,1727973988140,-0.024414062,-0.94433594,-0.41601562,-0.28125,-0.125,-0.25
726,726,1727973988180,-0.017578125,-0.9394531,-0.40820312,-0.09375,-0.0625,-0.1875
727,727,1727973988220,-0.021484375,-0.9238281,-0.4189453,0.53125,0.0625,0.0625
728,728,1727973988260,-0.0107421875,-0.92871094,-0.42089844,0.46875,0.0,0.125
729,729,1727973988300,-0.0234375,-0.9375,-0.40722656,0.15625,0.0,0.15625
730,730,1727973988340,-0.016601562,-0.9326172,-0.41796875,0.09375,0.0,0.0
731,731,1727973988380,-0.025390625,-0.92578125,-0.4013672,-0.09375,-0.125,-0.0625
732,732,1727973988420,-0.015625,-0.9394531,-0.4169922,-0.34375,-0.0625,0.0
733,733,1727973988460,-0.016601562,-0.9326172,-0.41015625,0.53125,0.0625,-0.125
734,734,1727973988500,-0.01171875,-0.9404297,-0.40527344,0.625,0.0,0.125
735,735,1727973988540,-0.018554688,-0.9375,-0.4091797,0.28125,-0.125,0.15625
736,736,1727973988580,-0.024414062,-0.9316406,-0.41210938,0.03125,0.0,0.0625
737,737,1727973988620,-0.021484375,-0.9355469,-0.4169922,-0.53125,0.0,0.0
738,738,1727973988660,-0.013671875,-0.9296875,-0.4189453,-0.875,-0.1875,-0.125
739,739,1727973988700,-0.021484375,-0.9267578,-0.41210938,-0.15625,-0.25,0.0625
740,740,1727973988740,-0.018554688,-0.9248047,-0.4033203,-0.15625,-0.125,0.125
741,741,1727973988780,-0.024414062,-0.9394531,-0.4169922,-0.21875,0.0,0.125
742,742,1727973988820,-0.018554688,-0.9277344,-0.40625,0.21875,0.0625,-0.0625
743,743,1727973988860,-0.022460938,-0.9355469,-0.4169922,-0.28125,0.125,-0.1875
744,744,1727973988900,-0.025390625,-0.9345703,-0.4091797,-0.03125,-0.0625,-0.125
745,745,1727973988940,-0.015625,-0.9316406,-0.41210938,0.59375,0.0625,0.125
746,746,1727973988980,-0.01953125,-0.9375,-0.41796875,0.6875,-0.0625,0.15625
747,747,1727973989020,-0.01953125,-0.9326172,-0.41796875,0.15625,0.0625,-0.0625
748,748,1727973989060,-0.020507812,-0.9404297,-0.4091797,0.34375,0.0,-0.0625
749,749,1727973989100,-0.022460938,-0.9345703,-0.4091797,0.59375,-0.0625,0.0
750,750,1727973989140,-0.017578125,-0.9316406,-0.41210938,0.28125,0.0625,0.125
751,751,1727973989180,-0.015625,-0.9355469,-0.40527344,0.34375,-0.0625,0.0625
752,752,1727973989220,-0.024414062,-0.9326172,-0.4091797,0.9375,0.0,0.21875
753,753,1727973989260,-0.0234375,-0.93066406,-0.40234375,0.28125,-0.0625,0.125
754,754,1727973989300,-0.0126953125,-0.9277344,-0.4169922,-0.03125,-0.0625,-0.0625
755,755,1727973989340,-0.0234375,-0.9355469,-0.40527344,0.21875,0.125,-0.0625
756,756,1727973989380,-0.021484375,-0.9326172,-0.41015625,-0.03125,0.0,-0.0625
757,757,1727973989420,-0.017578125,-0.9355469,-0.42382812,-0.40625,-0.0625,-0.0625
758,758,1727973989460,-0.01953125,-0.92285156,-0.42773438,-0.21875,-0.125,0.0
759,759,1727973989500,-0.026367188,-0.9345703,-0.40527344,-0.46875,-0.1875,-0.0625
