,timestamp,accel_x,accel_y,accel_z,gyro_x,gyro_y,gyro_z
0,1727372892779,-0.7441406,-0.15429688,0.25097656,-34.84375,35.96875,16.8125
1,1727372892819,-0.890625,-0.69140625,0.38378906,-58.46875,30.78125,-11.59375
2,1727372892859,-0.6953125,-0.4267578,0.31933594,-9.15625,29.5,13.75
3,1727372892899,-1.3349609,0.0107421875,0.2529297,-67.09375,112.40625,38.96875
4,1727372892939,-1.9892578,-0.41601562,0.4169922,-66.09375,35.90625,20.53125
5,1727372892979,-0.7548828,0.046875,-0.25,-128.3125,-30.0,11.0625
6,1727372893019,-0.6767578,-0.24902344,-0.55566406,-148.625,6.1875,48.59375
7,1727372893059,-0.8964844,-0.38671875,-0.3642578,-115.65625,63.6875,58.125
8,1727372893099,-1.1132812,-0.44921875,-0.41015625,-119.8125,99.5625,15.53125
9,1727372893139,-1.0712891,-0.14648438,0.10546875,-142.15625,8.03125,-31.40625
10,1727372893179,-0.9433594,-0.37695312,-0.296875,-154.4375,-6.4375,-32.5625
11,1727372893219,-0.95214844,-0.4814453,-0.32910156,-63.59375,1.90625,-22.8125
12,1727372893259,-0.9658203,-0.4560547,-0.15039062,-20.625,10.78125,-11.53125
13,1727372893299,-0.89746094,-0.38671875,-0.18066406,-39.1875,11.625,-23.59375
14,1727372893339,-0.9589844,-0.29296875,-0.0546875,-60.5,-2.125,-46.0625
15,1727372893379,-1.0019531,-0.19726562,-0.14941406,-69.09375,1.25,-20.90625
16,1727372893419,-0.9013672,-0.5625,-0.18359375,-32.34375,6.9375,-3.15625
17,1727372893459,-1.0136719,-0.23828125,-0.10546875,-58.90625,-8.65625,-13.15625
18,1727372893499,-1.1298828,0.043945312,-0.33984375,-67.625,-5.71875,10.6875
19,1727372893539,-0.90234375,-0.43359375,-0.29492188,-68.90625,-10.96875,23.75
20,1727372893579,-1.1914062,-0.43847656,-0.10839844,-72.09375,-8.40625,25.03125
21,1727372893619,-1.1914062,-0.4189453,-0.072265625,-79.59375,-18.71875,21.875
22,1727372893659,-1.0400391,-0.5966797,-0.34179688,-79.53125,-45.4375,0.125
23,1727372893699,-1.3134766,-0.31445312,-0.32714844,22.9375,-32.375,-10.59375
24,1727372893739,-1.3183594,-0.037109375,-0.0859375,56.03125,-67.96875,-5.21875
25,1727372893779,-1.0410156,-0.18066406,-0.19238281,-13.5625,-74.4375,1.1875
26,1727372893819,-0.89453125,-0.16503906,-0.25976562,-48.03125,-36.15625,-6.28125
27,1727372893859,-0.9013672,-0.08984375,0.20019531,12.5,-105.5625,-21.40625
28,1727372893899,-0.99316406,-0.055664062,0.10449219,33.5625,-98.4375,-15.59375
29,1727372893939,-1.1005859,-0.29589844,-0.02734375,62.1875,-104.59375,-35.9375
30,1727372893979,-1.2177734,-0.42285156,-0.061523438,52.0625,-136.25,-72.8125
31,1727372894019,-1.2919922,-0.37402344,0.12011719,107.125,-152.6875,-111.875
32,1727372894059,-1.1835938,-0.2998047,0.21972656,155.6875,-148.15625,-77.5625
33,1727372894099,-0.953125,-0.33203125,0.19238281,136.71875,-128.15625,-74.375
34,1727372894139,-0.7734375,-0.41601562,0.30078125,118.34375,-109.40625,-73.65625
35,1727372894179,-0.6308594,-0.2705078,0.24707031,118.09375,-84.09375,-49.53125
36,1727372894219,-0.40429688,-0.0859375,0.34179688,118.78125,-67.28125,-44.0
37,1727372894259,-0.3310547,0.0146484375,0.41210938,89.40625,-33.78125,-31.96875
38,1727372894299,-0.32128906,-0.08300781,0.546875,18.5625,-21.53125,-27.75
39,1727372894339,-0.3642578,-0.22851562,0.6455078,9.875,-0.9375,-23.40625
40,1727372894379,-0.4638672,-0.05078125,0.6464844,-5.0625,23.15625,-12.8125
41,1727372894419,-0.6738281,-0.16796875,0.81640625,-11.28125,16.125,-6.6875
42,1727372894459,-0.64160156,-0.30859375,0.9169922,-0.1875,14.75,-20.625
43,1727372894499,-0.4404297,-0.10253906,0.74902344,15.5625,21.9375,1.125
44,1727372894539,-0.5917969,-0.2265625,0.9970703,-12.03125,72.65625,6.5
45,1727372894579,-0.8925781,0.0546875,1.0957031,-56.21875,63.75,17.71875
46,1727372894619,-0.8564453,-0.34765625,0.47753906,-103.09375,122.65625,35.28125
47,1727372894659,-0.890625,-0.3779297,0.040039062,-143.5,132.53125,42.3125
48,1727372894699,-1.0673828,-0.34570312,0.17382812,-144.0625,99.9375,31.625
49,1727372894739,-1.2041016,-0.25390625,0.0390625,-145.625,104.9375,52.4375
50,1727372894779,-0.8466797,-0.11425781,-0.053710938,-116.09375,95.375,70.6875
51,1727372894819,-0.9140625,-0.15527344,-0.08984375,-247.75,103.1875,100.53125
52,1727372894859,-0.9423828,-0.4375,-0.26367188,-176.6875,107.03125,76.25
53,1727372894899,-0.6611328,-0.7705078,0.09375,-24.46875,60.21875,26.625
54,1727372894939,-0.7753906,-0.5859375,0.10546875,31.90625,61.71875,15.21875
55,1727372894979,-0.86035156,-0.6015625,-0.06640625,62.0,34.09375,-12.0625
56,1727372895019,-1.0205078,-0.4736328,0.037109375,-72.75,9.25,-44.0625
57,1727372895059,-1.0126953,-0.19140625,-0.15820312,-74.21875,25.96875,-36.65625
58,1727372895099,-0.9033203,-0.11816406,-0.16992188,-27.40625,58.9375,-0.78125
59,1727372895139,-0.99902344,-0.36035156,-0.013671875,3.59375,45.5,22.71875
60,1727372895179,-1.125,-0.26367188,0.040039062,-34.625,-5.03125,10.75
61,1727372895219,-0.9453125,-0.40820312,-0.37304688,-74.03125,-17.0,17.90625
62,1727372895259,-1.0771484,-0.43359375,-0.2578125,-15.5625,-2.84375,20.34375
63,1727372895299,-1.2558594,-0.5888672,-0.37402344,-16.0625,-11.8125,9.78125
64,1727372895339,-1.5488281,-0.37304688,-0.27441406,-8.0625,4.375,0.03125
65,1727372895379,-1.4794922,-0.24707031,0.29589844,23.875,-26.03125,12.03125
66,1727372895419,-1.3994141,-0.4560547,0.29785156,-8.96875,-119.3125,-1.5
67,1727372895459,-1.3759766,-0.61816406,0.2705078,4.21875,-147.625,-22.3125
68,1727372895499,-1.2138672,-0.17773438,-0.6220703,-59.09375,-124.78125,-22.1875
69,1727372895539,-0.6855469,-0.7080078,0.18945312,56.9375,-106.90625,-85.5625
70,1727372895579,-0.8310547,0.02734375,-0.12011719,202.5,-104.15625,-85.875
71,1727372895619,-0.7675781,-0.21484375,0.0546875,132.5625,-117.53125,-70.25
72,1727372895659,-0.8330078,-0.13867188,0.06542969,193.59375,-134.625,-80.0
73,1727372895699,-0.6923828,-0.3251953,0.2421875,157.28125,-124.84375,-69.8125
74,1727372895739,-0.68066406,-0.23632812,0.26757812,162.15625,-95.125,-45.21875
75,1727372895779,-0.69628906,-0.2626953,0.2998047,128.21875,-72.65625,-37.34375
76,1727372895819,-0.421875,0.21191406,0.6464844,51.03125,-33.25,-31.90625
77,1727372895859,-0.4921875,-0.28027344,0.5986328,12.25,1.84375,-31.0
78,1727372895899,-0.34765625,-0.22167969,0.5566406,35.28125,4.65625,-42.59375
79,1727372895939,-0.38964844,-0.0126953125,0.59277344,14.15625,16.75,-29.03125
80,1727372895979,-0.6123047,-0.029296875,0.7236328,-21.625,21.8125,-14.21875
81,1727372896019,-0.8183594,-0.11816406,1.1621094,-33.9375,25.59375,8.1875
82,1727372896059,-0.7421875,-0.061523438,0.8730469,-44.75,46.96875,34.625
83,1727372896099,-0.87109375,-0.32617188,0.18066406,-58.65625,101.53125,57.21875
84,1727372896139,-1.2314453,-0.3486328,0.5126953,-134.59375,104.34375,30.96875
85,1727372896179,-1.1044922,-0.51953125,0.31347656,-107.0625,99.6875,38.59375
86,1727372896219,-0.92285156,-0.34277344,0.12988281,-142.875,97.0,46.71875
87,1727372896259,-0.95410156,-0.27734375,0.041015625,-161.875,116.65625,60.625
88,1727372896299,-0.79003906,-0.30078125,0.08496094,-132.6875,118.875,70.09375
89,1727372896339,-0.71484375,-0.328125,-0.064453125,-189.46875,110.4375,62.09375
90,1727372896379,-0.7705078,-0.45996094,-0.16992188,-49.5,75.40625,54.28125
91,1727372896419,-0.83496094,-0.49316406,-0.021484375,2.6875,88.40625,39.125
92,1727372896459,-0.98535156,-0.45996094,-0.072265625,90.03125,54.71875,34.875
93,1727372896499,-0.92578125,-0.37695312,-0.22265625,4.8125,66.625,-17.375
94,1727372896539,-1.125,-0.20800781,-0.14257812,-28.09375,26.34375,-31.71875
95,1727372896579,-1.171875,-0.1484375,0.056640625,1.03125,28.65625,-15.375
96,1727372896619,-0.85253906,-0.39160156,0.044921875,-24.84375,-20.96875,-4.3125
97,1727372896659,-0.890625,-0.16796875,-0.43847656,-60.71875,1.75,-5.0
98,1727372896699,-1.0244141,-0.3935547,-0.14941406,-5.125,8.75,18.375
99,1727372896739,-1.1230469,-0.32910156,-0.18261719,-60.1875,6.4375,12.65625
100,1727372896779,-1.3505859,-0.32910156,-0.25976562,-52.3125,1.6875,9.0625
101,1727372896819,-1.3251953,-0.4375,-0.17089844,17.5,-4.84375,3.4375
102,1727372896859,-1.3232422,-0.4921875,0.10839844,12.9375,-31.03125,8.9375
103,1727372896899,-1.3457031,-0.4814453,0.033203125,-12.5625,-101.40625,-12.625
104,1727372896939,-1.6171875,-0.44335938,0.09472656,81.90625,-117.96875,-21.34375
105,1727372896979,-1.2490234,-0.111328125,-0.28808594,-79.34375,-143.65625,-24.875
106,1727372897019,-0.93652344,-0.53515625,-0.33691406,40.71875,-102.03125,-82.6875
107,1727372897059,-0.6308594,-0.103515625,0.14257812,111.15625,-97.5,-76.03125
108,1727372897099,-0.5761719,-0.18066406,-0.06640625,231.1875,-101.78125,-45.46875
109,1727372897139,-0.76464844,-0.23730469,-0.0703125,172.71875,-120.875,-51.875
110,1727372897179,-0.7714844,-0.07324219,0.10058594,188.78125,-118.1875,-58.53125
111,1727372897219,-0.88671875,-0.2841797,0.35253906,133.25,-111.3125,-52.53125
112,1727372897259,-0.7705078,-0.1796875,0.24511719,129.375,-90.5625,-40.28125
113,1727372897299,-0.56347656,0.04296875,0.4375,89.53125,-67.53125,-42.15625
114,1727372897339,-0.33691406,0.02734375,0.5673828,30.5625,-20.40625,-17.75
115,1727372897379,-0.3642578,-0.2265625,0.55371094,6.65625,4.90625,-21.59375
116,1727372897419,-0.265625,-0.14453125,0.48632812,-5.0625,27.84375,-19.9375
117,1727372897459,-0.8359375,0.13769531,1.6181641,-80.21875,31.46875,-5.0
118,1727372897499,-1.2890625,-0.57421875,-0.07519531,-55.375,69.90625,-0.84375
119,1727372897539,-0.8232422,-0.08886719,0.171875,-75.75,108.125,34.0
120,1727372897579,-1.3583984,-0.11816406,0.21777344,-111.21875,115.875,45.125
121,1727372897619,-1.0292969,-0.27441406,0.19824219,-161.6875,100.125,25.40625
122,1727372897659,-0.8984375,-0.22460938,0.09277344,-187.75,104.875,49.03125
123,1727372897699,-0.7705078,-0.22460938,-0.06347656,-194.46875,113.3125,76.5625
124,1727372897739,-0.7167969,-0.34179688,-0.040039062,-189.6875,92.875,87.25
125,1727372897779,-0.9111328,-0.5390625,-0.23925781,-150.40625,75.53125,70.6875
126,1727372897819,-0.8095703,-0.7988281,0.038085938,13.53125,61.25,47.8125
127,1727372897859,-0.9580078,-0.50878906,-0.024414062,94.21875,58.625,16.25
128,1727372897899,-0.93652344,-0.48339844,-0.19140625,11.71875,38.90625,-20.4375
129,1727372897939,-1.0625,-0.22167969,-0.029296875,-49.375,38.71875,-41.375
130,1727372897979,-1.1552734,-0.04296875,-0.017578125,-28.5,13.75,-30.0
131,1727372898019,-0.9550781,-0.5078125,-0.017578125,-4.09375,-11.15625,-7.375
132,1727372898059,-0.8515625,-0.1875,-0.15625,-21.90625,8.3125,-3.09375
133,1727372898099,-0.9941406,-0.25683594,-0.18652344,-8.78125,3.375,12.34375
134,1727372898139,-0.9765625,-0.36523438,-0.24511719,-24.0,15.84375,15.9375
135,1727372898179,-1.1972656,-0.23242188,-0.21679688,-14.96875,16.25,16.1875
136,1727372898219,-1.4072266,-0.47558594,-0.27734375,-35.59375,18.21875,17.46875
137,1727372898259,-1.5322266,-0.58496094,0.1015625,19.59375,12.1875,17.28125
138,1727372898299,-1.4570312,-0.5292969,0.2265625,4.375,-51.25,-0.84375
139,1727372898339,-1.4140625,-0.36523438,0.296875,11.03125,-126.125,-3.53125
140,1727372898379,-1.3662109,-0.34570312,0.059570312,-89.84375,-188.34375,-27.9375
141,1727372898419,-1.2167969,-0.48242188,-0.57421875,1.40625,-108.1875,-62.125
142,1727372898459,-0.6621094,-0.8613281,0.0048828125,79.84375,-70.71875,-94.09375
143,1727372898499,-0.70214844,-0.24023438,-0.15039062,258.46875,-87.5625,-86.03125
144,1727372898539,-0.6542969,-0.095703125,-0.20019531,201.96875,-97.9375,-78.96875
145,1727372898579,-0.67871094,0.053710938,0.015625,172.78125,-116.71875,-85.125
146,1727372898619,-0.82714844,-0.25097656,0.18457031,135.3125,-116.6875,-87.625
147,1727372898659,-0.75390625,-0.21484375,0.30664062,140.8125,-95.875,-53.625
148,1727372898699,-0.56347656,-0.18066406,0.39453125,98.3125,-64.1875,-54.125
149,1727372898739,-0.40234375,-0.103515625,0.55859375,50.46875,-25.84375,-38.0
150,1727372898779,-0.41210938,-0.20507812,0.58691406,16.40625,9.84375,-27.21875
151,1727372898819,-0.27929688,-0.095703125,0.46875,-0.4375,35.84375,-17.0625
152,1727372898859,-0.5957031,-0.16210938,0.7548828,3.40625,31.28125,0.0625
153,1727372898899,-1.1298828,-0.28515625,1.0898438,-29.78125,22.125,0.625
154,1727372898939,-0.6767578,-0.33789062,0.6748047,-68.65625,78.34375,20.21875
155,1727372898979,-0.9746094,-0.21875,0.5761719,-78.3125,96.71875,26.8125
156,1727372899019,-1.2294922,-0.2578125,0.29785156,-95.65625,106.78125,43.03125
157,1727372899059,-1.0458984,-0.38867188,0.13378906,-111.9375,105.96875,54.53125
158,1727372899099,-0.9189453,-0.3623047,0.06542969,-162.0,111.65625,49.28125
159,1727372899139,-0.8652344,-0.26953125,0.09375,-142.34375,120.4375,62.75
160,1727372899179,-0.828125,-0.2607422,0.03125,-149.34375,102.75,61.96875
161,1727372899219,-0.8027344,-0.3310547,-0.06542969,-100.15625,84.3125,60.0625
162,1727372899259,-0.7939453,-0.38671875,-0.07421875,-30.9375,67.78125,49.09375
163,1727372899299,-0.9199219,-0.4189453,-0.03125,-41.09375,44.40625,21.375
164,1727372899339,-1.0166016,-0.6923828,-0.099609375,35.03125,54.46875,8.1875
165,1727372899379,-0.88964844,-0.4404297,-0.12109375,-1.46875,42.03125,-30.25
166,1727372899419,-1.0703125,-0.029296875,-0.10253906,-73.0,42.5,-37.875
167,1727372899459,-1.0761719,-0.30859375,0.024414062,21.1875,12.84375,17.0
168,1727372899499,-0.8779297,-0.45996094,-0.16601562,-24.96875,-2.0,-0.59375
169,1727372899539,-0.93847656,-0.26953125,-0.14355469,-16.1875,18.6875,6.4375
170,1727372899579,-0.9736328,-0.3310547,-0.13769531,-43.59375,2.03125,11.96875
171,1727372899619,-1.1621094,-0.16601562,-0.20214844,-66.40625,-3.09375,11.0625
172,1727372899659,-1.2949219,-0.40625,-0.21386719,-61.65625,-9.4375,25.09375
173,1727372899699,-1.2890625,-0.32910156,-0.21972656,-35.28125,1.5625,3.3125
174,1727372899739,-1.3857422,-0.45117188,-0.020507812,-17.75,0.75,7.28125
175,1727372899779,-1.2470703,-0.49804688,-0.026367188,-65.3125,-47.21875,-14.5625
176,1727372899819,-1.2314453,-0.35058594,0.032226562,-20.6875,-74.6875,-23.53125
177,1727372899859,-1.3027344,-0.2529297,0.14550781,17.03125,-110.375,-23.78125
178,1727372899899,-0.9472656,-0.08105469,-0.3515625,-82.9375,-126.875,-17.5625
179,1727372899939,-0.8544922,-0.18066406,-0.28125,12.8125,-52.90625,-40.6875
180,1727372899979,-0.6923828,-0.37304688,0.21875,110.59375,-53.125,-38.25
181,1727372900019,-0.84765625,-0.0107421875,-0.1796875,66.71875,-59.84375,-53.75
182,1727372900059,-0.80371094,0.12890625,-0.001953125,64.6875,-93.1875,-39.65625
183,1727372900099,-0.77441406,-0.37890625,0.026367188,47.46875,-77.3125,-38.875
184,1727372900139,-0.83203125,-0.22363281,0.048828125,115.0,-71.25,-25.0
185,1727372900179,-0.7363281,-0.02734375,0.044921875,74.09375,-41.1875,-11.75
186,1727372900219,-0.6015625,-0.15625,0.13671875,24.71875,-9.3125,-7.6875
187,1727372900259,-0.61816406,-0.21582031,0.13574219,-13.0625,16.625,-5.0
188,1727372900299,-0.6308594,-0.14941406,0.24023438,-68.78125,51.125,20.03125
189,1727372900339,-0.79589844,-0.5419922,0.35253906,-100.28125,84.125,36.15625
190,1727372900379,-0.81640625,-0.7207031,0.4873047,-64.53125,82.84375,17.96875
191,1727372900419,-0.8330078,-0.5810547,0.47558594,-98.6875,93.71875,14.65625
192,1727372900459,-1.3876953,-0.38867188,0.38476562,-60.625,82.71875,24.75
193,1727372900499,-2.0,-0.041015625,-0.0859375,-16.84375,-3.625,40.375
194,1727372900539,-0.44726562,0.14453125,0.10253906,-98.8125,-41.90625,-32.09375
195,1727372900579,-0.8261719,-0.033203125,-0.46972656,-100.90625,-3.15625,40.90625
196,1727372900619,-0.9716797,-0.26757812,-0.58691406,-16.84375,10.59375,53.84375
197,1727372900659,-1.0820312,-0.3095703,-0.45410156,-7.5625,73.34375,11.6875
198,1727372900699,-1.0458984,-0.234375,-0.23925781,-148.5625,91.09375,-17.25
199,1727372900739,-1.0322266,-0.22265625,-0.095703125,-195.5,-35.5,-40.5
200,1727372900779,-0.9736328,-0.36328125,-0.28320312,-19.71875,-25.25,-1.6875
201,1727372900819,-0.9511719,-0.4736328,-0.3642578,-45.59375,-13.15625,-6.5625
202,1727372900859,-0.79589844,-0.49414062,-0.26171875,-79.71875,4.3125,-28.84375
203,1727372900899,-1.0761719,-0.26757812,0.203125,-62.125,2.59375,-53.15625
204,1727372900939,-0.97265625,-0.13085938,-0.123046875,-112.8125,-24.6875,-28.0625
205,1727372900979,-0.99121094,-0.23046875,-0.26953125,-54.15625,-17.90625,0.6875
206,1727372901019,-0.88183594,-0.4921875,0.021484375,-53.46875,-10.90625,9.46875
207,1727372901059,-0.95996094,-0.265625,-0.20214844,-75.0625,-18.40625,5.15625
208,1727372901099,-1.0908203,-0.2783203,-0.27734375,-68.4375,-6.375,26.03125
209,1727372901139,-1.2021484,-0.45117188,-0.22949219,-52.625,-2.78125,26.1875
210,1727372901179,-1.359375,-0.5390625,-0.109375,-47.5,-5.65625,-1.25
211,1727372901219,-1.3867188,-0.3828125,0.052734375,-35.28125,-23.59375,-13.65625
212,1727372901259,-1.4042969,-0.25097656,-0.024414062,-43.875,-86.03125,-21.53125
213,1727372901299,-1.4208984,-0.16113281,0.083984375,-51.53125,-127.40625,-27.625
214,1727372901339,-1.1894531,-0.12890625,-0.028320312,-82.9375,-151.875,-25.25
215,1727372901379,-1.0810547,-0.14746094,-0.11425781,-44.25,-140.59375,-21.65625
216,1727372901419,-0.7939453,-0.6699219,0.040039062,-29.96875,-72.3125,-88.0625
217,1727372901459,-0.7519531,-0.49414062,0.033203125,96.375,-108.5625,-109.71875
218,1727372901499,-0.8300781,-0.20117188,0.072265625,125.375,-116.0,-86.21875
219,1727372901539,-0.8769531,-0.21289062,0.27148438,118.90625,-121.4375,-88.25
220,1727372901579,-0.7001953,-0.41601562,0.2783203,115.78125,-110.6875,-66.6875
221,1727372901619,-0.65234375,-0.25097656,0.32714844,121.09375,-86.40625,-41.71875
222,1727372901659,-0.5341797,-0.14550781,0.3330078,101.4375,-61.625,-22.875
223,1727372901699,-0.48242188,-0.1484375,0.40234375,89.71875,-43.5625,-15.3125
224,1727372901739,-0.43066406,-0.16503906,0.5966797,57.375,-19.125,-5.0
225,1727372901779,-0.43847656,-0.12011719,0.56933594,4.4375,-1.5,-2.4375
226,1727372901819,-0.34179688,-0.30566406,0.5048828,-17.9375,35.5,3.9375
227,1727372901859,-0.7451172,-0.57714844,1.1318359,-66.53125,62.46875,9.90625
228,1727372901899,-1.0253906,-0.046875,0.91015625,-48.59375,69.53125,33.71875
229,1727372901939,-0.8173828,-0.030273438,0.45214844,-93.03125,89.125,71.375
230,1727372901979,-1.0732422,-0.43945312,0.47460938,-122.25,93.78125,59.90625
231,1727372902019,-1.0498047,-0.42382812,0.15820312,-116.03125,100.625,74.53125
232,1727372902059,-1.0429688,-0.42285156,-0.0087890625,-144.09375,105.625,74.0625
233,1727372902099,-1.0410156,-0.40820312,0.078125,-123.1875,111.65625,83.75
234,1727372902139,-0.8828125,-0.25,0.03515625,-106.5,100.375,67.28125
235,1727372902179,-0.7285156,-0.28515625,-0.119140625,-87.21875,86.03125,79.96875
236,1727372902219,-0.7050781,-0.40820312,-0.1015625,18.1875,89.125,45.90625
237,1727372902259,-0.90234375,-0.5830078,-0.044921875,56.8125,79.5625,37.3125
238,1727372902299,-0.921875,-0.50390625,-0.045898438,-16.59375,63.0,-30.3125
239,1727372902339,-1.1845703,-0.20117188,0.045898438,-51.59375,5.09375,-37.15625
240,1727372902379,-0.9267578,-0.27734375,-0.22070312,-91.125,25.0625,-25.8125
241,1727372902419,-1.0498047,-0.22167969,0.020507812,45.34375,42.1875,18.5
242,1727372902459,-0.90722656,-0.3876953,0.08203125,-38.8125,-3.875,1.46875
243,1727372902499,-1.0175781,-0.20703125,-0.2529297,-52.1875,2.34375,8.625
244,1727372902539,-1.0419922,-0.3515625,-0.30078125,-31.8125,10.9375,22.46875
245,1727372902579,-1.2607422,-0.3017578,-0.16796875,-16.0625,12.1875,12.96875
246,1727372902619,-1.2851562,-0.484375,-0.23925781,-38.6875,13.34375,-2.125
247,1727372902659,-1.4257812,-0.4169922,-0.2763672,24.03125,-0.875,1.78125
248,1727372902699,-1.4082031,-0.21777344,0.26660156,84.90625,-31.03125,6.1875
249,1727372902739,-1.3789062,-0.34570312,0.43066406,21.25,-136.03125,-0.78125
250,1727372902779,-1.3505859,-0.18359375,-0.28125,-114.09375,-182.40625,-26.65625
251,1727372902819,-1.1972656,-0.50097656,-0.34472656,-53.34375,-135.21875,-78.53125
252,1727372902859,-0.80371094,-0.55566406,0.038085938,65.96875,-91.09375,-116.8125
253,1727372902899,-0.8359375,-0.39746094,-0.13085938,241.6875,-116.5,-83.59375
254,1727372902939,-0.90625,-0.0625,-0.053710938,162.09375,-135.09375,-98.375
255,1727372902979,-0.68066406,-0.1796875,0.08203125,156.71875,-148.84375,-113.4375
256,1727372903019,-0.58984375,-0.1953125,0.29101562,120.71875,-121.9375,-71.46875
257,1727372903059,-0.5673828,-0.12207031,0.25097656,108.34375,-79.8125,-54.125
258,1727372903099,-0.4404297,-0.13964844,0.44335938,59.4375,-51.5,-41.0625
259,1727372903139,-0.40625,-0.19335938,0.5751953,48.6875,-13.71875,-25.8125
260,1727372903179,-0.48242188,-0.09277344,0.5058594,44.75,-1.6875,-12.0625
261,1727372903219,-0.45117188,-0.07714844,0.61621094,-11.90625,8.9375,-5.21875
262,1727372903259,-0.45996094,-0.15234375,0.46875,-35.53125,23.78125,9.90625
263,1727372903299,-0.6123047,-0.5048828,1.0429688,-73.3125,40.84375,25.28125
264,1727372903339,-1.0097656,-0.2607422,1.0273438,-27.09375,25.21875,50.96875
265,1727372903379,-0.7285156,-0.2705078,0.34277344,-49.4375,89.9375,63.1875
266,1727372903419,-0.97558594,-0.5292969,0.41503906,-130.4375,92.75,28.9375
267,1727372903459,-0.97753906,-0.4140625,0.43945312,-129.15625,104.40625,38.59375
268,1727372903499,-0.96875,-0.24609375,0.31152344,-112.8125,106.40625,48.28125
269,1727372903539,-1.0117188,-0.09765625,0.14160156,-162.125,97.8125,71.25
270,1727372903579,-0.78515625,-0.19238281,-0.013671875,-193.125,102.6875,93.28125
271,1727372903619,-0.81152344,-0.3984375,-0.21777344,-213.4375,95.0,89.125
272,1727372903659,-0.86816406,-0.5410156,-0.18261719,-180.96875,90.53125,82.78125
273,1727372903699,-0.8496094,-0.7392578,-0.060546875,-95.03125,50.4375,78.8125
274,1727372903739,-0.8652344,-0.421875,-0.040039062,69.03125,49.59375,51.21875
275,1727372903779,-0.9863281,-0.3701172,-0.22851562,12.5,44.21875,9.90625
276,1727372903819,-0.95703125,-0.35058594,-0.1328125,-75.03125,15.53125,-20.78125
277,1727372903859,-0.94433594,-0.29296875,-0.1953125,-94.84375,11.0625,-26.78125
278,1727372903899,-0.9345703,-0.21386719,-0.16308594,-96.0625,18.15625,-18.125
279,1727372903939,-1.0507812,-0.022460938,-0.14648438,-63.3125,0.8125,-2.5
280,1727372903979,-0.9472656,-0.068359375,-0.1640625,-79.34375,16.5,24.25
281,1727372904019,-0.98535156,-0.4423828,-0.059570312,-43.78125,3.9375,29.1875
282,1727372904059,-0.90234375,-0.52441406,-0.38867188,-28.3125,12.65625,30.71875
283,1727372904099,-0.9746094,-0.40039062,0.0546875,-51.9375,-8.03125,11.78125
284,1727372904139,-1.171875,-0.41308594,-0.12792969,-28.6875,-18.40625,6.96875
285,1727372904179,-1.2939453,-0.60058594,-0.22558594,-7.09375,-30.78125,-27.75
286,1727372904219,-1.4140625,-0.115234375,-0.25195312,53.40625,-68.03125,-57.84375
287,1727372904259,-1.5419922,0.30273438,0.21191406,-21.78125,-172.34375,-71.9375
288,1727372904299,-0.97558594,0.13476562,-0.17773438,-160.15625,-132.71875,-76.09375
289,1727372904339,-0.9785156,-0.140625,-0.125,51.625,-89.09375,-78.34375
290,1727372904379,-1.2734375,-0.35058594,-0.06933594,82.15625,-136.9375,-71.28125
291,1727372904419,-1.1835938,-0.055664062,0.27246094,126.34375,-140.65625,-85.0625
292,1727372904459,-1.0351562,-0.15722656,0.08691406,126.9375,-140.90625,-73.78125
293,1727372904499,-1.0693359,-0.42285156,0.16113281,107.53125,-145.46875,-56.125
294,1727372904539,-0.7558594,-0.23535156,0.38183594,112.125,-137.0625,-42.59375
295,1727372904579,-0.57910156,-0.17675781,0.32128906,105.65625,-105.375,-9.6875
296,1727372904619,-0.4248047,-0.14941406,0.55859375,76.84375,-79.75,-1.21875
297,1727372904659,-0.42382812,-0.4033203,0.5214844,67.375,-47.46875,7.84375
298,1727372904699,-0.41308594,-0.08105469,0.60839844,40.78125,-31.21875,-0.21875
299,1727372904739,-0.35253906,0.05859375,0.54003906,27.03125,0.34375,-2.125
300,1727372904779,-0.5751953,-0.036132812,0.7060547,-31.625,14.625,7.78125
301,1727372904819,-0.59277344,-0.060546875,0.6933594,-37.90625,25.96875,24.1875
302,1727372904859,-0.6738281,-0.26171875,0.9921875,-83.625,37.9375,19.78125
303,1727372904899,-0.6748047,-0.078125,0.76171875,-103.40625,79.5,45.0625
304,1727372904939,-1.2314453,-0.12597656,0.23828125,-133.1875,92.96875,72.15625
305,1727372904979,-1.1376953,-0.6015625,0.3076172,-148.5,80.53125,43.34375
306,1727372905019,-0.97558594,-0.5078125,0.19335938,-135.125,79.25,42.5
307,1727372905059,-0.97265625,-0.39257812,0.18261719,-186.21875,76.1875,42.5
308,1727372905099,-1.0019531,-0.24707031,0.08203125,-149.53125,98.21875,67.71875
309,1727372905139,-0.93359375,-0.10839844,0.0029296875,-174.3125,81.625,90.53125
310,1727372905179,-0.765625,-0.23730469,-0.22070312,-179.15625,78.40625,86.75
311,1727372905219,-0.765625,-0.6855469,-0.048828125,-31.875,72.53125,70.09375
312,1727372905259,-0.8808594,-0.9169922,0.053710938,-43.875,64.1875,25.96875
313,1727372905299,-1.0302734,-0.42089844,0.125,12.6875,26.03125,-11.53125
314,1727372905339,-0.9326172,-0.38085938,0.10449219,-82.28125,-25.96875,-33.78125
315,1727372905379,-1.0195312,-0.19140625,-0.001953125,-67.75,4.96875,-22.8125
316,1727372905419,-0.8330078,-0.46484375,0.021484375,-38.625,-2.40625,10.6875
317,1727372905459,-0.9248047,-0.2763672,-0.05859375,-47.5,-0.46875,8.3125
318,1727372905499,-1.0488281,-0.359375,-0.16992188,-51.28125,11.5625,28.53125
319,1727372905539,-1.2822266,-0.25878906,-0.15039062,-23.625,28.09375,24.90625
320,1727372905579,-1.3261719,-0.47460938,-0.20703125,-44.8125,17.0,11.3125
321,1727372905619,-1.3173828,-0.5839844,-0.11230469,1.46875,25.0625,-0.59375
322,1727372905659,-1.4472656,-0.3828125,0.16308594,43.03125,-2.59375,-12.75
323,1727372905699,-1.3681641,-0.13183594,0.1796875,-16.90625,-106.40625,-29.9375
324,1727372905739,-1.2998047,-0.171875,0.026367188,-45.84375,-154.625,-33.75
325,1727372905779,-1.1523438,-0.2705078,-0.4404297,-17.03125,-132.90625,-39.59375
326,1727372905819,-0.6699219,-0.8544922,0.0703125,11.34375,-72.71875,-112.15625
327,1727372905859,-0.8330078,-0.2529297,0.09667969,213.5,-104.96875,-64.9375
328,1727372905899,-0.84375,0.21972656,-0.021484375,121.34375,-112.8125,-55.65625
329,1727372905939,-0.7011719,-0.43652344,0.0859375,114.375,-121.875,-86.03125
330,1727372905979,-0.7294922,-0.45507812,0.29589844,123.34375,-112.03125,-66.4375
331,1727372906019,-0.7060547,-0.15136719,0.3046875,109.25,-84.625,-43.625
332,1727372906059,-0.55078125,-0.18359375,0.390625,85.03125,-67.65625,-27.625
333,1727372906099,-0.3701172,-0.26953125,0.50390625,72.03125,-40.6875,-21.28125
334,1727372906139,-0.40527344,-0.37890625,0.55859375,52.90625,-14.625,-20.4375
335,1727372906179,-0.48242188,-0.18164062,0.5605469,54.8125,-8.9375,-23.46875
336,1727372906219,-0.43164062,0.0078125,0.6152344,-10.6875,22.0,-13.28125
337,1727372906259,-0.5,-0.18359375,0.7734375,-51.6875,44.40625,1.53125
338,1727372906299,-0.91308594,-0.36523438,0.92871094,-35.46875,38.125,21.1875
339,1727372906339,-0.88964844,-0.52441406,0.41992188,-72.8125,84.5625,29.0
340,1727372906379,-1.1533203,-0.103515625,0.3232422,-83.5,90.96875,58.84375
341,1727372906419,-1.2099609,-0.46484375,0.39746094,-111.875,72.34375,41.65625
342,1727372906459,-0.8417969,-0.39160156,0.24023438,-115.3125,86.28125,62.53125
343,1727372906499,-0.96972656,-0.484375,0.078125,-172.71875,100.90625,61.65625
344,1727372906539,-0.9277344,-0.45996094,0.016601562,-164.1875,106.78125,92.3125
345,1727372906579,-0.77441406,-0.32128906,0.040039062,-91.96875,93.59375,71.71875
346,1727372906619,-0.77441406,-0.33398438,-0.08105469,-90.21875,94.03125,72.78125
347,1727372906659,-0.75683594,-0.45996094,-0.0859375,18.0,69.53125,37.84375
348,1727372906699,-0.8642578,-0.3564453,-0.0009765625,48.6875,63.5625,23.40625
349,1727372906739,-0.9863281,-0.44433594,-0.08105469,23.5625,42.9375,-7.125
350,1727372906779,-1.0712891,-0.37597656,0.0029296875,-21.1875,38.96875,-24.34375
351,1727372906819,-0.9013672,-0.234375,-0.203125,-82.46875,11.125,-42.84375
352,1727372906859,-0.9033203,-0.06640625,-0.19433594,-21.1875,47.09375,-2.25
353,1727372906899,-0.98828125,-0.5810547,0.19921875,33.5,26.28125,19.1875
354,1727372906939,-1.0419922,-0.30859375,0.0,-45.09375,-5.78125,2.46875
355,1727372906979,-0.9707031,-0.31347656,-0.2783203,-44.5,-11.09375,11.84375
356,1727372907019,-1.1240234,-0.296875,-0.33007812,-21.96875,5.09375,17.03125
357,1727372907059,-1.3476562,-0.41601562,-0.22949219,-4.71875,7.96875,10.15625
358,1727372907099,-1.4521484,-0.5703125,-0.19628906,11.09375,2.21875,5.4375
359,1727372907139,-1.4033203,-0.45898438,0.08984375,52.59375,-20.84375,-0.53125
360,1727372907179,-1.3984375,-0.40429688,0.10058594,1.40625,-96.40625,-18.34375
361,1727372907219,-1.4472656,-0.2890625,0.07714844,10.90625,-135.71875,-31.40625
362,1727372907259,-1.2724609,-0.030273438,-0.27246094,-59.21875,-126.375,-29.40625
363,1727372907299,-0.7158203,-0.5859375,-0.2421875,26.59375,-75.0625,-86.40625
364,1727372907339,-0.6269531,-0.4345703,0.18359375,94.0,-93.71875,-95.0
365,1727372907379,-0.67285156,-0.15820312,-0.28027344,271.65625,-106.40625,-64.9375
366,1727372907419,-0.6542969,0.0234375,0.20605469,168.625,-120.03125,-77.0625
367,1727372907459,-0.7988281,-0.34570312,0.16992188,113.09375,-113.125,-76.28125
368,1727372907499,-0.8466797,-0.38378906,0.34960938,122.3125,-99.21875,-57.1875
369,1727372907539,-0.5917969,-0.119140625,0.3798828,118.03125,-69.5625,-36.25
370,1727372907579,-0.43359375,-0.10449219,0.44628906,70.3125,-43.84375,-29.84375
371,1727372907619,-0.43164062,-0.234375,0.5527344,57.90625,-14.25,-22.5625
372,1727372907659,-0.44140625,-0.08496094,0.57714844,32.28125,6.25,-20.125
373,1727372907699,-0.60253906,-0.25097656,0.7705078,-18.6875,16.4375,-28.125
374,1727372907739,-0.55078125,-0.14648438,0.48535156,-45.90625,58.0,-2.53125
375,1727372907779,-1.1240234,-0.828125,0.73828125,-71.46875,97.6875,12.21875
376,1727372907819,-1.1455078,-0.34570312,0.29492188,-81.0625,90.59375,42.75
377,1727372907859,-0.72558594,-0.33789062,0.35546875,-107.84375,88.28125,28.9375
378,1727372907899,-1.1601562,-0.37304688,0.26367188,-137.03125,99.21875,49.03125
379,1727372907939,-0.9794922,-0.4794922,0.1484375,-166.5,98.90625,52.375
380,1727372907979,-0.84472656,-0.3515625,0.043945312,-155.9375,106.03125,81.25
381,1727372908019,-0.8769531,-0.27539062,0.07421875,-121.90625,92.90625,79.0
382,1727372908059,-0.7138672,-0.28027344,-0.16894531,-127.6875,82.65625,73.75
383,1727372908099,-0.7470703,-0.4501953,-0.080078125,0.4375,76.5,49.09375
384,1727372908139,-0.90234375,-0.5136719,-0.0107421875,52.375,70.40625,33.84375
385,1727372908179,-1.0273438,-0.4873047,-0.0078125,26.375,25.53125,-9.5625
386,1727372908219,-1.0029297,-0.4404297,0.020507812,-18.3125,20.90625,-26.65625
387,1727372908259,-0.99902344,-0.33984375,-0.08496094,-73.6875,-15.53125,-37.8125
388,1727372908299,-0.92089844,-0.07519531,-0.12207031,-70.5,19.125,-24.40625
389,1727372908339,-1.0019531,-0.37597656,0.04296875,10.125,33.03125,20.9375
390,1727372908379,-0.9707031,-0.43945312,0.17285156,-29.1875,9.65625,12.65625
391,1727372908419,-1.1230469,-0.3408203,-0.14550781,-48.09375,-14.0,9.96875
392,1727372908459,-1.0595703,-0.33789062,-0.25,-31.375,11.375,14.65625
393,1727372908499,-1.4580078,-0.49316406,-0.36914062,-12.09375,37.875,5.375
394,1727372908539,-1.5185547,-0.4296875,0.19042969,80.125,48.5,13.8125
395,1727372908579,-1.5078125,-0.4609375,0.27441406,43.28125,-44.90625,5.09375
396,1727372908619,-1.4921875,-0.46191406,0.22558594,22.28125,-128.03125,-9.25
397,1727372908659,-1.3056641,-0.140625,-0.45410156,-86.5,-184.375,-21.78125
398,1727372908699,-0.9638672,-0.41015625,-0.30859375,-3.46875,-99.875,-59.1875
399,1727372908739,-0.60058594,-0.65625,0.083984375,77.15625,-80.71875,-86.21875
400,1727372908779,-0.57128906,-0.18359375,-0.19433594,184.9375,-67.34375,-61.375
401,1727372908819,-0.56640625,0.0859375,-0.038085938,211.375,-121.9375,-52.90625
402,1727372908859,-0.8144531,-0.24316406,0.28222656,101.0,-110.75,-81.53125
403,1727372908899,-0.8720703,-0.51953125,0.13574219,138.96875,-105.4375,-71.03125
404,1727372908939,-0.75390625,-0.24804688,0.484375,172.78125,-89.34375,-38.4375
405,1727372908979,-0.70703125,-0.08105469,0.45898438,93.0,-62.0,-54.84375
406,1727372909019,-0.4638672,-0.23144531,0.5390625,23.375,-27.5625,-26.21875
407,1727372909059,-0.47558594,-0.27929688,0.56933594,58.03125,-6.125,-29.28125
408,1727372909099,-0.4404297,-0.0087890625,0.49316406,60.375,-3.5,-32.46875
409,1727372909139,-0.50390625,-0.046875,0.6328125,-3.0625,16.375,-12.6875
410,1727372909179,-0.5107422,-0.10546875,0.5761719,-24.0,26.09375,-11.46875
411,1727372909219,-0.75,-0.3359375,1.0263672,-33.5625,30.71875,2.9375
412,1727372909259,-0.84277344,-0.052734375,0.98535156,-53.78125,28.96875,17.09375
413,1727372909299,-0.9404297,-0.171875,0.47265625,-57.875,72.15625,47.25
414,1727372909339,-1.1542969,-0.3251953,0.42773438,-112.84375,82.0,46.90625
415,1727372909379,-0.9873047,-0.56152344,0.20996094,-120.78125,102.75,45.90625
416,1727372909419,-1.1259766,-0.35351562,0.051757812,-146.71875,106.15625,45.5
417,1727372909459,-1.0703125,-0.33984375,0.030273438,-186.40625,120.625,66.84375
418,1727372909499,-0.79785156,-0.29589844,0.04296875,-110.28125,107.4375,75.625
419,1727372909539,-0.7001953,-0.26464844,-0.030273438,-151.5625,105.6875,76.125
420,1727372909579,-0.67089844,-0.34179688,-0.111328125,-51.59375,77.25,50.1875
421,1727372909619,-0.78808594,-0.5205078,-0.049804688,13.375,86.40625,28.46875
422,1727372909659,-1.1748047,-0.6826172,0.15722656,50.40625,48.5625,5.75
423,1727372909699,-0.9394531,-0.44921875,-0.0048828125,-5.3125,14.0,-24.59375
424,1727372909739,-0.9921875,-0.28515625,-0.083984375,-98.5625,-14.625,-43.75
425,1727372909779,-0.9638672,-0.05859375,-0.16503906,-61.90625,3.75,-25.3125
426,1727372909819,-0.9345703,-0.34570312,-0.061523438,-10.5625,18.8125,17.40625
427,1727372909859,-1.0820312,-0.31933594,0.0107421875,-41.09375,-1.375,6.96875
428,1727372909899,-0.92578125,-0.34277344,-0.16015625,-42.84375,-6.5,16.625
429,1727372909939,-1.2138672,-0.4140625,-0.14550781,-31.25,13.09375,17.65625
430,1727372909979,-1.5830078,-0.5986328,-0.10839844,-15.15625,7.09375,9.59375
431,1727372910019,-1.6132812,-0.5595703,-0.14453125,23.125,0.03125,8.375
432,1727372910059,-1.4560547,-0.40722656,0.4140625,67.6875,-35.0,10.40625
433,1727372910099,-1.3476562,-0.46679688,0.25097656,-10.0625,-138.15625,-9.625
434,1727372910139,-1.2109375,-0.21582031,-0.56347656,-55.53125,-135.71875,-18.96875
435,1727372910179,-0.80859375,-0.5283203,-0.15039062,1.34375,-82.875,-74.09375
436,1727372910219,-0.66503906,-0.18554688,-0.07324219,237.375,-96.46875,-56.625
437,1727372910259,-0.6826172,-0.09375,-0.016601562,118.78125,-107.28125,-78.71875
438,1727372910299,-0.82421875,-0.38867188,-0.06347656,120.46875,-118.0625,-80.0
439,1727372910339,-0.7753906,-0.42285156,0.27539062,152.65625,-121.625,-94.90625
440,1727372910379,-0.921875,-0.09277344,0.27929688,145.8125,-107.21875,-70.90625
441,1727372910419,-0.79589844,-0.028320312,0.4140625,125.25,-104.09375,-49.71875
442,1727372910459,-0.5576172,-0.24121094,0.52441406,100.34375,-77.65625,-37.8125
443,1727372910499,-0.4892578,-0.21972656,0.41796875,87.65625,-49.28125,-24.9375
444,1727372910539,-0.38476562,-0.10449219,0.5292969,73.84375,-30.90625,-22.125
445,1727372910579,-0.33984375,0.052734375,0.5917969,30.5,-15.90625,-17.0625
446,1727372910619,-0.3935547,-0.19921875,0.63183594,-4.875,6.125,-17.8125
447,1727372910659,-0.375,-0.28515625,0.65722656,-39.0,32.25,-28.5
448,1727372910699,-0.44335938,-0.24804688,0.62109375,-54.3125,67.34375,-29.21875
449,1727372910739,-1.2490234,-0.78515625,1.5673828,-36.625,14.3125,-39.46875
450,1727372910779,-0.23730469,0.6298828,0.5263672,2.4375,26.8125,19.125
451,1727372910819,-0.89941406,-0.8544922,0.07910156,-86.5625,111.40625,12.71875
452,1727372910859,-1.0957031,-0.19140625,0.4248047,-72.9375,94.5,27.125
453,1727372910899,-0.7373047,-0.23535156,0.42578125,-120.5625,110.0625,31.875
454,1727372910939,-1.0566406,-0.2607422,0.203125,-175.0625,111.78125,53.125
455,1727372910979,-0.92871094,-0.38476562,0.038085938,-212.46875,124.53125,55.5625
456,1727372911019,-0.73046875,-0.36035156,0.078125,-170.40625,123.875,71.375
457,1727372911059,-0.7841797,-0.33007812,-0.0234375,-213.9375,100.125,87.1875
458,1727372911099,-0.89160156,-0.34375,-0.21582031,-184.75,78.28125,77.15625
459,1727372911139,-0.90234375,-0.55566406,-0.13085938,-78.3125,58.375,50.8125
460,1727372911179,-0.9248047,-0.640625,-0.10839844,-24.65625,51.125,35.90625
461,1727372911219,-1.0771484,-0.32714844,-0.11230469,-37.96875,23.53125,-5.28125
462,1727372911259,-1.0029297,-0.30371094,-0.17773438,-49.0,22.25,-9.8125
463,1727372911299,-0.8642578,-0.3466797,-0.32617188,-57.8125,21.5625,-12.75
464,1727372911339,-0.9121094,-0.17773438,-0.17089844,-76.25,26.6875,-17.8125
465,1727372911379,-1.0166016,-0.13574219,-0.119140625,-84.65625,4.71875,-5.125
466,1727372911419,-0.9902344,-0.18457031,-0.19628906,-68.84375,7.28125,13.5
467,1727372911459,-0.88964844,-0.3076172,-0.19238281,-67.6875,8.5625,20.90625
468,1727372911499,-1.0224609,-0.3388672,-0.21679688,-71.40625,5.15625,10.15625
469,1727372911539,-1.1298828,-0.30371094,-0.20898438,-69.71875,-3.8125,8.9375
470,1727372911579,-1.0371094,-0.5097656,-0.13964844,-95.15625,-19.03125,-1.6875
471,1727372911619,-1.1982422,-0.4921875,0.024414062,-73.5,-30.4375,-24.59375
472,1727372911659,-1.2636719,-0.48828125,-0.057617188,-16.96875,-66.8125,-33.90625
473,1727372911699,-1.3183594,-0.2265625,-0.13085938,38.375,-97.5625,-50.8125
474,1727372911739,-1.3339844,0.109375,-0.15136719,-41.625,-167.46875,-73.28125
475,1727372911779,-1.3876953,0.14550781,-0.14453125,-106.375,-185.75,-77.3125
476,1727372911819,-1.0732422,-0.4658203,-0.19921875,28.125,-119.53125,-82.375
477,1727372911859,-1.2705078,-0.9667969,0.13769531,94.46875,-159.40625,-124.6875
478,1727372911899,-1.2421875,-0.1171875,-0.0048828125,269.53125,-141.8125,-96.53125
479,1727372911939,-0.86035156,0.001953125,0.25,115.53125,-152.375,-79.4375
480,1727372911979,-0.7060547,-0.3671875,0.3203125,122.875,-129.75,-61.375
481,1727372912019,-0.5,-0.3701172,0.37890625,133.125,-109.84375,-38.75
482,1727372912059,-0.32617188,-0.18554688,0.3486328,138.90625,-72.0625,-17.5
483,1727372912099,-0.3544922,0.1875,0.49902344,76.09375,-36.03125,-11.03125
484,1727372912139,-0.43164062,-0.08984375,0.57128906,20.3125,-13.40625,-2.25
485,1727372912179,-0.41796875,-0.07324219,0.54296875,-0.0625,24.75,7.09375
486,1727372912219,-0.5205078,-0.0107421875,0.7265625,-48.84375,63.875,24.5625
487,1727372912259,-1.4453125,-0.5078125,1.1025391,-34.6875,3.0625,32.1875
488,1727372912299,-0.43847656,0.15917969,0.7089844,-159.4375,101.53125,51.28125
489,1727372912339,-1.3583984,-0.31835938,0.4189453,-167.125,80.03125,51.15625
490,1727372912379,-1.0947266,-0.26757812,0.21777344,-154.78125,74.84375,80.875
491,1727372912419,-0.93066406,-0.4111328,-0.051757812,-203.625,87.5625,82.0
492,1727372912459,-0.9638672,-0.5078125,-0.12011719,-295.0625,104.59375,63.5
493,1727372912499,-0.9892578,-0.46972656,-0.0859375,-201.59375,101.28125,100.0
494,1727372912539,-0.8173828,-0.48632812,-0.036132812,-176.34375,87.4375,70.5
495,1727372912579,-0.7792969,-0.5126953,-0.0703125,-99.96875,67.21875,75.09375
496,1727372912619,-0.84375,-0.5361328,0.0078125,21.96875,50.3125,56.09375
497,1727372912659,-0.99121094,-0.5517578,-0.024414062,24.84375,49.65625,24.84375
498,1727372912699,-0.92089844,-0.62109375,-0.12792969,-69.65625,27.75,-15.0625
499,1727372912739,-0.93652344,-0.3720703,-0.0048828125,-73.5625,10.21875,-33.125
500,1727372912779,-1.0634766,-0.12207031,0.017578125,-66.46875,9.78125,-29.78125
501,1727372912819,-1.0585938,-0.38671875,0.12988281,-22.15625,-6.0625,4.71875
502,1727372912859,-0.87109375,-0.33398438,-0.15527344,-80.15625,-35.25,1.3125
503,1727372912899,-1.0048828,-0.29785156,-0.25976562,-59.40625,-39.53125,6.96875
504,1727372912939,-0.9628906,-0.38183594,-0.22460938,-45.09375,13.625,23.625
505,1727372912979,-1.3623047,-0.32421875,-0.06933594,-28.09375,8.15625,23.625
506,1727372913019,-1.4941406,-0.6357422,0.015625,-31.25,-13.84375,-6.5
507,1727372913059,-1.3994141,-0.50097656,0.123046875,-8.0625,-26.21875,-12.875
508,1727372913099,-1.4873047,-0.22167969,0.14648438,-11.25,-58.03125,-18.96875
509,1727372913139,-1.3613281,-0.24316406,0.11328125,-39.0,-126.625,-7.3125
510,1727372913179,-1.1972656,-0.30078125,-0.16699219,-25.09375,-129.0625,-14.5
511,1727372913219,-0.79003906,-0.50683594,-0.08300781,-4.34375,-81.46875,-56.375
512,1727372913259,-0.70410156,-0.12597656,-0.12695312,149.65625,-91.96875,-52.09375
513,1727372913299,-0.59765625,-0.072265625,-0.005859375,145.4375,-106.46875,-54.4375
514,1727372913339,-0.8779297,-0.35058594,0.12109375,131.09375,-123.5,-57.0625
515,1727372913379,-0.6044922,-0.27539062,0.22363281,108.34375,-111.0,-66.15625
516,1727372913419,-0.8417969,-0.265625,0.3388672,111.6875,-93.0625,-43.5
517,1727372913459,-0.7314453,-0.16113281,0.45117188,82.625,-82.375,-33.25
518,1727372913499,-0.4736328,-0.20410156,0.5361328,90.15625,-58.5,-23.71875
519,1727372913539,-0.484375,-0.23339844,0.5546875,84.21875,-43.0625,-17.3125
520,1727372913579,-0.51660156,-0.140625,0.5214844,64.5,-31.03125,-14.8125
521,1727372913619,-0.45117188,0.033203125,0.6152344,11.28125,-16.6875,-7.6875
522,1727372913659,-0.4921875,-0.1015625,0.7285156,-22.59375,2.96875,-10.125
523,1727372913699,-0.41015625,-0.22851562,0.6777344,-34.84375,17.71875,-10.46875
524,1727372913739,-0.5136719,-0.5341797,0.96875,-29.0,28.15625,-14.8125
525,1727372913779,-0.8671875,0.02734375,1.1269531,4.28125,43.78125,13.75
526,1727372913819,-0.73828125,-0.29101562,0.32128906,-38.875,98.90625,18.6875
527,1727372913859,-1.2529297,-0.15039062,0.5283203,-127.625,99.9375,23.46875
528,1727372913899,-1.125,-0.453125,0.36035156,-127.9375,98.65625,31.28125
529,1727372913939,-0.9941406,-0.43359375,0.16210938,-109.8125,100.6875,45.84375
530,1727372913979,-0.9941406,-0.18457031,0.14257812,-157.59375,94.75,44.5
531,1727372914019,-0.8984375,-0.18847656,0.025390625,-177.1875,104.59375,68.5
532,1727372914059,-0.82714844,-0.20214844,0.028320312,-169.8125,87.6875,78.03125
533,1727372914099,-0.82128906,-0.3857422,-0.15917969,-179.5,73.8125,82.46875
534,1727372914139,-0.9013672,-0.81152344,-0.001953125,-63.84375,66.1875,42.6875
535,1727372914179,-0.9013672,-0.65234375,0.11621094,7.875,36.03125,10.75
536,1727372914219,-1.0039062,-0.6328125,-0.064453125,-20.21875,7.15625,-14.6875
537,1727372914259,-0.890625,-0.4189453,0.10644531,-107.78125,-8.09375,-63.875
538,1727372914299,-0.97753906,-0.1953125,-0.049804688,-70.0625,-2.90625,-48.375
539,1727372914339,-0.9316406,-0.27929688,-0.099609375,-22.09375,-1.375,-7.0625
540,1727372914379,-0.8779297,-0.41796875,-0.05859375,-28.9375,-0.03125,3.96875
541,1727372914419,-1.0224609,-0.28125,-0.064453125,-36.4375,-0.28125,6.25
542,1727372914459,-0.8642578,-0.4296875,-0.09082031,-70.5,-1.5625,13.625
543,1727372914499,-0.8095703,-0.375,-0.109375,-29.53125,20.84375,20.71875
544,1727372914539,-1.0078125,-0.32226562,-0.07714844,-27.21875,21.4375,28.15625
545,1727372914579,-1.0117188,-0.36816406,-0.05078125,-34.375,6.0625,22.71875
546,1727372914619,-1.0429688,-0.40722656,-0.2890625,-39.1875,-4.3125,25.15625
547,1727372914659,-1.2255859,-0.5136719,-0.2783203,-28.875,10.78125,37.3125
548,1727372914699,-1.1503906,-0.3955078,-0.14746094,10.90625,17.84375,19.65625
549,1727372914739,-1.2568359,-0.5449219,-0.22460938,-33.21875,35.78125,6.65625
550,1727372914779,-1.3076172,-0.42382812,-0.038085938,7.6875,52.8125,32.1875
551,1727372914819,-1.2773438,-0.27539062,-0.25097656,-52.5625,18.03125,15.46875
552,1727372914859,-1.203125,-0.3173828,0.13769531,-4.15625,-34.40625,-17.6875
553,1727372914899,-1.0839844,-0.19433594,0.020507812,-55.4375,-126.5,-53.625
554,1727372914939,-0.9169922,-0.10058594,-0.2841797,-74.15625,-133.40625,-48.8125
555,1727372914979,-1.0869141,-0.14550781,-0.18945312,20.125,-81.28125,-44.71875
556,1727372915019,-1.0068359,-0.053710938,-0.087890625,67.4375,-68.75,-1.75
557,1727372915059,-1.1298828,-0.21289062,-0.20117188,-109.75,-97.3125,-103.0
558,1727372915099,-1.2158203,-0.35351562,0.12207031,95.9375,-145.78125,-114.78125
559,1727372915139,-0.9794922,-0.49023438,0.018554688,118.15625,-149.6875,-135.1875
560,1727372915179,-0.984375,-0.21484375,0.119140625,199.34375,-166.78125,-91.40625
561,1727372915219,-0.8339844,-0.125,0.25878906,134.46875,-150.65625,-60.40625
562,1727372915259,-0.49316406,-0.32226562,0.31835938,129.09375,-118.5,-23.59375
563,1727372915299,-0.42773438,-0.20898438,0.3701172,146.1875,-80.84375,1.3125
564,1727372915339,-0.43554688,-0.24023438,0.5644531,125.78125,-45.125,-2.125
565,1727372915379,-0.3779297,-0.25195312,0.65722656,103.375,-40.9375,-20.125
566,1727372915419,-0.3154297,-0.10546875,0.70996094,79.71875,-8.9375,-23.1875
567,1727372915459,-0.42285156,0.052734375,0.7314453,39.25,4.53125,-27.03125
568,1727372915499,-0.3388672,0.0234375,0.77246094,22.21875,17.96875,-23.375
569,1727372915539,-0.48242188,0.020507812,0.8730469,17.625,37.875,-16.53125
570,1727372915579,-0.84765625,-0.10253906,1.1777344,11.90625,-9.8125,4.53125
571,1727372915619,-0.21582031,-0.0859375,0.69921875,14.09375,38.40625,-6.28125
572,1727372915659,-0.62597656,-0.0126953125,1.1679688,-30.21875,74.90625,-10.46875
573,1727372915699,-1.3642578,0.47265625,0.8330078,-119.5,68.875,25.90625
574,1727372915739,-0.7294922,-0.09277344,0.4248047,-195.75,62.09375,40.65625
575,1727372915779,-0.9746094,-0.7685547,0.2626953,-230.71875,77.65625,38.65625
576,1727372915819,-1.0341797,-0.5048828,0.26464844,-198.5,90.3125,30.90625
577,1727372915859,-0.8798828,-0.16015625,0.15136719,-158.5,92.125,61.65625
578,1727372915899,-0.84375,-0.060546875,0.018554688,-185.375,93.34375,93.09375
579,1727372915939,-0.75878906,-0.12597656,-0.09667969,-215.28125,77.1875,118.1875
580,1727372915979,-1.1064453,-0.3984375,-0.3671875,-263.375,88.09375,123.375
581,1727372916019,-1.1660156,-1.0302734,-0.026367188,-140.875,58.75,29.1875
582,1727372916059,-0.8935547,-0.74316406,0.087890625,-16.65625,13.8125,39.75
583,1727372916099,-1.0195312,-0.46191406,-0.07128906,61.65625,6.9375,20.21875
584,1727372916139,-0.81152344,-0.51171875,0.0546875,-65.4375,-4.0,-37.21875
585,1727372916179,-0.95996094,-0.3828125,0.15625,-114.09375,-9.625,-39.84375
586,1727372916219,-0.95410156,-0.080078125,-0.021484375,-61.65625,13.625,-6.75
587,1727372916259,-0.9902344,-0.15527344,0.016601562,-31.0625,0.40625,26.75
588,1727372916299,-0.9111328,-0.44335938,-0.048828125,-66.53125,-12.125,19.96875
589,1727372916339,-1.1289062,-0.22949219,-0.15039062,-40.03125,-0.59375,26.3125
590,1727372916379,-1.0742188,-0.4326172,-0.23730469,-64.34375,0.8125,30.0
591,1727372916419,-1.2412109,-0.3857422,-0.0087890625,-15.25,24.25,18.625
592,1727372916459,-1.2988281,-0.6503906,0.016601562,-36.8125,17.1875,7.9375
593,1727372916499,-1.4189453,-0.4111328,0.05078125,-21.90625,16.9375,1.53125
594,1727372916539,-1.4296875,-0.29589844,0.08496094,-25.28125,-32.375,-21.65625
595,1727372916579,-1.2958984,-0.2783203,0.123046875,-26.8125,-109.03125,-33.1875
596,1727372916619,-1.1503906,-0.040039062,-0.39160156,-80.6875,-126.1875,-23.25
597,1727372916659,-0.75097656,-0.49609375,-0.03125,-20.21875,-55.625,-56.8125
598,1727372916699,-0.8017578,-0.47070312,0.15332031,68.0,-89.21875,-98.25
599,1727372916739,-0.7998047,-0.16015625,-0.029296875,195.125,-126.0625,-75.84375
600,1727372916779,-0.89160156,0.034179688,0.051757812,135.5625,-121.5,-65.34375
601,1727372916819,-0.83496094,-0.42773438,0.107421875,132.0,-131.375,-73.84375
602,1727372916859,-0.8828125,-0.48242188,0.24511719,125.3125,-109.71875,-50.53125
603,1727372916899,-0.66015625,-0.22460938,0.21875,111.75,-79.6875,-38.0
604,1727372916939,-0.49902344,-0.12402344,0.36914062,83.625,-52.65625,-28.59375
605,1727372916979,-0.48632812,-0.19140625,0.45410156,62.0625,-23.59375,-18.34375
606,1727372917019,-0.40722656,-0.24609375,0.53027344,51.5625,-13.21875,-12.25
607,1727372917059,-0.42871094,-0.12988281,0.41503906,1.28125,2.96875,-9.875
608,1727372917099,-0.42773438,-0.32226562,0.45507812,-22.65625,40.96875,-7.0625
609,1727372917139,-1.0410156,-0.64746094,1.7285156,-111.21875,46.65625,-15.78125
610,1727372917179,-1.1435547,-0.038085938,1.0361328,-29.46875,62.21875,20.71875
611,1727372917219,-0.75097656,-0.11621094,0.50683594,-70.75,80.65625,41.03125
612,1727372917259,-1.2939453,-0.41308594,0.32421875,-82.15625,100.625,52.625
613,1727372917299,-0.796875,-0.4501953,0.15429688,-99.25,97.625,42.0
614,1727372917339,-0.93847656,-0.3203125,0.12695312,-168.65625,112.15625,59.78125
615,1727372917379,-0.84375,-0.21484375,0.080078125,-137.09375,101.21875,95.53125
616,1727372917419,-0.82714844,-0.13574219,-0.0625,-173.65625,85.65625,81.375
617,1727372917459,-0.9355469,-0.35742188,-0.09863281,-129.71875,72.65625,61.40625
618,1727372917499,-0.8623047,-0.5644531,0.04296875,-9.15625,55.1875,51.65625
619,1727372917539,-0.9140625,-0.515625,0.15722656,101.0625,20.84375,34.625
620,1727372917579,-0.9892578,-0.4970703,-0.09375,40.34375,33.78125,-6.9375
621,1727372917619,-0.88671875,-0.38476562,-0.078125,-41.875,10.65625,-34.28125
622,1727372917659,-0.984375,-0.09472656,-0.13867188,-77.40625,42.9375,-26.46875
623,1727372917699,-0.9550781,-0.21386719,-0.016601562,17.28125,41.78125,19.1875
624,1727372917739,-1.0136719,-0.34960938,0.03125,-38.875,1.1875,13.375
625,1727372917779,-1.0878906,-0.27734375,-0.19140625,-42.53125,-17.75,13.5
626,1727372917819,-0.9892578,-0.3828125,-0.3388672,-54.8125,-0.53125,21.0
627,1727372917859,-1.5078125,-0.4609375,-0.19824219,-17.46875,24.125,16.9375
628,1727372917899,-1.5527344,-0.4375,0.07421875,25.6875,30.71875,9.96875
629,1727372917939,-1.4023438,-0.48632812,0.14648438,0.25,-27.875,-6.40625
630,1727372917979,-1.3007812,-0.5029297,0.2421875,-4.8125,-90.25,-25.5625
631,1727372918019,-1.2568359,-0.296875,-0.0009765625,-31.3125,-130.96875,-43.25
632,1727372918059,-1.1855469,-0.21972656,-0.33398438,-17.875,-132.71875,-46.375
633,1727372918099,-0.6308594,-0.6015625,-0.12988281,43.5625,-61.9375,-78.53125
634,1727372918139,-0.7910156,-0.09863281,-0.024414062,157.03125,-75.53125,-90.75
635,1727372918179,-0.8769531,-0.08984375,0.06640625,165.53125,-114.28125,-65.78125
636,1727372918219,-0.74316406,-0.2421875,0.11328125,155.6875,-109.21875,-57.1875
637,1727372918259,-0.75390625,-0.25585938,0.20800781,134.8125,-100.25,-41.1875
638,1727372918299,-0.78125,-0.23828125,0.2783203,116.03125,-81.6875,-25.125
639,1727372918339,-0.6269531,-0.018554688,0.26464844,121.28125,-59.46875,-16.59375
640,1727372918379,-0.5595703,-0.11621094,0.45117188,39.25,-32.03125,-14.875
641,1727372918419,-0.54003906,-0.24511719,0.5,16.0,-23.03125,-14.15625
642,1727372918459,-0.52246094,-0.23730469,0.5449219,24.09375,-15.28125,-6.875
643,1727372918499,-0.5488281,-0.21386719,0.51660156,42.96875,-10.09375,-10.78125
644,1727372918539,-0.7480469,0.13769531,0.8642578,-39.5,37.25,11.96875
645,1727372918579,-1.5136719,-0.66015625,0.3466797,-87.90625,59.53125,11.4375
646,1727372918619,-0.7548828,-0.23730469,0.3779297,-93.375,87.71875,42.125
647,1727372918659,-1.0458984,-0.41210938,0.27539062,-96.6875,87.84375,40.59375
648,1727372918699,-1.2128906,-0.4091797,0.16503906,-99.6875,94.5625,38.28125
649,1727372918739,-0.88183594,-0.32226562,0.12695312,-176.46875,94.625,48.59375
650,1727372918779,-0.8574219,-0.33007812,0.032226562,-145.8125,91.59375,74.0625
651,1727372918819,-0.8251953,-0.36914062,0.030273438,-86.375,83.65625,64.15625
652,1727372918859,-0.76464844,-0.39160156,0.036132812,-96.4375,78.46875,45.375
653,1727372918899,-0.8515625,-0.40722656,0.06738281,5.96875,61.5625,29.625
654,1727372918939,-0.86035156,-0.34960938,0.048828125,73.40625,42.09375,22.125
655,1727372918979,-0.96972656,-0.61621094,-0.07421875,18.0625,31.8125,-7.125
656,1727372919019,-0.96777344,-0.43652344,0.0703125,-41.375,22.96875,-30.1875
657,1727372919059,-0.94433594,-0.3076172,-0.076171875,-60.5625,1.78125,-32.5625
658,1727372919099,-1.0332031,-0.08300781,0.040039062,-19.59375,27.375,-8.53125
659,1727372919139,-0.91308594,-0.4111328,-0.083984375,-48.84375,12.59375,-0.46875
660,1727372919179,-0.93066406,-0.17773438,-0.030273438,-23.8125,30.90625,9.84375
661,1727372919219,-0.96484375,-0.42089844,-0.045898438,-35.78125,12.84375,21.25
662,1727372919259,-0.9941406,-0.44726562,-0.07324219,-32.0,-3.28125,16.4375
663,1727372919299,-0.9970703,-0.46679688,-0.119140625,-21.3125,-4.4375,8.375
664,1727372919339,-1.1162109,-0.32714844,-0.32128906,-30.40625,9.25,8.125
665,1727372919379,-1.4091797,-0.38867188,-0.38964844,-16.78125,52.21875,14.96875
666,1727372919419,-1.515625,-0.38671875,0.16308594,70.625,49.28125,35.59375
667,1727372919459,-1.4257812,-0.5078125,0.28320312,9.8125,-43.6875,7.09375
668,1727372919499,-1.3457031,-0.47753906,0.2734375,-6.65625,-133.28125,-12.125
669,1727372919539,-1.2880859,-0.2734375,-0.11621094,-93.21875,-169.59375,-34.21875
670,1727372919579,-1.0966797,-0.5419922,-0.40722656,14.46875,-93.59375,-72.5
671,1727372919619,-0.7265625,-0.71777344,0.013671875,105.21875,-76.375,-92.5
672,1727372919659,-0.84375,-0.013671875,0.0009765625,200.75,-83.21875,-84.03125
673,1727372919699,-0.72558594,-0.12597656,-0.016601562,119.4375,-92.9375,-80.1875
674,1727372919739,-0.6875,-0.24609375,0.07421875,142.21875,-103.96875,-74.75
675,1727372919779,-0.8408203,-0.37695312,0.19433594,134.40625,-98.78125,-77.6875
676,1727372919819,-0.7060547,-0.18359375,0.2607422,113.8125,-84.5625,-57.28125
677,1727372919859,-0.6044922,-0.16699219,0.38183594,70.5625,-60.59375,-52.59375
678,1727372919899,-0.4033203,-0.20800781,0.5234375,63.65625,-42.46875,-35.5
679,1727372919939,-0.49316406,-0.2939453,0.5058594,52.1875,-24.21875,-26.34375
680,1727372919979,-0.38183594,-0.16699219,0.48242188,35.15625,-2.125,-19.9375
681,1727372920019,-0.5,-0.16113281,0.55859375,3.0,29.5,-8.15625
682,1727372920059,-0.7451172,-0.58984375,0.8300781,-20.8125,41.28125,-3.59375
683,1727372920099,-0.8857422,-0.0126953125,0.7519531,-60.0,89.5625,20.09375
684,1727372920139,-1.2539062,-0.13671875,0.5048828,-71.53125,87.625,68.9375
685,1727372920179,-0.9453125,-0.32421875,0.27539062,-117.125,72.96875,66.25
686,1727372920219,-1.0791016,-0.6435547,0.14550781,-130.5625,88.09375,62.75
687,1727372920259,-1.0214844,-0.6376953,0.103515625,-137.53125,108.65625,46.09375
688,1727372920299,-0.8691406,-0.34277344,0.16601562,-170.09375,124.28125,76.6875
689,1727372920339,-0.7294922,-0.11035156,0.09863281,-66.71875,94.21875,78.1875
690,1727372920379,-0.81933594,-0.2919922,-0.076171875,-91.875,82.53125,66.71875
691,1727372920419,-0.6796875,-0.51171875,-0.021484375,-40.09375,73.03125,38.15625
692,1727372920459,-0.9316406,-0.39941406,0.09277344,-15.9375,66.3125,16.25
693,1727372920499,-1.0859375,-0.5234375,0.10058594,48.9375,29.03125,12.53125
694,1727372920539,-0.93652344,-0.5732422,-0.08300781,-1.15625,14.0625,-20.90625
695,1727372920579,-0.9423828,-0.31933594,-0.125,-32.96875,10.03125,-34.84375
696,1727372920619,-0.9863281,-0.15625,-0.10644531,-74.09375,8.375,-36.78125
697,1727372920659,-0.9316406,-0.15820312,-0.061523438,3.84375,24.3125,5.09375
698,1727372920699,-0.9238281,-0.42871094,-0.06542969,-17.28125,16.875,12.96875
699,1727372920739,-0.9980469,-0.29003906,-0.0048828125,-33.875,13.40625,11.625
700,1727372920779,-0.98535156,-0.40234375,-0.12695312,-38.9375,-5.84375,13.6875
701,1727372920819,-1.1005859,-0.32226562,-0.12597656,-25.5625,-13.03125,13.75
702,1727372920859,-1.1376953,-0.4482422,-0.25097656,-49.6875,-8.9375,10.6875
703,1727372920899,-1.4765625,-0.57714844,-0.2734375,-7.4375,19.125,8.625
704,1727372920939,-1.5927734,-0.4326172,0.16992188,50.28125,22.71875,10.28125
705,1727372920979,-1.3623047,-0.38964844,0.29492188,1.71875,-52.34375,-3.40625
706,1727372921019,-1.2705078,-0.43359375,0.203125,-24.0,-131.9375,-18.21875
707,1727372921059,-1.1630859,-0.17675781,-0.27929688,-74.65625,-149.875,-34.21875
708,1727372921099,-0.8076172,-0.6767578,-0.25195312,6.15625,-66.875,-75.65625
709,1727372921139,-0.8964844,-0.31445312,0.040039062,121.09375,-86.09375,-92.625
710,1727372921179,-0.78027344,-0.1015625,-0.09277344,204.46875,-110.25,-84.9375
711,1727372921219,-0.8808594,-0.19335938,0.09863281,146.0625,-130.84375,-86.53125
712,1727372921259,-0.8095703,-0.33496094,0.125,161.96875,-138.09375,-94.09375
713,1727372921299,-0.8125,-0.28710938,0.30371094,140.4375,-126.875,-65.65625
714,1727372921339,-0.6376953,-0.119140625,0.28710938,130.4375,-106.125,-35.4375
715,1727372921379,-0.47753906,-0.14746094,0.3779297,126.59375,-75.40625,-30.0625
716,1727372921419,-0.23730469,-0.029296875,0.49902344,105.65625,-38.25,5.21875
717,1727372921459,-0.4482422,-0.00390625,0.5361328,51.03125,-8.40625,7.78125
718,1727372921499,-0.3154297,-0.103515625,0.57421875,1.34375,-3.625,-6.5
719,1727372921539,-0.20410156,-0.13574219,0.58496094,-47.0625,54.65625,1.0
720,1727372921579,-0.91503906,-0.10644531,2.0,-119.4375,50.375,6.5625
721,1727372921619,-0.8720703,-0.26171875,-0.2578125,51.75,80.96875,49.625
722,1727372921659,-0.40820312,0.03125,0.06640625,-64.875,98.0,47.875
723,1727372921699,-1.3037109,-0.2763672,0.6201172,-139.21875,108.4375,40.3125
724,1727372921739,-0.58203125,-0.4873047,0.33984375,-155.28125,104.46875,44.03125
725,1727372921779,-0.7626953,-0.3466797,0.3095703,-184.8125,103.59375,28.46875
726,1727372921819,-0.7470703,-0.31054688,0.16796875,-165.28125,115.4375,46.65625
727,1727372921859,-0.73339844,-0.19433594,0.091796875,-146.375,93.90625,87.46875
728,1727372921899,-0.9560547,-0.27734375,-0.060546875,-204.34375,90.40625,94.0
729,1727372921939,-1.0820312,-0.4580078,-0.08691406,-136.59375,65.21875,49.09375
730,1727372921979,-0.96484375,-0.5732422,0.08203125,-66.53125,34.8125,37.375
731,1727372922019,-0.9580078,-0.41308594,-0.1640625,11.90625,36.65625,20.28125
732,1727372922059,-0.9345703,-0.39257812,-0.15136719,-1.46875,40.0,14.53125
733,1727372922099,-0.99902344,-0.33691406,-0.10253906,-3.65625,37.8125,12.78125
734,1727372922139,-0.9091797,-0.2548828,-0.23925781,-23.1875,38.71875,2.875
735,1727372922179,-0.89453125,-0.22851562,-0.296875,-58.59375,39.40625,-4.1875
736,1727372922219,-0.96777344,-0.064453125,-0.05078125,-63.90625,41.78125,4.15625
737,1727372922259,-1.0517578,-0.27246094,-0.08984375,-18.75,42.4375,29.125
738,1727372922299,-0.97265625,-0.4140625,-0.08105469,-52.3125,14.75,19.125
739,1727372922339,-0.9765625,-0.4892578,-0.22363281,-63.84375,-10.40625,6.78125
740,1727372922379,-1.0058594,-0.4111328,-0.2705078,-28.5625,8.3125,-1.75
741,1727372922419,-1.1816406,-0.005859375,0.14648438,-49.5,-12.375,1.25
742,1727372922459,-1.0478516,-0.5439453,-0.17871094,-81.59375,-38.3125,-0.40625
743,1727372922499,-1.2949219,-0.5839844,-0.06738281,-31.875,-55.6875,-35.25
744,1727372922539,-1.4472656,-0.06640625,-0.0068359375,63.34375,-100.125,-46.1875
745,1727372922579,-1.2988281,0.17578125,-0.20800781,-52.1875,-182.65625,-58.46875
746,1727372922619,-1.1035156,-0.03515625,-0.28222656,-182.0,-169.15625,-83.0
747,1727372922659,-1.2617188,-0.44628906,0.11035156,89.59375,-132.59375,-78.53125
748,1727372922699,-1.2666016,-0.6455078,0.036132812,84.28125,-162.03125,-102.71875
749,1727372922739,-1.0976562,-0.21191406,0.20996094,179.9375,-152.5625,-84.8125
