,Unnamed: 0,timestamp,accel_x,accel_y,accel_z,gyro_x,gyro_y,gyro_z
0,0,1727820282764,-0.76464844,-0.22753906,0.49804688,38.53125,-35.5,-14.90625
1,1,1727820282804,-0.7441406,-0.125,0.5292969,44.625,-25.65625,-7.71875
2,2,1727820282844,-0.73046875,-0.0703125,0.5410156,45.59375,-23.59375,-1.125
3,3,1727820282884,-0.66015625,-0.09375,0.52734375,42.96875,-21.34375,-1.0
4,4,1727820282924,-0.6748047,-0.0078125,0.54785156,17.28125,-14.0625,-5.09375
5,5,1727820282964,-0.64941406,-0.08691406,0.58496094,12.46875,-12.53125,-5.59375
6,6,1727820283004,-0.65625,-0.06933594,0.5683594,5.375,-5.53125,-0.9375
7,7,1727820283044,-0.6064453,-0.047851562,0.59765625,-2.75,-5.28125,0.53125
8,8,1727820283084,-0.58203125,-0.10644531,0.63378906,-6.21875,-1.1875,0.28125
9,9,1727820283124,-0.57421875,-0.15429688,0.6435547,-5.96875,8.875,-2.15625
10,10,1727820283164,-0.5097656,-0.16210938,0.6044922,-8.0,29.09375,-2.46875
11,11,1727820283204,-0.53222656,-0.22070312,0.8310547,-16.34375,48.4375,1.4375
12,12,1727820283244,-1.4619141,-0.5517578,1.265625,-21.46875,22.0,5.21875
13,13,1727820283284,-0.6044922,-0.044921875,0.42578125,10.75,43.71875,33.34375
14,14,1727820283324,-0.63183594,-0.03515625,0.24121094,0.3125,106.1875,27.3125
15,15,1727820283364,-1.4521484,0.06640625,0.09667969,-234.3125,124.46875,28.96875
16,16,1727820283404,-1.3339844,-0.5371094,0.0,-197.8125,140.96875,29.5625
17,17,1727820283444,-1.0634766,-0.2685547,-0.044921875,-134.625,105.0625,43.0
18,18,1727820283484,-0.95996094,-0.20996094,-0.0009765625,-89.78125,82.1875,50.3125
19,19,1727820283524,-1.0634766,-0.33496094,-0.099609375,-17.09375,67.40625,62.71875
20,20,1727820283564,-1.1513672,-0.48339844,-0.040039062,74.84375,57.78125,62.40625
21,21,1727820283604,-0.91796875,-0.3095703,-0.125,76.46875,34.40625,26.40625
22,22,1727820283644,-0.7832031,-0.060546875,0.09472656,-12.0625,66.875,-0.21875
23,23,1727820283684,-0.9580078,-0.28808594,0.1015625,-13.90625,82.125,-6.625
24,24,1727820283724,-0.8769531,-0.14355469,0.01171875,-22.34375,64.90625,-3.1875
25,25,1727820283764,-0.8876953,-0.043945312,0.0126953125,-31.5625,43.125,13.8125
26,26,1727820283804,-1.0625,-0.36914062,-0.125,-17.21875,42.5625,18.21875
27,27,1727820283844,-1.0244141,-0.19238281,-0.15136719,-4.3125,22.1875,18.9375
28,28,1727820283884,-1.0751953,0.06347656,-0.27539062,-15.0625,25.375,29.09375
29,29,1727820283924,-1.2177734,0.0,-0.38183594,-34.90625,43.5,31.65625
30,30,1727820283964,-1.4472656,-0.20800781,-0.4609375,-46.0625,27.375,24.9375
31,31,1727820284004,-1.6269531,-0.12402344,-0.2626953,-24.40625,15.03125,25.71875
32,32,1727820284044,-1.4609375,-0.01953125,0.0234375,1.53125,-21.625,13.03125
33,33,1727820284084,-1.2373047,-0.17578125,0.24316406,46.9375,-103.375,-19.875
34,34,1727820284124,-1.5908203,0.13769531,-0.0107421875,21.5,-122.21875,-47.40625
35,35,1727820284164,-1.2226562,0.26660156,-0.21484375,-127.25,-105.4375,-58.75
36,36,1727820284204,-0.9511719,0.14160156,-0.27148438,-159.90625,-129.375,-70.46875
37,37,1727820284244,-1.1220703,-0.29785156,0.0390625,27.09375,-123.75,-61.1875
38,38,1727820284284,-1.0654297,-0.11328125,-0.018554688,25.40625,-158.40625,-78.53125
39,39,1727820284324,-0.77441406,0.01953125,0.021484375,81.4375,-157.6875,-44.71875
40,40,1727820284364,-0.6621094,0.0859375,0.055664062,16.65625,-139.125,-35.25
41,41,1727820284404,-0.515625,-0.020507812,0.14257812,8.125,-112.09375,-33.90625
42,42,1727820284444,-0.4326172,-0.22363281,0.13085938,38.53125,-89.875,-11.75
43,43,1727820284484,-0.2763672,-0.12109375,0.24902344,68.65625,-44.84375,15.28125
44,44,1727820284524,-0.40820312,-0.27441406,0.46191406,11.0,-10.21875,5.71875
45,45,1727820284564,-0.58984375,-0.30664062,0.4970703,-11.84375,11.6875,-12.25
46,46,1727820284604,-0.5673828,-0.095703125,0.68652344,-18.0625,31.15625,7.0625
47,47,1727820284644,-0.74902344,-0.028320312,0.70410156,-31.4375,83.21875,22.5
48,48,1727820284684,-1.0166016,-0.016601562,0.39648438,-61.5625,108.96875,41.65625
49,49,1727820284724,-0.93359375,-0.19433594,0.19824219,-120.65625,150.0625,43.4375
50,50,1727820284764,-1.1923828,-0.24414062,0.10546875,-138.59375,152.5,4.78125
51,51,1727820284804,-1.2412109,-0.46484375,-0.01953125,-103.3125,125.46875,9.0625
52,52,1727820284844,-1.0585938,-0.18847656,0.0126953125,-46.5625,71.0625,24.8125
53,53,1727820284884,-1.0380859,-0.024414062,-0.1484375,-32.15625,61.1875,30.3125
54,54,1727820284924,-1.2402344,-0.26660156,-0.17773438,-38.125,69.90625,35.875
55,55,1727820284964,-1.1601562,-0.3154297,-0.1875,-16.65625,53.125,39.78125
56,56,1727820285004,-1.0917969,-0.23046875,-0.0703125,16.5625,23.40625,43.25
57,57,1727820285044,-1.0986328,-0.31054688,-0.024414062,-46.8125,15.90625,23.96875
58,58,1727820285084,-0.93359375,-0.18066406,-0.08105469,-66.09375,32.9375,0.15625
59,59,1727820285124,-0.8720703,-0.31835938,-0.12890625,-43.875,28.53125,-4.25
60,60,1727820285164,-0.7607422,-0.15429688,-0.19433594,-24.90625,19.9375,15.65625
61,61,1727820285204,-0.79296875,-0.15234375,-0.19042969,-14.15625,32.3125,30.1875
62,62,1727820285244,-0.96191406,-0.20019531,-0.07910156,-13.96875,21.6875,38.1875
63,63,1727820285284,-0.9921875,-0.14257812,-0.10546875,-28.875,12.0,24.9375
64,64,1727820285324,-1.0722656,-0.087890625,-0.37597656,-50.96875,31.96875,25.375
65,65,1727820285364,-1.3330078,-0.048828125,-0.41210938,-45.65625,34.46875,22.5625
66,66,1727820285404,-1.2558594,-0.10449219,-0.19921875,-41.3125,18.15625,21.15625
67,67,1727820285444,-1.3476562,-0.06933594,-0.12011719,-34.28125,-13.34375,28.0
68,68,1727820285484,-1.4726562,-0.06640625,0.30566406,-28.3125,-72.34375,15.40625
69,69,1727820285524,-1.5996094,-0.24414062,0.47460938,-21.90625,-135.03125,-68.5625
70,70,1727820285564,-1.2744141,0.5214844,-0.640625,-287.96875,-170.9375,-160.75
71,71,1727820285604,-1.0830078,0.515625,0.2578125,38.21875,-198.6875,-92.125
72,72,1727820285644,-1.1787109,0.125,0.19238281,55.4375,-109.90625,-41.28125
73,73,1727820285684,-1.1142578,-0.3515625,-0.12988281,-46.1875,-139.4375,-74.625
74,74,1727820285724,-0.9628906,-0.40820312,0.10546875,12.59375,-159.5,-38.84375
75,75,1727820285764,-0.6796875,-0.0390625,0.115234375,45.90625,-138.15625,-38.96875
76,76,1727820285804,-0.46679688,-0.17480469,0.0859375,83.75,-139.90625,-22.375
77,77,1727820285844,-0.28710938,0.16015625,0.08105469,62.625,-100.5625,-3.8125
78,78,1727820285884,-0.125,0.19726562,0.21289062,71.71875,-66.5625,25.96875
79,79,1727820285924,-0.234375,0.14160156,0.4638672,2.625,-35.96875,25.3125
80,80,1727820285964,-0.5644531,-0.2919922,0.65234375,-47.0,-19.3125,7.21875
81,81,1727820286004,-0.63183594,-0.47558594,0.70703125,-5.84375,-10.78125,-1.375
82,82,1727820286044,-0.46484375,-0.44140625,0.7871094,35.28125,5.71875,5.03125
83,83,1727820286084,-0.29003906,0.03125,0.7050781,-20.25,61.5625,23.09375
84,84,1727820286124,-1.6181641,-0.11816406,1.1230469,-60.84375,44.34375,28.96875
85,85,1727820286164,-0.6699219,0.14648438,0.41015625,-29.71875,61.1875,40.4375
86,86,1727820286204,-0.52734375,0.21679688,-0.01171875,-99.0,124.25,39.34375
87,87,1727820286244,-1.3847656,-0.017578125,-0.15527344,-228.625,169.53125,31.34375
88,88,1727820286284,-1.5683594,-0.6220703,0.03515625,-198.46875,166.59375,16.625
89,89,1727820286324,-1.0771484,-0.265625,-0.10449219,-114.96875,95.0625,39.53125
90,90,1727820286364,-0.9658203,-0.22070312,-0.16210938,-66.8125,81.34375,48.96875
91,91,1727820286404,-1.1230469,-0.33398438,-0.15234375,-39.96875,77.59375,51.53125
92,92,1727820286444,-1.0966797,-0.45898438,-0.14941406,1.78125,64.1875,48.875
93,93,1727820286484,-0.9814453,-0.3203125,-0.07128906,84.53125,36.15625,40.3125
94,94,1727820286524,-0.9013672,-0.028320312,-0.111328125,4.21875,35.25,3.9375
95,95,1727820286564,-0.8330078,-0.14746094,0.03515625,-30.6875,58.125,3.5
96,96,1727820286604,-0.88378906,-0.07128906,0.0146484375,-93.0625,66.3125,-15.21875
97,97,1727820286644,-0.89746094,-0.109375,-0.07128906,-41.8125,37.1875,19.375
98,98,1727820286684,-1.0722656,-0.3232422,-0.10449219,-31.96875,29.8125,20.34375
99,99,1727820286724,-1.0341797,-0.22753906,-0.23730469,-26.46875,24.8125,30.78125
100,100,1727820286764,-1.2294922,0.025390625,-0.35839844,-48.875,17.1875,37.4375
101,101,1727820286804,-1.3496094,-0.064453125,-0.29785156,-51.3125,20.25,24.6875
102,102,1727820286844,-1.6386719,-0.31445312,-0.29492188,-49.96875,0.28125,17.65625
103,103,1727820286884,-1.4794922,-0.095703125,-0.1015625,-10.5625,-22.6875,9.75
104,104,1727820286924,-1.3916016,-0.13671875,0.40429688,31.0625,-67.59375,-14.6875
105,105,1727820286964,-1.5185547,-0.19921875,0.41992188,98.9375,-137.65625,-59.0
106,106,1727820287004,-1.1552734,0.34375,-0.74609375,-221.0625,-198.28125,-89.8125
107,107,1727820287044,-1.0263672,0.123046875,0.17480469,-77.625,-62.84375,-67.46875
108,108,1727820287084,-1.3232422,-0.3203125,-0.053710938,20.5625,-108.65625,-80.96875
109,109,1727820287124,-0.921875,-0.12890625,-0.009765625,48.09375,-159.6875,-70.03125
110,110,1727820287164,-0.8808594,-0.20898438,-0.043945312,48.59375,-130.875,-65.875
111,111,1727820287204,-0.61816406,-0.11035156,0.07421875,83.9375,-146.75,-53.6875
112,112,1727820287244,-0.40722656,0.01171875,0.076171875,85.9375,-121.0625,-44.59375
113,113,1727820287284,-0.30566406,0.064453125,0.14648438,76.65625,-82.375,-23.78125
114,114,1727820287324,-0.34179688,0.0029296875,0.25195312,56.78125,-50.03125,-8.21875
115,115,1727820287364,-0.4189453,-0.20019531,0.5292969,-6.65625,-17.0625,-14.875
116,116,1727820287404,-0.61035156,-0.3564453,0.5576172,6.21875,9.5625,-13.75
117,117,1727820287444,-0.4248047,-0.115234375,0.6152344,-6.15625,52.65625,9.5625
118,118,1727820287484,-0.5253906,0.16308594,0.6933594,-60.34375,120.40625,64.96875
119,119,1727820287524,-1.8242188,-0.5126953,0.4736328,-87.6875,123.1875,76.375
120,120,1727820287564,-1.0136719,-0.30566406,0.14160156,-119.25,140.65625,48.75
121,121,1727820287604,-0.9394531,0.0087890625,0.017578125,-102.78125,116.375,28.21875
122,122,1727820287644,-1.046875,-0.35546875,-0.16894531,-102.40625,148.15625,40.75
123,123,1727820287684,-1.1708984,-0.39746094,-0.10058594,-68.96875,112.15625,41.15625
124,124,1727820287724,-1.1865234,-0.29101562,-0.0625,-12.4375,93.65625,39.53125
125,125,1727820287764,-1.0820312,-0.016601562,-0.056640625,42.71875,56.125,47.59375
126,126,1727820287804,-1.0097656,-0.12695312,0.0029296875,71.84375,28.0,61.90625
127,127,1727820287844,-0.9394531,-0.2861328,-0.2626953,75.3125,16.09375,53.25
128,128,1727820287884,-0.84472656,-0.21289062,-0.024414062,-25.9375,56.78125,-1.5
129,129,1727820287924,-0.8857422,-0.18261719,-0.0390625,-4.5625,44.40625,-3.3125
130,130,1727820287964,-0.8535156,0.018554688,-0.034179688,-18.25,57.09375,-7.84375
131,131,1727820288004,-0.9501953,-0.021484375,-0.083984375,-30.5625,41.59375,13.75
132,132,1727820288044,-1.109375,-0.3076172,-0.13183594,-14.53125,32.0625,22.96875
133,133,1727820288084,-1.0644531,-0.11621094,-0.21777344,-7.6875,24.875,26.875
134,134,1727820288124,-1.1708984,-0.06933594,-0.33203125,-18.5625,29.09375,41.0625
135,135,1727820288164,-1.2841797,-0.087890625,-0.3671875,-41.625,21.15625,32.5625
136,136,1727820288204,-1.4482422,-0.26953125,-0.3408203,-32.9375,2.03125,24.4375
137,137,1727820288244,-1.4814453,-0.047851562,-0.21679688,14.84375,-20.28125,21.40625
138,138,1727820288284,-1.3828125,0.01953125,0.23242188,39.6875,-53.125,2.59375
139,139,1727820288324,-1.4882812,-0.4609375,0.7373047,105.96875,-96.84375,-23.28125
140,140,1727820288364,-1.4472656,-0.059570312,-0.21972656,-69.15625,-170.8125,-91.53125
141,141,1727820288404,-0.7607422,0.49902344,-0.9716797,-147.5,-175.9375,-118.75
142,142,1727820288444,-1.03125,0.15820312,0.2861328,-0.96875,-107.34375,-68.875
143,143,1727820288484,-1.3173828,-0.4326172,0.07714844,62.375,-114.15625,-98.1875
144,144,1727820288524,-0.8535156,-0.048828125,0.005859375,38.40625,-127.21875,-88.09375
145,145,1727820288564,-0.7949219,-0.12207031,-0.0107421875,66.90625,-136.3125,-66.625
146,146,1727820288604,-0.69921875,-0.15429688,0.08105469,79.96875,-128.6875,-63.625
147,147,1727820288644,-0.45996094,0.016601562,0.11425781,88.5,-104.75,-51.0
148,148,1727820288684,-0.34472656,0.016601562,0.23632812,79.71875,-71.25,-27.9375
149,149,1727820288724,-0.40039062,-0.20019531,0.31054688,47.375,-36.28125,-14.75
150,150,1727820288764,-0.45507812,-0.32226562,0.48046875,9.78125,-6.0,-25.0625
151,151,1727820288804,-0.40625,-0.37695312,0.61035156,10.0625,19.5,-26.46875
152,152,1727820288844,-0.37109375,-0.32128906,0.71484375,-13.25,79.375,3.8125
153,153,1727820288884,-1.3007812,-0.01953125,0.81933594,-41.625,70.21875,54.15625
154,154,1727820288924,-0.8652344,0.10644531,0.6513672,-19.46875,64.84375,54.65625
155,155,1727820288964,-0.7128906,0.00390625,-0.049804688,-91.65625,133.34375,59.46875
156,156,1727820289004,-1.4658203,-0.34765625,0.0859375,-175.46875,145.1875,31.59375
157,157,1727820289044,-1.2265625,-0.6201172,0.111328125,-139.03125,144.25,19.875
158,158,1727820289084,-0.8564453,-0.20605469,-0.0390625,-31.65625,81.75,50.5625
159,159,1727820289124,-0.9501953,-0.12011719,-0.080078125,-13.90625,90.65625,53.4375
160,160,1727820289164,-1.1503906,-0.08886719,-0.12207031,14.09375,74.8125,50.15625
161,161,1727820289204,-1.1181641,-0.30664062,-0.13378906,50.4375,44.40625,54.84375
162,162,1727820289244,-0.92089844,-0.19824219,-0.22363281,83.125,34.875,44.40625
163,163,1727820289284,-0.9248047,-0.0625,-0.13964844,6.90625,56.3125,21.53125
164,164,1727820289324,-0.89453125,-0.26757812,-0.049804688,-4.9375,46.125,27.125
165,165,1727820289364,-0.94433594,-0.17871094,0.013671875,-11.40625,49.78125,3.6875
166,166,1727820289404,-0.84765625,-0.08886719,-0.0234375,-7.375,39.40625,12.84375
167,167,1727820289444,-0.92578125,-0.21484375,-0.07421875,-21.21875,40.3125,16.375
168,168,1727820289484,-1.0087891,-0.11621094,-0.10058594,0.4375,23.96875,27.625
169,169,1727820289524,-1.0097656,-0.08105469,-0.24804688,-2.4375,32.0,32.5625
170,170,1727820289564,-1.0859375,-0.032226562,-0.32714844,-32.90625,50.75,41.0625
171,171,1727820289604,-1.2832031,-0.07128906,-0.4189453,-35.09375,36.09375,37.4375
172,172,1727820289644,-1.4589844,-0.2548828,-0.42285156,-34.84375,25.90625,33.96875
173,173,1727820289684,-1.4003906,-0.076171875,-0.24414062,2.4375,-16.75,23.78125
174,174,1727820289724,-1.4267578,0.08300781,0.10449219,35.09375,-58.875,-2.34375
175,175,1727820289764,-1.5048828,-0.3203125,0.6503906,83.625,-89.625,-15.15625
176,176,1727820289804,-1.5117188,-0.34375,-0.032226562,-11.46875,-139.3125,-75.78125
177,177,1727820289844,-1.1386719,0.19628906,-0.82421875,-140.5,-181.0,-145.90625
178,178,1727820289884,-1.0966797,0.21191406,0.052734375,-13.3125,-106.59375,-100.84375
179,179,1727820289924,-1.3300781,-0.38378906,0.045898438,138.4375,-154.4375,-95.4375
180,180,1727820289964,-1.0214844,-0.11035156,0.14550781,65.8125,-173.6875,-84.875
181,181,1727820290004,-0.68847656,0.2861328,-0.18847656,72.75,-135.96875,-81.5625
182,182,1727820290044,-0.56933594,-0.30273438,-0.028320312,54.09375,-132.15625,-68.09375
183,183,1727820290084,-0.40039062,0.034179688,0.08691406,61.84375,-90.53125,-48.5
184,184,1727820290124,-0.16992188,-0.044921875,0.08691406,82.40625,-43.84375,-18.71875
185,185,1727820290164,-0.16308594,-0.20117188,0.328125,48.65625,-1.125,-10.21875
186,186,1727820290204,-0.43847656,-0.5673828,0.38964844,4.875,42.625,-14.0625
187,187,1727820290244,-0.30664062,0.111328125,0.25390625,-12.875,89.875,21.53125
188,188,1727820290284,-1.6982422,0.43164062,1.0019531,-90.3125,83.84375,49.96875
189,189,1727820290324,-1.5419922,-0.8828125,-0.0048828125,-89.15625,161.59375,50.03125
190,190,1727820290364,-0.80078125,-0.0703125,0.21484375,-105.875,82.6875,41.21875
191,191,1727820290404,-1.1025391,-0.125,-0.033203125,-74.34375,113.3125,54.28125
192,192,1727820290444,-1.2607422,-0.5732422,-0.045898438,-58.53125,105.125,44.03125
193,193,1727820290484,-1.0546875,-0.18261719,0.015625,-18.84375,64.71875,42.15625
194,194,1727820290524,-0.95410156,-0.15136719,-0.08886719,-2.0625,60.15625,47.53125
195,195,1727820290564,-0.93652344,-0.109375,-0.048828125,17.875,63.8125,48.90625
196,196,1727820290604,-1.0703125,-0.3828125,-0.06542969,74.34375,48.6875,61.90625
197,197,1727820290644,-0.9453125,-0.28710938,-0.20410156,61.84375,23.90625,26.40625
198,198,1727820290684,-0.8144531,0.005859375,-0.0029296875,-21.0625,57.90625,-2.71875
199,199,1727820290724,-0.9326172,-0.19238281,0.034179688,8.125,40.4375,11.4375
200,200,1727820290764,-0.875,0.009765625,-0.061523438,-30.8125,51.4375,-15.03125
201,201,1727820290804,-0.87890625,-0.0087890625,-0.17675781,-23.6875,28.84375,1.875
202,202,1727820290844,-1.0498047,-0.15625,-0.25097656,-19.34375,23.78125,15.0
203,203,1727820290884,-1.0380859,-0.20507812,-0.2919922,-22.8125,30.125,15.34375
204,204,1727820290924,-1.125,-0.107421875,-0.3408203,-25.375,26.75,21.34375
205,205,1727820290964,-1.1601562,-0.06640625,-0.3310547,-22.5,36.21875,29.28125
206,206,1727820291004,-1.2998047,-0.19238281,-0.38085938,-42.90625,38.3125,26.40625
207,207,1727820291044,-1.5703125,-0.39453125,-0.24902344,-20.8125,20.25,27.5
208,208,1727820291084,-1.4316406,-0.13671875,0.051757812,15.03125,-24.625,20.53125
209,209,1727820291124,-1.2900391,-0.12695312,0.20117188,67.34375,-80.40625,-6.125
210,210,1727820291164,-1.4482422,-0.5205078,0.4423828,137.6875,-124.65625,-20.53125
211,211,1727820291204,-1.4599609,-0.123046875,-0.4189453,-69.03125,-152.5,-82.78125
212,212,1727820291244,-1.0683594,0.3857422,-0.6689453,-68.0,-145.46875,-112.6875
213,213,1727820291284,-1.0791016,0.16308594,0.015625,51.34375,-154.9375,-74.96875
214,214,1727820291324,-1.2607422,-0.33984375,0.15332031,39.4375,-141.15625,-83.78125
215,215,1727820291364,-0.94628906,0.0146484375,-0.020507812,67.5625,-153.90625,-76.4375
216,216,1727820291404,-0.75390625,-0.11035156,-0.10449219,104.25,-139.3125,-73.34375
217,217,1727820291444,-0.70703125,-0.26464844,0.11816406,45.84375,-134.125,-61.625
218,218,1727820291484,-0.3564453,0.140625,0.037109375,92.84375,-105.875,-37.6875
219,219,1727820291524,-0.28125,0.022460938,0.13183594,62.625,-69.3125,-22.25
220,220,1727820291564,-0.3466797,-0.16894531,0.3671875,46.28125,-36.96875,-17.84375
221,221,1727820291604,-0.36132812,-0.34179688,0.49609375,-9.03125,-1.0,-30.1875
222,222,1727820291644,-0.37402344,-0.42578125,0.47851562,1.65625,30.71875,-28.03125
223,223,1727820291684,-0.4169922,-0.19238281,0.5498047,-21.0,82.3125,1.9375
224,224,1727820291724,-1.2050781,-0.30371094,0.97753906,-71.21875,99.21875,45.75
225,225,1727820291764,-1.6025391,-0.6376953,0.5332031,-66.21875,103.4375,63.15625
226,226,1727820291804,-0.70996094,-0.17871094,-0.021484375,-68.0625,133.53125,41.90625
227,227,1727820291844,-0.9326172,0.15722656,0.09277344,-128.03125,146.6875,41.15625
228,228,1727820291884,-1.2597656,-0.6064453,-0.3359375,-118.46875,162.75,37.375
229,229,1727820291924,-1.1748047,-0.46777344,0.17089844,-50.34375,87.125,35.3125
230,230,1727820291964,-0.9550781,-0.040039062,0.017578125,-10.625,64.1875,48.625
231,231,1727820292004,-0.921875,-0.091796875,-0.109375,-24.84375,63.9375,49.53125
232,232,1727820292044,-1.0576172,-0.30664062,-0.19042969,11.84375,61.1875,61.8125
233,233,1727820292084,-0.9921875,-0.5107422,-0.19726562,57.625,26.40625,56.78125
234,234,1727820292124,-0.85839844,-0.13671875,-0.12207031,-6.46875,16.28125,12.4375
235,235,1727820292164,-0.83691406,-0.08496094,-0.041992188,9.46875,49.90625,17.25
236,236,1727820292204,-0.90527344,-0.16113281,-0.06738281,-11.59375,39.71875,17.0
237,237,1727820292244,-0.9511719,-0.10253906,-0.078125,-6.03125,42.8125,21.21875
238,238,1727820292284,-1.0244141,-0.20996094,-0.26367188,-27.46875,23.78125,18.09375
239,239,1727820292324,-1.0097656,-0.234375,-0.31933594,-7.75,14.9375,25.0
240,240,1727820292364,-1.1728516,-0.059570312,-0.24023438,-8.78125,17.71875,34.28125
241,241,1727820292404,-1.2773438,0.048828125,-0.29101562,-35.8125,16.625,28.0625
242,242,1727820292444,-1.5673828,-0.3017578,-0.37109375,-28.9375,0.71875,19.4375
243,243,1727820292484,-1.5214844,-0.0107421875,-0.13867188,5.5625,-30.4375,14.125
244,244,1727820292524,-1.4541016,0.033203125,0.29785156,29.65625,-66.875,3.28125
245,245,1727820292564,-1.3388672,-0.41601562,0.69628906,82.84375,-124.59375,-36.09375
246,246,1727820292604,-1.3613281,-0.025390625,-0.734375,-220.9375,-151.21875,-115.5
247,247,1727820292644,-1.2314453,0.21679688,-0.16894531,-37.90625,-134.90625,-106.96875
248,248,1727820292684,-1.1943359,0.4609375,0.20507812,-10.78125,-146.5625,-74.90625
249,249,1727820292724,-1.0869141,-0.3515625,-0.2861328,45.90625,-138.8125,-42.03125
250,250,1727820292764,-0.9892578,-0.064453125,0.15722656,-44.625,-116.84375,-75.84375
251,251,1727820292804,-0.71875,-0.072265625,0.001953125,59.21875,-150.84375,-42.5
252,252,1727820292844,-0.63964844,-0.2529297,0.11816406,48.21875,-126.0,-38.96875
253,253,1727820292884,-0.38964844,0.025390625,0.14160156,84.59375,-112.40625,-25.40625
254,254,1727820292924,-0.15820312,0.1328125,0.09765625,79.65625,-75.21875,12.0
255,255,1727820292964,-0.19628906,0.10839844,0.28710938,24.65625,-31.9375,30.625
256,256,1727820293004,-0.4873047,-0.12792969,0.5908203,-46.75,2.46875,18.46875
257,257,1727820293044,-0.5283203,-0.5986328,0.6826172,-22.34375,22.625,2.34375
258,258,1727820293084,-0.5439453,-0.7138672,0.9472656,-31.5,56.5625,23.46875
259,259,1727820293124,-1.1416016,0.083984375,0.8408203,-60.0,61.8125,66.375
260,260,1727820293164,-0.7841797,0.20605469,0.70996094,-11.90625,97.875,39.34375
261,261,1727820293204,-0.8828125,0.08496094,0.11621094,-128.59375,137.59375,41.71875
262,262,1727820293244,-1.4482422,-0.15527344,-0.087890625,-183.9375,148.03125,30.25
263,263,1727820293284,-1.2373047,-0.42578125,-0.001953125,-135.4375,129.71875,34.9375
264,264,1727820293324,-0.9707031,-0.19921875,-0.06347656,-93.125,93.78125,35.8125
265,265,1727820293364,-1.0576172,-0.3154297,-0.056640625,-43.875,75.59375,43.375
266,266,1727820293404,-1.0605469,-0.25195312,-0.05078125,-7.0625,59.0625,47.34375
267,267,1727820293444,-0.9921875,-0.17578125,-0.19726562,2.21875,53.5625,47.46875
268,268,1727820293484,-1.0058594,-0.20410156,-0.13378906,16.5625,27.5,44.78125
269,269,1727820293524,-0.9980469,-0.23144531,-0.18164062,-4.5,28.40625,33.59375
270,270,1727820293564,-0.8720703,-0.032226562,0.022460938,-26.25,37.8125,18.90625
271,271,1727820293604,-0.89453125,-0.1328125,-0.055664062,-54.6875,34.53125,8.5625
272,272,1727820293644,-0.8535156,-0.16015625,-0.13183594,-48.6875,29.75,13.65625
273,273,1727820293684,-0.89746094,-0.3515625,-0.15625,-30.03125,29.5,21.875
274,274,1727820293724,-1.0556641,-0.14746094,-0.21386719,-43.625,31.28125,29.09375
275,275,1727820293764,-1.1533203,-0.0078125,-0.2548828,-39.71875,21.875,43.3125
276,276,1727820293804,-1.328125,0.0,-0.26660156,-51.5625,21.53125,33.34375
277,277,1727820293844,-1.5029297,-0.21484375,-0.34179688,-49.25,9.125,25.125
278,278,1727820293884,-1.4824219,0.064453125,-0.055664062,0.125,-14.5625,10.53125
279,279,1727820293924,-1.3242188,0.0048828125,0.27734375,23.5625,-68.03125,-9.5
280,280,1727820293964,-1.3847656,-0.3251953,0.55371094,57.0625,-113.3125,-60.21875
281,281,1727820294004,-1.2099609,0.29785156,-0.8125,-197.875,-129.71875,-147.375
282,282,1727820294044,-1.1777344,0.54589844,0.48339844,-65.90625,-169.53125,-100.625
283,283,1727820294084,-1.1835938,0.2421875,0.20410156,-21.46875,-156.03125,-55.75
284,284,1727820294124,-0.9980469,-0.234375,-0.034179688,-13.65625,-163.0625,-70.9375
285,285,1727820294164,-0.83496094,-0.40234375,-0.091796875,10.8125,-151.34375,-44.875
286,286,1727820294204,-0.78515625,-0.16113281,0.16601562,72.40625,-157.1875,-23.84375
287,287,1727820294244,-0.5175781,0.017578125,0.12890625,68.65625,-135.09375,-19.625
288,288,1727820294284,-0.33007812,0.028320312,0.140625,37.59375,-100.6875,-13.40625
289,289,1727820294324,-0.2578125,-0.05078125,0.23339844,40.78125,-60.5,9.84375
290,290,1727820294364,-0.3154297,-0.25878906,0.4794922,3.3125,-19.625,11.4375
291,291,1727820294404,-0.3984375,-0.40625,0.45996094,-40.59375,19.0,-9.1875
292,292,1727820294444,-0.50097656,-0.44140625,0.55078125,-31.90625,47.53125,-15.96875
293,293,1727820294484,-0.69433594,-0.25683594,1.1591797,-37.34375,76.75,21.875
294,294,1727820294524,-1.3759766,-0.026367188,0.6279297,-48.5625,91.9375,53.25
295,295,1727820294564,-0.6044922,0.0,0.6503906,-23.375,119.84375,49.03125
296,296,1727820294604,-0.984375,0.00390625,0.18066406,-116.25,148.59375,42.875
297,297,1727820294644,-1.6376953,-0.3408203,-0.013671875,-140.6875,153.46875,38.71875
298,298,1727820294684,-0.99902344,-0.36816406,0.0048828125,-101.3125,103.3125,38.1875
299,299,1727820294724,-0.88183594,-0.06640625,-0.09375,-79.40625,98.1875,31.65625
300,300,1727820294764,-1.1435547,-0.28808594,-0.091796875,-47.28125,83.65625,38.125
301,301,1727820294804,-1.1005859,-0.34472656,-0.14453125,-7.875,57.21875,43.625
302,302,1727820294844,-0.99609375,-0.21386719,-0.1796875,42.25,43.0,46.25
303,303,1727820294884,-0.92089844,-0.17871094,-0.18261719,25.46875,44.90625,35.1875
304,304,1727820294924,-0.859375,-0.14453125,-0.16699219,-8.15625,29.875,23.40625
305,305,1727820294964,-0.8984375,-0.18554688,-0.08105469,-6.34375,34.5625,21.34375
306,306,1727820295004,-0.9667969,-0.11425781,-0.06933594,-44.65625,35.625,-1.0
307,307,1727820295044,-0.92578125,-0.1484375,-0.111328125,-32.65625,20.40625,9.0625
308,308,1727820295084,-1.0175781,-0.27441406,-0.21289062,-41.75,14.875,9.6875
309,309,1727820295124,-1.0253906,-0.16796875,-0.24414062,-11.90625,5.15625,19.375
310,310,1727820295164,-1.0410156,-0.0625,-0.296875,-25.875,14.8125,25.375
311,311,1727820295204,-1.1943359,0.06347656,-0.28027344,-47.1875,7.71875,27.375
312,312,1727820295244,-1.2460938,-0.103515625,-0.3466797,-54.625,6.9375,24.1875
313,313,1727820295284,-1.4394531,-0.2861328,-0.34179688,-26.59375,-10.90625,27.25
314,314,1727820295324,-1.3720703,-0.16113281,-0.14550781,26.3125,-26.03125,25.71875
315,315,1727820295364,-1.3974609,-0.14648438,0.19628906,32.46875,-59.125,0.40625
316,316,1727820295404,-1.3271484,-0.30664062,0.42871094,36.125,-65.09375,-32.6875
317,317,1727820295444,-1.3466797,-0.103515625,0.064453125,-11.71875,-99.8125,-81.6875
318,318,1727820295484,-1.0644531,0.3720703,-0.5439453,-169.4375,-137.34375,-117.65625
319,319,1727820295524,-1.0849609,0.20507812,0.021484375,30.59375,-165.5,-40.5
320,320,1727820295564,-1.2714844,-0.46191406,0.14941406,-0.0625,-81.15625,-69.1875
321,321,1727820295604,-0.9980469,0.1484375,0.11035156,27.34375,-153.59375,-76.6875
322,322,1727820295644,-0.87402344,-0.08496094,0.05078125,33.09375,-118.4375,-60.5
323,323,1727820295684,-0.7753906,-0.13671875,0.17773438,31.3125,-123.375,-52.65625
324,324,1727820295724,-0.63671875,-0.21289062,0.09472656,79.65625,-118.5,-46.65625
325,325,1727820295764,-0.3720703,-0.0029296875,0.0859375,62.875,-93.65625,-32.5625
326,326,1727820295804,-0.23925781,0.033203125,0.19140625,58.59375,-59.90625,-17.4375
327,327,1727820295844,-0.3076172,-0.099609375,0.51953125,14.28125,-21.4375,-14.8125
328,328,1727820295884,-0.41992188,-0.3466797,0.54785156,-2.375,10.28125,-19.0625
329,329,1727820295924,-0.4326172,-0.4345703,0.51464844,-6.21875,43.90625,-10.59375
330,330,1727820295964,-0.6894531,-0.3310547,1.0859375,-47.90625,73.34375,36.03125
331,331,1727820296004,-1.5507812,-0.30859375,0.73339844,-34.34375,93.96875,62.34375
332,332,1727820296044,-0.53222656,0.17480469,0.44335938,-19.15625,102.15625,51.96875
333,333,1727820296084,-0.7714844,0.0390625,0.19335938,-133.15625,156.46875,48.96875
334,334,1727820296124,-1.6445312,-0.484375,-0.123046875,-181.34375,177.15625,23.53125
335,335,1727820296164,-1.15625,-0.41601562,0.047851562,-80.5,96.03125,32.9375
336,336,1727820296204,-0.90625,-0.111328125,-0.028320312,-43.3125,73.09375,42.21875
337,337,1727820296244,-0.9316406,-0.16015625,-0.11035156,-28.375,71.375,49.34375
338,338,1727820296284,-1.0615234,-0.22558594,-0.16894531,-20.0,76.5625,45.375
339,339,1727820296324,-1.0742188,-0.23828125,-0.16992188,-15.8125,61.1875,43.78125
340,340,1727820296364,-0.9951172,-0.25390625,-0.15820312,60.0625,20.34375,56.3125
341,341,1727820296404,-0.92578125,-0.09277344,-0.2548828,-15.25,12.0,28.59375
342,342,1727820296444,-0.94921875,-0.15625,-0.140625,-19.9375,35.96875,22.1875
343,343,1727820296484,-0.9277344,-0.20117188,-0.12011719,-52.71875,46.71875,-4.5
344,344,1727820296524,-0.7910156,-0.103515625,-0.22558594,-42.84375,36.09375,-0.46875
345,345,1727820296564,-0.9580078,-0.2998047,-0.06347656,-24.90625,35.6875,19.9375
346,346,1727820296604,-1.0146484,-0.2529297,-0.15917969,-36.90625,30.4375,17.25
347,347,1727820296644,-1.1669922,0.029296875,-0.15429688,-19.78125,11.8125,25.78125
348,348,1727820296684,-1.21875,0.0126953125,-0.19921875,-39.65625,11.75,22.90625
349,349,1727820296724,-1.40625,-0.28515625,-0.30859375,-62.8125,7.65625,11.03125
350,350,1727820296764,-1.6757812,-0.27246094,-0.21777344,-1.875,-24.9375,7.90625
351,351,1727820296804,-1.3789062,-0.07128906,0.0859375,44.5625,-65.6875,-8.5625
352,352,1727820296844,-1.3740234,-0.22949219,0.4345703,40.53125,-92.6875,-45.3125
353,353,1727820296884,-1.4697266,-0.08496094,-0.022460938,5.4375,-127.15625,-96.46875
354,354,1727820296924,-1.3076172,0.26367188,-0.50878906,-58.09375,-117.15625,-107.875
355,355,1727820296964,-1.2724609,0.50390625,0.2626953,-56.625,-159.28125,-73.6875
356,356,1727820297004,-1.3242188,-0.19042969,0.07910156,46.34375,-168.3125,-53.5
357,357,1727820297044,-0.98828125,-0.19335938,-0.01953125,-42.28125,-131.8125,-65.59375
358,358,1727820297084,-0.7578125,-0.16894531,0.022460938,48.59375,-160.96875,-36.15625
359,359,1727820297124,-0.75878906,-0.20703125,0.111328125,66.40625,-156.59375,-32.1875
360,360,1727820297164,-0.3876953,0.09472656,0.13574219,83.4375,-134.5,-21.875
361,361,1727820297204,-0.17382812,0.15039062,0.07421875,86.625,-96.84375,14.375
362,362,1727820297244,-0.12695312,-0.12011719,0.24609375,84.65625,-55.875,41.78125
363,363,1727820297284,-0.2998047,-0.34570312,0.5341797,-0.34375,7.21875,33.78125
364,364,1727820297324,-0.2763672,-0.16699219,0.64160156,-39.59375,65.8125,-2.46875
365,365,1727820297364,-0.55566406,-0.6064453,0.7167969,-33.6875,105.4375,16.75
366,366,1727820297404,-1.3134766,-0.21386719,0.8515625,-78.59375,118.0,62.09375
367,367,1727820297444,-1.0859375,0.1484375,0.39453125,-63.90625,118.125,33.125
368,368,1727820297484,-0.84375,0.11035156,0.057617188,-147.28125,125.9375,23.21875
369,369,1727820297524,-1.0166016,-0.0390625,0.037109375,-184.3125,147.84375,20.1875
370,370,1727820297564,-1.0615234,-0.06933594,0.16601562,-67.8125,112.09375,34.15625
371,371,1727820297604,-0.88671875,0.296875,0.21386719,-150.9375,126.375,31.03125
372,372,1727820297644,-1.3476562,-0.23632812,-0.16113281,-182.0,156.78125,41.09375
373,373,1727820297684,-1.2324219,-0.55078125,0.0146484375,-125.78125,103.0,43.96875
374,374,1727820297724,-1.0546875,-0.31445312,-0.14355469,-43.28125,79.5625,36.71875
375,375,1727820297764,-0.9951172,-0.12988281,-0.10058594,-10.90625,60.59375,40.375
376,376,1727820297804,-1.0097656,-0.11621094,-0.18554688,-44.65625,73.28125,34.875
377,377,1727820297844,-1.0800781,-0.24121094,-0.14746094,15.5625,61.8125,42.4375
378,378,1727820297884,-0.9423828,-0.19628906,-0.21289062,7.5,26.34375,30.65625
379,379,1727820297924,-0.90625,-0.21386719,-0.09375,-91.59375,32.25,7.59375
380,380,1727820297964,-0.91503906,-0.0234375,-0.068359375,-55.59375,36.65625,1.5625
381,381,1727820298004,-0.7783203,-0.033203125,-0.13378906,-61.34375,33.40625,8.875
382,382,1727820298044,-0.9716797,-0.21289062,-0.12597656,-39.1875,39.8125,23.34375
383,383,1727820298084,-1.0732422,-0.328125,-0.20898438,-49.75,28.0,25.0
384,384,1727820298124,-1.0732422,-0.23730469,-0.19921875,-33.875,22.8125,30.0
385,385,1727820298164,-1.1035156,-0.15136719,-0.25683594,-48.53125,13.9375,29.09375
386,386,1727820298204,-1.3828125,-0.11425781,-0.23242188,-53.71875,11.25,11.09375
387,387,1727820298244,-1.5087891,-0.17089844,-0.22949219,-23.625,-20.84375,2.96875
388,388,1727820298284,-1.4423828,-0.115234375,0.009765625,16.78125,-62.21875,-4.53125
389,389,1727820298324,-1.4121094,-0.17675781,0.22265625,24.59375,-94.625,-29.03125
390,390,1727820298364,-1.4404297,-0.16601562,0.17089844,25.21875,-143.53125,-51.375
391,391,1727820298404,-1.3515625,0.24804688,-0.47851562,-117.0625,-133.09375,-81.03125
392,392,1727820298444,-1.1640625,0.3515625,-0.20898438,-110.03125,-145.0625,-87.25
393,393,1727820298484,-1.5068359,-0.19238281,0.29589844,30.53125,-152.75,-87.1875
394,394,1727820298524,-0.84472656,-0.033203125,0.13671875,28.9375,-179.15625,-51.90625
395,395,1727820298564,-0.85253906,0.05859375,-0.12207031,63.3125,-156.15625,-36.78125
396,396,1727820298604,-0.64160156,-0.11035156,0.11621094,23.875,-148.34375,-14.3125
397,397,1727820298644,-0.37890625,0.044921875,0.091796875,41.6875,-119.34375,-8.40625
398,398,1727820298684,-0.17382812,0.038085938,0.08300781,61.71875,-82.5,23.71875
399,399,1727820298724,-0.12988281,0.076171875,0.32910156,44.5625,-36.71875,45.9375
400,400,1727820298764,-0.4814453,-0.296875,0.49121094,-27.28125,5.84375,20.40625
401,401,1727820298804,-0.4296875,-0.328125,0.53808594,-59.1875,79.75,13.21875
402,402,1727820298844,-0.796875,-0.15820312,0.65722656,-111.6875,118.6875,55.8125
403,403,1727820298884,-1.5761719,-0.24023438,0.55859375,-93.6875,139.0,48.5625
404,404,1727820298924,-0.9580078,-0.2578125,0.2998047,-97.09375,123.3125,28.0
405,405,1727820298964,-0.9824219,0.040039062,0.08984375,-120.34375,129.90625,30.0625
406,406,1727820299004,-1.1240234,-0.31152344,0.095703125,-119.0,132.53125,37.8125
407,407,1727820299044,-1.1542969,-0.4033203,0.043945312,-62.5625,86.46875,30.4375
408,408,1727820299084,-0.97558594,-0.11816406,-0.0078125,-31.1875,58.5,27.25
409,409,1727820299124,-0.8984375,-0.111328125,-0.07910156,-30.28125,58.5,35.0625
410,410,1727820299164,-1.0947266,-0.23535156,-0.13867188,-16.28125,54.34375,36.40625
411,411,1727820299204,-1.0927734,-0.24316406,-0.17382812,15.75,29.8125,36.71875
412,412,1727820299244,-0.9980469,-0.20605469,-0.24707031,3.96875,38.0,23.78125
413,413,1727820299284,-0.91796875,-0.17089844,-0.047851562,-42.53125,41.15625,13.46875
414,414,1727820299324,-0.92089844,-0.20507812,-0.087890625,-30.28125,46.96875,5.90625
415,415,1727820299364,-0.90625,0.051757812,-0.059570312,-59.625,59.46875,-5.21875
416,416,1727820299404,-0.86035156,-0.14648438,-0.12695312,-58.78125,38.53125,14.5
417,417,1727820299444,-0.89453125,-0.15625,-0.16992188,-55.21875,36.28125,20.34375
418,418,1727820299484,-1.0439453,-0.09277344,-0.16699219,-58.28125,36.84375,27.3125
419,419,1727820299524,-1.1484375,-0.06640625,-0.25683594,-60.0,22.0,29.21875
420,420,1727820299564,-1.2226562,-0.12792969,-0.2705078,-66.34375,20.59375,24.875
421,421,1727820299604,-1.4638672,-0.37695312,-0.5078125,-77.625,10.46875,15.03125
422,422,1727820299644,-1.4863281,-0.057617188,-0.15722656,-11.46875,-17.90625,2.53125
423,423,1727820299684,-1.3515625,-0.16894531,0.18945312,24.0625,-47.8125,-2.78125
424,424,1727820299724,-1.2822266,-0.5654297,0.47558594,55.125,-113.75,-43.5625
425,425,1727820299764,-1.4384766,-0.033203125,-0.41210938,-115.21875,-113.375,-113.125
426,426,1727820299804,-1.1142578,0.24804688,-0.07519531,-46.8125,-136.25,-106.78125
427,427,1727820299844,-1.0410156,0.4892578,-0.025390625,-60.28125,-174.65625,-79.0
428,428,1727820299884,-1.4746094,-0.44921875,0.16796875,12.53125,-121.0625,-84.0625
429,429,1727820299924,-1.1367188,-0.07714844,0.041992188,-10.6875,-140.03125,-91.53125
430,430,1727820299964,-0.94921875,-0.10644531,0.030273438,19.125,-144.6875,-77.0625
431,431,1727820300004,-0.79785156,-0.30078125,0.06640625,52.375,-142.53125,-49.90625
432,432,1727820300044,-0.41796875,0.033203125,-0.015625,83.5,-133.40625,-20.46875
433,433,1727820300084,-0.25976562,0.041992188,0.01953125,75.8125,-95.1875,18.9375
434,434,1727820300124,-0.12109375,0.06542969,0.25195312,45.46875,-49.40625,32.75
435,435,1727820300164,-0.41015625,-0.45898438,0.484375,-21.71875,2.78125,18.90625
436,436,1727820300204,-0.44433594,-0.4970703,0.37890625,-53.09375,38.46875,13.8125
437,437,1727820300244,-0.5595703,-0.11035156,0.70410156,-68.53125,87.875,30.625
438,438,1727820300284,-1.6728516,-0.0703125,0.70703125,-135.5,90.375,63.6875
439,439,1727820300324,-0.8183594,-0.5,0.48535156,-98.0,101.59375,47.75
440,440,1727820300364,-0.83203125,-0.0078125,0.2109375,-129.75,110.5,55.5
441,441,1727820300404,-1.3896484,-0.13476562,-0.064453125,-117.375,118.375,57.65625
442,442,1727820300444,-1.1513672,-0.38085938,0.0126953125,-87.21875,87.875,51.1875
443,443,1727820300484,-0.90625,-0.048828125,0.018554688,-69.15625,62.78125,48.0
444,444,1727820300524,-1.0478516,-0.3330078,-0.09375,-65.3125,65.15625,49.28125
445,445,1727820300564,-1.0488281,-0.37109375,-0.18652344,-34.28125,51.71875,47.03125
446,446,1727820300604,-1.0361328,-0.37304688,-0.21386719,14.28125,38.3125,52.09375
447,447,1727820300644,-0.9873047,-0.32226562,-0.234375,30.09375,31.34375,37.75
448,448,1727820300684,-0.9580078,-0.15429688,-0.059570312,-15.96875,48.4375,11.625
449,449,1727820300724,-0.9814453,-0.22460938,-0.00390625,-44.125,39.46875,13.59375
450,450,1727820300764,-0.8574219,-0.068359375,-0.0009765625,-42.59375,46.78125,-1.6875
451,451,1727820300804,-0.8417969,-0.08300781,-0.12207031,-49.96875,45.0,6.4375
452,452,1727820300844,-0.921875,-0.24511719,-0.26660156,-43.875,35.8125,14.8125
453,453,1727820300884,-1.0107422,-0.1171875,-0.27441406,-40.75,26.9375,21.28125
454,454,1727820300924,-1.1220703,-0.15527344,-0.21191406,-55.71875,29.5625,28.71875
455,455,1727820300964,-1.1904297,-0.022460938,-0.296875,-57.65625,17.3125,26.21875
456,456,1727820301004,-1.4296875,-0.2783203,-0.2763672,-51.625,7.28125,19.6875
457,457,1727820301044,-1.5175781,-0.42089844,-0.15234375,-6.84375,-14.875,12.0
458,458,1727820301084,-1.3173828,-0.22949219,0.0048828125,14.90625,-64.40625,-8.15625
459,459,1727820301124,-1.2636719,-0.17285156,0.140625,38.40625,-107.28125,-38.0
460,460,1727820301164,-1.4453125,-0.1875,-0.3408203,-27.09375,-116.96875,-81.6875
461,461,1727820301204,-1.4111328,0.16308594,-0.08984375,38.40625,-116.46875,-95.71875
462,462,1727820301244,-1.0947266,0.3076172,-0.3203125,-37.46875,-145.59375,-97.0625
463,463,1727820301284,-1.2802734,-0.31152344,0.17089844,22.21875,-156.59375,-86.8125
464,464,1727820301324,-0.94140625,-0.07519531,-0.06542969,48.90625,-163.84375,-78.875
465,465,1727820301364,-0.8876953,-0.24804688,-0.16699219,10.5625,-117.53125,-73.28125
466,466,1727820301404,-0.7128906,-0.20117188,0.02734375,78.75,-134.375,-56.0625
467,467,1727820301444,-0.38671875,0.11621094,0.029296875,88.625,-101.59375,-40.125
468,468,1727820301484,-0.24609375,-0.041015625,0.08105469,84.0,-51.78125,-15.65625
469,469,1727820301524,-0.15332031,-0.20117188,0.3408203,48.53125,2.71875,-6.0
470,470,1727820301564,-0.390625,-0.4970703,0.40234375,-10.96875,48.125,-12.125
471,471,1727820301604,-0.4794922,-0.52441406,0.40527344,-30.875,103.84375,27.25
472,472,1727820301644,-1.8330078,-0.05859375,0.28320312,-80.875,71.5,76.3125
473,473,1727820301684,-0.921875,-0.24023438,0.06640625,-64.25,124.65625,52.46875
474,474,1727820301724,-1.203125,-0.072265625,0.17773438,-138.0,102.03125,36.40625
475,475,1727820301764,-1.2744141,-0.4140625,-0.05078125,-99.59375,111.0625,51.3125
476,476,1727820301804,-1.0058594,-0.3671875,-0.0625,-79.71875,96.09375,47.28125
477,477,1727820301844,-1.0009766,-0.33007812,-0.13964844,-16.53125,84.1875,44.34375
478,478,1727820301884,-1.0820312,-0.33789062,-0.10449219,25.8125,76.5,35.75
479,479,1727820301924,-0.9941406,-0.053710938,-0.060546875,28.6875,76.4375,27.3125
480,480,1727820301964,-0.9638672,0.10449219,-0.1015625,25.34375,65.40625,39.28125
481,481,1727820302004,-1.0048828,-0.040039062,-0.22460938,28.15625,29.03125,49.59375
482,482,1727820302044,-0.9707031,-0.33789062,-0.14453125,-34.84375,16.375,36.21875
483,483,1727820302084,-0.9082031,-0.3671875,-0.16601562,-12.03125,34.40625,14.1875
484,484,1727820302124,-0.85058594,-0.15136719,-0.21972656,-24.53125,47.53125,0.59375
485,485,1727820302164,-0.90527344,-0.08691406,-0.19726562,-14.6875,41.0,17.375
486,486,1727820302204,-0.97265625,-0.16015625,-0.16503906,-22.46875,28.53125,27.0625
487,487,1727820302244,-1.09375,-0.16796875,-0.15332031,-4.25,21.625,33.78125
488,488,1727820302284,-1.1484375,-0.125,-0.19140625,-14.53125,17.3125,31.90625
489,489,1727820302324,-1.2412109,-0.11621094,-0.28222656,-38.6875,5.34375,30.3125
490,490,1727820302364,-1.3769531,-0.29296875,-0.28125,-8.96875,-6.875,24.15625
491,491,1727820302404,-1.5742188,-0.1328125,-0.17871094,14.40625,-28.03125,15.46875
492,492,1727820302444,-1.3349609,0.013671875,0.1328125,41.8125,-65.34375,-1.90625
493,493,1727820302484,-1.2958984,-0.37890625,0.51464844,86.3125,-98.78125,-27.125
494,494,1727820302524,-1.3369141,-0.1484375,-0.27148438,-53.46875,-139.125,-86.34375
495,495,1727820302564,-1.0634766,0.23339844,-0.5576172,-65.0625,-122.46875,-113.5
496,496,1727820302604,-1.0498047,0.29492188,-0.06933594,-15.875,-108.1875,-99.875
497,497,1727820302644,-1.4208984,-0.38671875,0.39257812,80.09375,-136.1875,-109.03125
498,498,1727820302684,-0.89160156,0.16015625,-0.026367188,45.34375,-136.8125,-93.96875
499,499,1727820302724,-0.8300781,-0.15820312,0.037109375,61.53125,-116.46875,-79.1875
500,500,1727820302764,-0.7324219,-0.06542969,0.11230469,77.78125,-118.9375,-61.0
501,501,1727820302804,-0.49121094,0.052734375,0.09375,101.09375,-97.5,-39.53125
502,502,1727820302844,-0.2734375,0.091796875,0.123046875,88.03125,-61.5,-5.65625
503,503,1727820302884,-0.18945312,-0.0087890625,0.34375,43.21875,-12.3125,2.46875
504,504,1727820302924,-0.40527344,-0.39746094,0.50390625,-7.3125,36.34375,-5.21875
505,505,1727820302964,-0.42773438,-0.4296875,0.6064453,-25.3125,105.5,29.6875
506,506,1727820303004,-1.6279297,-0.15136719,0.057617188,-101.375,71.25,74.75
507,507,1727820303044,-1.0302734,-0.3154297,-0.056640625,-101.5625,131.875,55.21875
508,508,1727820303084,-1.3525391,-0.18164062,0.15234375,-148.5625,101.78125,35.0625
509,509,1727820303124,-1.3535156,-0.42773438,0.01953125,-117.96875,115.28125,50.5625
510,510,1727820303164,-1.0410156,-0.2607422,-0.024414062,-62.125,72.0,59.0
511,511,1727820303204,-1.0556641,-0.26464844,-0.043945312,-16.53125,70.46875,51.90625
512,512,1727820303244,-1.0302734,-0.2265625,-0.064453125,19.21875,50.5625,58.9375
513,513,1727820303284,-0.9511719,-0.24804688,-0.10644531,41.09375,48.75,62.28125
514,514,1727820303324,-0.9941406,-0.29101562,-0.17089844,59.28125,44.96875,46.46875
515,515,1727820303364,-0.84765625,-0.14160156,-0.16894531,9.40625,57.59375,11.125
516,516,1727820303404,-0.86035156,-0.0146484375,-0.044921875,-5.84375,57.65625,15.96875
517,517,1727820303444,-0.9423828,-0.125,-0.046875,-6.78125,46.71875,10.09375
518,518,1727820303484,-0.85058594,0.034179688,-0.09472656,-30.5,57.65625,5.15625
519,519,1727820303524,-0.93847656,-0.20703125,-0.1640625,-45.15625,47.09375,15.40625
520,520,1727820303564,-1.0595703,-0.19335938,-0.15917969,-18.1875,40.5625,23.84375
521,521,1727820303604,-1.1005859,-0.12695312,-0.12109375,-22.875,28.71875,31.78125
522,522,1727820303644,-1.2324219,-0.060546875,-0.16699219,-50.03125,16.15625,24.9375
523,523,1727820303684,-1.3837891,-0.26953125,-0.24804688,-30.03125,-0.28125,15.09375
524,524,1727820303724,-1.5458984,-0.2890625,-0.2763672,11.53125,-17.65625,8.53125
525,525,1727820303764,-1.3203125,-0.14746094,0.045898438,59.625,-55.9375,-1.3125
526,526,1727820303804,-1.3320312,-0.26757812,0.38867188,70.6875,-84.4375,-23.21875
527,527,1727820303844,-1.4404297,-0.21582031,0.030273438,-51.4375,-118.1875,-70.09375
528,528,1727820303884,-1.2070312,0.20117188,-0.5576172,-41.9375,-102.5625,-95.90625
529,529,1727820303924,-1.0712891,0.15429688,-0.24707031,-10.0625,-117.09375,-98.0
530,530,1727820303964,-1.2832031,-0.43164062,0.13476562,80.625,-136.8125,-97.375
531,531,1727820304004,-1.0009766,0.12695312,0.0029296875,100.84375,-150.34375,-90.0625
532,532,1727820304044,-0.9501953,-0.09667969,-0.07128906,70.6875,-119.0625,-80.84375
533,533,1727820304084,-0.69140625,-0.01171875,0.076171875,32.0,-92.9375,-69.375
534,534,1727820304124,-0.5253906,-0.032226562,0.02734375,65.625,-72.71875,-42.875
535,535,1727820304164,-0.35546875,0.0126953125,0.13769531,74.28125,-20.53125,-8.625
536,536,1727820304204,-0.22753906,-0.203125,0.3173828,43.59375,33.25,9.1875
537,537,1727820304244,-0.296875,-0.5722656,0.057617188,2.09375,79.875,19.5
538,538,1727820304284,-0.3408203,0.12207031,0.17773438,-66.875,130.09375,69.84375
539,539,1727820304324,-1.7451172,0.53222656,0.6845703,-56.5,139.625,52.28125
540,540,1727820304364,-1.4462891,-0.6660156,0.046875,-168.15625,157.1875,20.84375
541,541,1727820304404,-1.1552734,-0.37402344,0.0703125,-78.71875,62.40625,31.40625
542,542,1727820304444,-1.0869141,-0.4423828,-0.036132812,-17.875,62.15625,52.78125
543,543,1727820304484,-1.1386719,-0.16308594,-0.06347656,26.125,60.875,45.3125
544,544,1727820304524,-1.1640625,-0.028320312,-0.13085938,37.25,43.78125,46.78125
545,545,1727820304564,-1.0009766,-0.08886719,-0.1796875,30.46875,41.21875,48.5625
546,546,1727820304604,-0.9580078,-0.234375,-0.21679688,74.96875,36.65625,53.3125
547,547,1727820304644,-0.8935547,-0.22460938,-0.25976562,25.40625,37.8125,16.21875
548,548,1727820304684,-0.8261719,0.051757812,-0.080078125,-16.53125,46.34375,10.28125
549,549,1727820304724,-0.9082031,-0.19921875,-0.06347656,14.28125,43.90625,14.1875
550,550,1727820304764,-0.85253906,0.07910156,-0.08300781,-23.0,55.5,4.0
551,551,1727820304804,-0.9326172,-0.0390625,-0.12890625,-29.53125,46.34375,22.4375
552,552,1727820304844,-1.0175781,-0.22265625,-0.19042969,-28.25,40.625,32.875
553,553,1727820304884,-1.1669922,-0.234375,-0.13769531,2.375,29.625,38.0
554,554,1727820304924,-1.2451172,-0.17480469,-0.23046875,-27.28125,14.5625,29.15625
555,555,1727820304964,-1.3544922,-0.25683594,-0.27441406,-10.84375,-0.09375,15.84375
556,556,1727820305004,-1.6386719,-0.1953125,-0.17480469,20.75,-15.15625,7.40625
557,557,1727820305044,-1.4023438,-0.053710938,0.16503906,53.78125,-62.46875,0.8125
558,558,1727820305084,-1.3818359,-0.22753906,0.3857422,74.78125,-116.4375,-19.8125
559,559,1727820305124,-1.5761719,-0.17578125,0.026367188,12.09375,-135.28125,-53.5
560,560,1727820305164,-1.0869141,0.2783203,-0.7675781,-141.84375,-151.625,-107.9375
561,561,1727820305204,-1.0419922,0.2705078,-0.083984375,-11.09375,-126.6875,-82.84375
562,562,1727820305244,-1.2949219,-0.31152344,0.22167969,46.09375,-116.53125,-102.75
563,563,1727820305284,-0.7871094,0.057617188,0.009765625,48.59375,-151.21875,-85.96875
564,564,1727820305324,-0.72558594,-0.14550781,-0.059570312,50.78125,-105.9375,-81.875
565,565,1727820305364,-0.6220703,-0.029296875,0.001953125,65.9375,-105.0,-66.125
566,566,1727820305404,-0.4794922,-0.0068359375,0.1328125,75.4375,-80.96875,-58.25
567,567,1727820305444,-0.38867188,-0.18359375,0.13574219,78.4375,-45.0,-25.46875
568,568,1727820305484,-0.3330078,-0.35253906,0.2890625,46.46875,-1.875,-20.34375
569,569,1727820305524,-0.45214844,-0.2783203,0.24316406,0.4375,42.375,-28.09375
570,570,1727820305564,-0.33398438,0.15429688,0.3642578,27.84375,93.46875,-4.84375
571,571,1727820305604,-1.1113281,0.37695312,1.0390625,-93.75,124.84375,25.84375
572,572,1727820305644,-1.8496094,-0.7763672,-0.09082031,-136.53125,163.71875,67.84375
573,573,1727820305684,-1.0556641,-0.12109375,0.37695312,-117.125,82.5625,60.28125
574,574,1727820305724,-1.1923828,-0.08886719,-0.19726562,-111.3125,103.5625,83.78125
575,575,1727820305764,-1.2148438,-0.47558594,-0.23046875,-85.0625,100.625,72.0
576,576,1727820305804,-1.0761719,-0.2998047,-0.08886719,-22.40625,72.1875,61.4375
577,577,1727820305844,-1.0429688,-0.24121094,-0.095703125,-1.40625,62.96875,58.0
578,578,1727820305884,-0.86328125,-0.3046875,-0.19433594,34.5625,51.53125,56.6875
579,579,1727820305924,-0.93359375,-0.24902344,-0.20410156,80.4375,46.46875,46.65625
580,580,1727820305964,-1.0234375,-0.109375,-0.13964844,-3.96875,41.71875,13.53125
581,581,1727820306004,-0.80371094,0.0078125,-0.12402344,-2.0625,29.03125,13.875
582,582,1727820306044,-0.89160156,-0.030273438,-0.10644531,-15.6875,41.28125,12.53125
583,583,1727820306084,-0.9169922,-0.055664062,-0.08300781,-35.875,47.28125,14.0
584,584,1727820306124,-0.9746094,-0.19238281,-0.21679688,-51.4375,28.53125,18.15625
585,585,1727820306164,-1.0732422,-0.24707031,-0.14257812,-13.59375,19.375,27.6875
586,586,1727820306204,-1.1728516,-0.2861328,-0.0859375,-9.875,17.65625,29.34375
587,587,1727820306244,-1.3876953,-0.10839844,-0.22949219,-38.8125,14.3125,16.03125
588,588,1727820306284,-1.7597656,-0.13769531,-0.12695312,6.28125,-9.4375,6.125
589,589,1727820306324,-1.4033203,-0.10449219,0.1328125,58.25,-76.875,-10.78125
590,590,1727820306364,-1.3681641,-0.21875,0.16699219,86.0,-138.21875,-34.15625
591,591,1727820306404,-1.4072266,-0.048828125,-0.26660156,-58.78125,-129.125,-60.75
592,592,1727820306444,-1.1025391,0.076171875,-0.35839844,-69.15625,-121.0625,-84.8125
593,593,1727820306484,-1.0957031,0.14160156,-0.23046875,0.25,-133.15625,-77.65625
594,594,1727820306524,-1.3417969,-0.31054688,0.001953125,4.59375,-131.375,-88.84375
595,595,1727820306564,-0.8955078,0.16015625,-0.060546875,33.6875,-129.59375,-93.15625
596,596,1727820306604,-0.828125,-0.3046875,-0.072265625,75.6875,-123.9375,-85.40625
597,597,1727820306644,-0.61328125,-0.09375,0.046875,46.625,-99.75,-68.875
598,598,1727820306684,-0.34375,0.18554688,-0.041992188,76.375,-79.5625,-52.28125
599,599,1727820306724,-0.21582031,-0.02734375,0.12109375,86.3125,-35.6875,-27.375
600,600,1727820306764,-0.3076172,-0.2890625,0.3779297,23.25,14.75,-21.4375
601,601,1727820306804,-0.6220703,-0.69433594,0.3125,5.5625,54.0,-24.25
602,602,1727820306844,-0.55859375,-0.23730469,0.26660156,-16.65625,103.125,21.34375
603,603,1727820306884,-1.7011719,-0.10839844,0.8339844,-46.125,84.875,33.46875
604,604,1727820306924,-0.87109375,0.018554688,0.25976562,-36.84375,111.84375,33.78125
605,605,1727820306964,-0.6640625,0.06640625,0.10058594,-108.625,120.875,56.84375
606,606,1727820307004,-1.4208984,-0.31445312,-0.032226562,-105.46875,130.78125,51.71875
607,607,1727820307044,-1.3212891,-0.67285156,0.048828125,-72.0,87.0625,32.25
608,608,1727820307084,-0.9873047,-0.13867188,-0.044921875,-2.625,56.0625,42.03125
609,609,1727820307124,-1.0517578,-0.083984375,-0.12109375,21.96875,63.4375,51.375
610,610,1727820307164,-1.1767578,-0.12695312,-0.17089844,23.625,57.59375,53.9375
611,611,1727820307204,-1.1679688,-0.27246094,-0.1953125,51.03125,40.0625,54.28125
612,612,1727820307244,-0.92285156,-0.20410156,-0.21484375,59.75,26.8125,30.84375
613,613,1727820307284,-0.7890625,0.040039062,-0.036132812,-25.03125,40.9375,17.71875
614,614,1727820307324,-0.8876953,-0.18554688,-0.10449219,-2.6875,46.84375,18.59375
615,615,1727820307364,-0.7792969,0.03515625,-0.078125,-32.21875,60.9375,1.1875
616,616,1727820307404,-0.8251953,-0.06542969,-0.18359375,-41.9375,54.46875,20.78125
617,617,1727820307444,-1.0341797,-0.21972656,-0.13378906,-29.84375,42.15625,32.8125
618,618,1727820307484,-1.1953125,-0.15429688,-0.16699219,-41.0,29.5625,34.625
619,619,1727820307524,-1.3300781,-0.076171875,-0.17089844,-43.5,15.46875,25.78125
620,620,1727820307564,-1.6054688,-0.234375,-0.21386719,-29.34375,5.90625,20.46875
621,621,1727820307604,-1.5537109,-0.21386719,-0.17382812,19.78125,-35.375,7.0
622,622,1727820307644,-1.3378906,-0.029296875,0.12597656,41.5625,-86.15625,-23.28125
623,623,1727820307684,-1.5664062,-0.18457031,0.3173828,43.40625,-113.5,-49.53125
624,624,1727820307724,-1.1464844,0.17871094,-0.5673828,-119.5,-176.46875,-102.1875
625,625,1727820307764,-1.0751953,0.19726562,-0.27539062,-95.40625,-149.5625,-99.8125
626,626,1727820307804,-1.2363281,0.099609375,-0.19140625,-13.25,-112.75,-111.40625
627,627,1727820307844,-1.0947266,-0.26953125,0.26171875,69.34375,-197.0625,-85.28125
628,628,1727820307884,-0.83496094,-0.18945312,-0.17089844,25.6875,-143.34375,-76.75
629,629,1727820307924,-0.58984375,-0.08105469,-0.059570312,62.5,-143.28125,-57.40625
630,630,1727820307964,-0.3935547,0.06347656,0.001953125,49.5625,-102.1875,-50.03125
631,631,1727820308004,-0.13574219,-0.020507812,0.024414062,57.5,-48.1875,-16.5625
632,632,1727820308044,-0.13867188,-0.26953125,0.23828125,47.6875,8.28125,9.25
633,633,1727820308084,-0.44726562,-0.51464844,0.36914062,18.1875,69.4375,4.25
634,634,1727820308124,-0.72753906,-1.0927734,0.3720703,-36.96875,118.6875,7.21875
635,635,1727820308164,-2.0,-0.28710938,0.83496094,-90.03125,91.28125,56.71875
636,636,1727820308204,-0.9082031,-0.20800781,0.072265625,-34.125,87.9375,36.40625
637,637,1727820308244,-1.0615234,0.19726562,0.18652344,-120.28125,113.3125,44.46875
638,638,1727820308284,-1.1826172,-0.17578125,-0.08300781,-113.34375,93.65625,61.3125
639,639,1727820308324,-1.2275391,-0.4345703,-0.06738281,-75.4375,76.09375,54.0
640,640,1727820308364,-0.97265625,-0.16113281,-0.1328125,-27.6875,61.0,43.0625
641,641,1727820308404,-1.0263672,-0.27539062,-0.17675781,-12.75,62.78125,46.25
642,642,1727820308444,-0.9941406,-0.31152344,-0.2548828,-2.4375,63.625,36.96875
643,643,1727820308484,-0.9638672,-0.28710938,-0.23339844,19.65625,50.15625,33.1875
644,644,1727820308524,-0.9794922,-0.20117188,-0.17480469,-6.71875,42.875,5.03125
645,645,1727820308564,-0.8964844,-0.029296875,-0.10839844,-34.65625,24.75,2.0
646,646,1727820308604,-0.9238281,0.037109375,-0.061523438,-33.9375,39.15625,9.84375
647,647,1727820308644,-0.9003906,-0.13574219,-0.14941406,-26.25,42.75,21.15625
648,648,1727820308684,-0.92285156,-0.19238281,-0.140625,-32.40625,30.84375,22.0625
649,649,1727820308724,-0.97265625,-0.3076172,-0.26953125,-29.65625,26.71875,29.09375
650,650,1727820308764,-1.1210938,-0.20507812,-0.27246094,-21.46875,10.21875,37.625
651,651,1727820308804,-1.2607422,-0.04296875,-0.20996094,-35.625,15.15625,25.59375
652,652,1727820308844,-1.359375,-0.18359375,-0.3564453,-41.5,5.21875,16.03125
653,653,1727820308884,-1.6923828,-0.19140625,-0.2578125,0.125,-5.9375,7.90625
654,654,1727820308924,-1.4726562,-0.026367188,0.028320312,16.1875,-50.375,-13.875
655,655,1727820308964,-1.2333984,-0.19433594,0.32421875,24.40625,-114.21875,-52.46875
656,656,1727820309004,-1.3837891,-0.040039062,-0.1953125,-74.9375,-120.5625,-110.5625
657,657,1727820309044,-1.4140625,0.4091797,-0.03515625,-12.1875,-106.59375,-98.46875
658,658,1727820309084,-1.1269531,0.03125,-0.2421875,-21.84375,-142.3125,-93.96875
659,659,1727820309124,-1.171875,-0.21875,0.17382812,27.84375,-183.0,-96.59375
660,660,1727820309164,-0.828125,-0.030273438,0.10058594,-33.625,-135.03125,-73.875
661,661,1727820309204,-0.80859375,-0.3017578,-0.07324219,63.71875,-145.84375,-53.5625
662,662,1727820309244,-0.58496094,-0.09082031,0.13183594,76.84375,-142.78125,-41.71875
663,663,1727820309284,-0.35351562,0.045898438,0.06738281,67.8125,-107.5625,-30.84375
664,664,1727820309324,-0.23632812,-0.03515625,0.19726562,70.8125,-62.21875,8.46875
665,665,1727820309364,-0.27246094,-0.45703125,0.453125,55.375,5.34375,40.9375
666,666,1727820309404,-0.4140625,-0.42285156,0.29785156,-55.59375,33.125,30.375
667,667,1727820309444,-0.32910156,-0.0068359375,0.28808594,-10.125,76.3125,23.09375
668,668,1727820309484,-1.0107422,0.30078125,1.2871094,-87.03125,81.28125,41.09375
669,669,1727820309524,-1.7988281,-0.5175781,-0.31640625,-162.65625,149.8125,51.5
670,670,1727820309564,-0.95703125,-0.17675781,0.2939453,-138.375,67.84375,43.90625
671,671,1727820309604,-0.9277344,-0.18554688,0.19824219,-161.5625,132.28125,47.9375
672,672,1727820309644,-1.2480469,-0.21777344,-0.059570312,-79.09375,90.0625,45.4375
673,673,1727820309684,-1.2695312,-0.12890625,-0.0087890625,-98.375,82.5,30.5
674,674,1727820309724,-0.98046875,-0.0107421875,-0.16210938,-73.84375,53.1875,35.5625
675,675,1727820309764,-1.1132812,-0.22949219,-0.2685547,-83.125,59.78125,44.65625
676,676,1727820309804,-1.1318359,-0.49902344,-0.34277344,-33.0,52.78125,51.65625
677,677,1727820309844,-0.921875,-0.23730469,-0.28222656,-4.4375,32.125,36.03125
678,678,1727820309884,-0.9560547,-0.0009765625,-0.13085938,-69.09375,28.34375,9.75
679,679,1727820309924,-0.80566406,-0.23242188,-0.25097656,-69.28125,4.90625,8.6875
680,680,1727820309964,-0.8417969,-0.06738281,-0.1328125,-87.15625,35.75,-2.59375
681,681,1727820310004,-0.83691406,-0.3076172,-0.203125,-92.65625,43.375,15.28125
682,682,1727820310044,-0.95703125,-0.53515625,-0.12792969,-82.5,39.34375,25.0625
683,683,1727820310084,-1.1972656,-0.28125,-0.064453125,-52.53125,16.15625,28.71875
684,684,1727820310124,-1.296875,-0.045898438,-0.015625,-24.65625,1.0,26.28125
685,685,1727820310164,-1.4091797,-0.07421875,0.044921875,-20.0,12.90625,-0.40625
686,686,1727820310204,-1.5703125,-0.28222656,-0.14648438,-33.1875,-37.0625,-8.625
687,687,1727820310244,-1.1962891,-0.047851562,0.053710938,-13.3125,-87.75,-34.34375
688,688,1727820310284,-1.5673828,-0.109375,0.11816406,-38.75,-115.1875,-71.75
689,689,1727820310324,-1.1845703,-0.0859375,-0.56640625,-82.03125,-141.21875,-89.625
690,690,1727820310364,-1.3291016,0.04296875,-0.10644531,-43.03125,-135.28125,-89.5
691,691,1727820310404,-1.5390625,-0.29003906,0.609375,-61.46875,-177.59375,-118.625
692,692,1727820310444,-0.9189453,0.38867188,0.028320312,46.34375,-164.65625,-70.34375
693,693,1727820310484,-0.9638672,-0.3935547,-0.23925781,51.75,-98.125,-73.15625
694,694,1727820310524,-0.79785156,-0.095703125,0.044921875,84.40625,-119.78125,-60.34375
695,695,1727820310564,-0.36914062,-0.0107421875,0.05859375,42.65625,-94.625,-37.9375
696,696,1727820310604,-0.25585938,-0.103515625,0.04296875,57.5625,-52.03125,-2.90625
697,697,1727820310644,-0.203125,-0.025390625,0.16210938,50.46875,2.59375,21.03125
698,698,1727820310684,-0.484375,-0.47851562,0.21191406,-32.90625,45.75,16.21875
699,699,1727820310724,-0.53808594,-0.036132812,0.12792969,-60.78125,94.875,27.8125
700,700,1727820310764,-1.5761719,-0.35546875,0.85253906,-94.53125,111.59375,55.4375
701,701,1727820310804,-1.4658203,-0.43164062,0.3984375,-109.5625,97.25,56.3125
702,702,1727820310844,-0.78808594,0.032226562,0.10449219,-65.78125,68.9375,53.0
703,703,1727820310884,-1.1279297,-0.23242188,0.030273438,-78.46875,99.75,60.28125
704,704,1727820310924,-1.1689453,-0.421875,-0.07910156,-56.15625,76.6875,46.40625
705,705,1727820310964,-1.1181641,-0.27246094,-0.09375,-35.8125,65.09375,42.03125
706,706,1727820311004,-1.0253906,-0.31640625,-0.10546875,13.5,47.9375,48.5625
707,707,1727820311044,-1.0322266,-0.22753906,-0.20214844,38.65625,46.65625,50.1875
708,708,1727820311084,-1.0566406,-0.2265625,-0.21386719,56.34375,53.8125,39.65625
709,709,1727820311124,-1.0361328,-0.091796875,-0.12890625,17.40625,44.84375,18.84375
710,710,1727820311164,-0.94140625,0.072265625,-0.10253906,-11.84375,30.78125,12.25
711,711,1727820311204,-0.9267578,-0.07128906,-0.02734375,16.65625,31.84375,30.625
712,712,1727820311244,-0.9033203,-0.119140625,-0.16503906,-39.3125,40.875,2.03125
713,713,1727820311284,-0.93359375,-0.11230469,-0.16894531,-54.75,33.0625,12.53125
714,714,1727820311324,-0.91308594,-0.20117188,-0.24609375,-26.46875,23.71875,21.9375
715,715,1727820311364,-1.1337891,-0.02734375,-0.099609375,4.59375,24.4375,40.9375
716,716,1727820311404,-1.3388672,0.017578125,-0.15429688,-9.875,21.5625,36.21875
717,717,1727820311444,-1.5117188,-0.18066406,-0.13378906,-34.84375,14.25,13.9375
718,718,1727820311484,-1.2900391,-0.24511719,-0.017578125,8.75,-33.34375,10.28125
719,719,1727820311524,-1.2421875,0.04296875,0.21777344,33.03125,-101.84375,-21.875
720,720,1727820311564,-1.6367188,0.038085938,0.29296875,-2.1875,-114.40625,-77.59375
721,721,1727820311604,-0.91503906,0.29296875,-0.72753906,-221.1875,-170.3125,-138.46875
722,722,1727820311644,-1.2324219,0.20214844,0.1328125,-23.4375,-171.0,-77.25
723,723,1727820311684,-1.3925781,0.09375,-0.0009765625,2.4375,-151.6875,-83.65625
724,724,1727820311724,-1.0390625,-0.21191406,-0.080078125,45.34375,-170.75,-54.84375
725,725,1727820311764,-0.8925781,-0.25585938,0.01953125,44.1875,-156.9375,-43.71875
726,726,1727820311804,-0.61328125,0.06640625,0.052734375,42.625,-145.90625,-20.0
727,727,1727820311844,-0.32617188,-0.0029296875,0.015625,6.34375,-106.96875,-15.84375
728,728,1727820311884,-0.28710938,-0.0126953125,0.103515625,31.6875,-64.90625,6.3125
729,729,1727820311924,-0.18554688,-0.10644531,0.13671875,55.3125,-28.21875,36.90625
730,730,1727820311964,-0.40820312,-0.34472656,0.5498047,-33.9375,13.21875,22.125
731,731,1727820312004,-0.77734375,-0.43164062,0.7939453,-87.15625,46.0625,-2.34375
732,732,1727820312044,-0.89746094,-0.7861328,0.98046875,-17.75,71.03125,-14.6875
733,733,1727820312084,-1.1015625,-0.37890625,0.5439453,-58.15625,83.65625,38.0
734,734,1727820312124,-0.6816406,0.4423828,0.02734375,-71.84375,67.0,62.96875
735,735,1727820312164,-1.1455078,-0.15527344,0.0087890625,-91.71875,134.75,35.1875
736,736,1727820312204,-1.0644531,-0.14160156,0.2841797,-131.09375,125.875,31.71875
737,737,1727820312244,-0.91015625,-0.16308594,0.0546875,-119.0625,126.8125,37.75
738,738,1727820312284,-1.0947266,-0.18554688,-0.07714844,-86.53125,115.5,30.3125
739,739,1727820312324,-1.0810547,0.2919922,-0.107421875,-64.03125,-137.0625,-71.6875
740,740,1727820312364,-1.5214844,-1.3505859,0.061523438,-20.8125,-145.71875,-82.25
741,741,1727820312404,-0.94628906,0.44921875,-0.01171875,63.84375,-174.21875,-94.8125
742,742,1727820312444,-0.95410156,-0.3076172,-0.0234375,106.03125,-142.25,-79.9375
743,743,1727820312484,-0.5800781,0.0390625,0.032226562,120.5625,-138.46875,-49.09375
744,744,1727820312524,-0.2265625,0.022460938,-0.061523438,62.8125,-92.625,-16.03125
745,745,1727820312564,-0.20703125,-0.0390625,0.0859375,58.84375,-47.5,8.625
746,746,1727820312604,-0.1640625,-0.09667969,0.27734375,42.5625,1.5625,22.25
747,747,1727820312644,-0.45117188,-0.5029297,0.04296875,5.5625,43.71875,9.0625
748,748,1727820312684,-0.7783203,0.17382812,0.5761719,-106.8125,120.21875,42.8125
749,749,1727820312724,-1.1660156,-0.17871094,0.3779297,-82.6875,133.6875,27.0625
750,750,1727820312764,-1.8369141,-0.16894531,0.9033203,-169.0625,139.8125,44.03125
751,751,1727820312804,-1.2470703,-0.3642578,0.16601562,-84.59375,90.90625,44.03125
752,752,1727820312844,-0.8808594,-0.19238281,0.13183594,-60.53125,70.03125,60.6875
753,753,1727820312884,-0.9667969,-0.024414062,0.068359375,-53.15625,64.78125,61.3125
754,754,1727820312924,-1.1279297,-0.16992188,-0.07324219,-64.25,59.90625,64.0625
755,755,1727820312964,-1.1230469,-0.453125,-0.15917969,-44.65625,43.90625,61.125
756,756,1727820313004,-1.0878906,-0.47558594,-0.20117188,10.3125,39.65625,48.375
757,757,1727820313044,-0.95996094,-0.24804688,-0.24804688,18.75,43.0,30.5
758,758,1727820313084,-0.9814453,0.032226562,-0.078125,12.65625,42.09375,22.6875
759,759,1727820313124,-1.0136719,-0.0078125,-0.10253906,-51.625,35.0625,10.59375
