,Unnamed: 0,timestamp,accel_x,accel_y,accel_z,gyro_x,gyro_y,gyro_z
0,0,1727276777646,-1.3408203,0.0009765625,0.31835938,-13.53125,93.4375,47.71875
1,1,1727276777686,-0.8964844,-0.02734375,0.22265625,-33.8125,86.0625,39.34375
2,2,1727276777726,-0.7685547,-0.080078125,0.09277344,-5.84375,76.90625,46.6875
3,3,1727276777766,-0.8183594,0.03515625,0.13378906,37.78125,53.03125,27.625
4,4,1727276777806,-0.8574219,0.033203125,0.21484375,22.15625,36.90625,5.0
5,5,1727276777846,-0.80371094,0.08300781,0.19140625,3.4375,36.78125,3.28125
6,6,1727276777886,-0.8564453,-0.07128906,0.16699219,2.9375,23.0,4.75
7,7,1727276777926,-1.046875,-0.140625,0.14550781,11.3125,24.9375,5.34375
8,8,1727276777966,-1.2314453,0.017578125,0.15527344,37.125,25.625,7.90625
9,9,1727276778006,-1.6083984,0.27539062,0.25097656,23.875,22.375,25.0625
10,10,1727276778046,-1.7041016,0.37695312,0.10546875,-17.125,-24.3125,17.4375
11,11,1727276778086,-1.1308594,0.41992188,0.24414062,10.5625,-64.46875,-9.59375
12,12,1727276778126,-1.3398438,0.41601562,0.4375,-35.875,-77.59375,-28.21875
13,13,1727276778166,-1.0947266,-0.06933594,0.31835938,-51.875,-116.65625,-77.28125
14,14,1727276778206,-1.1738281,-0.046875,0.060546875,-120.34375,-55.75,-141.25
15,15,1727276778246,-0.73046875,0.45507812,0.015625,77.09375,-87.90625,-79.5
16,16,1727276778286,-0.7792969,0.08496094,0.115234375,110.71875,-155.15625,-25.59375
17,17,1727276778326,-0.7988281,0.026367188,0.23242188,32.96875,-140.8125,-32.0625
18,18,1727276778366,-0.4033203,0.06933594,0.29003906,51.71875,-114.75,-40.65625
19,19,1727276778406,-0.5341797,0.0078125,0.3388672,42.3125,-77.59375,-29.0625
20,20,1727276778446,-0.33984375,0.038085938,0.4951172,18.75,-58.59375,-23.6875
21,21,1727276778486,-0.36523438,-0.14257812,0.7167969,8.25,12.25,-11.96875
22,22,1727276778526,-0.5839844,-0.29003906,0.69628906,-20.6875,75.125,4.375
23,23,1727276778566,-0.9628906,-0.3466797,0.89453125,-61.28125,73.90625,37.59375
24,24,1727276778606,-1.9921875,-0.07421875,1.0029297,-53.40625,95.9375,40.375
25,25,1727276778646,-0.74609375,0.06542969,0.41601562,-30.25,94.90625,28.78125
26,26,1727276778686,-0.4091797,-0.05078125,0.30078125,-34.71875,97.59375,70.71875
27,27,1727276778726,-0.9189453,0.12597656,0.27246094,-50.78125,77.125,61.375
28,28,1727276778766,-1.2255859,0.05078125,0.15136719,-4.4375,70.25,49.3125
29,29,1727276778806,-0.9404297,-0.14453125,0.20703125,6.1875,66.9375,52.34375
30,30,1727276778846,-0.8779297,0.12890625,0.15527344,5.125,86.15625,44.40625
31,31,1727276778886,-0.8466797,0.09863281,0.03515625,15.28125,67.0,34.21875
32,32,1727276778926,-0.6855469,0.12597656,0.17773438,13.9375,36.4375,12.6875
33,33,1727276778966,-0.7001953,0.16601562,0.17089844,-28.0625,43.5625,-1.84375
34,34,1727276779006,-0.7441406,0.015625,0.09472656,-27.09375,19.40625,-4.84375
35,35,1727276779046,-0.7949219,-0.20019531,0.08496094,-15.3125,-6.25,-8.125
36,36,1727276779086,-0.94628906,-0.07714844,0.21777344,7.28125,-3.4375,-5.9375
37,37,1727276779126,-1.1650391,0.032226562,0.091796875,32.90625,10.59375,11.75
38,38,1727276779166,-1.3339844,0.21484375,0.18457031,24.625,21.59375,31.90625
39,39,1727276779206,-1.4111328,0.31640625,0.19921875,3.84375,45.15625,43.625
40,40,1727276779246,-1.6298828,0.026367188,0.296875,1.46875,50.40625,20.96875
41,41,1727276779286,-1.4853516,0.08886719,0.2421875,2.03125,25.4375,28.84375
42,42,1727276779326,-0.9707031,0.14648438,0.3544922,-21.46875,-34.75,17.0625
43,43,1727276779366,-1.0283203,-0.0078125,0.045898438,-37.46875,-65.9375,-43.90625
44,44,1727276779406,-1.0800781,0.03125,0.21972656,-31.46875,-80.15625,-82.71875
45,45,1727276779446,-1.3720703,0.4375,0.19628906,-21.90625,-97.78125,-81.875
46,46,1727276779486,-0.6933594,0.5234375,-0.017578125,55.1875,-88.40625,-31.5
47,47,1727276779526,-1.0205078,0.36914062,0.34960938,-32.8125,-103.96875,14.4375
48,48,1727276779566,-0.57128906,0.30859375,0.10644531,-73.65625,-81.875,1.125
49,49,1727276779606,-0.453125,0.1328125,0.15332031,-63.71875,-59.09375,9.6875
50,50,1727276779646,-0.5019531,-0.060546875,0.14257812,-50.53125,-33.53125,3.9375
51,51,1727276779686,-0.24316406,-0.047851562,0.16992188,-43.4375,11.78125,3.46875
52,52,1727276779726,-0.19921875,-0.055664062,0.25585938,-32.21875,54.84375,32.21875
53,53,1727276779766,-0.5341797,-0.11621094,0.32910156,0.875,91.34375,62.84375
54,54,1727276779806,-1.9921875,-0.23144531,0.9042969,-11.21875,61.21875,14.6875
55,55,1727276779846,-1.171875,-0.2939453,0.8417969,-22.09375,-24.5,-34.25
56,56,1727276779886,-0.91503906,-0.111328125,0.5136719,18.5,-49.5,7.375
57,57,1727276779926,-1.0429688,0.09863281,0.57714844,-0.90625,20.75,6.34375
58,58,1727276779966,-1.6142578,0.8144531,0.39746094,-80.25,58.03125,0.71875
59,59,1727276780006,-0.6123047,0.52734375,0.036132812,-88.375,20.6875,20.71875
60,60,1727276780046,-0.8417969,0.2705078,-0.109375,-117.1875,75.4375,41.78125
61,61,1727276780086,-0.9765625,0.23144531,0.060546875,-83.65625,87.6875,45.09375
62,62,1727276780126,-1.0048828,0.018554688,0.029296875,-67.3125,90.0,32.03125
63,63,1727276780166,-0.9296875,0.068359375,-0.060546875,-46.625,71.21875,30.125
64,64,1727276780206,-0.96875,0.20703125,-0.001953125,-49.4375,70.96875,23.0
65,65,1727276780246,-0.96484375,0.15820312,-0.053710938,-57.375,52.21875,24.46875
66,66,1727276780286,-1.0,0.09667969,0.095703125,-65.78125,34.90625,31.78125
67,67,1727276780326,-0.9345703,0.08496094,0.09082031,-59.6875,35.09375,36.0
68,68,1727276780366,-0.89941406,0.087890625,0.049804688,-41.0625,34.28125,45.4375
69,69,1727276780406,-0.99316406,0.025390625,0.0625,-49.0,23.90625,47.40625
70,70,1727276780446,-1.0283203,-0.041015625,-0.01953125,-35.75,7.6875,35.5625
71,71,1727276780486,-1.1953125,0.009765625,-0.001953125,-29.65625,-2.40625,11.625
72,72,1727276780526,-1.3242188,0.23632812,0.15429688,-32.59375,-19.40625,-24.4375
73,73,1727276780566,-1.3242188,0.2626953,0.109375,-31.46875,-73.5625,-56.40625
74,74,1727276780606,-1.3007812,0.42871094,0.24414062,-29.46875,-152.96875,-67.9375
75,75,1727276780646,-1.5927734,0.8642578,0.16699219,-95.3125,-194.53125,-68.5625
76,76,1727276780686,-0.9296875,0.39648438,0.18359375,-112.53125,-160.34375,-36.6875
77,77,1727276780726,-1.0429688,-0.047851562,0.29101562,-64.6875,-141.75,-33.40625
78,78,1727276780766,-0.96191406,-0.14257812,0.23144531,-6.53125,-116.84375,-51.15625
79,79,1727276780806,-0.5654297,0.06933594,0.4482422,64.40625,-138.4375,-75.09375
80,80,1727276780846,-0.3779297,0.16015625,0.52734375,65.0,-108.28125,-35.3125
81,81,1727276780886,-0.4873047,0.13964844,0.33007812,15.5625,-50.375,-8.375
82,82,1727276780926,-0.359375,0.16308594,0.4873047,19.71875,-7.8125,-2.03125
83,83,1727276780966,-0.37597656,0.043945312,0.7607422,18.25,18.65625,4.25
84,84,1727276781006,-0.625,-0.049804688,0.76171875,-45.9375,50.65625,16.75
85,85,1727276781046,-0.7861328,-0.15136719,0.8496094,-38.625,68.15625,6.15625
86,86,1727276781086,-0.8876953,-0.009765625,0.97753906,-57.375,68.65625,17.5
87,87,1727276781126,-1.1875,0.14941406,0.60839844,-47.40625,132.875,40.625
88,88,1727276781166,-1.2480469,0.31835938,0.24023438,-78.59375,149.875,43.8125
89,89,1727276781206,-0.9511719,0.171875,0.21875,-55.34375,113.8125,44.15625
90,90,1727276781246,-0.9824219,0.26953125,0.3076172,-55.59375,60.96875,68.875
91,91,1727276781286,-0.96777344,0.09667969,0.28515625,-42.21875,29.59375,81.59375
92,92,1727276781326,-1.1435547,-0.115234375,0.171875,-58.40625,64.5,65.03125
93,93,1727276781366,-0.91796875,-0.140625,0.08984375,-32.59375,97.21875,23.46875
94,94,1727276781406,-0.91015625,0.0126953125,0.14257812,11.25,68.15625,16.03125
95,95,1727276781446,-0.89746094,0.29101562,0.23339844,26.75,34.65625,13.03125
96,96,1727276781486,-0.80859375,0.28710938,0.18554688,-5.78125,23.1875,14.5
97,97,1727276781526,-0.84472656,-0.001953125,0.053710938,-42.34375,23.78125,17.6875
98,98,1727276781566,-1.0058594,-0.16894531,0.1328125,-31.1875,25.1875,12.375
99,99,1727276781606,-0.94921875,-0.22070312,0.23828125,-9.6875,27.09375,17.0
100,100,1727276781646,-1.2841797,0.00390625,0.32714844,-7.0,38.25,17.5625
101,101,1727276781686,-1.6767578,0.51171875,0.203125,-31.0,4.4375,10.53125
102,102,1727276781726,-1.1953125,0.56347656,0.13671875,-14.5625,-30.71875,-1.71875
103,103,1727276781766,-1.3710938,0.421875,0.34960938,-71.8125,-72.40625,-15.09375
104,104,1727276781806,-1.2441406,0.0107421875,0.1796875,-51.5625,-93.15625,-44.875
105,105,1727276781846,-1.4560547,-0.13769531,0.1875,-59.1875,-106.15625,-110.5625
106,106,1727276781886,-0.78125,0.30566406,0.045898438,36.875,-112.0625,-90.78125
107,107,1727276781926,-0.67871094,0.16210938,0.15917969,107.0,-161.15625,-32.375
108,108,1727276781966,-0.7128906,0.080078125,0.203125,65.875,-170.59375,-28.09375
109,109,1727276782006,-0.5136719,0.12988281,0.3125,62.875,-123.59375,-48.59375
110,110,1727276782046,-0.3564453,0.12011719,0.38378906,72.40625,-87.34375,-43.59375
111,111,1727276782086,-0.35839844,0.125,0.48828125,42.6875,-42.96875,-10.34375
112,112,1727276782126,-0.3798828,0.00390625,0.66015625,3.3125,26.71875,9.625
113,113,1727276782166,-0.5058594,-0.018554688,0.9404297,-24.53125,79.21875,30.3125
114,114,1727276782206,-0.671875,-0.14746094,0.5361328,-105.40625,100.8125,46.25
115,115,1727276782246,-1.9921875,0.3359375,0.8964844,-83.78125,129.25,38.4375
116,116,1727276782286,-0.1875,0.12890625,0.20703125,-8.46875,68.84375,14.03125
117,117,1727276782326,-0.38378906,-0.022460938,0.19726562,-51.0625,71.875,58.6875
118,118,1727276782366,-1.3486328,0.29589844,0.2607422,-47.21875,73.34375,52.34375
119,119,1727276782406,-1.1875,0.053710938,0.37304688,-0.90625,81.03125,39.40625
120,120,1727276782446,-0.8847656,0.024414062,0.20800781,-12.5,76.71875,26.96875
121,121,1727276782486,-0.6845703,0.19921875,0.053710938,23.28125,78.0,28.53125
122,122,1727276782526,-0.8486328,0.171875,0.15039062,53.96875,54.5625,25.625
123,123,1727276782566,-0.8886719,0.115234375,0.16308594,16.90625,53.5625,12.375
124,124,1727276782606,-0.8339844,0.10449219,0.22753906,0.8125,43.3125,15.78125
125,125,1727276782646,-1.015625,-0.21386719,0.140625,-23.90625,36.0,21.90625
126,126,1727276782686,-1.1738281,-0.25683594,0.109375,8.3125,34.46875,16.40625
127,127,1727276782726,-1.3701172,0.08496094,0.28222656,40.0625,35.6875,18.40625
128,128,1727276782766,-1.7207031,0.36523438,0.16894531,6.84375,-0.5,23.96875
129,129,1727276782806,-1.1884766,0.44921875,0.23144531,18.03125,-50.96875,-7.71875
130,130,1727276782846,-1.2011719,0.484375,0.32617188,-17.6875,-84.375,-34.3125
131,131,1727276782886,-1.1386719,0.024414062,0.28125,-55.65625,-95.40625,-73.03125
132,132,1727276782926,-1.3798828,-0.061523438,0.11621094,-121.75,-77.03125,-140.71875
133,133,1727276782966,-0.94921875,0.3935547,0.16015625,5.09375,-70.1875,-108.25
134,134,1727276783006,-0.6074219,0.21582031,0.111328125,106.8125,-141.5,-34.125
135,135,1727276783046,-0.7373047,0.07421875,0.25585938,51.21875,-164.1875,-43.53125
136,136,1727276783086,-0.31152344,0.18945312,0.26171875,64.46875,-145.59375,-38.40625
137,137,1727276783126,-0.4296875,0.0009765625,0.39746094,64.53125,-91.125,-22.34375
138,138,1727276783166,-0.3935547,-0.0009765625,0.46191406,59.40625,-26.875,3.21875
139,139,1727276783206,-0.36816406,-0.0009765625,0.79003906,27.65625,28.6875,28.3125
140,140,1727276783246,-0.6777344,0.083984375,0.8154297,-44.0625,65.34375,42.40625
141,141,1727276783286,-1.9921875,-0.040039062,0.65625,-50.59375,131.15625,39.03125
142,142,1727276783326,-0.65722656,0.26953125,0.42285156,6.96875,114.3125,-20.59375
143,143,1727276783366,-0.27441406,0.14453125,0.3095703,-42.03125,98.4375,46.78125
144,144,1727276783406,-1.0419922,0.17675781,0.095703125,-79.28125,97.65625,57.59375
145,145,1727276783446,-1.2421875,0.05859375,0.22070312,-15.6875,74.15625,47.15625
146,146,1727276783486,-0.8652344,-0.07714844,0.29785156,-23.53125,64.3125,37.46875
147,147,1727276783526,-0.78027344,0.043945312,0.034179688,-2.3125,77.875,37.15625
148,148,1727276783566,-0.8251953,0.08886719,0.08886719,43.15625,59.8125,28.1875
149,149,1727276783606,-0.8222656,0.056640625,0.07519531,20.875,57.71875,7.84375
150,150,1727276783646,-0.8984375,0.14453125,0.23242188,-7.125,52.90625,2.78125
151,151,1727276783686,-0.89453125,0.0146484375,0.048828125,-11.34375,23.25,8.40625
152,152,1727276783726,-1.0117188,-0.047851562,0.07324219,-14.40625,24.65625,7.3125
153,153,1727276783766,-1.2382812,-0.029296875,0.29003906,3.5625,31.1875,10.65625
154,154,1727276783806,-1.4853516,0.10058594,0.3232422,6.90625,26.40625,23.0
155,155,1727276783846,-1.5166016,0.19042969,0.0703125,5.6875,-4.78125,23.1875
156,156,1727276783886,-1.2011719,0.4404297,0.14746094,29.4375,-27.84375,-5.5
157,157,1727276783926,-1.2578125,0.2685547,0.46289062,-1.5625,-71.78125,-34.9375
158,158,1727276783966,-1.1660156,-0.072265625,0.15234375,6.46875,-110.65625,-70.21875
159,159,1727276784006,-1.3857422,-0.016601562,0.17578125,-27.28125,-122.09375,-116.96875
160,160,1727276784046,-0.9511719,0.48535156,0.07128906,-9.9375,-91.5,-104.875
161,161,1727276784086,-0.61035156,0.34375,0.07714844,79.96875,-116.84375,-48.96875
162,162,1727276784126,-0.7451172,0.16503906,0.24707031,20.875,-153.21875,-25.46875
163,163,1727276784166,-0.4814453,0.036132812,0.2861328,41.9375,-132.03125,-44.875
164,164,1727276784206,-0.4140625,-0.026367188,0.3779297,66.90625,-101.21875,-35.0
165,165,1727276784246,-0.40820312,0.0546875,0.4111328,50.1875,-50.0625,-8.3125
166,166,1727276784286,-0.33984375,0.07421875,0.55859375,18.375,4.8125,26.46875
167,167,1727276784326,-0.4736328,0.08984375,0.6689453,-32.6875,69.09375,47.78125
168,168,1727276784366,-1.671875,0.2919922,1.7470703,-94.53125,-9.96875,59.0
169,169,1727276784406,-1.1279297,-0.01171875,0.57128906,-29.84375,67.0625,47.78125
170,170,1727276784446,-0.75,0.13769531,0.40722656,-28.90625,78.84375,90.6875
171,171,1727276784486,-0.671875,-0.0126953125,0.25683594,-56.375,112.65625,61.03125
172,172,1727276784526,-1.0273438,0.12597656,0.3154297,-72.875,108.625,36.125
173,173,1727276784566,-1.0732422,-0.13769531,0.32226562,-43.8125,71.21875,23.28125
174,174,1727276784606,-1.0371094,-0.125,0.3232422,-56.6875,79.8125,36.28125
175,175,1727276784646,-0.9326172,-0.06542969,0.16992188,-19.34375,76.96875,28.78125
176,176,1727276784686,-0.7421875,0.07128906,0.080078125,56.28125,50.53125,23.25
177,177,1727276784726,-0.84765625,0.0859375,0.001953125,74.46875,44.1875,15.96875
178,178,1727276784766,-0.85253906,0.2578125,0.20507812,23.6875,47.71875,0.09375
179,179,1727276784806,-0.7890625,0.15039062,0.13085938,-1.15625,47.09375,1.8125
180,180,1727276784846,-0.84472656,-0.03515625,0.025390625,-2.0,31.78125,6.6875
181,181,1727276784886,-1.1240234,-0.041015625,0.22949219,28.875,31.1875,9.875
182,182,1727276784926,-1.2011719,0.125,0.26171875,24.625,34.96875,18.84375
183,183,1727276784966,-1.4443359,0.09472656,0.21386719,18.6875,41.0625,36.46875
184,184,1727276785006,-1.5292969,0.21777344,0.0859375,29.1875,16.40625,24.34375
185,185,1727276785046,-1.2626953,0.37597656,0.11328125,47.8125,-7.8125,-1.65625
186,186,1727276785086,-1.3251953,0.19042969,0.28710938,23.9375,-61.34375,-22.1875
187,187,1727276785126,-1.0576172,-0.076171875,0.12988281,7.875,-136.65625,-59.40625
188,188,1727276785166,-1.3476562,0.18945312,0.25097656,-59.4375,-122.8125,-111.78125
189,189,1727276785206,-1.1181641,0.734375,0.111328125,-67.0625,-103.59375,-114.34375
190,190,1727276785246,-0.5439453,0.39746094,-0.034179688,72.34375,-147.59375,-25.09375
191,191,1727276785286,-1.1982422,-0.1015625,0.32910156,-7.3125,-204.65625,5.15625
192,192,1727276785326,-0.57421875,0.03515625,0.25390625,26.5,-151.4375,-46.90625
193,193,1727276785366,-0.54589844,-0.0009765625,0.2890625,75.09375,-155.28125,-27.375
194,194,1727276785406,-0.3359375,0.13378906,0.32910156,48.34375,-111.71875,-7.34375
195,195,1727276785446,-0.123046875,0.1328125,0.3876953,39.0625,-53.78125,25.90625
196,196,1727276785486,-0.23339844,0.0126953125,0.6894531,26.9375,24.71875,33.3125
197,197,1727276785526,-0.40234375,-0.10839844,1.0654297,-28.75,51.0625,18.0
198,198,1727276785566,-0.7373047,-0.33007812,1.2255859,-12.875,47.90625,11.46875
199,199,1727276785606,-0.8466797,0.015625,0.828125,-1.09375,41.5,31.09375
200,200,1727276785646,-1.0380859,0.41210938,0.3564453,11.4375,61.9375,52.15625
201,201,1727276785686,-0.3076172,0.20898438,0.45410156,-34.96875,87.6875,50.53125
202,202,1727276785726,-0.625,0.48632812,0.33203125,-107.78125,117.46875,38.90625
203,203,1727276785766,-1.1357422,0.390625,0.3623047,-141.03125,128.21875,32.21875
204,204,1727276785806,-0.96484375,-0.07519531,0.32617188,-144.15625,133.21875,36.46875
205,205,1727276785846,-1.0146484,-0.123046875,0.2705078,-122.125,118.59375,40.5
206,206,1727276785886,-0.8339844,0.03515625,0.1484375,-63.78125,113.34375,30.5625
207,207,1727276785926,-0.84375,0.0,0.07128906,-32.34375,93.75,46.3125
208,208,1727276785966,-0.8798828,0.09082031,0.076171875,-28.25,114.4375,37.8125
209,209,1727276786006,-0.8544922,0.20800781,0.16308594,-38.0,90.125,41.59375
210,210,1727276786046,-0.83496094,0.19824219,0.022460938,-39.15625,70.53125,37.53125
211,211,1727276786086,-0.86035156,0.08984375,-0.021484375,-57.65625,62.84375,28.4375
212,212,1727276786126,-1.0087891,0.09667969,-0.005859375,-55.59375,52.65625,32.4375
213,213,1727276786166,-0.9824219,0.1640625,-0.04296875,-48.9375,46.6875,42.03125
214,214,1727276786206,-0.9326172,0.12109375,0.016601562,-37.46875,43.9375,52.03125
215,215,1727276786246,-1.0166016,0.038085938,0.0087890625,-14.34375,18.53125,50.34375
216,216,1727276786286,-1.0947266,0.09472656,0.061523438,-23.96875,24.78125,25.6875
217,217,1727276786326,-1.1396484,0.13085938,0.16894531,-54.125,22.5625,4.125
218,218,1727276786366,-1.3232422,0.35742188,0.24609375,-57.125,-4.96875,-7.59375
219,219,1727276786406,-1.25,0.25878906,-0.038085938,-39.15625,-61.96875,-54.65625
220,220,1727276786446,-1.0371094,0.2421875,0.052734375,5.75,-121.96875,-94.5625
221,221,1727276786486,-1.9921875,0.91015625,0.072265625,-58.28125,-138.75,-118.65625
222,222,1727276786526,-1.1572266,0.6171875,0.06640625,-156.96875,-113.84375,-89.375
223,223,1727276786566,-1.0683594,0.15625,0.13183594,-131.9375,-70.5,-92.0
224,224,1727276786606,-1.1328125,-0.11230469,0.1640625,-68.34375,-97.375,-71.1875
225,225,1727276786646,-0.68359375,-0.19628906,0.15917969,83.375,-193.5625,-74.0625
226,226,1727276786686,-0.31640625,-0.046875,0.2998047,122.09375,-182.8125,-46.15625
227,227,1727276786726,-0.27148438,-0.0048828125,0.26757812,54.8125,-100.0625,-6.1875
228,228,1727276786766,-0.328125,0.068359375,0.4033203,14.84375,-43.15625,14.375
229,229,1727276786806,-0.4970703,0.00390625,0.6923828,43.15625,-28.34375,12.75
230,230,1727276786846,-0.5341797,-0.125,0.66308594,-10.84375,4.4375,7.96875
231,231,1727276786886,-0.65527344,-0.22265625,0.78515625,-20.125,30.4375,0.46875
232,232,1727276786926,-0.78222656,-0.15527344,1.0976562,-31.40625,23.1875,8.40625
233,233,1727276786966,-0.61621094,0.49023438,0.6777344,-43.25,81.96875,46.4375
234,234,1727276787006,-1.9921875,0.56347656,0.60546875,-75.65625,96.96875,37.875
235,235,1727276787046,-0.63183594,0.21484375,0.2783203,-90.0,113.75,32.5
236,236,1727276787086,-0.89746094,0.23242188,0.12890625,-111.6875,108.5625,77.96875
237,237,1727276787126,-1.3740234,0.15136719,0.22167969,-85.0,78.46875,74.5
238,238,1727276787166,-0.92871094,0.06347656,0.19433594,-60.96875,81.40625,64.96875
239,239,1727276787206,-0.8378906,-0.123046875,-0.01171875,-71.46875,104.84375,55.65625
240,240,1727276787246,-0.9296875,-0.055664062,-0.0107421875,-32.75,90.1875,47.15625
241,241,1727276787286,-0.9042969,-0.016601562,0.09667969,-1.8125,47.0,37.625
242,242,1727276787326,-0.78222656,0.017578125,0.16796875,-11.71875,38.5,23.78125
243,243,1727276787366,-0.8564453,0.040039062,0.09375,-52.65625,38.625,35.1875
244,244,1727276787406,-1.1347656,-0.025390625,0.091796875,-41.5,33.5,42.28125
245,245,1727276787446,-1.2001953,-0.05859375,0.0234375,-23.78125,20.3125,28.90625
246,246,1727276787486,-1.1875,0.032226562,0.07910156,-28.1875,28.90625,28.0
247,247,1727276787526,-1.5712891,0.15332031,0.20605469,-38.5625,28.90625,30.6875
248,248,1727276787566,-1.7041016,0.29492188,0.15429688,-29.53125,1.34375,26.03125
249,249,1727276787606,-1.1816406,0.4609375,0.24316406,-41.90625,-50.84375,2.84375
250,250,1727276787646,-1.1445312,0.328125,0.4404297,-54.625,-94.625,-19.0625
251,251,1727276787686,-0.9716797,0.056640625,0.30664062,-64.75,-85.71875,-67.09375
252,252,1727276787726,-1.0537109,0.17285156,0.11425781,-83.125,-77.34375,-116.09375
253,253,1727276787766,-0.64160156,0.4765625,0.107421875,-3.21875,-81.875,-84.375
254,254,1727276787806,-0.5605469,0.14355469,0.12792969,60.0625,-125.125,-12.15625
255,255,1727276787846,-0.8769531,-0.09082031,0.30078125,12.90625,-110.125,-48.125
256,256,1727276787886,-0.47753906,0.111328125,0.3125,53.78125,-110.78125,-60.625
257,257,1727276787926,-0.50683594,0.040039062,0.328125,79.125,-89.625,-30.59375
258,258,1727276787966,-0.44726562,0.064453125,0.4736328,41.625,-47.9375,-2.28125
259,259,1727276788006,-0.48046875,0.060546875,0.7207031,-2.96875,28.4375,17.1875
260,260,1727276788046,-0.60546875,0.01171875,0.91503906,-47.03125,47.84375,37.875
261,261,1727276788086,-0.71875,0.123046875,0.4169922,-63.09375,84.15625,72.25
262,262,1727276788126,-1.9921875,0.35351562,0.48535156,-76.03125,144.46875,62.46875
263,263,1727276788166,-0.3857422,0.12695312,0.21386719,-8.96875,74.21875,46.125
264,264,1727276788206,-0.73339844,0.171875,0.16796875,-75.0,74.6875,81.65625
265,265,1727276788246,-1.421875,0.07421875,0.15039062,-62.3125,95.8125,64.0
266,266,1727276788286,-1.2441406,-0.12109375,0.29589844,-25.9375,104.3125,63.40625
267,267,1727276788326,-0.7998047,0.0859375,0.013671875,-35.8125,83.90625,29.03125
268,268,1727276788366,-0.7861328,0.17089844,0.037109375,0.1875,54.90625,40.1875
269,269,1727276788406,-0.7939453,0.15332031,0.09082031,6.40625,31.96875,17.0625
270,270,1727276788446,-0.74121094,0.17578125,0.119140625,-25.9375,37.34375,-6.78125
271,271,1727276788486,-0.73535156,0.018554688,0.09277344,-33.6875,20.0,-2.78125
272,272,1727276788526,-0.85253906,-0.09375,-0.01171875,-17.125,10.78125,8.40625
273,273,1727276788566,-1.0009766,0.029296875,0.029296875,19.59375,6.15625,13.90625
274,274,1727276788606,-1.0976562,0.07324219,0.17675781,16.6875,10.4375,10.34375
275,275,1727276788646,-1.2460938,-0.0029296875,0.3408203,7.59375,22.75,9.25
276,276,1727276788686,-1.4941406,0.107421875,0.2841797,16.25,23.25,15.4375
277,277,1727276788726,-1.5166016,0.29492188,0.22949219,1.28125,17.8125,20.5
278,278,1727276788766,-1.2451172,0.18261719,0.111328125,17.28125,3.84375,33.6875
279,279,1727276788806,-1.0732422,0.14257812,0.2861328,0.3125,4.875,32.875
280,280,1727276788846,-1.2626953,0.061523438,0.03125,-3.59375,9.6875,2.78125
281,281,1727276788886,-0.9404297,0.2109375,0.0048828125,87.78125,-57.9375,-39.4375
282,282,1727276788926,-0.9296875,0.44140625,0.025390625,64.96875,-82.15625,-62.28125
283,283,1727276788966,-0.85839844,0.6123047,-0.020507812,20.09375,-71.65625,-57.9375
284,284,1727276789006,-0.7392578,0.6425781,0.001953125,0.0,-96.375,-35.65625
285,285,1727276789046,-0.84472656,0.36328125,0.015625,-53.5625,-123.5625,-13.75
286,286,1727276789086,-0.96875,0.14160156,0.18457031,-90.125,-91.4375,-10.6875
287,287,1727276789126,-0.7246094,0.08691406,0.29589844,-65.0625,-85.46875,-16.8125
288,288,1727276789166,-0.69433594,0.060546875,0.2578125,-42.21875,-67.5625,0.84375
289,289,1727276789206,-0.5048828,-0.0078125,0.24316406,-19.625,-30.28125,-6.3125
290,290,1727276789246,-0.4169922,-0.033203125,0.29882812,1.65625,6.75,14.625
291,291,1727276789286,-0.43652344,-0.05078125,0.45507812,13.5625,49.96875,45.40625
292,292,1727276789326,-1.0136719,-0.083984375,0.796875,-4.875,70.71875,47.15625
293,293,1727276789366,-1.3291016,0.060546875,0.83496094,-32.65625,18.40625,0.09375
294,294,1727276789406,-0.6904297,-0.22949219,0.40429688,5.5,-23.75,-12.15625
295,295,1727276789446,-1.7226562,0.59765625,0.36132812,-20.0625,86.21875,-9.0625
296,296,1727276789486,-0.9042969,0.66308594,0.4326172,-45.09375,20.9375,1.6875
297,297,1727276789526,-0.6904297,0.2548828,-0.0859375,-88.4375,46.5,36.28125
298,298,1727276789566,-0.9560547,0.1484375,-0.115234375,-78.1875,87.375,43.5
299,299,1727276789606,-1.0898438,0.119140625,-0.032226562,-24.46875,91.1875,29.03125
300,300,1727276789646,-0.94628906,0.14257812,0.12695312,-50.59375,88.0625,11.28125
301,301,1727276789686,-0.8457031,0.33691406,0.11035156,-45.53125,61.34375,29.875
302,302,1727276789726,-0.89746094,0.16601562,-0.14746094,-50.875,69.09375,22.375
303,303,1727276789766,-1.0351562,0.17773438,-0.0029296875,-69.25,66.53125,17.75
304,304,1727276789806,-1.0175781,0.140625,0.001953125,-50.21875,45.75,26.71875
305,305,1727276789846,-0.98339844,0.10058594,0.049804688,-59.25,40.75,31.15625
306,306,1727276789886,-0.9716797,0.10644531,0.060546875,-54.1875,36.78125,33.25
307,307,1727276789926,-1.0126953,-0.028320312,0.01171875,-48.9375,25.125,34.40625
308,308,1727276789966,-0.99902344,-0.048828125,-0.030273438,-27.5625,6.53125,22.3125
309,309,1727276790006,-1.0927734,0.115234375,-0.0048828125,-6.34375,-6.0,7.5
310,310,1727276790046,-1.3105469,0.3251953,0.20019531,-23.0625,-10.3125,-7.96875
311,311,1727276790086,-1.3085938,0.21191406,0.23339844,-41.96875,-52.1875,-27.96875
312,312,1727276790126,-1.0439453,0.33203125,0.02734375,-20.96875,-108.15625,-61.84375
313,313,1727276790166,-1.453125,0.6464844,0.24316406,-64.625,-165.59375,-99.9375
314,314,1727276790206,-1.359375,0.6220703,0.08886719,-165.09375,-135.21875,-99.03125
315,315,1727276790246,-1.1201172,0.040039062,0.27441406,-137.9375,-81.125,-84.1875
316,316,1727276790286,-1.1572266,-0.19335938,0.20214844,-43.875,-93.625,-71.0625
317,317,1727276790326,-0.9355469,-0.08691406,0.29101562,73.9375,-157.3125,-90.46875
318,318,1727276790366,-0.23242188,0.08886719,0.3251953,93.09375,-168.71875,-49.46875
319,319,1727276790406,-0.45117188,0.07128906,0.43945312,62.625,-99.375,-12.40625
320,320,1727276790446,-0.49023438,0.11425781,0.37109375,37.625,-56.40625,9.3125
321,321,1727276790486,-0.36035156,0.038085938,0.66015625,46.40625,-12.34375,9.9375
322,322,1727276790526,-0.5126953,-0.034179688,0.6816406,1.21875,31.375,29.8125
323,323,1727276790566,-0.73046875,-0.1015625,0.7783203,-42.28125,54.0,24.15625
324,324,1727276790606,-0.83496094,-0.14746094,0.95703125,-48.8125,62.90625,19.625
325,325,1727276790646,-1.4716797,0.12597656,0.6738281,-49.84375,101.25,46.625
326,326,1727276790686,-1.3359375,0.49023438,0.43066406,-82.1875,136.71875,58.28125
327,327,1727276790726,-0.66796875,0.2109375,0.09375,-80.375,120.96875,70.40625
328,328,1727276790766,-1.0996094,0.20898438,0.17382812,-107.59375,111.1875,88.125
329,329,1727276790806,-1.1943359,0.068359375,0.14257812,-78.46875,92.6875,70.71875
330,330,1727276790846,-0.9814453,-0.087890625,0.13867188,-79.34375,87.4375,52.59375
331,331,1727276790886,-0.86328125,-0.005859375,0.016601562,-73.15625,88.1875,50.34375
332,332,1727276790926,-0.8251953,-0.024414062,0.05078125,-18.34375,62.4375,43.4375
333,333,1727276790966,-0.8691406,-0.059570312,-0.030273438,3.25,43.875,38.5
334,334,1727276791006,-0.8886719,0.072265625,0.14941406,-5.78125,41.125,25.96875
335,335,1727276791046,-0.84765625,0.08203125,0.080078125,-30.5,42.15625,15.96875
336,336,1727276791086,-0.9628906,0.041015625,0.03125,-2.5,29.96875,18.65625
337,337,1727276791126,-1.1240234,0.026367188,0.09472656,-4.1875,8.28125,14.625
338,338,1727276791166,-1.1542969,0.125,0.09277344,-19.8125,0.84375,18.21875
339,339,1727276791206,-1.2880859,0.11328125,0.140625,-1.875,9.09375,30.375
340,340,1727276791246,-1.5927734,0.23730469,0.09765625,0.875,12.0,35.125
341,341,1727276791286,-1.4179688,0.4189453,0.08105469,4.09375,-22.53125,5.71875
342,342,1727276791326,-1.0830078,0.4248047,0.28515625,-10.375,-57.5625,-18.34375
343,343,1727276791366,-1.2783203,0.5361328,0.26171875,-56.1875,-77.09375,-52.3125
344,344,1727276791406,-1.2529297,-0.034179688,0.20117188,-70.96875,-108.40625,-101.71875
345,345,1727276791446,-1.3125,-0.029296875,0.091796875,-98.4375,-56.46875,-133.875
346,346,1727276791486,-0.68066406,0.39648438,0.02734375,45.78125,-116.46875,-94.375
347,347,1727276791526,-0.6816406,0.034179688,0.08496094,98.84375,-158.40625,-46.46875
348,348,1727276791566,-0.66308594,-0.044921875,0.17675781,82.34375,-151.5625,-73.6875
349,349,1727276791606,-0.3564453,0.19335938,0.2607422,103.65625,-132.875,-64.34375
350,350,1727276791646,-0.3798828,0.17285156,0.3408203,83.75,-94.1875,-33.65625
351,351,1727276791686,-0.34472656,0.19921875,0.45117188,30.59375,-48.40625,-14.125
352,352,1727276791726,-0.3232422,0.064453125,0.62109375,29.6875,2.0,7.3125
353,353,1727276791766,-0.5136719,-0.15039062,0.8144531,-17.75,69.1875,26.46875
354,354,1727276791806,-0.9951172,-0.31054688,0.9160156,-67.75,67.0,32.21875
355,355,1727276791846,-1.7265625,0.0009765625,0.82128906,-44.71875,91.90625,50.21875
356,356,1727276791886,-1.3398438,0.19824219,0.66503906,-14.21875,100.40625,60.34375
357,357,1727276791926,-0.52734375,0.03125,0.30664062,-21.71875,100.34375,68.03125
358,358,1727276791966,-0.7714844,0.16992188,0.28515625,-31.71875,60.03125,85.6875
359,359,1727276792006,-1.4560547,0.016601562,0.095703125,-4.0,89.78125,59.1875
360,360,1727276792046,-0.9941406,-0.030273438,0.24511719,-4.875,100.9375,15.375
361,361,1727276792086,-0.8496094,0.0390625,0.16601562,-35.9375,88.125,14.5625
362,362,1727276792126,-0.71777344,0.24511719,0.11035156,28.46875,68.84375,15.125
363,363,1727276792166,-0.6982422,0.2705078,0.0078125,27.65625,41.0625,20.65625
364,364,1727276792206,-0.7451172,0.2421875,0.12597656,11.4375,41.4375,9.625
365,365,1727276792246,-0.77441406,0.19140625,0.08496094,-21.65625,42.84375,4.25
366,366,1727276792286,-0.8652344,-0.040039062,0.009765625,-20.25,26.65625,5.40625
367,367,1727276792326,-0.9824219,-0.06640625,0.030273438,-2.96875,24.46875,8.65625
368,368,1727276792366,-1.2207031,0.0,0.2705078,13.5,26.71875,12.375
369,369,1727276792406,-1.4990234,0.046875,0.3046875,22.84375,27.40625,19.4375
370,370,1727276792446,-1.7265625,0.4501953,0.1640625,18.125,11.84375,21.21875
371,371,1727276792486,-1.375,0.45117188,0.08105469,46.875,-27.96875,16.71875
372,372,1727276792526,-1.1630859,0.25683594,0.21972656,6.71875,-82.40625,-2.9375
373,373,1727276792566,-1.3271484,0.21875,0.19433594,-7.5625,-93.40625,-50.0
374,374,1727276792606,-1.1640625,0.2265625,0.15820312,-27.15625,-108.53125,-90.34375
375,375,1727276792646,-1.1445312,0.22753906,0.022460938,-50.21875,-91.3125,-105.5625
376,376,1727276792686,-0.6875,0.359375,0.08886719,-8.28125,-94.8125,-83.03125
377,377,1727276792726,-0.6503906,0.17773438,0.19628906,26.9375,-136.0,-39.21875
378,378,1727276792766,-0.8125,-0.017578125,0.27246094,28.5625,-172.75,-43.0625
379,379,1727276792806,-0.5703125,-0.017578125,0.28808594,38.46875,-135.03125,-51.65625
380,380,1727276792846,-0.47460938,-0.061523438,0.4326172,64.21875,-98.78125,-39.75
381,381,1727276792886,-0.2841797,-0.005859375,0.5097656,59.40625,-57.03125,-18.75
382,382,1727276792926,-0.39453125,-0.026367188,0.7529297,44.4375,6.59375,9.4375
383,383,1727276792966,-0.5732422,0.06347656,1.0097656,-28.0625,61.34375,26.40625
384,384,1727276793006,-0.45703125,0.061523438,0.5605469,-91.125,120.59375,62.25
385,385,1727276793046,-1.9921875,0.38671875,0.5732422,-94.65625,180.46875,70.59375
386,386,1727276793086,-1.0751953,-0.10253906,0.34765625,-37.09375,113.4375,32.75
387,387,1727276793126,-0.5048828,0.0126953125,0.27246094,-54.3125,88.125,61.3125
388,388,1727276793166,-0.97265625,0.17578125,0.16015625,-42.34375,66.75,72.25
389,389,1727276793206,-1.203125,-0.061523438,0.20898438,5.09375,82.09375,56.5625
390,390,1727276793246,-0.9658203,0.0234375,0.15332031,7.40625,78.46875,22.6875
391,391,1727276793286,-0.7792969,0.17480469,0.021484375,44.6875,62.0,33.125
392,392,1727276793326,-0.8486328,0.18359375,0.13574219,49.375,44.59375,29.09375
393,393,1727276793366,-0.7392578,0.14648438,0.055664062,18.3125,50.21875,8.28125
394,394,1727276793406,-0.6464844,0.18945312,0.055664062,-5.53125,47.78125,7.1875
395,395,1727276793446,-0.7890625,0.046875,-0.032226562,-7.0,28.125,13.96875
396,396,1727276793486,-0.9794922,0.06542969,0.103515625,0.1875,30.5625,9.1875
397,397,1727276793526,-1.2636719,0.15234375,0.10839844,3.5625,19.8125,11.28125
398,398,1727276793566,-1.3916016,0.16210938,0.18066406,11.78125,11.15625,20.375
399,399,1727276793606,-1.6982422,0.29882812,0.0703125,16.84375,-5.03125,10.65625
400,400,1727276793646,-1.5751953,0.47265625,0.16992188,5.375,-25.90625,2.65625
401,401,1727276793686,-1.0478516,0.35351562,0.31933594,-18.34375,-64.34375,-17.28125
402,402,1727276793726,-1.2744141,0.32714844,0.4326172,-39.125,-87.0625,-35.46875
403,403,1727276793766,-1.0605469,-0.07519531,0.21875,-41.84375,-134.21875,-82.59375
404,404,1727276793806,-1.1318359,0.22167969,0.046875,-65.71875,-95.21875,-121.90625
405,405,1727276793846,-0.86621094,0.515625,0.049804688,21.0,-76.0625,-95.71875
406,406,1727276793886,-0.6464844,0.21484375,0.20996094,35.96875,-94.0625,-42.25
407,407,1727276793926,-0.80859375,0.06933594,0.21875,15.03125,-121.84375,-48.96875
408,408,1727276793966,-0.48828125,0.009765625,0.26464844,47.875,-136.65625,-58.6875
409,409,1727276794006,-0.39257812,-0.053710938,0.30273438,67.53125,-110.125,-37.9375
410,410,1727276794046,-0.2841797,0.046875,0.49414062,52.625,-55.4375,-4.96875
411,411,1727276794086,-0.44628906,-0.01171875,0.7265625,24.3125,-0.125,24.09375
412,412,1727276794126,-0.6074219,-0.009765625,0.89160156,-16.84375,67.375,32.75
413,413,1727276794166,-0.4189453,-0.109375,0.4169922,-73.59375,123.15625,53.8125
414,414,1727276794206,-1.9921875,0.41308594,0.703125,-72.1875,173.5625,65.15625
415,415,1727276794246,-0.7607422,-0.052734375,0.3720703,-26.65625,109.1875,31.59375
416,416,1727276794286,-0.56933594,0.018554688,0.28027344,-63.21875,77.8125,64.6875
417,417,1727276794326,-1.2128906,0.12011719,0.15820312,-55.15625,84.15625,64.375
418,418,1727276794366,-1.1298828,-0.099609375,0.12109375,2.625,93.375,43.6875
419,419,1727276794406,-0.9667969,-0.046875,0.16503906,-8.21875,79.53125,28.0
420,420,1727276794446,-0.88964844,0.080078125,0.10058594,25.84375,49.78125,34.34375
421,421,1727276794486,-0.80566406,0.11035156,0.0546875,58.59375,16.21875,29.53125
422,422,1727276794526,-0.6777344,0.14550781,0.040039062,31.6875,31.59375,3.8125
423,423,1727276794566,-0.6894531,0.16992188,0.12597656,1.46875,34.96875,-0.5
424,424,1727276794606,-0.7636719,0.09082031,0.013671875,5.125,26.28125,2.59375
425,425,1727276794646,-1.0449219,0.001953125,0.0703125,-0.40625,33.4375,6.375
426,426,1727276794686,-1.3837891,0.01171875,0.15527344,9.59375,30.1875,18.90625
427,427,1727276794726,-1.5908203,0.16894531,0.33203125,18.03125,15.4375,27.09375
428,428,1727276794766,-1.7626953,0.32910156,0.2548828,-4.125,-10.03125,21.28125
429,429,1727276794806,-1.2109375,0.45898438,0.15527344,9.21875,-43.09375,-3.4375
430,430,1727276794846,-1.2900391,0.46875,0.3046875,-34.09375,-87.96875,-29.5
431,431,1727276794886,-1.0625,0.1328125,0.19335938,-30.375,-102.625,-62.40625
432,432,1727276794926,-1.4296875,0.048828125,0.20703125,-86.0,-96.6875,-120.125
433,433,1727276794966,-1.0273438,0.31152344,-0.034179688,-51.3125,-49.5625,-120.5625
434,434,1727276795006,-0.61035156,0.2705078,0.068359375,59.21875,-117.5,-61.0625
435,435,1727276795046,-0.7871094,0.046875,0.28125,63.375,-153.46875,-23.46875
436,436,1727276795086,-0.46875,-0.080078125,0.24902344,71.3125,-162.78125,-36.8125
437,437,1727276795126,-0.3330078,0.001953125,0.31152344,88.4375,-116.40625,-23.9375
438,438,1727276795166,-0.31152344,0.07128906,0.37109375,61.84375,-85.21875,5.96875
439,439,1727276795206,-0.20996094,0.1171875,0.6357422,21.5625,4.5625,12.4375
440,440,1727276795246,-0.43847656,-0.0859375,1.0537109,-20.625,50.59375,47.03125
441,441,1727276795286,-0.421875,-0.16015625,0.35351562,-34.71875,77.75,42.21875
442,442,1727276795326,-1.9921875,0.7558594,1.625,-71.46875,151.34375,35.875
443,443,1727276795366,-0.14160156,0.21679688,0.32714844,-9.09375,119.0,-27.0
444,444,1727276795406,-0.54296875,0.10058594,0.30273438,-52.46875,110.78125,36.46875
445,445,1727276795446,-1.0722656,0.484375,0.23144531,-78.1875,113.5625,37.34375
446,446,1727276795486,-0.8847656,0.45898438,0.3310547,-68.65625,92.875,55.53125
447,447,1727276795526,-1.0273438,0.028320312,0.10839844,-120.65625,121.25,51.1875
448,448,1727276795566,-0.9277344,-0.04296875,0.140625,-83.78125,135.0625,58.40625
449,449,1727276795606,-0.75,-0.005859375,-0.040039062,-39.46875,82.8125,43.125
450,450,1727276795646,-0.7832031,0.07128906,0.16503906,-42.40625,55.71875,42.78125
451,451,1727276795686,-0.94433594,0.13476562,0.20898438,-38.6875,48.03125,44.71875
452,452,1727276795726,-0.8955078,0.04296875,0.016601562,-38.625,43.4375,29.875
453,453,1727276795766,-0.99316406,0.00390625,0.107421875,-22.5,38.5,28.84375
454,454,1727276795806,-0.9628906,0.1875,0.10449219,-3.21875,25.4375,36.0
455,455,1727276795846,-0.93847656,0.1484375,0.017578125,17.84375,23.59375,44.0
456,456,1727276795886,-1.0888672,0.2109375,-0.047851562,14.0,21.09375,35.625
457,457,1727276795926,-1.1777344,0.21875,-0.046875,-4.25,19.15625,19.4375
458,458,1727276795966,-1.2324219,0.265625,0.0,-27.28125,5.40625,1.5625
459,459,1727276796006,-1.2763672,0.2734375,0.00390625,-26.46875,-17.34375,-23.59375
460,460,1727276796046,-1.1269531,0.25878906,0.10839844,1.71875,-44.9375,-56.96875
461,461,1727276796086,-0.9404297,0.25683594,0.025390625,-3.96875,-79.1875,-72.90625
462,462,1727276796126,-1.5556641,0.71875,-0.0029296875,-40.8125,-91.9375,-95.90625
463,463,1727276796166,-1.1455078,0.5800781,0.06347656,-45.6875,-106.6875,-70.21875
464,464,1727276796206,-0.95410156,0.40625,0.09472656,-56.8125,-108.90625,-48.96875
465,465,1727276796246,-0.76660156,0.2841797,0.06933594,-74.9375,-79.40625,-37.375
466,466,1727276796286,-0.6142578,0.15722656,0.14746094,-56.5,-89.84375,-29.4375
467,467,1727276796326,-0.5986328,0.040039062,0.23046875,-35.75,-73.4375,-4.65625
468,468,1727276796366,-0.5703125,-0.0126953125,0.16308594,-40.28125,-8.3125,-14.90625
469,469,1727276796406,-0.3564453,0.046875,0.22265625,-24.03125,23.1875,15.59375
470,470,1727276796446,-0.42089844,-0.07324219,0.328125,-21.46875,70.53125,52.09375
471,471,1727276796486,-0.99121094,-0.18945312,0.45410156,-23.1875,91.40625,55.46875
472,472,1727276796526,-1.9921875,-0.15234375,0.9267578,-32.6875,27.875,1.6875
473,473,1727276796566,-1.0429688,0.24804688,0.78808594,-24.46875,-66.25,-5.5625
474,474,1727276796606,-1.5029297,0.61328125,0.44335938,-2.78125,-21.5625,19.625
475,475,1727276796646,-0.84765625,0.5566406,0.39746094,-86.15625,-21.3125,23.1875
476,476,1727276796686,-0.6328125,0.26367188,-0.109375,-128.65625,31.78125,70.15625
477,477,1727276796726,-1.1171875,0.17285156,-0.16308594,-105.46875,84.53125,53.5
478,478,1727276796766,-1.2988281,0.013671875,-0.08496094,-72.3125,69.03125,46.0
479,479,1727276796806,-1.0546875,0.029296875,0.16015625,-43.5625,54.96875,23.125
480,480,1727276796846,-0.80566406,0.265625,0.02734375,-58.21875,79.53125,26.59375
481,481,1727276796886,-0.94433594,0.2548828,-0.06738281,-51.125,60.21875,32.03125
482,482,1727276796926,-0.9863281,0.0625,-0.1328125,-66.9375,66.6875,10.40625
483,483,1727276796966,-1.0771484,0.11425781,0.16210938,-69.125,49.78125,2.96875
484,484,1727276797006,-0.7714844,0.034179688,-0.0009765625,-57.90625,41.8125,12.6875
485,485,1727276797046,-0.91796875,-0.02734375,0.03515625,-36.125,42.96875,23.125
486,486,1727276797086,-1.0361328,0.07519531,0.14550781,-25.375,28.5625,22.5625
487,487,1727276797126,-1.1455078,0.11621094,0.13867188,-33.3125,17.625,23.84375
488,488,1727276797166,-1.4072266,0.0390625,0.12695312,-35.75,14.28125,23.78125
489,489,1727276797206,-1.5400391,0.040039062,0.15039062,-2.90625,-10.4375,17.125
490,490,1727276797246,-1.5869141,0.43945312,0.17675781,-12.375,-39.0625,-6.25
491,491,1727276797286,-1.3232422,0.390625,0.16113281,-44.375,-94.3125,-37.0
492,492,1727276797326,-1.4365234,0.3642578,0.15625,-42.96875,-129.40625,-59.28125
493,493,1727276797366,-1.3818359,0.115234375,0.107421875,-84.40625,-134.40625,-104.375
494,494,1727276797406,-1.0400391,0.35742188,-0.13378906,-83.65625,-57.15625,-130.03125
495,495,1727276797446,-0.515625,0.38964844,0.061523438,54.40625,-84.25,-83.875
496,496,1727276797486,-0.86816406,0.09375,0.3076172,25.46875,-161.9375,-52.03125
497,497,1727276797526,-0.37402344,0.015625,0.12988281,46.15625,-165.65625,-43.46875
498,498,1727276797566,-0.29492188,-0.029296875,0.234375,76.6875,-114.9375,-28.15625
499,499,1727276797606,-0.22851562,-0.018554688,0.38476562,67.8125,-69.53125,4.75
500,500,1727276797646,-0.4482422,0.0048828125,0.7080078,5.375,-1.84375,25.1875
501,501,1727276797686,-0.6904297,0.026367188,0.7011719,-27.875,57.53125,35.6875
502,502,1727276797726,-0.5136719,0.11328125,0.39648438,-82.5,141.21875,57.65625
503,503,1727276797766,-1.9658203,0.3642578,0.6621094,-120.65625,159.46875,52.46875
504,504,1727276797806,-1.3974609,-0.123046875,0.45214844,-91.59375,118.15625,48.125
505,505,1727276797846,-0.67285156,0.038085938,0.2578125,-62.3125,63.34375,86.53125
506,506,1727276797886,-0.91503906,0.20214844,0.14257812,-72.5625,47.59375,109.59375
507,507,1727276797926,-1.1279297,0.026367188,-0.0009765625,-33.9375,85.0625,75.0
508,508,1727276797966,-1.03125,-0.27441406,0.055664062,-28.5625,113.40625,34.15625
509,509,1727276798006,-0.93652344,-0.051757812,0.083984375,-8.65625,95.15625,26.34375
510,510,1727276798046,-0.8691406,0.16796875,0.08105469,43.09375,31.90625,44.34375
511,511,1727276798086,-0.8046875,0.19824219,0.060546875,35.40625,16.78125,34.09375
512,512,1727276798126,-0.7363281,0.19042969,0.10644531,-0.09375,20.5,15.0625
513,513,1727276798166,-0.81640625,-0.05078125,0.08203125,-9.5625,21.28125,6.875
514,514,1727276798206,-1.1044922,-0.18359375,0.19140625,5.625,38.375,5.15625
515,515,1727276798246,-1.3867188,0.13476562,0.17578125,46.875,28.0625,21.03125
516,516,1727276798286,-1.59375,0.56152344,0.19921875,32.53125,-6.0,33.4375
517,517,1727276798326,-1.3388672,0.49316406,0.080078125,21.0625,-33.71875,13.34375
518,518,1727276798366,-1.28125,0.39257812,0.15625,-8.21875,-64.59375,-12.65625
519,519,1727276798406,-1.2988281,0.36132812,0.17285156,-26.15625,-87.09375,-46.90625
520,520,1727276798446,-1.2021484,0.10839844,0.06347656,-45.65625,-106.9375,-91.75
521,521,1727276798486,-1.3242188,0.17773438,0.080078125,-84.28125,-47.625,-128.0625
522,522,1727276798526,-0.5126953,0.5292969,0.046875,63.0625,-133.375,-75.53125
523,523,1727276798566,-0.65527344,0.11328125,0.21191406,98.78125,-171.40625,-12.34375
524,524,1727276798606,-1.0400391,-0.02734375,0.14550781,33.46875,-187.5,-47.0625
525,525,1727276798646,-0.43847656,0.15722656,0.32226562,54.875,-130.75,-44.5
526,526,1727276798686,-0.44628906,-0.00390625,0.33203125,55.5625,-109.15625,-20.15625
527,527,1727276798726,-0.21875,0.15625,0.4267578,38.84375,-61.0625,-3.8125
528,528,1727276798766,-0.2265625,0.04296875,0.57128906,19.3125,7.0,18.28125
529,529,1727276798806,-0.5566406,0.06542969,0.9296875,-21.28125,48.21875,32.6875
530,530,1727276798846,-0.8310547,-0.13476562,0.9277344,-55.15625,73.0,6.4375
531,531,1727276798886,-1.09375,-0.064453125,1.0195312,-48.875,68.40625,68.53125
532,532,1727276798926,-1.6416016,-0.26367188,0.7832031,-37.59375,33.5,44.78125
533,533,1727276798966,-0.6464844,0.23828125,0.5361328,-24.09375,85.5,67.1875
534,534,1727276799006,-0.51464844,0.12695312,0.18066406,-20.0,131.53125,35.5
535,535,1727276799046,-0.89160156,0.4765625,0.39257812,-73.53125,130.90625,19.4375
536,536,1727276799086,-0.98339844,0.15234375,0.31640625,-107.46875,137.125,7.78125
537,537,1727276799126,-1.03125,-0.16894531,0.26464844,-96.59375,100.8125,34.53125
538,538,1727276799166,-1.5429688,-0.49316406,0.13378906,-51.6875,86.90625,39.21875
539,539,1727276799206,-0.9003906,0.13085938,0.032226562,19.59375,82.5,68.34375
540,540,1727276799246,-0.7949219,0.24121094,-0.107421875,36.21875,79.8125,72.375
541,541,1727276799286,-0.9111328,0.2421875,0.123046875,14.0625,77.0625,47.84375
542,542,1727276799326,-0.8154297,0.13476562,-0.009765625,-4.9375,51.9375,34.09375
543,543,1727276799366,-0.7910156,0.115234375,-0.064453125,5.03125,44.53125,40.5
544,544,1727276799406,-0.9355469,0.171875,0.0029296875,11.78125,55.96875,43.8125
545,545,1727276799446,-1.0478516,0.21582031,-0.005859375,-1.03125,46.6875,41.65625
546,546,1727276799486,-1.0722656,0.24804688,0.036132812,-4.9375,30.5625,31.90625
547,547,1727276799526,-1.203125,0.08691406,0.046875,-28.90625,21.09375,16.21875
548,548,1727276799566,-1.2216797,0.16210938,-0.038085938,-37.46875,4.75,3.75
549,549,1727276799606,-1.34375,0.2998047,0.020507812,-16.03125,-17.78125,-18.5625
550,550,1727276799646,-1.328125,0.26464844,0.08691406,3.25,-42.625,-59.90625
551,551,1727276799686,-1.0654297,0.33496094,0.09082031,-12.875,-95.15625,-66.4375
552,552,1727276799726,-1.1240234,0.5292969,0.026367188,-12.8125,-108.09375,-65.21875
553,553,1727276799766,-1.1630859,0.8261719,-0.025390625,-75.90625,-114.21875,-72.90625
554,554,1727276799806,-0.8544922,0.4501953,0.06738281,-117.90625,-105.46875,-65.5625
555,555,1727276799846,-0.8828125,0.20800781,0.03515625,-114.96875,-82.59375,-34.375
556,556,1727276799886,-0.70996094,0.07519531,0.10253906,-80.125,-59.03125,-23.875
557,557,1727276799926,-0.5498047,0.0078125,0.23730469,-37.9375,-52.8125,-11.1875
558,558,1727276799966,-0.45996094,0.0048828125,0.15429688,-11.78125,-9.84375,2.65625
559,559,1727276800006,-0.33007812,-0.00390625,0.18359375,8.125,28.3125,23.0625
560,560,1727276800046,-0.60058594,-0.111328125,0.35839844,9.0,83.4375,48.875
561,561,1727276800086,-1.9501953,0.057617188,0.47265625,-46.125,105.28125,13.03125
562,562,1727276800126,-1.1972656,-0.041992188,0.7753906,-59.8125,18.84375,-51.53125
563,563,1727276800166,-1.6660156,0.22070312,0.08203125,-58.8125,-8.4375,-11.875
564,564,1727276800206,-0.94140625,0.4560547,0.2890625,-60.90625,-4.84375,-30.65625
565,565,1727276800246,-0.47851562,0.37890625,-0.0078125,-103.75,13.28125,33.71875
566,566,1727276800286,-1.140625,0.20507812,-0.21484375,-74.9375,68.28125,51.1875
567,567,1727276800326,-1.3603516,0.11328125,0.021484375,-37.78125,58.34375,38.4375
568,568,1727276800366,-0.9199219,0.2705078,0.099609375,-38.125,20.5,43.75
569,569,1727276800406,-0.9667969,0.22949219,-0.08203125,-45.03125,44.59375,48.5
570,570,1727276800446,-0.97265625,0.14648438,-0.1171875,-23.84375,47.40625,23.96875
571,571,1727276800486,-1.0810547,0.21289062,0.0146484375,-60.0,35.28125,8.78125
572,572,1727276800526,-1.0263672,0.18164062,0.20703125,-73.03125,29.78125,10.84375
573,573,1727276800566,-0.8925781,0.018554688,-0.068359375,-85.5625,32.34375,9.5
574,574,1727276800606,-1.0498047,-0.109375,0.10644531,-58.6875,29.90625,13.03125
575,575,1727276800646,-1.2011719,-0.029296875,0.24707031,-43.4375,7.96875,18.59375
576,576,1727276800686,-1.1337891,0.053710938,0.20703125,-32.09375,0.90625,30.1875
577,577,1727276800726,-1.3945312,0.119140625,0.087890625,-5.0625,3.15625,29.03125
578,578,1727276800766,-1.4482422,0.5908203,0.09667969,18.09375,-22.28125,7.25
579,579,1727276800806,-1.3203125,0.6191406,0.22753906,-17.0625,-58.3125,-9.25
580,580,1727276800846,-1.3164062,0.4638672,0.16015625,-72.8125,-81.6875,-23.21875
581,581,1727276800886,-1.4316406,0.19140625,0.13183594,-88.5,-102.1875,-60.9375
582,582,1727276800926,-0.9033203,0.40234375,-0.055664062,-89.9375,-111.9375,-74.375
583,583,1727276800966,-0.49316406,0.048828125,0.10449219,-1.5,-155.46875,-20.28125
584,584,1727276801006,-0.95703125,-0.27539062,0.2685547,5.8125,-181.21875,-25.28125
585,585,1727276801046,-0.5107422,0.087890625,0.2626953,62.5625,-162.84375,-56.84375
586,586,1727276801086,-0.32910156,0.25976562,0.33398438,85.9375,-120.0625,-49.03125
587,587,1727276801126,-0.3330078,0.11230469,0.5107422,47.6875,-76.0625,-18.34375
588,588,1727276801166,-0.39453125,0.030273438,0.6328125,5.125,7.625,1.1875
589,589,1727276801206,-0.41992188,0.080078125,0.82714844,-2.78125,46.5,12.4375
590,590,1727276801246,-0.7734375,-0.018554688,0.9033203,-35.21875,68.59375,22.5625
591,591,1727276801286,-0.8544922,0.26953125,0.5830078,-52.59375,144.75,54.3125
592,592,1727276801326,-1.78125,0.45898438,0.6748047,-39.15625,142.03125,21.15625
593,593,1727276801366,-0.5546875,-0.0234375,0.25,-56.03125,132.25,0.71875
594,594,1727276801406,-0.67285156,0.0859375,0.15234375,-47.03125,84.53125,44.21875
595,595,1727276801446,-1.3564453,0.10449219,0.08300781,12.34375,81.46875,69.125
596,596,1727276801486,-1.2128906,0.18164062,0.19042969,-10.25,72.6875,22.0625
597,597,1727276801526,-0.9453125,0.1484375,0.11425781,-42.34375,76.96875,26.71875
598,598,1727276801566,-0.83496094,0.12792969,0.115234375,-26.53125,69.25,25.90625
599,599,1727276801606,-0.8310547,0.10546875,0.11230469,-7.875,29.84375,23.65625
600,600,1727276801646,-0.7871094,0.0625,0.13378906,-25.8125,37.03125,13.46875
601,601,1727276801686,-0.7597656,-0.047851562,0.055664062,-31.1875,39.34375,21.09375
602,602,1727276801726,-0.8310547,-0.17089844,0.09667969,-10.3125,37.59375,27.375
603,603,1727276801766,-1.0517578,0.0146484375,0.28027344,6.78125,40.34375,21.96875
604,604,1727276801806,-1.4091797,0.16796875,0.3515625,22.09375,43.09375,31.34375
605,605,1727276801846,-1.7539062,0.35839844,0.00390625,25.65625,-8.75,17.375
606,606,1727276801886,-1.375,0.40527344,0.07910156,45.0625,-68.4375,-9.65625
607,607,1727276801926,-1.4541016,0.48632812,0.2421875,-13.59375,-96.21875,-35.71875
608,608,1727276801966,-1.2851562,0.123046875,0.11230469,-26.34375,-108.34375,-65.625
609,609,1727276802006,-1.3164062,-0.08105469,0.07421875,-110.9375,-89.4375,-129.53125
610,610,1727276802046,-0.8496094,0.42285156,0.06933594,3.625,-114.875,-111.46875
611,611,1727276802086,-0.5986328,0.09277344,0.09863281,112.9375,-155.90625,-48.25
612,612,1727276802126,-0.80859375,0.030273438,0.19140625,63.6875,-163.15625,-54.34375
613,613,1727276802166,-0.38476562,0.15136719,0.16503906,66.125,-126.71875,-41.21875
614,614,1727276802206,-0.33691406,0.01171875,0.3623047,62.21875,-80.875,-29.4375
615,615,1727276802246,-0.41601562,0.030273438,0.5605469,24.1875,-20.34375,-10.46875
616,616,1727276802286,-0.51660156,0.06933594,0.85058594,-17.3125,24.53125,19.875
617,617,1727276802326,-0.41796875,-0.08105469,0.32617188,-46.0625,103.375,34.03125
618,618,1727276802366,-1.9921875,0.03515625,0.3720703,-63.65625,175.21875,36.0625
619,619,1727276802406,-1.3730469,-0.064453125,0.33398438,27.0625,124.3125,30.9375
620,620,1727276802446,-0.56347656,0.06640625,0.19726562,18.625,92.6875,35.375
621,621,1727276802486,-0.9609375,0.3828125,0.21777344,-23.59375,80.6875,58.4375
622,622,1727276802526,-0.96972656,0.25976562,0.24707031,-24.03125,65.53125,60.71875
623,623,1727276802566,-1.0732422,-0.017578125,0.11816406,-32.09375,69.15625,42.46875
624,624,1727276802606,-0.7939453,0.0126953125,0.005859375,-6.28125,70.1875,31.53125
625,625,1727276802646,-0.87402344,0.0068359375,0.045898438,29.3125,60.09375,19.375
626,626,1727276802686,-0.81933594,0.1640625,0.12207031,8.25,60.96875,4.5
627,627,1727276802726,-0.80078125,0.19824219,0.09472656,-11.8125,48.03125,9.5
628,628,1727276802766,-0.8535156,0.01953125,-0.005859375,-19.40625,28.0,22.875
629,629,1727276802806,-1.1748047,0.022460938,0.09277344,-3.28125,26.90625,28.65625
630,630,1727276802846,-1.2890625,0.025390625,0.12597656,-17.9375,29.21875,26.28125
631,631,1727276802886,-1.4179688,0.15625,0.18066406,-7.3125,20.0,26.40625
632,632,1727276802926,-1.5664062,0.2841797,0.1328125,-9.3125,-8.25,16.03125
633,633,1727276802966,-1.6259766,0.5097656,0.14160156,5.5,-31.09375,-8.0625
634,634,1727276803006,-1.0654297,0.36523438,0.30078125,-17.0625,-80.875,-14.4375
635,635,1727276803046,-1.3330078,0.21191406,0.31640625,-34.53125,-120.5625,-32.4375
636,636,1727276803086,-1.1796875,-0.13964844,0.32910156,-22.09375,-155.78125,-85.53125
637,637,1727276803126,-1.1181641,0.1640625,-0.078125,-46.625,-113.65625,-143.5625
638,638,1727276803166,-0.77734375,0.38476562,0.06738281,61.59375,-65.5625,-116.0625
639,639,1727276803206,-0.64453125,0.22070312,0.25683594,70.15625,-106.9375,-66.375
640,640,1727276803246,-0.7285156,-0.047851562,0.19824219,51.09375,-133.1875,-79.3125
641,641,1727276803286,-0.39941406,0.0625,0.234375,83.09375,-116.90625,-76.4375
642,642,1727276803326,-0.34570312,0.15820312,0.33398438,86.625,-89.1875,-62.65625
643,643,1727276803366,-0.2939453,0.12011719,0.49414062,46.59375,-34.5625,-30.53125
644,644,1727276803406,-0.28808594,0.026367188,0.70996094,-3.28125,15.5625,-13.9375
645,645,1727276803446,-0.71875,0.015625,0.9033203,-30.5625,67.125,5.03125
646,646,1727276803486,-1.1279297,-0.13378906,0.8730469,-53.15625,65.0625,14.625
647,647,1727276803526,-1.5488281,0.25097656,0.6777344,-16.90625,120.90625,51.625
648,648,1727276803566,-0.86816406,0.13964844,0.45507812,10.625,86.78125,60.53125
649,649,1727276803606,-0.75097656,0.052734375,0.28515625,15.75,64.375,69.75
650,650,1727276803646,-0.7910156,0.20019531,0.107421875,-20.0,82.15625,46.5625
651,651,1727276803686,-1.0117188,0.061523438,0.23242188,-42.40625,114.1875,30.0
652,652,1727276803726,-1.1787109,-0.19042969,0.20800781,-64.25,114.84375,25.75
653,653,1727276803766,-0.83203125,-0.028320312,0.1640625,-3.15625,69.09375,25.0625
654,654,1727276803806,-0.8076172,0.12890625,0.11816406,16.4375,38.125,28.0625
655,655,1727276803846,-0.83691406,0.18554688,0.09472656,-5.125,29.21875,18.53125
656,656,1727276803886,-0.78808594,0.08300781,0.14746094,-33.5625,30.625,12.6875
657,657,1727276803926,-0.8232422,-0.14355469,0.017578125,-40.21875,22.8125,15.46875
658,658,1727276803966,-0.9472656,-0.23828125,0.12109375,-19.15625,44.0,25.375
659,659,1727276804006,-1.2099609,-0.11816406,0.20605469,5.5625,62.5,40.25
660,660,1727276804046,-1.3994141,0.29785156,0.37695312,13.0,53.34375,43.0
661,661,1727276804086,-1.6835938,0.34375,0.10449219,-0.90625,22.15625,37.59375
662,662,1727276804126,-1.1953125,0.328125,0.029296875,41.34375,-34.5625,8.34375
663,663,1727276804166,-1.1738281,0.34960938,0.26367188,14.28125,-75.6875,-31.5625
664,664,1727276804206,-1.1591797,0.21679688,0.17285156,-0.40625,-97.3125,-59.96875
665,665,1727276804246,-1.2021484,-0.030273438,0.234375,-10.0625,-119.21875,-96.5625
666,666,1727276804286,-1.34375,0.23828125,-0.04296875,-35.5625,-86.9375,-124.15625
667,667,1727276804326,-0.8154297,0.52441406,0.0703125,35.0625,-105.0,-88.53125
668,668,1727276804366,-0.70410156,0.2685547,0.20214844,72.40625,-163.40625,-35.0625
669,669,1727276804406,-1.0068359,-0.043945312,0.29589844,38.15625,-186.15625,-31.4375
670,670,1727276804446,-0.5751953,0.12890625,0.3232422,33.28125,-113.78125,-62.6875
671,671,1727276804486,-0.43066406,0.005859375,0.32910156,70.6875,-99.3125,-31.9375
672,672,1727276804526,-0.30371094,-0.009765625,0.4404297,41.21875,-33.40625,-7.15625
673,673,1727276804566,-0.39941406,0.099609375,0.84765625,-6.6875,27.5625,30.625
674,674,1727276804606,-0.42382812,0.057617188,0.88183594,-59.5625,74.875,57.125
675,675,1727276804646,-1.1298828,-0.049804688,0.296875,-76.21875,96.96875,82.3125
676,676,1727276804686,-1.7294922,-0.036132812,0.6230469,-62.3125,136.46875,56.0625
677,677,1727276804726,-0.54296875,-0.15527344,0.21972656,-49.3125,121.03125,51.75
678,678,1727276804766,-0.6904297,0.0859375,0.24511719,-58.28125,89.46875,81.21875
679,679,1727276804806,-1.3730469,0.04296875,0.16894531,-57.0,99.21875,71.875
680,680,1727276804846,-1.0488281,-0.13671875,0.23339844,-62.25,100.40625,27.875
681,681,1727276804886,-1.0126953,-0.16113281,0.15820312,-69.75,104.3125,20.71875
682,682,1727276804926,-0.84765625,0.041992188,0.10253906,2.03125,59.6875,28.59375
683,683,1727276804966,-0.74902344,0.1640625,0.016601562,31.8125,27.28125,32.875
684,684,1727276805006,-0.7607422,0.21386719,0.045898438,4.71875,29.03125,23.78125
685,685,1727276805046,-0.74902344,0.14648438,0.16113281,-32.9375,29.71875,9.9375
686,686,1727276805086,-0.75683594,-0.095703125,-0.060546875,-33.96875,24.40625,8.90625
687,687,1727276805126,-0.88378906,-0.080078125,-0.055664062,-11.9375,28.84375,12.5
688,688,1727276805166,-1.0273438,0.061523438,0.11425781,-11.8125,27.5625,16.40625
689,689,1727276805206,-1.2109375,0.12792969,0.16015625,-8.46875,25.6875,28.0625
690,690,1727276805246,-1.390625,0.28808594,0.20996094,-15.25,26.46875,43.0
691,691,1727276805286,-1.5888672,0.21386719,0.19433594,-19.625,24.65625,37.15625
692,692,1727276805326,-1.4609375,0.14355469,0.14355469,2.40625,-5.875,19.5
693,693,1727276805366,-0.9160156,0.2578125,0.20996094,3.625,-27.46875,3.15625
694,694,1727276805406,-1.2548828,0.25878906,0.21582031,-46.1875,-28.8125,-28.21875
695,695,1727276805446,-1.1181641,-0.0625,0.19726562,-31.40625,-63.78125,-66.375
696,696,1727276805486,-1.1943359,0.25585938,0.10546875,-9.3125,-76.71875,-85.40625
697,697,1727276805526,-0.8701172,0.57910156,-0.06542969,67.28125,-84.59375,-65.3125
698,698,1727276805566,-0.7451172,0.4296875,0.09375,48.65625,-101.5,2.3125
699,699,1727276805606,-0.8046875,0.4013672,0.15625,-82.125,-109.15625,24.34375
700,700,1727276805646,-0.53125,0.20800781,0.18847656,-73.71875,-69.96875,7.125
701,701,1727276805686,-0.5683594,-0.11425781,0.2578125,-42.96875,-47.75,0.28125
702,702,1727276805726,-0.32128906,-0.016601562,0.140625,-15.71875,-10.3125,2.4375
703,703,1727276805766,-0.25,0.005859375,0.18066406,6.0625,24.40625,14.6875
704,704,1727276805806,-0.4423828,-0.16210938,0.34472656,9.28125,65.53125,41.0625
705,705,1727276805846,-1.5332031,-0.1484375,0.6269531,6.375,85.25,18.65625
706,706,1727276805886,-1.3886719,-0.14160156,0.96777344,4.03125,9.9375,-33.53125
707,707,1727276805926,-1.0830078,0.07128906,0.5683594,7.15625,-17.78125,-17.0625
708,708,1727276805966,-1.7939453,0.61035156,0.49316406,-7.90625,15.78125,-26.21875
709,709,1727276806006,-0.22265625,0.6484375,0.26953125,-75.5,-8.5,3.40625
710,710,1727276806046,-0.48632812,0.3095703,-0.055664062,-80.90625,23.5,70.34375
711,711,1727276806086,-1.1396484,0.19140625,-0.10839844,-129.1875,121.4375,33.375
712,712,1727276806126,-1.0712891,0.091796875,-0.07714844,-70.46875,97.9375,21.90625
713,713,1727276806166,-0.9550781,0.13671875,0.021484375,-75.125,71.46875,36.28125
714,714,1727276806206,-0.7871094,0.37402344,0.045898438,-45.15625,53.53125,57.84375
715,715,1727276806246,-0.96972656,0.08984375,-0.18164062,-42.21875,76.09375,29.46875
716,716,1727276806286,-0.9921875,0.15039062,0.020507812,-61.625,72.375,13.78125
717,717,1727276806326,-1.0332031,0.22949219,0.12988281,-34.03125,47.71875,34.09375
718,718,1727276806366,-0.88378906,0.14160156,0.0390625,-46.6875,35.09375,45.8125
719,719,1727276806406,-0.9765625,0.18457031,0.017578125,-65.0625,29.34375,49.78125
720,720,1727276806446,-0.97753906,-0.13183594,-0.06738281,-76.21875,13.125,30.6875
721,721,1727276806486,-1.0244141,-0.072265625,-0.047851562,-56.875,-3.90625,-1.375
722,722,1727276806526,-1.3916016,0.33007812,0.16015625,-42.90625,-4.59375,-31.625
723,723,1727276806566,-1.4960938,0.33691406,0.20996094,-36.78125,-49.09375,-56.71875
724,724,1727276806606,-1.4570312,0.5488281,0.1875,-39.78125,-136.125,-77.03125
725,725,1727276806646,-1.5380859,0.8935547,0.23730469,-126.09375,-183.53125,-107.9375
726,726,1727276806686,-1.125,0.33496094,0.1953125,-153.78125,-109.75,-86.09375
727,727,1727276806726,-0.9863281,-0.19726562,0.20410156,-48.9375,-145.03125,-73.03125
728,728,1727276806766,-0.8955078,-0.06640625,0.16699219,14.40625,-149.4375,-49.65625
729,729,1727276806806,-0.34960938,0.12792969,0.29101562,109.5625,-182.09375,-43.0625
730,730,1727276806846,-0.26953125,0.18945312,0.5361328,88.03125,-105.53125,-18.03125
731,731,1727276806886,-0.3251953,0.2265625,0.3984375,-17.03125,-37.125,14.9375
732,732,1727276806926,-0.27441406,0.06640625,0.51171875,-14.03125,0.65625,24.875
733,733,1727276806966,-0.55078125,-0.055664062,0.73535156,-21.59375,27.75,32.9375
734,734,1727276807006,-0.8574219,-0.16210938,0.828125,-28.375,43.5,19.8125
735,735,1727276807046,-0.63183594,-0.11328125,0.92089844,-1.6875,40.9375,8.84375
736,736,1727276807086,-0.87109375,0.33398438,1.1376953,-53.46875,46.4375,38.75
737,737,1727276807126,-1.3222656,0.38085938,0.75878906,-17.125,29.59375,48.3125
738,738,1727276807166,-0.796875,0.50683594,0.32617188,-81.65625,93.1875,88.84375
739,739,1727276807206,-0.81152344,0.39941406,0.13964844,-122.1875,145.125,78.59375
740,740,1727276807246,-1.4443359,0.28808594,0.20800781,-141.53125,118.625,76.8125
741,741,1727276807286,-1.0126953,-0.17773438,0.20800781,-131.03125,94.59375,48.9375
742,742,1727276807326,0.35351562,1.3173828,0.37109375,-110.09375,69.375,-14.96875
743,743,1727276807366,-1.0888672,-0.12011719,0.091796875,-77.375,76.96875,51.3125
744,744,1727276807406,-0.88671875,-0.052734375,0.09765625,-35.5625,58.65625,45.625
745,745,1727276807446,-0.8339844,0.09667969,0.10058594,-20.96875,48.15625,42.59375
746,746,1727276807486,-0.9316406,0.13476562,0.19921875,-7.5625,25.6875,36.28125
747,747,1727276807526,-0.8828125,0.09667969,0.13964844,-32.6875,33.9375,20.1875
748,748,1727276807566,-0.8847656,-0.036132812,0.087890625,-28.75,27.28125,17.3125
749,749,1727276807606,-0.9785156,-0.06738281,0.09863281,-5.78125,14.8125,14.75
750,750,1727276807646,-1.0839844,0.05078125,0.123046875,-4.5,13.15625,11.8125
751,751,1727276807686,-1.1787109,0.09472656,0.27734375,-2.0625,9.6875,13.78125
752,752,1727276807726,-1.5068359,0.34277344,0.265625,-18.65625,5.96875,14.5625
753,753,1727276807766,-1.5400391,0.45117188,0.09277344,13.8125,-10.625,3.875
754,754,1727276807806,-1.0927734,0.3125,0.26171875,22.84375,-62.9375,3.09375
755,755,1727276807846,-1.1503906,0.33007812,0.38964844,-37.71875,-63.78125,-28.65625
756,756,1727276807886,-1.1376953,-0.041992188,0.19628906,-46.1875,-52.3125,-82.78125
757,757,1727276807926,-1.1396484,0.08300781,0.12011719,-52.21875,-28.46875,-124.53125
758,758,1727276807966,-0.703125,0.3388672,0.2705078,-6.53125,-70.9375,-96.15625
759,759,1727276808006,-0.7783203,0.026367188,0.17285156,36.6875,-113.0,-58.1875
