,Unnamed: 0,timestamp,accel_x,accel_y,accel_z,gyro_x,gyro_y,gyro_z
0,0,1727286985464,-0.9765625,0.0859375,-0.2705078,-27.3125,2.90625,2.5
1,1,1727286985504,-0.98828125,0.033203125,-0.34960938,-21.34375,8.875,3.3125
2,2,1727286985544,-0.9921875,0.10253906,-0.3076172,-1.90625,16.9375,-1.03125
3,3,1727286985584,-1.0068359,0.12109375,-0.15625,25.1875,6.4375,3.1875
4,4,1727286985624,-1.0361328,0.109375,-0.15136719,2.28125,3.28125,-0.0625
5,5,1727286985664,-1.0449219,0.12207031,-0.15527344,-18.15625,-0.625,0.25
6,6,1727286985704,-0.99316406,0.09863281,-0.16210938,-7.53125,-5.28125,4.53125
7,7,1727286985744,-0.9921875,0.059570312,-0.16601562,-4.3125,-10.9375,10.03125
8,8,1727286985784,-1.1542969,0.07910156,-0.24707031,-3.625,-11.0,6.65625
9,9,1727286985824,-1.1240234,0.16503906,-0.20410156,-24.75,-6.4375,-1.5625
10,10,1727286985864,-1.1503906,0.26171875,-0.20117188,-37.5625,-7.09375,-2.6875
11,11,1727286985904,-1.2724609,0.24414062,-0.17578125,-16.5625,-11.4375,7.34375
12,12,1727286985944,-1.1835938,0.21875,-0.12695312,20.96875,-28.78125,11.3125
13,13,1727286985984,-1.1757812,0.22363281,-0.09667969,-8.9375,-35.625,12.71875
14,14,1727286986024,-1.1494141,0.18359375,0.11230469,32.375,-56.0625,17.15625
15,15,1727286986064,-1.2099609,0.1875,0.08984375,-55.6875,-111.0,9.96875
16,16,1727286986104,-1.0595703,0.2841797,-0.15917969,-136.3125,-99.75,7.03125
17,17,1727286986144,-0.8466797,0.32128906,-0.17675781,-161.09375,-62.90625,-5.46875
18,18,1727286986184,-0.7548828,0.15136719,0.083984375,-128.125,-34.75,3.125
19,19,1727286986224,-0.91308594,-0.0390625,0.0625,-116.3125,-13.6875,-16.21875
20,20,1727286986264,-0.8251953,-0.23046875,0.024414062,-77.46875,-22.3125,-29.34375
21,21,1727286986304,-0.8730469,-0.21582031,0.33789062,-84.1875,-27.84375,-51.875
22,22,1727286986344,-0.84277344,0.20117188,0.068359375,9.96875,-53.375,-46.375
23,23,1727286986384,-0.8417969,0.038085938,0.15429688,-6.25,-51.34375,-57.125
24,24,1727286986424,-0.75683594,0.07324219,0.2841797,8.6875,-37.0,-43.875
25,25,1727286986464,-0.58496094,0.01171875,0.29882812,22.4375,-21.28125,-24.46875
26,26,1727286986504,-0.6074219,-0.11035156,0.32910156,8.9375,20.34375,-0.78125
27,27,1727286986544,-0.80859375,-0.3388672,0.38085938,16.875,32.8125,17.15625
28,28,1727286986584,-1.0234375,-0.32226562,0.3046875,-0.6875,48.8125,11.375
29,29,1727286986624,-1.4033203,0.13183594,0.49609375,7.59375,43.625,12.46875
30,30,1727286986664,-1.1757812,0.03125,0.6464844,12.78125,30.0625,20.15625
31,31,1727286986704,-0.6484375,0.328125,0.328125,13.28125,51.78125,37.0625
32,32,1727286986744,-1.3789062,-0.009765625,-0.25878906,-27.96875,85.0625,63.5
33,33,1727286986784,-1.2763672,-0.171875,-0.13183594,68.46875,34.6875,41.09375
34,34,1727286986824,-1.2519531,-0.11816406,-0.12402344,150.59375,-13.53125,44.8125
35,35,1727286986864,-1.0595703,0.05078125,-0.021484375,109.40625,-17.46875,12.28125
36,36,1727286986904,-0.9716797,0.046875,0.07324219,71.6875,15.28125,-5.78125
37,37,1727286986944,-1.0351562,0.044921875,0.05859375,13.21875,38.71875,-22.875
38,38,1727286986984,-0.8671875,0.14257812,0.05078125,19.0625,52.34375,-20.1875
39,39,1727286987024,-0.890625,0.11816406,0.09863281,37.625,27.125,-14.46875
40,40,1727286987064,-0.8496094,0.068359375,-0.061523438,35.8125,33.84375,-10.96875
41,41,1727286987104,-0.74316406,0.076171875,-0.021484375,33.78125,18.78125,-11.15625
42,42,1727286987144,-0.7714844,0.09277344,-0.001953125,62.21875,10.65625,-1.40625
43,43,1727286987184,-0.8095703,0.080078125,-0.03125,54.28125,24.25,-9.4375
44,44,1727286987224,-0.9189453,0.26171875,0.296875,44.03125,36.53125,-8.71875
45,45,1727286987264,-1.1308594,0.099609375,0.18554688,-71.375,35.9375,-10.375
46,46,1727286987304,-1.2568359,0.11328125,0.0546875,-92.75,45.625,-0.40625
47,47,1727286987344,-1.3808594,0.21484375,-0.14453125,-35.3125,14.8125,14.0625
48,48,1727286987384,-1.6240234,0.01953125,-0.068359375,30.1875,3.5625,21.8125
49,49,1727286987424,-1.1103516,0.3203125,0.2529297,-1.25,-30.0625,6.125
50,50,1727286987464,-1.3847656,0.3076172,0.6640625,-106.21875,-82.84375,9.03125
51,51,1727286987504,-1.3574219,0.24804688,0.103515625,-281.875,-141.5625,0.6875
52,52,1727286987544,-1.1015625,0.06738281,-0.734375,-275.0,-35.1875,-28.0
53,53,1727286987584,-0.9892578,0.26171875,-0.17773438,-70.03125,-39.75,-26.65625
54,54,1727286987624,-1.3964844,-0.0009765625,0.68847656,-104.03125,-48.96875,-23.78125
55,55,1727286987664,-0.9355469,-0.057617188,-0.17089844,16.03125,-81.6875,-10.25
56,56,1727286987704,-0.96777344,0.030273438,0.17871094,-116.375,-15.46875,-74.21875
57,57,1727286987744,-0.65527344,0.171875,0.26757812,-21.28125,-93.65625,-69.1875
58,58,1727286987784,-0.41308594,0.10546875,0.020507812,-31.03125,-76.75,-49.1875
59,59,1727286987824,-0.4658203,-0.030273438,0.13476562,-15.65625,-51.125,-56.1875
60,60,1727286987864,-0.3671875,-0.22753906,0.24121094,15.78125,-35.0625,-21.53125
61,61,1727286987904,-0.49414062,-0.23535156,0.31933594,23.96875,-11.3125,9.28125
62,62,1727286987944,-0.7373047,-0.65722656,0.359375,34.53125,22.625,5.4375
63,63,1727286987984,-1.0976562,-0.9169922,0.41210938,7.71875,73.03125,-17.03125
64,64,1727286988024,-0.3798828,0.16015625,0.19628906,30.96875,99.28125,25.9375
65,65,1727286988064,-2.0117188,-0.7001953,0.37109375,19.03125,-54.09375,-19.15625
66,66,1727286988104,-0.5419922,0.4404297,0.8310547,54.21875,80.0625,29.96875
67,67,1727286988144,-0.7832031,0.46875,-0.18847656,-107.03125,85.375,55.90625
68,68,1727286988184,-1.4755859,0.20703125,0.020507812,-43.0625,89.625,52.0625
69,69,1727286988224,-1.3388672,-0.0009765625,0.16699219,22.6875,47.46875,56.59375
70,70,1727286988264,-0.99609375,0.08300781,0.005859375,19.5,50.03125,36.3125
71,71,1727286988304,-1.0595703,0.16699219,0.013671875,3.34375,69.96875,14.46875
72,72,1727286988344,-0.95703125,0.20410156,-0.0390625,4.71875,33.34375,25.9375
73,73,1727286988384,-1.0830078,0.18652344,0.08496094,-8.5625,27.1875,29.6875
74,74,1727286988424,-0.8642578,0.043945312,-0.09082031,-24.1875,37.5,5.5625
75,75,1727286988464,-1.0273438,0.0048828125,-0.19140625,2.34375,42.34375,2.5
76,76,1727286988504,-1.0029297,0.19628906,-0.10449219,-21.03125,35.75,-2.25
77,77,1727286988544,-0.8066406,0.12792969,0.0107421875,-30.1875,22.375,-5.53125
78,78,1727286988584,-1.0048828,0.125,0.16015625,-118.875,19.875,-12.4375
79,79,1727286988624,-0.8466797,-0.14355469,-0.26757812,-76.4375,-6.6875,-12.9375
80,80,1727286988664,-0.9580078,0.025390625,-0.10644531,6.875,-7.21875,-12.75
81,81,1727286988704,-0.8330078,0.0107421875,-0.08691406,10.28125,11.8125,-17.125
82,82,1727286988744,-0.94628906,0.13378906,0.20117188,-57.9375,101.96875,-15.3125
83,83,1727286988784,-0.9980469,0.07421875,0.234375,-70.21875,36.09375,-1.46875
84,84,1727286988824,-1.1201172,-0.171875,0.080078125,-65.40625,28.15625,0.0625
85,85,1727286988864,-1.1943359,-0.10644531,-0.103515625,-49.34375,31.65625,-15.1875
86,86,1727286988904,-1.4648438,0.3310547,0.0078125,-86.75,92.875,-31.125
87,87,1727286988944,-1.4521484,0.095703125,0.29296875,-24.875,20.71875,-4.9375
88,88,1727286988984,-1.2773438,0.18164062,-0.06640625,-44.65625,-67.46875,4.40625
89,89,1727286989024,-1.2070312,0.4716797,-0.095703125,-110.5625,-57.875,0.4375
90,90,1727286989064,-1.1953125,0.515625,-0.3779297,-84.625,-118.3125,15.8125
91,91,1727286989104,-1.09375,0.34375,-0.32617188,-119.96875,-80.46875,17.03125
92,92,1727286989144,-1.1689453,0.328125,0.1328125,-76.9375,-81.9375,12.34375
93,93,1727286989184,-0.99316406,0.3408203,-0.12988281,-203.59375,-96.34375,2.34375
94,94,1727286989224,-0.7607422,0.16210938,-0.04296875,-146.4375,-84.25,1.96875
95,95,1727286989264,-0.81640625,0.055664062,0.087890625,-142.84375,-45.25,-6.75
96,96,1727286989304,-0.92285156,-0.38964844,-0.09277344,-19.0625,-15.96875,-39.59375
97,97,1727286989344,-0.96875,0.15234375,0.20410156,-43.53125,-62.28125,-48.875
98,98,1727286989384,-0.4951172,0.2265625,0.018554688,39.09375,-109.875,-33.25
99,99,1727286989424,-0.390625,0.13867188,0.16601562,-15.84375,-22.71875,-20.4375
100,100,1727286989464,-0.6113281,-0.02734375,0.34472656,-10.21875,24.625,1.90625
101,101,1727286989504,-1.1142578,-0.6064453,0.48535156,-0.6875,63.6875,2.34375
102,102,1727286989544,-1.2304688,0.28515625,0.3173828,-55.625,60.59375,5.125
103,103,1727286989584,-1.1894531,-0.07519531,0.5566406,3.75,89.9375,27.125
104,104,1727286989624,-1.0644531,0.20214844,0.1953125,43.625,48.6875,22.28125
105,105,1727286989664,-1.03125,0.21777344,-0.052734375,40.8125,77.0,35.71875
106,106,1727286989704,-1.0214844,0.0859375,0.017578125,50.875,48.4375,46.15625
107,107,1727286989744,-1.1005859,0.08984375,-0.07421875,77.90625,39.40625,64.59375
108,108,1727286989784,-1.3388672,0.0078125,0.07519531,82.84375,-14.5,45.25
109,109,1727286989824,-1.0068359,-0.28125,0.07910156,128.6875,8.625,-2.84375
110,110,1727286989864,-0.81152344,-0.022460938,-0.0390625,77.71875,25.59375,-31.1875
111,111,1727286989904,-0.7216797,0.109375,-0.08300781,36.53125,31.90625,-28.375
112,112,1727286989944,-0.7685547,0.21582031,0.08105469,43.5625,26.21875,-17.3125
113,113,1727286989984,-0.98535156,0.17089844,0.115234375,63.4375,16.75,-7.0
114,114,1727286990024,-0.92089844,-0.018554688,-0.09277344,79.5625,-12.0625,-2.375
115,115,1727286990064,-0.9658203,0.06347656,0.10644531,71.75,6.5,-12.1875
116,116,1727286990104,-1.1035156,0.22851562,0.0390625,-19.875,17.0,-8.46875
117,117,1727286990144,-1.1523438,0.19238281,0.11425781,-9.25,65.09375,-1.40625
118,118,1727286990184,-1.2275391,0.10058594,0.068359375,-20.84375,52.34375,7.40625
119,119,1727286990224,-1.3408203,0.1328125,-0.087890625,-42.5,37.875,7.875
120,120,1727286990264,-1.4179688,0.16601562,-0.15039062,-32.125,21.40625,-6.53125
121,121,1727286990304,-1.0546875,0.4013672,0.31347656,13.71875,-18.15625,4.34375
122,122,1727286990344,-1.2304688,0.3798828,0.33203125,-22.3125,-112.34375,30.46875
123,123,1727286990384,-1.21875,0.31933594,0.06542969,-297.4375,-111.1875,20.21875
124,124,1727286990424,-1.09375,0.24414062,-0.29492188,-304.65625,-110.8125,10.9375
125,125,1727286990464,-0.9404297,0.29882812,-0.28125,-202.53125,-48.375,-2.625
126,126,1727286990504,-0.81152344,0.15429688,0.14941406,-12.46875,-55.9375,10.6875
127,127,1727286990544,-0.93847656,-0.13574219,0.055664062,-63.0,-65.21875,-2.84375
128,128,1727286990584,-0.95996094,-0.01953125,0.14257812,-84.0,-28.84375,-36.3125
129,129,1727286990624,-0.7109375,0.14941406,0.13964844,-10.21875,-66.0,-36.90625
130,130,1727286990664,-0.5205078,0.046875,0.17675781,4.25,-81.03125,-35.5
131,131,1727286990704,-0.37402344,-0.13671875,0.234375,17.5625,-37.9375,-17.375
132,132,1727286990744,-0.6074219,-0.22460938,0.234375,-6.0,48.0,-2.0
133,133,1727286990784,-1.1542969,-0.5,0.5605469,-1.3125,78.46875,-3.78125
134,134,1727286990824,-0.9375,0.31152344,0.10546875,38.5625,44.90625,18.5625
135,135,1727286990864,-1.8681641,-0.21386719,0.28320312,-18.9375,79.4375,29.84375
136,136,1727286990904,-0.8359375,-0.10449219,-0.12792969,96.90625,92.3125,-24.9375
137,137,1727286990944,-0.68359375,0.31640625,0.27734375,48.375,21.09375,46.21875
138,138,1727286990984,-1.4228516,0.27734375,-0.13671875,6.625,28.15625,56.34375
139,139,1727286991024,-1.4433594,-0.26367188,-0.048828125,161.53125,-16.6875,18.5625
140,140,1727286991064,-0.9794922,-0.115234375,0.044921875,182.53125,32.25,-21.34375
141,141,1727286991104,-0.8857422,0.11035156,-0.05078125,99.53125,54.53125,-34.65625
142,142,1727286991144,-0.83691406,0.30664062,0.013671875,33.0,59.0625,-24.90625
143,143,1727286991184,-0.75097656,0.22851562,0.24316406,71.03125,15.40625,-10.84375
144,144,1727286991224,-0.81152344,-0.072265625,-0.0146484375,89.625,7.84375,-6.59375
145,145,1727286991264,-0.7402344,0.08984375,-0.0068359375,-45.0625,26.15625,-19.21875
146,146,1727286991304,-0.7207031,0.09667969,-0.032226562,-39.09375,23.40625,-11.15625
147,147,1727286991344,-1.0410156,0.16894531,-0.10839844,31.21875,26.34375,2.09375
148,148,1727286991384,-1.1914062,0.0,-0.07519531,75.65625,47.40625,5.25
149,149,1727286991424,-1.4082031,-0.025390625,-0.049804688,71.03125,74.8125,5.03125
150,150,1727286991464,-1.4501953,0.16210938,0.31445312,-30.96875,9.5,1.46875
151,151,1727286991504,-1.5185547,-0.048828125,-0.19628906,-121.3125,8.59375,-1.21875
152,152,1727286991544,-1.1201172,0.17578125,-0.18847656,-84.0,8.9375,-17.375
153,153,1727286991584,-1.0488281,0.4248047,0.24902344,-58.75,-22.5,-2.5625
154,154,1727286991624,-1.3447266,0.3515625,0.28515625,52.65625,-139.0625,39.9375
155,155,1727286991664,-1.2539062,0.21484375,0.23046875,-56.59375,-165.0625,46.28125
156,156,1727286991704,-1.1816406,0.2109375,-0.31835938,-345.5,-119.84375,17.96875
157,157,1727286991744,-0.7167969,0.31054688,-0.25878906,-240.03125,-57.71875,10.75
158,158,1727286991784,-0.94921875,-0.009765625,0.15136719,-57.15625,-33.84375,7.09375
159,159,1727286991824,-0.78125,-0.2626953,-0.10253906,-81.625,-11.75,-24.46875
160,160,1727286991864,-0.70214844,0.19433594,0.2578125,-45.125,-68.21875,-52.0
161,161,1727286991904,-0.5595703,0.1796875,-0.048828125,-13.46875,-75.78125,-42.40625
162,162,1727286991944,-0.6894531,0.10253906,0.27734375,-25.96875,-34.03125,-38.75
163,163,1727286991984,-0.66796875,0.005859375,0.26171875,14.4375,-33.71875,-21.09375
164,164,1727286992024,-0.5175781,-0.0859375,0.3779297,14.4375,20.53125,4.84375
165,165,1727286992064,-0.8378906,-0.47265625,0.3720703,-14.96875,97.4375,8.375
166,166,1727286992104,-1.1689453,0.09765625,0.22460938,-28.21875,71.9375,38.84375
167,167,1727286992144,-1.2275391,0.30664062,0.20507812,31.78125,102.03125,56.71875
168,168,1727286992184,-1.3964844,0.06640625,0.19433594,82.90625,123.5,38.9375
169,169,1727286992224,-1.1835938,-0.1015625,0.06933594,43.6875,66.5625,55.25
170,170,1727286992264,-1.0703125,0.046875,0.06933594,52.46875,11.5625,49.8125
171,171,1727286992304,-1.0390625,0.022460938,0.04296875,117.09375,-39.9375,49.28125
172,172,1727286992344,-1.0371094,-0.20214844,-0.041992188,88.28125,-9.84375,-4.5625
173,173,1727286992384,-0.796875,0.026367188,-0.0703125,85.375,17.5625,-23.4375
174,174,1727286992424,-0.86328125,0.20117188,0.060546875,59.78125,39.34375,-23.0
175,175,1727286992464,-0.85839844,0.059570312,-0.03515625,53.9375,25.59375,-15.84375
176,176,1727286992504,-0.95996094,-0.0234375,0.08886719,162.8125,-8.625,-8.96875
177,177,1727286992544,-0.79589844,0.18359375,0.026367188,83.53125,12.96875,-15.8125
178,178,1727286992584,-0.9667969,0.14355469,-0.12011719,-24.625,27.6875,-5.53125
179,179,1727286992624,-0.93847656,0.040039062,-0.053710938,66.8125,6.625,-3.84375
180,180,1727286992664,-1.1005859,0.08691406,0.16015625,63.5625,27.5625,-4.9375
181,181,1727286992704,-1.1943359,-0.021484375,0.27929688,22.4375,32.5625,-11.78125
182,182,1727286992744,-1.1367188,-0.024414062,0.049804688,-1.75,38.3125,-14.28125
183,183,1727286992784,-1.2460938,0.123046875,-0.032226562,-59.28125,53.125,-8.46875
184,184,1727286992824,-1.546875,0.09765625,-0.07519531,-32.75,25.59375,-11.53125
185,185,1727286992864,-1.2070312,0.24902344,-0.025390625,-3.6875,12.0,-10.71875
186,186,1727286992904,-1.2333984,0.51171875,0.18164062,41.15625,-65.9375,12.875
187,187,1727286992944,-1.2802734,0.4609375,0.06542969,81.875,-112.875,49.03125
188,188,1727286992984,-1.3300781,0.12597656,0.34179688,-162.3125,-114.78125,46.75
189,189,1727286993024,-1.34375,0.453125,-0.038085938,-272.5,-157.4375,53.34375
190,190,1727286993064,-1.0126953,0.3251953,-0.27246094,-291.46875,-80.21875,34.75
191,191,1727286993104,-0.6542969,0.28710938,-0.14453125,-181.53125,-8.625,8.125
192,192,1727286993144,-0.54785156,0.20117188,-0.07910156,-58.625,-24.25,18.5
193,193,1727286993184,-1.3173828,-0.671875,0.35546875,1.4375,-58.9375,-38.75
194,194,1727286993224,-0.45410156,0.24609375,0.234375,4.0,-110.125,-42.53125
195,195,1727286993264,-0.41796875,0.24609375,0.15039062,-32.6875,-95.84375,-54.0625
196,196,1727286993304,-0.515625,0.030273438,0.28808594,-7.84375,-67.84375,-36.84375
197,197,1727286993344,-0.5498047,-0.055664062,0.45117188,-13.5625,-21.4375,-13.65625
198,198,1727286993384,-0.8154297,-0.4189453,0.5957031,-24.5,38.90625,-6.09375
199,199,1727286993424,-1.0771484,-0.640625,0.62109375,6.1875,58.09375,-2.375
200,200,1727286993464,-0.6923828,0.07519531,0.25976562,-44.46875,64.5,-17.5625
201,201,1727286993504,-1.3242188,0.06933594,1.1943359,33.0625,118.25,71.84375
202,202,1727286993544,-1.0605469,0.19824219,0.1328125,-5.15625,102.875,28.15625
203,203,1727286993584,-1.0439453,0.28125,-0.0859375,37.3125,70.34375,32.375
204,204,1727286993624,-1.1181641,0.29882812,0.11035156,13.15625,79.1875,30.78125
205,205,1727286993664,-1.3447266,0.2783203,0.0234375,36.84375,95.625,62.375
206,206,1727286993704,-1.0830078,0.10546875,0.095703125,32.375,46.125,60.25
207,207,1727286993744,-1.0419922,0.06347656,-0.009765625,64.59375,15.46875,62.625
208,208,1727286993784,-1.0332031,0.026367188,-0.01171875,27.8125,16.40625,39.6875
209,209,1727286993824,-0.8984375,-0.21972656,0.068359375,35.0625,24.9375,3.0625
210,210,1727286993864,-0.8613281,-0.09277344,0.0390625,33.96875,8.28125,-11.15625
211,211,1727286993904,-0.7138672,-0.046875,-0.080078125,36.96875,-1.5,-21.78125
212,212,1727286993944,-0.75683594,0.047851562,-0.078125,-1.375,43.75,-33.875
213,213,1727286993984,-0.82910156,0.15429688,0.1953125,-42.75,51.78125,-36.3125
214,214,1727286994024,-0.91015625,0.18359375,0.109375,-20.53125,-5.21875,-18.84375
215,215,1727286994064,-0.84277344,0.11621094,0.09375,-33.28125,3.8125,-13.40625
216,216,1727286994104,-0.8857422,0.034179688,-0.078125,-53.8125,25.96875,-13.53125
217,217,1727286994144,-1.0273438,-0.051757812,-0.24023438,-93.96875,64.375,-17.03125
218,218,1727286994184,-1.3154297,-0.19042969,0.39453125,33.125,114.84375,-1.03125
219,219,1727286994224,-1.5585938,0.026367188,-0.015625,-137.0,61.0,-13.84375
220,220,1727286994264,-1.5703125,-0.12988281,-0.3310547,-39.15625,48.25,5.4375
221,221,1727286994304,-1.3222656,0.58496094,0.08300781,-15.96875,57.90625,-8.59375
222,222,1727286994344,-1.2216797,0.33496094,0.2626953,81.8125,-59.84375,30.53125
223,223,1727286994384,-1.1455078,0.045898438,-0.10058594,-97.75,-107.3125,0.4375
224,224,1727286994424,-1.0439453,0.11230469,-0.15722656,-141.3125,-144.625,-20.625
225,225,1727286994464,-1.0927734,0.55078125,-0.29882812,-177.9375,-97.0,-7.1875
226,226,1727286994504,-0.921875,0.41796875,-0.18359375,-100.6875,-81.25,-4.8125
227,227,1727286994544,-1.0322266,0.234375,0.18359375,-97.5,-77.53125,3.375
228,228,1727286994584,-0.9277344,0.28125,-0.052734375,-128.875,-61.0625,-0.59375
229,229,1727286994624,-1.0097656,-0.09375,-0.0390625,-130.53125,-16.3125,-13.90625
230,230,1727286994664,-1.3203125,-0.51660156,0.37890625,-205.09375,15.59375,-82.625
231,231,1727286994704,-0.8671875,0.2265625,0.25976562,-40.96875,-140.15625,-46.4375
232,232,1727286994744,-0.6425781,0.3017578,0.01171875,-16.375,-134.5625,-37.28125
233,233,1727286994784,-0.44726562,0.23242188,0.18652344,-84.875,-59.96875,-29.59375
234,234,1727286994824,-0.46289062,-0.0068359375,0.19726562,-74.71875,-30.65625,-22.21875
235,235,1727286994864,-0.75390625,-0.59277344,0.23144531,-26.09375,5.84375,-31.375
236,236,1727286994904,-0.9111328,-0.7792969,0.41308594,71.1875,-5.875,-9.875
237,237,1727286994944,-0.80078125,-0.70214844,0.28027344,25.71875,48.125,-6.21875
238,238,1727286994984,-1.1591797,0.22167969,1.3007812,6.3125,-8.6875,18.03125
239,239,1727286995024,-0.77441406,0.3642578,0.9003906,-100.0625,79.875,43.03125
240,240,1727286995064,-0.6933594,0.16796875,-0.2841797,-62.15625,120.59375,70.4375
241,241,1727286995104,-1.9511719,0.06933594,-0.072265625,-84.9375,72.25,99.625
242,242,1727286995144,-1.0644531,-0.025390625,-0.20996094,-1.5,49.53125,47.0
243,243,1727286995184,-1.2041016,0.20410156,-0.10058594,101.96875,38.375,48.40625
244,244,1727286995224,-1.0175781,0.06640625,-0.08496094,103.375,31.53125,52.8125
245,245,1727286995264,-1.0126953,-0.009765625,-0.040039062,64.3125,30.84375,34.5
246,246,1727286995304,-0.8730469,0.0009765625,0.09375,45.6875,35.0,8.5625
247,247,1727286995344,-0.7783203,0.01171875,0.18652344,4.1875,40.0,-5.53125
248,248,1727286995384,-0.8466797,0.10058594,0.056640625,-40.125,39.53125,-15.0
249,249,1727286995424,-0.7519531,0.018554688,-0.0029296875,-7.15625,26.40625,-7.1875
250,250,1727286995464,-0.79296875,0.0048828125,-0.037109375,70.78125,28.96875,-5.1875
251,251,1727286995504,-0.9189453,0.16503906,0.017578125,39.71875,26.03125,0.5
252,252,1727286995544,-1.0654297,0.15234375,0.05859375,34.75,48.75,6.34375
253,253,1727286995584,-1.2451172,0.060546875,-0.00390625,27.6875,32.125,5.9375
254,254,1727286995624,-1.3457031,0.171875,0.041992188,-10.71875,62.28125,-0.21875
255,255,1727286995664,-1.6396484,0.20507812,0.055664062,-49.03125,42.34375,-1.6875
256,256,1727286995704,-1.4316406,0.20703125,-0.0029296875,-37.3125,1.75,-4.03125
257,257,1727286995744,-1.1455078,0.3408203,-0.06347656,-90.3125,-46.15625,-5.0
258,258,1727286995784,-1.0107422,0.61621094,0.19824219,-85.96875,-119.90625,12.34375
259,259,1727286995824,-1.3173828,0.25683594,0.18164062,-167.6875,-146.9375,25.15625
260,260,1727286995864,-1.0126953,0.2998047,-0.46289062,-293.96875,-96.21875,3.0
261,261,1727286995904,-0.74902344,0.3173828,-0.23535156,-135.09375,-19.75,0.375
262,262,1727286995944,-0.80371094,0.111328125,-0.0078125,-15.65625,-39.40625,10.625
263,263,1727286995984,-0.9638672,-0.4326172,0.05078125,-119.65625,-57.34375,-10.65625
264,264,1727286996024,-0.93652344,0.095703125,0.024414062,-87.4375,-71.75,-56.8125
265,265,1727286996064,-0.59277344,0.14746094,0.2861328,-8.875,-98.21875,-48.03125
266,266,1727286996104,-0.59765625,0.015625,0.11621094,4.96875,-101.53125,-30.25
267,267,1727286996144,-0.40527344,0.0703125,0.3046875,-0.5,-52.15625,-28.84375
268,268,1727286996184,-0.65722656,-0.24804688,0.46679688,2.78125,17.71875,0.9375
269,269,1727286996224,-0.8964844,-0.5,0.6201172,-24.375,48.4375,1.0625
270,270,1727286996264,-0.5341797,-0.14746094,0.18457031,-33.71875,81.625,25.21875
271,271,1727286996304,-2.0117188,-0.045898438,0.49609375,8.40625,87.8125,48.78125
272,272,1727286996344,-0.8955078,0.107421875,0.072265625,35.125,33.25,7.625
273,273,1727286996384,-0.8984375,0.2890625,0.115234375,-27.125,75.90625,37.1875
274,274,1727286996424,-1.3632812,0.22753906,-0.005859375,-5.65625,65.90625,68.75
275,275,1727286996464,-1.2011719,0.048828125,-0.11621094,6.4375,56.0625,45.71875
276,276,1727286996504,-1.1708984,0.09667969,-0.09472656,94.40625,11.6875,54.09375
277,277,1727286996544,-1.09375,0.029296875,-0.0234375,82.4375,9.5,34.3125
278,278,1727286996584,-1.0195312,0.029296875,0.09472656,33.65625,39.9375,3.84375
279,279,1727286996624,-1.0302734,0.09082031,0.20214844,-46.65625,25.25,-6.59375
280,280,1727286996664,-0.79589844,-0.038085938,0.052734375,8.8125,16.9375,-14.5
281,281,1727286996704,-0.68847656,-0.013671875,-0.0390625,39.28125,0.875,-19.21875
282,282,1727286996744,-0.73046875,0.10058594,-0.06542969,68.6875,-0.40625,-19.09375
283,283,1727286996784,-0.8183594,0.14257812,-0.05078125,34.8125,-1.5625,-13.125
284,284,1727286996824,-0.7548828,0.13183594,-0.078125,36.96875,-11.0,-15.8125
285,285,1727286996864,-0.7910156,0.15136719,0.10253906,36.65625,25.90625,-5.53125
286,286,1727286996904,-1.0253906,0.18652344,0.18945312,-11.4375,26.78125,4.90625
287,287,1727286996944,-1.0410156,-0.015625,0.09863281,-40.0625,31.84375,14.96875
288,288,1727286996984,-1.2822266,-0.15429688,0.0625,-47.9375,45.9375,6.90625
289,289,1727286997024,-1.3701172,0.033203125,-0.09863281,-63.0625,70.46875,-6.9375
290,290,1727286997064,-1.4873047,0.12402344,0.36035156,-41.40625,99.59375,-5.3125
291,291,1727286997104,-1.4902344,0.037109375,-0.18359375,-16.875,15.71875,-9.9375
292,292,1727286997144,-0.9472656,0.2734375,0.056640625,-58.6875,43.5,-27.34375
293,293,1727286997184,-1.2382812,0.43164062,0.119140625,18.21875,-101.84375,16.75
294,294,1727286997224,-1.1884766,0.20703125,0.23535156,-5.28125,-119.90625,35.09375
295,295,1727286997264,-1.1523438,0.20800781,-0.2763672,-265.40625,-111.0,0.125
296,296,1727286997304,-1.0019531,0.40429688,-0.3857422,-177.6875,-105.3125,-18.78125
297,297,1727286997344,-0.9423828,0.52734375,-0.12597656,-113.3125,-64.34375,-15.0625
298,298,1727286997384,-0.95410156,0.2607422,0.15039062,-219.09375,-68.6875,-13.84375
299,299,1727286997424,-0.9189453,0.095703125,0.15332031,-143.9375,-48.625,-11.53125
300,300,1727286997464,-1.1923828,-0.2578125,0.25878906,-137.78125,-32.5,-63.03125
301,301,1727286997504,-0.88671875,0.14941406,0.17578125,-12.78125,-88.53125,-49.0625
302,302,1727286997544,-0.5029297,0.13085938,0.05859375,-25.78125,-114.34375,-47.71875
303,303,1727286997584,-0.5029297,0.16210938,0.14648438,-23.53125,-76.03125,-10.65625
304,304,1727286997624,-0.57910156,-0.06933594,0.19433594,-14.5,-54.15625,-12.3125
305,305,1727286997664,-0.7714844,-0.33984375,0.48828125,-19.3125,-34.375,-23.71875
306,306,1727286997704,-0.62890625,-0.33496094,0.5595703,-15.84375,-40.0,-13.34375
307,307,1727286997744,-0.70410156,-0.43066406,0.6582031,-13.46875,-9.90625,-5.0
308,308,1727286997784,-0.84375,-0.40820312,0.73535156,16.75,-13.21875,-0.46875
309,309,1727286997824,-0.8984375,-0.5175781,0.8125,59.1875,2.78125,14.90625
310,310,1727286997864,-1.0273438,-0.005859375,1.2324219,-36.84375,1.9375,15.5
311,311,1727286997904,-0.68847656,0.171875,0.85839844,2.84375,74.125,47.6875
312,312,1727286997944,-0.8691406,-0.025390625,-0.09863281,-97.9375,154.15625,71.375
313,313,1727286997984,-1.1777344,0.47460938,-0.009765625,-119.15625,147.375,108.03125
314,314,1727286998024,-1.4804688,-0.22753906,0.034179688,-21.6875,90.84375,68.5
315,315,1727286998064,-1.2353516,0.09082031,-0.11621094,40.5625,42.28125,73.0625
316,316,1727286998104,-1.1552734,0.064453125,-0.08886719,71.25,4.90625,56.09375
317,317,1727286998144,-1.0751953,-0.08203125,0.076171875,90.125,15.53125,33.8125
318,318,1727286998184,-1.0205078,-0.095703125,-0.06542969,62.34375,49.03125,-0.71875
319,319,1727286998224,-0.7421875,0.03515625,-0.04296875,63.3125,66.1875,-20.5
320,320,1727286998264,-0.7607422,0.10644531,0.21484375,-36.78125,61.1875,-22.3125
321,321,1727286998304,-0.8095703,0.018554688,-0.03125,21.03125,51.1875,-18.78125
322,322,1727286998344,-0.9121094,-0.057617188,0.08203125,53.25,46.46875,-13.59375
323,323,1727286998384,-0.828125,0.017578125,-0.07910156,39.21875,20.0,-17.3125
324,324,1727286998424,-0.95996094,0.3359375,0.21777344,25.0625,49.46875,-7.9375
325,325,1727286998464,-1.1152344,0.14550781,0.06347656,-25.125,29.28125,2.6875
326,326,1727286998504,-1.3232422,-0.091796875,0.14941406,-47.375,55.21875,1.15625
327,327,1727286998544,-1.3994141,0.13671875,-0.12597656,-75.78125,4.0625,2.34375
328,328,1727286998584,-1.5400391,0.12792969,-0.13476562,-24.0625,27.6875,10.6875
329,329,1727286998624,-1.6171875,0.14257812,0.19238281,-18.03125,4.5625,14.53125
330,330,1727286998664,-1.0849609,0.25976562,-0.16210938,-69.375,-68.25,16.25
331,331,1727286998704,-1.046875,0.51953125,0.14453125,-139.0,-113.0625,20.875
332,332,1727286998744,-1.2519531,0.21484375,0.22558594,-190.59375,-153.09375,22.09375
333,333,1727286998784,-0.94628906,0.40625,-0.46484375,-340.34375,-98.28125,6.78125
334,334,1727286998824,-0.6230469,0.32226562,-0.34179688,-150.1875,-70.875,8.625
335,335,1727286998864,-0.63671875,0.24023438,-0.10546875,-15.71875,-72.65625,21.25
336,336,1727286998904,-0.97558594,-0.47460938,0.18359375,-94.8125,79.625,-33.0625
337,337,1727286998944,-0.9453125,-0.068359375,0.3720703,-136.625,6.5,-73.21875
338,338,1727286998984,-0.6386719,0.24414062,0.033203125,-10.28125,-83.78125,-44.0
339,339,1727286999024,-0.7597656,-0.030273438,0.20703125,4.96875,-62.90625,-47.53125
340,340,1727286999064,-0.4404297,0.0087890625,0.2685547,10.71875,-45.3125,-25.5625
341,341,1727286999104,-0.62109375,-0.14453125,0.35742188,8.625,16.6875,11.59375
342,342,1727286999144,-1.0566406,-0.5703125,0.5126953,-0.03125,45.5,24.65625
343,343,1727286999184,-0.9746094,-0.09375,0.3095703,-83.09375,94.75,-3.15625
344,344,1727286999224,-1.4736328,0.08300781,0.07128906,52.53125,112.875,64.71875
345,345,1727286999264,-1.0527344,0.09863281,0.3076172,25.5,47.6875,25.65625
346,346,1727286999304,-0.93359375,0.25585938,0.0126953125,42.9375,57.09375,50.25
347,347,1727286999344,-1.2080078,0.25878906,-0.068359375,48.4375,30.3125,67.5625
348,348,1727286999384,-1.1845703,0.16699219,-0.07421875,88.15625,3.09375,44.25
349,349,1727286999424,-1.1083984,-0.03515625,0.07519531,150.5,-48.3125,33.75
350,350,1727286999464,-0.9111328,-0.18164062,-0.08203125,114.28125,5.71875,-7.25
351,351,1727286999504,-0.77246094,0.17089844,0.013671875,64.0,41.90625,-23.3125
352,352,1727286999544,-0.74902344,0.19921875,0.08984375,39.03125,30.96875,-17.03125
353,353,1727286999584,-0.8066406,0.15332031,0.052734375,94.28125,17.25,-10.0
354,354,1727286999624,-0.7216797,0.09863281,-0.11816406,61.8125,33.34375,-13.71875
355,355,1727286999664,-0.89160156,0.07421875,-0.09375,27.4375,44.34375,-9.3125
356,356,1727286999704,-1.1728516,0.24707031,0.28515625,82.6875,22.9375,2.34375
357,357,1727286999744,-1.1445312,0.02734375,0.15332031,8.03125,17.6875,-1.8125
358,358,1727286999784,-1.2578125,0.016601562,0.09277344,-33.21875,47.15625,-13.0625
359,359,1727286999824,-1.3691406,0.10253906,0.01953125,-7.03125,33.78125,-3.03125
360,360,1727286999864,-1.6630859,0.02734375,-0.18066406,-38.0,20.34375,-5.65625
361,361,1727286999904,-1.3271484,0.20605469,-0.18554688,-70.15625,32.625,-19.21875
362,362,1727286999944,-1.0664062,0.56347656,0.54296875,-83.84375,17.71875,-5.40625
363,363,1727286999984,-1.3105469,0.25585938,0.45996094,102.75,-129.71875,50.0
364,364,1727287000024,-1.0966797,0.3701172,0.12695312,-256.25,-173.0625,32.0
365,365,1727287000064,-0.9638672,0.33789062,-0.11328125,-390.96875,-79.625,3.96875
366,366,1727287000104,-0.5439453,0.4013672,-0.53808594,-200.15625,-106.96875,9.53125
367,367,1727287000144,-0.5136719,0.17773438,-0.17675781,20.84375,-61.78125,29.25
368,368,1727287000184,-1.1748047,-0.6269531,0.13671875,-67.71875,69.5,-40.40625
369,369,1727287000224,-0.9638672,-0.0048828125,0.3798828,-68.21875,-69.53125,-44.0625
370,370,1727287000264,-0.53125,0.16699219,-0.0048828125,-16.6875,-99.8125,-58.8125
371,371,1727287000304,-0.66015625,0.0029296875,0.31640625,15.125,-70.8125,-53.15625
372,372,1727287000344,-0.43359375,-0.14648438,0.37304688,44.15625,-46.84375,-24.78125
373,373,1727287000384,-0.62890625,-0.31933594,0.4716797,-4.46875,43.0,3.84375
374,374,1727287000424,-1.0009766,-0.7548828,0.6503906,2.84375,69.96875,6.0
375,375,1727287000464,-0.6894531,0.41015625,0.0107421875,-64.34375,74.375,14.21875
376,376,1727287000504,-1.8896484,0.09277344,0.66796875,43.6875,143.03125,90.40625
377,377,1727287000544,-1.2783203,-0.07714844,0.52734375,36.59375,77.0,12.34375
378,378,1727287000584,-0.8984375,0.26953125,-0.045898438,68.34375,50.8125,45.96875
379,379,1727287000624,-1.0771484,0.26367188,-0.03125,44.09375,29.03125,66.59375
380,380,1727287000664,-1.1630859,-0.119140625,-0.044921875,117.03125,-10.84375,66.0
381,381,1727287000704,-1.1240234,-0.22167969,0.091796875,114.53125,-24.0,19.84375
382,382,1727287000744,-0.7861328,-0.15625,-0.047851562,100.4375,30.5,-20.3125
383,383,1727287000784,-0.8466797,0.29296875,0.20507812,13.78125,39.59375,-23.125
384,384,1727287000824,-0.83691406,0.23730469,0.103515625,21.28125,35.375,-13.28125
385,385,1727287000864,-0.9482422,0.16015625,0.0009765625,93.125,2.59375,-7.375
386,386,1727287000904,-0.88964844,0.11035156,0.12207031,68.9375,-10.53125,-4.5
387,387,1727287000944,-0.9824219,-0.0048828125,-0.022460938,32.4375,3.15625,-6.09375
388,388,1727287000984,-1.0703125,0.095703125,0.08496094,-1.375,30.3125,-10.3125
389,389,1727287001024,-1.0390625,0.099609375,-0.052734375,-23.03125,58.3125,-13.125
390,390,1727287001064,-1.1464844,0.001953125,0.25683594,38.3125,49.78125,-2.5
391,391,1727287001104,-1.1650391,0.013671875,-0.029296875,-14.96875,58.03125,-6.9375
392,392,1727287001144,-1.6123047,0.083984375,0.0029296875,-20.53125,57.15625,-8.34375
393,393,1727287001184,-1.390625,0.27441406,-0.033203125,-33.90625,28.53125,-13.96875
394,394,1727287001224,-1.2802734,0.6152344,0.28515625,50.375,-50.75,16.84375
395,395,1727287001264,-1.2021484,0.3701172,0.125,-40.75,-110.625,37.96875
396,396,1727287001304,-1.3125,0.31640625,0.115234375,-238.3125,-137.40625,28.5
397,397,1727287001344,-1.0917969,0.36621094,-0.14941406,-336.28125,-90.46875,5.25
398,398,1727287001384,-0.49902344,0.29003906,-0.36132812,-258.3125,-56.0,8.3125
399,399,1727287001424,-0.5263672,0.14941406,-0.11816406,37.375,-59.15625,9.21875
400,400,1727287001464,-1.0615234,-0.7939453,0.17480469,-37.0625,28.21875,-36.5
401,401,1727287001504,-0.90234375,-0.115234375,0.25390625,-68.75,-19.0625,-65.53125
402,402,1727287001544,-0.56152344,0.28710938,0.14648438,8.59375,-129.1875,-74.09375
403,403,1727287001584,-0.5703125,0.22558594,0.37109375,-11.3125,-84.375,-62.96875
404,404,1727287001624,-0.6230469,-0.041992188,0.421875,14.625,-50.25,-52.34375
405,405,1727287001664,-0.6542969,-0.24804688,0.47265625,8.59375,-7.28125,-17.5
406,406,1727287001704,-0.64746094,-0.3076172,0.5175781,18.71875,26.03125,23.5625
407,407,1727287001744,-1.0253906,-0.9375,0.44433594,-3.375,111.375,25.53125
408,408,1727287001784,-1.2207031,0.61621094,0.09277344,-46.71875,87.375,54.625
409,409,1727287001824,-1.9326172,-0.2890625,0.23730469,93.28125,52.59375,32.59375
410,410,1727287001864,-0.9658203,0.18945312,0.4423828,15.21875,24.6875,40.0625
411,411,1727287001904,-1.0283203,0.099609375,-0.17285156,65.53125,30.1875,65.5
412,412,1727287001944,-1.1982422,0.07421875,0.0009765625,128.9375,4.625,47.6875
413,413,1727287001984,-1.1289062,-0.17675781,-0.15234375,195.15625,-19.75,8.96875
414,414,1727287002024,-0.93652344,-0.020507812,-0.09082031,120.625,45.0625,-33.375
415,415,1727287002064,-0.7363281,0.20019531,0.033203125,42.875,48.25,-36.625
416,416,1727287002104,-0.7050781,0.34375,0.16601562,8.34375,42.9375,-24.40625
417,417,1727287002144,-0.7480469,0.11816406,-0.0048828125,69.0,13.34375,-5.59375
418,418,1727287002184,-0.70703125,0.107421875,-0.013671875,72.40625,6.5625,-0.125
419,419,1727287002224,-0.8779297,0.076171875,-0.107421875,75.46875,30.6875,-6.65625
420,420,1727287002264,-1.0263672,0.053710938,0.28027344,138.71875,3.4375,-3.03125
421,421,1727287002304,-1.0,0.14355469,0.10839844,-39.53125,3.6875,-9.5
422,422,1727287002344,-1.1582031,0.19238281,0.21484375,-3.125,34.15625,0.75
423,423,1727287002384,-1.2802734,-0.15332031,-0.01171875,27.5625,28.0625,1.46875
424,424,1727287002424,-1.2480469,0.078125,-0.080078125,-26.6875,58.5,-10.5625
425,425,1727287002464,-1.6318359,-0.107421875,0.25585938,25.125,37.625,11.90625
426,426,1727287002504,-1.2851562,0.23632812,-0.048828125,-30.375,30.90625,-16.28125
427,427,1727287002544,-1.2509766,0.46777344,0.16992188,-64.78125,3.21875,2.5
428,428,1727287002584,-1.0400391,0.4296875,0.5175781,34.21875,-92.125,33.9375
429,429,1727287002624,-1.1484375,0.23730469,0.17285156,-198.28125,-129.125,46.40625
430,430,1727287002664,-1.0,0.06640625,-0.40527344,-275.53125,-117.03125,7.40625
431,431,1727287002704,-0.8876953,0.26367188,-0.13671875,-162.375,-93.40625,-6.59375
432,432,1727287002744,-1.2167969,0.15917969,0.53027344,-184.96875,-48.25,-14.6875
433,433,1727287002784,-1.1318359,0.19921875,-0.09082031,-60.9375,-154.3125,-9.5
434,434,1727287002824,-0.99316406,-0.15332031,0.10839844,-156.03125,-45.875,-61.75
435,435,1727287002864,-0.85253906,0.111328125,0.16113281,-70.15625,-102.0625,-83.5
436,436,1727287002904,-0.6425781,-0.076171875,0.08496094,-43.46875,-119.78125,-77.875
437,437,1727287002944,-0.3671875,0.07128906,0.3544922,4.0,-117.09375,-61.75
438,438,1727287002984,-0.29492188,-0.08886719,0.34570312,-21.375,-55.9375,-19.59375
439,439,1727287003024,-0.3095703,-0.265625,0.33496094,-6.0,-28.28125,1.40625
440,440,1727287003064,-0.375,-0.39257812,0.4892578,7.40625,4.125,14.34375
441,441,1727287003104,-0.57910156,-0.60546875,0.73046875,12.25,54.1875,10.625
442,442,1727287003144,-1.1787109,-0.9169922,0.7705078,29.4375,86.8125,-4.75
443,443,1727287003184,-0.6347656,0.4951172,0.31640625,-6.125,89.375,7.8125
444,444,1727287003224,-2.0117188,-0.39746094,0.92871094,51.1875,13.875,15.03125
445,445,1727287003264,-0.38476562,0.36328125,0.7246094,76.375,106.59375,50.3125
446,446,1727287003304,-0.5029297,0.25585938,-0.15332031,-77.0,100.1875,93.625
447,447,1727287003344,-1.3017578,0.15527344,0.0126953125,-112.75,143.09375,41.28125
448,448,1727287003384,-1.2451172,0.13183594,0.044921875,-23.46875,99.875,29.3125
449,449,1727287003424,-1.1201172,0.14550781,0.016601562,-4.84375,149.15625,7.59375
450,450,1727287003464,-0.9511719,0.1171875,-0.009765625,-8.21875,39.9375,44.25
451,451,1727287003504,-1.109375,0.22265625,-0.0234375,-14.5,62.21875,51.46875
452,452,1727287003544,-0.9628906,0.09277344,-0.08203125,-5.65625,63.9375,60.3125
453,453,1727287003584,-0.9902344,-0.028320312,-0.07910156,0.15625,38.90625,60.8125
454,454,1727287003624,-1.1328125,-0.22070312,-0.09765625,52.71875,15.84375,43.96875
455,455,1727287003664,-0.9638672,-0.328125,-0.0390625,62.65625,8.53125,-11.15625
456,456,1727287003704,-0.99121094,-0.08203125,-0.0703125,20.46875,-2.46875,-25.375
457,457,1727287003744,-0.9550781,0.09667969,-0.11816406,-15.78125,-2.84375,-33.3125
458,458,1727287003784,-1.0087891,0.24902344,-0.14453125,-20.03125,10.46875,-32.65625
459,459,1727287003824,-0.8808594,0.12695312,-0.11035156,-0.28125,2.78125,-19.53125
460,460,1727287003864,-0.92871094,0.20507812,0.047851562,-9.84375,57.84375,-21.65625
461,461,1727287003904,-0.90527344,0.15136719,0.13867188,-67.71875,22.96875,-11.03125
462,462,1727287003944,-1.0947266,-0.0625,-0.009765625,-73.21875,28.125,-3.40625
463,463,1727287003984,-1.0371094,-0.005859375,-0.14453125,-81.8125,39.9375,-12.625
464,464,1727287004024,-1.28125,0.060546875,0.08886719,-48.4375,75.46875,-8.59375
465,465,1727287004064,-1.640625,0.005859375,-0.13183594,-81.3125,21.9375,-16.71875
466,466,1727287004104,-1.4042969,0.2998047,0.24316406,-85.34375,64.3125,-34.15625
467,467,1727287004144,-1.0839844,0.19921875,-0.12988281,-100.5,-59.59375,-6.75
468,468,1727287004184,-1.1943359,0.30078125,-0.32226562,-86.9375,-67.84375,-14.8125
469,469,1727287004224,-1.1074219,0.56933594,-0.091796875,-74.6875,-110.3125,0.625
470,470,1727287004264,-1.1376953,0.44628906,-0.32617188,-150.0,-113.5,11.4375
471,471,1727287004304,-1.0195312,0.3251953,-0.28808594,-69.84375,-131.875,21.3125
472,472,1727287004344,-0.8388672,0.2705078,-0.20507812,-56.0,-112.5625,23.15625
473,473,1727287004384,-1.0605469,-0.0107421875,0.0234375,-236.1875,-96.40625,-2.90625
474,474,1727287004424,-0.95410156,-0.14453125,-0.024414062,-146.375,-59.78125,-4.125
475,475,1727287004464,-0.9609375,0.09667969,0.1484375,-73.625,-20.59375,-65.40625
476,476,1727287004504,-0.78027344,-0.038085938,0.03125,-34.375,-28.84375,-71.59375
477,477,1727287004544,-0.5498047,0.06640625,0.095703125,-0.5,-56.0625,-62.125
478,478,1727287004584,-0.33496094,-0.13378906,0.29492188,46.53125,-26.625,-37.53125
479,479,1727287004624,-0.5625,-0.056640625,0.4873047,67.21875,33.96875,5.875
480,480,1727287004664,-0.6894531,-0.171875,0.31347656,-18.40625,69.8125,9.34375
481,481,1727287004704,-1.359375,0.7626953,0.6279297,-52.59375,115.5625,61.34375
482,482,1727287004744,-1.53125,0.06738281,-0.56640625,74.1875,109.59375,50.96875
483,483,1727287004784,-1.2695312,-0.021484375,-0.041015625,-21.28125,73.8125,43.28125
484,484,1727287004824,-1.1513672,0.14257812,0.0234375,26.40625,35.375,60.375
485,485,1727287004864,-1.2246094,0.057617188,-0.2109375,72.46875,41.78125,64.78125
486,486,1727287004904,-1.1455078,0.12402344,-0.020507812,57.53125,-9.96875,59.59375
487,487,1727287004944,-1.0244141,-0.08300781,-0.040039062,23.34375,-4.125,18.9375
488,488,1727287004984,-0.7626953,-0.053710938,-0.0068359375,12.375,21.03125,-11.46875
489,489,1727287005024,-0.6972656,0.095703125,0.005859375,-19.5,44.40625,-13.28125
490,490,1727287005064,-0.7578125,0.017578125,0.12011719,49.09375,25.65625,-2.78125
491,491,1727287005104,-0.73535156,-0.06347656,-0.0546875,58.03125,21.09375,-12.8125
492,492,1727287005144,-0.8535156,0.1484375,-0.021484375,76.6875,35.8125,-11.40625
493,493,1727287005184,-0.95996094,0.16503906,0.11425781,80.53125,14.9375,-0.1875
494,494,1727287005224,-1.1425781,0.047851562,0.02734375,49.53125,8.46875,3.125
495,495,1727287005264,-1.3261719,0.046875,0.08300781,-29.15625,55.9375,-11.59375
496,496,1727287005304,-1.2832031,0.051757812,0.0625,-67.03125,62.15625,-15.5625
497,497,1727287005344,-1.2675781,0.10058594,-0.024414062,-26.03125,38.0,-7.875
498,498,1727287005384,-1.6318359,0.123046875,-0.07421875,-22.3125,5.34375,-1.9375
499,499,1727287005424,-1.1181641,0.19921875,-0.15136719,-62.71875,-7.78125,-16.09375
500,500,1727287005464,-1.1298828,0.5488281,0.2763672,-35.84375,-51.28125,-4.125
501,501,1727287005504,-1.2070312,0.5205078,0.33007812,-37.625,-128.3125,11.25
502,502,1727287005544,-1.1884766,0.23242188,0.2890625,-246.125,-142.3125,14.0
503,503,1727287005584,-0.8935547,0.35546875,-0.484375,-335.34375,-91.65625,-8.15625
504,504,1727287005624,-0.81933594,0.2265625,-0.11328125,-105.875,-50.125,3.0625
505,505,1727287005664,-0.8691406,0.08984375,0.10546875,-26.09375,-36.84375,13.5625
506,506,1727287005704,-1.6337891,-0.578125,0.22851562,-136.0,-18.15625,-103.4375
507,507,1727287005744,-0.83203125,0.24023438,0.16210938,-42.3125,-117.875,-63.59375
508,508,1727287005784,-0.63378906,0.16210938,0.11621094,-31.71875,-107.375,-70.71875
509,509,1727287005824,-0.6503906,-0.052734375,0.20996094,-25.0,-83.15625,-58.03125
510,510,1727287005864,-0.5527344,-0.09667969,0.28808594,-9.5,-67.53125,-51.4375
511,511,1727287005904,-0.5205078,-0.24316406,0.40429688,29.9375,-47.9375,-25.5
512,512,1727287005944,-0.34960938,-0.3173828,0.47753906,34.65625,-13.09375,6.59375
513,513,1727287005984,-0.55078125,-0.6582031,0.65234375,15.84375,50.6875,17.15625
514,514,1727287006024,-0.99316406,-0.7753906,0.7060547,5.96875,93.59375,20.9375
515,515,1727287006064,-0.72558594,0.19042969,1.1455078,82.375,69.0625,37.4375
516,516,1727287006104,-0.671875,0.5253906,0.12109375,-11.125,30.625,23.8125
517,517,1727287006144,-0.40625,0.06640625,0.01953125,3.09375,92.375,42.5
518,518,1727287006184,-1.6132812,0.22558594,0.21777344,-95.84375,140.71875,60.4375
519,519,1727287006224,-1.0283203,0.034179688,-0.125,18.15625,128.6875,17.09375
520,520,1727287006264,-1.0732422,0.15136719,0.02734375,-31.21875,86.28125,38.65625
521,521,1727287006304,-1.1347656,0.107421875,-0.04296875,44.34375,71.3125,34.75
522,522,1727287006344,-0.9667969,0.09765625,-0.025390625,-25.46875,53.1875,23.15625
523,523,1727287006384,-0.9794922,0.16210938,-0.044921875,-30.1875,40.1875,22.84375
524,524,1727287006424,-0.9199219,0.12597656,-0.10449219,-4.125,19.3125,37.5625
525,525,1727287006464,-0.99609375,0.12011719,-0.171875,15.28125,13.03125,53.59375
526,526,1727287006504,-1.0380859,-0.11621094,-0.09082031,72.84375,12.59375,35.65625
527,527,1727287006544,-1.0859375,-0.14355469,-0.09472656,49.78125,11.21875,-0.84375
528,528,1727287006584,-0.9375,0.024414062,-0.18554688,-65.625,4.78125,-29.03125
529,529,1727287006624,-0.9453125,0.15332031,-0.1328125,-74.625,11.625,-33.6875
530,530,1727287006664,-1.0214844,0.20410156,-0.13378906,-24.75,4.1875,-15.4375
531,531,1727287006704,-0.88964844,0.01953125,-0.10058594,8.8125,-20.96875,-8.65625
532,532,1727287006744,-1.1015625,-0.0009765625,0.10449219,-68.03125,55.6875,-26.65625
533,533,1727287006784,-0.8623047,0.09082031,0.0546875,-73.40625,0.59375,-28.1875
534,534,1727287006824,-0.8095703,0.13476562,0.036132812,-118.8125,17.625,-23.5
535,535,1727287006864,-1.0751953,-0.068359375,-0.03125,-104.21875,33.71875,-8.53125
536,536,1727287006904,-1.0791016,-0.10253906,0.08984375,-81.5625,57.15625,-12.75
537,537,1727287006944,-1.2792969,-0.020507812,-0.03515625,-102.625,55.5625,-13.90625
538,538,1727287006984,-1.2949219,0.22753906,-0.00390625,-87.0,73.53125,-14.40625
539,539,1727287007024,-1.4482422,0.19433594,0.23339844,-56.5,16.40625,-0.21875
540,540,1727287007064,-1.2080078,-0.0107421875,-0.13378906,-40.125,-28.40625,-0.65625
541,541,1727287007104,-1.3447266,0.3671875,-0.04296875,-42.1875,-67.28125,-6.15625
542,542,1727287007144,-1.1601562,0.36328125,-0.26757812,-187.03125,-70.03125,0.125
543,543,1727287007184,-1.0302734,0.33007812,-0.27734375,-125.8125,-90.90625,4.53125
544,544,1727287007224,-1.0585938,0.30566406,-0.22851562,-59.09375,-120.28125,12.34375
545,545,1727287007264,-0.9345703,0.3251953,-0.17089844,-75.15625,-103.375,4.90625
546,546,1727287007304,-0.9550781,0.22753906,0.29003906,-159.875,-140.84375,6.53125
547,547,1727287007344,-0.84472656,0.041015625,-0.14453125,-139.4375,-61.90625,-3.90625
548,548,1727287007384,-0.8876953,0.08105469,-0.11816406,-164.875,2.90625,-20.625
549,549,1727287007424,-1.3740234,-0.2890625,0.15039062,-53.96875,-18.03125,-55.96875
550,550,1727287007464,-0.89941406,0.13378906,0.17382812,52.15625,-117.9375,-67.5625
551,551,1727287007504,-0.3046875,0.14550781,0.15429688,40.625,-67.71875,-43.5
552,552,1727287007544,-0.43847656,0.001953125,0.26464844,-2.40625,-1.5,-22.9375
553,553,1727287007584,-0.7470703,-0.4482422,0.34179688,22.125,36.96875,9.15625
554,554,1727287007624,-0.7783203,-0.3544922,0.2607422,31.53125,64.0,22.96875
555,555,1727287007664,-0.75390625,0.15820312,-0.0048828125,-22.78125,108.125,27.65625
556,556,1727287007704,-2.0117188,0.038085938,0.15625,4.1875,54.21875,46.59375
557,557,1727287007744,-0.828125,0.061523438,0.22558594,27.5625,71.4375,12.65625
558,558,1727287007784,-1.1777344,0.3330078,-0.01953125,8.59375,61.5625,49.09375
559,559,1727287007824,-1.1367188,0.07421875,-0.0234375,66.8125,38.1875,57.125
560,560,1727287007864,-1.0234375,0.083984375,-0.08496094,65.28125,15.0,41.34375
561,561,1727287007904,-0.9375,0.14941406,-0.12597656,64.65625,6.875,28.5
562,562,1727287007944,-0.96875,0.09277344,0.119140625,61.875,-5.71875,28.21875
563,563,1727287007984,-0.9609375,-0.111328125,-0.009765625,68.75,8.75,-4.6875
564,564,1727287008024,-0.8095703,0.0078125,-0.051757812,10.65625,24.25,-21.53125
565,565,1727287008064,-0.875,0.16699219,0.08300781,-7.65625,32.75,-19.9375
566,566,1727287008104,-0.90527344,0.18847656,-0.051757812,40.4375,10.21875,-6.6875
567,567,1727287008144,-0.9169922,0.13378906,-0.059570312,77.0,-0.75,2.09375
568,568,1727287008184,-1.0595703,0.07128906,0.19042969,123.4375,5.71875,8.125
569,569,1727287008224,-1.0605469,0.034179688,-0.0029296875,9.875,3.6875,-3.21875
570,570,1727287008264,-1.0820312,0.055664062,0.15332031,4.71875,57.03125,-12.125
571,571,1727287008304,-1.2050781,0.056640625,-0.046875,-19.0625,34.09375,-13.34375
572,572,1727287008344,-1.3242188,0.20214844,0.0234375,-23.9375,62.65625,-11.46875
573,573,1727287008384,-1.65625,0.21484375,0.005859375,-60.09375,24.5,-6.46875
574,574,1727287008424,-1.2939453,0.16894531,-0.13476562,-72.40625,5.40625,-9.3125
575,575,1727287008464,-1.0791016,0.4921875,0.28125,-33.21875,-64.59375,9.21875
576,576,1727287008504,-1.4277344,0.27929688,0.6386719,-33.46875,-152.96875,33.59375
577,577,1727287008544,-1.2207031,0.16992188,-0.055664062,-282.3125,-156.65625,11.25
578,578,1727287008584,-0.7470703,0.2919922,-0.6796875,-328.6875,-55.75,-7.0
579,579,1727287008624,-0.6074219,0.06738281,0.62890625,-55.09375,-14.125,-3.15625
580,580,1727287008664,-0.5595703,0.15429688,-0.5185547,35.25,-168.3125,36.3125
581,581,1727287008704,-1.3447266,-0.51953125,0.38183594,-149.0625,89.4375,-85.9375
582,582,1727287008744,-0.87109375,0.02734375,0.20996094,72.0,-121.4375,-60.40625
583,583,1727287008784,-0.31347656,0.09667969,0.13867188,-7.03125,-107.15625,-52.71875
584,584,1727287008824,-0.5654297,0.18261719,0.35058594,13.46875,-55.15625,-39.25
585,585,1727287008864,-0.54785156,-0.03125,0.42578125,27.375,-15.21875,-7.3125
586,586,1727287008904,-0.7421875,-0.34570312,0.5048828,6.3125,26.15625,8.6875
587,587,1727287008944,-0.7949219,-0.54296875,0.43847656,19.9375,51.0625,24.5
588,588,1727287008984,-0.8730469,0.39941406,0.4794922,-79.4375,103.90625,11.3125
589,589,1727287009024,-2.0117188,-0.06933594,0.2919922,59.3125,61.4375,40.78125
590,590,1727287009064,-0.77246094,0.15625,0.33789062,-11.125,69.84375,19.71875
591,591,1727287009104,-1.1699219,0.099609375,-0.12402344,6.25,57.28125,46.21875
592,592,1727287009144,-1.3466797,0.025390625,-0.04296875,50.5,44.90625,38.21875
593,593,1727287009184,-1.1191406,0.057617188,-0.12597656,74.6875,35.0625,30.59375
594,594,1727287009224,-0.9951172,0.1484375,0.0546875,82.75,3.09375,35.21875
595,595,1727287009264,-0.93847656,0.02734375,0.09082031,90.84375,-16.625,19.65625
596,596,1727287009304,-0.84765625,0.001953125,0.087890625,66.8125,16.21875,-7.5625
597,597,1727287009344,-0.72265625,0.15136719,0.14550781,25.375,31.46875,-15.625
598,598,1727287009384,-0.7060547,0.08496094,0.021484375,51.1875,21.625,-8.15625
599,599,1727287009424,-0.83691406,0.060546875,0.049804688,109.59375,2.21875,-1.75
600,600,1727287009464,-0.89160156,0.0048828125,0.025390625,60.75,27.4375,-7.5625
601,601,1727287009504,-1.0195312,0.13574219,-0.08203125,44.34375,34.15625,-6.8125
602,602,1727287009544,-1.1318359,0.1640625,0.140625,52.09375,34.8125,-7.75
603,603,1727287009584,-1.1220703,0.19726562,0.13085938,13.9375,44.21875,-8.34375
604,604,1727287009624,-1.1787109,0.16210938,0.048828125,-20.15625,65.03125,-9.8125
605,605,1727287009664,-1.2636719,0.15917969,0.1484375,-60.9375,63.625,-5.0625
606,606,1727287009704,-1.6337891,0.041992188,-0.111328125,-40.75,23.71875,0.125
607,607,1727287009744,-1.2353516,0.24511719,-0.087890625,-50.8125,15.34375,-5.65625
608,608,1727287009784,-1.0068359,0.4296875,0.36914062,39.875,-64.96875,15.625
609,609,1727287009824,-1.2558594,0.25683594,0.13964844,-112.6875,-129.46875,25.15625
610,610,1727287009864,-1.2412109,0.16015625,0.07324219,-202.84375,-129.90625,14.78125
611,611,1727287009904,-1.0986328,0.1875,-0.19726562,-190.03125,-88.96875,2.625
612,612,1727287009944,-0.7128906,0.21777344,-0.27441406,-171.96875,-35.90625,-28.96875
613,613,1727287009984,-0.67871094,0.20507812,0.19726562,21.75,-49.40625,-11.78125
614,614,1727287010024,-1.0595703,-0.37304688,0.12207031,-45.5,-44.28125,-34.59375
615,615,1727287010064,-1.0351562,-0.016601562,0.28222656,-83.78125,-44.28125,-60.96875
616,616,1727287010104,-0.55566406,0.29492188,0.1171875,1.875,-86.21875,-59.4375
617,617,1727287010144,-0.5859375,0.0087890625,0.22460938,-29.5,-55.625,-57.65625
618,618,1727287010184,-0.65527344,-0.032226562,0.3642578,23.40625,-41.71875,-39.90625
619,619,1727287010224,-0.47558594,-0.171875,0.29589844,37.15625,-6.625,-3.71875
620,620,1727287010264,-0.79785156,-0.4111328,0.453125,26.03125,63.09375,19.3125
621,621,1727287010304,-0.9580078,-0.3798828,0.16503906,-11.75,95.75,17.71875
622,622,1727287010344,-1.1113281,0.14648438,0.8076172,20.1875,99.9375,22.40625
623,623,1727287010384,-1.4501953,-0.08984375,0.328125,37.25,13.59375,4.21875
624,624,1727287010424,-0.3623047,0.26757812,0.1328125,89.15625,35.75,37.0
625,625,1727287010464,-1.1660156,0.2529297,0.026367188,6.5625,59.0,85.8125
626,626,1727287010504,-1.2871094,-0.1328125,-0.13867188,89.4375,60.03125,37.96875
627,627,1727287010544,-1.0869141,0.0126953125,-0.045898438,120.75,-15.96875,24.125
628,628,1727287010584,-1.0302734,0.10058594,0.16601562,92.75,1.875,8.0
629,629,1727287010624,-0.90722656,0.07519531,-0.025390625,98.90625,14.3125,-9.21875
630,630,1727287010664,-0.83203125,0.16015625,0.06738281,58.5625,25.71875,-16.15625
631,631,1727287010704,-0.8623047,0.10839844,0.13769531,39.84375,21.8125,-14.6875
632,632,1727287010744,-0.9316406,0.017578125,0.09375,89.5,-2.65625,-12.0
633,633,1727287010784,-0.87109375,0.12011719,-0.024414062,105.625,-5.75,-12.6875
634,634,1727287010824,-0.953125,0.20117188,0.0048828125,59.84375,3.8125,-3.40625
635,635,1727287010864,-1.0117188,0.12695312,0.0703125,72.125,-5.875,5.3125
636,636,1727287010904,-0.9785156,0.12207031,0.049804688,24.21875,29.28125,2.75
637,637,1727287010944,-1.0976562,-0.01953125,0.15234375,30.0625,42.75,1.53125
638,638,1727287010984,-1.2148438,-0.14453125,0.17871094,13.40625,69.5625,-16.34375
639,639,1727287011024,-1.2226562,0.06933594,-0.018554688,-62.53125,103.84375,-29.59375
640,640,1727287011064,-1.5136719,0.23730469,0.04296875,-91.53125,79.75,-22.6875
641,641,1727287011104,-1.2207031,0.3486328,-0.0009765625,-14.96875,29.9375,-16.84375
642,642,1727287011144,-1.2294922,0.42089844,0.19726562,3.9375,-20.40625,-0.21875
643,643,1727287011184,-1.2285156,0.2939453,0.029296875,-20.90625,-83.71875,20.8125
644,644,1727287011224,-1.3291016,0.20117188,0.14550781,-90.40625,-131.5,21.375
645,645,1727287011264,-1.2695312,0.19140625,0.33203125,-132.03125,-201.1875,22.40625
646,646,1727287011304,-0.81640625,0.43554688,-0.28515625,-358.25,-81.8125,3.96875
647,647,1727287011344,-0.5908203,0.34277344,-0.31347656,-228.53125,-26.875,8.125
648,648,1727287011384,-0.60058594,0.27148438,-0.22753906,28.0625,-57.34375,40.125
649,649,1727287011424,-1.0839844,-0.5683594,0.57128906,48.6875,41.40625,-12.1875
650,650,1727287011464,-1.0537109,-0.047851562,0.3828125,-76.1875,-30.3125,-54.1875
651,651,1727287011504,-0.5019531,0.20410156,0.047851562,0.65625,-95.78125,-57.1875
652,652,1727287011544,-0.7421875,0.015625,0.29101562,-41.78125,-49.90625,-60.28125
653,653,1727287011584,-0.7109375,-0.08203125,0.34570312,2.84375,-35.375,-52.28125
654,654,1727287011624,-0.60546875,-0.15039062,0.4716797,8.46875,5.40625,-39.65625
655,655,1727287011664,-0.8203125,-0.45996094,0.3984375,18.90625,31.65625,-18.1875
656,656,1727287011704,-0.76953125,-0.7402344,0.50390625,55.21875,61.3125,-6.8125
657,657,1727287011744,-0.24902344,0.22167969,0.2734375,-31.46875,88.28125,25.71875
658,658,1727287011784,-1.828125,-0.26660156,1.0839844,80.53125,134.5,108.59375
659,659,1727287011824,-0.8828125,0.328125,0.29492188,71.9375,-15.28125,3.125
660,660,1727287011864,-0.7988281,0.51464844,-0.14160156,-43.3125,96.15625,41.03125
661,661,1727287011904,-1.4150391,0.31640625,-0.047851562,-22.3125,101.28125,68.3125
662,662,1727287011944,-1.0859375,-0.068359375,-0.18164062,62.59375,84.875,46.40625
663,663,1727287011984,-0.95410156,0.016601562,-0.024414062,95.625,15.90625,39.375
664,664,1727287012024,-0.86816406,0.20214844,-0.07519531,65.40625,9.8125,31.25
665,665,1727287012064,-1.0664062,0.32714844,0.17089844,10.84375,17.4375,33.65625
666,666,1727287012104,-0.9921875,-0.10058594,0.1328125,21.75,1.1875,26.3125
667,667,1727287012144,-0.91015625,-0.15820312,0.01953125,29.75,-3.125,2.03125
668,668,1727287012184,-0.7998047,-0.0107421875,-0.08300781,72.53125,-3.9375,-17.03125
669,669,1727287012224,-0.75390625,0.061523438,0.015625,-46.78125,26.03125,-22.5625
670,670,1727287012264,-0.9638672,0.18457031,0.1640625,36.96875,26.15625,-18.40625
671,671,1727287012304,-0.9189453,0.0625,0.087890625,37.25,12.90625,-5.0625
672,672,1727287012344,-0.9501953,0.08496094,0.40722656,-33.78125,28.21875,-17.1875
673,673,1727287012384,-1.0292969,-0.12207031,0.044921875,-134.375,41.78125,-29.40625
674,674,1727287012424,-1.0390625,0.0078125,-0.26660156,-124.53125,39.78125,-42.96875
675,675,1727287012464,-1.4589844,0.22949219,-0.21679688,46.125,84.5,-3.96875
676,676,1727287012504,-1.4326172,0.54589844,0.26757812,-69.65625,33.90625,2.15625
677,677,1727287012544,-1.453125,-0.21289062,-0.5644531,-96.40625,12.1875,20.09375
678,678,1727287012584,-0.9169922,0.36035156,0.13964844,-39.28125,87.9375,-28.625
679,679,1727287012624,-1.3720703,0.29882812,-0.0390625,-6.125,-76.8125,12.875
680,680,1727287012664,-1.0117188,0.119140625,-0.24707031,-138.75,-67.28125,-19.15625
681,681,1727287012704,-0.828125,0.17382812,-0.28222656,-170.875,-81.375,-34.84375
682,682,1727287012744,-1.0498047,0.4296875,-0.31152344,-110.25,-69.1875,-30.9375
683,683,1727287012784,-0.92871094,0.38476562,-0.16113281,-70.53125,-81.5,-12.4375
684,684,1727287012824,-0.90625,0.35546875,-0.0009765625,-44.875,-88.59375,4.28125
685,685,1727287012864,-0.8105469,0.26464844,-0.04296875,-140.71875,-96.28125,2.03125
686,686,1727287012904,-1.0761719,0.15136719,0.11035156,-69.0,-83.15625,-3.40625
687,687,1727287012944,-0.9746094,0.083984375,0.10449219,-169.46875,-41.71875,-15.84375
688,688,1727287012984,-1.5146484,-0.3017578,0.34765625,-183.8125,-12.0,-78.25
689,689,1727287013024,-0.8886719,0.3466797,0.072265625,-34.875,-102.0625,-30.09375
690,690,1727287013064,-0.5878906,0.05859375,0.22265625,-39.15625,-84.0,-19.03125
691,691,1727287013104,-0.5263672,-0.046875,0.171875,-88.53125,-50.25,-17.5625
692,692,1727287013144,-0.8066406,-0.38867188,0.375,-73.03125,-7.28125,-17.5625
693,693,1727287013184,-0.9169922,-0.7050781,0.36914062,-28.65625,-22.5625,-29.90625
694,694,1727287013224,-0.61328125,-0.38183594,0.37695312,41.84375,-60.5625,-13.0625
695,695,1727287013264,-0.48339844,-0.22753906,0.40527344,35.125,-29.375,3.71875
696,696,1727287013304,-0.7246094,-0.14453125,0.6376953,24.375,13.21875,27.65625
697,697,1727287013344,-0.7861328,-0.31347656,0.7753906,-1.625,47.03125,25.21875
698,698,1727287013384,-0.6660156,-0.07128906,0.47851562,-24.9375,96.84375,58.25
699,699,1727287013424,-2.0117188,-0.43554688,-0.0048828125,-32.5625,111.71875,45.375
700,700,1727287013464,-0.6748047,0.5048828,0.36816406,63.6875,59.78125,12.09375
701,701,1727287013504,-1.1005859,0.359375,-0.08105469,-64.0625,122.90625,64.40625
702,702,1727287013544,-1.3085938,-0.06347656,-0.032226562,101.46875,108.3125,44.875
703,703,1727287013584,-1.2138672,0.0,0.045898438,61.875,34.9375,61.0
704,704,1727287013624,-1.1777344,0.1640625,0.08984375,84.75,-11.5,55.6875
705,705,1727287013664,-1.1025391,-0.04296875,-0.047851562,66.1875,-8.625,22.03125
706,706,1727287013704,-0.84375,0.07714844,-0.0546875,69.5,4.125,-8.34375
707,707,1727287013744,-0.7324219,0.20410156,-0.061523438,8.75,36.15625,-17.375
708,708,1727287013784,-0.76171875,0.08203125,0.18261719,-7.34375,34.34375,-8.84375
709,709,1727287013824,-0.76171875,-0.14160156,-0.0068359375,37.75,17.84375,-6.8125
710,710,1727287013864,-0.7939453,0.0009765625,-0.0009765625,47.875,20.59375,-17.9375
711,711,1727287013904,-0.8378906,0.14746094,0.08496094,22.625,35.0,-14.34375
712,712,1727287013944,-1.0302734,0.16601562,0.0048828125,4.4375,22.0625,-6.59375
713,713,1727287013984,-1.1367188,0.20996094,-0.07421875,-10.28125,31.21875,-7.4375
714,714,1727287014024,-1.3583984,0.13574219,0.10546875,-48.84375,78.53125,-5.0625
715,715,1727287014064,-1.3984375,0.11621094,0.078125,-88.46875,38.65625,-3.96875
716,716,1727287014104,-1.5585938,0.12402344,-0.16601562,-86.03125,5.21875,-3.21875
717,717,1727287014144,-1.1455078,0.29101562,-0.1875,-124.1875,-10.21875,-15.96875
718,718,1727287014184,-1.1357422,0.5263672,-0.15234375,-117.46875,-29.09375,-11.09375
719,719,1727287014224,-1.296875,0.45996094,0.14648438,43.84375,-142.1875,49.75
720,720,1727287014264,-1.0390625,0.20019531,0.041992188,-144.875,-129.25,49.8125
721,721,1727287014304,-0.79296875,0.16503906,-0.29589844,-328.6875,-39.46875,18.125
722,722,1727287014344,-0.71777344,0.051757812,-0.3154297,-153.59375,-42.5,9.71875
723,723,1727287014384,-0.91015625,0.119140625,0.016601562,-64.59375,-25.96875,0.5
724,724,1727287014424,-1.0390625,-0.5390625,0.044921875,-110.125,-17.4375,-43.9375
725,725,1727287014464,-1.0039062,0.099609375,0.31347656,-101.90625,-69.59375,-80.1875
726,726,1727287014504,-0.65625,0.25585938,0.013671875,-19.5,-95.4375,-62.3125
727,727,1727287014544,-0.70214844,0.07519531,0.19921875,6.625,-76.375,-50.15625
728,728,1727287014584,-0.578125,0.07128906,0.21875,19.8125,-64.0,-25.4375
729,729,1727287014624,-0.59277344,-0.045898438,0.36328125,3.9375,4.96875,-5.3125
730,730,1727287014664,-0.8691406,-0.4189453,0.47070312,-9.625,45.8125,11.65625
731,731,1727287014704,-0.91503906,-0.5488281,0.29785156,-14.8125,66.125,12.71875
732,732,1727287014744,-0.9736328,-0.07910156,0.1796875,-82.0625,120.75,8.625
733,733,1727287014784,-2.0117188,-0.0546875,0.41015625,20.125,91.21875,61.0
734,734,1727287014824,-0.82714844,0.2939453,0.23828125,49.28125,69.625,18.3125
735,735,1727287014864,-1.0791016,0.31835938,0.12695312,7.46875,82.3125,34.25
736,736,1727287014904,-1.1064453,0.29492188,0.016601562,18.78125,46.0625,45.71875
737,737,1727287014944,-1.0966797,0.23046875,-0.13183594,24.8125,22.1875,45.125
738,738,1727287014984,-0.9453125,0.20605469,-0.041015625,2.34375,22.625,39.375
739,739,1727287015024,-0.96875,0.07421875,-0.06933594,44.34375,15.78125,52.5
740,740,1727287015064,-1.0322266,-0.0087890625,0.03515625,86.21875,-6.9375,45.59375
741,741,1727287015104,-0.98828125,-0.171875,-0.017578125,59.375,14.6875,2.5
742,742,1727287015144,-0.87109375,-0.06542969,-0.0859375,44.96875,0.09375,-18.53125
743,743,1727287015184,-0.92578125,0.12695312,-0.078125,19.0625,-5.21875,-21.53125
744,744,1727287015224,-0.7998047,0.22851562,-0.041015625,17.375,9.4375,-26.53125
745,745,1727287015264,-0.9482422,0.22363281,0.091796875,-57.875,31.65625,-17.9375
746,746,1727287015304,-0.9404297,0.07519531,-0.026367188,-34.4375,18.65625,-5.96875
747,747,1727287015344,-0.9013672,0.0087890625,-0.015625,3.9375,14.0625,-3.34375
748,748,1727287015384,-1.0996094,0.038085938,0.087890625,-41.65625,28.15625,-6.8125
749,749,1727287015424,-0.97558594,-0.0048828125,0.013671875,-61.0625,27.1875,-6.6875
750,750,1727287015464,-0.9892578,0.032226562,-0.12109375,-55.75,47.03125,-8.53125
751,751,1727287015504,-1.3701172,0.09472656,-0.10253906,-30.46875,69.6875,-3.46875
752,752,1727287015544,-1.4365234,0.115234375,0.036132812,-23.90625,80.96875,-4.5
753,753,1727287015584,-1.7880859,0.12402344,-0.07421875,-37.0,48.9375,3.3125
754,754,1727287015624,-0.9824219,0.3076172,-0.1015625,-66.8125,43.3125,-18.40625
755,755,1727287015664,-1.1025391,0.3359375,0.099609375,-31.15625,-35.25,0.625
756,756,1727287015704,-1.0117188,0.22949219,0.19238281,-38.1875,-92.96875,15.09375
757,757,1727287015744,-0.97558594,0.005859375,-0.34570312,-133.03125,-109.71875,5.8125
758,758,1727287015784,-1.1386719,0.015625,0.14550781,-171.15625,-78.625,-20.4375
759,759,1727287015824,-1.0761719,0.43847656,-0.111328125,-116.375,-95.96875,-25.375
