,Unnamed: 0,timestamp,accel_x,accel_y,accel_z,gyro_x,gyro_y,gyro_z
0,0,1727174693004,-0.9199219,0.08496094,0.16992188,-77.3125,-51.8125,-60.8125
1,1,1727174693044,-0.77734375,0.06640625,0.13378906,-24.8125,-52.75,-58.375
2,2,1727174693084,-0.81640625,0.01171875,0.111328125,-27.875,-46.8125,-58.25
3,3,1727174693124,-0.85253906,-0.123046875,0.19726562,10.875,-52.90625,-54.21875
4,4,1727174693164,-0.8574219,-0.01171875,0.20800781,15.15625,-42.5,-60.15625
5,5,1727174693204,-0.83691406,-0.030273438,0.24511719,10.21875,-44.625,-61.0
6,6,1727174693244,-0.7910156,-0.19921875,0.33789062,16.625,-33.21875,-43.3125
7,7,1727174693284,-0.73535156,-0.1015625,0.3251953,33.21875,-25.6875,-41.59375
8,8,1727174693324,-0.66796875,-0.12597656,0.32714844,20.71875,-19.0625,-29.9375
9,9,1727174693364,-0.70996094,-0.25976562,0.40429688,14.0,-7.625,-22.1875
10,10,1727174693404,-0.68066406,-0.26757812,0.39257812,19.6875,9.03125,-18.03125
11,11,1727174693444,-0.6435547,-0.20800781,0.32421875,15.53125,15.8125,-12.34375
12,12,1727174693484,-0.7246094,-0.31835938,0.46679688,10.9375,22.53125,1.6875
13,13,1727174693524,-0.96972656,-0.12988281,0.61035156,21.5625,-6.15625,4.5625
14,14,1727174693564,-0.9033203,-0.296875,0.69628906,-5.40625,19.28125,5.40625
15,15,1727174693604,-0.8544922,-0.23632812,0.5214844,2.28125,24.96875,12.3125
16,16,1727174693644,-0.9042969,-0.14257812,0.52734375,19.84375,19.84375,18.46875
17,17,1727174693684,-0.91308594,-0.09277344,0.3125,6.625,25.625,27.5625
18,18,1727174693724,-0.9638672,-0.23535156,0.22070312,-2.65625,36.625,35.8125
19,19,1727174693764,-1.1699219,-0.15039062,0.22949219,-18.65625,62.125,35.4375
20,20,1727174693804,-1.0185547,-0.09472656,0.15527344,-11.34375,65.0625,33.0
21,21,1727174693844,-0.95703125,-0.107421875,0.064453125,-29.53125,78.5,33.0625
22,22,1727174693884,-0.93847656,-0.11230469,0.041992188,-43.1875,78.5,30.0625
23,23,1727174693924,-1.0273438,-0.05078125,0.017578125,-35.375,78.59375,33.0
24,24,1727174693964,-1.0996094,-0.13476562,0.0859375,-30.375,68.53125,40.6875
25,25,1727174694004,-0.94921875,-0.11425781,0.15722656,7.96875,35.59375,41.71875
26,26,1727174694044,-0.8886719,0.047851562,0.046875,70.46875,10.4375,40.4375
27,27,1727174694084,-0.95214844,-0.10058594,-0.07324219,91.75,25.8125,40.1875
28,28,1727174694124,-0.8066406,-0.00390625,0.026367188,59.40625,47.53125,35.375
29,29,1727174694164,-0.8857422,0.07324219,0.046875,22.1875,32.46875,30.1875
30,30,1727174694204,-0.8701172,-0.06542969,-0.0234375,-28.65625,19.84375,23.90625
31,31,1727174694244,-0.9345703,-0.12988281,0.083984375,23.03125,10.875,7.1875
32,32,1727174694284,-0.9873047,-0.12695312,-0.17675781,60.8125,-7.875,-0.625
33,33,1727174694324,-0.96972656,0.001953125,-0.19042969,10.59375,21.46875,-9.59375
34,34,1727174694364,-1.0185547,0.16992188,-0.0546875,-71.15625,30.03125,-13.5625
35,35,1727174694404,-0.9638672,0.10546875,-0.015625,-26.15625,8.78125,-0.09375
36,36,1727174694444,-0.9189453,0.0078125,-0.26953125,-17.875,9.15625,7.71875
37,37,1727174694484,-0.9589844,0.0625,-0.06542969,-15.84375,12.09375,8.65625
38,38,1727174694524,-0.9980469,0.016601562,-0.10546875,13.375,13.71875,14.625
39,39,1727174694564,-0.99902344,0.16210938,-0.07324219,-9.1875,16.59375,15.71875
40,40,1727174694604,-1.0390625,0.08496094,-0.20410156,-21.90625,1.40625,12.375
41,41,1727174694644,-1.0478516,0.034179688,-0.171875,-9.8125,1.875,10.84375
42,42,1727174694684,-1.0,0.02734375,-0.22753906,-15.90625,2.8125,10.71875
43,43,1727174694724,-1.0009766,0.041992188,-0.16113281,2.15625,1.09375,10.90625
44,44,1727174694764,-1.0097656,0.103515625,-0.1875,1.1875,3.59375,16.875
45,45,1727174694804,-0.99609375,0.076171875,-0.203125,10.34375,6.03125,15.1875
46,46,1727174694844,-1.1259766,0.09667969,-0.095703125,13.6875,4.34375,12.84375
47,47,1727174694884,-1.1542969,0.14746094,-0.23144531,27.5,15.5,24.5
48,48,1727174694924,-1.0800781,0.234375,-0.1875,24.96875,7.5,19.6875
49,49,1727174694964,-1.1689453,0.484375,0.16699219,-6.21875,-30.34375,2.40625
50,50,1727174695004,-1.0830078,0.01953125,0.12988281,-47.84375,-69.84375,-11.75
51,51,1727174695044,-1.1142578,-0.06933594,0.0146484375,-94.8125,-92.09375,-43.71875
52,52,1727174695084,-1.0800781,0.16113281,-0.111328125,-12.25,-82.46875,-50.75
53,53,1727174695124,-1.1816406,0.2919922,0.16601562,-37.8125,-69.03125,-46.53125
54,54,1727174695164,-0.99316406,0.29785156,-0.033203125,12.28125,-71.53125,-31.09375
55,55,1727174695204,-0.92578125,0.09667969,-0.026367188,-41.53125,-49.1875,-39.75
56,56,1727174695244,-0.9423828,0.0390625,0.20605469,-97.6875,-40.09375,-54.21875
57,57,1727174695284,-0.8232422,-0.024414062,0.08496094,-43.375,-54.3125,-54.28125
58,58,1727174695324,-0.8183594,-0.061523438,0.171875,9.34375,-62.03125,-54.84375
59,59,1727174695364,-0.78027344,-0.0048828125,0.2109375,-20.5625,-43.03125,-69.0625
60,60,1727174695404,-0.79296875,-0.099609375,0.10644531,13.5625,-58.125,-69.84375
61,61,1727174695444,-0.8408203,-0.17675781,0.27539062,4.53125,-43.65625,-70.59375
62,62,1727174695484,-0.77246094,-0.12402344,0.24902344,33.96875,-45.53125,-64.53125
63,63,1727174695524,-0.7578125,-0.16503906,0.34277344,20.03125,-37.90625,-50.375
64,64,1727174695564,-0.7753906,-0.23242188,0.33984375,18.625,-17.875,-32.6875
65,65,1727174695604,-0.7207031,-0.33789062,0.3173828,19.5625,-3.1875,-20.78125
66,66,1727174695644,-0.6640625,-0.2529297,0.3388672,22.3125,0.59375,-21.3125
67,67,1727174695684,-0.6044922,-0.2734375,0.31933594,30.46875,8.96875,-14.0625
68,68,1727174695724,-0.64160156,-0.39453125,0.5185547,19.3125,-3.78125,-12.71875
69,69,1727174695764,-0.6464844,-0.20117188,0.27539062,17.15625,15.125,-5.46875
70,70,1727174695804,-0.8300781,-0.14355469,0.6689453,-3.6875,24.03125,12.0
71,71,1727174695844,-0.9746094,-0.5517578,0.5908203,9.78125,6.34375,-10.78125
72,72,1727174695884,-0.5839844,-0.1484375,0.43066406,-7.0,9.09375,0.78125
73,73,1727174695924,-0.890625,-0.26757812,0.63183594,8.75,19.09375,11.9375
74,74,1727174695964,-0.91796875,-0.4091797,0.45703125,-7.84375,20.25,8.40625
75,75,1727174696004,-0.8642578,-0.10546875,0.4765625,7.21875,22.875,17.90625
76,76,1727174696044,-1.0712891,-0.23925781,0.41503906,-11.46875,36.3125,20.3125
77,77,1727174696084,-0.9355469,-0.030273438,0.23925781,-11.6875,56.15625,33.125
78,78,1727174696124,-1.1572266,-0.115234375,0.109375,-35.5625,75.625,48.9375
79,79,1727174696164,-1.1992188,-0.16601562,0.16308594,-52.78125,80.1875,48.625
80,80,1727174696204,-0.8955078,-0.20507812,0.09472656,-31.71875,73.59375,50.5625
81,81,1727174696244,-0.9560547,-0.07714844,0.01953125,-22.25,64.21875,48.75
82,82,1727174696284,-0.9863281,-0.036132812,-0.05078125,-12.3125,62.0,49.34375
83,83,1727174696324,-1.0507812,-0.12109375,-0.01953125,-4.0,52.25,51.375
84,84,1727174696364,-0.95703125,-0.20703125,0.041992188,-9.625,37.84375,54.25
85,85,1727174696404,-0.82910156,-0.07324219,-0.0068359375,57.75,12.75,47.21875
86,86,1727174696444,-0.8251953,-0.048828125,0.032226562,80.03125,27.40625,44.90625
87,87,1727174696484,-0.87890625,0.00390625,0.03515625,64.34375,34.84375,46.1875
88,88,1727174696524,-0.921875,-0.00390625,0.04296875,50.5,25.5625,32.625
89,89,1727174696564,-0.88964844,-0.17285156,-0.041015625,52.4375,23.3125,22.1875
90,90,1727174696604,-0.8769531,-0.049804688,-0.07519531,20.53125,22.9375,5.21875
91,91,1727174696644,-0.98828125,0.036132812,-0.11230469,-3.09375,21.1875,-6.96875
92,92,1727174696684,-0.9472656,0.16015625,-0.06738281,-13.09375,23.5,-7.90625
93,93,1727174696724,-0.9667969,0.107421875,-0.03125,-13.71875,13.375,3.875
94,94,1727174696764,-0.8955078,-0.009765625,-0.15820312,-18.65625,11.65625,12.65625
95,95,1727174696804,-1.0205078,-0.005859375,-0.1484375,-15.65625,14.65625,12.59375
96,96,1727174696844,-0.9873047,0.16503906,-0.11425781,5.28125,12.03125,8.65625
97,97,1727174696884,-1.0224609,0.119140625,-0.26660156,-20.125,3.90625,8.75
98,98,1727174696924,-0.9892578,0.20019531,-0.17773438,2.03125,13.53125,5.71875
99,99,1727174696964,-1.1230469,0.25585938,-0.059570312,0.5625,2.1875,11.21875
100,100,1727174697004,-1.0800781,0.06542969,-0.18261719,-12.84375,-3.78125,14.125
101,101,1727174697044,-1.1025391,0.11621094,-0.140625,2.03125,-12.34375,5.28125
102,102,1727174697084,-1.1699219,0.18359375,-0.20410156,0.09375,-11.65625,7.375
103,103,1727174697124,-1.1699219,0.20800781,-0.17382812,16.9375,-3.125,18.78125
104,104,1727174697164,-1.0585938,0.1953125,-0.140625,31.6875,-9.59375,17.625
105,105,1727174697204,-1.1191406,0.203125,0.12011719,31.40625,-34.0,0.28125
106,106,1727174697244,-0.9453125,0.072265625,0.33398438,-20.59375,-54.6875,-18.65625
107,107,1727174697284,-1.1064453,-0.15722656,0.3779297,-83.65625,-68.125,-40.0625
108,108,1727174697324,-1.1845703,0.171875,-0.14453125,-81.71875,-97.0625,-57.03125
109,109,1727174697364,-0.9355469,0.15429688,0.04296875,-38.6875,-88.125,-31.59375
110,110,1727174697404,-0.95703125,-0.13476562,-0.03515625,-36.53125,-73.4375,-45.6875
111,111,1727174697444,-0.95410156,0.047851562,0.016601562,-30.25,-51.21875,-58.75
112,112,1727174697484,-0.8300781,0.2607422,0.203125,-94.15625,-30.59375,-63.9375
113,113,1727174697524,-0.73046875,0.12695312,0.14648438,-67.59375,-32.15625,-59.21875
114,114,1727174697564,-0.8203125,-0.13964844,0.111328125,-16.21875,-49.25,-52.75
115,115,1727174697604,-0.9296875,-0.12011719,0.25195312,3.25,-50.46875,-60.6875
116,116,1727174697644,-0.8466797,-0.021484375,0.21582031,8.5,-52.4375,-60.625
117,117,1727174697684,-0.8515625,-0.18554688,0.19433594,11.75,-44.125,-49.53125
118,118,1727174697724,-0.81152344,-0.13867188,0.31445312,15.78125,-35.59375,-40.75
119,119,1727174697764,-0.7470703,-0.11035156,0.26953125,20.46875,-32.71875,-37.0
120,120,1727174697804,-0.6923828,-0.30273438,0.2939453,18.03125,-20.5,-24.9375
121,121,1727174697844,-0.671875,-0.31835938,0.36132812,4.0,1.09375,-17.40625
122,122,1727174697884,-0.64746094,-0.27929688,0.34179688,5.15625,9.875,-10.46875
123,123,1727174697924,-0.6269531,-0.3046875,0.31933594,11.96875,23.3125,1.5
124,124,1727174697964,-0.921875,-0.33691406,0.5527344,22.3125,-7.34375,0.71875
125,125,1727174698004,-0.8496094,-0.29785156,0.3984375,22.25,27.40625,4.3125
126,126,1727174698044,-0.80371094,-0.2578125,0.3388672,27.5625,8.96875,-1.6875
127,127,1727174698084,-0.7089844,-0.14550781,0.53515625,-1.5625,14.09375,11.4375
128,128,1727174698124,-0.9453125,-0.30273438,0.45214844,1.90625,19.28125,14.9375
129,129,1727174698164,-0.9550781,-0.2265625,0.40039062,-2.78125,29.15625,18.28125
130,130,1727174698204,-1.0605469,-0.23828125,0.3095703,3.25,34.96875,25.71875
131,131,1727174698244,-1.2041016,-0.14355469,0.29101562,-36.34375,65.84375,39.21875
132,132,1727174698284,-1.1181641,-0.07910156,0.15722656,-17.375,69.875,43.75
133,133,1727174698324,-0.96875,-0.11328125,0.09863281,-11.6875,65.125,45.8125
134,134,1727174698364,-0.90722656,-0.14550781,0.045898438,-23.40625,64.15625,40.8125
135,135,1727174698404,-1.0039062,-0.11425781,-0.029296875,-31.65625,62.0625,38.5
136,136,1727174698444,-1.0878906,-0.16601562,0.025390625,5.21875,58.28125,43.8125
137,137,1727174698484,-1.0,-0.19238281,0.087890625,18.875,42.15625,43.4375
138,138,1727174698524,-0.890625,0.09277344,0.08691406,48.59375,20.625,41.96875
139,139,1727174698564,-0.8828125,0.022460938,-0.030273438,66.96875,21.0625,46.0
140,140,1727174698604,-0.84765625,-0.06738281,-0.022460938,64.96875,40.46875,53.5625
141,141,1727174698644,-0.8515625,-0.032226562,0.013671875,36.03125,37.59375,41.53125
142,142,1727174698684,-0.9345703,-0.1015625,0.044921875,22.125,38.625,25.71875
143,143,1727174698724,-0.9482422,-0.13476562,-0.072265625,60.1875,28.5625,18.46875
144,144,1727174698764,-0.9394531,0.00390625,-0.02734375,-5.46875,27.9375,-2.65625
145,145,1727174698804,-0.95996094,0.05859375,-0.17480469,8.5625,29.15625,-5.28125
146,146,1727174698844,-0.9394531,0.2421875,0.022460938,11.0,20.75,-0.21875
147,147,1727174698884,-0.9404297,-0.01171875,-0.1953125,-18.59375,8.96875,5.53125
148,148,1727174698924,-1.015625,-0.0107421875,-0.12402344,-0.78125,4.8125,9.25
149,149,1727174698964,-0.9716797,0.025390625,-0.13085938,12.21875,12.4375,12.59375
150,150,1727174699004,-0.94628906,0.2890625,-0.10058594,0.8125,13.71875,7.84375
151,151,1727174699044,-1.0478516,0.17285156,-0.13671875,-40.375,5.0,10.78125
152,152,1727174699084,-0.9814453,-0.119140625,-0.3623047,-41.125,2.8125,9.5625
153,153,1727174699124,-1.0371094,0.095703125,-0.27148438,17.96875,5.0,6.4375
154,154,1727174699164,-1.1123047,0.18164062,-0.14550781,20.03125,7.0,9.0625
155,155,1727174699204,-1.1035156,0.2109375,-0.08886719,-2.65625,-6.09375,6.75
156,156,1727174699244,-1.0976562,0.17285156,-0.1875,-9.3125,-16.375,8.46875
157,157,1727174699284,-1.0751953,0.10253906,-0.19824219,1.25,-18.125,9.4375
158,158,1727174699324,-1.1005859,0.12988281,-0.14550781,14.78125,-25.15625,7.25
159,159,1727174699364,-1.0380859,0.13964844,-0.09277344,19.5,-37.34375,2.59375
160,160,1727174699404,-1.0605469,0.17480469,0.061523438,14.4375,-38.03125,-7.84375
161,161,1727174699444,-1.1230469,0.15527344,0.3125,-8.03125,-47.78125,-18.75
162,162,1727174699484,-1.1699219,-0.17773438,0.40625,-62.84375,-59.15625,-34.03125
163,163,1727174699524,-1.1005859,0.115234375,-0.3046875,-86.09375,-83.5625,-46.78125
164,164,1727174699564,-1.0205078,0.39941406,0.037109375,-33.5,-26.0,-41.96875
165,165,1727174699604,-0.8544922,0.15332031,0.05078125,-68.40625,-52.8125,-41.28125
166,166,1727174699644,-0.92578125,-0.16113281,0.05078125,-39.78125,-45.0,-41.90625
167,167,1727174699684,-0.81152344,-0.026367188,0.08203125,-76.15625,-35.71875,-48.78125
168,168,1727174699724,-0.8027344,0.10644531,0.36914062,-86.34375,-29.375,-50.25
169,169,1727174699764,-0.7783203,-0.06347656,0.06933594,-13.28125,-58.78125,-43.59375
170,170,1727174699804,-0.89941406,-0.15527344,0.10546875,-28.59375,-50.40625,-57.34375
171,171,1727174699844,-0.8984375,-0.17773438,0.20410156,-9.1875,-53.28125,-57.59375
172,172,1727174699884,-0.8828125,-0.20117188,0.20214844,21.25,-56.03125,-55.875
173,173,1727174699924,-0.8310547,-0.12207031,0.24902344,18.03125,-44.375,-52.5
174,174,1727174699964,-0.8076172,-0.17578125,0.26660156,17.15625,-35.09375,-43.71875
175,175,1727174700004,-0.70996094,-0.26171875,0.2548828,20.59375,-22.40625,-32.25
176,176,1727174700044,-0.70410156,-0.2861328,0.29785156,21.4375,-2.1875,-22.65625
177,177,1727174700084,-0.67285156,-0.29101562,0.3125,20.15625,9.46875,-18.59375
178,178,1727174700124,-0.6738281,-0.36132812,0.33398438,16.3125,20.9375,-9.375
179,179,1727174700164,-0.79003906,-0.3935547,0.390625,10.34375,17.34375,-10.875
180,180,1727174700204,-0.7626953,-0.24511719,0.2841797,27.96875,16.71875,-4.84375
181,181,1727174700244,-0.84277344,-0.15429688,0.57128906,12.65625,19.78125,4.96875
182,182,1727174700284,-1.1318359,-0.5097656,0.5673828,11.1875,26.59375,-2.59375
183,183,1727174700324,-0.6611328,-0.24121094,0.32714844,15.28125,10.75,1.0
184,184,1727174700364,-0.69628906,-0.15332031,0.49804688,14.5,16.28125,12.5625
185,185,1727174700404,-0.9267578,-0.35742188,0.45214844,0.03125,16.46875,20.96875
186,186,1727174700444,-0.93847656,-0.18359375,0.36523438,2.28125,19.96875,24.8125
187,187,1727174700484,-1.0244141,-0.24609375,0.25390625,-14.9375,40.9375,25.0
188,188,1727174700524,-1.1210938,-0.25976562,0.3564453,-16.40625,51.5625,33.4375
189,189,1727174700564,-1.0126953,-0.05078125,0.30371094,-18.09375,70.78125,37.375
190,190,1727174700604,-0.9003906,-0.19335938,0.15625,-38.4375,76.03125,45.09375
191,191,1727174700644,-1.0126953,-0.2529297,0.03125,-8.84375,65.3125,42.5625
192,192,1727174700684,-1.0703125,-0.15820312,-0.01171875,-1.5625,53.71875,37.8125
193,193,1727174700724,-1.1035156,-0.061523438,0.020507812,20.34375,45.03125,39.53125
194,194,1727174700764,-1.0205078,0.05078125,0.09277344,48.0,26.71875,44.34375
195,195,1727174700804,-0.8886719,0.103515625,0.099609375,46.03125,17.21875,46.96875
196,196,1727174700844,-0.859375,0.03125,0.0126953125,42.9375,18.4375,51.0
197,197,1727174700884,-0.8388672,-0.09277344,0.0126953125,46.53125,26.78125,57.46875
198,198,1727174700924,-0.8847656,-0.005859375,0.12890625,11.0625,25.3125,39.9375
199,199,1727174700964,-0.89746094,-0.22949219,-0.08105469,57.34375,27.03125,23.46875
200,200,1727174701004,-0.8730469,-0.15234375,-0.08886719,23.53125,28.375,8.9375
201,201,1727174701044,-0.9189453,-0.07910156,-0.11328125,17.96875,27.8125,-8.6875
202,202,1727174701084,-0.9873047,0.22265625,-0.05078125,-7.59375,31.6875,-10.65625
203,203,1727174701124,-0.9511719,0.15820312,-0.051757812,40.1875,4.625,2.34375
204,204,1727174701164,-0.9736328,-0.034179688,-0.1484375,9.25,11.15625,0.46875
205,205,1727174701204,-0.95703125,0.051757812,-0.06347656,-23.125,15.1875,-6.8125
206,206,1727174701244,-0.94921875,0.0068359375,-0.12109375,-8.34375,4.4375,0.875
207,207,1727174701284,-1.0273438,0.14453125,-0.06542969,-26.96875,7.5625,-3.3125
208,208,1727174701324,-0.9238281,0.080078125,-0.22558594,-33.0625,9.6875,6.5
209,209,1727174701364,-0.9560547,0.083984375,-0.08496094,-20.5625,14.28125,9.9375
210,210,1727174701404,-1.046875,0.03515625,-0.11035156,-35.9375,14.46875,16.40625
211,211,1727174701444,-0.9951172,-0.00390625,-0.18554688,-28.40625,12.375,15.34375
212,212,1727174701484,-1.0263672,-0.0859375,-0.30664062,3.0,1.71875,12.375
213,213,1727174701524,-1.0498047,0.20214844,-0.10546875,36.21875,6.78125,6.375
214,214,1727174701564,-0.9355469,0.22363281,-0.10644531,-15.59375,0.78125,10.53125
215,215,1727174701604,-0.9609375,0.024414062,-0.091796875,-36.84375,-0.375,12.65625
216,216,1727174701644,-0.9794922,-0.17578125,-0.29003906,-13.40625,-7.6875,11.03125
217,217,1727174701684,-1.1025391,0.107421875,-0.15136719,37.375,3.90625,10.15625
218,218,1727174701724,-1.1767578,0.16796875,-0.15722656,12.15625,2.625,14.0
219,219,1727174701764,-1.2451172,0.13183594,-0.123046875,12.34375,-0.375,17.125
220,220,1727174701804,-1.3027344,0.18164062,-0.107421875,29.125,-7.875,9.1875
221,221,1727174701844,-1.0888672,0.076171875,0.07324219,35.125,-35.96875,1.875
222,222,1727174701884,-1.0888672,0.21191406,0.07421875,11.5,-59.5625,-16.5625
223,223,1727174701924,-1.1220703,0.045898438,0.41992188,-70.28125,-63.34375,-33.28125
224,224,1727174701964,-1.0683594,-0.15527344,0.032226562,-115.59375,-111.15625,-60.5625
225,225,1727174702004,-1.09375,0.36132812,-0.22558594,-55.71875,-48.15625,-61.625
226,226,1727174702044,-0.92871094,0.22363281,0.3623047,-190.15625,-48.71875,-86.21875
227,227,1727174702084,-0.80566406,0.14746094,-0.31933594,22.53125,-57.25,-56.375
228,228,1727174702124,-0.97265625,-0.2685547,0.24414062,-96.125,-46.15625,-73.28125
229,229,1727174702164,-0.7988281,0.23828125,0.16796875,22.3125,-68.53125,-79.125
230,230,1727174702204,-0.7832031,-0.13769531,0.14746094,-19.875,-64.40625,-69.78125
231,231,1727174702244,-0.890625,-0.072265625,0.13769531,26.21875,-79.21875,-64.78125
232,232,1727174702284,-0.83984375,0.08691406,0.21386719,59.53125,-90.75,-49.59375
233,233,1727174702324,-0.578125,-0.017578125,0.14257812,32.78125,-68.53125,-28.40625
234,234,1727174702364,-0.5029297,-0.20703125,0.28125,-11.15625,-10.25,-6.8125
235,235,1727174702404,-0.5878906,-0.41992188,0.15527344,-16.28125,6.46875,-1.0
236,236,1727174702444,-0.484375,-0.31445312,0.23730469,8.375,11.46875,18.28125
237,237,1727174702484,-1.0224609,-0.453125,1.6699219,17.34375,-23.0,8.75
238,238,1727174702524,-1.0390625,-0.56347656,0.6982422,-70.28125,53.59375,10.84375
239,239,1727174702564,-0.7373047,-0.34375,0.2734375,28.40625,18.78125,8.6875
240,240,1727174702604,-1.0283203,-0.14453125,0.3408203,38.34375,12.875,15.53125
241,241,1727174702644,-0.9345703,-0.111328125,0.2685547,10.34375,35.21875,9.875
242,242,1727174702684,-1.0244141,-0.16699219,0.28515625,-30.5,60.0625,19.1875
243,243,1727174702724,-1.1962891,-0.2763672,0.23046875,-18.15625,58.78125,25.1875
244,244,1727174702764,-1.0439453,-0.0625,0.1640625,8.5,53.40625,28.0625
245,245,1727174702804,-0.9345703,-0.020507812,0.09667969,-23.0,65.5625,32.09375
246,246,1727174702844,-0.96777344,-0.12792969,-0.0087890625,-26.34375,73.53125,35.6875
247,247,1727174702884,-1.0419922,-0.17773438,-0.020507812,-15.1875,66.15625,33.1875
248,248,1727174702924,-1.1826172,-0.16210938,0.0126953125,-13.03125,56.6875,36.71875
249,249,1727174702964,-0.9970703,-0.12207031,0.18261719,-1.25,32.03125,41.90625
250,250,1727174703004,-0.8730469,0.06640625,0.11425781,90.59375,-0.90625,45.09375
251,251,1727174703044,-0.8847656,-0.059570312,-0.09863281,105.78125,17.625,48.0
252,252,1727174703084,-0.8154297,-0.19042969,-0.064453125,84.4375,60.125,49.0
253,253,1727174703124,-0.8515625,-0.013671875,0.08496094,39.28125,44.5,35.0
254,254,1727174703164,-1.0869141,0.19628906,-0.057617188,46.03125,2.5625,6.4375
255,255,1727174703204,-1.1083984,0.099609375,-0.171875,14.65625,-7.5,10.78125
256,256,1727174703244,-1.328125,0.13574219,-0.21582031,12.40625,-5.5625,9.875
257,257,1727174703284,-1.3837891,0.26660156,-0.17675781,22.46875,5.125,18.21875
258,258,1727174703324,-1.2304688,0.18164062,-0.01171875,31.09375,-24.71875,15.125
259,259,1727174703364,-1.0546875,0.1796875,0.16992188,32.90625,-59.9375,-3.25
260,260,1727174703404,-1.0859375,-0.09765625,0.5410156,-38.1875,-89.59375,-23.34375
261,261,1727174703444,-1.0996094,-0.3310547,0.005859375,-122.125,-109.1875,-50.75
262,262,1727174703484,-0.9326172,0.25195312,-0.6826172,-9.8125,-79.21875,-43.0
263,263,1727174703524,-0.9355469,0.5410156,0.36328125,-123.5,-33.6875,-59.59375
264,264,1727174703564,-0.87109375,0.013671875,0.07324219,-10.53125,-74.09375,-41.71875
265,265,1727174703604,-0.94921875,-0.0390625,-0.0048828125,-104.21875,-32.34375,-51.46875
266,266,1727174703644,-0.80078125,0.14648438,0.32226562,-81.71875,-31.4375,-61.5625
267,267,1727174703684,-0.7675781,-0.016601562,0.12792969,-23.84375,-58.71875,-53.8125
268,268,1727174703724,-0.86621094,-0.2763672,0.0703125,-18.15625,-62.4375,-55.6875
269,269,1727174703764,-0.83984375,-0.033203125,0.3095703,6.625,-68.4375,-66.4375
270,270,1727174703804,-0.7792969,-0.09472656,0.1484375,28.40625,-68.125,-53.6875
271,271,1727174703844,-0.796875,-0.17285156,0.25,20.90625,-51.9375,-39.46875
272,272,1727174703884,-0.7060547,-0.1484375,0.24609375,13.03125,-32.34375,-25.84375
273,273,1727174703924,-0.7207031,-0.3076172,0.25585938,9.84375,-14.34375,-23.84375
274,274,1727174703964,-0.6640625,-0.37304688,0.32714844,8.4375,0.46875,-16.5625
275,275,1727174704004,-0.5810547,-0.2685547,0.32714844,12.65625,11.65625,-8.4375
276,276,1727174704044,-0.6123047,-0.14746094,0.36035156,3.9375,21.1875,0.40625
277,277,1727174704084,-0.7783203,-0.4140625,0.453125,1.71875,8.84375,5.78125
278,278,1727174704124,-0.9345703,-0.4736328,0.35058594,4.15625,16.53125,-6.75
279,279,1727174704164,-0.8623047,-0.30078125,0.5136719,-11.28125,5.375,-8.4375
280,280,1727174704204,-0.67285156,-0.23339844,0.4580078,0.09375,21.65625,-3.25
281,281,1727174704244,-0.8183594,-0.3857422,0.5078125,-4.8125,18.90625,7.65625
282,282,1727174704284,-0.8486328,-0.2919922,0.4765625,10.46875,11.65625,6.9375
283,283,1727174704324,-0.8769531,-0.26367188,0.51953125,8.03125,10.1875,12.375
284,284,1727174704364,-0.8925781,-0.24023438,0.32421875,-3.59375,30.625,17.75
285,285,1727174704404,-1.0195312,-0.21582031,0.2783203,-3.59375,29.34375,24.875
286,286,1727174704444,-1.2021484,-0.19238281,0.296875,-32.75,56.5,38.125
287,287,1727174704484,-1.09375,-0.14160156,0.24316406,-30.5625,58.46875,39.9375
288,288,1727174704524,-1.0371094,-0.078125,0.1015625,-21.9375,68.125,47.40625
289,289,1727174704564,-0.9902344,-0.14746094,0.026367188,-40.9375,67.9375,49.71875
290,290,1727174704604,-0.9941406,-0.20507812,-0.001953125,-20.78125,57.84375,48.75
291,291,1727174704644,-1.0654297,-0.22363281,-0.0068359375,3.0625,46.875,47.9375
292,292,1727174704684,-0.9980469,-0.13476562,0.05859375,29.0,33.0625,46.46875
293,293,1727174704724,-0.88671875,-0.03515625,0.08300781,52.625,12.875,45.15625
294,294,1727174704764,-0.8222656,-0.0068359375,0.029296875,64.90625,9.6875,38.0625
295,295,1727174704804,-0.87109375,-0.07421875,0.0126953125,95.0625,26.53125,48.0
296,296,1727174704844,-0.8203125,-0.11328125,0.005859375,70.8125,46.6875,35.625
297,297,1727174704884,-0.89746094,-0.119140625,-0.04296875,62.21875,22.625,24.3125
298,298,1727174704924,-0.9238281,-0.13183594,0.00390625,21.5625,41.0625,7.3125
299,299,1727174704964,-1.0078125,-0.12890625,-0.072265625,2.40625,28.5625,-8.6875
300,300,1727174705004,-0.8955078,0.10839844,-0.00390625,-0.46875,35.59375,-18.75
301,301,1727174705044,-0.96191406,0.2529297,-0.03515625,-31.59375,22.21875,-13.5
302,302,1727174705084,-0.92871094,0.033203125,-0.015625,-19.3125,6.53125,-3.375
303,303,1727174705124,-0.9794922,-0.09863281,-0.1484375,-19.6875,11.65625,3.5
304,304,1727174705164,-0.9511719,-0.015625,-0.12792969,-2.0625,17.5,16.03125
305,305,1727174705204,-0.97265625,0.18554688,-0.0107421875,3.6875,6.46875,12.5625
306,306,1727174705244,-0.9550781,-0.0078125,-0.24902344,-32.5625,11.96875,21.9375
307,307,1727174705284,-1.0087891,-0.045898438,-0.1875,-6.6875,10.5625,15.90625
308,308,1727174705324,-1.0585938,0.0625,-0.2890625,-5.15625,8.0625,10.34375
309,309,1727174705364,-1.0634766,0.15429688,-0.11621094,-9.8125,9.875,15.34375
310,310,1727174705404,-1.0546875,-0.001953125,-0.1640625,-7.125,3.09375,19.1875
311,311,1727174705444,-1.1289062,0.14160156,-0.09375,11.25,-4.875,7.65625
312,312,1727174705484,-1.1728516,0.15039062,-0.22851562,-22.1875,-9.28125,6.25
313,313,1727174705524,-1.2382812,0.28320312,-0.24707031,-12.96875,0.84375,17.84375
314,314,1727174705564,-1.0664062,0.20605469,-0.171875,-3.34375,-1.53125,29.28125
315,315,1727174705604,-0.9355469,0.11328125,-0.10253906,24.3125,-16.4375,22.375
316,316,1727174705644,-1.0039062,0.13867188,0.051757812,25.59375,-33.875,4.4375
317,317,1727174705684,-0.9658203,0.07714844,0.18164062,-14.875,-42.84375,-11.0
318,318,1727174705724,-1.0029297,-0.17480469,0.109375,-49.84375,-61.96875,-28.96875
319,319,1727174705764,-1.0332031,0.045898438,-0.08691406,-72.375,-84.78125,-52.875
320,320,1727174705804,-1.0009766,0.31835938,-0.140625,19.25,-50.125,-31.03125
321,321,1727174705844,-0.89160156,0.2421875,-0.0703125,28.78125,-24.25,-9.71875
322,322,1727174705884,-0.8017578,0.171875,-0.038085938,55.1875,-9.65625,-6.875
323,323,1727174705924,-0.9042969,-0.057617188,0.08886719,-30.3125,3.90625,-20.96875
324,324,1727174705964,-0.828125,0.015625,0.14746094,-36.65625,8.90625,-27.6875
325,325,1727174706004,-0.8232422,0.0625,0.0390625,-22.0,-9.15625,-26.46875
326,326,1727174706044,-0.8408203,0.00390625,0.013671875,-3.65625,-7.4375,-24.6875
327,327,1727174706084,-0.8955078,0.00390625,0.12695312,-16.28125,-10.8125,-27.5625
328,328,1727174706124,-0.8769531,0.043945312,0.08105469,-22.25,-11.59375,-28.96875
329,329,1727174706164,-0.88183594,-0.00390625,0.036132812,-17.125,-11.96875,-24.6875
330,330,1727174706204,-0.87109375,-0.022460938,0.0087890625,3.4375,-11.28125,-15.65625
331,331,1727174706244,-0.89453125,-0.10546875,0.041992188,25.03125,0.1875,-9.65625
332,332,1727174706284,-0.9941406,0.15234375,-0.18457031,8.3125,-0.4375,14.625
333,333,1727174706324,-1.1083984,0.17578125,-0.32617188,9.90625,0.0,13.9375
334,334,1727174706364,-1.1582031,0.28125,-0.18164062,19.125,0.59375,12.78125
335,335,1727174706404,-1.1474609,0.2841797,-0.15136719,4.28125,-9.59375,12.0625
336,336,1727174706444,-1.1132812,0.25,-0.1484375,-3.75,-21.4375,8.8125
337,337,1727174706484,-1.1064453,0.18261719,-0.025390625,7.03125,-36.25,0.40625
338,338,1727174706524,-1.0888672,0.099609375,0.0859375,18.5625,-56.875,-13.75
339,339,1727174706564,-1.1103516,-0.07324219,0.203125,1.375,-76.53125,-31.21875
340,340,1727174706604,-1.1396484,-0.041992188,0.12597656,-90.0,-111.875,-51.84375
341,341,1727174706644,-1.0009766,0.23046875,-0.036132812,-10.28125,-59.5,-51.125
342,342,1727174706684,-1.0087891,0.20019531,0.05078125,-90.625,-57.25,-58.875
343,343,1727174706724,-0.9423828,-0.034179688,-0.021484375,-20.1875,-41.8125,-52.75
344,344,1727174706764,-0.99609375,-0.10839844,0.11328125,-25.75,-43.40625,-56.65625
345,345,1727174706804,-0.90625,0.16113281,0.19140625,-2.53125,-32.59375,-57.34375
346,346,1727174706844,-0.8232422,0.055664062,0.109375,-22.5625,-33.8125,-53.75
347,347,1727174706884,-0.9121094,-0.099609375,0.16992188,-22.875,-29.0,-52.21875
348,348,1727174706924,-0.88183594,-0.10546875,0.19042969,-10.1875,-29.78125,-52.6875
349,349,1727174706964,-0.8847656,-0.13183594,0.18261719,16.6875,-38.28125,-58.0625
350,350,1727174707004,-0.8154297,-0.13574219,0.19042969,23.53125,-45.96875,-57.46875
351,351,1727174707044,-0.8076172,-0.11621094,0.27148438,30.46875,-47.90625,-55.75
352,352,1727174707084,-0.75390625,-0.07128906,0.21191406,26.75,-39.25,-46.78125
353,353,1727174707124,-0.7636719,-0.20800781,0.29589844,13.6875,-27.53125,-35.78125
354,354,1727174707164,-0.71875,-0.2578125,0.32617188,5.40625,-9.09375,-25.40625
355,355,1727174707204,-0.7216797,-0.3408203,0.3154297,3.3125,-2.625,-20.21875
356,356,1727174707244,-0.7363281,-0.34960938,0.33203125,13.9375,2.75,-9.3125
357,357,1727174707284,-0.65625,-0.25878906,0.2861328,11.375,17.9375,-3.4375
358,358,1727174707324,-0.8964844,-0.35253906,0.4873047,11.9375,15.0,-1.71875
359,359,1727174707364,-0.85058594,-0.33398438,0.48535156,14.1875,10.96875,1.3125
360,360,1727174707404,-0.7578125,-0.23828125,0.27929688,-3.46875,32.53125,-1.5
361,361,1727174707444,-0.9267578,-0.44921875,0.33496094,20.65625,9.8125,-1.0625
362,362,1727174707484,-0.69433594,-0.16210938,0.45117188,33.28125,-0.75,2.40625
363,363,1727174707524,-0.8310547,-0.2939453,0.42773438,-12.78125,25.03125,10.09375
364,364,1727174707564,-0.9296875,-0.3408203,0.3564453,0.09375,12.375,4.5
365,365,1727174707604,-0.8046875,-0.26757812,0.38476562,2.15625,16.28125,10.03125
366,366,1727174707644,-0.9199219,-0.36328125,0.40625,-20.1875,26.53125,15.96875
367,367,1727174707684,-0.8701172,-0.37597656,0.31933594,-5.40625,16.53125,17.8125
368,368,1727174707724,-0.9433594,-0.2421875,0.26464844,-10.125,31.96875,23.0
369,369,1727174707764,-1.1220703,-0.2421875,0.20507812,-30.75,39.0625,30.75
370,370,1727174707804,-1.2148438,-0.2421875,0.14941406,-42.65625,63.53125,37.28125
371,371,1727174707844,-1.0029297,-0.20019531,0.10058594,-21.46875,64.75,39.40625
372,372,1727174707884,-0.9326172,-0.15429688,0.12890625,-37.03125,63.59375,40.1875
373,373,1727174707924,-1.0166016,-0.109375,0.078125,-39.40625,46.75,42.28125
374,374,1727174707964,-1.0644531,-0.15722656,0.055664062,-24.875,26.53125,49.59375
375,375,1727174708004,-0.96191406,-0.08886719,0.00390625,3.625,9.21875,52.84375
376,376,1727174708044,-0.953125,-0.13867188,-0.0087890625,24.96875,8.40625,50.09375
377,377,1727174708084,-0.9277344,-0.19238281,-0.021484375,51.65625,9.59375,44.34375
378,378,1727174708124,-0.8408203,-0.16015625,-0.076171875,61.96875,25.5625,35.1875
379,379,1727174708164,-0.7871094,-0.1171875,0.0068359375,79.5625,41.375,35.0
380,380,1727174708204,-0.9277344,0.05859375,-0.1171875,37.375,42.71875,21.9375
381,381,1727174708244,-0.9189453,0.0068359375,0.028320312,1.1875,37.78125,20.1875
382,382,1727174708284,-0.9199219,-0.12695312,-0.0009765625,7.71875,25.875,4.90625
383,383,1727174708324,-0.9765625,-0.021484375,-0.13769531,26.6875,16.90625,-0.5
384,384,1727174708364,-0.9433594,0.080078125,-0.06640625,7.21875,31.5,-1.96875
385,385,1727174708404,-0.99121094,0.119140625,-0.0087890625,-30.4375,25.03125,1.125
386,386,1727174708444,-0.9423828,-0.13378906,-0.11816406,-8.40625,1.78125,12.71875
387,387,1727174708484,-0.95214844,0.0859375,0.0029296875,4.84375,16.15625,2.65625
388,388,1727174708524,-0.94433594,0.11035156,-0.083984375,-16.46875,-3.90625,2.21875
389,389,1727174708564,-0.98535156,0.001953125,-0.2890625,-6.8125,-2.4375,4.96875
390,390,1727174708604,-0.9980469,0.13085938,-0.09667969,-0.15625,23.8125,7.46875
391,391,1727174708644,-0.9707031,0.083984375,-0.16699219,-6.9375,1.875,3.6875
392,392,1727174708684,-0.97265625,0.15332031,-0.21582031,-21.71875,1.21875,6.6875
393,393,1727174708724,-0.93066406,0.07421875,-0.22558594,-25.75,15.5,13.21875
394,394,1727174708764,-0.88378906,0.0234375,-0.08691406,-6.75,16.84375,16.6875
395,395,1727174708804,-0.98339844,-0.10449219,-0.080078125,-11.09375,5.1875,7.96875
396,396,1727174708844,-1.0585938,0.059570312,-0.20703125,-15.71875,4.28125,6.03125
397,397,1727174708884,-1.0117188,0.0703125,-0.123046875,10.6875,11.28125,15.46875
398,398,1727174708924,-1.0224609,0.09277344,-0.17871094,3.875,-2.09375,13.09375
399,399,1727174708964,-1.0498047,0.076171875,-0.18945312,-5.09375,-2.09375,9.6875
400,400,1727174709004,-1.0888672,0.03125,-0.20898438,-12.0,-3.25,8.28125
401,401,1727174709044,-1.1582031,0.07910156,-0.21875,-4.9375,-5.25,9.375
402,402,1727174709084,-1.1962891,0.13378906,-0.1796875,4.125,-2.8125,15.0
403,403,1727174709124,-1.1738281,0.20898438,-0.15917969,5.5,-6.15625,10.71875
404,404,1727174709164,-1.125,0.23632812,0.07128906,4.53125,-32.90625,-0.5
405,405,1727174709204,-1.0527344,0.08105469,0.16210938,-4.5,-66.53125,-19.8125
406,406,1727174709244,-1.1240234,-0.041992188,0.10546875,-43.6875,-79.53125,-38.59375
407,407,1727174709284,-0.9658203,-0.1171875,-0.12207031,-85.5,-76.78125,-48.25
408,408,1727174709324,-1.0166016,0.13574219,0.10058594,-6.5625,-53.84375,-54.96875
409,409,1727174709364,-1.0097656,0.2841797,0.14160156,-9.625,-72.03125,-42.375
410,410,1727174709404,-0.95996094,0.033203125,-0.048828125,-14.875,-60.1875,-47.75
411,411,1727174709444,-0.93847656,-0.048828125,0.06542969,-70.09375,-34.90625,-59.03125
412,412,1727174709484,-1.0185547,0.0029296875,0.21289062,-105.6875,-25.6875,-64.53125
413,413,1727174709524,-0.84765625,-0.021484375,0.18554688,-1.25,-45.34375,-60.375
414,414,1727174709564,-0.83691406,-0.17382812,0.16894531,-15.3125,-34.1875,-65.09375
415,415,1727174709604,-0.81347656,-0.1953125,0.19140625,-2.59375,-41.8125,-68.1875
416,416,1727174709644,-0.81640625,-0.06738281,0.18359375,20.65625,-51.09375,-69.53125
417,417,1727174709684,-0.73828125,-0.13574219,0.2109375,16.875,-42.0625,-61.25
418,418,1727174709724,-0.796875,-0.22753906,0.2841797,18.75,-32.90625,-51.96875
419,419,1727174709764,-0.78027344,-0.2626953,0.23730469,25.65625,-30.21875,-44.46875
420,420,1727174709804,-0.68066406,-0.3359375,0.2734375,28.46875,-19.28125,-32.1875
421,421,1727174709844,-0.6152344,-0.31445312,0.36132812,14.5,3.53125,-17.84375
422,422,1727174709884,-0.6484375,-0.33203125,0.37695312,10.34375,17.9375,-9.65625
423,423,1727174709924,-0.7421875,-0.4736328,0.3017578,24.5,1.53125,-9.0
424,424,1727174709964,-0.6738281,-0.16992188,0.24609375,17.46875,30.34375,17.5625
425,425,1727174710004,-1.0605469,-0.45117188,0.6972656,26.15625,1.875,3.09375
426,426,1727174710044,-0.7158203,-0.4296875,0.33007812,11.5625,0.71875,-14.5
427,427,1727174710084,-0.6171875,-0.11230469,0.42578125,8.6875,5.71875,5.03125
428,428,1727174710124,-0.92871094,-0.47070312,0.5283203,-4.96875,16.0625,3.21875
429,429,1727174710164,-0.7607422,-0.37109375,0.37402344,-24.5625,17.34375,-0.4375
430,430,1727174710204,-0.7529297,-0.31933594,0.40527344,0.875,8.65625,8.6875
431,431,1727174710244,-0.8955078,-0.47851562,0.5019531,-14.1875,12.375,8.46875
432,432,1727174710284,-0.8173828,-0.32910156,0.3798828,17.0,14.09375,14.0625
433,433,1727174710324,-0.8613281,-0.3388672,0.32910156,6.1875,19.53125,14.6875
434,434,1727174710364,-0.98339844,-0.29296875,0.33691406,-8.03125,38.375,24.5
435,435,1727174710404,-1.1083984,-0.2529297,0.24414062,-2.125,41.6875,32.25
436,436,1727174710444,-1.1865234,-0.19238281,0.22460938,-30.875,53.28125,43.5
437,437,1727174710484,-1.0761719,-0.16992188,0.10644531,-23.0,66.84375,52.28125
438,438,1727174710524,-0.9091797,-0.25390625,0.09277344,-6.5625,59.75,51.4375
439,439,1727174710564,-0.84472656,-0.103515625,-0.0107421875,-15.71875,59.1875,49.0
440,440,1727174710604,-0.9638672,-0.13183594,-0.02734375,-23.71875,62.4375,48.0
441,441,1727174710644,-1.1425781,-0.19921875,0.08691406,-33.71875,47.78125,44.90625
442,442,1727174710684,-1.0019531,-0.00390625,0.08984375,6.78125,22.03125,45.9375
443,443,1727174710724,-0.9375,-0.013671875,-0.08203125,42.3125,11.90625,50.21875
444,444,1727174710764,-0.9716797,-0.29003906,-0.13476562,76.125,16.96875,54.28125
445,445,1727174710804,-0.7675781,-0.22558594,0.0048828125,79.96875,48.59375,43.4375
446,446,1727174710844,-0.8144531,0.0859375,0.052734375,65.5,29.34375,38.25
447,447,1727174710884,-0.88183594,-0.030273438,-0.103515625,22.65625,34.46875,28.1875
448,448,1727174710924,-0.87402344,-0.18847656,-0.018554688,34.09375,17.75,16.875
449,449,1727174710964,-0.9511719,-0.091796875,-0.10058594,34.25,17.625,-6.25
450,450,1727174711004,-0.9814453,0.0009765625,-0.08984375,-5.71875,22.09375,-17.3125
451,451,1727174711044,-0.92578125,0.14550781,0.029296875,-43.625,14.28125,-14.375
452,452,1727174711084,-0.9375,0.0048828125,-0.12011719,-8.65625,0.96875,-0.21875
453,453,1727174711124,-0.9814453,0.109375,-0.0546875,-16.6875,6.96875,6.5625
454,454,1727174711164,-1.0087891,0.034179688,-0.25,-25.90625,11.84375,13.90625
455,455,1727174711204,-0.9667969,0.029296875,-0.09863281,-1.6875,10.875,10.59375
456,456,1727174711244,-1.0058594,0.047851562,-0.26953125,-19.21875,-1.65625,4.375
457,457,1727174711284,-0.9394531,0.15136719,-0.15332031,-8.21875,10.5,10.0
458,458,1727174711324,-0.9199219,0.06640625,-0.22460938,-10.78125,10.1875,16.09375
459,459,1727174711364,-0.96191406,0.037109375,-0.09863281,-0.21875,7.0,15.0
460,460,1727174711404,-0.9716797,0.037109375,-0.16894531,-9.875,6.71875,14.625
461,461,1727174711444,-1.0009766,0.016601562,-0.15625,-5.15625,0.71875,11.09375
462,462,1727174711484,-1.0195312,0.0126953125,-0.13183594,2.84375,-0.4375,7.375
463,463,1727174711524,-1.0117188,0.11328125,-0.23925781,0.8125,1.46875,9.1875
464,464,1727174711564,-1.1123047,0.09667969,-0.19433594,8.3125,3.28125,11.15625
465,465,1727174711604,-1.1953125,0.16699219,-0.13085938,13.03125,-1.84375,5.71875
466,466,1727174711644,-1.1806641,0.15625,-0.12792969,0.875,-12.34375,6.8125
467,467,1727174711684,-1.1699219,0.125,-0.087890625,3.5,-19.84375,7.46875
468,468,1727174711724,-1.1533203,0.09277344,-0.03515625,17.78125,-36.1875,1.3125
469,469,1727174711764,-1.1308594,0.14941406,0.107421875,50.5,-51.875,-10.84375
470,470,1727174711804,-1.1708984,0.061523438,0.5214844,-0.59375,-69.78125,-30.40625
471,471,1727174711844,-1.1953125,-0.087890625,0.2265625,-118.875,-102.125,-52.15625
472,472,1727174711884,-0.95996094,0.15429688,-0.359375,-75.40625,-88.6875,-42.4375
473,473,1727174711924,-1.0195312,0.07714844,0.057617188,-65.09375,-45.53125,-49.84375
474,474,1727174711964,-0.92871094,-0.08496094,-0.038085938,-27.3125,-50.71875,-64.78125
475,475,1727174712004,-0.91796875,0.0087890625,0.14453125,-110.09375,-19.78125,-64.59375
476,476,1727174712044,-0.7548828,0.020507812,0.22753906,-46.125,-26.6875,-67.53125
477,477,1727174712084,-0.75,-0.09667969,0.12695312,-2.375,-48.53125,-67.84375
478,478,1727174712124,-0.87109375,-0.20117188,0.13671875,-12.3125,-41.625,-70.03125
479,479,1727174712164,-0.84277344,-0.11816406,0.1953125,36.28125,-56.875,-69.90625
480,480,1727174712204,-0.79785156,-0.12402344,0.1953125,25.96875,-47.3125,-58.125
481,481,1727174712244,-0.8173828,-0.26953125,0.22851562,9.1875,-31.5625,-48.84375
482,482,1727174712284,-0.7529297,-0.22363281,0.22949219,23.28125,-30.28125,-32.6875
483,483,1727174712324,-0.6513672,-0.2265625,0.27246094,26.4375,-16.0625,-23.65625
484,484,1727174712364,-0.61621094,-0.29003906,0.31152344,0.3125,4.6875,-13.6875
485,485,1727174712404,-0.67089844,-0.38671875,0.28320312,-5.90625,11.34375,-5.03125
486,486,1727174712444,-0.6611328,-0.3544922,0.24609375,20.40625,10.5,4.90625
487,487,1727174712484,-1.0322266,-0.3564453,0.48828125,36.8125,-8.5625,5.09375
488,488,1727174712524,-0.88964844,-0.31152344,0.49121094,2.09375,17.40625,4.1875
489,489,1727174712564,-0.7832031,-0.31835938,0.3017578,20.96875,6.21875,-3.1875
490,490,1727174712604,-0.7548828,-0.2861328,0.4560547,4.96875,12.09375,4.125
491,491,1727174712644,-0.8173828,-0.35351562,0.39257812,7.90625,7.9375,4.25
492,492,1727174712684,-0.7714844,-0.36816406,0.34179688,3.4375,8.40625,1.0
493,493,1727174712724,-0.81152344,-0.28320312,0.40722656,3.75,8.34375,4.84375
494,494,1727174712764,-0.8066406,-0.36035156,0.37695312,-6.9375,13.0625,2.96875
495,495,1727174712804,-0.81152344,-0.3876953,0.38671875,-8.71875,14.59375,4.375
496,496,1727174712844,-0.85839844,-0.31152344,0.4189453,3.9375,9.875,7.40625
497,497,1727174712884,-0.9003906,-0.3359375,0.41308594,-2.3125,18.90625,10.78125
498,498,1727174712924,-0.9580078,-0.25,0.23632812,-5.15625,32.09375,23.28125
499,499,1727174712964,-1.1806641,-0.29296875,0.15527344,-20.3125,50.59375,37.5
500,500,1727174713004,-1.2490234,-0.21875,0.14257812,-18.40625,69.5,48.125
501,501,1727174713044,-1.0615234,-0.13085938,0.11328125,-25.84375,69.21875,49.09375
502,502,1727174713084,-0.94433594,-0.119140625,0.026367188,-8.34375,59.3125,54.1875
503,503,1727174713124,-0.9550781,-0.15332031,-0.0234375,9.59375,47.90625,48.375
504,504,1727174713164,-1.0302734,-0.18359375,0.009765625,-1.25,43.5625,41.65625
505,505,1727174713204,-0.9375,-0.072265625,0.018554688,-6.375,38.25,44.65625
506,506,1727174713244,-0.92089844,-0.16210938,0.06738281,11.4375,31.0625,47.71875
507,507,1727174713284,-0.91308594,-0.17578125,0.022460938,68.6875,12.3125,43.25
508,508,1727174713324,-0.9628906,-0.15039062,0.037109375,6.75,51.6875,53.5
509,509,1727174713364,-0.95214844,-0.10253906,-0.03125,-0.84375,50.34375,49.34375
510,510,1727174713404,-0.99121094,-0.1171875,0.0009765625,-2.125,45.40625,48.9375
511,511,1727174713444,-0.96191406,-0.11621094,0.005859375,6.625,33.5,48.1875
512,512,1727174713484,-0.8925781,-0.0546875,0.049804688,12.34375,22.8125,51.90625
513,513,1727174713524,-0.9160156,-0.15039062,-0.033203125,39.9375,10.0625,49.09375
514,514,1727174713564,-0.84277344,-0.2265625,-0.08496094,73.03125,20.875,44.34375
515,515,1727174713604,-0.80566406,-0.13671875,-0.032226562,73.625,32.15625,42.6875
516,516,1727174713644,-0.9160156,0.10253906,-0.034179688,40.59375,34.46875,34.75
517,517,1727174713684,-0.9238281,-0.125,0.0625,61.46875,18.125,23.90625
518,518,1727174713724,-0.86035156,-0.16113281,-0.123046875,58.0625,16.96875,6.09375
519,519,1727174713764,-0.9326172,-0.032226562,-0.19238281,-14.4375,21.90625,-18.875
520,520,1727174713804,-0.9501953,0.17285156,0.017578125,-70.65625,26.78125,-16.6875
521,521,1727174713844,-0.9238281,0.0087890625,-0.07421875,-10.46875,12.3125,4.25
522,522,1727174713884,-0.9765625,-0.041992188,-0.11035156,-22.5625,3.15625,7.53125
523,523,1727174713924,-0.9941406,0.03125,-0.18847656,-2.65625,7.125,7.375
524,524,1727174713964,-0.9394531,0.24414062,-0.16503906,-14.4375,20.625,8.6875
525,525,1727174714004,-1.0527344,0.047851562,-0.23730469,-25.0625,10.625,15.46875
526,526,1727174714044,-0.9970703,0.0146484375,-0.33398438,-16.09375,21.90625,15.21875
527,527,1727174714084,-0.89453125,0.234375,-0.06933594,9.84375,22.15625,19.625
528,528,1727174714124,-0.93847656,0.18847656,-0.13769531,1.25,5.0625,17.625
529,529,1727174714164,-1.0019531,-0.0068359375,-0.16796875,-25.8125,-2.5,9.0625
530,530,1727174714204,-0.9482422,0.00390625,-0.28222656,-23.46875,-6.53125,5.96875
531,531,1727174714244,-1.0195312,0.19433594,-0.20410156,13.4375,6.03125,12.5625
532,532,1727174714284,-0.9667969,0.16796875,-0.19433594,18.625,0.3125,15.0625
533,533,1727174714324,-0.9580078,0.12890625,-0.22851562,-6.6875,0.4375,12.84375
534,534,1727174714364,-1.0351562,0.080078125,-0.21386719,-6.09375,-4.03125,10.03125
535,535,1727174714404,-1.1318359,0.045898438,-0.16308594,4.0625,-7.03125,7.3125
536,536,1727174714444,-1.2578125,0.123046875,-0.23339844,8.625,-9.84375,3.15625
537,537,1727174714484,-1.2363281,0.26367188,-0.16601562,6.96875,-12.6875,3.46875
538,538,1727174714524,-1.1308594,0.2734375,-0.055664062,24.5625,-28.75,2.84375
539,539,1727174714564,-0.9863281,0.12109375,0.038085938,32.6875,-50.90625,-7.40625
540,540,1727174714604,-1.0390625,0.06933594,0.19921875,7.96875,-73.96875,-24.875
541,541,1727174714644,-1.0732422,-0.25976562,0.34570312,-93.65625,-84.40625,-47.625
542,542,1727174714684,-1.0195312,-0.040039062,-0.33496094,-95.875,-97.28125,-76.1875
543,543,1727174714724,-1.1357422,0.40039062,0.018554688,-66.9375,-22.21875,-68.3125
544,544,1727174714764,-0.90234375,-0.0126953125,0.17578125,-90.1875,-51.09375,-70.09375
545,545,1727174714804,-1.0927734,-0.00390625,-0.029296875,-23.78125,-37.78125,-69.4375
546,546,1727174714844,-0.9423828,-0.103515625,0.15625,-59.78125,-24.125,-62.84375
547,547,1727174714884,-0.83691406,-0.14648438,0.2841797,-58.28125,-21.5,-70.28125
548,548,1727174714924,-0.75390625,-0.19042969,0.07910156,16.5,-42.53125,-65.09375
549,549,1727174714964,-0.76953125,-0.07714844,0.20703125,-13.03125,-42.3125,-70.15625
550,550,1727174715004,-0.7138672,-0.07519531,0.16503906,21.5625,-52.96875,-57.15625
551,551,1727174715044,-0.7246094,-0.18164062,0.13378906,31.03125,-43.875,-42.3125
552,552,1727174715084,-0.7060547,-0.24121094,0.19824219,19.96875,-28.15625,-28.09375
553,553,1727174715124,-0.65527344,-0.24316406,0.13476562,11.375,-9.09375,-15.21875
554,554,1727174715164,-0.67578125,-0.2861328,0.23242188,-5.28125,9.75,-3.8125
555,555,1727174715204,-0.7011719,-0.30371094,0.2998047,-9.5625,21.1875,3.5625
556,556,1727174715244,-0.9785156,-0.5078125,0.45898438,18.875,-7.28125,-3.1875
557,557,1727174715284,-0.76660156,-0.171875,0.107421875,23.53125,16.84375,23.09375
558,558,1727174715324,-1.1298828,-0.5888672,0.4970703,7.03125,11.78125,-7.53125
559,559,1727174715364,-0.66015625,-0.2109375,0.30273438,15.84375,8.71875,-5.625
560,560,1727174715404,-0.71777344,-0.20410156,0.3095703,18.34375,15.6875,10.21875
561,561,1727174715444,-0.93359375,-0.39746094,0.3642578,-7.65625,9.34375,2.53125
562,562,1727174715484,-0.81640625,-0.30371094,0.3173828,11.25,-0.1875,4.78125
563,563,1727174715524,-0.8857422,-0.3388672,0.31640625,-5.34375,10.5625,5.34375
564,564,1727174715564,-0.88964844,-0.3408203,0.32714844,-9.0625,8.34375,4.90625
565,565,1727174715604,-0.8613281,-0.3623047,0.28125,-6.15625,17.40625,6.625
566,566,1727174715644,-0.88183594,-0.265625,0.28808594,-4.6875,25.5625,8.65625
567,567,1727174715684,-0.9746094,-0.3486328,0.3232422,-13.53125,27.40625,16.03125
568,568,1727174715724,-1.0224609,-0.20214844,0.18164062,1.25,34.78125,22.9375
569,569,1727174715764,-1.1865234,-0.23144531,0.099609375,-21.59375,41.5625,34.71875
570,570,1727174715804,-1.2167969,-0.22558594,0.0859375,-12.5,49.5,39.9375
571,571,1727174715844,-1.0527344,-0.12695312,0.028320312,10.46875,48.65625,45.15625
572,572,1727174715884,-0.9814453,-0.17382812,0.015625,11.5,50.65625,44.03125
573,573,1727174715924,-0.99121094,-0.13183594,-0.009765625,10.09375,44.96875,39.09375
574,574,1727174715964,-1.0478516,-0.10253906,-0.049804688,26.5625,34.96875,41.1875
575,575,1727174716004,-1.0585938,-0.030273438,-0.0009765625,26.6875,29.125,42.28125
576,576,1727174716044,-0.9658203,-0.053710938,0.044921875,43.28125,17.4375,49.78125
577,577,1727174716084,-0.8613281,-0.018554688,-0.045898438,71.84375,7.125,44.15625
578,578,1727174716124,-0.87890625,-0.111328125,-0.07910156,71.75,26.3125,52.03125
579,579,1727174716164,-0.7763672,-0.08300781,-0.013671875,69.53125,42.90625,42.75
580,580,1727174716204,-0.90234375,-0.026367188,0.026367188,56.53125,42.21875,26.53125
581,581,1727174716244,-0.8642578,-0.140625,-0.12988281,51.21875,23.96875,24.3125
582,582,1727174716284,-0.87597656,-0.1171875,-0.119140625,-1.5625,25.25,3.34375
583,583,1727174716324,-0.9326172,0.123046875,-0.0390625,-27.5625,38.375,-15.09375
584,584,1727174716364,-0.91308594,0.08203125,-0.125,-5.03125,18.1875,3.40625
585,585,1727174716404,-1.0175781,-0.032226562,-0.015625,-22.25,18.25,4.96875
586,586,1727174716444,-0.9765625,-0.095703125,-0.06933594,-23.40625,-0.125,-0.21875
587,587,1727174716484,-0.9941406,0.19238281,-0.18457031,-20.125,3.0,3.875
588,588,1727174716524,-0.8964844,0.0546875,-0.21386719,-33.375,7.5,17.375
589,589,1727174716564,-1.0292969,-0.12597656,-0.20605469,-1.75,8.53125,13.90625
590,590,1727174716604,-0.9277344,0.17773438,-0.18945312,9.71875,7.9375,5.53125
591,591,1727174716644,-0.9560547,0.21582031,-0.10839844,-11.46875,4.75,5.84375
592,592,1727174716684,-0.9941406,0.052734375,-0.24609375,-22.8125,1.53125,10.53125
593,593,1727174716724,-0.97265625,0.08496094,-0.18847656,-0.15625,-1.15625,11.4375
594,594,1727174716764,-0.9794922,0.078125,-0.22460938,-0.15625,5.78125,14.625
595,595,1727174716804,-0.96191406,0.07910156,-0.20507812,-7.25,0.78125,10.53125
596,596,1727174716844,-0.984375,0.08886719,-0.24121094,-5.09375,-3.71875,9.4375
597,597,1727174716884,-1.0234375,0.12011719,-0.20507812,3.0625,2.5625,9.8125
598,598,1727174716924,-1.0683594,0.15527344,-0.20019531,2.9375,0.4375,11.6875
599,599,1727174716964,-1.1064453,0.10546875,-0.13476562,4.0625,-7.03125,9.625
600,600,1727174717004,-1.2119141,0.12597656,-0.19042969,2.59375,-9.78125,5.59375
601,601,1727174717044,-1.2275391,0.1640625,-0.11816406,5.625,-19.0625,2.84375
602,602,1727174717084,-1.1523438,0.18066406,-0.1484375,23.40625,-23.25,1.75
603,603,1727174717124,-1.0507812,0.23828125,-0.015625,49.46875,-36.1875,-7.09375
604,604,1727174717164,-1.1152344,0.20117188,0.08984375,25.21875,-53.78125,-15.59375
605,605,1727174717204,-1.0898438,-0.0126953125,0.22851562,-59.4375,-64.8125,-30.125
606,606,1727174717244,-1.1689453,-0.06933594,0.14648438,-110.03125,-77.03125,-56.0
607,607,1727174717284,-0.98339844,0.22851562,-0.36914062,-41.84375,-81.0,-60.9375
608,608,1727174717324,-0.88378906,0.11816406,0.15820312,-129.5,-28.5,-62.46875
609,609,1727174717364,-0.8779297,-0.13378906,0.21191406,-63.8125,-36.5625,-66.1875
610,610,1727174717404,-0.9628906,-0.0625,0.091796875,-43.3125,-45.28125,-71.8125
611,611,1727174717444,-0.8203125,-0.07519531,0.16992188,-29.71875,-38.46875,-80.78125
612,612,1727174717484,-0.88964844,-0.05078125,0.16113281,-4.5625,-55.96875,-82.59375
613,613,1727174717524,-0.9326172,-0.26953125,0.13574219,-15.1875,-49.3125,-79.6875
614,614,1727174717564,-0.8378906,-0.12597656,0.21582031,37.5625,-62.0625,-75.65625
615,615,1727174717604,-0.7138672,-0.14355469,0.16601562,33.96875,-59.6875,-62.65625
616,616,1727174717644,-0.67871094,-0.24121094,0.17285156,36.03125,-48.65625,-38.46875
617,617,1727174717684,-0.5410156,-0.15820312,0.19433594,22.84375,-22.84375,-22.78125
618,618,1727174717724,-0.5996094,-0.23632812,0.22167969,7.34375,6.40625,-4.125
619,619,1727174717764,-0.6982422,-0.32421875,0.2998047,-1.0625,16.53125,-0.40625
620,620,1727174717804,-0.6484375,-0.40429688,0.4189453,-7.90625,20.5,8.09375
621,621,1727174717844,-1.0888672,-0.45996094,0.48828125,3.25,-4.53125,2.1875
622,622,1727174717884,-0.7324219,-0.11816406,0.43847656,-2.3125,13.59375,17.0625
623,623,1727174717924,-0.91503906,-0.58203125,0.3076172,-9.9375,9.59375,-2.46875
624,624,1727174717964,-0.67871094,-0.23828125,0.36035156,-5.46875,0.71875,1.3125
625,625,1727174718004,-0.8046875,-0.3720703,0.37597656,6.90625,2.0,6.09375
626,626,1727174718044,-0.7861328,-0.34179688,0.40429688,-14.5,7.9375,-0.15625
627,627,1727174718084,-0.78125,-0.34277344,0.25683594,-12.5625,0.78125,2.40625
628,628,1727174718124,-0.82910156,-0.4296875,0.29785156,-17.25,10.90625,2.53125
629,629,1727174718164,-0.87890625,-0.38671875,0.42285156,-10.21875,17.21875,3.03125
630,630,1727174718204,-0.8496094,-0.39257812,0.33398438,3.6875,18.5625,6.03125
631,631,1727174718244,-0.859375,-0.3310547,0.22460938,14.96875,27.59375,13.78125
632,632,1727174718284,-1.0166016,-0.29589844,0.34765625,-1.25,23.0,15.90625
633,633,1727174718324,-1.0175781,-0.1796875,0.19238281,0.4375,34.84375,28.0
634,634,1727174718364,-1.2587891,-0.25390625,0.12109375,-38.25,53.09375,37.03125
635,635,1727174718404,-1.3066406,-0.25,0.15136719,-34.28125,64.28125,47.65625
636,636,1727174718444,-1.0859375,-0.0859375,0.0703125,-12.96875,57.6875,55.40625
637,637,1727174718484,-0.9765625,-0.11816406,0.041015625,-1.4375,55.65625,56.6875
638,638,1727174718524,-0.9589844,-0.21679688,0.0048828125,0.3125,43.40625,51.625
639,639,1727174718564,-0.9589844,-0.19824219,-0.061523438,12.65625,30.6875,50.5
640,640,1727174718604,-0.93847656,-0.087890625,-0.01953125,25.15625,30.15625,50.6875
641,641,1727174718644,-0.91503906,-0.076171875,0.013671875,33.28125,20.875,53.1875
642,642,1727174718684,-0.89160156,-0.15527344,0.0078125,56.46875,16.71875,48.4375
643,643,1727174718724,-0.8027344,-0.13183594,-0.015625,79.375,16.0625,47.75
644,644,1727174718764,-0.81347656,-0.059570312,-0.001953125,65.15625,37.40625,39.21875
645,645,1727174718804,-0.95996094,-0.125,-0.038085938,55.0625,19.96875,31.03125
646,646,1727174718844,-0.8339844,-0.14453125,-0.045898438,-8.40625,48.03125,17.0
647,647,1727174718884,-0.99316406,-0.21972656,-0.16015625,4.0,12.9375,-9.3125
648,648,1727174718924,-0.90527344,0.10546875,0.01953125,-30.8125,33.9375,-22.65625
649,649,1727174718964,-0.97558594,0.18164062,-0.055664062,-51.5625,31.71875,-9.25
650,650,1727174719004,-0.921875,0.057617188,-0.12695312,-11.40625,15.5,5.59375
651,651,1727174719044,-0.9345703,-0.0029296875,-0.2421875,-6.03125,18.1875,23.0
652,652,1727174719084,-0.94628906,0.06542969,-0.119140625,-17.9375,25.375,27.375
653,653,1727174719124,-0.9638672,0.057617188,-0.20800781,-6.5625,19.78125,26.03125
654,654,1727174719164,-0.9765625,0.064453125,-0.19238281,-18.46875,20.9375,20.84375
655,655,1727174719204,-0.9375,0.18457031,-0.2763672,-8.03125,18.3125,23.21875
656,656,1727174719244,-0.91796875,0.12402344,-0.091796875,-2.0625,3.71875,24.875
657,657,1727174719284,-0.89160156,0.07128906,-0.30566406,-28.96875,1.03125,8.59375
658,658,1727174719324,-0.9628906,0.16503906,-0.3203125,-6.5,8.34375,13.84375
659,659,1727174719364,-0.9765625,0.16699219,-0.16210938,3.1875,1.09375,16.15625
660,660,1727174719404,-0.99121094,0.15039062,-0.28808594,-3.15625,-0.125,12.25
661,661,1727174719444,-0.98535156,0.19824219,-0.23535156,8.75,0.0625,16.34375
662,662,1727174719484,-1.0498047,0.16894531,-0.2607422,-1.75,-2.8125,13.9375
663,663,1727174719524,-1.0771484,0.1796875,-0.2607422,-6.5625,-4.46875,9.5625
664,664,1727174719564,-1.1152344,0.27441406,-0.26660156,-7.84375,-2.5,14.9375
665,665,1727174719604,-1.1914062,0.30859375,-0.20703125,1.4375,-8.96875,15.84375
666,666,1727174719644,-1.1220703,0.38476562,-0.17675781,-19.09375,-19.96875,10.71875
667,667,1727174719684,-1.0556641,0.27246094,-0.11035156,-38.1875,-35.46875,-7.46875
668,668,1727174719724,-1.0048828,0.13183594,-0.060546875,-48.125,-44.3125,-22.5
669,669,1727174719764,-0.94140625,-0.08496094,-0.083984375,-6.09375,-46.4375,-32.5625
670,670,1727174719804,-0.98828125,-0.09667969,-0.0087890625,32.625,-49.125,-53.1875
671,671,1727174719844,-1.0556641,0.31933594,-0.14355469,56.28125,-76.25,-52.15625
672,672,1727174719884,-1.0908203,0.51953125,0.16308594,-46.0625,-33.4375,-50.5
673,673,1727174719924,-0.88183594,0.34472656,0.0390625,-53.9375,-40.21875,-30.0625
674,674,1727174719964,-0.84472656,0.29296875,-0.18457031,39.3125,-43.46875,-5.6875
675,675,1727174720004,-0.8310547,0.1171875,-0.07714844,49.21875,-22.96875,-2.96875
676,676,1727174720044,-0.8925781,-0.14453125,0.16601562,-105.4375,7.75,-18.09375
677,677,1727174720084,-0.89746094,0.18261719,0.0234375,23.21875,-7.75,-8.5
678,678,1727174720124,-0.7324219,0.06347656,-0.10058594,20.71875,-6.09375,-1.3125
679,679,1727174720164,-0.99609375,0.08300781,-0.087890625,-0.34375,4.5625,5.59375
680,680,1727174720204,-0.9355469,0.030273438,-0.16894531,-12.5625,1.78125,10.09375
681,681,1727174720244,-0.98339844,-0.005859375,-0.16699219,-8.71875,3.34375,12.375
682,682,1727174720284,-0.97558594,-0.037109375,-0.2265625,-5.53125,4.9375,13.40625
683,683,1727174720324,-0.96484375,0.018554688,-0.15625,7.09375,7.0,10.34375
684,684,1727174720364,-0.9667969,0.07128906,-0.16699219,-0.40625,2.4375,10.46875
685,685,1727174720404,-0.9589844,0.056640625,-0.16601562,-7.59375,4.28125,13.46875
686,686,1727174720444,-0.9628906,0.043945312,-0.18945312,-1.3125,4.15625,14.0
687,687,1727174720484,-0.9902344,0.078125,-0.20410156,-0.21875,6.03125,15.28125
688,688,1727174720524,-1.0195312,0.091796875,-0.19726562,1.78125,4.8125,15.65625
689,689,1727174720564,-1.0585938,0.08984375,-0.16113281,-3.8125,2.3125,15.84375
690,690,1727174720604,-1.0703125,0.048828125,-0.18652344,0.03125,-2.5,14.3125
691,691,1727174720644,-1.0986328,0.10449219,-0.17773438,14.96875,-5.25,11.09375
692,692,1727174720684,-1.1210938,0.22949219,-0.14550781,16.8125,-12.09375,6.3125
693,693,1727174720724,-1.0361328,0.18359375,-0.115234375,17.65625,-20.625,8.09375
694,694,1727174720764,-1.0498047,0.19824219,-0.072265625,32.84375,-26.5625,2.34375
695,695,1727174720804,-1.0478516,0.17285156,0.045898438,41.78125,-36.1875,-4.96875
696,696,1727174720844,-1.0517578,-0.016601562,0.16503906,20.71875,-52.125,-14.84375
697,697,1727174720884,-1.0878906,-0.08105469,0.09082031,-18.90625,-67.21875,-25.40625
698,698,1727174720924,-1.0380859,0.14550781,-0.17871094,-52.90625,-72.28125,-44.46875
699,699,1727174720964,-1.0771484,0.203125,0.12207031,-65.15625,-46.15625,-50.5
700,700,1727174721004,-0.9423828,0.068359375,0.028320312,-33.625,-45.65625,-44.34375
701,701,1727174721044,-0.9716797,-0.051757812,-0.06347656,10.53125,-39.625,-45.0
702,702,1727174721084,-1.0009766,-0.009765625,0.10253906,-69.25,-32.53125,-62.09375
703,703,1727174721124,-0.89160156,0.10058594,0.1640625,-65.40625,-18.0,-65.53125
704,704,1727174721164,-0.8535156,-0.07421875,0.09765625,-26.59375,-25.9375,-59.59375
705,705,1727174721204,-0.86816406,-0.234375,0.16894531,-22.4375,-28.25,-66.5
706,706,1727174721244,-0.9033203,-0.20214844,0.15820312,5.5,-34.3125,-69.59375
707,707,1727174721284,-0.9326172,-0.17773438,0.11425781,36.15625,-39.1875,-70.28125
708,708,1727174721324,-0.8808594,-0.17382812,0.1796875,27.71875,-42.90625,-66.5625
709,709,1727174721364,-0.8798828,-0.2607422,0.22167969,45.90625,-38.625,-59.59375
710,710,1727174721404,-0.765625,-0.1328125,0.18554688,41.84375,-34.78125,-48.90625
711,711,1727174721444,-0.7480469,-0.23632812,0.28125,23.9375,-24.0,-36.71875
712,712,1727174721484,-0.7441406,-0.26660156,0.28710938,22.25,-13.75,-28.15625
713,713,1727174721524,-0.7011719,-0.2841797,0.31835938,9.46875,-7.21875,-22.0625
714,714,1727174721564,-0.67089844,-0.38671875,0.29785156,-2.3125,4.625,-15.84375
715,715,1727174721604,-0.6269531,-0.3857422,0.17773438,-1.125,6.96875,-0.40625
716,716,1727174721644,-0.7705078,-0.47265625,0.625,-13.59375,-2.375,4.6875
717,717,1727174721684,-0.81347656,-0.33398438,0.7011719,-9.75,39.3125,16.03125
718,718,1727174721724,-0.86035156,-0.36914062,0.4189453,-22.625,26.0625,-4.90625
719,719,1727174721764,-0.7324219,-0.2998047,0.3642578,8.8125,14.875,-0.4375
720,720,1727174721804,-0.8847656,-0.4501953,0.34277344,-6.375,9.625,1.9375
721,721,1727174721844,-0.81640625,-0.4013672,0.4033203,-7.78125,-1.28125,-4.0
722,722,1727174721884,-0.78515625,-0.4111328,0.3330078,-0.46875,0.125,3.09375
723,723,1727174721924,-0.8574219,-0.421875,0.36132812,-10.40625,4.5,8.15625
724,724,1727174721964,-0.8486328,-0.41308594,0.36035156,0.03125,7.125,11.6875
725,725,1727174722004,-0.8720703,-0.4189453,0.27246094,4.96875,7.9375,18.65625
726,726,1727174722044,-0.9736328,-0.43066406,0.30859375,8.03125,16.21875,18.28125
727,727,1727174722084,-0.9042969,-0.29101562,0.23828125,20.46875,19.40625,20.375
728,728,1727174722124,-0.9921875,-0.32714844,0.25976562,-12.78125,42.71875,25.1875
729,729,1727174722164,-1.0292969,-0.32226562,0.21777344,-16.15625,39.90625,30.84375
730,730,1727174722204,-1.0097656,-0.29785156,0.2626953,-12.625,46.6875,35.5625
731,731,1727174722244,-0.98535156,-0.19726562,0.14453125,-13.40625,55.21875,43.5
732,732,1727174722284,-0.9580078,-0.2109375,0.06640625,-12.90625,51.09375,45.75
733,733,1727174722324,-0.9736328,-0.18847656,-0.0087890625,-14.5625,45.65625,43.8125
734,734,1727174722364,-0.98046875,-0.17285156,-0.024414062,-23.1875,49.0625,41.28125
735,735,1727174722404,-1.0566406,-0.14941406,-0.0048828125,-18.46875,45.71875,42.8125
736,736,1727174722444,-0.9824219,-0.16503906,0.001953125,-3.28125,33.0625,42.34375
737,737,1727174722484,-1.0087891,-0.11230469,-0.01953125,10.03125,11.46875,44.65625
738,738,1727174722524,-1.0097656,-0.17773438,0.022460938,54.71875,-10.0,46.1875
739,739,1727174722564,-0.8964844,-0.107421875,-0.051757812,106.09375,-5.3125,37.9375
740,740,1727174722604,-0.8125,-0.12792969,-0.1640625,93.15625,19.34375,31.96875
741,741,1727174722644,-0.8183594,-0.0048828125,-0.043945312,95.46875,43.5625,32.5625
742,742,1727174722684,-0.91308594,0.053710938,-0.0546875,4.90625,29.34375,23.84375
743,743,1727174722724,-0.9248047,-0.0048828125,-0.040039062,5.8125,28.0,19.25
744,744,1727174722764,-0.9658203,-0.15332031,0.03515625,22.90625,25.4375,3.5625
745,745,1727174722804,-0.9013672,-0.107421875,-0.15234375,27.90625,10.6875,-3.03125
746,746,1727174722844,-0.9863281,0.060546875,-0.14453125,-26.09375,23.3125,-10.78125
747,747,1727174722884,-0.9667969,0.12402344,-0.15234375,-36.59375,15.875,-2.03125
748,748,1727174722924,-0.9970703,0.052734375,-0.06933594,-8.03125,7.5,4.78125
749,749,1727174722964,-0.9355469,0.056640625,-0.10546875,-5.71875,15.9375,14.3125
750,750,1727174723004,-0.9091797,0.022460938,-0.064453125,-4.75,3.96875,10.59375
751,751,1727174723044,-1.0107422,0.044921875,-0.21289062,-20.59375,2.0625,9.25
752,752,1727174723084,-1.0097656,0.0,-0.21875,-17.875,15.8125,11.03125
753,753,1727174723124,-1.0498047,0.12402344,-0.06542969,5.5,8.34375,13.90625
754,754,1727174723164,-0.953125,0.09375,-0.32714844,0.75,9.75,16.5625
755,755,1727174723204,-0.9794922,0.13867188,-0.12597656,-3.40625,11.65625,14.8125
756,756,1727174723244,-0.95703125,0.024414062,-0.13574219,-17.375,2.25,11.6875
757,757,1727174723284,-0.93847656,-0.009765625,-0.1796875,-24.875,-3.125,6.5625
758,758,1727174723324,-0.9765625,-0.038085938,-0.2548828,-13.28125,-2.875,7.25
759,759,1727174723364,-0.9560547,0.123046875,-0.17285156,4.15625,1.28125,4.90625
