,Unnamed: 0,timestamp,accel_x,accel_y,accel_z,gyro_x,gyro_y,gyro_z
0,0,1727283033066,-0.875,-0.009765625,0.13964844,3.0625,-30.53125,27.46875
1,1,1727283033106,-0.80078125,0.099609375,0.1875,7.75,-3.0,25.21875
2,2,1727283033146,-0.9638672,0.12890625,0.24902344,13.25,-23.59375,37.71875
3,3,1727283033186,-0.8378906,0.16894531,0.265625,10.125,-7.84375,21.3125
4,4,1727283033226,-0.9375,0.16992188,0.34277344,6.53125,6.75,1.78125
5,5,1727283033266,-1.1933594,0.13183594,0.08496094,-24.96875,30.90625,-25.15625
6,6,1727283033306,-1.7910156,0.33691406,-0.08691406,-9.15625,32.4375,25.15625
7,7,1727283033346,-0.75878906,0.06933594,-0.13867188,-30.6875,12.5,-6.34375
8,8,1727283033386,-0.75097656,-0.20800781,-0.091796875,1.34375,14.5,-23.0
9,9,1727283033426,-1.1171875,0.1171875,0.0126953125,8.3125,28.1875,-28.875
10,10,1727283033466,-1.015625,0.22851562,0.08300781,-30.03125,3.8125,-30.03125
11,11,1727283033506,-0.76171875,-0.0107421875,0.0107421875,-41.3125,13.15625,-40.15625
12,12,1727283033546,-0.8955078,-0.087890625,-0.030273438,-22.875,28.25,-28.125
13,13,1727283033586,-0.97558594,0.061523438,0.028320312,-16.84375,34.21875,-22.71875
14,14,1727283033626,-0.83203125,0.017578125,0.0078125,-32.96875,35.125,-21.1875
15,15,1727283033666,-0.84375,-0.09667969,-0.034179688,-26.96875,50.21875,-17.6875
16,16,1727283033706,-0.90234375,-0.16113281,-0.0126953125,-13.3125,63.34375,-13.375
17,17,1727283033746,-1.0693359,-0.16210938,0.064453125,-5.5625,46.90625,-11.0
18,18,1727283033786,-1.1884766,-0.23144531,0.10546875,-4.46875,26.21875,-14.09375
19,19,1727283033826,-1.2158203,-0.18066406,-0.08496094,13.5625,20.71875,-2.375
20,20,1727283033866,-1.3261719,-0.018554688,-0.3173828,13.90625,15.0,5.4375
21,21,1727283033906,-1.3583984,0.1484375,-0.4716797,7.1875,2.53125,-2.3125
22,22,1727283033946,-1.0693359,0.01953125,-0.46679688,23.375,-43.59375,7.8125
23,23,1727283033986,-0.9355469,0.13769531,-0.18359375,52.0,-72.46875,25.09375
24,24,1727283034026,-1.0195312,0.07324219,-0.059570312,23.5625,-61.96875,26.90625
25,25,1727283034066,-0.9199219,0.060546875,-0.049804688,24.84375,-54.28125,28.6875
26,26,1727283034106,-0.80566406,0.10449219,0.05078125,21.53125,-48.5,37.78125
27,27,1727283034146,-0.7890625,0.005859375,0.048828125,13.3125,-36.65625,33.5625
28,28,1727283034186,-0.8613281,-0.01953125,0.103515625,4.875,-40.1875,17.8125
29,29,1727283034226,-0.93652344,0.08984375,0.09765625,4.9375,-23.71875,17.15625
30,30,1727283034266,-0.96972656,0.14160156,0.13183594,-1.40625,-15.03125,28.4375
31,31,1727283034306,-0.9814453,0.1015625,0.21972656,6.65625,-22.65625,21.3125
32,32,1727283034346,-0.8857422,0.17871094,0.25976562,10.8125,-10.21875,8.59375
33,33,1727283034386,-1.1572266,0.11230469,0.3623047,-5.90625,17.75,-22.71875
34,34,1727283034426,-1.6738281,0.25683594,-0.05859375,-31.8125,32.875,16.65625
35,35,1727283034466,-0.9111328,0.045898438,-0.115234375,-30.6875,20.375,-5.3125
36,36,1727283034506,-0.6777344,0.036132812,-0.053710938,10.4375,30.125,-17.5
37,37,1727283034546,-1.0771484,0.017578125,-0.030273438,11.84375,37.28125,-29.84375
38,38,1727283034586,-1.0537109,0.024414062,0.07324219,-2.1875,9.625,-24.15625
39,39,1727283034626,-0.8046875,-0.06640625,0.020507812,-13.78125,7.46875,-46.25
40,40,1727283034666,-0.91308594,0.017578125,-0.03515625,6.65625,20.3125,-35.21875
41,41,1727283034706,-0.96777344,0.1484375,-0.04296875,1.65625,28.53125,-21.3125
42,42,1727283034746,-0.9316406,0.052734375,-0.024414062,-16.28125,31.15625,-21.59375
43,43,1727283034786,-0.85839844,-0.13574219,0.03515625,-21.53125,48.75,-22.34375
44,44,1727283034826,-0.97265625,-0.22460938,-0.001953125,-0.90625,49.21875,-16.59375
45,45,1727283034866,-0.9550781,-0.34570312,-0.001953125,20.09375,58.25,-13.375
46,46,1727283034906,-1.2109375,-0.17578125,0.0703125,38.28125,36.0625,-6.40625
47,47,1727283034946,-1.3447266,0.024414062,-0.051757812,17.15625,10.78125,-5.0
48,48,1727283034986,-1.2226562,0.099609375,-0.46972656,-21.78125,-4.53125,-6.71875
49,49,1727283035026,-1.2216797,0.15917969,-0.5576172,-10.0625,-44.03125,2.75
50,50,1727283035066,-0.88378906,0.3154297,-0.18359375,-6.96875,-57.6875,9.34375
51,51,1727283035106,-1.2880859,0.017578125,-0.0703125,-45.78125,-64.65625,24.71875
52,52,1727283035146,-1.0878906,-0.23339844,-0.091796875,-8.375,-42.375,29.53125
53,53,1727283035186,-0.90625,0.11621094,0.028320312,-0.0625,-32.0,31.9375
54,54,1727283035226,-1.0,0.24316406,0.052734375,-21.78125,-41.03125,43.53125
55,55,1727283035266,-0.8955078,-0.064453125,0.080078125,-40.65625,-39.6875,41.4375
56,56,1727283035306,-0.72265625,-0.08984375,0.056640625,-17.75,-36.46875,42.71875
57,57,1727283035346,-0.7158203,0.2607422,0.1875,-13.0,-25.15625,48.40625
58,58,1727283035386,-0.8076172,0.061523438,0.2734375,-40.09375,-16.4375,30.875
59,59,1727283035426,-0.80078125,0.0234375,0.34570312,-22.21875,7.4375,20.8125
60,60,1727283035466,-1.1113281,0.111328125,-0.18164062,3.78125,-17.90625,15.25
61,61,1727283035506,-1.1826172,0.18261719,-0.15039062,-19.71875,-31.21875,31.8125
62,62,1727283035546,-0.87890625,0.16601562,-0.06347656,-55.46875,-49.9375,33.9375
63,63,1727283035586,-0.90527344,-0.07519531,-0.016601562,-57.0625,-52.8125,33.875
64,64,1727283035626,-1.0283203,-0.0546875,0.125,-44.3125,-43.90625,35.28125
65,65,1727283035666,-1.0810547,-0.056640625,0.095703125,-46.75,-44.875,37.0625
66,66,1727283035706,-0.91308594,-0.030273438,0.1328125,-23.125,-24.0,53.28125
67,67,1727283035746,-0.82714844,0.1328125,0.24414062,0.5,-39.625,57.5625
68,68,1727283035786,-0.8515625,0.20898438,0.2783203,4.15625,-28.78125,34.5625
69,69,1727283035826,-0.9472656,0.20410156,0.41601562,3.84375,0.71875,13.25
70,70,1727283035866,-1.0322266,0.13476562,0.0078125,-29.84375,0.40625,-8.3125
71,71,1727283035906,-1.3896484,0.17773438,-0.14160156,18.25,26.21875,22.34375
72,72,1727283035946,-0.86035156,0.061523438,-0.26757812,-6.03125,23.53125,-3.84375
73,73,1727283035986,-1.0195312,0.0625,-0.18847656,-0.25,23.59375,-14.28125
74,74,1727283036026,-1.1142578,0.19238281,-0.051757812,-16.90625,13.21875,-19.40625
75,75,1727283036066,-1.0048828,0.038085938,0.0107421875,-40.28125,7.90625,-23.9375
76,76,1727283036106,-0.79589844,-0.14160156,-0.044921875,-26.6875,19.9375,-25.8125
77,77,1727283036146,-0.81933594,-0.01171875,0.0009765625,7.9375,31.46875,-19.71875
78,78,1727283036186,-0.8066406,0.06933594,-0.021484375,7.4375,33.96875,-21.1875
79,79,1727283036226,-0.8359375,0.024414062,-0.0234375,0.71875,45.21875,-22.8125
80,80,1727283036266,-0.87109375,-0.06542969,-0.056640625,-8.53125,52.84375,-21.71875
81,81,1727283036306,-1.0351562,-0.12597656,0.026367188,-8.59375,54.40625,-11.46875
82,82,1727283036346,-1.1435547,-0.24609375,0.171875,-5.0625,30.0,-12.6875
83,83,1727283036386,-1.1201172,-0.17871094,0.09667969,4.15625,6.15625,-9.28125
84,84,1727283036426,-1.1435547,-0.25585938,-0.16113281,10.125,-4.96875,-6.15625
85,85,1727283036466,-1.3085938,0.046875,-0.53808594,40.09375,-10.875,-7.3125
86,86,1727283036506,-1.3007812,0.38671875,-0.33496094,35.65625,-39.4375,1.78125
87,87,1727283036546,-1.0458984,0.0390625,-0.14355469,20.1875,-57.28125,26.0625
88,88,1727283036586,-1.1210938,-0.19140625,-0.10546875,29.65625,-57.59375,19.28125
89,89,1727283036626,-1.1005859,-0.051757812,-0.005859375,51.40625,-43.71875,24.40625
90,90,1727283036666,-0.8955078,0.16796875,-0.029296875,41.125,-42.625,33.03125
91,91,1727283036706,-0.734375,0.111328125,0.026367188,29.71875,-43.59375,39.96875
92,92,1727283036746,-0.73339844,0.021484375,0.06738281,25.28125,-48.1875,33.28125
93,93,1727283036786,-0.8574219,-0.030273438,0.107421875,24.96875,-33.46875,30.65625
94,94,1727283036826,-0.8857422,0.140625,0.15625,26.3125,-9.96875,28.3125
95,95,1727283036866,-1.078125,0.29003906,0.19238281,24.34375,-11.6875,41.75
96,96,1727283036906,-1.0449219,0.20507812,0.31640625,2.625,-24.5,29.125
97,97,1727283036946,-0.73828125,0.06347656,0.37402344,5.4375,-15.03125,4.40625
98,98,1727283036986,-0.9638672,-0.053710938,0.14257812,-24.90625,50.5,-37.0
99,99,1727283037026,-1.7167969,0.50097656,-0.09765625,28.25,25.96875,31.0
100,100,1727283037066,-0.9707031,-0.0087890625,-0.0107421875,-35.71875,9.5,-9.8125
101,101,1727283037106,-0.73339844,-0.09863281,-0.123046875,8.0,6.09375,-19.90625
102,102,1727283037146,-1.0166016,0.29296875,-0.033203125,3.59375,31.84375,-20.8125
103,103,1727283037186,-1.0800781,0.15917969,0.07421875,-32.34375,6.625,-16.78125
104,104,1727283037226,-0.9248047,-0.0625,0.0078125,-41.9375,3.15625,-36.875
105,105,1727283037266,-0.84472656,-0.041015625,-0.021484375,-7.8125,20.90625,-32.40625
106,106,1727283037306,-0.8964844,0.12109375,-0.036132812,-1.53125,34.09375,-26.0625
107,107,1727283037346,-0.8388672,0.08886719,-0.064453125,-12.34375,42.6875,-24.03125
108,108,1727283037386,-0.8623047,0.029296875,-0.01953125,-17.8125,57.78125,-20.6875
109,109,1727283037426,-0.93652344,-0.10546875,-0.00390625,-21.25,56.8125,-19.96875
110,110,1727283037466,-1.0751953,-0.20507812,0.09082031,-6.09375,50.03125,-25.4375
111,111,1727283037506,-1.1982422,-0.21289062,0.1328125,1.78125,17.8125,-21.40625
112,112,1727283037546,-1.2333984,-0.09472656,0.09277344,-2.1875,-4.1875,-9.65625
113,113,1727283037586,-1.203125,-0.12597656,-0.29589844,-3.125,-6.8125,-6.84375
114,114,1727283037626,-1.3730469,0.33203125,-0.36621094,10.6875,-10.09375,-7.875
115,115,1727283037666,-1.0976562,0.23925781,-0.3310547,-8.65625,-33.78125,15.8125
116,116,1727283037706,-1.0712891,-0.001953125,-0.06738281,0.375,-68.6875,15.0625
117,117,1727283037746,-1.1142578,-0.08984375,0.00390625,9.65625,-61.375,13.84375
118,118,1727283037786,-1.0566406,-0.0068359375,-0.005859375,29.65625,-38.28125,30.53125
119,119,1727283037826,-0.8095703,0.123046875,0.0,30.21875,-44.46875,41.3125
120,120,1727283037866,-0.7763672,0.046875,0.046875,21.46875,-52.6875,37.96875
121,121,1727283037906,-0.7441406,0.013671875,0.11425781,10.125,-44.9375,30.15625
122,122,1727283037946,-0.8095703,0.060546875,0.125,12.75,-16.8125,33.3125
123,123,1727283037986,-0.82910156,0.21386719,0.21972656,11.90625,5.96875,40.15625
124,124,1727283038026,-0.9423828,0.107421875,0.32226562,15.9375,-15.28125,39.75
125,125,1727283038066,-0.9082031,0.08691406,0.359375,18.90625,-21.09375,11.28125
126,126,1727283038106,-0.98535156,0.13574219,0.47851562,23.75,-0.625,-11.0
127,127,1727283038146,-1.3867188,0.34277344,-0.28125,-9.71875,29.09375,-15.9375
128,128,1727283038186,-1.6396484,0.28710938,0.1796875,-9.28125,15.90625,17.09375
129,129,1727283038226,-0.64453125,-0.099609375,-0.13378906,-9.46875,12.625,-9.40625
130,130,1727283038266,-0.89746094,0.12792969,-0.14746094,19.65625,38.625,-23.9375
131,131,1727283038306,-0.9980469,0.31640625,0.04296875,-13.84375,29.21875,-24.34375
132,132,1727283038346,-0.88378906,0.07714844,0.038085938,-50.21875,-0.9375,-41.625
133,133,1727283038386,-0.74902344,-0.12402344,0.018554688,-39.125,7.96875,-48.15625
134,134,1727283038426,-0.91796875,-0.12109375,0.038085938,-6.78125,35.3125,-37.15625
135,135,1727283038466,-0.8886719,0.068359375,0.009765625,0.96875,44.53125,-30.5625
136,136,1727283038506,-0.9169922,0.06347656,0.052734375,-16.40625,43.625,-26.0
137,137,1727283038546,-1.0009766,-0.12402344,0.04296875,-18.75,48.5,-27.90625
138,138,1727283038586,-0.9970703,-0.22167969,-0.018554688,-5.1875,45.21875,-19.28125
139,139,1727283038626,-1.0888672,-0.25097656,0.0703125,0.375,29.09375,-11.09375
140,140,1727283038666,-1.1152344,-0.18359375,-0.028320312,6.78125,16.75,-6.90625
141,141,1727283038706,-1.2304688,-0.022460938,-0.0390625,-2.3125,11.15625,1.84375
142,142,1727283038746,-1.3857422,-0.08496094,-0.37402344,-8.96875,-0.375,-10.75
143,143,1727283038786,-1.2490234,0.25390625,-0.35839844,-6.40625,-12.0,-19.28125
144,144,1727283038826,-0.94921875,0.16699219,-0.2939453,-13.6875,-28.34375,17.59375
145,145,1727283038866,-1.0644531,0.034179688,-0.07421875,-7.5625,-56.59375,22.78125
146,146,1727283038906,-1.1201172,-0.043945312,-0.030273438,0.625,-56.84375,20.8125
147,147,1727283038946,-0.94921875,0.030273438,-0.0126953125,12.5,-37.875,27.40625
148,148,1727283038986,-0.85253906,0.15722656,0.05859375,14.21875,-39.03125,43.65625
149,149,1727283039026,-0.8564453,0.022460938,0.07324219,2.0625,-47.03125,43.875
150,150,1727283039066,-0.9140625,-0.06933594,0.11035156,-7.09375,-41.28125,41.625
151,151,1727283039106,-0.7871094,0.05078125,0.13574219,3.125,-21.5625,40.09375
152,152,1727283039146,-0.765625,0.234375,0.1953125,-4.8125,-3.0,31.75
153,153,1727283039186,-0.91503906,0.18066406,0.24707031,-18.3125,0.65625,19.71875
154,154,1727283039226,-1.0146484,0.08691406,0.33691406,-3.71875,14.9375,13.375
155,155,1727283039266,-1.2294922,0.11425781,0.3564453,-9.71875,76.46875,-12.5625
156,156,1727283039306,-1.328125,0.45214844,-0.12597656,-10.4375,-42.3125,-5.0625
157,157,1727283039346,-1.1025391,0.29003906,-0.14550781,-31.5625,9.5625,-11.21875
158,158,1727283039386,-0.90527344,-0.22753906,-0.24804688,-32.28125,15.78125,-11.53125
159,159,1727283039426,-0.89941406,-0.032226562,-0.22265625,3.125,28.71875,-25.3125
160,160,1727283039466,-1.0595703,0.3828125,-0.043945312,-17.875,30.1875,-27.03125
161,161,1727283039506,-0.9667969,0.19921875,0.015625,-68.53125,-5.03125,-33.375
162,162,1727283039546,-0.82421875,-0.20507812,-0.08691406,-65.75,7.96875,-31.125
163,163,1727283039586,-0.8144531,-0.064453125,-0.06738281,-16.65625,27.125,-26.78125
164,164,1727283039626,-0.8222656,0.14550781,-0.078125,-15.5625,29.53125,-29.78125
165,165,1727283039666,-0.7832031,0.022460938,-0.0703125,-47.53125,54.90625,-37.53125
166,166,1727283039706,-0.8652344,-0.13183594,-0.057617188,-37.28125,62.65625,-36.625
167,167,1727283039746,-1.0507812,-0.265625,-0.01953125,-38.09375,56.9375,-43.625
168,168,1727283039786,-1.1992188,-0.21386719,0.059570312,-41.625,29.625,-30.28125
169,169,1727283039826,-1.1806641,-0.3466797,0.045898438,-43.8125,16.53125,-17.28125
170,170,1727283039866,-1.2578125,-0.24902344,0.0029296875,-35.03125,3.34375,-1.21875
171,171,1727283039906,-1.1357422,-0.23144531,-0.40820312,-35.59375,-10.9375,-9.9375
172,172,1727283039946,-1.2109375,0.33691406,-0.42285156,-9.8125,-28.40625,-18.6875
173,173,1727283039986,-0.9472656,0.32421875,-0.42773438,-23.75,-56.0625,11.71875
174,174,1727283040026,-0.9746094,0.14453125,-0.11230469,-39.84375,-72.40625,10.1875
175,175,1727283040066,-1.1025391,0.0087890625,-0.072265625,-28.4375,-63.0,5.375
176,176,1727283040106,-1.0556641,0.12109375,0.0009765625,-26.5625,-41.15625,35.84375
177,177,1727283040146,-1.0761719,0.25976562,0.061523438,-60.90625,-39.875,40.40625
178,178,1727283040186,-1.0800781,-0.033203125,0.049804688,-93.09375,-59.46875,31.75
179,179,1727283040226,-1.0332031,-0.20410156,0.11425781,-83.375,-32.96875,38.28125
180,180,1727283040266,-0.7626953,-0.032226562,0.16113281,-59.25,-28.84375,57.5625
181,181,1727283040306,-0.7910156,0.16308594,0.2109375,-62.5625,-27.78125,50.28125
182,182,1727283040346,-0.8076172,0.072265625,0.18847656,-53.34375,-12.84375,39.625
183,183,1727283040386,-0.76660156,0.21484375,0.3076172,-37.125,-8.625,31.3125
184,184,1727283040426,-0.9658203,0.19335938,0.42773438,-27.59375,-7.21875,23.75
185,185,1727283040466,-0.8984375,0.11621094,0.49902344,-16.25,20.0625,10.875
186,186,1727283040506,-1.1806641,0.1796875,0.58203125,-7.5625,40.5,-4.9375
187,187,1727283040546,-1.1582031,0.16210938,0.068359375,25.6875,-32.875,12.15625
188,188,1727283040586,-1.1933594,0.40234375,-0.26464844,-8.4375,37.34375,-4.8125
189,189,1727283040626,-1.65625,0.4580078,-0.3076172,-42.90625,27.1875,2.0625
190,190,1727283040666,-0.75097656,-0.05078125,-0.25976562,-76.0,-3.75,-21.96875
191,191,1727283040706,-0.9326172,0.021484375,-0.095703125,-50.96875,24.8125,-25.375
192,192,1727283040746,-0.9326172,0.2626953,0.01953125,-60.3125,27.5,-21.96875
193,193,1727283040786,-0.8642578,0.061523438,-0.0126953125,-78.96875,14.875,-22.09375
194,194,1727283040826,-0.87597656,-0.12402344,0.0087890625,-73.0625,14.3125,-34.65625
195,195,1727283040866,-0.87597656,-0.095703125,-0.01953125,-57.625,32.5,-41.9375
196,196,1727283040906,-0.91796875,0.03125,-0.013671875,-52.4375,37.5625,-31.0
197,197,1727283040946,-0.94140625,-0.083984375,-0.025390625,-58.40625,43.0625,-22.9375
198,198,1727283040986,-0.9404297,-0.103515625,0.01171875,-41.0625,44.78125,-20.4375
199,199,1727283041026,-1.0683594,-0.12402344,0.047851562,-41.3125,34.53125,-18.96875
200,200,1727283041066,-1.0878906,-0.107421875,0.05859375,-44.125,24.5625,-14.65625
201,201,1727283041106,-1.1298828,-0.13769531,0.022460938,-41.875,12.5,-4.9375
202,202,1727283041146,-1.2617188,-0.01171875,-0.08886719,-37.78125,6.875,2.9375
203,203,1727283041186,-1.3310547,-0.083984375,-0.30566406,-28.6875,-5.5625,-5.90625
204,204,1727283041226,-1.1640625,0.1875,-0.390625,-21.65625,-0.8125,-8.40625
205,205,1727283041266,-0.9765625,0.1875,-0.27734375,-24.28125,-28.03125,28.625
206,206,1727283041306,-1.1640625,0.10253906,-0.0234375,-33.625,-49.78125,28.125
207,207,1727283041346,-1.0517578,-0.053710938,-0.034179688,-29.71875,-48.78125,27.65625
208,208,1727283041386,-0.92871094,-0.056640625,0.03515625,-14.96875,-31.40625,34.375
209,209,1727283041426,-0.8066406,0.06542969,0.021484375,-6.21875,-29.6875,42.84375
210,210,1727283041466,-0.8330078,0.12402344,0.025390625,-17.9375,-41.59375,37.90625
211,211,1727283041506,-1.0263672,0.060546875,0.08691406,-29.84375,-36.71875,40.65625
212,212,1727283041546,-0.86328125,0.16015625,0.08300781,-31.6875,-11.3125,41.75
213,213,1727283041586,-0.8964844,0.19433594,0.20214844,-24.09375,-3.0625,46.75
214,214,1727283041626,-0.93847656,0.10253906,0.38867188,-27.90625,10.40625,32.53125
215,215,1727283041666,-0.8515625,-0.0048828125,0.37304688,-22.40625,-9.3125,7.375
216,216,1727283041706,-1.1035156,0.33496094,0.23925781,-5.5,-10.59375,-16.21875
217,217,1727283041746,-1.4179688,0.4404297,0.0107421875,-26.78125,25.96875,37.0625
218,218,1727283041786,-0.96484375,0.34179688,-0.18359375,-48.21875,42.03125,-12.3125
219,219,1727283041826,-0.90625,0.024414062,-0.13769531,-27.59375,19.9375,-18.3125
220,220,1727283041866,-0.9267578,0.16015625,-0.038085938,-23.5,24.8125,-32.34375
221,221,1727283041906,-1.1132812,0.13574219,0.030273438,-50.40625,8.21875,-37.53125
222,222,1727283041946,-0.8964844,0.016601562,-0.005859375,-60.65625,0.40625,-38.625
223,223,1727283041986,-0.9482422,-0.015625,-0.06933594,-46.8125,15.90625,-30.40625
224,224,1727283042026,-0.9189453,0.078125,-0.015625,-38.9375,26.96875,-32.78125
225,225,1727283042066,-0.8251953,0.076171875,0.06347656,-49.3125,30.0,-27.78125
226,226,1727283042106,-0.7246094,-0.087890625,0.043945312,-60.59375,47.65625,-30.03125
227,227,1727283042146,-0.8251953,-0.28320312,-0.015625,-36.375,66.1875,-26.65625
228,228,1727283042186,-1.0019531,-0.087890625,0.036132812,-17.625,54.65625,-21.71875
229,229,1727283042226,-1.1347656,-0.30664062,0.16113281,-25.40625,31.34375,-12.5
230,230,1727283042266,-1.0585938,-0.16992188,0.052734375,-9.59375,34.46875,-10.875
231,231,1727283042306,-1.2011719,-0.16308594,0.0625,-40.90625,20.65625,4.59375
232,232,1727283042346,-1.2617188,-0.25,-0.13769531,-58.65625,4.1875,-13.90625
233,233,1727283042386,-1.1328125,0.05078125,-0.46484375,-6.96875,-0.6875,-47.46875
234,234,1727283042426,-1.1689453,0.453125,-0.43164062,-47.25,-29.25,-25.5625
235,235,1727283042466,-1.0117188,0.056640625,-0.21875,-47.96875,-57.875,7.9375
236,236,1727283042506,-1.0966797,-0.016601562,-0.13867188,-21.53125,-62.59375,-5.0625
237,237,1727283042546,-1.0888672,0.19238281,-0.14746094,-4.9375,-47.875,8.59375
238,238,1727283042586,-1.140625,0.24121094,-0.064453125,-37.65625,-42.25,30.6875
239,239,1727283042626,-0.9511719,0.10546875,-0.04296875,-67.375,-45.625,16.40625
240,240,1727283042666,-1.1074219,-0.0703125,0.07714844,-64.75,-59.28125,24.15625
241,241,1727283042706,-0.99316406,-0.064453125,0.12207031,-69.03125,-35.59375,33.375
242,242,1727283042746,-0.75683594,-0.052734375,0.20019531,-55.125,-26.6875,51.28125
243,243,1727283042786,-0.7949219,0.04296875,0.19921875,-42.90625,-25.84375,50.65625
244,244,1727283042826,-0.8730469,0.15039062,0.22363281,-36.6875,-10.34375,47.65625
245,245,1727283042866,-0.85058594,0.20019531,0.27148438,-34.4375,-16.9375,38.15625
246,246,1727283042906,-0.921875,0.08203125,0.42285156,-20.9375,-9.4375,27.84375
247,247,1727283042946,-0.8574219,0.17675781,0.40625,-5.4375,-17.0625,16.78125
248,248,1727283042986,-1.0351562,0.28027344,0.36523438,-10.625,35.9375,-16.40625
249,249,1727283043026,-1.4160156,0.625,0.25390625,-18.4375,-0.625,-5.4375
250,250,1727283043066,-1.0488281,0.11425781,-0.2265625,-56.8125,21.28125,12.21875
251,251,1727283043106,-1.0361328,0.17382812,-0.38867188,-56.15625,38.0,-5.125
252,252,1727283043146,-1.0742188,0.19726562,-0.11621094,-54.75,14.625,-5.90625
253,253,1727283043186,-0.9941406,0.103515625,-0.11425781,-69.8125,11.4375,-14.9375
254,254,1727283043226,-0.97558594,0.08203125,-0.0107421875,-58.71875,10.09375,-16.71875
255,255,1727283043266,-0.93652344,0.021484375,-0.017578125,-65.125,10.59375,-19.15625
256,256,1727283043306,-0.8408203,0.017578125,0.015625,-59.6875,19.15625,-22.21875
257,257,1727283043346,-0.8544922,0.061523438,0.030273438,-65.0,19.75,-26.5625
258,258,1727283043386,-0.88183594,-0.022460938,0.053710938,-77.5625,22.25,-27.34375
259,259,1727283043426,-0.84375,-0.119140625,-0.0068359375,-75.75,40.125,-27.40625
260,260,1727283043466,-0.94921875,-0.10644531,-0.015625,-53.28125,54.78125,-16.34375
261,261,1727283043506,-1.0283203,-0.051757812,0.08984375,-30.46875,68.03125,-14.09375
262,262,1727283043546,-1.0742188,-0.06640625,0.16210938,-35.65625,46.375,-14.90625
263,263,1727283043586,-1.1308594,-0.13085938,0.018554688,-34.5,24.09375,-7.3125
264,264,1727283043626,-1.234375,-0.1015625,-0.13378906,-19.21875,14.3125,-1.09375
265,265,1727283043666,-1.3574219,-0.060546875,-0.3544922,-15.5,12.4375,-19.78125
266,266,1727283043706,-1.1337891,0.140625,-0.4892578,-13.0625,-7.90625,-1.21875
267,267,1727283043746,-1.0537109,0.047851562,-0.29296875,2.0,-19.0,30.53125
268,268,1727283043786,-1.0839844,0.013671875,-0.20117188,-12.625,-55.0625,20.09375
269,269,1727283043826,-1.0673828,0.048828125,-0.10644531,4.5625,-57.34375,36.8125
270,270,1727283043866,-0.85839844,0.11328125,-0.00390625,-2.1875,-62.78125,34.78125
271,271,1727283043906,-0.8544922,0.09375,0.001953125,-14.09375,-53.90625,32.21875
272,272,1727283043946,-0.8984375,-0.017578125,0.030273438,-17.34375,-66.3125,31.75
273,273,1727283043986,-0.92578125,-0.028320312,0.11328125,0.3125,-43.25,41.1875
274,274,1727283044026,-0.90625,0.03125,0.15429688,10.625,-11.9375,43.03125
275,275,1727283044066,-0.99902344,0.20117188,0.24511719,17.625,-19.0,48.21875
276,276,1727283044106,-0.8847656,0.1796875,0.24316406,20.25,-31.8125,27.53125
277,277,1727283044146,-0.83496094,0.2421875,0.34472656,16.0,-14.65625,3.78125
278,278,1727283044186,-0.9609375,0.11035156,0.21191406,6.21875,-4.53125,-19.03125
279,279,1727283044226,-1.6835938,0.20117188,-0.02734375,-7.6875,18.40625,30.40625
280,280,1727283044266,-0.7783203,0.123046875,-0.13476562,-18.125,23.0,-5.96875
281,281,1727283044306,-1.0673828,0.021484375,-0.10644531,13.625,28.0,-24.09375
282,282,1727283044346,-0.96484375,0.20214844,0.017578125,5.5625,25.375,-25.625
283,283,1727283044386,-0.90527344,0.11621094,0.009765625,-19.21875,9.8125,-30.46875
284,284,1727283044426,-0.8232422,-0.015625,-0.005859375,-21.125,14.0,-40.53125
285,285,1727283044466,-0.90234375,0.024414062,0.0146484375,-6.78125,27.0625,-31.96875
286,286,1727283044506,-0.8964844,0.087890625,-0.0107421875,-6.40625,34.78125,-30.28125
287,287,1727283044546,-0.90625,0.013671875,-0.034179688,-14.59375,45.25,-24.71875
288,288,1727283044586,-0.86621094,-0.060546875,-0.009765625,-12.34375,59.90625,-30.5625
289,289,1727283044626,-0.8486328,-0.17480469,-0.045898438,-0.84375,61.1875,-38.4375
290,290,1727283044666,-0.9667969,-0.21875,-0.00390625,7.6875,55.34375,-25.75
291,291,1727283044706,-1.1162109,-0.16113281,0.0087890625,9.8125,37.875,-14.46875
292,292,1727283044746,-1.1875,-0.056640625,-0.057617188,7.75,12.71875,-7.6875
293,293,1727283044786,-1.3183594,-0.19238281,-0.18359375,-13.71875,-1.65625,-3.90625
294,294,1727283044826,-1.5390625,-0.07324219,-0.5136719,11.59375,0.53125,-8.1875
295,295,1727283044866,-1.1416016,0.40429688,-0.43164062,4.09375,-23.21875,0.625
296,296,1727283044906,-1.0029297,0.16015625,-0.265625,-15.0625,-51.90625,27.09375
297,297,1727283044946,-1.1464844,-0.21875,-0.10253906,4.53125,-71.875,28.125
298,298,1727283044986,-0.9921875,-0.125,0.0,34.96875,-64.15625,31.625
299,299,1727283045026,-0.8232422,0.057617188,-0.01171875,36.25,-48.78125,31.6875
300,300,1727283045066,-0.8105469,0.13671875,0.022460938,32.96875,-58.6875,40.28125
301,301,1727283045106,-0.78027344,0.08496094,0.059570312,15.25,-60.875,32.03125
302,302,1727283045146,-0.8847656,-0.028320312,0.12011719,10.5,-37.375,28.75
303,303,1727283045186,-0.96191406,0.02734375,0.13183594,14.90625,-10.03125,25.21875
304,304,1727283045226,-0.96875,0.203125,0.14355469,21.84375,-0.5625,35.15625
305,305,1727283045266,-1.015625,0.13574219,0.2705078,15.6875,-7.28125,35.03125
306,306,1727283045306,-0.91503906,0.13769531,0.3232422,16.28125,-6.84375,12.34375
307,307,1727283045346,-0.98046875,-0.025390625,0.1171875,-11.0,11.875,-30.15625
308,308,1727283045386,-1.8476562,0.4482422,0.23242188,6.03125,-16.0,44.5
309,309,1727283045426,-0.64453125,0.00390625,-0.140625,-35.34375,26.40625,-23.0
310,310,1727283045466,-0.9980469,0.00390625,-0.140625,25.28125,22.5,-15.6875
311,311,1727283045506,-1.0712891,0.24707031,-0.040039062,11.34375,31.03125,-19.46875
312,312,1727283045546,-0.94433594,0.12988281,0.0029296875,-16.59375,2.34375,-30.34375
313,313,1727283045586,-0.8173828,0.04296875,0.009765625,-22.09375,10.0625,-43.34375
314,314,1727283045626,-0.90527344,-0.020507812,-0.0048828125,-13.71875,21.09375,-37.84375
315,315,1727283045666,-0.84277344,0.0029296875,-0.0087890625,-11.0625,32.03125,-35.53125
316,316,1727283045706,-0.7949219,0.022460938,-0.036132812,-6.90625,44.84375,-29.84375
317,317,1727283045746,-0.9033203,0.0068359375,-0.05859375,-12.375,54.34375,-26.625
318,318,1727283045786,-0.9824219,-0.109375,-0.049804688,-11.0625,49.59375,-26.0
319,319,1727283045826,-1.0478516,-0.19238281,-0.028320312,-6.28125,43.0,-18.4375
320,320,1727283045866,-1.1367188,-0.203125,0.005859375,-1.78125,25.375,-14.78125
321,321,1727283045906,-1.1669922,-0.140625,0.020507812,-4.46875,4.375,-13.0
322,322,1727283045946,-1.1699219,-0.038085938,-0.053710938,-20.3125,-9.78125,-6.65625
323,323,1727283045986,-1.3203125,-0.038085938,-0.29785156,-31.125,-4.1875,-9.28125
324,324,1727283046026,-1.3027344,0.04296875,-0.4140625,-8.375,-10.03125,-0.59375
325,325,1727283046066,-1.0683594,0.33691406,-0.25195312,-12.8125,-37.375,20.6875
326,326,1727283046106,-1.0644531,0.032226562,0.033203125,-32.71875,-62.59375,25.34375
327,327,1727283046146,-1.0625,-0.16015625,-0.01171875,-3.84375,-62.71875,28.25
328,328,1727283046186,-0.96484375,-0.022460938,0.009765625,23.25,-41.03125,35.84375
329,329,1727283046226,-0.8701172,0.1484375,0.078125,24.59375,-39.15625,39.125
330,330,1727283046266,-0.7167969,0.13183594,0.040039062,17.40625,-47.75,39.625
331,331,1727283046306,-0.77441406,0.08300781,0.06738281,9.28125,-38.65625,32.90625
332,332,1727283046346,-0.86328125,0.052734375,0.119140625,3.65625,-22.1875,30.6875
333,333,1727283046386,-0.9082031,0.11816406,0.14746094,4.40625,1.625,27.15625
334,334,1727283046426,-0.95996094,0.18945312,0.25195312,10.5,5.40625,26.5625
335,335,1727283046466,-1.0351562,0.08105469,0.33691406,12.4375,-10.9375,20.75
336,336,1727283046506,-0.93359375,0.14257812,0.38183594,16.59375,-9.1875,2.5
337,337,1727283046546,-1.1015625,0.2998047,0.26464844,15.1875,-1.0,-25.375
338,338,1727283046586,-1.359375,0.047851562,0.23535156,-20.1875,23.53125,6.21875
339,339,1727283046626,-1.0849609,-0.028320312,-0.119140625,17.34375,36.28125,-23.875
340,340,1727283046666,-1.0371094,0.029296875,-0.140625,57.4375,41.59375,-16.78125
341,341,1727283046706,-0.94921875,0.30664062,-0.083984375,42.34375,37.8125,-22.34375
342,342,1727283046746,-1.0673828,0.1640625,-0.07324219,2.125,8.78125,-32.03125
343,343,1727283046786,-0.9501953,0.029296875,-0.056640625,-16.46875,3.34375,-38.28125
344,344,1727283046826,-0.9160156,0.0078125,-0.12402344,-13.0,16.21875,-33.5625
345,345,1727283046866,-0.84472656,0.078125,-0.087890625,-13.84375,25.6875,-26.71875
346,346,1727283046906,-0.7939453,0.040039062,-0.064453125,-24.96875,32.625,-22.53125
347,347,1727283046946,-0.8222656,-0.043945312,-0.04296875,-36.0,43.4375,-25.21875
348,348,1727283046986,-0.8769531,-0.15820312,-0.016601562,-26.5625,51.0625,-24.53125
349,349,1727283047026,-0.93359375,-0.20800781,0.017578125,-8.90625,54.125,-16.0625
350,350,1727283047066,-1.0810547,-0.20898438,0.076171875,9.15625,46.59375,-6.59375
351,351,1727283047106,-1.1416016,-0.10546875,0.055664062,8.1875,25.125,-4.8125
352,352,1727283047146,-1.2314453,-0.029296875,-0.049804688,-7.1875,6.75,-2.8125
353,353,1727283047186,-1.2216797,-0.10839844,-0.3173828,-27.15625,0.09375,-4.15625
354,354,1727283047226,-1.3701172,0.09863281,-0.54003906,-4.09375,-15.34375,-10.8125
355,355,1727283047266,-1.0751953,0.29296875,-0.48242188,2.875,-38.78125,12.8125
356,356,1727283047306,-1.0546875,0.14453125,-0.15527344,-29.78125,-58.4375,20.5625
357,357,1727283047346,-1.2060547,-0.015625,-0.11816406,-27.96875,-62.84375,19.46875
358,358,1727283047386,-0.9169922,-0.017578125,-0.068359375,-16.59375,-61.375,19.34375
359,359,1727283047426,-0.85058594,0.09667969,0.0029296875,-8.4375,-54.09375,31.5625
360,360,1727283047466,-0.90722656,0.047851562,0.029296875,-11.09375,-63.75,35.65625
361,361,1727283047506,-0.8515625,0.053710938,0.068359375,-20.875,-49.8125,26.0625
362,362,1727283047546,-0.8125,0.068359375,0.08203125,-19.65625,-24.1875,23.125
363,363,1727283047586,-0.8876953,0.1484375,0.17285156,-21.4375,-24.625,31.5625
364,364,1727283047626,-1.0351562,0.17773438,-0.037109375,-21.96875,-27.375,25.21875
365,365,1727283047666,-0.9316406,0.025390625,0.0087890625,-42.84375,-43.0,24.0
366,366,1727283047706,-0.88964844,-0.111328125,0.09472656,-31.96875,-46.90625,25.34375
367,367,1727283047746,-0.8417969,-0.024414062,0.17089844,-10.0,-53.4375,31.9375
368,368,1727283047786,-0.828125,-0.00390625,0.14941406,2.25,-44.46875,35.21875
369,369,1727283047826,-0.7783203,0.038085938,0.16503906,8.375,-22.53125,42.65625
370,370,1727283047866,-0.8105469,0.12890625,0.2763672,9.875,-7.84375,38.875
371,371,1727283047906,-0.90234375,0.14257812,0.33203125,-1.46875,-26.8125,29.53125
372,372,1727283047946,-0.8310547,0.09082031,0.328125,-1.46875,-17.40625,12.5625
373,373,1727283047986,-0.92871094,0.14648438,0.25,5.375,19.6875,-8.375
374,374,1727283048026,-1.7128906,0.4423828,0.30371094,4.8125,13.46875,34.1875
375,375,1727283048066,-1.5605469,0.16894531,0.061523438,-30.03125,39.59375,19.03125
376,376,1727283048106,-0.8251953,0.30859375,-0.083984375,0.96875,30.5625,-1.21875
377,377,1727283048146,-0.9296875,0.1484375,-0.13476562,-9.40625,31.71875,-6.96875
378,378,1727283048186,-0.99609375,0.09375,-0.076171875,-26.90625,25.71875,-25.28125
379,379,1727283048226,-1.0585938,0.111328125,0.07324219,-37.34375,9.5625,-35.9375
380,380,1727283048266,-0.91796875,0.0078125,0.061523438,-41.5,2.40625,-29.84375
381,381,1727283048306,-0.86328125,-0.0078125,0.030273438,-25.15625,9.25,-30.09375
382,382,1727283048346,-0.859375,0.037109375,-0.005859375,-19.90625,13.71875,-29.0625
383,383,1727283048386,-0.78027344,0.030273438,-0.015625,-22.09375,21.46875,-26.1875
384,384,1727283048426,-0.78027344,0.009765625,-0.028320312,-32.28125,38.1875,-23.125
385,385,1727283048466,-0.88378906,-0.025390625,0.01953125,-32.65625,52.71875,-18.25
386,386,1727283048506,-0.91796875,-0.18847656,0.07519531,-21.84375,58.4375,-14.09375
387,387,1727283048546,-1.0400391,-0.24121094,0.08691406,-10.6875,44.84375,-17.03125
388,388,1727283048586,-1.1113281,-0.16503906,0.14160156,-3.28125,26.46875,-9.40625
389,389,1727283048626,-1.1425781,-0.1640625,0.08691406,-3.34375,17.96875,-9.34375
390,390,1727283048666,-1.2822266,-0.10546875,-0.171875,3.65625,17.125,-0.375
391,391,1727283048706,-1.6201172,-0.111328125,-0.24609375,0.71875,11.34375,-3.59375
392,392,1727283048746,-1.21875,0.08691406,-0.33789062,-4.34375,0.53125,-2.375
393,393,1727283048786,-0.8876953,0.11035156,-0.20703125,-7.03125,-37.0625,29.125
394,394,1727283048826,-1.0947266,0.055664062,-0.05859375,-0.5,-63.8125,35.40625
395,395,1727283048866,-1.1181641,-0.09472656,0.00390625,8.96875,-77.90625,23.875
396,396,1727283048906,-1.0976562,-0.013671875,0.06933594,21.3125,-60.5,18.8125
397,397,1727283048946,-0.9111328,0.052734375,0.041992188,33.15625,-54.28125,36.6875
398,398,1727283048986,-0.7841797,0.056640625,0.047851562,27.15625,-50.8125,33.8125
399,399,1727283049026,-0.765625,0.0078125,0.103515625,21.0625,-41.65625,30.40625
400,400,1727283049066,-0.80566406,0.043945312,0.087890625,22.28125,-28.09375,36.125
401,401,1727283049106,-0.7207031,0.16015625,0.12109375,22.8125,-10.875,37.90625
402,402,1727283049146,-0.8691406,0.22167969,0.23730469,19.34375,-18.75,37.34375
403,403,1727283049186,-0.8642578,0.18652344,0.3046875,8.78125,-21.1875,10.25
404,404,1727283049226,-0.87109375,0.13476562,0.3876953,20.625,-8.375,-0.84375
405,405,1727283049266,-1.1289062,0.07714844,0.32421875,30.46875,11.09375,-11.84375
406,406,1727283049306,-1.6591797,0.40429688,0.119140625,10.125,11.34375,5.0625
407,407,1727283049346,-1.3427734,0.14453125,0.12011719,-3.28125,24.34375,-11.53125
408,408,1727283049386,-0.66015625,0.02734375,-0.0859375,23.375,17.0,-8.0
409,409,1727283049426,-0.97265625,0.13085938,-0.10253906,43.34375,31.59375,-24.71875
410,410,1727283049466,-1.1162109,0.140625,0.001953125,6.21875,22.5625,-29.125
411,411,1727283049506,-1.0068359,0.043945312,0.0107421875,-16.65625,4.8125,-35.9375
412,412,1727283049546,-0.8808594,0.0087890625,0.0078125,-13.625,7.71875,-39.96875
413,413,1727283049586,-0.94628906,0.0087890625,0.013671875,-7.3125,21.21875,-40.59375
414,414,1727283049626,-0.85546875,0.036132812,-0.0087890625,-12.875,31.53125,-37.84375
415,415,1727283049666,-0.76660156,0.022460938,-0.021484375,-17.09375,44.34375,-31.5
416,416,1727283049706,-0.7685547,-0.029296875,-0.055664062,-20.8125,57.71875,-33.5
417,417,1727283049746,-0.9316406,-0.09472656,0.037109375,-19.78125,49.71875,-25.9375
418,418,1727283049786,-0.99902344,-0.31933594,-0.020507812,-16.40625,32.25,-23.5
419,419,1727283049826,-1.0429688,-0.25585938,0.020507812,23.5625,24.09375,-22.21875
420,420,1727283049866,-1.0605469,-0.15625,-0.005859375,21.71875,18.53125,-8.3125
421,421,1727283049906,-1.2041016,-0.109375,-0.030273438,14.84375,18.84375,2.875
422,422,1727283049946,-1.4072266,-0.14550781,-0.0859375,-11.78125,7.90625,8.71875
423,423,1727283049986,-1.3896484,-0.21484375,-0.28125,8.59375,4.3125,-5.375
424,424,1727283050026,-1.1992188,0.15625,-0.36035156,4.15625,-2.40625,1.15625
425,425,1727283050066,-1.0361328,0.009765625,-0.28027344,8.125,-40.84375,26.84375
426,426,1727283050106,-1.0107422,0.013671875,-0.16503906,32.40625,-62.40625,24.84375
427,427,1727283050146,-0.9873047,0.018554688,-0.041015625,28.0625,-60.6875,20.625
428,428,1727283050186,-1.0927734,-0.03515625,-0.051757812,25.375,-50.375,29.3125
429,429,1727283050226,-0.875,0.09863281,0.009765625,20.8125,-52.875,31.1875
430,430,1727283050266,-0.80566406,0.12011719,0.024414062,6.15625,-56.25,35.59375
431,431,1727283050306,-0.7314453,0.057617188,0.11425781,-4.6875,-52.8125,32.96875
432,432,1727283050346,-0.8251953,-0.024414062,0.17480469,-6.09375,-42.875,29.125
433,433,1727283050386,-0.8105469,-0.020507812,0.19628906,3.0,-17.0625,25.34375
434,434,1727283050426,-0.8564453,0.13769531,0.22167969,13.1875,-9.0,24.40625
435,435,1727283050466,-0.9316406,0.15234375,0.31835938,8.59375,-7.15625,20.5
436,436,1727283050506,-0.9248047,0.12988281,0.30273438,13.78125,-1.5625,9.28125
437,437,1727283050546,-1.046875,0.12109375,0.37304688,14.40625,13.15625,2.375
438,438,1727283050586,-1.4082031,0.5263672,0.0625,-6.84375,9.6875,-7.375
439,439,1727283050626,-1.6425781,0.09082031,0.25683594,-57.625,30.625,8.65625
440,440,1727283050666,-0.7285156,-0.07128906,-0.15820312,-17.53125,10.0,0.3125
441,441,1727283050706,-0.953125,0.107421875,-0.0546875,9.71875,34.34375,-11.59375
442,442,1727283050746,-1.0302734,0.19726562,0.055664062,-21.25,24.6875,-18.6875
443,443,1727283050786,-0.9716797,0.099609375,0.04296875,-47.84375,-0.28125,-32.65625
444,444,1727283050826,-0.89453125,-0.030273438,0.022460938,-46.15625,7.375,-35.21875
445,445,1727283050866,-0.9238281,-0.05859375,-0.016601562,-28.625,21.34375,-31.5625
446,446,1727283050906,-0.8779297,0.029296875,-0.0107421875,-19.21875,31.34375,-29.21875
447,447,1727283050946,-0.8515625,0.0078125,-0.022460938,-18.90625,42.53125,-24.40625
448,448,1727283050986,-0.8857422,-0.06933594,-0.015625,-19.40625,52.40625,-18.90625
449,449,1727283051026,-0.92089844,-0.19042969,-0.009765625,-8.3125,53.4375,-11.59375
450,450,1727283051066,-0.93066406,-0.19628906,0.034179688,5.125,58.9375,-10.3125
451,451,1727283051106,-1.1103516,-0.19921875,0.125,0.625,33.125,-11.71875
452,452,1727283051146,-1.1787109,-0.20898438,0.0009765625,6.71875,19.03125,-7.3125
453,453,1727283051186,-1.2207031,-0.0126953125,-0.095703125,-1.96875,11.5,-0.96875
454,454,1727283051226,-1.3056641,-0.06933594,-0.3642578,-16.65625,2.25,-10.75
455,455,1727283051266,-1.2441406,0.16113281,-0.3515625,0.0,-12.78125,-9.34375
456,456,1727283051306,-1.0078125,0.24609375,-0.2421875,-2.625,-42.625,23.6875
457,457,1727283051346,-1.0214844,-0.0009765625,-0.18164062,-6.53125,-68.6875,30.8125
458,458,1727283051386,-1.0371094,0.055664062,-0.043945312,2.1875,-56.3125,20.8125
459,459,1727283051426,-1.0449219,0.10449219,0.0107421875,-7.9375,-53.0,27.03125
460,460,1727283051466,-0.9169922,0.04296875,0.033203125,-9.40625,-51.40625,34.59375
461,461,1727283051506,-0.7939453,0.0234375,0.053710938,-5.96875,-47.09375,35.59375
462,462,1727283051546,-0.8251953,0.0,0.13671875,-4.34375,-40.90625,33.3125
463,463,1727283051586,-0.8544922,0.0703125,0.12207031,-6.09375,-30.90625,31.0625
464,464,1727283051626,-0.85253906,0.12988281,0.19042969,-1.96875,-2.90625,28.375
465,465,1727283051666,-0.9140625,0.18359375,0.17871094,3.78125,8.53125,36.0625
466,466,1727283051706,-0.90527344,0.11230469,0.3515625,-1.09375,-7.15625,20.4375
467,467,1727283051746,-0.7949219,0.16699219,0.27148438,6.15625,2.25,5.5
468,468,1727283051786,-0.97558594,0.115234375,0.3203125,9.34375,40.125,-3.71875
469,469,1727283051826,-1.4941406,0.43359375,0.19628906,1.03125,21.875,-7.09375
470,470,1727283051866,-1.8027344,0.20996094,0.2734375,-46.03125,14.375,24.46875
471,471,1727283051906,-0.7763672,0.033203125,-0.10253906,-25.625,21.15625,-16.65625
472,472,1727283051946,-0.7128906,-0.06933594,-0.18945312,13.125,29.6875,-17.625
473,473,1727283051986,-1.0078125,0.21875,-0.064453125,-0.5625,42.59375,-31.6875
474,474,1727283052026,-0.97753906,0.23632812,0.0126953125,-45.96875,2.40625,-40.59375
475,475,1727283052066,-0.8769531,0.040039062,-0.01953125,-73.25,-6.125,-44.0
476,476,1727283052106,-0.91308594,-0.08886719,-0.024414062,-55.40625,12.625,-35.09375
477,477,1727283052146,-0.90234375,-0.0107421875,-0.08496094,-38.75,22.4375,-26.71875
478,478,1727283052186,-0.81933594,0.078125,-0.047851562,-27.53125,26.34375,-23.3125
479,479,1727283052226,-0.84472656,0.048828125,-0.0078125,-45.65625,24.28125,-25.375
480,480,1727283052266,-0.86328125,-0.18261719,-0.0390625,-48.46875,38.1875,-29.1875
481,481,1727283052306,-0.94433594,-0.17285156,0.038085938,-21.3125,31.96875,-12.5625
482,482,1727283052346,-0.9794922,-0.15234375,0.049804688,-11.53125,32.6875,-12.28125
483,483,1727283052386,-0.9628906,-0.12402344,0.11816406,-12.6875,20.3125,-6.09375
484,484,1727283052426,-1.0791016,-0.17578125,0.1328125,-22.78125,14.6875,1.78125
485,485,1727283052466,-1.1708984,-0.20800781,0.11230469,-21.375,21.28125,4.34375
486,486,1727283052506,-1.3261719,-0.15917969,0.16015625,-28.375,23.84375,4.6875
487,487,1727283052546,-1.4296875,-0.23144531,-0.2783203,-11.40625,20.0,-12.6875
488,488,1727283052586,-1.3222656,0.40625,-0.48046875,-13.625,-1.375,-19.65625
489,489,1727283052626,-1.0244141,0.21972656,-0.33691406,-15.75,-31.03125,18.0
490,490,1727283052666,-0.9921875,0.12109375,-0.23730469,-12.5625,-48.96875,1.71875
491,491,1727283052706,-1.1191406,0.030273438,-0.17773438,-10.4375,-40.84375,4.46875
492,492,1727283052746,-1.0234375,0.12695312,-0.15722656,-10.25,-40.25,21.125
493,493,1727283052786,-0.9091797,0.19335938,-0.16503906,-38.9375,-33.15625,15.0625
494,494,1727283052826,-0.9277344,0.06347656,-0.09472656,-57.3125,-58.96875,16.1875
495,495,1727283052866,-0.8964844,-0.020507812,-0.021484375,-73.84375,-76.1875,23.5
496,496,1727283052906,-0.9267578,-0.099609375,0.033203125,-71.84375,-67.40625,32.46875
497,497,1727283052946,-0.8378906,0.021484375,0.17773438,-58.34375,-30.90625,47.0
498,498,1727283052986,-0.7294922,-0.030273438,0.29003906,-53.09375,-15.21875,49.625
499,499,1727283053026,-0.74609375,-0.044921875,0.25390625,-32.84375,-7.96875,40.21875
500,500,1727283053066,-0.8955078,0.19140625,0.31933594,-14.15625,-27.25,28.625
501,501,1727283053106,-0.90625,0.296875,0.3671875,-12.875,-10.8125,24.34375
502,502,1727283053146,-0.9082031,0.32421875,0.42382812,-35.78125,6.4375,9.40625
503,503,1727283053186,-0.9658203,0.21484375,0.40722656,-38.625,32.21875,4.40625
504,504,1727283053226,-1.4755859,0.3515625,0.38964844,-35.8125,25.1875,-0.0625
505,505,1727283053266,-1.484375,0.21875,0.14648438,-54.1875,12.5,33.03125
506,506,1727283053306,-0.828125,0.25683594,-0.28515625,-58.78125,19.03125,-13.0
507,507,1727283053346,-1.1503906,0.20117188,-0.26953125,-55.96875,25.125,-1.65625
508,508,1727283053386,-0.89746094,0.17871094,-0.10253906,-71.09375,19.1875,-13.78125
509,509,1727283053426,-0.8984375,0.099609375,-0.0048828125,-80.6875,20.0,-21.90625
510,510,1727283053466,-0.9082031,0.09667969,0.0087890625,-79.53125,13.34375,-20.9375
511,511,1727283053506,-0.9375,-0.0068359375,0.043945312,-75.375,11.28125,-19.84375
512,512,1727283053546,-0.9121094,-0.06542969,0.049804688,-59.5,12.125,-22.03125
513,513,1727283053586,-0.91308594,0.0234375,0.06738281,-52.90625,12.25,-25.03125
514,514,1727283053626,-0.8769531,0.05859375,0.044921875,-59.5625,19.625,-24.59375
515,515,1727283053666,-0.87597656,-0.041015625,0.020507812,-75.0625,34.09375,-20.75
516,516,1727283053706,-0.94628906,-0.13476562,0.08984375,-63.53125,46.25,-12.375
517,517,1727283053746,-0.96484375,-0.19824219,0.123046875,-41.0625,47.09375,-12.21875
518,518,1727283053786,-1.0488281,-0.18261719,0.19238281,-25.4375,30.6875,-9.875
519,519,1727283053826,-1.0439453,-0.15820312,0.19726562,-21.0625,19.09375,-4.28125
520,520,1727283053866,-1.0566406,-0.080078125,0.028320312,-13.0,17.5625,2.4375
521,521,1727283053906,-1.3496094,-0.1015625,-0.07128906,-7.09375,14.1875,0.96875
522,522,1727283053946,-1.4599609,0.16113281,-0.38867188,-3.84375,17.5,-15.9375
523,523,1727283053986,-1.0478516,0.16796875,-0.39160156,-14.03125,4.1875,2.1875
524,524,1727283054026,-1.0966797,0.10253906,-0.20410156,-7.75,-18.8125,14.84375
525,525,1727283054066,-1.0683594,-0.11230469,-0.022460938,5.75,-43.25,27.34375
526,526,1727283054106,-0.9628906,-0.0078125,-0.083984375,4.75,-38.21875,27.34375
527,527,1727283054146,-0.9785156,0.083984375,-0.034179688,4.21875,-37.875,31.3125
528,528,1727283054186,-0.9111328,0.16503906,0.0126953125,-5.4375,-56.90625,39.375
529,529,1727283054226,-0.81640625,0.0546875,0.028320312,-18.5,-47.9375,34.5
530,530,1727283054266,-0.8310547,-0.047851562,0.1015625,-21.25,-47.25,35.875
531,531,1727283054306,-0.9482422,-0.013671875,0.16699219,-10.75,-34.6875,42.3125
532,532,1727283054346,-0.8623047,0.103515625,0.18359375,-8.59375,-13.15625,39.1875
533,533,1727283054386,-0.8652344,0.15917969,0.24414062,-13.375,-1.96875,35.71875
534,534,1727283054426,-0.8359375,0.08691406,0.35253906,-17.6875,1.4375,17.6875
535,535,1727283054466,-0.86035156,0.15820312,0.29882812,-7.9375,-1.78125,0.71875
536,536,1727283054506,-1.2158203,0.24902344,0.32617188,-5.96875,40.0625,-11.03125
537,537,1727283054546,-1.7529297,0.50683594,-0.020507812,-37.53125,-2.9375,15.03125
538,538,1727283054586,-1.3193359,0.23632812,-0.022460938,-60.3125,35.3125,-12.6875
539,539,1727283054626,-0.70214844,0.033203125,-0.16894531,-34.25,30.625,-10.75
540,540,1727283054666,-0.86328125,0.123046875,-0.14941406,-17.75,44.21875,-21.90625
541,541,1727283054706,-1.0615234,0.19140625,-0.005859375,-38.15625,23.0625,-32.21875
542,542,1727283054746,-0.9199219,0.0029296875,0.056640625,-54.6875,0.59375,-37.09375
543,543,1727283054786,-0.7890625,-0.109375,-0.040039062,-35.34375,9.75,-40.40625
544,544,1727283054826,-0.953125,0.0390625,-0.05859375,-19.71875,24.28125,-30.625
545,545,1727283054866,-0.9121094,0.10644531,-0.03515625,-30.09375,23.0625,-35.53125
546,546,1727283054906,-0.79296875,0.056640625,-0.021484375,-52.0,23.0625,-33.03125
547,547,1727283054946,-0.8417969,-0.13085938,-0.00390625,-66.46875,26.09375,-29.59375
548,548,1727283054986,-0.9111328,-0.31640625,0.038085938,-45.53125,27.3125,-14.40625
549,549,1727283055026,-0.93652344,-0.2109375,0.0625,-13.96875,31.46875,-8.0
550,550,1727283055066,-0.9746094,-0.115234375,0.056640625,-13.78125,23.65625,-2.5625
551,551,1727283055106,-0.96875,-0.21191406,0.09082031,-27.03125,27.625,-2.75
552,552,1727283055146,-1.1123047,-0.29785156,0.022460938,-34.65625,30.8125,3.125
553,553,1727283055186,-1.2998047,-0.2109375,-0.0068359375,-31.96875,29.59375,12.8125
554,554,1727283055226,-1.4287109,-0.22167969,-0.20019531,-47.59375,15.90625,5.5625
555,555,1727283055266,-1.359375,0.10253906,-0.3388672,-11.78125,13.53125,-17.8125
556,556,1727283055306,-1.0068359,0.32617188,-0.35742188,-33.8125,1.1875,1.84375
557,557,1727283055346,-1.0986328,0.16796875,-0.27441406,-33.03125,-54.15625,17.46875
558,558,1727283055386,-0.98339844,0.12109375,-0.14355469,-25.75,-67.28125,-7.625
559,559,1727283055426,-1.1005859,0.15917969,-0.103515625,-16.0625,-49.53125,6.34375
560,560,1727283055466,-0.95214844,0.20507812,-0.09375,-30.9375,-37.0625,17.6875
561,561,1727283055506,-0.8720703,0.15820312,-0.06347656,-52.625,-27.0625,13.0625
562,562,1727283055546,-0.90625,0.068359375,-0.0078125,-59.15625,-44.09375,16.125
563,563,1727283055586,-0.92089844,0.001953125,0.0546875,-64.21875,-48.4375,22.34375
564,564,1727283055626,-0.93066406,-0.04296875,0.12402344,-60.1875,-48.84375,26.96875
565,565,1727283055666,-0.8613281,0.021484375,0.20605469,-45.96875,-26.6875,35.875
566,566,1727283055706,-0.7783203,0.13867188,0.16796875,-42.71875,-34.75,40.84375
567,567,1727283055746,-0.8544922,0.15039062,0.22363281,-42.53125,-8.625,35.21875
568,568,1727283055786,-0.9667969,0.15429688,0.31933594,-36.375,-10.21875,26.3125
569,569,1727283055826,-0.9140625,0.14550781,0.31445312,-27.71875,-12.0625,21.1875
570,570,1727283055866,-0.96191406,0.083984375,0.4765625,-13.3125,-2.40625,18.1875
571,571,1727283055906,-0.8769531,0.12207031,0.5058594,2.4375,10.0625,10.1875
572,572,1727283055946,-1.0957031,0.2529297,0.42285156,13.78125,29.21875,-0.59375
573,573,1727283055986,-1.5419922,0.54785156,0.3359375,0.25,4.1875,-5.125
574,574,1727283056026,-1.2441406,0.18066406,-0.045898438,-25.6875,1.125,25.46875
575,575,1727283056066,-0.8144531,0.22753906,-0.32421875,-49.0,35.9375,-35.9375
576,576,1727283056106,-1.1386719,0.18554688,-0.15917969,-40.84375,15.65625,2.3125
577,577,1727283056146,-0.88183594,0.20410156,-0.11230469,-73.90625,14.9375,-25.8125
578,578,1727283056186,-0.8886719,0.09277344,-0.044921875,-79.40625,11.28125,-31.375
579,579,1727283056226,-0.9169922,-0.026367188,0.0009765625,-72.28125,7.59375,-28.4375
580,580,1727283056266,-0.9169922,-0.0390625,-0.0087890625,-54.3125,9.375,-25.625
581,581,1727283056306,-0.88964844,0.0234375,0.01953125,-48.40625,8.9375,-29.0
582,582,1727283056346,-0.8300781,-0.0009765625,-0.001953125,-54.8125,13.40625,-31.3125
583,583,1727283056386,-0.8798828,-0.005859375,0.0,-63.34375,29.03125,-22.09375
584,584,1727283056426,-0.9550781,-0.056640625,0.08691406,-60.65625,43.25,-17.28125
585,585,1727283056466,-0.98828125,-0.16894531,0.0546875,-57.6875,38.1875,-14.46875
586,586,1727283056506,-1.0517578,-0.20605469,0.13671875,-41.5625,29.34375,-15.5625
587,587,1727283056546,-1.0742188,-0.12890625,0.10839844,-36.0,18.90625,-10.9375
588,588,1727283056586,-1.1240234,-0.041015625,0.01171875,-33.15625,14.5625,-3.96875
589,589,1727283056626,-1.2988281,-0.12597656,-0.06738281,-38.34375,12.1875,-2.0
590,590,1727283056666,-1.3632812,0.037109375,-0.4111328,-23.5625,17.6875,-9.9375
591,591,1727283056706,-1.0458984,0.16015625,-0.2998047,-27.34375,-4.34375,10.0
592,592,1727283056746,-1.0634766,0.11425781,-0.12792969,-27.09375,-35.4375,23.9375
593,593,1727283056786,-1.0712891,-0.07421875,-0.07910156,-18.1875,-51.90625,23.125
594,594,1727283056826,-0.9765625,-0.034179688,-0.016601562,-8.125,-43.71875,24.90625
595,595,1727283056866,-0.9511719,0.033203125,0.026367188,-1.09375,-49.15625,29.71875
596,596,1727283056906,-0.89160156,0.09863281,0.0234375,-7.625,-50.375,30.21875
597,597,1727283056946,-0.8417969,0.041015625,0.048828125,-15.625,-46.96875,27.28125
598,598,1727283056986,-0.85546875,0.0107421875,0.14453125,-10.875,-42.9375,29.125
599,599,1727283057026,-0.9121094,0.046875,0.14746094,-4.6875,-30.0625,36.8125
600,600,1727283057066,-0.85839844,0.095703125,0.19238281,-1.90625,-10.34375,35.28125
601,601,1727283057106,-0.85058594,0.171875,0.23730469,-0.125,5.46875,33.15625
602,602,1727283057146,-0.89746094,0.107421875,0.32910156,-6.40625,-4.53125,18.3125
603,603,1727283057186,-0.9345703,0.06738281,0.3623047,6.65625,6.625,0.96875
604,604,1727283057226,-1.1425781,0.16992188,0.33984375,10.6875,33.71875,-13.65625
605,605,1727283057266,-1.6357422,0.51464844,0.07128906,-13.0,14.375,18.125
606,606,1727283057306,-1.0390625,0.11425781,-0.08105469,-48.59375,29.625,-5.3125
607,607,1727283057346,-0.9238281,0.05859375,-0.095703125,-8.4375,26.46875,-2.0
608,608,1727283057386,-0.921875,0.125,-0.08886719,-7.09375,31.90625,-17.875
609,609,1727283057426,-1.0380859,0.11230469,0.024414062,-19.65625,10.34375,-24.09375
610,610,1727283057466,-0.9277344,0.048828125,0.045898438,-36.6875,1.375,-28.8125
611,611,1727283057506,-0.82910156,-0.015625,0.037109375,-35.40625,4.375,-35.40625
612,612,1727283057546,-0.9267578,-0.028320312,0.03125,-26.6875,19.09375,-32.03125
613,613,1727283057586,-0.9160156,0.033203125,0.01171875,-26.5625,26.59375,-27.40625
614,614,1727283057626,-0.85253906,0.0390625,-0.044921875,-35.09375,32.625,-22.34375
615,615,1727283057666,-0.89941406,-0.055664062,-0.0234375,-36.4375,47.65625,-20.75
616,616,1727283057706,-0.9453125,-0.15039062,0.005859375,-25.34375,48.3125,-16.125
617,617,1727283057746,-0.98339844,-0.20898438,0.044921875,-12.4375,45.375,-9.15625
618,618,1727283057786,-1.0429688,-0.16894531,0.024414062,2.25,38.71875,-8.90625
619,619,1727283057826,-1.0820312,-0.06738281,0.09277344,2.5,24.75,-7.9375
620,620,1727283057866,-1.2675781,-0.08203125,0.041992188,-5.1875,15.34375,-4.8125
621,621,1727283057906,-1.3574219,-0.20214844,-0.08984375,-5.96875,8.28125,3.90625
622,622,1727283057946,-1.3095703,-0.125,-0.41796875,19.34375,6.03125,-0.5
623,623,1727283057986,-1.0537109,0.29589844,-0.32226562,13.78125,-27.78125,1.65625
624,624,1727283058026,-1.0,0.0703125,-0.09667969,-5.0625,-50.4375,22.09375
625,625,1727283058066,-1.0869141,-0.095703125,-0.11035156,-4.09375,-75.53125,14.84375
626,626,1727283058106,-1.1494141,-0.06542969,0.0126953125,11.65625,-49.09375,20.625
627,627,1727283058146,-0.9746094,0.02734375,0.033203125,21.46875,-63.25,32.21875
628,628,1727283058186,-0.8808594,0.020507812,0.0029296875,29.53125,-61.1875,33.8125
629,629,1727283058226,-0.8378906,0.043945312,0.018554688,28.5,-61.125,24.125
630,630,1727283058266,-0.84472656,0.03125,0.125,26.4375,-46.96875,28.5625
631,631,1727283058306,-0.8486328,0.059570312,0.09277344,24.0625,-20.09375,32.21875
632,632,1727283058346,-0.8222656,0.15820312,0.18847656,28.5,-1.5625,32.78125
633,633,1727283058386,-0.9511719,0.1484375,0.33203125,23.5625,-4.34375,29.78125
634,634,1727283058426,-0.88378906,0.03125,0.3330078,25.625,-12.84375,16.0
635,635,1727283058466,-0.94628906,0.08984375,0.28808594,30.53125,17.90625,-11.59375
636,636,1727283058506,-1.4277344,0.5605469,0.11621094,6.53125,22.3125,-11.15625
637,637,1727283058546,-1.4453125,0.099609375,0.04296875,-35.03125,24.9375,5.5625
638,638,1727283058586,-0.7158203,-0.018554688,-0.1171875,2.9375,17.90625,-13.25
639,639,1727283058626,-0.92578125,0.06347656,-0.11816406,24.40625,31.78125,-20.5625
640,640,1727283058666,-1.0673828,0.12890625,-0.03125,8.53125,25.78125,-16.46875
641,641,1727283058706,-0.89941406,0.10253906,0.036132812,-10.4375,7.3125,-28.25
642,642,1727283058746,-0.8671875,-0.0029296875,0.036132812,-7.4375,5.90625,-32.65625
643,643,1727283058786,-0.9609375,-0.01171875,0.020507812,2.0625,15.84375,-28.8125
644,644,1727283058826,-0.89941406,0.07324219,0.005859375,0.1875,22.75,-26.0625
645,645,1727283058866,-0.8769531,0.08203125,0.041992188,-12.03125,32.5,-25.375
646,646,1727283058906,-0.92089844,-0.018554688,0.068359375,-25.4375,37.625,-32.34375
647,647,1727283058946,-0.99316406,-0.20507812,0.038085938,-22.09375,34.03125,-21.59375
648,648,1727283058986,-1.0302734,-0.25976562,0.009765625,-3.40625,34.9375,-16.59375
649,649,1727283059026,-1.0283203,-0.1875,0.02734375,11.40625,29.53125,-10.75
650,650,1727283059066,-1.0693359,-0.14941406,-0.028320312,6.71875,20.90625,-5.3125
651,651,1727283059106,-1.1904297,-0.0625,-0.05078125,-5.375,15.90625,0.25
652,652,1727283059146,-1.3144531,-0.13574219,-0.10449219,-19.40625,7.125,4.9375
653,653,1727283059186,-1.2177734,-0.08984375,-0.30273438,-1.03125,-3.875,-16.96875
654,654,1727283059226,-1.0634766,0.18359375,-0.23046875,0.96875,-28.84375,-12.28125
655,655,1727283059266,-0.85546875,0.052734375,-0.2861328,13.5625,-44.46875,25.34375
656,656,1727283059306,-0.97753906,0.025390625,-0.046875,14.71875,-59.53125,11.0625
657,657,1727283059346,-1.09375,0.06933594,0.0009765625,18.75,-56.125,10.75
658,658,1727283059386,-0.96972656,0.1484375,0.022460938,11.53125,-36.09375,23.9375
659,659,1727283059426,-0.9482422,0.13867188,0.087890625,0.84375,-36.28125,28.625
660,660,1727283059466,-0.99121094,-0.018554688,0.11621094,-12.75,-40.5625,22.34375
661,661,1727283059506,-1.0117188,-0.083984375,0.17382812,-6.34375,-43.1875,29.125
662,662,1727283059546,-0.8154297,0.026367188,0.19433594,7.8125,-19.8125,29.96875
663,663,1727283059586,-0.8359375,0.123046875,0.19824219,15.125,-16.375,33.875
664,664,1727283059626,-0.7783203,0.11035156,0.24414062,11.0625,-17.0,20.25
665,665,1727283059666,-0.828125,0.13671875,0.31054688,18.875,-5.46875,10.0625
666,666,1727283059706,-0.9560547,0.13867188,0.3564453,19.15625,23.59375,0.5625
667,667,1727283059746,-1.3222656,0.34375,0.20703125,8.71875,4.0625,-5.25
668,668,1727283059786,-1.6601562,0.18457031,0.034179688,-23.4375,42.53125,18.125
669,669,1727283059826,-0.7998047,0.057617188,-0.16015625,-22.78125,11.6875,-3.71875
670,670,1727283059866,-0.8642578,-0.06542969,-0.15136719,4.9375,24.40625,-11.21875
671,671,1727283059906,-1.0146484,0.12890625,-0.0546875,3.40625,31.78125,-13.59375
672,672,1727283059946,-1.0888672,0.11425781,0.0107421875,-27.40625,11.21875,-18.0625
673,673,1727283059986,-0.890625,-0.01953125,0.033203125,-32.21875,2.65625,-27.53125
674,674,1727283060026,-0.84472656,-0.051757812,0.018554688,-14.46875,15.34375,-31.8125
675,675,1727283060066,-0.90234375,-0.034179688,0.016601562,-2.75,24.875,-29.84375
676,676,1727283060106,-0.8359375,-0.0126953125,-0.041992188,0.90625,35.125,-27.53125
677,677,1727283060146,-0.8691406,0.043945312,-0.022460938,3.65625,46.90625,-26.5
678,678,1727283060186,-0.9394531,-0.064453125,-0.030273438,-9.46875,39.46875,-24.34375
679,679,1727283060226,-0.9785156,-0.2265625,-0.044921875,-5.8125,40.8125,-15.1875
680,680,1727283060266,-0.9902344,-0.21777344,0.005859375,14.46875,38.96875,-10.375
681,681,1727283060306,-1.0810547,-0.18261719,0.04296875,8.4375,26.46875,-10.8125
682,682,1727283060346,-1.2558594,-0.17480469,-0.059570312,-2.5625,13.53125,-0.3125
683,683,1727283060386,-1.3349609,-0.080078125,-0.07910156,-13.5,5.03125,1.46875
684,684,1727283060426,-1.2011719,-0.21289062,-0.4716797,-19.65625,-3.25,-12.15625
685,685,1727283060466,-1.2353516,0.20214844,-0.35546875,24.65625,-10.59375,-16.21875
686,686,1727283060506,-0.9267578,0.25,-0.19726562,21.65625,-35.1875,29.1875
687,687,1727283060546,-1.0058594,0.024414062,-0.09863281,12.4375,-62.09375,35.65625
688,688,1727283060586,-1.0966797,0.029296875,0.040039062,14.53125,-57.59375,17.34375
689,689,1727283060626,-0.99121094,0.10253906,0.033203125,6.46875,-57.8125,24.0625
690,690,1727283060666,-0.82421875,0.061523438,0.05859375,-1.03125,-53.5625,39.3125
691,691,1727283060706,-0.8408203,0.038085938,0.07910156,-13.25,-44.40625,30.9375
692,692,1727283060746,-0.9472656,-0.07128906,0.1015625,-22.71875,-32.90625,29.53125
693,693,1727283060786,-1.1494141,0.045898438,-0.10644531,2.625,-14.78125,15.0625
694,694,1727283060826,-1.0039062,0.030273438,-0.17285156,17.8125,-9.71875,23.5625
695,695,1727283060866,-0.96777344,0.14257812,-0.111328125,13.625,-11.6875,26.0625
696,696,1727283060906,-0.9707031,0.22265625,-0.11425781,-12.5,-25.65625,22.78125
697,697,1727283060946,-0.95410156,0.046875,-0.04296875,-35.8125,-36.8125,19.53125
698,698,1727283060986,-0.87890625,0.020507812,0.0234375,-30.8125,-37.0,23.1875
699,699,1727283061026,-0.9355469,0.06640625,0.15429688,-17.875,-34.75,33.4375
700,700,1727283061066,-0.88964844,0.01171875,0.16210938,-17.53125,-20.96875,34.4375
701,701,1727283061106,-0.90527344,0.06347656,0.17578125,-5.625,-15.65625,34.375
702,702,1727283061146,-0.93359375,0.22167969,0.23925781,2.8125,-23.09375,34.4375
703,703,1727283061186,-0.91015625,0.21484375,0.31054688,-2.75,-27.3125,23.5
704,704,1727283061226,-1.0,0.20507812,0.36035156,-10.1875,-19.6875,-0.375
705,705,1727283061266,-1.1875,0.28808594,0.026367188,-16.96875,-30.78125,-15.125
706,706,1727283061306,-1.4443359,0.23828125,0.18261719,-36.25,23.34375,18.4375
707,707,1727283061346,-0.796875,0.07519531,-0.109375,-32.84375,12.4375,-4.625
708,708,1727283061386,-0.96972656,0.036132812,-0.109375,5.96875,26.03125,-15.9375
709,709,1727283061426,-0.9658203,0.15722656,-0.017578125,-0.65625,30.5625,-20.8125
710,710,1727283061466,-0.9765625,0.07519531,-0.020507812,-20.5625,18.78125,-29.0
711,711,1727283061506,-0.8808594,0.1171875,-0.0009765625,-29.78125,10.21875,-35.21875
712,712,1727283061546,-0.9091797,-0.0009765625,0.001953125,-32.84375,10.21875,-33.375
713,713,1727283061586,-0.8847656,-0.041992188,-0.018554688,-29.0625,14.8125,-29.0625
714,714,1727283061626,-0.86816406,-0.029296875,-0.041992188,-20.5625,23.21875,-23.875
715,715,1727283061666,-0.8388672,0.072265625,-0.036132812,-24.90625,37.28125,-19.78125
716,716,1727283061706,-0.93652344,-0.0107421875,0.0078125,-42.0,40.25,-14.40625
717,717,1727283061746,-0.9580078,-0.20019531,0.0078125,-39.3125,43.9375,-12.375
718,718,1727283061786,-1.0146484,-0.22753906,0.11328125,-14.15625,44.84375,-8.1875
719,719,1727283061826,-1.1220703,-0.17480469,0.16503906,-1.03125,35.875,-6.59375
720,720,1727283061866,-1.1552734,-0.13085938,0.08984375,3.46875,23.53125,-6.59375
721,721,1727283061906,-1.2636719,-0.08105469,-0.0048828125,3.84375,22.375,2.6875
722,722,1727283061946,-1.4003906,-0.19921875,-0.27246094,12.75,20.25,-1.9375
723,723,1727283061986,-1.3417969,0.23339844,-0.29785156,8.53125,3.75,-16.78125
724,724,1727283062026,-0.9921875,0.0048828125,-0.23632812,-6.90625,-35.53125,21.96875
725,725,1727283062066,-1.0400391,-0.047851562,-0.10449219,26.3125,-69.65625,45.59375
726,726,1727283062106,-0.9980469,-0.033203125,0.013671875,25.6875,-64.0625,24.96875
727,727,1727283062146,-0.9707031,0.0,-0.0390625,26.78125,-48.5,27.90625
728,728,1727283062186,-0.98535156,0.10546875,-0.041015625,29.34375,-48.71875,38.40625
729,729,1727283062226,-0.90234375,0.08300781,0.0068359375,12.5,-50.375,30.21875
730,730,1727283062266,-0.84277344,0.060546875,0.07910156,1.28125,-42.875,26.75
731,731,1727283062306,-0.82421875,0.091796875,0.09765625,-3.0,-44.53125,30.40625
732,732,1727283062346,-0.86621094,0.07714844,0.115234375,-6.28125,-13.5625,26.5625
733,733,1727283062386,-0.93359375,0.12402344,0.18164062,9.71875,-3.4375,32.46875
734,734,1727283062426,-0.9628906,0.13964844,0.27246094,18.90625,2.0,35.65625
735,735,1727283062466,-0.9111328,0.15527344,0.31835938,20.8125,1.3125,16.0
736,736,1727283062506,-0.9501953,0.17675781,0.40527344,7.4375,17.6875,-11.03125
737,737,1727283062546,-1.5009766,0.42773438,0.0078125,-8.1875,0.65625,0.96875
738,738,1727283062586,-1.1640625,0.029296875,0.0029296875,-22.9375,29.34375,-16.46875
739,739,1727283062626,-0.82421875,-0.0078125,-0.09472656,29.125,21.40625,-3.40625
740,740,1727283062666,-1.0253906,0.25195312,-0.09863281,29.25,32.5625,-22.21875
741,741,1727283062706,-1.0498047,0.19628906,0.0107421875,-3.53125,13.09375,-26.3125
742,742,1727283062746,-0.96191406,-0.00390625,0.03125,-22.53125,3.53125,-37.90625
743,743,1727283062786,-0.9345703,-0.03515625,-0.0146484375,-9.34375,15.0,-39.1875
744,744,1727283062826,-0.9160156,0.059570312,0.016601562,4.21875,23.53125,-38.6875
745,745,1727283062866,-0.82714844,0.08300781,-0.041015625,-6.28125,34.65625,-41.625
746,746,1727283062906,-0.8408203,0.024414062,-0.01953125,-14.03125,50.03125,-35.03125
747,747,1727283062946,-0.9326172,-0.0625,-0.01953125,-14.21875,49.46875,-32.46875
748,748,1727283062986,-1.0341797,-0.1640625,0.0,-12.875,38.78125,-26.4375
749,749,1727283063026,-1.0732422,-0.25878906,0.043945312,-0.5,33.53125,-25.15625
750,750,1727283063066,-1.0791016,-0.234375,0.056640625,1.90625,19.15625,-12.5625
751,751,1727283063106,-1.1523438,-0.15039062,-0.0048828125,-3.59375,9.5,-1.03125
752,752,1727283063146,-1.1972656,-0.15136719,-0.08105469,-15.8125,8.46875,0.0
753,753,1727283063186,-1.2958984,-0.11328125,-0.43164062,1.78125,4.0,-5.4375
754,754,1727283063226,-1.2392578,0.30371094,-0.28222656,-2.0625,-23.46875,-0.90625
755,755,1727283063266,-0.9941406,0.16015625,-0.2265625,-4.6875,-53.1875,30.21875
756,756,1727283063306,-1.046875,-0.01171875,-0.09082031,0.5,-71.3125,22.875
757,757,1727283063346,-1.0673828,-0.0029296875,-0.017578125,8.0,-61.0,16.78125
758,758,1727283063386,-0.91796875,0.047851562,0.01953125,11.09375,-53.0,28.75
759,759,1727283063426,-0.8652344,0.08691406,0.060546875,7.4375,-46.90625,35.78125
