,Unnamed: 0,timestamp,accel_x,accel_y,accel_z,gyro_x,gyro_y,gyro_z
0,0,1727462460510,-0.8339844,-0.6767578,0.2734375,70.34375,-35.25,-87.6875
1,1,1727462460550,-0.46679688,-0.6142578,0.3330078,85.46875,-44.15625,-98.1875
2,2,1727462460590,-0.5703125,-0.7167969,0.44921875,59.40625,-40.875,-83.4375
3,3,1727462460630,-0.55078125,-0.6621094,0.2734375,39.75,-45.9375,-79.28125
4,4,1727462460670,-0.20898438,-0.9013672,0.45996094,22.65625,-44.71875,-74.03125
5,5,1727462460710,-0.46972656,-1.0742188,0.3046875,-25.1875,-14.0625,-55.34375
6,6,1727462460750,-0.48046875,-1.03125,0.42089844,-3.65625,-18.84375,-51.1875
7,7,1727462460790,-0.40039062,-1.1914062,0.52734375,9.0,-14.3125,-28.75
8,8,1727462460830,-0.4765625,-1.2832031,0.63183594,18.9375,-3.34375,-4.875
9,9,1727462460870,-0.38085938,-1.0751953,0.7294922,11.25,9.4375,-1.28125
10,10,1727462460910,-0.36523438,-1.0322266,0.6455078,1.4375,5.875,30.71875
11,11,1727462460950,-0.36621094,-1.0537109,0.5488281,-2.90625,12.65625,53.25
12,12,1727462460990,-0.48339844,-0.9716797,0.4423828,-14.25,18.28125,76.5625
13,13,1727462461030,-0.62890625,-0.8339844,0.4736328,-28.0625,29.25,93.40625
14,14,1727462461070,-0.76171875,-0.80078125,0.50097656,-34.71875,29.6875,108.46875
15,15,1727462461110,-0.67285156,-0.70410156,0.3154297,-27.875,14.625,130.8125
16,16,1727462461150,-0.5703125,-0.5732422,0.18847656,-18.09375,28.03125,123.59375
17,17,1727462461190,-0.71972656,-0.6269531,0.099609375,-4.375,30.125,94.5
18,18,1727462461230,-0.6845703,-0.54296875,0.19335938,-24.34375,50.1875,82.46875
19,19,1727462461270,-0.7441406,-0.4892578,0.24804688,-2.1875,44.09375,96.5
20,20,1727462461310,-0.7480469,-0.2841797,0.10644531,15.15625,48.65625,106.6875
21,21,1727462461350,-0.8515625,-0.107421875,0.12695312,11.4375,42.9375,92.90625
22,22,1727462461390,-0.7910156,-0.28125,0.07324219,19.25,39.46875,66.71875
23,23,1727462461430,-0.59375,-0.2763672,0.13671875,69.40625,6.875,52.625
24,24,1727462461470,-0.6777344,-0.09765625,0.0703125,40.5625,3.0625,18.9375
25,25,1727462461510,-0.7402344,0.029296875,0.032226562,-9.5,-11.9375,-13.90625
26,26,1727462461550,-0.86621094,0.2265625,0.01953125,-49.84375,-11.75,-31.78125
27,27,1727462461590,-0.78027344,0.17285156,-0.024414062,-62.59375,-1.125,-46.6875
28,28,1727462461630,-0.8222656,-0.40039062,-0.08886719,-43.125,24.9375,-63.53125
29,29,1727462461670,-0.96777344,-0.61621094,0.17578125,-6.5,-23.84375,-99.15625
30,30,1727462461710,-0.6923828,-0.18457031,0.017578125,44.40625,-57.96875,-72.1875
31,31,1727462461750,-0.9169922,-0.25878906,0.1328125,-28.96875,-47.875,-81.40625
32,32,1727462461790,-0.9560547,-0.57421875,0.029296875,-28.46875,-22.3125,-76.53125
33,33,1727462461830,-0.95214844,-0.8535156,0.24804688,36.9375,-23.65625,-85.75
34,34,1727462461870,-0.89453125,-0.5957031,0.20605469,84.5,-46.46875,-56.4375
35,35,1727462461910,-0.42285156,-0.29101562,0.3857422,39.875,-52.15625,-71.65625
36,36,1727462461950,-0.5029297,-0.63378906,0.37109375,28.71875,-40.125,-86.84375
37,37,1727462461990,-0.6591797,-0.85058594,0.47558594,57.75,-59.1875,-81.71875
38,38,1727462462030,-0.47753906,-0.65234375,0.31445312,39.5,-44.84375,-67.8125
39,39,1727462462070,-0.6845703,-0.69921875,0.4326172,34.125,-19.25,-91.84375
40,40,1727462462110,-0.33496094,-0.9863281,0.3642578,31.5,-1.9375,-96.65625
41,41,1727462462150,-0.24804688,-0.8417969,0.73046875,-0.21875,3.25,-47.96875
42,42,1727462462190,-0.5625,-1.3320312,0.81347656,12.53125,-9.0,-4.625
43,43,1727462462230,-0.37304688,-1.1240234,1.0654297,-1.3125,13.6875,19.3125
44,44,1727462462270,-0.5566406,-1.0546875,0.7832031,-12.3125,18.46875,21.8125
45,45,1727462462310,-0.41308594,-0.9042969,0.60253906,-24.03125,44.75,61.59375
46,46,1727462462350,-0.5957031,-0.95410156,0.62402344,-51.125,58.1875,76.84375
47,47,1727462462390,-0.62597656,-0.7480469,0.45410156,-62.84375,66.5625,94.625
48,48,1727462462430,-0.6933594,-0.7001953,0.2998047,-52.46875,54.34375,100.0625
49,49,1727462462470,-0.6796875,-0.59765625,0.15527344,-43.875,45.0625,101.40625
50,50,1727462462510,-0.6982422,-0.5371094,0.18457031,-46.4375,33.53125,101.40625
51,51,1727462462550,-0.71191406,-0.43359375,0.07324219,-63.34375,32.0625,98.9375
52,52,1727462462590,-0.8017578,-0.41992188,0.15722656,-65.28125,10.875,94.96875
53,53,1727462462630,-0.7216797,-0.31054688,0.17382812,-99.09375,-8.40625,82.59375
54,54,1727462462670,-1.0439453,-0.39648438,0.12695312,-132.375,-9.6875,82.09375
55,55,1727462462710,-1.0996094,-0.5595703,0.076171875,-101.25,-43.875,46.40625
56,56,1727462462750,-1.0371094,-0.01171875,0.1953125,-85.375,-114.65625,41.21875
57,57,1727462462790,-0.50097656,0.111328125,0.0009765625,-153.53125,-116.5625,38.03125
58,58,1727462462830,-0.38476562,-0.13867188,-0.037109375,-187.46875,-64.25,72.53125
59,59,1727462462870,-0.6845703,-0.26367188,0.45507812,-237.15625,-78.21875,92.46875
60,60,1727462462910,-0.9589844,-0.765625,-0.24023438,-219.03125,64.40625,125.8125
61,61,1727462462950,-1.7382812,-0.7597656,0.09472656,-83.09375,37.4375,109.875
62,62,1727462462990,-0.7402344,-0.0087890625,0.09082031,34.3125,-59.84375,6.1875
63,63,1727462463030,-0.53027344,0.4892578,-0.15625,77.53125,-40.25,13.0625
64,64,1727462463070,-1.0507812,0.07519531,-0.018554688,-24.6875,5.75,33.28125
65,65,1727462463110,-1.0693359,-0.16015625,0.009765625,-96.65625,5.03125,24.375
66,66,1727462463150,-0.9375,-0.0390625,-0.026367188,-77.96875,-12.71875,24.375
67,67,1727462463190,-0.8623047,-0.27929688,-0.15917969,-74.25,-33.125,21.9375
68,68,1727462463230,-0.5097656,-0.12792969,-0.1171875,-52.15625,-49.96875,9.34375
69,69,1727462463270,-1.2001953,-0.10449219,-0.30078125,-65.03125,-50.09375,-34.65625
70,70,1727462463310,-0.9199219,-0.025390625,0.31933594,-154.15625,-141.9375,-62.375
71,71,1727462463350,-0.7890625,-0.41601562,1.0214844,-162.09375,-158.90625,-86.65625
72,72,1727462463390,-0.7128906,-0.5332031,0.5986328,-86.65625,-83.28125,-105.9375
73,73,1727462463430,-0.38964844,-0.60839844,0.15820312,113.0625,-158.4375,-37.65625
74,74,1727462463470,-0.54785156,0.09472656,0.15332031,121.25,-113.625,-18.59375
75,75,1727462463510,-0.29492188,0.09667969,0.453125,46.84375,-46.1875,-46.4375
76,76,1727462463550,-0.53222656,-0.0009765625,0.7236328,-84.6875,-72.0625,-74.625
77,77,1727462463590,-0.92578125,-0.8144531,0.5839844,-52.40625,-93.0,-104.40625
78,78,1727462463630,0.14746094,-0.76171875,0.33789062,48.46875,-116.0625,-44.53125
79,79,1727462463670,-0.49316406,-0.2919922,0.5966797,49.53125,-139.1875,-44.125
80,80,1727462463710,-0.47460938,-0.2939453,0.5332031,-2.96875,-128.09375,-96.84375
81,81,1727462463750,-0.15625,-0.66796875,0.7919922,-7.375,-149.28125,-75.5
82,82,1727462463790,-0.036132812,-0.14941406,0.9550781,9.34375,-149.09375,-65.65625
83,83,1727462463830,-0.052734375,-0.37695312,1.4365234,-105.3125,-62.78125,-86.65625
84,84,1727462463870,0.044921875,-1.9824219,1.7158203,-116.1875,-13.71875,-99.15625
85,85,1727462463910,-0.038085938,-1.1289062,1.8818359,38.21875,8.625,-31.1875
86,86,1727462463950,-0.053710938,-1.1328125,1.6835938,-10.1875,75.21875,5.1875
87,87,1727462463990,-0.14355469,-0.9375,1.1474609,31.625,88.84375,60.9375
88,88,1727462464030,-0.053710938,-0.82421875,0.87109375,14.3125,127.78125,53.53125
89,89,1727462464070,-0.22558594,-0.6230469,0.74121094,-6.03125,159.03125,34.0
90,90,1727462464110,-0.4033203,-0.59375,0.6279297,-30.875,169.59375,41.5625
91,91,1727462464150,-0.4423828,-0.6875,0.49902344,-44.65625,177.625,37.125
92,92,1727462464190,-0.53125,-0.55078125,0.56640625,-17.125,133.3125,36.625
93,93,1727462464230,-0.6699219,-0.28027344,0.45117188,-32.8125,87.71875,60.125
94,94,1727462464270,-0.7792969,-0.05078125,0.48535156,-91.40625,38.71875,93.28125
95,95,1727462464310,-1.2148438,-0.38671875,0.40527344,-161.71875,26.9375,127.625
96,96,1727462464350,-1.2666016,-0.5175781,0.28515625,-143.34375,-17.90625,171.78125
97,97,1727462464390,-0.87402344,-0.36621094,0.10839844,-92.375,-34.21875,217.0
98,98,1727462464430,-0.3310547,-0.45410156,-0.026367188,-84.5,-10.90625,200.75
99,99,1727462464470,0.0,-0.65527344,0.26757812,-122.78125,-27.4375,169.3125
100,100,1727462464510,-0.3798828,-0.16699219,0.4453125,-125.84375,-31.84375,153.09375
101,101,1727462464550,-0.4248047,-0.30859375,0.21777344,-124.90625,-1.1875,63.5
102,102,1727462464590,-0.5,0.26367188,0.6191406,-152.625,-39.28125,92.78125
103,103,1727462464630,-1.0136719,0.484375,-0.5214844,-28.84375,18.9375,171.46875
104,104,1727462464670,-0.61816406,0.095703125,-0.08886719,-47.84375,162.6875,48.15625
105,105,1727462464710,-1.1269531,0.14257812,-0.3310547,-171.5,102.8125,28.625
106,106,1727462464750,-1.4677734,-0.56933594,0.083984375,-252.90625,31.75,-37.40625
107,107,1727462464790,-1.2880859,-0.15136719,-0.32421875,-169.71875,-25.0625,-59.9375
108,108,1727462464830,-1.2529297,0.19042969,-0.3798828,-144.15625,-44.96875,-10.65625
109,109,1727462464870,-1.9345703,-0.18945312,-0.30371094,-203.03125,-24.625,54.28125
110,110,1727462464910,-1.6386719,-0.056640625,-0.34277344,-176.96875,-43.1875,60.1875
111,111,1727462464950,-1.1308594,0.15332031,-0.62109375,-190.71875,-79.8125,55.0625
112,112,1727462464990,-0.7783203,0.14941406,-0.45117188,-282.03125,-59.78125,56.15625
113,113,1727462465030,-0.5683594,-0.13183594,-0.4814453,-298.125,-41.84375,54.53125
114,114,1727462465070,-0.23535156,-0.37402344,-0.50390625,-265.375,-17.4375,45.3125
115,115,1727462465110,0.17578125,-0.54296875,-0.25976562,-278.59375,-2.125,-6.28125
116,116,1727462465150,-0.54003906,-0.4189453,-0.26367188,-205.0625,-32.8125,-20.625
117,117,1727462465190,-1.7197266,-0.91015625,-0.37695312,-229.59375,-23.96875,-54.6875
118,118,1727462465230,-1.4277344,-0.63964844,0.58203125,-344.53125,-64.96875,-70.375
119,119,1727462465270,-1.2451172,-0.36035156,-0.08691406,-271.53125,-78.15625,23.375
120,120,1727462465310,-1.6279297,-0.12207031,-0.25195312,-236.375,-113.5625,129.90625
121,121,1727462465350,-1.2441406,-0.1328125,-0.1015625,-243.09375,-91.53125,142.28125
122,122,1727462465390,-0.9609375,-0.20703125,-0.3642578,-260.125,-68.15625,149.0
123,123,1727462465430,-0.84277344,-0.44921875,-0.40722656,-202.96875,-83.21875,143.5
124,124,1727462465470,-0.69921875,-0.53027344,-0.20117188,-193.78125,-56.25,135.21875
125,125,1727462465510,-0.4248047,-0.11035156,-0.0390625,-183.03125,11.1875,70.03125
126,126,1727462465550,-0.37109375,0.061523438,-0.107421875,-147.6875,-7.0,58.125
127,127,1727462465590,-1.0039062,-0.4716797,-0.5263672,-205.1875,18.34375,24.0
128,128,1727462465630,-1.4140625,-0.36621094,-0.18261719,-286.71875,9.84375,5.09375
129,129,1727462465670,-1.3710938,-0.7753906,-0.12988281,-239.96875,-43.6875,-42.21875
130,130,1727462465710,-1.0849609,-0.53515625,-0.30371094,-166.25,-59.71875,6.1875
131,131,1727462465750,-1.8720703,-0.22363281,-0.3955078,-58.09375,12.28125,36.15625
132,132,1727462465790,-1.0527344,0.2841797,-0.3173828,-182.09375,8.21875,-3.78125
133,133,1727462465830,-1.1884766,-0.25097656,-0.375,-275.0625,11.75,32.4375
134,134,1727462465870,-0.94628906,-0.25878906,-0.2841797,-262.4375,-7.96875,52.5625
135,135,1727462465910,-0.6767578,-0.3154297,-0.47558594,-213.34375,-7.84375,60.625
136,136,1727462465950,-0.6171875,-0.3203125,-0.4560547,-261.8125,17.71875,34.3125
137,137,1727462465990,-0.8515625,-0.46679688,-0.140625,-348.71875,4.71875,-8.15625
138,138,1727462466030,-0.8652344,-0.44921875,-0.05078125,-232.9375,-45.25,-52.21875
139,139,1727462466070,-0.7910156,-0.3173828,-0.29296875,-233.9375,-63.03125,-79.28125
140,140,1727462466110,-0.8701172,-0.67089844,-0.12695312,-200.1875,-38.25,-78.78125
141,141,1727462466150,-1.1650391,-0.4248047,-0.09082031,-122.53125,-59.84375,-57.0625
142,142,1727462466190,-1.2617188,-0.4560547,-0.041015625,-162.34375,-66.0,-28.0625
143,143,1727462466230,-0.9404297,-0.6386719,-0.10546875,-128.28125,-82.875,-23.59375
144,144,1727462466270,-1.0927734,-0.6201172,-0.059570312,-123.625,-21.46875,-6.625
145,145,1727462466310,-0.95703125,-0.39648438,0.13574219,-10.46875,-44.90625,51.21875
146,146,1727462466350,-0.76660156,-0.041992188,0.34277344,16.8125,-49.90625,116.65625
147,147,1727462466390,-0.765625,-0.09863281,0.038085938,-5.09375,-15.0,158.15625
148,148,1727462466430,-0.53808594,-0.15234375,-0.19628906,4.71875,5.53125,140.53125
149,149,1727462466470,-0.81640625,-0.068359375,-0.24023438,88.53125,41.59375,115.625
150,150,1727462466510,-0.8261719,-0.21484375,-0.42578125,93.34375,77.1875,50.3125
151,151,1727462466550,-0.8671875,-0.0234375,-0.20898438,38.71875,158.65625,-5.25
152,152,1727462466590,-1.2011719,0.19140625,0.55859375,-6.9375,90.0,-28.3125
153,153,1727462466630,-1.0185547,0.43066406,-0.0068359375,-66.8125,-20.65625,-37.71875
154,154,1727462466670,-1.5390625,-0.6533203,-0.044921875,-123.875,-39.34375,-31.78125
155,155,1727462466710,-1.2275391,-0.81640625,0.20410156,-99.46875,-79.5,-66.46875
156,156,1727462466750,-1.0849609,-0.6142578,-0.38671875,102.0625,-34.09375,4.84375
157,157,1727462466790,-1.1884766,-0.20898438,-0.18359375,124.65625,-16.15625,11.0625
158,158,1727462466830,-0.9667969,-0.16796875,-0.13964844,48.46875,28.28125,11.78125
159,159,1727462466870,-0.83691406,-0.107421875,-0.095703125,82.71875,16.5625,19.25
160,160,1727462466910,-0.78027344,0.032226562,-0.083984375,61.53125,0.28125,19.78125
161,161,1727462466950,-0.8466797,-0.1640625,-0.091796875,61.46875,-24.375,12.15625
162,162,1727462466990,-0.7158203,-0.3330078,0.0029296875,27.4375,-53.625,-15.3125
163,163,1727462467030,-0.7421875,-0.60058594,-0.12695312,81.875,-51.625,-36.4375
164,164,1727462467070,-0.73828125,-0.65625,-0.12597656,180.875,-68.53125,-71.40625
165,165,1727462467110,-0.87402344,-0.50878906,0.0078125,199.53125,-121.875,-139.5
166,166,1727462467150,-1.1601562,0.049804688,0.059570312,187.21875,-95.6875,-142.625
167,167,1727462467190,-1.6601562,-0.12695312,0.50097656,61.25,-6.625,-164.40625
168,168,1727462467230,-0.83496094,-0.42285156,0.32226562,78.9375,65.34375,-142.5
169,169,1727462467270,-1.2558594,-0.4794922,0.14746094,82.34375,136.875,-46.96875
170,170,1727462467310,-1.1523438,-0.34179688,0.22558594,210.90625,122.78125,-14.4375
171,171,1727462467350,-1.203125,-0.15136719,0.23925781,270.53125,124.09375,-4.625
172,172,1727462467390,-1.1044922,-0.02734375,0.045898438,261.9375,148.875,5.3125
173,173,1727462467430,-0.86035156,-0.13085938,-0.0625,256.3125,159.3125,22.21875
174,174,1727462467470,-1.0019531,-0.123046875,-0.19726562,266.75,144.5625,26.875
175,175,1727462467510,-0.71777344,0.11425781,0.07421875,276.5,88.9375,31.75
176,176,1727462467550,-0.3935547,0.20214844,-0.083984375,227.3125,19.8125,36.875
177,177,1727462467590,-0.45898438,0.20898438,-0.15527344,145.71875,-24.09375,40.40625
178,178,1727462467630,-1.1035156,0.42578125,-0.35839844,95.71875,-35.125,26.1875
179,179,1727462467670,-1.2451172,0.2529297,-0.2421875,57.15625,23.21875,1.65625
180,180,1727462467710,-1.1582031,-0.56152344,0.045898438,-122.0625,48.125,-38.875
181,181,1727462467750,-1.2451172,-0.9628906,-0.0703125,11.625,22.65625,-42.03125
182,182,1727462467790,-1.3984375,0.24023438,-0.057617188,80.71875,-34.59375,-51.375
183,183,1727462467830,-1.2412109,0.12402344,-0.13574219,-53.5625,-19.875,-1.21875
184,184,1727462467870,-1.25,-0.037109375,-0.030273438,-80.71875,-12.4375,28.8125
185,185,1727462467910,-1.03125,-0.040039062,-0.091796875,-90.875,-24.6875,33.21875
186,186,1727462467950,-0.8330078,-0.08984375,-0.10253906,-135.21875,-26.90625,35.53125
187,187,1727462467990,-0.6699219,-0.27929688,-0.15332031,-149.625,-1.5625,34.375
188,188,1727462468030,-0.6621094,-0.375,0.037109375,-136.46875,22.5,-5.40625
189,189,1727462468070,-0.8154297,-0.7597656,0.24121094,-109.0,20.71875,-54.0
190,190,1727462468110,-0.8984375,-0.3779297,0.30371094,41.53125,-40.8125,-88.65625
191,191,1727462468150,-0.8027344,-0.052734375,0.125,96.46875,-80.0,-64.5625
192,192,1727462468190,-1.3027344,-0.18261719,0.19921875,-6.8125,-59.1875,-15.4375
193,193,1727462468230,-0.89746094,-0.31054688,0.21191406,-82.0625,-23.03125,23.625
194,194,1727462468270,-1.5,-0.58496094,-0.017578125,-119.4375,8.5625,45.71875
195,195,1727462468310,-1.0527344,-0.9433594,0.26660156,-116.4375,28.34375,12.59375
196,196,1727462468350,-0.71875,-0.2841797,0.14648438,21.03125,-5.90625,35.65625
197,197,1727462468390,-0.65722656,-0.14746094,0.2734375,75.34375,-27.25,74.34375
198,198,1727462468430,-0.7109375,0.515625,0.051757812,-48.125,-6.6875,59.40625
199,199,1727462468470,-0.671875,0.25585938,0.0,-140.3125,16.375,49.9375
200,200,1727462468510,-0.91308594,-0.15722656,0.07324219,-193.78125,41.53125,30.40625
201,201,1727462468550,-1.0224609,-0.6591797,-0.08496094,-178.375,26.15625,24.1875
202,202,1727462468590,-1.0585938,-0.3466797,-0.0390625,-140.65625,2.53125,29.0625
203,203,1727462468630,-1.2558594,-0.24902344,-0.22070312,-64.5625,-2.78125,-0.28125
204,204,1727462468670,-1.0830078,0.47558594,0.036132812,-63.03125,-14.0,-20.8125
205,205,1727462468710,-0.9082031,0.21582031,-0.23730469,-116.96875,-29.03125,-3.84375
206,206,1727462468750,-0.8828125,0.078125,-0.4560547,-139.8125,-37.5625,-5.53125
207,207,1727462468790,-1.1367188,-0.30859375,-0.3388672,-212.75,11.25,-8.09375
208,208,1727462468830,-1.1308594,-0.8378906,-0.1171875,-175.8125,31.09375,1.40625
209,209,1727462468870,-1.0498047,-0.42773438,-0.037109375,-103.3125,17.59375,-12.0625
210,210,1727462468910,-0.9667969,0.09375,-0.11425781,-102.6875,1.25,-12.1875
211,211,1727462468950,-0.93652344,-0.030273438,-0.20703125,-135.78125,-7.90625,8.75
212,212,1727462468990,-0.8300781,-0.20410156,-0.18066406,-142.0625,-9.6875,7.71875
213,213,1727462469030,-0.765625,-0.5,-0.38671875,-61.1875,-5.03125,-2.0625
214,214,1727462469070,-0.8964844,-0.38378906,-0.123046875,-116.9375,13.625,-39.34375
215,215,1727462469110,-0.93359375,-0.36132812,-0.12207031,-49.0625,9.125,-30.5625
216,216,1727462469150,-0.703125,-0.17089844,-0.24316406,-3.8125,1.25,-34.71875
217,217,1727462469190,-0.8183594,-0.30078125,0.10058594,-51.1875,34.21875,-48.875
218,218,1727462469230,-0.96875,-0.4638672,-0.040039062,51.34375,13.28125,-37.28125
219,219,1727462469270,-0.9716797,-0.39648438,-0.16210938,99.5,8.375,-32.34375
220,220,1727462469310,-0.9345703,-0.12109375,-0.15136719,82.71875,4.0,-22.625
221,221,1727462469350,-0.7753906,-0.24609375,-0.15527344,59.71875,14.5625,-6.59375
222,222,1727462469390,-1.2832031,-0.3984375,-0.064453125,47.25,25.78125,-20.625
223,223,1727462469430,-1.1601562,-0.27441406,-0.18554688,84.625,8.3125,-7.8125
224,224,1727462469470,-1.0566406,-0.2421875,-0.08691406,49.28125,18.53125,7.15625
225,225,1727462469510,-1.1679688,-0.4375,-0.013671875,54.71875,14.5,11.25
226,226,1727462469550,-1.1201172,-0.578125,-0.09472656,95.40625,17.34375,19.46875
227,227,1727462469590,-0.7861328,-0.4091797,-0.12890625,162.125,8.25,35.40625
228,228,1727462469630,-0.8925781,-0.046875,-0.39257812,191.5,2.21875,57.875
229,229,1727462469670,-1.0966797,-0.018554688,-0.22460938,85.84375,46.34375,33.59375
230,230,1727462469710,-1.1152344,-0.23535156,-0.119140625,95.78125,29.75,-9.3125
231,231,1727462469750,-0.76660156,-0.076171875,-0.29882812,93.03125,29.875,-15.625
232,232,1727462469790,-0.8154297,-0.19921875,-0.09375,39.9375,46.09375,-9.625
233,233,1727462469830,-0.8720703,-0.3466797,-0.20507812,35.0,31.28125,-20.25
234,234,1727462469870,-0.9667969,-0.16894531,-0.022460938,32.6875,0.875,-16.15625
235,235,1727462469910,-0.99316406,-0.12597656,-0.13867188,-7.96875,-12.78125,-17.5
236,236,1727462469950,-0.8857422,-0.16503906,-0.078125,-41.3125,-17.84375,-22.375
237,237,1727462469990,-1.0195312,-0.2607422,-0.123046875,-67.125,-28.65625,-29.09375
238,238,1727462470030,-1.1337891,-0.27539062,-0.057617188,-92.03125,-52.59375,-24.71875
239,239,1727462470070,-1.2041016,-0.20800781,-0.06347656,-100.4375,-73.03125,-25.5625
240,240,1727462470110,-1.1591797,-0.31445312,-0.013671875,-113.3125,-95.9375,-33.96875
241,241,1727462470150,-0.84375,-0.4423828,0.09472656,-124.4375,-97.15625,-18.53125
242,242,1727462470190,-0.8261719,-0.5107422,0.20898438,-120.09375,-99.875,-20.0
243,243,1727462470230,-0.68066406,-0.4921875,0.03515625,-124.125,-82.96875,4.96875
244,244,1727462470270,-0.44628906,-0.46289062,0.2109375,-111.0,-51.375,31.9375
245,245,1727462470310,-1.6044922,-1.0390625,0.057617188,-107.21875,2.96875,21.3125
246,246,1727462470350,-1.2021484,-0.64453125,0.059570312,-30.8125,7.15625,38.21875
247,247,1727462470390,-0.56347656,-0.7001953,-0.22070312,27.78125,13.15625,82.40625
248,248,1727462470430,-0.80078125,-0.4091797,-0.13183594,-7.375,15.59375,136.5625
249,249,1727462470470,-1.3632812,0.27734375,-0.22265625,6.625,36.875,180.25
250,250,1727462470510,-1.0283203,0.5175781,0.076171875,22.46875,37.6875,88.21875
251,251,1727462470550,-1.0419922,-0.80566406,0.055664062,-107.28125,42.5,52.9375
252,252,1727462470590,-0.49121094,-0.375,0.057617188,-2.84375,-19.09375,7.53125
253,253,1727462470630,-0.2578125,-0.26953125,0.034179688,106.46875,-10.59375,14.84375
254,254,1727462470670,-0.43554688,-0.35058594,-0.16113281,213.46875,-12.375,-2.1875
255,255,1727462470710,-0.88378906,-0.15722656,-0.4111328,262.28125,-1.0,-19.625
256,256,1727462470750,-0.9970703,0.421875,-0.4560547,169.75,7.84375,-26.15625
257,257,1727462470790,-0.90527344,0.115234375,-0.23144531,27.0,-11.375,-23.84375
258,258,1727462470830,-0.90527344,-0.08496094,0.109375,-35.3125,-20.46875,-29.34375
259,259,1727462470870,-1.3173828,0.01953125,-0.13671875,-64.25,-27.1875,-48.75
260,260,1727462470910,-1.5195312,-0.040039062,-0.11425781,58.96875,-32.9375,1.0
261,261,1727462470950,-0.91015625,-0.083984375,-0.018554688,92.0,-46.65625,32.46875
262,262,1727462470990,-0.9238281,-0.5283203,-0.57421875,7.34375,-32.6875,17.15625
263,263,1727462471030,-0.890625,-0.7470703,-0.1875,-40.375,-18.65625,-5.65625
264,264,1727462471070,-0.7324219,0.029296875,0.05859375,38.90625,-62.71875,-29.09375
265,265,1727462471110,-0.6464844,0.4326172,0.10058594,114.8125,-79.4375,-20.875
266,266,1727462471150,-0.8798828,0.421875,0.20800781,-3.9375,-50.9375,2.09375
267,267,1727462471190,-1.640625,-0.73828125,0.17675781,-80.78125,22.65625,-14.4375
268,268,1727462471230,-1.5146484,-0.5283203,0.39648438,-1.125,6.0625,7.03125
269,269,1727462471270,-1.1777344,0.15820312,0.40429688,90.40625,-10.46875,39.4375
270,270,1727462471310,-1.4111328,1.0253906,0.45996094,101.875,2.34375,52.0625
271,271,1727462471350,-1.5419922,0.46679688,0.578125,-59.0625,-10.09375,88.5
272,272,1727462471390,-1.4619141,-0.3623047,0.67578125,-148.125,-46.53125,69.65625
273,273,1727462471430,-0.7392578,-0.7080078,0.24414062,-87.6875,-99.15625,0.125
274,274,1727462471470,-0.47460938,-0.20214844,0.58496094,-43.3125,-91.96875,-75.3125
275,275,1727462471510,-0.2685547,0.32128906,0.4482422,46.28125,-92.625,-45.75
276,276,1727462471550,-0.2607422,0.53125,0.36816406,63.5625,-48.9375,14.46875
277,277,1727462471590,-0.47753906,0.4033203,-0.017578125,81.3125,-21.21875,66.34375
278,278,1727462471630,-0.9736328,0.026367188,0.65234375,20.09375,-94.53125,21.0
279,279,1727462471670,-0.9345703,-0.009765625,0.6484375,-44.09375,-87.625,-31.1875
280,280,1727462471710,-0.6953125,0.49316406,0.47460938,-102.6875,-70.28125,-13.90625
281,281,1727462471750,-0.40625,0.23339844,0.6826172,-153.84375,-18.65625,-26.84375
282,282,1727462471790,-0.30273438,-0.5683594,0.42285156,-158.375,69.0,-37.78125
283,283,1727462471830,-0.6328125,0.049804688,0.58496094,-35.9375,58.75,-9.625
284,284,1727462471870,-0.51464844,-0.080078125,0.6660156,-42.46875,75.53125,50.78125
285,285,1727462471910,-0.11816406,-0.119140625,0.5029297,-68.15625,100.4375,75.09375
286,286,1727462471950,-1.0185547,-0.6640625,0.48046875,-59.1875,199.0,66.53125
287,287,1727462471990,-1.0175781,-0.8466797,1.0947266,79.90625,60.3125,-38.9375
288,288,1727462472030,-1.1367188,-0.41992188,0.9082031,-2.46875,49.78125,-55.71875
289,289,1727462472070,-1.3222656,0.57421875,-0.15722656,-102.8125,87.3125,-25.625
290,290,1727462472110,0.30273438,0.31054688,-0.10253906,-49.125,22.96875,7.75
291,291,1727462472150,-1.5019531,-0.2109375,-0.55078125,26.21875,-27.5,-35.25
292,292,1727462472190,-1.6904297,-0.6269531,0.10449219,-200.125,23.34375,-76.84375
293,293,1727462472230,-0.81347656,-0.76171875,-0.21191406,-70.0625,82.25,18.375
294,294,1727462472270,-1.1787109,-0.4267578,-0.2529297,-12.4375,45.4375,-16.03125
295,295,1727462472310,-1.5214844,0.21484375,0.08105469,-120.03125,-0.28125,24.71875
296,296,1727462472350,-1.6171875,0.35351562,-0.06738281,-197.4375,-0.90625,76.1875
297,297,1727462472390,-1.1103516,-0.38378906,-0.6357422,-224.59375,16.5,107.1875
298,298,1727462472430,-1.1132812,-0.97265625,-0.2685547,-204.25,84.4375,125.25
299,299,1727462472470,-1.1103516,-1.3896484,0.0126953125,-218.0625,67.78125,106.09375
300,300,1727462472510,-0.6669922,-1.3154297,0.19726562,-35.375,32.6875,32.78125
301,301,1727462472550,-0.18652344,-0.29785156,0.061523438,20.53125,20.09375,-30.6875
302,302,1727462472590,0.091796875,-0.21875,0.34472656,6.78125,3.375,-106.5
303,303,1727462472630,-0.67285156,0.40429688,0.26953125,82.1875,-90.25,-149.28125
304,304,1727462472670,-1.9580078,0.49316406,-0.34765625,-104.09375,-80.46875,-183.46875
305,305,1727462472710,-1.890625,-0.8886719,-0.14355469,-135.34375,-60.46875,-188.84375
306,306,1727462472750,-1.8642578,-0.9902344,0.63964844,-15.375,-149.375,-165.28125
307,307,1727462472790,-1.5410156,-0.68066406,0.29785156,100.4375,-164.71875,-62.65625
308,308,1727462472830,-0.4892578,-0.5966797,0.35351562,39.9375,-103.0625,56.96875
309,309,1727462472870,-0.33203125,-0.4375,0.22851562,-34.90625,-54.46875,131.90625
310,310,1727462472910,-0.33398438,-0.053710938,0.048828125,26.4375,-28.59375,134.53125
311,311,1727462472950,-0.040039062,0.35058594,0.17480469,-47.46875,-24.9375,75.34375
312,312,1727462472990,0.14453125,0.3876953,-0.20410156,-182.59375,4.125,50.5
313,313,1727462473030,-1.34375,-0.18164062,-1.1738281,-92.8125,86.28125,10.875
314,314,1727462473070,-1.9892578,-1.7568359,1.3828125,-279.34375,55.875,-2.625
315,315,1727462473110,-0.24707031,-0.33007812,-0.12109375,36.8125,15.53125,44.375
316,316,1727462473150,-1.1992188,0.15527344,-0.31933594,13.875,50.625,43.03125
317,317,1727462473190,-1.2382812,-0.5654297,0.06738281,-101.59375,108.59375,83.03125
318,318,1727462473230,-1.4599609,-0.63183594,-0.12988281,-34.9375,70.40625,104.75
319,319,1727462473270,-1.3828125,-0.7919922,0.22070312,-12.375,89.4375,90.03125
320,320,1727462473310,-0.9580078,-0.8203125,0.38183594,-5.21875,48.59375,62.09375
321,321,1727462473350,-0.26367188,-0.11816406,-0.01171875,52.5,-54.28125,12.65625
322,322,1727462473390,-0.5419922,0.17773438,-0.064453125,60.3125,-94.21875,-37.40625
323,323,1727462473430,-1.3486328,0.1796875,-0.38964844,42.25,-148.09375,-146.15625
324,324,1727462473470,-1.9892578,0.09472656,-0.234375,-29.59375,-149.34375,-215.25
325,325,1727462473510,-1.9892578,-0.5732422,-0.11425781,-241.4375,-113.3125,-354.71875
326,326,1727462473550,-1.9892578,-0.45898438,-0.22070312,111.65625,-153.34375,-352.90625
327,327,1727462473590,-1.6660156,-0.77246094,0.42382812,176.21875,-140.125,-233.4375
328,328,1727462473630,-1.0566406,-0.7480469,0.515625,131.5625,-186.5625,-179.75
329,329,1727462473670,-0.21777344,-0.50878906,0.16894531,179.84375,-207.4375,-119.0625
330,330,1727462473710,0.080078125,-0.7294922,-0.20117188,207.90625,-203.84375,-72.0625
331,331,1727462473750,-0.2626953,0.059570312,-0.35253906,226.65625,-211.21875,-95.5
332,332,1727462473790,-0.05859375,0.8095703,-0.078125,162.875,-164.09375,-92.53125
333,333,1727462473830,0.2421875,0.6503906,-0.62597656,34.09375,-128.21875,1.28125
334,334,1727462473870,0.26171875,-0.28515625,-0.4140625,-36.53125,-48.4375,8.5
335,335,1727462473910,0.39648438,0.1484375,0.026367188,-37.34375,13.5,26.25
336,336,1727462473950,0.57910156,0.18847656,0.4296875,-98.6875,89.875,54.9375
337,337,1727462473990,0.20214844,-0.29785156,0.6142578,-172.53125,162.5625,91.25
338,338,1727462474030,0.03515625,-0.83691406,0.45898438,-294.90625,181.40625,200.8125
339,339,1727462474070,0.00390625,-1.5605469,0.7109375,-242.28125,273.53125,181.53125
340,340,1727462474110,-1.3623047,-1.9824219,0.7910156,59.46875,173.90625,213.15625
341,341,1727462474150,-0.043945312,0.09765625,0.7890625,104.21875,94.09375,193.25
342,342,1727462474190,-1.2626953,0.4169922,0.41210938,-57.15625,250.4375,183.3125
343,343,1727462474230,-1.4755859,0.1328125,0.15722656,-142.4375,102.8125,222.84375
344,344,1727462474270,-1.0908203,-0.18164062,-0.19140625,-205.65625,125.4375,201.0625
345,345,1727462474310,-1.9892578,-1.7089844,-0.6689453,-215.875,126.6875,-16.84375
346,346,1727462474350,-0.73828125,-0.09472656,0.13183594,-95.5,-56.375,-67.96875
347,347,1727462474390,-1.0371094,-0.27539062,-0.044921875,-55.03125,-6.8125,63.0
348,348,1727462474430,-1.2451172,-0.046875,-0.39746094,-110.15625,19.9375,41.8125
349,349,1727462474470,-1.3476562,-0.6035156,-0.18457031,-208.96875,15.46875,46.03125
350,350,1727462474510,-1.0839844,-0.27539062,-0.49902344,-175.6875,-52.59375,39.75
351,351,1727462474550,-0.85058594,0.0146484375,-0.4501953,-146.59375,-41.84375,18.1875
352,352,1727462474590,-0.82128906,-0.20996094,-0.017578125,-219.65625,25.90625,36.625
353,353,1727462474630,-0.73046875,-0.68359375,-0.23339844,-176.25,21.6875,44.875
354,354,1727462474670,-0.7988281,-0.60253906,0.14941406,-167.53125,45.8125,5.09375
355,355,1727462474710,-1.0019531,-0.06542969,0.1640625,-156.84375,-36.34375,-68.28125
356,356,1727462474750,-0.45996094,0.4111328,0.060546875,-207.8125,-192.71875,-124.375
357,357,1727462474790,-1.1660156,0.67578125,0.171875,-290.375,-196.625,-154.34375
358,358,1727462474830,-1.9892578,-0.38378906,-0.37402344,-189.5625,-99.09375,-51.5625
359,359,1727462474870,-1.0537109,-1.1542969,-0.24804688,-173.25,-82.75,-69.9375
360,360,1727462474910,-0.9248047,-0.5732422,0.07519531,-118.375,-89.8125,-25.125
361,361,1727462474950,-0.52246094,-0.14746094,-0.0048828125,-80.125,-83.78125,35.59375
362,362,1727462474990,-0.20214844,-0.11816406,-0.08691406,-143.53125,-12.84375,86.375
363,363,1727462475030,-0.57910156,-0.16308594,-0.060546875,-153.1875,5.34375,96.03125
364,364,1727462475070,-1.0136719,-0.5498047,-0.125,-227.15625,32.1875,8.4375
365,365,1727462475110,-1.3681641,-0.52441406,-0.038085938,-274.75,46.15625,21.0625
366,366,1727462475150,-1.6513672,0.018554688,-0.35546875,-43.5625,-41.40625,-24.09375
367,367,1727462475190,-0.58691406,0.38183594,-0.08691406,-33.78125,-93.90625,15.875
368,368,1727462475230,-1.2021484,0.14550781,-0.36621094,-174.25,-40.75,50.25
369,369,1727462475270,-1.3994141,-0.3203125,-0.64746094,-162.28125,-34.53125,57.5625
370,370,1727462475310,-0.78027344,-0.30664062,-0.5517578,-162.15625,4.71875,34.125
371,371,1727462475350,-0.82910156,-0.1484375,-0.26464844,-164.84375,-13.59375,40.71875
372,372,1727462475390,-0.9189453,-0.0009765625,-0.2861328,-217.3125,-20.65625,25.71875
373,373,1727462475430,-0.9560547,-0.016601562,-0.4404297,-225.375,-10.53125,21.3125
374,374,1727462475470,-0.98535156,-0.22070312,-0.39941406,-257.96875,0.625,21.9375
375,375,1727462475510,-1.0058594,-0.20019531,-0.29101562,-292.21875,-21.21875,-5.25
376,376,1727462475550,-1.0371094,-0.21777344,-0.4111328,-257.25,-60.03125,-27.03125
377,377,1727462475590,-0.9736328,-0.3564453,-0.2783203,-230.6875,-39.96875,-9.21875
378,378,1727462475630,-1.0244141,-0.3564453,0.10546875,-189.1875,-27.9375,-6.875
379,379,1727462475670,-1.0048828,-0.27148438,-0.049804688,-169.28125,-39.84375,-28.125
380,380,1727462475710,-0.859375,-0.22265625,-0.17871094,-165.8125,-43.5625,-54.0625
381,381,1727462475750,-0.8330078,-0.1171875,-0.09863281,-180.46875,-74.0625,-37.875
382,382,1727462475790,-0.7207031,-0.0107421875,0.0126953125,-204.5,-88.46875,-6.09375
383,383,1727462475830,-0.95703125,-0.16601562,-0.20019531,-212.0,-100.1875,19.65625
384,384,1727462475870,-1.0556641,-0.55371094,-0.16210938,-209.03125,-116.375,10.3125
385,385,1727462475910,-0.8066406,-0.38183594,-0.09667969,-209.34375,-131.1875,-9.4375
386,386,1727462475950,-0.7001953,-0.3671875,-0.09082031,-175.8125,-144.875,-10.25
387,387,1727462475990,-0.69433594,-0.3984375,-0.0029296875,-158.78125,-150.71875,-15.375
388,388,1727462476030,-0.50878906,-0.2109375,0.171875,-180.875,-165.1875,-30.25
389,389,1727462476070,-0.3798828,-0.33203125,0.14257812,-208.53125,-155.90625,-29.46875
390,390,1727462476110,-0.3876953,-1.1269531,0.3720703,-166.90625,-180.15625,-93.96875
391,391,1727462476150,-0.17871094,-1.9824219,0.76464844,49.34375,-236.90625,-155.125
392,392,1727462476190,0.6464844,-0.734375,0.4140625,-183.15625,-144.1875,-117.125
393,393,1727462476230,-0.030273438,-1.9824219,0.3671875,-148.46875,-41.28125,-156.40625
394,394,1727462476270,-0.056640625,-1.4707031,0.52441406,-34.59375,-31.21875,-109.0
395,395,1727462476310,0.095703125,-1.1289062,0.4423828,-61.0625,10.28125,-103.0
396,396,1727462476350,-0.064453125,-1.1582031,0.4560547,-26.53125,24.125,-98.125
397,397,1727462476390,0.07421875,-0.8642578,0.55566406,-78.15625,19.9375,-84.75
398,398,1727462476430,0.0078125,-0.84375,0.29882812,-83.0,44.09375,-83.65625
399,399,1727462476470,0.14746094,-0.90722656,0.16113281,-66.8125,36.34375,-88.84375
400,400,1727462476510,0.0390625,-0.7294922,0.29882812,-57.28125,8.25,-72.0
401,401,1727462476550,0.16699219,-0.7246094,0.3388672,-68.78125,20.21875,-67.625
402,402,1727462476590,0.15625,-0.8935547,0.15429688,-120.65625,-2.90625,-47.90625
403,403,1727462476630,0.2841797,-1.1298828,-0.068359375,-152.875,-18.03125,-42.40625
404,404,1727462476670,0.359375,-1.0576172,-0.24316406,-139.6875,-10.96875,-69.875
405,405,1727462476710,0.4375,-1.0117188,-0.23242188,-116.1875,-13.34375,-58.15625
406,406,1727462476750,0.4404297,-0.9003906,-0.25585938,-99.34375,-17.25,-31.78125
407,407,1727462476790,0.3779297,-0.9248047,-0.34375,-90.4375,-19.875,-16.28125
408,408,1727462476830,0.47460938,-0.7871094,-0.453125,-60.53125,-7.90625,-24.09375
409,409,1727462476870,0.50878906,-0.7783203,-0.34765625,-38.0,-14.75,4.40625
410,410,1727462476910,0.40234375,-0.8125,-0.4140625,-38.5625,-35.6875,29.3125
411,411,1727462476950,0.3564453,-0.81152344,-0.40039062,-37.8125,-36.78125,27.84375
412,412,1727462476990,0.31347656,-0.8183594,-0.4765625,-41.84375,-32.5625,23.34375
413,413,1727462477030,0.26660156,-0.81347656,-0.4794922,-26.90625,-27.8125,21.375
414,414,1727462477070,0.20996094,-0.74316406,-0.4296875,-36.59375,-25.25,18.375
415,415,1727462477110,0.2421875,-0.65722656,-0.60253906,-53.875,-31.09375,20.21875
416,416,1727462477150,0.25976562,-0.82128906,-0.4111328,-39.15625,-33.65625,29.625
417,417,1727462477190,0.21289062,-0.7519531,-0.6582031,-42.09375,-31.53125,25.40625
418,418,1727462477230,0.140625,-0.79003906,-0.609375,-41.78125,-26.03125,23.4375
419,419,1727462477270,0.14941406,-0.7919922,-0.7373047,-39.40625,-23.21875,20.9375
420,420,1727462477310,0.13183594,-0.8222656,-0.74121094,-38.84375,-19.1875,16.96875
421,421,1727462477350,0.12207031,-0.7832031,-0.7998047,-40.03125,-15.0,11.625
422,422,1727462477390,0.11035156,-0.7236328,-0.7871094,-40.625,-16.46875,9.46875
423,423,1727462477430,0.083984375,-0.6591797,-0.70996094,-48.5625,-9.75,3.625
424,424,1727462477470,0.07519531,-0.62890625,-0.7578125,-58.03125,-13.40625,4.53125
425,425,1727462477510,0.07128906,-0.5126953,-0.81640625,-61.3125,-19.03125,6.71875
426,426,1727462477550,0.041015625,-0.58984375,-0.8173828,-65.21875,-27.3125,6.3125
427,427,1727462477590,0.060546875,-0.5957031,-0.9482422,-87.3125,-33.84375,7.59375
428,428,1727462477630,0.07519531,-0.5341797,-0.96972656,-98.71875,-32.5,8.125
429,429,1727462477670,0.056640625,-0.57421875,-1.0859375,-110.28125,-30.6875,6.25
430,430,1727462477710,-0.083984375,-0.4375,-1.0986328,-113.75,-32.5,6.96875
431,431,1727462477750,-0.032226562,-0.32128906,-1.2060547,-116.4375,-33.90625,8.9375
432,432,1727462477790,-0.052734375,-0.25878906,-1.1914062,-118.9375,-31.28125,13.6875
433,433,1727462477830,0.0029296875,-0.3388672,-1.1630859,-133.59375,-43.5,12.84375
434,434,1727462477870,-0.17675781,0.11425781,-1.1591797,-169.03125,-52.90625,2.5
435,435,1727462477910,-0.1328125,0.18457031,-1.1835938,-199.0,-64.1875,-5.65625
436,436,1727462477950,-0.22070312,0.41308594,-1.4882812,-241.4375,-78.15625,-11.40625
437,437,1727462477990,-0.11230469,0.41210938,-1.2158203,-389.6875,-98.59375,16.1875
438,438,1727462478030,-0.2529297,0.3642578,-0.6923828,-520.0625,-75.90625,-40.6875
439,439,1727462478070,0.017578125,0.58691406,-0.32910156,-418.375,-139.1875,26.8125
440,440,1727462478110,-0.28808594,0.46289062,-0.10058594,-257.5625,-43.0625,9.53125
441,441,1727462478150,-0.43359375,0.609375,-0.0234375,-157.6875,-36.53125,-23.0625
442,442,1727462478190,-0.26953125,0.82910156,0.15625,-55.65625,-24.4375,-16.15625
443,443,1727462478230,-0.4794922,1.0537109,0.16601562,-7.1875,-11.625,-10.3125
444,444,1727462478270,-0.43554688,1.0556641,0.19238281,-101.59375,20.03125,-3.03125
445,445,1727462478310,-0.33789062,0.9121094,0.22265625,-92.375,26.875,7.71875
446,446,1727462478350,-0.48339844,0.6113281,0.31933594,-71.15625,30.96875,19.3125
447,447,1727462478390,-0.59375,0.8066406,0.40527344,-31.59375,13.09375,8.25
448,448,1727462478430,-0.36914062,0.93066406,0.41503906,-36.84375,-25.65625,4.15625
449,449,1727462478470,-0.54785156,0.7763672,0.4091797,-81.03125,-46.4375,4.84375
450,450,1727462478510,-0.3388672,0.6455078,0.4609375,-89.75,-53.125,-10.375
451,451,1727462478550,-0.20214844,0.56933594,0.36914062,-68.15625,-32.09375,-5.71875
452,452,1727462478590,-0.328125,0.65527344,0.5107422,-38.90625,-23.65625,-5.46875
453,453,1727462478630,-0.35058594,0.8417969,0.46191406,-29.65625,-25.96875,-8.09375
454,454,1727462478670,-0.37597656,0.95214844,0.5908203,-28.96875,-49.40625,15.875
455,455,1727462478710,-0.4404297,0.7763672,0.6308594,-65.84375,-67.78125,22.71875
456,456,1727462478750,-0.41992188,0.74902344,0.6503906,-45.03125,-86.09375,10.8125
457,457,1727462478790,-0.29882812,0.70410156,0.75097656,-52.90625,-94.8125,12.78125
458,458,1727462478830,-0.2578125,0.6191406,0.7392578,-75.90625,-92.8125,18.4375
459,459,1727462478870,-0.2109375,0.48242188,0.7285156,-96.65625,-87.25,12.15625
460,460,1727462478910,-0.080078125,0.48046875,0.82421875,-70.84375,-99.9375,3.6875
461,461,1727462478950,-0.06738281,0.43164062,0.78027344,-71.03125,-96.46875,1.53125
462,462,1727462478990,0.046875,0.4140625,0.83691406,-50.75,-102.09375,6.90625
463,463,1727462479030,0.0390625,0.40527344,0.8095703,-41.1875,-100.3125,8.1875
464,464,1727462479070,0.095703125,0.43066406,0.85546875,-34.09375,-109.40625,16.3125
465,465,1727462479110,0.07714844,0.40820312,0.7607422,-34.46875,-118.5,16.84375
466,466,1727462479150,0.22949219,0.39746094,0.7910156,-19.8125,-140.28125,11.5625
467,467,1727462479190,0.37304688,0.3955078,0.703125,-7.65625,-140.40625,15.03125
468,468,1727462479230,0.5732422,0.375,0.6582031,23.9375,-158.90625,21.8125
469,469,1727462479270,0.67578125,0.41308594,0.5029297,46.71875,-162.5,34.9375
470,470,1727462479310,0.7314453,0.2607422,0.3642578,55.3125,-150.96875,41.8125
471,471,1727462479350,0.7763672,0.3515625,0.3544922,4.65625,-109.28125,25.28125
472,472,1727462479390,0.85839844,0.4189453,0.25878906,-10.71875,-77.4375,23.5625
473,473,1727462479430,0.9970703,0.29785156,0.15429688,-24.625,-54.40625,35.84375
474,474,1727462479470,0.984375,0.33398438,0.2763672,-39.46875,-38.90625,72.03125
475,475,1727462479510,0.9140625,0.27929688,0.22167969,-48.625,1.0625,90.71875
476,476,1727462479550,0.8378906,0.1171875,0.18457031,-67.96875,29.9375,78.5
477,477,1727462479590,0.8095703,0.12207031,0.3486328,-70.53125,50.4375,59.78125
478,478,1727462479630,0.84472656,0.0625,0.49316406,-80.59375,86.34375,38.09375
479,479,1727462479670,1.1132812,-0.28320312,0.31347656,-81.9375,67.46875,69.65625
480,480,1727462479710,1.234375,-0.33691406,0.4423828,-74.25,104.28125,29.5
481,481,1727462479750,0.7597656,-0.13378906,0.61621094,-55.46875,107.9375,42.90625
482,482,1727462479790,0.70410156,-0.29296875,0.8232422,-81.9375,66.625,50.5
483,483,1727462479830,0.77441406,-0.3935547,0.5683594,-61.8125,70.21875,68.375
484,484,1727462479870,0.7314453,-0.5078125,0.50683594,-46.25,60.15625,81.0625
485,485,1727462479910,0.6171875,-0.70214844,0.57421875,-35.9375,68.1875,63.375
486,486,1727462479950,0.6220703,-0.5986328,1.0517578,-70.09375,56.71875,23.15625
487,487,1727462479990,0.5,-0.3857422,0.79589844,30.46875,55.375,-3.09375
488,488,1727462480030,0.55078125,-0.3935547,0.8544922,0.625,40.3125,5.625
489,489,1727462480070,0.484375,-0.45507812,0.7988281,6.375,46.65625,0.3125
490,490,1727462480110,0.4326172,-0.45898438,0.81933594,17.15625,50.4375,-13.96875
491,491,1727462480150,0.34765625,-0.3330078,0.75,40.96875,54.90625,-14.9375
492,492,1727462480190,0.29003906,-0.1875,0.7597656,28.46875,59.59375,-5.3125
493,493,1727462480230,0.3486328,-0.2763672,0.9267578,4.0625,60.09375,16.125
494,494,1727462480270,0.2421875,-0.31152344,0.8417969,1.84375,54.71875,20.75
495,495,1727462480310,0.31640625,-0.23632812,0.8564453,12.34375,61.65625,32.78125
496,496,1727462480350,0.19238281,-0.32714844,0.9189453,8.375,54.96875,33.40625
497,497,1727462480390,0.11816406,-0.3173828,0.92578125,2.53125,58.0,40.84375
498,498,1727462480430,0.07324219,-0.2861328,0.9316406,6.125,42.6875,52.6875
499,499,1727462480470,0.028320312,-0.37597656,0.9277344,-4.625,38.65625,56.46875
500,500,1727462480510,-0.06738281,-0.2841797,0.96191406,2.65625,38.90625,69.46875
501,501,1727462480550,-0.15722656,-0.29882812,0.96484375,0.5,33.84375,66.25
502,502,1727462480590,-0.033203125,-0.34765625,0.859375,-10.125,31.15625,72.40625
503,503,1727462480630,-0.072265625,-0.33203125,0.94433594,-13.90625,35.90625,77.53125
504,504,1727462480670,-0.2421875,-0.5097656,0.9316406,-20.125,48.125,70.6875
505,505,1727462480710,-0.091796875,-0.42871094,0.83496094,-6.28125,53.625,58.53125
506,506,1727462480750,-0.083984375,-0.3359375,0.8964844,12.34375,60.5625,55.8125
507,507,1727462480790,-0.25585938,-0.31445312,0.95214844,11.1875,54.84375,58.96875
508,508,1727462480830,-0.39941406,-0.22949219,0.9794922,-6.4375,45.96875,43.84375
509,509,1727462480870,-0.26660156,-0.4814453,1.0742188,-22.5,0.4375,52.375
510,510,1727462480910,-0.08496094,-0.8564453,1.1015625,-27.6875,6.0,36.28125
511,511,1727462480950,-0.021484375,-0.5644531,0.8515625,3.3125,64.84375,37.25
512,512,1727462480990,-0.68359375,-0.70996094,1.0986328,42.875,86.875,-26.28125
513,513,1727462481030,-0.47558594,-0.45898438,0.953125,73.875,95.59375,-18.71875
514,514,1727462481070,-0.4111328,-0.31835938,0.79296875,67.46875,108.1875,-7.1875
515,515,1727462481110,-0.46679688,-0.42578125,0.7578125,47.03125,116.90625,-9.8125
516,516,1727462481150,-0.7080078,-0.28125,0.5996094,37.375,130.6875,-2.71875
517,517,1727462481190,-0.7265625,-0.25390625,0.43066406,27.4375,127.65625,-1.15625
518,518,1727462481230,-0.68847656,-0.31445312,0.44628906,12.78125,106.71875,-7.3125
519,519,1727462481270,-0.6064453,-0.3779297,0.43554688,16.4375,93.96875,11.375
520,520,1727462481310,-0.6591797,-0.4375,0.29589844,1.90625,109.9375,52.5
521,521,1727462481350,-1.1103516,-0.38378906,0.26464844,45.8125,94.15625,117.625
522,522,1727462481390,-1.2597656,-0.20605469,0.15625,81.9375,81.375,147.03125
523,523,1727462481430,-1.2011719,-0.16601562,0.2529297,72.65625,61.3125,56.34375
524,524,1727462481470,-1.0810547,-0.3779297,0.0078125,6.625,74.5,-1.15625
525,525,1727462481510,-1.1748047,-0.13476562,0.061523438,67.84375,49.09375,-35.875
526,526,1727462481550,-0.8876953,0.025390625,-0.0107421875,168.65625,48.125,-85.9375
527,527,1727462481590,-0.9736328,-0.16992188,-0.072265625,180.1875,3.9375,-104.78125
528,528,1727462481630,-1.0302734,-0.04296875,-0.033203125,117.8125,-6.9375,-135.3125
529,529,1727462481670,-0.96777344,0.19042969,-0.0126953125,126.0,-23.09375,-132.3125
530,530,1727462481710,-0.79296875,0.025390625,0.03125,75.875,-1.25,-124.1875
531,531,1727462481750,-0.7871094,-0.19140625,0.060546875,97.875,-2.1875,-100.9375
532,532,1727462481790,-0.60058594,-0.14941406,0.12792969,118.0625,13.4375,-60.96875
533,533,1727462481830,-0.7529297,-0.29101562,0.2265625,97.0,26.5625,5.1875
534,534,1727462481870,-0.99121094,-0.5917969,0.40429688,108.125,7.09375,10.875
535,535,1727462481910,-0.78515625,-0.43847656,0.4033203,44.40625,-16.03125,-50.34375
536,536,1727462481950,-0.31347656,-0.32910156,0.15234375,-40.25,24.4375,-42.03125
537,537,1727462481990,-1.1748047,0.15527344,0.3798828,-26.84375,66.6875,71.0625
538,538,1727462482030,-1.1259766,0.17675781,0.09375,42.0625,31.34375,-49.4375
539,539,1727462482070,-0.52246094,0.19628906,-0.061523438,-5.03125,-7.125,47.75
540,540,1727462482110,-1.2392578,-0.11816406,-0.21582031,-47.28125,76.6875,75.5625
541,541,1727462482150,-0.9453125,-0.20898438,-0.07910156,-10.1875,52.21875,39.9375
542,542,1727462482190,-1.2226562,-0.18066406,0.0068359375,-64.3125,45.9375,58.90625
543,543,1727462482230,-0.8066406,-0.29101562,-0.3203125,2.34375,56.71875,60.5
544,544,1727462482270,-1.0878906,-0.2685547,-0.022460938,-21.03125,80.46875,62.8125
545,545,1727462482310,-1.1367188,-0.060546875,0.08105469,-28.53125,70.875,47.75
546,546,1727462482350,-1.0947266,-0.10449219,0.24804688,-37.03125,64.46875,49.34375
547,547,1727462482390,-0.71777344,-0.45996094,0.20996094,-30.0625,9.0,32.96875
548,548,1727462482430,-0.8066406,-0.7910156,0.50097656,-21.71875,-36.15625,-9.9375
549,549,1727462482470,-0.6484375,-0.013671875,-0.21875,39.5,-212.75,-46.375
550,550,1727462482510,-1.1201172,-0.028320312,-0.12988281,8.625,-158.71875,-90.5
551,551,1727462482550,-1.9892578,0.22460938,-0.16796875,-16.6875,-153.96875,-96.125
552,552,1727462482590,-1.6142578,-0.6308594,0.034179688,54.15625,126.5,-149.09375
553,553,1727462482630,-1.1494141,0.125,0.28320312,119.84375,-73.875,-79.15625
554,554,1727462482670,-0.8515625,-0.01953125,-0.06347656,126.125,-6.1875,-60.46875
555,555,1727462482710,-0.3125,0.10644531,0.055664062,147.25,30.84375,-6.21875
556,556,1727462482750,-0.22363281,0.061523438,0.10449219,73.6875,94.4375,66.90625
557,557,1727462482790,-0.52734375,-0.23242188,0.31835938,82.96875,100.4375,120.0625
558,558,1727462482830,-0.8886719,-0.5048828,0.001953125,99.3125,31.09375,-10.5
559,559,1727462482870,-0.44140625,-0.068359375,-0.19335938,40.125,-5.53125,0.75
560,560,1727462482910,-1.9892578,0.7480469,0.3642578,0.6875,-18.15625,43.21875
561,561,1727462482950,-0.8876953,-0.30078125,-0.46289062,-88.84375,-19.625,21.1875
562,562,1727462482990,-0.35546875,-0.78222656,-0.13671875,54.90625,9.3125,2.5625
563,563,1727462483030,-1.3769531,-0.11621094,0.02734375,81.5,33.53125,-30.25
564,564,1727462483070,-1.1845703,0.27246094,-0.06738281,108.59375,32.125,22.28125
565,565,1727462483110,-0.99609375,-0.13476562,-0.21679688,119.21875,27.75,54.59375
566,566,1727462483150,-0.8935547,-0.0859375,-0.047851562,52.625,66.125,55.5625
567,567,1727462483190,-0.9785156,-0.029296875,-0.09765625,76.9375,52.03125,45.0625
568,568,1727462483230,-0.90234375,-0.17285156,0.06738281,55.5,46.15625,40.71875
569,569,1727462483270,-0.79589844,-0.42773438,0.22949219,22.90625,42.875,26.1875
570,570,1727462483310,-0.7109375,-0.63378906,0.30273438,63.6875,-17.5625,-9.8125
571,571,1727462483350,-1.0068359,-0.05078125,0.064453125,91.375,-112.21875,-69.6875
572,572,1727462483390,-1.3925781,0.22558594,-0.27441406,68.125,-143.65625,-144.34375
573,573,1727462483430,-1.9892578,0.7050781,-0.5,1.90625,-142.3125,-182.53125
574,574,1727462483470,-1.5458984,0.51660156,0.41503906,5.40625,-107.6875,-246.15625
575,575,1727462483510,-1.1552734,0.15820312,0.21582031,4.53125,-36.90625,-258.53125
576,576,1727462483550,-0.6230469,-0.57910156,0.09082031,54.40625,8.875,-248.40625
577,577,1727462483590,-0.60839844,-0.18066406,-0.0234375,163.15625,-57.21875,-123.71875
578,578,1727462483630,0.19140625,-0.009765625,0.31640625,129.28125,-53.375,-29.34375
579,579,1727462483670,-0.25,-0.52441406,0.5732422,70.28125,13.5,-38.9375
580,580,1727462483710,-0.07519531,-0.57421875,-0.0068359375,22.90625,-15.34375,-59.3125
581,581,1727462483750,-1.0546875,-0.7138672,0.6074219,34.5,-78.90625,-47.28125
582,582,1727462483790,-0.8330078,0.265625,0.5107422,166.40625,-102.40625,-90.625
583,583,1727462483830,0.6503906,-0.021484375,0.2607422,60.5,-37.15625,-17.1875
584,584,1727462483870,-1.3564453,-1.1630859,0.9238281,-34.90625,-41.65625,-144.28125
585,585,1727462483910,-0.28320312,-0.88671875,0.796875,84.3125,-67.65625,-25.75
586,586,1727462483950,-0.5761719,-0.453125,0.640625,58.75,-56.1875,-18.46875
587,587,1727462483990,-0.3671875,-0.5908203,0.8886719,10.34375,-63.9375,0.75
588,588,1727462484030,-0.375,-0.99902344,0.7734375,3.375,-49.40625,28.53125
589,589,1727462484070,-0.26367188,-0.9980469,0.8623047,23.15625,-27.1875,27.59375
590,590,1727462484110,-0.45410156,-0.5595703,0.8574219,28.46875,-36.71875,22.53125
591,591,1727462484150,-0.115234375,-0.25390625,1.0048828,12.21875,-41.46875,29.6875
592,592,1727462484190,-0.047851562,-0.5703125,0.9472656,-3.21875,-42.53125,33.71875
593,593,1727462484230,-0.27246094,-0.4501953,0.8222656,7.21875,-14.375,10.5625
594,594,1727462484270,-0.19042969,-0.35058594,0.7314453,-22.0,7.03125,-20.75
595,595,1727462484310,-0.18261719,-0.5810547,0.6953125,-17.5,9.25,-16.59375
596,596,1727462484350,-0.18457031,-0.53027344,0.78515625,10.9375,19.96875,-19.28125
597,597,1727462484390,-0.34277344,-0.7060547,0.9560547,36.28125,17.40625,-0.15625
598,598,1727462484430,-0.55371094,-0.453125,1.2119141,40.96875,13.34375,8.4375
599,599,1727462484470,-0.47265625,-0.5214844,1.1552734,-0.21875,75.15625,-34.53125
600,600,1727462484510,-0.36621094,-0.484375,0.8359375,53.4375,82.90625,-5.1875
601,601,1727462484550,-0.3544922,-0.19433594,0.6953125,38.34375,83.59375,4.78125
602,602,1727462484590,-0.30273438,-0.3017578,0.7265625,9.0625,61.96875,1.78125
603,603,1727462484630,-0.2626953,-0.4140625,0.70996094,-4.1875,52.5625,-0.90625
604,604,1727462484670,-0.359375,-0.4248047,0.71191406,2.875,67.15625,-4.4375
605,605,1727462484710,-0.4580078,-0.3310547,0.7480469,5.34375,79.5,-9.8125
606,606,1727462484750,-0.46289062,-0.46777344,0.7167969,-21.59375,120.875,-27.875
607,607,1727462484790,-0.609375,-0.37109375,0.68066406,-24.6875,110.625,4.28125
608,608,1727462484830,-0.7001953,-0.5839844,0.6933594,-29.28125,112.875,-0.96875
609,609,1727462484870,-0.71875,-0.53808594,0.5644531,-10.84375,112.9375,18.125
610,610,1727462484910,-0.9921875,-0.5,0.60839844,7.96875,103.34375,32.84375
611,611,1727462484950,-0.9638672,-0.29589844,0.41796875,31.8125,11.625,7.09375
612,612,1727462484990,-0.8564453,-0.3984375,0.43164062,17.40625,67.09375,74.84375
613,613,1727462485030,-0.84472656,-0.5546875,0.44140625,25.96875,59.09375,38.21875
614,614,1727462485070,-0.6972656,-0.2939453,0.3720703,25.84375,76.0,28.40625
615,615,1727462485110,-0.8300781,-0.36621094,0.33789062,27.78125,67.15625,19.71875
616,616,1727462485150,-0.87890625,-0.25585938,0.31445312,44.09375,49.15625,22.15625
617,617,1727462485190,-0.9589844,-0.4091797,0.3623047,48.71875,41.09375,24.0
618,618,1727462485230,-0.9404297,-0.34765625,0.234375,72.09375,37.6875,31.9375
619,619,1727462485270,-0.91308594,-0.2421875,0.029296875,48.71875,48.0625,26.125
620,620,1727462485310,-0.94140625,-0.11621094,-0.028320312,43.34375,37.8125,29.3125
621,621,1727462485350,-0.9736328,0.060546875,0.046875,15.03125,33.15625,29.0
622,622,1727462485390,-1.0439453,-0.06347656,0.018554688,-11.5625,3.875,7.53125
623,623,1727462485430,-0.93066406,-0.15527344,0.059570312,-31.09375,2.03125,-5.96875
624,624,1727462485470,-0.93652344,-0.15722656,0.13671875,-36.59375,6.4375,-1.625
625,625,1727462485510,-1.0761719,-0.20605469,0.14453125,-25.625,10.53125,7.21875
626,626,1727462485550,-0.984375,-0.23242188,0.12207031,-4.75,-14.625,-3.90625
627,627,1727462485590,-0.81640625,-0.037109375,0.20703125,-24.6875,-25.96875,-1.4375
628,628,1727462485630,-0.95703125,-0.2548828,0.24707031,-57.40625,15.96875,-14.40625
629,629,1727462485670,-1.1240234,-0.45117188,0.18847656,-17.375,18.09375,7.15625
630,630,1727462485710,-0.97558594,-0.35839844,0.10644531,24.1875,1.3125,25.21875
631,631,1727462485750,-0.8720703,-0.1953125,0.08300781,17.40625,3.9375,29.5625
632,632,1727462485790,-0.93066406,-0.057617188,0.24121094,-7.78125,-20.84375,50.5
633,633,1727462485830,-0.86621094,0.07910156,0.28125,-31.65625,1.1875,56.96875
634,634,1727462485870,-0.9609375,0.16894531,0.0234375,-19.375,17.1875,37.1875
635,635,1727462485910,-1.1572266,0.07519531,0.19335938,-37.6875,-5.34375,2.5625
636,636,1727462485950,-0.90234375,-0.020507812,0.32421875,-47.78125,5.40625,3.96875
637,637,1727462485990,-0.9375,-0.07421875,0.21875,-44.21875,38.0,10.625
638,638,1727462486030,-1.0546875,-0.23242188,0.16992188,-22.4375,28.90625,14.78125
639,639,1727462486070,-0.9111328,-0.15527344,0.15039062,8.03125,12.46875,9.46875
640,640,1727462486110,-0.96875,0.14453125,0.09277344,2.15625,13.03125,-5.3125
641,641,1727462486150,-0.96875,0.06738281,0.07421875,-35.4375,17.3125,-2.625
642,642,1727462486190,-1.0371094,-0.18164062,-0.017578125,-29.8125,14.0625,15.9375
643,643,1727462486230,-0.98535156,-0.25,-0.034179688,25.90625,-15.28125,17.96875
644,644,1727462486270,-1.0048828,-0.06542969,-0.045898438,37.1875,-21.65625,0.8125
645,645,1727462486310,-0.95703125,0.22265625,-0.09765625,0.875,-12.125,-5.3125
646,646,1727462486350,-1.0966797,0.2939453,0.09765625,40.0,13.28125,1.78125
647,647,1727462486390,-0.9785156,0.13671875,0.18652344,-20.3125,-17.4375,-3.59375
648,648,1727462486430,-0.96191406,0.053710938,0.034179688,-29.40625,-17.5,-7.1875
649,649,1727462486470,-0.953125,-0.053710938,0.16601562,-16.15625,-9.625,-2.5
650,650,1727462486510,-0.90527344,-0.020507812,0.21679688,-18.21875,-3.40625,-7.3125
651,651,1727462486550,-0.8769531,0.030273438,0.20898438,-27.6875,-3.09375,-8.21875
652,652,1727462486590,-1.0371094,-0.09863281,0.25097656,-51.8125,-1.75,-13.0625
653,653,1727462486630,-1.0537109,-0.19433594,0.19335938,-31.03125,-8.75,-19.21875
654,654,1727462486670,-0.8984375,-0.0625,0.19140625,-25.6875,-12.1875,-24.09375
655,655,1727462486710,-0.9824219,-0.08105469,0.19433594,-29.59375,7.40625,-18.84375
656,656,1727462486750,-0.8574219,-0.10644531,0.12597656,-25.3125,-2.53125,-26.65625
657,657,1727462486790,-1.0273438,-0.13574219,0.10253906,-32.03125,4.90625,-21.78125
658,658,1727462486830,-0.96972656,-0.19628906,0.10058594,-22.25,2.21875,-14.9375
659,659,1727462486870,-0.99316406,-0.2607422,0.17578125,1.5,9.53125,-9.75
660,660,1727462486910,-0.9121094,-0.12597656,0.14355469,3.1875,4.1875,-14.6875
661,661,1727462486950,-1.0380859,-0.13867188,0.111328125,-9.1875,0.75,-4.0
662,662,1727462486990,-0.83984375,-0.2548828,0.033203125,-1.4375,-7.59375,6.0625
663,663,1727462487030,-1.0078125,-0.27734375,-0.017578125,15.59375,1.96875,2.6875
664,664,1727462487070,-0.9121094,-0.0703125,0.018554688,7.53125,-5.28125,-5.65625
665,665,1727462487110,-1.03125,0.005859375,0.02734375,-18.84375,-6.9375,-8.40625
666,666,1727462487150,-1.0058594,-0.01953125,0.017578125,-57.96875,-5.90625,-0.53125
667,667,1727462487190,-0.9375,-0.16992188,0.09375,-102.40625,4.34375,8.0
668,668,1727462487230,-0.99609375,-0.6435547,0.17285156,-107.71875,3.1875,7.21875
669,669,1727462487270,-0.9199219,-0.53808594,0.19042969,-31.78125,-17.1875,-1.34375
670,670,1727462487310,-0.90527344,-0.27148438,0.18847656,13.5625,-12.96875,11.1875
671,671,1727462487350,-0.9501953,-0.22851562,0.18164062,21.125,1.125,17.84375
672,672,1727462487390,-0.9042969,-0.17382812,0.17480469,22.65625,4.34375,25.03125
673,673,1727462487430,-0.9375,-0.11621094,0.13476562,25.96875,8.5,34.4375
674,674,1727462487470,-0.9980469,-0.12695312,0.15527344,34.3125,10.9375,34.0
675,675,1727462487510,-0.9667969,-0.09472656,0.16308594,69.96875,6.96875,26.0
676,676,1727462487550,-1.0185547,-0.07714844,0.1328125,98.21875,3.625,10.09375
677,677,1727462487590,-0.9794922,0.12109375,0.14355469,86.375,1.5625,8.5
678,678,1727462487630,-1.0029297,0.12109375,0.17285156,58.375,10.9375,7.8125
679,679,1727462487670,-1.0009766,-0.08691406,0.115234375,51.03125,16.5625,1.34375
680,680,1727462487710,-1.0039062,-0.19726562,0.08984375,55.875,10.34375,-0.46875
681,681,1727462487750,-0.98046875,-0.18554688,0.07324219,71.5625,7.71875,2.09375
682,682,1727462487790,-1.0068359,-0.05859375,0.051757812,88.59375,4.84375,7.03125
683,683,1727462487830,-1.0195312,0.064453125,0.045898438,72.03125,1.78125,7.8125
684,684,1727462487870,-0.9970703,0.09082031,0.052734375,39.15625,0.6875,5.125
685,685,1727462487910,-0.9794922,0.047851562,0.10253906,18.5625,2.40625,3.96875
686,686,1727462487950,-0.98046875,0.10058594,0.08984375,0.5625,-0.53125,-0.15625
687,687,1727462487990,-1.0332031,0.018554688,0.103515625,-8.40625,3.4375,-3.03125
688,688,1727462488030,-1.0830078,-0.19042969,0.057617188,0.875,11.6875,-7.5625
689,689,1727462488070,-1.0175781,-0.20703125,0.0126953125,15.34375,4.0,-15.90625
690,690,1727462488110,-1.0117188,-0.12109375,0.037109375,36.9375,-0.84375,-17.625
691,691,1727462488150,-1.0820312,0.041015625,0.049804688,31.5625,-3.5625,-20.0625
692,692,1727462488190,-0.9238281,0.10546875,0.06933594,25.46875,-8.09375,-26.28125
693,693,1727462488230,-0.8730469,0.22949219,0.0390625,-17.1875,-0.28125,-28.0625
694,694,1727462488270,-0.8359375,0.024414062,0.09765625,-77.1875,9.5,-21.15625
695,695,1727462488310,-0.9472656,-0.10546875,0.01171875,-93.96875,17.71875,-9.4375
696,696,1727462488350,-1.0556641,-0.31152344,0.016601562,-95.8125,27.5,-10.53125
697,697,1727462488390,-0.9970703,-0.31835938,0.06542969,-79.375,19.0625,-25.0625
698,698,1727462488430,-0.95214844,-0.13085938,0.013671875,-48.25,7.09375,-25.6875
699,699,1727462488470,-0.82128906,-0.08691406,-0.0087890625,-56.3125,11.6875,-4.375
700,700,1727462488510,-0.9003906,-0.32421875,-0.037109375,-67.65625,23.9375,3.125
701,701,1727462488550,-1.1435547,-0.28320312,-0.08984375,-11.6875,5.875,9.78125
702,702,1727462488590,-1.0048828,-0.036132812,-0.11328125,28.78125,4.65625,11.5
703,703,1727462488630,-0.87890625,-0.12207031,-0.12792969,27.59375,5.8125,24.125
704,704,1727462488670,-1.0234375,-0.27734375,-0.13085938,32.5,15.03125,17.34375
705,705,1727462488710,-0.9501953,-0.15820312,-0.09277344,76.9375,-9.625,6.78125
706,706,1727462488750,-1.0585938,0.11425781,-0.013671875,45.0,-12.3125,3.3125
707,707,1727462488790,-0.98535156,0.23535156,0.064453125,6.125,-9.125,5.875
708,708,1727462488830,-1.0341797,0.03515625,-0.07128906,-24.40625,10.21875,-0.15625
709,709,1727462488870,-0.9951172,-0.27929688,-0.140625,-34.71875,7.03125,-18.0625
710,710,1727462488910,-1.0263672,-0.39453125,0.020507812,-40.125,-7.40625,-18.0625
711,711,1727462488950,-1.1269531,-0.20898438,0.041992188,12.84375,-16.5625,-18.0625
712,712,1727462488990,-0.9394531,-0.0068359375,-0.0625,10.6875,-29.09375,-27.40625
713,713,1727462489030,-0.79003906,0.041015625,-0.08300781,-19.875,-18.03125,-39.125
714,714,1727462489070,-1.1201172,-0.034179688,-0.20800781,-68.15625,-9.5,8.375
715,715,1727462489110,-1.0283203,-0.63964844,0.0390625,-110.4375,18.34375,31.8125
716,716,1727462489150,-1.0,-0.6015625,-0.051757812,-61.375,-3.34375,37.3125
717,717,1727462489190,-0.8779297,-0.4296875,-0.024414062,-35.6875,-2.0,46.15625
718,718,1727462489230,-0.98339844,-0.3251953,0.044921875,-55.46875,0.40625,37.4375
719,719,1727462489270,-1.0703125,-0.4423828,-0.087890625,-30.6875,7.59375,20.9375
720,720,1727462489310,-1.3261719,0.3359375,-0.16308594,-15.25,16.75,-5.34375
721,721,1727462489350,-1.7236328,0.9921875,0.10253906,-43.9375,28.03125,27.90625
722,722,1727462489390,-1.2988281,-0.10546875,-0.07421875,-40.3125,-33.1875,55.75
723,723,1727462489430,-1.0556641,0.13183594,-0.033203125,-62.125,-22.6875,32.1875
724,724,1727462489470,-1.0996094,0.20898438,-0.0146484375,-54.71875,-12.1875,26.0
725,725,1727462489510,-1.0488281,0.22558594,0.017578125,-46.3125,-8.8125,26.75
726,726,1727462489550,-0.9658203,0.4921875,-0.06738281,-76.28125,-19.625,29.375
727,727,1727462489590,-0.7734375,0.123046875,-0.04296875,-55.59375,-25.375,43.15625
728,728,1727462489630,-0.8173828,0.15332031,-0.013671875,-96.53125,-33.125,-7.0
729,729,1727462489670,-1.0166016,0.4951172,-0.0546875,-163.5625,-70.03125,-40.75
730,730,1727462489710,-0.9169922,0.74609375,0.00390625,-122.96875,-97.9375,-14.28125
731,731,1727462489750,-1.0927734,0.6171875,-0.45214844,-256.8125,-65.15625,5.1875
732,732,1727462489790,-1.1943359,0.43359375,-0.059570312,-214.15625,-24.09375,20.03125
733,733,1727462489830,-0.8544922,-0.029296875,0.06738281,-256.6875,-48.5,30.71875
734,734,1727462489870,-0.52441406,-0.13671875,0.12792969,-194.25,-48.375,42.625
735,735,1727462489910,-0.64453125,-0.44726562,-0.08886719,-185.03125,-22.875,56.03125
736,736,1727462489950,-1.0615234,-0.7705078,0.060546875,-204.375,-11.09375,15.5625
737,737,1727462489990,-1.0078125,-0.38671875,-0.14453125,-126.3125,-9.9375,-6.46875
738,738,1727462490030,-0.45410156,-0.15917969,-0.08203125,-144.03125,0.09375,11.5625
739,739,1727462490070,-1.1357422,-0.39746094,-0.14453125,-197.25,24.5625,10.875
740,740,1727462490110,-0.8574219,-0.53125,0.1171875,-158.5625,-25.71875,2.40625
741,741,1727462490150,-0.77441406,-0.63378906,0.10253906,-107.40625,-57.34375,15.75
742,742,1727462490190,-0.8876953,-0.6796875,0.045898438,-27.25,-61.75,32.90625
743,743,1727462490230,-0.8388672,-0.64746094,0.0048828125,-0.40625,-30.375,17.03125
744,744,1727462490270,-0.85058594,-0.79589844,-0.029296875,58.0,10.53125,12.78125
745,745,1727462490310,-0.9140625,-0.5419922,-0.009765625,87.0625,31.46875,14.46875
746,746,1727462490350,-0.88671875,-0.53222656,-0.0625,133.625,38.78125,27.0625
747,747,1727462490390,-1.0234375,-0.28808594,-0.041015625,173.1875,41.59375,26.6875
748,748,1727462490430,-0.9375,-0.11425781,-0.041015625,176.53125,54.09375,2.75
749,749,1727462490470,-0.8466797,-0.0126953125,-0.07519531,168.65625,48.125,-15.0625
750,750,1727462490510,-0.7871094,-0.078125,-0.125,164.5,45.0625,-26.78125
751,751,1727462490550,-0.9980469,-0.13378906,-0.072265625,234.8125,89.875,-42.59375
752,752,1727462490590,-1.3701172,1.1376953,-0.171875,218.65625,90.46875,-39.71875
753,753,1727462490630,-0.99316406,0.78515625,0.22265625,165.5,33.53125,34.0
754,754,1727462490670,-1.1953125,1.0605469,0.001953125,110.4375,4.3125,1.34375
755,755,1727462490710,-1.1982422,0.67871094,0.099609375,-28.65625,-41.46875,-3.78125
756,756,1727462490750,-1.2744141,0.77441406,-0.03125,-89.09375,-54.25,-12.0
757,757,1727462490790,-1.2958984,0.4326172,-0.025390625,-159.59375,-59.78125,2.9375
758,758,1727462490830,-1.2041016,0.07714844,-0.0859375,-131.5,-63.4375,9.15625
759,759,1727462490870,-1.1640625,0.23632812,-0.13574219,-131.5625,-55.34375,17.84375
760,760,1727462490910,-1.1582031,0.35058594,-0.10058594,-183.625,-47.71875,48.34375
761,761,1727462490950,-0.71972656,0.09667969,-0.32617188,-284.53125,-71.21875,64.21875
762,762,1727462490990,-0.71972656,-0.35351562,-0.35058594,-281.84375,-71.9375,71.65625
763,763,1727462491030,-0.89941406,-0.8154297,-0.33984375,-175.8125,-46.3125,71.125
764,764,1727462491070,-0.7734375,-1.0019531,-0.19824219,-116.875,23.65625,24.3125
765,765,1727462491110,-1.1308594,-0.64453125,0.30859375,-126.6875,39.9375,-41.125
766,766,1727462491150,-0.9951172,-0.34765625,0.16308594,-4.3125,-1.8125,-11.21875
767,767,1727462491190,-0.9736328,-0.2607422,0.23730469,26.28125,-6.5,-1.875
768,768,1727462491230,-0.9326172,-0.15917969,0.20800781,35.53125,-8.28125,-0.21875
769,769,1727462491270,-0.875,-0.034179688,0.22558594,5.8125,-3.6875,-1.03125
770,770,1727462491310,-0.87402344,-0.20410156,0.28808594,-2.90625,-1.8125,10.4375
771,771,1727462491350,-0.88964844,-0.17382812,0.3798828,19.4375,0.28125,3.375
772,772,1727462491390,-0.84765625,-0.099609375,0.31933594,40.71875,2.96875,-2.6875
773,773,1727462491430,-0.7470703,0.03125,0.27929688,36.03125,5.34375,-11.09375
774,774,1727462491470,-0.89453125,0.064453125,0.61035156,8.625,5.15625,-24.9375
775,775,1727462491510,-1.0869141,0.103515625,0.6513672,-13.71875,-5.46875,-32.15625
