,Unnamed: 0,timestamp,accel_x,accel_y,accel_z,gyro_x,gyro_y,gyro_z
0,0,1727020241728,-0.7675781,-0.17578125,0.23632812,-2.375,37.09375,14.53125
1,1,1727020241790,-0.8808594,-0.115234375,0.23339844,16.5,28.78125,7.0625
2,2,1727020241851,-0.8984375,-0.21191406,0.034179688,6.96875,31.65625,-8.25
3,3,1727020241852,-1.1269531,-0.12011719,0.091796875,42.25,18.84375,-11.96875
4,4,1727020241910,-1.2304688,-0.1015625,0.10644531,19.40625,-0.09375,-13.5
5,5,1727020241939,-0.8388672,-0.08300781,0.13183594,-11.84375,-20.40625,-1.03125
6,6,1727020241970,-1.0351562,-0.15722656,0.080078125,-35.09375,-21.09375,2.5
7,7,1727020242031,-1.015625,-0.1640625,0.14257812,-36.84375,-33.21875,0.53125
8,8,1727020242060,-0.94628906,-0.056640625,0.06640625,-32.40625,-49.71875,1.40625
9,9,1727020242090,-0.8574219,-0.115234375,0.13769531,-21.84375,-75.28125,-1.03125
10,10,1727020242151,-0.7402344,-0.2861328,0.41308594,-10.90625,-62.09375,-20.28125
11,11,1727020242184,-0.82421875,-0.65625,0.30859375,51.28125,-40.75,-22.65625
12,12,1727020242211,-0.7597656,-0.19433594,0.4033203,88.5625,-48.25,-32.40625
13,13,1727020242272,-0.65234375,0.11328125,0.69433594,44.5625,-98.125,-32.53125
14,14,1727020242300,-0.5996094,-0.060546875,0.4267578,-45.71875,-73.75,-28.25
15,15,1727020242329,-0.75,-0.44335938,0.6533203,-30.625,-79.625,-50.1875
16,16,1727020242391,-0.75683594,-0.53125,0.56347656,-16.21875,-62.65625,-44.5625
17,17,1727020242452,-0.63183594,-0.33007812,0.7294922,24.59375,-75.59375,-36.5625
18,18,1727020242458,-0.5126953,-0.109375,0.7421875,9.28125,-58.375,-24.96875
19,19,1727020242511,-0.6171875,-0.328125,0.6845703,-11.40625,-70.9375,-28.5
20,20,1727020242540,-0.62402344,-0.42578125,0.6826172,-34.21875,-44.53125,-31.9375
21,21,1727020242569,-0.5253906,-0.43847656,0.72265625,-23.5,-53.125,-28.8125
22,22,1727020242632,-0.39941406,-0.3642578,0.8076172,-1.40625,-71.125,-32.71875
23,23,1727020242660,-0.47460938,-0.38476562,0.80566406,29.25,-96.15625,-31.625
24,24,1727020242691,-0.3564453,-0.38476562,0.7998047,15.09375,-91.34375,-34.0625
25,25,1727020242751,-0.2607422,-0.4091797,0.890625,8.96875,-84.0625,-30.09375
26,26,1727020242779,-0.22070312,-0.42089844,0.85839844,0.0625,-79.75,-33.9375
27,27,1727020242811,-0.19335938,-0.4248047,0.8574219,-13.34375,-73.5,-37.40625
28,28,1727020242873,-0.103515625,-0.55078125,0.953125,-14.8125,-73.5,-34.625
29,29,1727020242900,0.09277344,-0.66503906,1.1904297,8.0,-63.4375,-25.15625
30,30,1727020242929,0.064453125,-0.6064453,1.1972656,3.25,-33.28125,-16.90625
31,31,1727020242992,0.12597656,-0.4267578,0.984375,-0.53125,-6.3125,-30.46875
32,32,1727020243020,0.13671875,-0.38378906,0.9082031,-12.625,15.28125,-23.4375
33,33,1727020243050,-0.061523438,-0.4658203,0.8847656,-13.1875,0.78125,-20.875
34,34,1727020243112,0.0087890625,-0.5126953,0.8261719,-1.09375,-20.21875,-23.8125
35,35,1727020243139,0.08496094,-0.50097656,1.0039062,-6.28125,-20.0,-22.21875
36,36,1727020243170,0.22460938,-0.4375,0.875,-21.0,-7.96875,-22.28125
37,37,1727020243232,0.171875,-0.4794922,0.8105469,-32.65625,8.40625,-16.25
38,38,1727020243260,0.109375,-0.5859375,0.8144531,-23.0,9.5,-9.71875
39,39,1727020243291,0.14941406,-0.5732422,0.80566406,-9.28125,16.6875,-1.40625
40,40,1727020243352,0.09082031,-0.5136719,0.8125,0.125,24.15625,8.0625
41,41,1727020243379,-0.0087890625,-0.56640625,0.9003906,12.65625,15.53125,18.375
42,42,1727020243409,-0.059570312,-0.6015625,0.94628906,10.4375,0.21875,16.65625
43,43,1727020243471,0.10546875,-0.4560547,0.734375,6.40625,2.65625,11.78125
44,44,1727020243499,0.10058594,-0.4609375,0.8564453,34.1875,13.40625,31.65625
45,45,1727020243529,0.107421875,-0.5810547,1.1123047,29.1875,6.3125,42.15625
46,46,1727020243592,0.1015625,-0.57714844,1.0615234,-12.0,-3.4375,32.59375
47,47,1727020243619,0.09277344,-0.5253906,0.8769531,8.25,12.3125,32.78125
48,48,1727020243650,-0.029296875,-0.50390625,1.0556641,17.21875,24.6875,26.0
49,49,1727020243712,-0.0390625,-0.49609375,1.0166016,6.1875,51.125,15.5
50,50,1727020243740,-0.06347656,-0.5205078,0.9824219,-6.9375,70.84375,2.625
51,51,1727020243771,-0.048828125,-0.49121094,0.87597656,-12.0,77.78125,-2.8125
52,52,1727020243831,-0.29882812,-0.4580078,0.94628906,-14.75,87.125,20.3125
53,53,1727020243860,-0.44921875,-0.48828125,0.85839844,-26.28125,94.15625,34.28125
54,54,1727020243893,-0.53515625,-0.6171875,0.86328125,-66.03125,137.59375,16.53125
55,55,1727020243950,-0.5292969,-0.546875,0.8125,4.90625,91.65625,14.34375
56,56,1727020243980,-0.57910156,-0.39160156,0.74121094,50.5625,58.75,27.71875
57,57,1727020244010,-0.63964844,-0.4765625,0.7207031,19.71875,76.875,52.84375
58,58,1727020244072,-0.5527344,-0.37695312,0.6972656,1.0,94.28125,53.40625
59,59,1727020244099,-0.52734375,-0.31640625,0.63183594,-8.34375,95.625,74.6875
60,60,1727020244130,-0.5859375,-0.32128906,0.5019531,-13.90625,86.875,84.71875
61,61,1727020244223,-0.6855469,-0.3486328,0.5332031,-30.875,81.46875,80.0625
62,62,1727020244228,-0.68652344,-0.34375,0.5058594,-31.375,69.4375,75.1875
63,63,1727020244254,-0.63378906,-0.33984375,0.3798828,-37.28125,75.71875,53.46875
64,64,1727020244312,-0.7236328,-0.33789062,0.16992188,-31.53125,90.4375,40.03125
65,65,1727020244340,-0.7207031,-0.27929688,0.20605469,50.96875,79.0,40.40625
66,66,1727020244371,-0.72753906,-0.30664062,0.31054688,57.4375,68.5625,34.0
67,67,1727020244433,-0.7363281,-0.41503906,0.21875,46.9375,71.8125,38.03125
68,68,1727020244460,-0.9189453,-0.38671875,0.20019531,68.90625,55.6875,22.46875
69,69,1727020244490,-0.8417969,-0.31347656,0.25,62.75,45.5625,23.3125
70,70,1727020244553,-0.921875,-0.4111328,0.17871094,64.90625,29.8125,20.5625
71,71,1727020244579,-1.0029297,-0.2578125,0.09277344,72.9375,16.34375,7.5
72,72,1727020244610,-1.0146484,-0.4609375,0.2705078,92.78125,8.75,-9.15625
73,73,1727020244672,-1.2626953,-0.4765625,0.27148438,77.03125,-38.28125,-55.125
74,74,1727020244731,-1.2978516,-0.4970703,0.29296875,150.28125,-70.40625,-98.15625
75,75,1727020244736,-1.1259766,-0.12695312,0.33398438,142.40625,-131.375,-112.625
76,76,1727020244790,-1.0820312,-0.36621094,0.072265625,56.34375,-101.03125,-120.5625
77,77,1727020244821,-1.0146484,-0.47753906,0.01953125,236.15625,30.125,-140.3125
78,78,1727020244850,-1.0068359,-0.29589844,0.27929688,142.53125,19.25,-129.46875
79,79,1727020244912,-0.9003906,-0.3544922,0.10058594,126.71875,32.25,-133.0625
80,80,1727020244939,-0.6591797,-0.2919922,0.005859375,147.53125,62.28125,-136.53125
81,81,1727020245002,-0.55566406,-0.23632812,-0.015625,188.5,97.4375,-122.9375
82,82,1727020245029,-0.42089844,-0.33398438,0.24609375,181.28125,154.15625,-94.90625
83,83,1727020245059,-0.63378906,-0.546875,-0.026367188,147.09375,193.40625,-25.53125
84,84,1727020245090,-1.6269531,-0.57421875,-0.08105469,196.125,175.9375,9.75
85,85,1727020245152,-1.8457031,0.7753906,0.17285156,302.875,7.46875,-33.40625
86,86,1727020245179,-0.49023438,1.3486328,0.33789062,162.375,82.25,30.5625
87,87,1727020245209,-0.9238281,-1.0683594,-0.28222656,67.21875,54.90625,13.53125
88,88,1727020245272,-1.6533203,-1.5419922,-0.09667969,14.90625,86.21875,-90.75
89,89,1727020245300,-0.4482422,-0.12597656,0.2685547,234.4375,35.375,-42.1875
90,90,1727020245330,-0.72558594,-0.18261719,0.09472656,194.96875,70.09375,-10.9375
91,91,1727020245391,-1.1621094,-0.48535156,0.22070312,197.59375,69.8125,-42.375
92,92,1727020245420,-0.80078125,-0.5449219,0.10058594,218.875,74.25,-32.71875
93,93,1727020245449,-0.9121094,-0.16210938,0.083984375,175.84375,43.4375,-24.0625
94,94,1727020245512,-0.99609375,-0.42089844,-0.05078125,143.4375,34.21875,-25.6875
95,95,1727020245540,-1.0351562,-0.35839844,-0.06640625,147.90625,30.0625,-36.875
96,96,1727020245573,-1.0205078,-0.18945312,0.03515625,164.5,24.21875,-32.96875
97,97,1727020245632,-1.0175781,-0.25585938,0.0087890625,185.625,17.3125,-25.9375
98,98,1727020245659,-1.0136719,-0.3125,-0.09277344,183.40625,12.1875,-30.28125
99,99,1727020245690,-1.0888672,-0.27148438,-0.20703125,193.3125,-0.40625,-27.40625
100,100,1727020245751,-1.0332031,-0.18066406,-0.0107421875,204.84375,-10.59375,-32.34375
101,101,1727020245779,-1.0371094,-0.059570312,0.060546875,180.125,-11.75,-22.71875
102,102,1727020245809,-1.0175781,-0.1015625,0.14160156,132.53125,-15.53125,-18.875
103,103,1727020245872,-0.8857422,-0.19433594,0.15722656,131.1875,-12.71875,-13.75
104,104,1727020245900,-0.93847656,-0.3017578,0.28515625,162.1875,-30.59375,-15.4375
105,105,1727020245930,-0.94921875,-0.095703125,0.4970703,136.1875,-43.78125,-52.6875
106,106,1727020245992,-0.9394531,0.021484375,0.7236328,59.875,-10.15625,-72.28125
107,107,1727020246019,-0.83203125,-0.30371094,0.5859375,58.53125,24.8125,-103.34375
108,108,1727020246049,-0.6435547,-0.6855469,0.49902344,114.03125,42.03125,-125.25
109,109,1727020246112,-0.8535156,-0.7626953,0.3671875,136.53125,63.28125,-136.34375
110,110,1727020246139,-0.9707031,-0.8847656,-0.009765625,185.625,73.09375,-141.78125
111,111,1727020246172,-1.0361328,-0.2548828,-0.19921875,207.28125,86.46875,-111.59375
112,112,1727020246232,-0.81640625,0.053710938,0.18554688,219.5,98.46875,-102.4375
113,113,1727020246260,-0.6484375,-0.34765625,0.20703125,184.40625,109.78125,-97.0
114,114,1727020246289,-0.8515625,-0.50097656,-0.043945312,151.6875,99.65625,-65.125
115,115,1727020246352,-1.0263672,-0.24609375,0.038085938,160.15625,87.375,-25.28125
116,116,1727020246380,-0.88671875,-0.09765625,0.013671875,118.34375,58.875,-32.96875
117,117,1727020246409,-1.5849609,0.13867188,0.041015625,34.5625,26.65625,-12.46875
118,118,1727020246472,-0.98046875,-0.095703125,0.02734375,79.40625,14.0,-5.375
119,119,1727020246499,-0.77246094,-0.26953125,0.21679688,82.59375,3.03125,-5.1875
120,120,1727020246530,-1.0488281,-0.6894531,0.1953125,124.28125,15.125,-21.6875
121,121,1727020246592,-1.0351562,-0.1875,0.28710938,158.03125,-1.5,-38.53125
122,122,1727020246619,-0.6513672,-0.38476562,0.26367188,167.90625,-16.3125,-57.625
123,123,1727020246682,-0.28125,-0.26660156,0.3935547,121.96875,23.90625,-49.875
124,124,1727020246709,-1.1621094,-0.3857422,-0.115234375,131.1875,16.875,-10.3125
125,125,1727020246740,-1.9960938,0.14746094,0.81640625,-5.1875,100.0,-3.84375
126,126,1727020246769,-1.9960938,-1.0478516,0.41503906,22.15625,89.625,52.53125
127,127,1727020246832,-1.5693359,-0.40820312,0.17089844,81.8125,68.8125,20.125
128,128,1727020246859,-0.16113281,0.087890625,0.16503906,95.46875,52.65625,16.40625
129,129,1727020246889,0.12792969,-0.07519531,0.044921875,76.5625,18.46875,23.125
130,130,1727020246952,0.061523438,-0.2421875,-0.087890625,53.96875,-3.4375,-9.46875
131,131,1727020247012,-0.020507812,-0.057617188,-0.07714844,98.875,20.34375,-52.0625
132,132,1727020247017,-0.001953125,-0.040039062,-0.021484375,93.875,-12.34375,-57.9375
133,133,1727020247071,-0.10449219,0.0390625,0.08105469,47.625,-29.09375,-60.375
134,134,1727020247099,-0.37304688,0.13769531,-0.37695312,-15.125,-22.5,-54.15625
135,135,1727020247130,-1.9960938,-0.2861328,0.4892578,25.46875,-22.125,-45.59375
136,136,1727020247191,-1.6796875,-0.9248047,1.2294922,-19.46875,-3.125,-35.46875
137,137,1727020247251,-1.9960938,-1.1962891,0.5488281,27.28125,49.03125,20.25
138,138,1727020247257,-1.9746094,-0.26171875,0.63671875,87.09375,109.53125,34.46875
139,139,1727020247311,-1.2177734,-0.18066406,0.18359375,37.0,40.3125,19.78125
140,140,1727020247339,-0.09082031,0.017578125,0.10449219,67.46875,21.59375,12.5625
141,141,1727020247373,0.3798828,-0.025390625,0.016601562,56.59375,27.0625,33.25
142,142,1727020247524,0.10644531,-0.15722656,-0.08691406,66.125,32.5,4.3125
143,143,1727020247529,-0.059570312,-0.16210938,-0.08886719,92.90625,46.3125,-25.46875
144,144,1727020247531,-0.08984375,-0.0009765625,0.046875,66.84375,20.34375,-25.53125
145,145,1727020247549,-0.32421875,-0.05078125,0.2265625,9.09375,-19.5625,-29.125
146,146,1727020247581,-1.9960938,-0.055664062,0.92871094,20.8125,-15.28125,-53.53125
147,147,1727020247609,-1.0117188,-0.8017578,-0.10253906,-12.5625,-120.875,-41.21875
148,148,1727020247671,-1.6142578,-0.85839844,0.08203125,48.78125,-20.09375,-3.65625
149,149,1727020247699,-1.5849609,-0.6738281,0.21484375,196.0625,57.34375,-0.75
150,150,1727020247729,-1.1816406,-0.099609375,0.20507812,105.90625,74.8125,-22.28125
151,151,1727020247792,-1.0400391,-0.021484375,0.2841797,37.3125,48.1875,11.78125
152,152,1727020247819,-0.80371094,-0.17578125,0.19628906,33.53125,46.1875,14.09375
153,153,1727020247850,-0.4921875,-0.12695312,0.15332031,56.21875,58.09375,18.125
154,154,1727020247912,-0.61621094,-0.13671875,0.14453125,48.46875,55.875,30.375
155,155,1727020247939,-0.7714844,-0.27929688,0.18066406,44.375,43.4375,31.0625
156,156,1727020247969,-0.78515625,-0.30371094,0.052734375,33.46875,29.8125,19.46875
157,157,1727020248032,-0.8925781,-0.29882812,0.23535156,52.875,29.15625,11.65625
158,158,1727020248059,-1.0078125,-0.28222656,0.02734375,45.90625,16.09375,21.53125
159,159,1727020248090,-1.2587891,-0.34375,-0.26660156,56.90625,-5.8125,14.28125
160,160,1727020248152,-1.4091797,-0.1015625,0.043945312,111.59375,2.53125,-25.9375
161,161,1727020248179,-1.2207031,0.013671875,0.3466797,62.21875,-91.03125,-30.03125
162,162,1727020248210,-1.1582031,-0.30078125,0.49414062,18.875,-161.78125,-45.65625
163,163,1727020248271,-0.9667969,-0.18359375,0.053710938,61.0,-149.0,-90.09375
164,164,1727020248300,-0.9580078,-0.18554688,0.024414062,49.09375,-78.875,-87.09375
165,165,1727020248330,-0.921875,-0.47460938,0.20996094,22.84375,24.625,-98.53125
166,166,1727020248392,-0.92285156,-0.13378906,0.29492188,141.6875,-4.65625,-105.53125
167,167,1727020248419,-0.7998047,0.0087890625,0.40039062,108.71875,9.5,-92.53125
168,168,1727020248450,-0.8847656,-0.11328125,0.22265625,73.3125,46.65625,-89.65625
169,169,1727020248512,-0.6611328,-0.026367188,0.30859375,90.90625,59.78125,-52.9375
170,170,1727020248539,-0.49023438,-0.0048828125,0.42871094,70.3125,60.21875,-10.5
171,171,1727020248569,-0.43164062,-0.12890625,0.53808594,10.5625,66.25,11.46875
172,172,1727020248632,-0.7636719,-0.7753906,0.5390625,34.75,54.125,21.46875
173,173,1727020248660,-0.515625,-0.12792969,0.44628906,33.75,5.65625,-21.5625
174,174,1727020248690,-1.3027344,-0.11816406,0.703125,-53.625,-21.03125,-41.5625
175,175,1727020248752,-1.3037109,-1.1767578,-0.022460938,16.84375,-149.1875,-63.90625
176,176,1727020248779,0.46191406,0.77246094,0.6816406,114.9375,-70.71875,-31.6875
177,177,1727020248809,-1.4384766,-0.95703125,0.4453125,-25.0625,-12.90625,15.25
178,178,1727020248872,-0.98339844,-0.8144531,0.5996094,88.5625,-40.0625,-42.5625
179,179,1727020248900,-0.4033203,0.025390625,0.3623047,73.75,-12.1875,-41.9375
180,180,1727020248930,-0.7763672,-0.3984375,0.61621094,48.15625,-12.65625,-27.28125
181,181,1727020248991,-0.71875,-0.23046875,0.54589844,66.84375,-39.6875,-21.78125
182,182,1727020249018,-0.6386719,-0.22949219,0.63183594,66.34375,-38.0,-22.65625
183,183,1727020249050,-0.7158203,-0.26464844,0.5683594,38.59375,-12.84375,-16.71875
184,184,1727020249110,-0.7402344,-0.2890625,0.7558594,40.65625,-15.84375,-18.25
185,185,1727020249139,-0.6455078,-0.24121094,0.6875,51.09375,-19.6875,-20.8125
186,186,1727020249169,-0.5996094,-0.11328125,0.71875,61.46875,-18.8125,-7.09375
187,187,1727020249233,-0.48046875,-0.13378906,0.73828125,62.09375,-16.625,14.03125
188,188,1727020249290,-0.5,-0.06640625,0.79296875,85.09375,-15.84375,41.6875
189,189,1727020249293,-0.5488281,0.064453125,0.54785156,114.75,-25.46875,64.3125
190,190,1727020249319,-0.7373047,-0.08203125,0.97265625,44.4375,-15.53125,91.53125
191,191,1727020249382,-1.21875,0.046875,0.90722656,60.9375,47.46875,78.0625
192,192,1727020249409,-0.7597656,-0.005859375,0.63964844,88.28125,65.9375,22.03125
193,193,1727020249440,-0.6826172,-0.046875,0.51171875,46.03125,51.0625,-67.875
194,194,1727020249502,-0.26953125,-0.18457031,0.18652344,15.75,60.15625,-147.15625
195,195,1727020249529,-0.5253906,-0.4013672,0.047851562,1.53125,120.15625,-219.5625
196,196,1727020249561,-0.7216797,-0.21582031,-0.09082031,-42.71875,167.40625,-278.21875
197,197,1727020249655,-0.71875,-0.59375,-0.072265625,-56.9375,200.59375,-239.625
198,198,1727020249666,-0.7675781,-0.5859375,0.08984375,-47.09375,152.5,-179.03125
199,199,1727020249679,-1.15625,-0.7480469,0.13085938,-70.0,173.125,-133.0625
200,200,1727020249742,-1.0576172,-0.7011719,0.11230469,-70.59375,150.375,-141.25
201,201,1727020249769,-0.6953125,-0.9707031,-0.02734375,0.1875,110.75,-139.21875
202,202,1727020249799,-0.7324219,-0.99121094,0.22851562,-23.84375,107.09375,-120.84375
203,203,1727020249860,-0.9189453,-0.81933594,-0.37890625,14.84375,79.625,-93.21875
204,204,1727020249890,-0.953125,-0.8339844,-0.03125,154.96875,19.5625,-67.28125
205,205,1727020249919,-0.53125,-0.72753906,-0.16210938,35.90625,26.03125,-76.3125
206,206,1727020249984,-0.6074219,-1.1582031,-0.20898438,-1.625,17.625,-69.65625
207,207,1727020250010,-0.6201172,-1.2392578,-0.17675781,5.3125,26.875,-86.25
208,208,1727020250039,-0.34277344,-0.56152344,-0.01171875,25.21875,6.75,-38.8125
209,209,1727020250102,-0.5058594,-0.9199219,-0.032226562,16.1875,-13.875,-41.8125
210,210,1727020250129,-0.40234375,-1.6044922,-0.0390625,13.0625,-5.53125,-76.3125
211,211,1727020250161,-0.09667969,-0.8066406,0.051757812,50.25,-21.28125,-59.09375
212,212,1727020250222,-0.072265625,-1.5166016,0.5449219,88.09375,-37.0625,-81.4375
213,213,1727020250283,-0.4404297,-1.9873047,-0.7441406,55.375,34.15625,-63.90625
214,214,1727020250289,-0.54296875,-0.42382812,0.5439453,113.46875,-70.28125,-14.28125
215,215,1727020250341,0.11035156,-0.31347656,0.46191406,172.75,-34.4375,-18.0
216,216,1727020250369,0.15332031,-1.7138672,0.17382812,57.625,-7.84375,-62.875
217,217,1727020250432,0.3701172,-0.796875,0.57128906,22.15625,-10.90625,-41.4375
218,218,1727020250459,-0.026367188,-0.6767578,0.23828125,25.21875,-11.75,-53.21875
219,219,1727020250490,0.23242188,-1.1591797,0.3515625,-0.125,-16.8125,-65.75
220,220,1727020250520,0.12011719,-1.0087891,0.43945312,-13.34375,-19.1875,-60.96875
221,221,1727020250582,0.029296875,-0.9267578,0.3076172,-28.3125,-14.0625,-77.53125
222,222,1727020250609,0.140625,-0.9082031,0.30273438,-30.25,-9.375,-78.3125
223,223,1727020250640,0.19726562,-0.9765625,0.30273438,-11.40625,-6.4375,-73.25
224,224,1727020250701,0.21679688,-0.83984375,0.4580078,-7.25,-10.84375,-64.34375
225,225,1727020250735,0.36523438,-0.81152344,0.37695312,-11.9375,2.59375,-60.0625
226,226,1727020250760,0.3798828,-0.78808594,0.26953125,-30.03125,7.0,-47.4375
227,227,1727020250822,0.38378906,-0.8876953,0.32714844,-31.3125,4.5,-47.3125
228,228,1727020250851,0.453125,-1.046875,0.2763672,-46.0625,2.90625,-43.78125
229,229,1727020250880,0.48242188,-0.8486328,0.24121094,-28.5625,2.34375,-58.96875
230,230,1727020250942,0.5048828,-0.8925781,0.13769531,-24.84375,-1.5625,-58.65625
231,231,1727020250969,0.5703125,-0.8378906,0.13867188,-20.75,4.4375,-47.625
232,232,1727020250999,0.59765625,-0.8955078,0.13183594,-11.34375,-0.75,-51.6875
233,233,1727020251064,0.6816406,-0.7988281,0.11621094,4.28125,-10.59375,-56.59375
234,234,1727020251089,0.71777344,-0.7988281,0.20117188,4.46875,-12.21875,-61.90625
235,235,1727020251121,0.73339844,-0.7314453,0.119140625,11.71875,-15.84375,-65.3125
236,236,1727020251182,0.72753906,-0.71777344,0.17675781,20.40625,-16.8125,-64.28125
237,237,1727020251209,0.7373047,-0.7402344,0.22460938,28.15625,-7.84375,-64.03125
238,238,1727020251239,0.6738281,-0.63183594,-0.024414062,35.03125,0.09375,-71.59375
239,239,1727020251301,0.8066406,-0.39746094,0.20410156,49.625,8.9375,-53.34375
240,240,1727020251330,0.79589844,-0.3232422,0.19824219,12.875,16.5625,-37.53125
241,241,1727020251359,0.8828125,-0.31640625,0.06542969,33.15625,27.6875,-20.40625
242,242,1727020251422,0.86816406,-0.36328125,0.3876953,16.5625,28.15625,-10.1875
243,243,1727020251449,0.8066406,-0.45703125,0.37304688,3.6875,24.625,-16.375
244,244,1727020251481,0.7988281,-0.6074219,0.38867188,4.03125,13.71875,-24.0625
245,245,1727020251569,0.8154297,-0.578125,0.38867188,6.1875,11.6875,-30.84375
246,246,1727020251572,0.72753906,-0.35742188,0.26171875,11.0,13.34375,-34.375
247,247,1727020251599,0.8125,-0.3173828,0.3125,7.59375,15.59375,-24.78125
248,248,1727020251660,0.8496094,-0.36035156,0.3701172,6.0625,11.9375,-11.25
249,249,1727020251689,0.84375,-0.45214844,0.38378906,-4.1875,12.25,-10.5
250,250,1727020251719,0.8222656,-0.43066406,0.31054688,6.0625,9.5625,-19.53125
251,251,1727020251780,0.8574219,-0.39257812,0.3671875,7.53125,8.46875,-20.5
252,252,1727020251810,0.84765625,-0.30078125,0.4326172,1.40625,9.0,-13.1875
253,253,1727020251839,0.828125,-0.296875,0.38671875,-8.96875,8.40625,-11.3125
254,254,1727020251902,0.8417969,-0.3388672,0.4169922,-5.3125,6.5625,-9.40625
255,255,1727020251929,0.8300781,-0.41015625,0.47558594,-13.53125,4.5,-7.6875
256,256,1727020251962,0.8408203,-0.39746094,0.38476562,-26.78125,4.5625,-13.4375
257,257,1727020252022,0.80859375,-0.3623047,0.35742188,-13.65625,3.09375,-12.40625
258,258,1727020252049,0.8261719,-0.36914062,0.3642578,3.125,1.6875,-13.75
259,259,1727020252081,0.8564453,-0.30859375,0.3515625,-8.40625,3.6875,-9.96875
260,260,1727020252142,0.8847656,-0.36035156,0.4091797,-3.09375,-0.5,-4.21875
261,261,1727020252169,0.90722656,-0.22851562,0.30273438,-4.75,-0.46875,1.6875
262,262,1727020252199,0.8691406,-0.3671875,0.36914062,4.78125,2.59375,7.625
263,263,1727020252262,0.92578125,-0.23535156,0.3203125,-11.34375,17.71875,1.6875
264,264,1727020252290,0.89453125,-0.34570312,0.29785156,-16.65625,23.34375,10.5625
265,265,1727020252320,0.8388672,-0.36523438,0.29492188,-19.34375,29.9375,13.53125
266,266,1727020252382,0.8964844,-0.328125,0.3486328,-9.9375,35.96875,18.71875
267,267,1727020252410,0.8183594,-0.3857422,0.43847656,-5.40625,43.0,21.125
268,268,1727020252439,0.8183594,-0.39648438,0.49609375,-16.03125,44.46875,21.65625
269,269,1727020252501,0.74121094,-0.38671875,0.4921875,-26.0,40.0625,22.9375
270,270,1727020252530,0.74121094,-0.49316406,0.5126953,-15.25,36.03125,24.78125
271,271,1727020252561,0.6621094,-0.55078125,0.5175781,-9.625,21.75,23.3125
272,272,1727020252622,0.6660156,-0.57910156,0.59375,8.1875,17.625,16.65625
273,273,1727020252649,0.66308594,-0.5107422,0.5800781,13.5,3.875,16.90625
274,274,1727020252680,0.5888672,-0.484375,0.5283203,19.25,-1.0625,19.9375
275,275,1727020252742,0.68652344,-0.5683594,0.62890625,20.21875,0.65625,17.875
276,276,1727020252771,0.7470703,-0.52734375,0.50878906,28.46875,-1.5625,8.59375
277,277,1727020252799,0.78125,-0.49023438,0.6611328,37.59375,5.09375,5.65625
278,278,1727020252862,0.65234375,-0.46679688,0.5107422,30.15625,4.0,0.78125
279,279,1727020252889,0.84472656,-0.5175781,0.5957031,27.78125,9.6875,-1.90625
280,280,1727020252919,0.6435547,-0.4248047,0.56640625,24.1875,5.15625,4.15625
281,281,1727020252981,0.7207031,-0.52246094,0.6220703,16.90625,18.46875,-10.0625
282,282,1727020253009,0.7236328,-0.46289062,0.640625,15.8125,32.4375,-12.03125
283,283,1727020253040,0.5751953,-0.41308594,0.5732422,28.09375,32.1875,-18.0625
284,284,1727020253101,0.7919922,-0.39257812,0.64746094,33.875,42.5625,-12.40625
285,285,1727020253129,0.58984375,-0.43359375,0.6796875,34.4375,39.875,-3.375
286,286,1727020253160,0.78125,-0.42871094,0.5175781,53.0625,29.75,-16.0
287,287,1727020253222,0.70410156,-0.37304688,0.7158203,55.1875,19.8125,-1.03125
288,288,1727020253249,0.61035156,-0.3251953,0.7636719,54.625,18.28125,-14.15625
289,289,1727020253279,0.69628906,-0.30273438,0.79003906,55.1875,20.25,-23.6875
290,290,1727020253342,0.5566406,-0.13671875,0.77441406,37.0,25.53125,-32.53125
291,291,1727020253370,0.5566406,-0.13964844,0.7402344,37.71875,28.40625,-32.53125
292,292,1727020253399,0.51171875,-0.12597656,0.8232422,33.875,32.3125,-30.78125
293,293,1727020253462,0.5048828,-0.14453125,0.9296875,30.15625,35.125,-34.25
294,294,1727020253489,0.5175781,-0.13671875,0.9511719,33.21875,36.84375,-33.46875
295,295,1727020253519,0.47070312,-0.12402344,0.9580078,41.09375,37.6875,-31.9375
296,296,1727020253581,0.46191406,-0.026367188,0.8613281,54.40625,32.4375,-29.4375
297,297,1727020253609,0.46777344,0.040039062,0.8486328,54.6875,33.0625,-25.59375
298,298,1727020253641,0.54003906,0.09863281,0.86621094,52.625,28.96875,-24.71875
299,299,1727020253700,0.47265625,0.11230469,0.8955078,41.6875,30.5625,-31.0
300,300,1727020253731,0.39453125,0.14550781,0.7998047,35.71875,26.15625,-40.40625
301,301,1727020253762,0.38867188,0.2685547,0.78515625,37.5625,20.25,-37.84375
302,302,1727020253853,0.48828125,0.24121094,0.8359375,33.875,19.875,-30.9375
303,303,1727020253858,0.4560547,0.27246094,0.8378906,39.4375,18.90625,-24.90625
304,304,1727020253880,0.36523438,0.4169922,0.88378906,58.0625,9.90625,-1.90625
305,305,1727020253943,0.41015625,0.53125,0.91308594,50.96875,6.9375,7.75
306,306,1727020253970,0.4970703,0.53027344,0.95214844,28.28125,18.46875,-1.65625
307,307,1727020254000,0.4658203,0.49414062,0.9296875,30.59375,29.21875,-14.96875
308,308,1727020254062,0.31640625,0.60546875,0.8925781,22.78125,41.0625,-40.53125
309,309,1727020254089,0.4013672,0.6699219,0.9765625,-11.59375,47.53125,-35.15625
310,310,1727020254119,0.34277344,0.42089844,0.8798828,-20.5625,63.21875,-44.375
311,311,1727020254181,0.29101562,0.15820312,0.9453125,-7.375,91.53125,-57.5
312,312,1727020254210,0.23925781,0.27441406,0.9511719,26.75,96.65625,-56.03125
313,313,1727020254241,0.10253906,0.30273438,0.9033203,18.5625,86.875,-49.09375
314,314,1727020254304,0.07324219,0.20800781,0.83984375,-2.96875,84.1875,-46.5625
315,315,1727020254329,-0.059570312,0.1875,0.6455078,-5.96875,87.3125,-51.03125
316,316,1727020254362,-0.13574219,0.033203125,0.81640625,-3.59375,87.625,-61.09375
317,317,1727020254422,-0.2578125,0.25097656,0.79785156,35.15625,98.59375,-62.25
318,318,1727020254449,-0.5449219,0.37402344,0.8623047,29.96875,94.34375,-62.5
319,319,1727020254479,-0.7392578,0.30078125,0.8671875,10.25,83.40625,-57.0625
320,320,1727020254542,-0.8691406,0.068359375,1.0009766,23.5625,68.28125,-51.65625
321,321,1727020254569,-0.9042969,0.14453125,0.79296875,13.1875,37.9375,-47.125
322,322,1727020254599,-0.88378906,0.14746094,0.73046875,30.34375,-1.90625,-48.59375
323,323,1727020254661,-0.78808594,0.35058594,0.6953125,44.125,-17.25,-43.46875
324,324,1727020254691,-0.9970703,0.3330078,0.7236328,34.125,-25.59375,-49.4375
325,325,1727020254719,-0.9746094,0.2939453,0.70410156,28.625,-69.78125,-50.59375
326,326,1727020254781,-0.69433594,0.50097656,0.67578125,51.78125,-90.90625,-37.71875
327,327,1727020254809,-0.7363281,0.44433594,0.73535156,37.78125,-117.28125,-29.3125
328,328,1727020254841,-0.4482422,0.37695312,0.5917969,46.40625,-145.90625,-19.0
329,329,1727020254902,-0.4736328,0.6269531,0.49023438,79.34375,-165.25,0.0625
330,330,1727020254929,0.021484375,0.4921875,0.41796875,75.4375,-141.6875,42.28125
331,331,1727020254960,0.13769531,0.57714844,0.5410156,-40.40625,-79.875,42.78125
332,332,1727020255022,0.4140625,0.07324219,0.48046875,-62.6875,-32.3125,8.46875
333,333,1727020255049,0.15820312,0.22363281,0.79785156,-74.21875,11.375,-25.15625
334,334,1727020255083,0.16503906,0.34765625,0.640625,-67.4375,21.6875,-76.375
335,335,1727020255141,-0.17871094,0.107421875,1.0820312,-68.21875,6.9375,-73.4375
336,336,1727020255169,-0.8964844,0.5566406,2.0058594,-17.3125,-121.84375,-30.53125
337,337,1727020255200,0.2861328,0.6738281,0.24804688,-45.09375,-62.34375,-90.28125
338,338,1727020255263,-0.53808594,-0.064453125,0.6894531,-12.5,-30.125,-77.59375
339,339,1727020255289,0.018554688,0.6220703,0.98339844,13.0,-22.90625,-61.28125
340,340,1727020255321,-0.12988281,0.21386719,1.2216797,-52.65625,-25.0625,-47.0
341,341,1727020255382,-0.24414062,-0.029296875,1.0,-52.71875,-17.65625,-22.15625
342,342,1727020255409,-0.08300781,0.10644531,0.91503906,-38.9375,-2.84375,1.40625
343,343,1727020255440,-0.06542969,0.048828125,1.3105469,-32.8125,4.375,-4.8125
344,344,1727020255503,0.099609375,0.18652344,1.2275391,-14.5,21.875,-9.34375
345,345,1727020255529,-0.01953125,0.19238281,1.1503906,-26.28125,46.0,-19.34375
346,346,1727020255559,-0.09765625,0.08886719,1.1845703,-37.03125,56.96875,-19.90625
347,347,1727020255620,-0.18945312,0.029296875,1.15625,-41.96875,69.125,-15.25
348,348,1727020255650,-0.23925781,0.04296875,1.2119141,-49.0625,87.8125,-5.8125
349,349,1727020255679,-0.14160156,-0.045898438,1.3398438,-64.375,106.25,9.875
350,350,1727020255742,-0.24511719,-0.048828125,1.140625,-76.53125,126.5625,36.1875
351,351,1727020255769,-0.44628906,-0.016601562,0.89746094,-104.0625,140.125,61.46875
352,352,1727020255800,-0.60253906,-0.15820312,0.74316406,-134.4375,135.46875,61.625
353,353,1727020255861,-0.6464844,-0.22070312,0.6611328,-116.75,130.78125,47.96875
354,354,1727020255890,-0.5283203,-0.10253906,0.56933594,-123.46875,118.5625,64.5625
355,355,1727020255920,-0.49902344,-0.171875,0.4169922,-158.4375,114.71875,71.84375
356,356,1727020255982,-0.59375,-0.2919922,0.33007812,-158.8125,94.6875,70.6875
357,357,1727020256009,-0.65527344,-0.26953125,0.30371094,-150.8125,74.0625,75.90625
358,358,1727020256040,-0.70703125,-0.36816406,0.3330078,-193.46875,46.65625,77.8125
359,359,1727020256134,-0.6826172,-0.37597656,0.26464844,-140.125,61.125,76.78125
360,360,1727020256139,-0.89746094,-0.17773438,0.25683594,-39.25,49.40625,63.53125
361,361,1727020256172,-0.9482422,-0.18261719,0.23925781,-53.09375,26.34375,50.21875
362,362,1727020256223,-0.7207031,-0.16699219,0.2861328,-50.53125,6.375,43.21875
363,363,1727020256249,-0.9560547,-0.30273438,0.048828125,-121.3125,-7.65625,43.5
364,364,1727020256279,-1.1083984,-0.4501953,-0.1171875,-122.78125,-18.15625,23.75
365,365,1727020256342,-0.89941406,-0.15722656,0.0859375,-108.21875,-33.96875,17.875
366,366,1727020256369,-0.8457031,-0.1328125,0.28320312,-102.03125,-17.90625,38.3125
367,367,1727020256400,-0.8457031,-0.09765625,0.10546875,-154.15625,-54.65625,66.15625
368,368,1727020256462,-0.8769531,-0.23339844,-0.0126953125,-177.90625,-83.40625,82.09375
369,369,1727020256489,-1.0595703,-0.46972656,-0.0107421875,-158.4375,-82.78125,65.0
370,370,1727020256522,-1.3349609,-0.3466797,-0.056640625,-55.09375,-74.1875,17.03125
371,371,1727020256582,-1.6533203,-0.0126953125,0.5996094,50.5625,16.875,-33.75
372,372,1727020256614,-1.1982422,0.08203125,0.3720703,-98.625,-85.53125,-16.65625
373,373,1727020256639,-0.9169922,0.37402344,0.30078125,-132.875,-59.0625,-19.78125
374,374,1727020256702,-0.89746094,0.46484375,0.26464844,-108.21875,-40.0625,7.75
375,375,1727020256729,-0.5810547,0.033203125,0.18066406,-112.90625,-46.90625,48.5625
376,376,1727020256759,-0.7441406,-0.3779297,0.15234375,-97.40625,-41.28125,73.96875
377,377,1727020256822,-1.0498047,-0.36523438,0.16015625,-46.875,-17.0625,67.0
378,378,1727020256850,-0.8544922,-0.029296875,-0.048828125,-163.375,8.6875,66.28125
379,379,1727020256879,-1.0126953,-0.005859375,0.095703125,-142.8125,30.1875,77.21875
380,380,1727020256942,-1.0791016,-0.26171875,0.04296875,-129.6875,28.84375,63.09375
381,381,1727020256970,-1.0107422,-0.46875,0.19726562,-141.71875,15.78125,47.0625
382,382,1727020256999,-0.921875,-0.15039062,0.14550781,-159.0,15.0,25.3125
383,383,1727020257062,-1.0917969,-0.31152344,0.5546875,-135.125,-18.28125,32.84375
384,384,1727020257091,-1.0224609,-0.7578125,0.41503906,-143.375,-64.3125,-6.0625
385,385,1727020257121,-0.7832031,-0.29101562,0.30273438,-84.78125,-72.28125,-16.25
386,386,1727020257182,-0.77246094,-0.33496094,0.36914062,-4.8125,-105.75,9.21875
387,387,1727020257218,-0.9433594,-0.5644531,0.24609375,-78.3125,-117.6875,1.875
388,388,1727020257239,-0.5419922,-0.30371094,0.26660156,-102.15625,-98.59375,-12.15625
389,389,1727020257302,-0.43066406,-0.3154297,0.2998047,-91.3125,-82.25,0.40625
390,390,1727020257329,-0.453125,-0.5683594,0.33691406,-89.65625,-66.5625,19.71875
391,391,1727020257359,-1.2783203,-1.0576172,0.4423828,-64.0625,-120.28125,-3.375
392,392,1727020257422,-0.3876953,-0.265625,0.625,39.1875,-85.71875,-14.96875
393,393,1727020257449,-0.27246094,-0.21484375,0.5751953,-58.09375,-98.65625,-6.59375
394,394,1727020257479,-0.828125,-0.60546875,0.7216797,-53.21875,-97.0625,5.25
395,395,1727020257540,-0.6220703,-0.47070312,0.5830078,-26.125,-100.0,-6.84375
396,396,1727020257572,-0.50683594,-0.5107422,0.6982422,-12.125,-104.65625,-1.90625
397,397,1727020257602,-0.50390625,-0.52246094,0.7792969,3.90625,-104.8125,-2.9375
398,398,1727020257664,-0.41992188,-0.41015625,0.80859375,14.46875,-109.65625,0.71875
399,399,1727020257689,-0.35058594,-0.4189453,0.8701172,-0.1875,-102.6875,3.84375
400,400,1727020257721,-0.36035156,-0.5390625,0.92578125,-16.03125,-99.5625,-4.875
401,401,1727020257749,-0.22558594,-0.4111328,0.9765625,-13.40625,-89.1875,-3.0625
402,402,1727020257812,-0.19921875,-0.5605469,1.0380859,-19.34375,-79.4375,-1.78125
403,403,1727020257839,-0.078125,-0.5029297,1.0283203,9.34375,-75.90625,-0.90625
404,404,1727020257902,0.064453125,-0.36132812,1.0859375,8.0,-61.0625,3.09375
405,405,1727020257929,0.12695312,-0.4111328,1.0253906,-21.03125,-38.53125,1.15625
406,406,1727020257960,0.18066406,-0.36035156,0.8378906,-21.40625,-30.125,-3.25
407,407,1727020257989,0.1171875,-0.4560547,0.8173828,-28.25,-17.3125,-7.875
408,408,1727020258052,0.099609375,-0.4921875,0.8046875,-28.0,-20.15625,-11.59375
409,409,1727020258079,0.103515625,-0.52734375,0.75,-11.40625,-27.5,-10.8125
410,410,1727020258110,0.07128906,-0.59472656,0.859375,-1.46875,-22.84375,-9.09375
411,411,1727020258172,0.026367188,-0.5957031,0.88183594,-0.78125,-19.375,-11.0625
412,412,1727020258208,0.028320312,-0.60546875,0.9033203,-3.40625,-13.34375,-19.125
413,413,1727020258230,-0.059570312,-0.66015625,0.9355469,-6.59375,4.5,-22.65625
414,414,1727020258292,0.005859375,-0.5126953,0.8964844,-17.125,11.625,-31.9375
415,415,1727020258352,0.07421875,-0.51953125,0.86621094,-19.21875,8.75,-17.78125
416,416,1727020258358,-0.0146484375,-0.6533203,0.93847656,-10.0625,9.1875,-5.6875
417,417,1727020258412,-0.01171875,-0.58984375,0.82128906,-0.28125,-2.96875,-14.71875
418,418,1727020258439,0.13867188,-0.5361328,0.8203125,10.09375,0.34375,-12.6875
419,419,1727020258470,0.18554688,-0.47265625,0.8066406,6.65625,16.75,-4.65625
420,420,1727020258532,0.13867188,-0.5263672,0.83691406,10.625,12.3125,10.6875
421,421,1727020258559,0.09472656,-0.5605469,0.81640625,17.46875,1.9375,7.9375
422,422,1727020258589,0.087890625,-0.49121094,0.9033203,21.9375,-1.96875,6.40625
423,423,1727020258649,0.10253906,-0.43066406,0.8671875,19.125,-1.5,11.46875
424,424,1727020258679,0.091796875,-0.453125,0.8691406,29.90625,-1.0625,19.84375
425,425,1727020258709,0.0068359375,-0.5048828,0.86328125,15.625,-0.09375,20.8125
426,426,1727020258773,0.022460938,-0.46875,0.8769531,15.5,1.0625,16.40625
427,427,1727020258799,0.080078125,-0.47558594,0.9082031,18.6875,-1.1875,19.21875
428,428,1727020258830,0.13671875,-0.4716797,0.9560547,12.28125,1.3125,19.65625
429,429,1727020258892,0.15722656,-0.5136719,1.1611328,5.9375,5.40625,28.625
430,430,1727020258922,0.25683594,-0.4326172,0.95214844,1.34375,22.3125,20.3125
431,431,1727020258950,0.12695312,-0.42773438,1.0712891,-3.03125,42.21875,20.875
432,432,1727020259012,0.0390625,-0.5283203,0.95996094,-21.21875,67.59375,10.375
433,433,1727020259039,-0.12207031,-0.4814453,0.9189453,-14.8125,77.25,22.21875
434,434,1727020259070,-0.13183594,-0.5410156,0.9667969,-29.03125,85.4375,35.6875
435,435,1727020259132,-0.3515625,-0.5341797,0.94140625,-29.78125,87.25,41.125
436,436,1727020259159,-0.4267578,-0.5654297,0.92871094,-18.96875,78.84375,47.71875
437,437,1727020259189,-0.5390625,-0.38867188,0.8544922,17.78125,91.53125,34.96875
438,438,1727020259251,-0.6201172,-0.4873047,0.7705078,0.875,94.03125,41.4375
439,439,1727020259281,-0.6669922,-0.3154297,0.77441406,-4.875,96.09375,45.78125
440,440,1727020259309,-0.57910156,-0.46191406,0.73535156,-12.8125,98.375,45.78125
441,441,1727020259371,-0.57421875,-0.47070312,0.63183594,-15.25,93.125,47.125
442,442,1727020259400,-0.63183594,-0.40527344,0.5439453,1.71875,85.375,56.34375
443,443,1727020259429,-0.62597656,-0.3232422,0.55078125,17.59375,78.40625,51.5
444,444,1727020259493,-0.6357422,-0.2607422,0.56640625,14.125,80.78125,44.71875
445,445,1727020259520,-0.6816406,-0.265625,0.5078125,2.21875,90.625,43.8125
446,446,1727020259550,-0.57128906,-0.3720703,0.3173828,13.75,101.96875,33.9375
447,447,1727020259612,-0.6357422,-0.4794922,0.29296875,47.0,90.375,35.09375
448,448,1727020259646,-0.6376953,-0.51171875,0.18457031,81.125,83.03125,10.1875
449,449,1727020259670,-0.72558594,-0.46289062,0.17871094,108.65625,92.125,-5.25
450,450,1727020259732,-1.0058594,-0.48339844,0.14257812,131.46875,68.875,-13.0625
451,451,1727020259759,-0.8691406,-0.37304688,0.14160156,152.40625,62.03125,-23.03125
452,452,1727020259792,-0.9248047,-0.14648438,0.15039062,132.6875,48.25,-10.75
453,453,1727020259851,-1.1083984,-0.19140625,0.18164062,79.53125,29.40625,-10.75
454,454,1727020259879,-0.9501953,-0.48242188,0.20507812,98.21875,2.65625,-9.96875
455,455,1727020259910,-1.0693359,-0.52734375,-0.013671875,153.5625,-33.59375,-36.4375
456,456,1727020259972,-1.1669922,-0.62597656,0.22851562,207.59375,-57.09375,-71.71875
457,457,1727020260000,-1.1132812,-0.3671875,0.171875,135.6875,-130.71875,-108.15625
458,458,1727020260039,-0.921875,0.119140625,0.36914062,245.75,-51.1875,-117.375
459,459,1727020260092,-0.9316406,-0.30664062,0.119140625,76.84375,-29.4375,-124.09375
460,460,1727020260119,-0.94921875,-0.41796875,0.22460938,91.5,41.65625,-131.78125
461,461,1727020260151,-0.7216797,-0.2578125,0.22949219,132.09375,51.125,-119.6875
462,462,1727020260212,-0.5722656,-0.21386719,0.0703125,121.09375,87.8125,-94.125
463,463,1727020260239,-0.4609375,-0.22363281,0.19042969,103.90625,146.75,-69.65625
464,464,1727020260269,-0.6113281,-0.53222656,0.0068359375,101.5,201.21875,-7.8125
465,465,1727020260332,-1.4453125,-0.07714844,-0.0029296875,214.375,139.3125,22.53125
466,466,1727020260360,-1.7607422,0.107421875,0.39257812,169.03125,42.15625,-26.0
467,467,1727020260390,-0.99609375,0.84375,0.1953125,106.46875,28.46875,8.0625
468,468,1727020260452,-1.0039062,-0.4140625,-0.02734375,143.9375,55.9375,34.40625
469,469,1727020260479,-1.1435547,-0.89746094,-0.34472656,104.0,58.5,-30.71875
470,470,1727020260509,-0.9326172,-0.17089844,0.52734375,112.125,78.59375,-41.375
471,471,1727020260573,-1.0253906,-0.50097656,-0.15917969,135.3125,38.375,-5.8125
472,472,1727020260604,-1.0722656,-0.2939453,0.07714844,112.5625,52.875,-26.0625
473,473,1727020260631,-0.9082031,-0.26367188,0.05859375,115.4375,50.75,-16.375
474,474,1727020260692,-0.8857422,-0.23242188,0.14941406,126.78125,52.21875,-10.875
475,475,1727020260719,-0.9160156,-0.34277344,0.14648438,124.9375,26.15625,-3.59375
476,476,1727020260749,-0.9189453,-0.5078125,0.001953125,135.625,16.625,-5.875
477,477,1727020260811,-1.0009766,-0.484375,-0.08203125,124.15625,21.46875,-13.875
478,478,1727020260841,-0.9140625,-0.3388672,-0.1171875,121.34375,31.65625,-12.53125
479,479,1727020260870,-0.92578125,-0.44140625,-0.047851562,140.34375,43.0,-0.5
480,480,1727020260932,-0.9267578,-0.390625,-0.1328125,124.71875,38.4375,-0.6875
481,481,1727020260960,-0.97558594,-0.38671875,-0.095703125,121.53125,37.8125,5.71875
482,482,1727020260990,-1.0742188,-0.3486328,0.038085938,125.6875,19.875,3.34375
483,483,1727020261052,-1.0507812,-0.23828125,0.03125,136.0625,-10.9375,-2.15625
484,484,1727020261079,-1.21875,-0.37109375,0.22949219,129.46875,-53.75,-12.03125
485,485,1727020261109,-1.0947266,-0.28808594,0.20898438,155.46875,-99.28125,-26.6875
486,486,1727020261172,-0.9267578,-0.18554688,0.2685547,185.8125,-115.5,-38.40625
487,487,1727020261199,-1.0371094,-0.17285156,0.32910156,192.40625,-84.8125,-55.90625
488,488,1727020261233,-1.0292969,-0.083984375,0.033203125,136.3125,-48.84375,-79.71875
489,489,1727020261293,-0.8574219,-0.18261719,0.23144531,79.34375,-5.9375,-101.375
490,490,1727020261319,-1.0380859,-0.21582031,0.42382812,100.0,4.71875,-115.78125
491,491,1727020261350,-0.9082031,-0.31152344,0.20019531,113.0625,10.28125,-126.59375
492,492,1727020261412,-0.8935547,-0.12109375,0.19140625,108.71875,33.125,-117.6875
493,493,1727020261439,-0.79589844,-0.19335938,0.29492188,117.8125,63.875,-103.09375
494,494,1727020261469,-0.7636719,-0.2265625,0.25976562,130.9375,77.84375,-82.28125
495,495,1727020261532,-0.65722656,-0.16210938,0.328125,136.78125,92.0,-55.59375
496,496,1727020261560,-0.6376953,-0.3232422,0.37890625,110.65625,100.6875,-11.53125
497,497,1727020261590,-0.9326172,-0.5654297,0.35253906,106.6875,76.3125,5.5
498,498,1727020261652,-0.93847656,-0.30859375,0.21484375,138.4375,66.0625,-14.40625
499,499,1727020261680,-0.8544922,0.24121094,-0.22460938,83.9375,39.09375,-56.9375
500,500,1727020261709,-1.2480469,0.6923828,0.5234375,112.25,54.125,24.53125
501,501,1727020261772,-1.3505859,-0.41015625,-0.0068359375,107.90625,52.78125,13.84375
502,502,1727020261800,-1.3818359,-0.64746094,-0.18457031,63.1875,28.34375,-36.6875
503,503,1727020261831,-0.68066406,-0.036132812,0.25,118.71875,30.5625,-39.6875
504,504,1727020261893,-0.89941406,-0.3232422,0.2939453,63.0,15.34375,-21.625
505,505,1727020261919,-1.0273438,-0.3984375,0.15917969,52.9375,25.0625,-37.1875
506,506,1727020261949,-0.9501953,-0.43847656,0.34179688,93.9375,28.59375,-37.96875
507,507,1727020262012,-0.9921875,-0.25195312,0.2763672,125.25,17.1875,-38.6875
508,508,1727020262039,-0.890625,0.017578125,0.3076172,93.625,-0.625,-40.59375
509,509,1727020262070,-0.8623047,-0.140625,0.20996094,30.59375,-17.25,-36.4375
510,510,1727020262132,-0.9423828,-0.45996094,0.18164062,14.40625,-19.25,-36.6875
511,511,1727020262159,-0.9550781,-0.5019531,0.1328125,61.15625,-25.1875,-37.46875
512,512,1727020262190,-0.80566406,-0.26953125,0.25195312,106.59375,-42.4375,-37.375
513,513,1727020262253,-0.78515625,-0.13867188,0.35839844,82.59375,-50.8125,-36.3125
514,514,1727020262280,-0.71875,-0.19628906,0.41308594,57.1875,-57.9375,-41.6875
515,515,1727020262310,-0.7597656,-0.37304688,0.32128906,57.125,-67.53125,-47.125
516,516,1727020262373,-0.95410156,-0.25,0.5439453,70.6875,-47.375,-68.84375
517,517,1727020262402,-0.5917969,-0.11425781,0.6689453,29.3125,-43.0625,-63.78125
518,518,1727020262437,-0.6269531,-0.28808594,0.5908203,22.15625,-73.5625,-41.6875
519,519,1727020262491,-0.5888672,-0.091796875,0.7558594,12.40625,-74.90625,-44.6875
520,520,1727020262519,-0.61035156,-0.3544922,0.64453125,-30.75,-74.375,-42.59375
521,521,1727020262550,-0.5761719,-0.51171875,0.74121094,-9.875,-78.9375,-46.75
522,522,1727020262613,-0.4033203,-0.2763672,0.6113281,12.71875,-81.15625,-50.40625
523,523,1727020262640,-0.42285156,-0.3408203,0.75,16.3125,-99.9375,-39.0625
524,524,1727020262669,-0.35839844,-0.30664062,0.82421875,8.6875,-102.25,-43.71875
525,525,1727020262732,-0.2783203,-0.3935547,0.8339844,-8.96875,-96.03125,-45.125
526,526,1727020262760,-0.20605469,-0.5732422,0.8574219,-5.40625,-103.25,-45.0625
527,527,1727020262790,-0.07324219,-0.4951172,0.8808594,-11.40625,-83.875,-47.5625
528,528,1727020262851,-0.080078125,-0.7001953,0.93847656,-14.09375,-82.78125,-39.0
529,529,1727020262880,0.087890625,-0.9199219,1.2207031,13.875,-66.4375,-34.6875
530,530,1727020262910,0.29882812,-0.58203125,1.2832031,41.09375,-35.0,-21.6875
531,531,1727020262971,0.17675781,-0.50878906,1.0634766,5.25,2.0,-25.03125
532,532,1727020262999,0.026367188,-0.37597656,0.8154297,-12.0625,29.03125,-39.25
533,533,1727020263063,0.087890625,-0.2919922,0.8701172,-4.9375,17.71875,-38.9375
534,534,1727020263090,-0.0146484375,-0.46875,0.9199219,-17.09375,0.59375,-34.78125
535,535,1727020263119,0.087890625,-0.52734375,0.8847656,-26.21875,0.46875,-41.09375
536,536,1727020263149,0.17285156,-0.5253906,0.8886719,-23.25,7.90625,-32.21875
537,537,1727020263212,0.022460938,-0.61621094,1.0234375,-24.59375,-5.65625,-19.59375
538,538,1727020263239,0.0390625,-0.55371094,0.86816406,1.125,-11.125,-22.28125
539,539,1727020263270,0.18066406,-0.39453125,0.8730469,-13.71875,-3.625,-19.125
540,540,1727020263332,0.16113281,-0.43066406,0.8798828,-0.46875,-12.84375,0.90625
541,541,1727020263359,0.08691406,-0.49121094,0.7861328,6.34375,-14.0,9.34375
542,542,1727020263391,0.13085938,-0.46777344,0.8232422,11.0,-6.9375,12.4375
543,543,1727020263452,0.16113281,-0.50097656,0.8310547,17.65625,-6.25,16.0
544,544,1727020263480,0.17382812,-0.5019531,0.85058594,10.9375,-1.6875,10.6875
545,545,1727020263509,0.17382812,-0.49121094,0.88183594,3.1875,3.09375,8.84375
546,546,1727020263572,0.12109375,-0.5029297,0.8828125,-7.8125,11.5,1.75
547,547,1727020263599,0.09375,-0.4951172,0.86328125,-8.96875,17.4375,0.125
548,548,1727020263629,0.045898438,-0.5136719,0.90527344,7.34375,16.6875,-1.71875
549,549,1727020263694,0.03515625,-0.4873047,0.8828125,3.6875,14.25,1.75
550,550,1727020263720,0.04296875,-0.484375,0.83496094,10.4375,12.4375,5.4375
551,551,1727020263752,0.0546875,-0.4609375,0.8876953,18.375,13.59375,11.46875
552,552,1727020263814,0.017578125,-0.44628906,0.90722656,15.03125,11.09375,11.71875
553,553,1727020263840,0.07128906,-0.4345703,0.92285156,16.5625,13.53125,7.1875
554,554,1727020263870,0.025390625,-0.46289062,0.99316406,21.375,6.875,13.0625
555,555,1727020263932,0.08203125,-0.4013672,0.890625,13.6875,6.25,13.3125
556,556,1727020263960,0.20117188,-0.44335938,0.91015625,17.53125,3.09375,27.40625
557,557,1727020263990,0.18945312,-0.5810547,1.0332031,5.625,-5.28125,33.9375
558,558,1727020264052,0.2890625,-0.46191406,0.9355469,18.75,-24.5625,41.125
559,559,1727020264080,0.12402344,-0.32714844,1.0800781,26.6875,11.75,51.4375
560,560,1727020264113,-0.022460938,-0.39648438,1.0976562,7.75,29.21875,30.625
561,561,1727020264264,-0.0546875,-0.30566406,1.0810547,-11.46875,58.8125,2.625
562,562,1727020264270,0.055664062,-0.48339844,0.8408203,-47.78125,74.9375,-1.65625
563,563,1727020264274,-0.20214844,-0.64746094,0.9892578,-26.0625,85.4375,36.5625
564,564,1727020264319,-0.35058594,-0.4580078,0.9091797,-6.65625,94.75,39.65625
565,565,1727020264323,-0.6357422,-0.515625,0.92285156,-43.3125,145.0625,-14.03125
566,566,1727020264350,-0.3330078,-0.111328125,0.79003906,42.78125,40.25,29.65625
567,567,1727020264411,-0.6123047,-0.7158203,0.7373047,-66.28125,90.5625,73.0625
568,568,1727020264441,-0.6142578,-0.58984375,0.7207031,-22.15625,93.65625,52.53125
569,569,1727020264469,-0.6123047,-0.47753906,0.64160156,6.0625,88.40625,52.0
570,570,1727020264532,-0.6513672,-0.39746094,0.6386719,21.1875,86.40625,48.53125
571,571,1727020264559,-0.6953125,-0.3466797,0.6328125,23.625,81.53125,45.71875
572,572,1727020264590,-0.66503906,-0.26367188,0.58691406,13.0625,85.90625,45.53125
573,573,1727020264652,-0.6230469,-0.23242188,0.5283203,8.1875,93.125,39.78125
574,574,1727020264679,-0.6777344,-0.22753906,0.47851562,9.84375,93.0,34.78125
575,575,1727020264710,-0.6640625,-0.21191406,0.44140625,13.625,97.8125,27.59375
576,576,1727020264773,-0.7080078,-0.17089844,0.45898438,3.0625,92.0625,29.15625
577,577,1727020264805,-0.7988281,-0.037109375,0.37109375,-4.375,88.34375,32.15625
578,578,1727020264829,-0.8261719,0.009765625,0.19921875,-13.90625,77.5,30.875
579,579,1727020264891,-0.95996094,0.0126953125,0.18652344,-21.21875,45.375,28.375
580,580,1727020264919,-0.9091797,-0.13769531,0.10058594,-43.875,37.3125,19.78125
581,581,1727020264950,-0.96191406,-0.2578125,-0.057617188,-44.96875,32.4375,11.21875
582,582,1727020265011,-0.953125,-0.42285156,-0.06738281,-15.1875,29.03125,1.75
583,583,1727020265039,-1.0712891,-0.29882812,-0.0625,9.53125,32.375,-9.28125
584,584,1727020265070,-1.015625,-0.13476562,0.02734375,12.65625,27.0625,-2.6875
585,585,1727020265131,-1.0351562,-0.11816406,-0.0234375,-30.03125,1.875,1.65625
586,586,1727020265159,-1.0,-0.12695312,0.028320312,-37.21875,-10.40625,2.8125
587,587,1727020265190,-1.0449219,-0.07714844,0.0703125,-42.59375,-21.8125,4.5625
588,588,1727020265252,-1.0273438,-0.123046875,0.10644531,-76.53125,-66.25,0.125
589,589,1727020265279,-0.8613281,-0.024414062,0.07324219,-149.59375,-114.96875,-16.5
590,590,1727020265310,-1.0097656,-0.37597656,0.1640625,-163.75,-147.125,-28.15625
591,591,1727020265372,-1.4560547,-0.81152344,0.6904297,-44.0625,-170.5625,-49.5625
592,592,1727020265399,-0.79003906,0.05859375,0.29492188,67.34375,-220.375,-63.25
593,593,1727020265429,-0.32128906,-0.30371094,0.11035156,117.375,-112.5625,40.46875
594,594,1727020265494,-0.9140625,-0.20214844,0.75,-34.46875,-60.5,12.09375
595,595,1727020265520,-0.62890625,-0.107421875,0.53125,23.5625,-49.09375,21.71875
596,596,1727020265550,-0.23144531,-0.2705078,0.44140625,-62.90625,-6.875,33.0625
597,597,1727020265611,-0.060546875,-0.119140625,0.34570312,-42.21875,33.84375,32.21875
598,598,1727020265639,-0.15332031,-0.16601562,0.4482422,7.28125,55.46875,53.46875
599,599,1727020265669,-0.7890625,-0.24023438,1.3046875,-1.46875,14.3125,39.0
600,600,1727020265732,-1.3154297,-0.75878906,1.0009766,-72.8125,-80.90625,-16.59375
601,601,1727020265759,-0.9423828,-0.44140625,0.09667969,2.4375,-75.34375,-43.28125
602,602,1727020265790,0.375,0.8544922,0.53515625,54.625,-115.625,37.65625
603,603,1727020265852,-0.79589844,-0.53515625,0.76171875,-37.84375,-70.9375,31.78125
604,604,1727020265879,-1.1757812,-0.4111328,0.5751953,18.3125,-92.4375,17.375
605,605,1727020265912,-0.296875,-0.08105469,0.7402344,84.3125,-144.0625,31.1875
606,606,1727020266035,-0.4560547,-0.390625,0.7763672,40.28125,-94.8125,51.625
607,607,1727020266040,-0.4970703,-0.140625,0.9951172,48.40625,-86.28125,58.09375
608,608,1727020266043,-0.5107422,-0.25097656,0.97753906,52.0625,-86.40625,66.9375
609,609,1727020266091,-0.35546875,-0.08203125,1.0107422,47.4375,-89.5625,86.78125
610,610,1727020266120,-0.35351562,-0.16601562,1.0166016,32.1875,-82.25,105.03125
611,611,1727020266150,-0.40722656,-0.09765625,0.9863281,48.84375,-86.625,124.3125
612,612,1727020266179,-0.3310547,-0.018554688,0.9394531,56.78125,-80.59375,142.21875
613,613,1727020266243,-0.36621094,-0.020507812,0.95996094,54.21875,-86.5,160.6875
614,614,1727020266269,-0.2783203,0.12109375,0.8701172,66.1875,-89.03125,175.90625
615,615,1727020266299,0.052734375,0.33007812,0.83496094,32.125,-76.4375,193.84375
616,616,1727020266361,0.2861328,0.18847656,0.8623047,-12.1875,-39.625,195.5625
617,617,1727020266390,0.3076172,-0.2578125,1.0957031,15.21875,-73.34375,180.34375
618,618,1727020266429,0.44921875,-0.125,0.99121094,40.46875,-74.5,148.96875
619,619,1727020266482,0.50878906,0.22070312,0.70996094,73.125,-93.96875,147.53125
620,620,1727020266571,0.57421875,0.07910156,0.72558594,58.71875,-101.09375,144.28125
621,621,1727020266576,0.6123047,-0.055664062,0.9873047,66.65625,-118.1875,125.375
622,622,1727020266602,1.0107422,-0.016601562,0.29492188,122.625,-129.25,69.75
623,623,1727020266630,0.9589844,0.14746094,0.39648438,122.375,-121.25,75.3125
624,624,1727020266659,0.9628906,0.10253906,0.3544922,93.28125,-90.78125,67.125
625,625,1727020266722,0.9970703,0.07128906,0.3330078,55.96875,-80.96875,59.25
626,626,1727020266750,1.2412109,0.11230469,0.39453125,79.46875,-75.65625,44.0625
627,627,1727020266779,1.9785156,0.7529297,0.5908203,37.78125,4.0,-2.9375
628,628,1727020266842,1.3876953,0.328125,0.11425781,1.59375,75.59375,-21.5
629,629,1727020266869,0.5996094,0.24804688,0.4814453,4.59375,96.90625,5.65625
630,630,1727020266932,0.4375,0.19335938,0.3798828,38.03125,94.15625,27.59375
631,631,1727020266959,0.7216797,0.28320312,0.5371094,39.9375,64.0,27.59375
632,632,1727020266989,0.8144531,0.28027344,0.6298828,32.84375,41.15625,26.84375
633,633,1727020267019,0.7871094,0.30859375,0.59765625,8.25,43.1875,34.90625
634,634,1727020267082,0.6982422,0.3330078,0.75390625,-17.9375,30.6875,41.5
635,635,1727020267109,0.6875,0.18847656,0.7285156,-26.65625,20.53125,29.90625
636,636,1727020267140,0.5761719,0.3046875,0.58984375,-35.28125,12.59375,3.46875
637,637,1727020267202,0.75097656,0.32910156,0.7167969,-51.6875,22.0625,-7.15625
638,638,1727020267229,0.7089844,0.21191406,0.67285156,-68.96875,9.3125,-3.0625
639,639,1727020267259,0.6972656,0.14746094,0.62597656,-66.59375,13.21875,9.09375
640,640,1727020267322,0.67285156,-0.038085938,0.7167969,-61.4375,6.9375,16.84375
641,641,1727020267350,0.63378906,-0.07324219,0.6845703,-50.21875,-7.0,12.25
642,642,1727020267379,0.7675781,-0.11328125,0.7558594,-38.25,-0.5625,25.03125
643,643,1727020267441,0.73535156,-0.17480469,0.70410156,-38.75,-2.40625,39.3125
644,644,1727020267469,0.7314453,-0.23242188,0.5908203,-18.25,-2.59375,52.65625
645,645,1727020267532,0.80078125,-0.24023438,0.5488281,-17.9375,-7.78125,60.34375
646,646,1727020267560,0.8173828,-0.2626953,0.60839844,-14.5,-14.0625,66.59375
647,647,1727020267590,0.7441406,-0.23730469,0.71972656,4.46875,-31.46875,67.6875
648,648,1727020267620,0.79589844,-0.13574219,0.63671875,-15.25,-17.3125,52.71875
649,649,1727020267682,0.5566406,-0.27929688,0.67089844,-17.75,-21.9375,55.46875
650,650,1727020267710,0.6777344,-0.4638672,0.63378906,-14.75,-19.6875,51.9375
651,651,1727020267740,0.7158203,-0.40820312,0.5751953,-10.25,-27.375,52.84375
652,652,1727020267802,0.67285156,-0.42578125,0.5722656,-13.1875,-25.84375,55.40625
653,653,1727020267829,0.703125,-0.42089844,0.49121094,1.0625,-24.9375,59.375
654,654,1727020267860,0.6894531,-0.4453125,0.60253906,-6.53125,-22.71875,67.0625
655,655,1727020267922,0.6972656,-0.5410156,0.66503906,8.125,-23.46875,69.6875
656,656,1727020267950,0.5839844,-0.41992188,0.6230469,10.09375,-24.9375,68.90625
657,657,1727020267979,0.6142578,-0.57128906,0.5810547,2.6875,-23.71875,75.375
658,658,1727020268041,0.59765625,-0.50390625,0.5810547,-1.9375,-25.25,62.96875
659,659,1727020268069,0.5917969,-0.57128906,0.61328125,-8.65625,-23.21875,63.03125
660,660,1727020268100,0.60253906,-0.61035156,0.57910156,-3.53125,-9.90625,54.25
661,661,1727020268162,0.58691406,-0.6230469,0.47265625,-24.34375,-6.9375,43.21875
662,662,1727020268190,0.5703125,-0.68847656,0.5175781,-23.0,-3.875,42.59375
663,663,1727020268219,0.5439453,-0.59472656,0.57128906,-40.75,8.28125,39.46875
664,664,1727020268282,0.54296875,-0.84375,0.63378906,-63.65625,20.84375,38.09375
665,665,1727020268309,0.5957031,-1.0771484,0.55566406,-47.71875,18.65625,42.09375
666,666,1727020268340,0.6455078,-1.3154297,0.6015625,-49.84375,29.15625,31.5625
667,667,1727020268402,0.5576172,-1.2744141,0.3408203,-13.40625,17.71875,-14.09375
668,668,1727020268429,0.45996094,-1.0185547,0.51171875,23.15625,-10.46875,-27.15625
669,669,1727020268459,0.43652344,-0.9941406,0.48339844,18.03125,-39.21875,-21.78125
670,670,1727020268522,0.578125,-0.8828125,0.45410156,-4.25,-52.09375,-51.75
671,671,1727020268549,0.6816406,-0.88964844,0.3154297,35.71875,-59.59375,-90.71875
672,672,1727020268580,0.6425781,-0.7392578,0.2626953,78.75,-48.625,-121.34375
673,673,1727020268646,0.8417969,-0.4501953,0.20410156,82.46875,-28.46875,-144.46875
674,674,1727020268673,0.7675781,-0.31835938,0.23046875,73.1875,12.0,-125.875
675,675,1727020268701,0.69921875,-0.19824219,0.13574219,17.46875,97.5,-30.53125
676,676,1727020268764,0.3701172,-0.072265625,0.20117188,-5.59375,126.9375,38.625
677,677,1727020268789,0.27246094,-0.0390625,0.30273438,-27.15625,113.9375,84.34375
678,678,1727020268820,-0.11816406,-1.0908203,1.484375,-31.375,-11.8125,66.15625
679,679,1727020268881,0.84472656,-0.07714844,0.24804688,-85.0625,28.53125,-4.03125
680,680,1727020268909,0.37304688,-0.41992188,0.61328125,15.21875,9.1875,64.5
681,681,1727020268941,0.51953125,-0.95996094,0.66015625,8.0,-16.25,80.3125
682,682,1727020269002,0.5498047,-0.78515625,0.6376953,18.0625,5.46875,35.03125
683,683,1727020269029,0.45214844,-0.40722656,0.5019531,46.46875,-10.90625,58.40625
684,684,1727020269059,0.22753906,-0.6855469,0.56347656,46.34375,-51.40625,87.21875
685,685,1727020269122,0.3642578,-0.88183594,0.58203125,24.0,-60.6875,71.09375
686,686,1727020269149,0.35546875,-0.59472656,0.67285156,81.375,-59.53125,67.5625
687,687,1727020269179,0.3720703,-0.87402344,0.87890625,156.25,-110.125,95.625
688,688,1727020269241,0.5136719,-0.6669922,0.8408203,240.375,-89.125,110.78125
689,689,1727020269270,0.6074219,-0.48339844,0.92089844,226.28125,-14.25,110.28125
690,690,1727020269300,0.5644531,-0.36816406,1.1933594,154.0625,37.21875,82.75
691,691,1727020269362,0.4375,-0.3154297,1.2070312,94.5625,66.9375,61.21875
692,692,1727020269389,0.26953125,-0.2861328,1.1230469,84.53125,69.96875,62.96875
693,693,1727020269420,0.12695312,0.047851562,1.0390625,71.25,59.3125,95.75
694,694,1727020269482,0.13867188,0.07519531,1.0732422,-9.75,67.53125,85.4375
695,695,1727020269509,0.10644531,-0.15332031,1.0390625,-36.0625,82.84375,81.28125
696,696,1727020269539,0.25097656,-0.35742188,0.9248047,-35.5,94.5625,72.5625
697,697,1727020269600,0.22265625,-0.34960938,0.8535156,-62.0625,110.1875,55.78125
698,698,1727020269629,0.10253906,-0.3828125,0.8857422,-95.5,131.5625,43.03125
699,699,1727020269659,-0.0009765625,-0.4892578,0.7998047,-115.59375,144.625,47.71875
700,700,1727020269720,-0.20117188,-0.54589844,0.8935547,-56.875,105.25,45.40625
701,701,1727020269749,-0.30371094,-0.57128906,0.7910156,-28.90625,97.5625,50.34375
702,702,1727020269810,-0.41015625,-0.5253906,0.7558594,-21.09375,91.9375,52.4375
703,703,1727020269839,-0.50878906,-0.45214844,0.6845703,-25.125,89.875,54.3125
704,704,1727020269868,-0.51464844,-0.4248047,0.5800781,-42.09375,91.34375,49.1875
705,705,1727020269930,-0.6123047,-0.31640625,0.5078125,-58.78125,84.03125,44.78125
706,706,1727020269960,-0.64941406,-0.36523438,0.45214844,-87.75,75.90625,46.0
707,707,1727020269989,-0.67578125,-0.34960938,0.33203125,-93.5625,70.34375,47.84375
708,708,1727020270019,-0.7675781,-0.20117188,0.3486328,-73.65625,52.78125,60.46875
709,709,1727020270080,-0.7685547,-0.38085938,0.234375,-50.59375,45.4375,65.78125
710,710,1727020270109,-0.671875,-0.44921875,0.25195312,-33.0,45.25,60.90625
711,711,1727020270139,-0.5839844,-0.3125,0.296875,-15.6875,43.375,52.3125
712,712,1727020270200,-0.7714844,-0.32128906,0.28320312,-19.40625,19.625,46.4375
713,713,1727020270229,-1.0283203,-0.29101562,0.2734375,-25.625,3.40625,23.75
714,714,1727020270259,-0.99609375,-0.11816406,0.17578125,-28.375,4.0,5.59375
715,715,1727020270320,-0.97558594,-0.265625,-0.036132812,-14.625,-13.625,1.8125
716,716,1727020270349,-1.1972656,-0.265625,0.21191406,14.21875,5.71875,-1.78125
717,717,1727020270410,-1.0820312,-0.35742188,0.5419922,23.75,-1.125,9.625
718,718,1727020270439,-1.1025391,-0.6845703,0.50097656,-29.78125,-52.8125,29.46875
719,719,1727020270469,-0.88964844,-0.43164062,0.2626953,-38.0625,-73.34375,-1.03125
720,720,1727020270499,-0.59277344,-0.3232422,0.3095703,-38.4375,-47.75,6.9375
721,721,1727020270560,-0.6123047,-0.32910156,0.28125,-16.78125,-32.875,41.25
722,722,1727020270589,-0.66796875,-0.35742188,0.38867188,53.40625,-25.65625,58.53125
723,723,1727020270619,-0.7089844,-0.3564453,0.48828125,56.15625,-36.78125,54.9375
724,724,1727020270680,-0.86328125,-0.20019531,0.4248047,-22.09375,-26.75,31.65625
725,725,1727020270709,-0.8691406,-0.055664062,0.29589844,-19.15625,-1.4375,36.25
726,726,1727020270739,-0.9121094,-0.1953125,0.57128906,-10.0,7.0625,68.09375
727,727,1727020270800,-0.88183594,-0.03125,0.32714844,26.375,3.875,79.40625
728,728,1727020270830,-0.86328125,0.12890625,0.15527344,36.625,25.90625,66.15625
729,729,1727020270860,-0.9404297,0.15429688,0.43164062,-76.78125,53.1875,39.78125
730,730,1727020270920,-0.9345703,-0.16796875,0.33203125,-149.71875,59.375,30.34375
731,731,1727020270950,-0.8808594,-0.34765625,0.47265625,-166.96875,53.6875,20.5625
732,732,1727020270979,-0.88183594,-0.28710938,0.36132812,-171.0625,37.375,-2.625
733,733,1727020271040,-1.4248047,-0.3876953,0.3642578,-141.90625,22.375,-2.21875
734,734,1727020271069,-0.79785156,-0.0078125,0.1328125,-86.90625,-9.65625,-14.40625
735,735,1727020271099,-0.8535156,-0.14160156,-0.03125,-107.90625,-12.21875,-2.875
736,736,1727020271160,-1.046875,-0.7705078,-0.17480469,-82.25,9.1875,6.03125
737,737,1727020271192,-0.9580078,-0.4951172,0.14257812,-24.46875,3.8125,-26.125
738,738,1727020271219,-0.9638672,-0.17089844,0.1171875,-65.28125,-34.8125,-23.3125
739,739,1727020271280,-0.9082031,-0.21386719,0.11230469,-80.125,-39.40625,-12.21875
740,740,1727020271309,-0.9482422,-0.30566406,0.13085938,-82.875,-29.6875,6.65625
741,741,1727020271400,-0.8652344,-0.41308594,0.06738281,-80.25,-46.84375,5.4375
742,742,1727020271405,-0.8828125,-0.31640625,0.11035156,-95.03125,-60.40625,-3.125
743,743,1727020271436,-0.8769531,-0.16894531,0.20898438,-107.46875,-83.9375,-3.53125
744,744,1727020271459,-0.7685547,-0.26171875,0.22070312,-116.5,-84.75,10.96875
745,745,1727020271520,-0.9140625,-0.33984375,-0.041015625,-134.8125,-108.90625,21.90625
746,746,1727020271552,-0.7578125,-0.45410156,0.10644531,-127.5,-120.03125,39.3125
747,747,1727020271579,-1.3242188,-0.6591797,0.3486328,-86.59375,-123.75,20.375
748,748,1727020271641,-0.984375,-0.61328125,0.73339844,-110.84375,-131.0,-8.0
749,749,1727020271669,-0.6611328,-1.0898438,0.25878906,-70.0625,-140.03125,-17.9375
750,750,1727020271699,-0.17578125,0.06933594,0.24316406,45.3125,-75.65625,-35.96875
751,751,1727020271760,0.043945312,-0.1796875,0.3330078,5.6875,-17.46875,47.65625
752,752,1727020271789,-1.0410156,-0.3046875,0.359375,-39.84375,-59.0,39.375
753,753,1727020271819,-0.625,-0.018554688,0.6044922,-36.4375,16.6875,45.96875
754,754,1727020271880,-0.48242188,-0.34765625,0.5732422,-60.78125,-7.28125,57.5
755,755,1727020271909,-1.0976562,-0.89941406,0.7158203,-56.9375,-49.84375,39.59375
756,756,1727020271970,-0.75,-0.6972656,0.8798828,-0.90625,-62.59375,17.3125
757,757,1727020271999,-0.6064453,-0.23730469,0.8173828,47.25,-86.34375,29.15625
758,758,1727020272028,-0.62597656,-0.3251953,0.7910156,34.625,-76.5,45.96875
759,759,1727020272090,-0.49902344,-0.34570312,0.7919922,35.34375,-63.4375,39.0625
760,760,1727020272119,-0.46777344,-0.3466797,0.89941406,37.65625,-47.9375,31.96875
761,761,1727020272149,-0.5917969,-0.20996094,1.0341797,29.1875,-33.0,37.59375
762,762,1727020272179,-0.64941406,-0.27246094,1.1796875,7.21875,-12.40625,43.375
763,763,1727020272240,-0.8642578,-0.2890625,1.1435547,-4.3125,21.03125,39.3125
764,764,1727020272269,-0.90527344,-0.32226562,0.9609375,19.71875,39.59375,53.28125
765,765,1727020272299,-0.8173828,-0.1171875,0.9433594,33.46875,48.125,52.96875
766,766,1727020272360,-0.6982422,-0.25878906,0.6044922,37.5,55.21875,57.5625
767,767,1727020272389,-0.6455078,-0.23535156,0.3017578,28.03125,41.71875,61.28125
768,768,1727020272418,-0.53515625,-0.0029296875,0.23144531,-2.84375,18.65625,79.28125
769,769,1727020272480,-0.7285156,0.021484375,0.33398438,-43.3125,8.15625,97.03125
770,770,1727020272508,-0.8076172,-0.20019531,0.50683594,-48.375,-6.625,115.84375
