,Unnamed: 0,timestamp,accel_x,accel_y,accel_z,gyro_x,gyro_y,gyro_z
0,0,1727988822305,-0.89453125,-0.043945312,0.024414062,-55.6875,-3.5625,-24.90625
1,1,1727988822345,-0.98828125,-0.12695312,-0.1015625,-31.3125,-26.5,-36.5
2,2,1727988822385,-0.9111328,-0.10839844,0.041992188,-17.90625,-115.0,-43.15625
3,3,1727988822425,-0.88183594,-0.15820312,0.08203125,-36.6875,-103.71875,-39.9375
4,4,1727988822465,-0.81640625,-0.23339844,0.6621094,-85.71875,-129.96875,-54.03125
5,5,1727988822505,-0.9375,-0.35351562,0.25878906,53.5625,-84.625,-53.59375
6,6,1727988822545,-0.8066406,-0.125,0.39160156,20.375,-87.34375,-56.03125
7,7,1727988822585,-0.84472656,-0.2265625,0.3642578,-34.875,-57.21875,-60.8125
8,8,1727988822625,-0.9160156,-0.4736328,0.43164062,-27.53125,-64.90625,-73.25
9,9,1727988822665,-0.81933594,-0.359375,0.4765625,-17.78125,-52.75,-64.71875
10,10,1727988822705,-0.7167969,-0.4921875,0.5175781,-17.71875,-63.96875,-60.9375
11,11,1727988822745,-0.82910156,-0.49609375,0.5390625,-21.3125,-46.34375,-57.375
12,12,1727988822785,-0.6386719,-0.52441406,0.6142578,-32.90625,-35.15625,-55.9375
13,13,1727988822825,-0.65625,-0.63183594,0.625,-2.40625,-57.5625,-51.40625
14,14,1727988822865,-0.5175781,-0.55859375,0.61621094,-17.46875,-44.625,-46.03125
15,15,1727988822905,-0.52441406,-0.6875,0.6328125,-15.6875,-48.84375,-43.09375
16,16,1727988822945,-0.44726562,-0.66015625,0.69921875,-11.375,-34.3125,-39.1875
17,17,1727988822985,-0.53125,-0.70996094,0.6357422,-12.59375,-28.28125,-37.0
18,18,1727988823025,-0.40820312,-0.6611328,0.6171875,2.1875,-33.53125,-34.4375
19,19,1727988823065,-0.3330078,-0.74316406,0.703125,-13.0625,-32.375,-29.125
20,20,1727988823105,-0.3935547,-0.6748047,0.6533203,-1.40625,-20.53125,-25.71875
21,21,1727988823145,-0.33203125,-0.7373047,0.67871094,5.46875,-33.21875,-30.90625
22,22,1727988823185,-0.3076172,-0.7246094,0.6972656,9.75,-24.6875,-23.75
23,23,1727988823225,-0.34375,-0.67285156,0.6357422,3.59375,-13.3125,-17.40625
24,24,1727988823265,-0.3701172,-0.7363281,0.6513672,-8.6875,-9.84375,-17.59375
25,25,1727988823305,-0.30566406,-0.7294922,0.6201172,-12.96875,-7.15625,-9.40625
26,26,1727988823345,-0.1875,-0.76953125,0.7080078,-25.34375,-0.1875,-4.09375
27,27,1727988823385,-0.2421875,-0.74609375,0.66503906,6.28125,-1.78125,-11.78125
28,28,1727988823425,-0.083984375,-0.6826172,0.5839844,5.28125,-1.90625,-10.34375
29,29,1727988823465,-0.115234375,-0.64453125,0.64160156,-6.4375,6.28125,-3.96875
30,30,1727988823505,-0.265625,-0.7919922,0.57714844,4.625,-1.125,2.125
31,31,1727988823545,-0.20507812,-0.74609375,0.60546875,-13.5,6.21875,0.84375
32,32,1727988823585,-0.29101562,-0.7109375,0.68847656,-2.9375,9.09375,3.40625
33,33,1727988823625,-0.2890625,-0.6904297,0.58984375,8.03125,3.34375,4.5625
34,34,1727988823665,-0.34179688,-0.69433594,0.6826172,-13.125,16.03125,4.375
35,35,1727988823705,-0.32421875,-0.7363281,0.61621094,7.8125,2.1875,-0.25
36,36,1727988823745,-0.26757812,-0.6748047,0.6376953,-2.59375,4.25,2.0
37,37,1727988823785,-0.29003906,-0.69140625,0.64453125,8.90625,0.0,5.53125
38,38,1727988823825,-0.28515625,-0.65234375,0.6513672,6.21875,-0.5625,9.8125
39,39,1727988823865,-0.26660156,-0.6972656,0.69628906,7.0625,-2.21875,11.8125
40,40,1727988823905,-0.2421875,-0.6982422,0.6123047,10.65625,-4.90625,16.40625
41,41,1727988823945,-0.171875,-0.6357422,0.5888672,19.40625,-5.6875,28.375
42,42,1727988823985,-0.23925781,-0.7597656,0.68359375,21.21875,-12.84375,37.34375
43,43,1727988824025,-0.67089844,-1.2294922,0.9472656,-9.0625,-29.9375,23.25
44,44,1727988824065,0.0546875,-0.35742188,0.609375,-7.53125,55.21875,56.75
45,45,1727988824105,-0.5527344,-0.88378906,1.2324219,-142.59375,81.59375,35.6875
46,46,1727988824145,-0.5175781,-0.78515625,0.65625,7.5,51.1875,57.65625
47,47,1727988824185,-0.6611328,-0.65234375,0.63378906,26.28125,63.15625,65.90625
48,48,1727988824225,-0.83203125,-0.6738281,0.6386719,16.21875,66.03125,75.0625
49,49,1727988824265,-0.7285156,-0.5546875,0.5966797,25.5,66.5,81.65625
50,50,1727988824305,-0.75683594,-0.4892578,0.5126953,7.25,79.625,89.84375
51,51,1727988824345,-0.85839844,-0.47070312,0.4501953,-8.6875,84.09375,95.75
52,52,1727988824385,-0.9003906,-0.40625,0.3720703,-2.34375,86.46875,106.5625
53,53,1727988824425,-0.91796875,-0.2607422,0.27148438,1.09375,92.75,115.65625
54,54,1727988824465,-0.8955078,-0.14257812,0.25683594,0.15625,98.0625,113.4375
55,55,1727988824505,-0.7519531,-0.005859375,0.23242188,-11.90625,120.21875,111.125
56,56,1727988824545,-0.7080078,0.0703125,0.46191406,6.5625,80.1875,107.78125
57,57,1727988824585,-0.6738281,-0.23632812,0.4326172,-95.71875,67.84375,73.65625
58,58,1727988824625,-0.47070312,-0.0009765625,0.14941406,-2.6875,14.03125,26.84375
59,59,1727988824665,-0.5419922,0.27734375,0.12988281,-107.5,-28.875,12.5
60,60,1727988824705,-0.77734375,0.2109375,0.14257812,-95.46875,-15.59375,12.1875
61,61,1727988824745,-1.0439453,0.07324219,0.06933594,-97.625,-29.3125,13.0
62,62,1727988824785,-1.2705078,-0.11230469,0.17089844,-90.15625,-14.96875,9.5625
63,63,1727988824825,-0.8027344,-0.3642578,0.11621094,-157.1875,14.3125,11.8125
64,64,1727988824865,-0.8408203,-0.19628906,0.43847656,-196.0,46.1875,-8.1875
65,65,1727988824905,-1.0,0.24023438,-0.18457031,-92.59375,134.25,-15.875
66,66,1727988824945,-0.7753906,0.35058594,-0.12109375,-131.84375,60.71875,-18.3125
67,67,1727988824985,-1.3154297,-0.13769531,0.53515625,-135.03125,-38.53125,-17.96875
68,68,1727988825025,-1.1015625,0.24609375,-0.4453125,-133.1875,62.84375,-22.59375
69,69,1727988825065,-1.3974609,0.24511719,-0.5683594,-173.59375,-4.71875,-4.59375
70,70,1727988825105,-2.0,-0.48828125,-0.53222656,-252.40625,15.65625,41.125
71,71,1727988825145,-1.3496094,-0.9433594,-0.28515625,-34.875,30.75,91.0625
72,72,1727988825185,-0.9628906,-0.8408203,0.22070312,-289.125,54.71875,32.53125
73,73,1727988825225,-0.42773438,-0.44433594,0.16503906,-413.28125,-64.34375,-37.5625
74,74,1727988825265,0.1796875,-0.18261719,0.2783203,-426.21875,-125.4375,-27.65625
75,75,1727988825305,-0.08886719,-0.07421875,0.020507812,-206.5,-102.1875,-106.8125
76,76,1727988825345,-0.6152344,0.14746094,-0.3095703,-144.1875,-32.71875,-111.46875
77,77,1727988825385,-1.6210938,0.1640625,-0.30859375,-231.78125,-24.84375,-79.0625
78,78,1727988825425,-2.0,-0.40234375,0.7392578,-449.71875,-102.90625,-4.78125
79,79,1727988825465,-1.3046875,-0.7675781,0.10449219,-48.84375,-47.0,81.46875
80,80,1727988825505,-1.2080078,0.057617188,0.14453125,-152.84375,0.78125,103.25
81,81,1727988825545,-0.6767578,0.22753906,0.07421875,-195.28125,45.03125,100.8125
82,82,1727988825585,-0.32128906,-0.0859375,-0.6123047,-9.84375,32.9375,71.21875
83,83,1727988825625,0.1953125,-0.14453125,-0.48242188,111.0,137.0,100.5625
84,84,1727988825665,0.22753906,-0.2841797,-0.18652344,95.625,8.71875,101.375
85,85,1727988825705,-0.2763672,-0.1015625,0.39746094,16.15625,-55.4375,48.3125
86,86,1727988825745,-2.0,0.001953125,0.19921875,-830.71875,-163.46875,110.40625
87,87,1727988825785,-1.3945312,-0.055664062,0.71777344,-850.71875,7.84375,-27.59375
88,88,1727988825825,-2.0,-0.07421875,-0.12890625,71.03125,-100.125,19.21875
89,89,1727988825865,-1.9638672,0.39648438,-0.33691406,41.4375,-39.1875,81.96875
90,90,1727988825905,-1.2421875,0.52734375,-0.29003906,-4.96875,-44.4375,110.8125
91,91,1727988825945,-0.3076172,0.4482422,-0.23730469,-177.3125,81.59375,97.53125
92,92,1727988825985,0.24511719,-0.0234375,-0.5673828,-363.0625,29.90625,70.1875
93,93,1727988826025,0.30273438,-0.6767578,-0.7060547,-197.84375,197.625,-75.15625
94,94,1727988826065,0.12011719,-1.1503906,-0.43945312,-69.59375,-78.03125,-211.5625
95,95,1727988826105,-1.3896484,0.15039062,0.8535156,-258.25,-158.09375,56.875
96,96,1727988826145,-2.0,0.27539062,1.1533203,-582.34375,187.4375,-14.34375
97,97,1727988826185,-1.8916016,-0.11035156,0.18164062,36.4375,-71.96875,44.34375
98,98,1727988826225,-2.0,0.051757812,0.4580078,-56.96875,21.90625,89.15625
99,99,1727988826265,-1.09375,0.08300781,-0.017578125,18.40625,5.78125,90.125
100,100,1727988826305,-1.3408203,0.2705078,0.07910156,-136.71875,-2.28125,75.375
101,101,1727988826345,-0.64941406,0.1484375,-0.049804688,-165.0,71.625,94.90625
102,102,1727988826385,-0.030273438,-0.018554688,-0.11230469,-194.34375,35.09375,115.15625
103,103,1727988826425,0.2626953,-0.2578125,-0.28222656,81.65625,54.6875,172.15625
104,104,1727988826465,0.1328125,-0.8183594,0.11621094,-47.75,-83.9375,109.46875
105,105,1727988826505,-1.1523438,-0.7011719,0.2265625,-257.65625,93.5625,-163.84375
106,106,1727988826545,-1.7294922,0.26953125,0.055664062,-401.875,7.0625,-235.0625
107,107,1727988826585,-1.6083984,0.12011719,0.0107421875,-205.59375,61.09375,-5.375
108,108,1727988826625,-2.0,-0.59375,0.203125,-99.3125,-67.59375,-89.5
109,109,1727988826665,-1.4560547,0.95410156,0.17871094,-82.59375,19.75,13.28125
110,110,1727988826705,-1.9355469,0.6279297,-0.21875,-7.15625,3.03125,98.25
111,111,1727988826745,-2.0,0.64160156,-0.049804688,20.75,24.09375,139.09375
112,112,1727988826785,-1.0957031,0.37695312,0.2705078,27.8125,17.3125,149.65625
113,113,1727988826825,-0.43652344,-0.34472656,0.1484375,-54.9375,68.40625,105.5625
114,114,1727988826865,-0.20996094,-1.2128906,-0.6044922,58.15625,111.75,-64.78125
115,115,1727988826905,0.30859375,-1.1699219,0.15136719,-282.84375,-214.375,-333.21875
116,116,1727988826945,0.23339844,0.25195312,1.1601562,-250.6875,77.0,-166.65625
117,117,1727988826985,-0.3017578,0.41992188,-0.16699219,-33.40625,-83.75,-66.40625
118,118,1727988827025,-1.15625,-0.16015625,0.56933594,-176.40625,-170.71875,-200.03125
119,119,1727988827065,-2.0,-0.033203125,0.609375,-89.6875,-63.8125,95.9375
120,120,1727988827105,-1.6289062,-0.29589844,0.9511719,-59.03125,-32.78125,-38.21875
121,121,1727988827145,-2.0,-0.6982422,0.6904297,-115.625,-1.90625,35.875
122,122,1727988827185,-1.3583984,-0.38867188,0.29296875,-36.34375,5.96875,87.5625
123,123,1727988827225,-0.9042969,0.18066406,0.16113281,37.53125,17.875,108.9375
124,124,1727988827265,-0.8457031,0.18261719,0.025390625,19.40625,63.71875,91.90625
125,125,1727988827305,-0.3232422,-0.07421875,-0.12207031,24.21875,114.5,105.40625
126,126,1727988827345,0.19726562,-0.16113281,-0.13671875,111.5,162.15625,113.875
127,127,1727988827385,0.25195312,-0.24902344,0.08105469,77.1875,151.0,212.8125
128,128,1727988827425,0.37890625,-0.4716797,0.4560547,-100.96875,14.6875,81.90625
129,129,1727988827465,-0.19238281,0.0029296875,0.18066406,-255.375,202.0,-120.1875
130,130,1727988827505,-1.7216797,-0.9765625,-0.03125,18.28125,-232.25,-350.59375
131,131,1727988827545,-2.0,1.5966797,0.19335938,-181.34375,225.5625,168.5625
132,132,1727988827585,-1.5068359,0.9404297,0.31347656,22.09375,-61.0625,14.09375
133,133,1727988827625,-1.8300781,0.12695312,-0.2890625,-14.90625,-19.0625,26.96875
134,134,1727988827665,-1.1728516,0.5908203,0.0107421875,-37.5625,27.21875,54.5625
135,135,1727988827705,-1.3144531,0.38085938,-0.22851562,86.15625,-38.34375,91.28125
136,136,1727988827745,-1.0419922,0.19726562,-0.17773438,86.15625,-11.0625,90.125
137,137,1727988827785,-0.640625,0.115234375,0.123046875,9.5,54.5625,78.46875
138,138,1727988827825,-0.734375,-0.12988281,0.5136719,-95.78125,35.8125,7.375
139,139,1727988827865,-0.6503906,-0.0625,0.17089844,-115.5,-17.90625,-46.46875
140,140,1727988827905,-0.38378906,0.17871094,-0.047851562,-145.21875,-20.09375,-87.46875
141,141,1727988827945,-0.8417969,0.58203125,0.16601562,-236.09375,92.28125,-107.5
142,142,1727988827985,-2.0,1.3564453,-0.030273438,76.28125,-57.6875,-18.21875
143,143,1727988828025,-0.7714844,0.4951172,-0.10449219,131.625,-52.375,-18.03125
144,144,1727988828065,-0.36523438,0.4033203,-0.14648438,194.3125,-0.9375,-4.65625
145,145,1727988828105,-0.21484375,0.4658203,-0.060546875,-108.09375,91.90625,-16.75
146,146,1727988828145,-0.15820312,-0.17578125,0.61035156,-101.03125,202.375,-7.71875
147,147,1727988828185,-0.73828125,-0.3330078,0.23242188,177.09375,-52.3125,-38.03125
148,148,1727988828225,-1.0068359,0.6328125,-0.08984375,-4.28125,7.96875,-23.5
149,149,1727988828265,-0.8808594,0.68359375,-0.029296875,-14.96875,-97.1875,-53.84375
150,150,1727988828305,-0.74316406,-0.1953125,-0.13574219,3.03125,76.21875,-114.46875
151,151,1727988828345,-1.1865234,0.08886719,0.032226562,-22.28125,-19.53125,-106.875
152,152,1727988828385,-0.74609375,0.08300781,-0.13964844,8.40625,-16.5,-100.84375
153,153,1727988828425,-1.046875,-0.0859375,-0.11425781,-9.59375,-10.28125,-122.625
154,154,1727988828465,-0.9091797,-0.09667969,-0.109375,7.0625,-29.6875,-111.53125
155,155,1727988828505,-1.0029297,-0.20507812,0.03125,-24.84375,11.65625,-125.875
156,156,1727988828545,-1.1542969,-0.17089844,0.025390625,-8.875,-17.90625,-121.0625
157,157,1727988828585,-1.1621094,-0.41992188,-0.018554688,-1.25,-14.71875,-128.3125
158,158,1727988828625,-0.98046875,-0.4951172,0.07910156,0.65625,-33.875,-114.09375
159,159,1727988828665,-0.90625,-0.55078125,0.09765625,-11.5625,-13.125,-117.375
160,160,1727988828705,-0.953125,-0.7919922,0.13769531,-26.375,-30.15625,-121.90625
161,161,1727988828745,-0.94628906,-0.6748047,0.028320312,-21.0625,-26.125,-108.40625
162,162,1727988828785,-0.6777344,-0.6435547,0.20898438,-20.21875,-31.625,-112.375
163,163,1727988828825,-0.6699219,-0.8935547,0.11328125,-32.5625,-24.96875,-117.75
164,164,1727988828865,-0.81152344,-0.9091797,-0.01953125,-17.21875,-38.46875,-118.71875
165,165,1727988828905,-0.54296875,-0.9013672,0.03125,-18.09375,-35.78125,-126.1875
166,166,1727988828945,-0.60253906,-0.89160156,0.10546875,-26.375,-24.90625,-121.96875
167,167,1727988828985,-0.70214844,-1.1035156,0.053710938,-27.3125,-28.15625,-123.625
168,168,1727988829025,-0.53515625,-0.8486328,0.20605469,-31.375,-23.6875,-116.46875
169,169,1727988829065,-0.62402344,-0.7675781,0.20117188,-29.125,-39.5,-120.4375
170,170,1727988829105,-0.45410156,-0.88183594,0.12011719,-30.53125,-39.6875,-104.8125
171,171,1727988829145,-0.15039062,-0.6220703,-0.0625,-31.3125,-42.5,-83.09375
172,172,1727988829185,0.37402344,-0.5097656,-0.13574219,-23.34375,-22.65625,-40.46875
173,173,1727988829225,0.091796875,-1.5498047,-0.5390625,123.34375,-12.90625,-125.1875
174,174,1727988829265,1.8720703,-2.0,-0.2421875,-191.84375,40.21875,37.65625
175,175,1727988829305,0.24609375,-0.5332031,-0.18261719,7.5625,-1.1875,25.75
176,176,1727988829345,0.32421875,-0.53027344,-0.4013672,57.71875,-90.65625,85.75
177,177,1727988829385,0.013671875,-0.7285156,-0.22558594,10.40625,-83.15625,29.03125
178,178,1727988829425,-0.41210938,-1.5996094,-0.15332031,-32.5625,-17.53125,11.40625
179,179,1727988829465,-0.049804688,-1.0830078,0.24609375,-104.875,151.71875,88.65625
180,180,1727988829505,-0.29101562,-1.359375,-0.13671875,-104.09375,62.5,71.34375
181,181,1727988829545,-0.21191406,-1.0966797,0.0146484375,34.09375,109.125,45.46875
182,182,1727988829585,-0.20410156,-1.1806641,-0.16601562,11.9375,67.84375,48.15625
183,183,1727988829625,-0.1015625,-0.8642578,-0.037109375,-1.53125,49.0,24.21875
184,184,1727988829665,-0.11621094,-1.0888672,-0.22363281,-52.5,12.6875,15.625
185,185,1727988829705,-0.052734375,-0.8964844,-0.064453125,-59.15625,14.8125,9.25
186,186,1727988829745,0.087890625,-0.8876953,-0.20214844,-16.25,19.28125,13.28125
187,187,1727988829785,-0.09863281,-1.0957031,-0.23632812,15.0,5.46875,63.8125
188,188,1727988829825,-0.2919922,-1.1396484,-0.13378906,-15.15625,16.9375,49.53125
189,189,1727988829865,-0.0546875,-0.9140625,-0.17773438,21.15625,-7.71875,33.8125
190,190,1727988829905,-0.40722656,-1.0351562,-0.31445312,1.375,-11.125,86.53125
191,191,1727988829945,-0.45996094,-1.0654297,-0.20019531,67.1875,-26.1875,84.8125
192,192,1727988829985,-0.21875,-0.8408203,-0.16699219,80.5625,26.03125,47.53125
193,193,1727988830025,-0.43945312,-1.2421875,-0.028320312,26.21875,-10.21875,74.3125
194,194,1727988830065,-0.5341797,-0.92089844,-0.10644531,67.5,-40.84375,62.125
195,195,1727988830105,-0.49609375,-1.0439453,0.032226562,67.5625,-21.0,57.96875
196,196,1727988830145,-0.58691406,-0.8857422,0.18261719,53.75,-7.875,40.375
197,197,1727988830185,-0.6953125,-0.7939453,0.1015625,43.8125,-36.8125,28.5
198,198,1727988830225,-0.52441406,-0.7089844,0.12597656,16.59375,-4.78125,21.59375
199,199,1727988830265,-0.4814453,-0.68359375,0.18066406,19.8125,-2.40625,17.625
200,200,1727988830305,-0.53515625,-0.71875,0.15332031,12.9375,-14.1875,8.34375
201,201,1727988830345,-0.61621094,-0.7441406,0.19042969,-1.71875,6.875,7.5625
202,202,1727988830385,-0.65625,-0.9824219,0.22363281,-10.28125,2.59375,7.125
203,203,1727988830425,-0.5078125,-0.8359375,0.21484375,-4.40625,-6.90625,-2.875
204,204,1727988830465,-0.48339844,-0.796875,0.17773438,-5.4375,-1.40625,-3.625
205,205,1727988830505,-0.51171875,-0.77441406,0.17382812,-5.625,1.3125,-0.9375
206,206,1727988830545,-0.5595703,-0.8154297,0.14550781,-7.15625,4.1875,0.46875
207,207,1727988830585,-0.6142578,-0.8486328,0.16308594,-8.9375,4.75,-0.625
208,208,1727988830625,-0.6123047,-0.81347656,0.13671875,-9.53125,3.28125,-5.15625
209,209,1727988830665,-0.5498047,-0.78808594,0.12792969,-8.625,4.625,-4.34375
210,210,1727988830705,-0.609375,-0.81152344,0.13769531,-4.34375,9.5,-4.21875
211,211,1727988830745,-0.55078125,-0.81347656,0.15039062,-7.8125,9.1875,-9.0
212,212,1727988830785,-0.63964844,-0.8535156,0.12207031,-9.0,9.3125,-13.0625
213,213,1727988830825,-0.5546875,-0.89453125,0.13867188,-18.25,14.28125,-24.6875
214,214,1727988830865,-0.5957031,-0.9033203,0.03515625,-12.15625,-2.6875,-23.8125
215,215,1727988830905,-0.4453125,-0.9472656,0.15917969,-9.46875,24.15625,-37.4375
216,216,1727988830945,-0.4765625,-0.85253906,0.06347656,-17.96875,30.5,-63.6875
217,217,1727988830985,-0.48242188,-1.0712891,-0.049804688,-9.96875,24.09375,-50.375
218,218,1727988831025,-0.40039062,-1.0556641,0.030273438,-58.0,25.5,-64.59375
219,219,1727988831065,-0.32128906,-1.1376953,0.07421875,-116.53125,-12.59375,-94.125
220,220,1727988831105,-0.3779297,-0.8046875,-0.061523438,20.125,-34.5625,-76.6875
221,221,1727988831145,-0.3125,-0.9111328,-0.16992188,25.625,-12.53125,-60.5
222,222,1727988831185,-0.21777344,-0.80371094,-0.060546875,-47.25,15.65625,-51.84375
223,223,1727988831225,-0.25878906,-1.0283203,-0.08691406,-23.4375,2.84375,-47.75
224,224,1727988831265,-0.11425781,-0.93359375,-0.0048828125,-16.9375,-9.96875,-44.15625
225,225,1727988831305,-0.25976562,-1.1113281,-0.09667969,26.46875,-40.0625,-32.375
226,226,1727988831345,-0.08203125,-1.0009766,-0.03125,20.625,-39.625,-56.53125
227,227,1727988831385,-0.0390625,-0.94921875,-0.03515625,51.375,-27.0,-49.5
228,228,1727988831425,-0.12792969,-1.1464844,0.015625,-5.25,-37.96875,-55.6875
229,229,1727988831465,-0.021484375,-0.9013672,0.0,2.4375,-3.4375,-78.375
230,230,1727988831505,0.0,-1.1230469,0.018554688,-15.09375,18.21875,-54.09375
231,231,1727988831545,-0.0068359375,-1.0175781,-0.01171875,2.3125,7.5,-71.25
232,232,1727988831585,0.10058594,-0.7919922,0.001953125,-6.3125,31.40625,-64.65625
233,233,1727988831625,0.18847656,-0.9248047,-0.21777344,-31.3125,23.25,-61.53125
234,234,1727988831665,0.2763672,-1.03125,0.0048828125,-17.84375,-9.65625,-58.0625
235,235,1727988831705,0.32617188,-0.8925781,-0.06640625,-27.34375,-4.78125,-31.8125
236,236,1727988831745,0.33203125,-0.9658203,-0.2109375,-1.0,-9.71875,-27.96875
237,237,1727988831785,0.40429688,-1.0332031,-0.13378906,10.40625,-12.53125,-33.21875
238,238,1727988831825,0.359375,-0.86816406,-0.09082031,-36.46875,3.9375,-19.84375
239,239,1727988831865,0.38183594,-0.9560547,-0.123046875,-3.5,-0.9375,0.0
240,240,1727988831905,0.234375,-0.9638672,-0.052734375,-28.9375,5.28125,11.71875
241,241,1727988831945,0.23730469,-0.94433594,-0.021484375,-17.40625,20.96875,21.21875
242,242,1727988831985,0.234375,-1.0400391,-0.0546875,-17.71875,49.65625,18.96875
243,243,1727988832025,0.08886719,-1.0458984,-0.21582031,-5.15625,68.53125,17.875
244,244,1727988832065,0.33203125,-0.9736328,-0.1796875,-29.4375,65.15625,11.03125
245,245,1727988832105,0.3203125,-0.9863281,-0.020507812,-35.28125,24.21875,32.9375
246,246,1727988832145,0.2529297,-1.4765625,-0.16601562,-9.21875,23.78125,23.46875
247,247,1727988832185,0.53125,-1.1992188,-0.056640625,-21.3125,38.875,9.25
248,248,1727988832225,0.8574219,-0.95214844,-0.32128906,17.0,33.375,-7.78125
249,249,1727988832265,0.3388672,-1.0664062,-0.31445312,24.15625,38.5,19.03125
250,250,1727988832305,0.203125,-0.9091797,-0.26171875,41.0625,11.8125,55.59375
251,251,1727988832345,0.21875,-0.7626953,-0.31640625,10.59375,41.96875,66.40625
252,252,1727988832385,-0.0146484375,-0.77441406,-0.22363281,19.75,39.09375,69.1875
253,253,1727988832425,-0.064453125,-0.9794922,-0.19042969,-1.0625,74.375,52.15625
254,254,1727988832465,0.037109375,-0.8769531,-0.056640625,15.84375,38.0,41.5625
255,255,1727988832505,-0.06542969,-0.69140625,-0.1484375,3.21875,61.1875,40.5
256,256,1727988832545,0.064453125,-0.8857422,-0.064453125,1.75,32.9375,18.90625
257,257,1727988832585,-0.056640625,-1.0126953,-0.072265625,-1.65625,14.8125,11.15625
258,258,1727988832625,-0.3857422,-1.2597656,-0.026367188,-8.5625,20.90625,32.53125
259,259,1727988832665,-0.6201172,-1.4082031,-0.16699219,-33.71875,35.15625,102.9375
260,260,1727988832705,-0.8652344,-1.6582031,-0.036132812,-28.03125,13.59375,127.71875
261,261,1727988832745,-0.69140625,-1.5419922,-0.064453125,-27.90625,1.375,179.84375
262,262,1727988832785,-0.5332031,-1.5410156,-0.07324219,-35.125,12.4375,196.59375
263,263,1727988832825,-0.45117188,-1.2490234,-0.08203125,-22.125,-6.4375,188.53125
264,264,1727988832865,-0.3720703,-0.76464844,-0.12890625,-61.96875,13.34375,174.78125
265,265,1727988832905,-0.6269531,-0.75878906,-0.11816406,-59.78125,7.1875,147.09375
266,266,1727988832945,-0.63378906,-0.7919922,-0.19335938,-50.1875,6.875,125.90625
267,267,1727988832985,-0.7988281,-0.7919922,-0.20898438,-62.15625,11.34375,137.0625
268,268,1727988833025,-1.0625,-0.67285156,-0.22363281,-42.0,-0.5625,186.75
269,269,1727988833065,-1.1171875,-0.4921875,-0.2109375,-9.125,-16.375,205.84375
270,270,1727988833105,-1.0058594,-0.31933594,-0.20117188,25.625,-14.0625,157.75
271,271,1727988833145,-0.92871094,-0.17480469,-0.25878906,52.15625,-42.0,155.9375
272,272,1727988833185,-0.75878906,-0.08691406,-0.39746094,76.09375,-130.75,172.53125
273,273,1727988833225,-0.6464844,-0.45117188,-0.53808594,210.5625,-123.4375,128.65625
274,274,1727988833265,-0.34179688,-0.34960938,-0.36816406,242.59375,-73.8125,137.125
275,275,1727988833305,-0.48339844,-0.265625,-0.21582031,271.71875,-90.96875,98.8125
276,276,1727988833345,-0.80078125,0.29785156,-0.3564453,330.96875,-171.78125,68.59375
277,277,1727988833385,-0.8183594,0.33691406,-0.50097656,310.03125,-293.65625,112.53125
278,278,1727988833425,-0.43945312,0.19335938,-0.421875,279.59375,-164.25,36.3125
279,279,1727988833465,-0.67089844,-0.0029296875,-0.59765625,234.65625,-125.4375,-3.5625
280,280,1727988833505,-0.92285156,-0.052734375,-0.3623047,179.84375,-144.53125,-20.28125
281,281,1727988833545,-0.8095703,0.1875,-0.328125,183.59375,-185.125,5.21875
282,282,1727988833585,-0.98535156,0.37304688,-0.3515625,131.09375,-220.65625,-28.28125
283,283,1727988833625,-1.2578125,0.41503906,-0.296875,122.375,-136.3125,-106.53125
284,284,1727988833665,-0.8964844,0.3046875,-0.095703125,21.53125,-56.65625,-140.28125
285,285,1727988833705,-1.1708984,0.68847656,-0.16601562,86.34375,-55.0,-51.53125
286,286,1727988833745,-1.9003906,1.3613281,-0.078125,244.6875,-246.0625,-13.03125
287,287,1727988833785,-0.84472656,0.99316406,0.056640625,250.96875,-116.53125,-95.34375
288,288,1727988833825,-0.39257812,0.79785156,0.05078125,234.125,-112.625,-76.1875
289,289,1727988833865,-0.36523438,0.359375,0.26367188,299.3125,-52.6875,-67.53125
290,290,1727988833905,-0.013671875,0.16308594,0.19335938,361.625,61.5625,-27.96875
291,291,1727988833945,-0.18554688,0.8828125,0.6376953,173.1875,-103.21875,73.90625
292,292,1727988833985,-1.3554688,1.0078125,-0.484375,135.46875,-274.84375,-43.53125
293,293,1727988834025,-2.0,1.0703125,-0.46484375,262.4375,-237.6875,8.71875
294,294,1727988834065,-1.2353516,0.30566406,-0.17285156,237.90625,2.5,16.28125
295,295,1727988834105,-1.2480469,0.5595703,-0.19335938,145.75,-93.15625,33.90625
296,296,1727988834145,-0.95214844,-0.08984375,-0.20019531,205.71875,-207.0,8.21875
297,297,1727988834185,-0.59277344,-0.20800781,-0.31835938,332.8125,-110.1875,-30.84375
298,298,1727988834225,-0.29003906,0.080078125,-0.24707031,30.875,-54.9375,-57.03125
299,299,1727988834265,-0.46679688,-0.07421875,-0.18554688,95.1875,-310.375,-99.0
300,300,1727988834305,-0.9980469,0.20507812,-0.55566406,163.25,-302.375,-107.1875
301,301,1727988834345,-2.0,1.1748047,-0.71484375,33.25,-338.75,-163.03125
302,302,1727988834385,-1.7109375,1.6152344,-0.16699219,149.03125,66.34375,-88.46875
303,303,1727988834425,-0.88183594,1.203125,-0.1796875,212.8125,13.0,-55.25
304,304,1727988834465,-0.6279297,0.9238281,-0.3173828,221.34375,-99.125,1.15625
305,305,1727988834505,-0.23632812,0.45507812,-0.39453125,278.25,-39.125,35.75
306,306,1727988834545,-0.0146484375,0.111328125,-0.14453125,383.21875,-62.15625,116.9375
307,307,1727988834585,-1.0166016,-0.18554688,2.0,357.15625,-34.0,165.09375
308,308,1727988834625,-0.016601562,0.123046875,-0.2734375,412.03125,-292.4375,68.59375
309,309,1727988834665,-1.2675781,0.90234375,-0.6972656,8.78125,-257.875,2.84375
310,310,1727988834705,-2.0,1.9785156,-0.76171875,175.46875,-80.59375,39.21875
311,311,1727988834745,-1.8896484,0.6123047,-0.24804688,95.375,20.0,31.90625
312,312,1727988834785,-1.2880859,0.21289062,-0.1171875,17.8125,-7.875,54.375
313,313,1727988834825,-0.82714844,0.42773438,-0.23632812,256.8125,-219.5,38.5
314,314,1727988834865,-0.6015625,0.1015625,-0.38671875,245.53125,-214.96875,4.9375
315,315,1727988834905,-0.3095703,-0.3671875,-0.3671875,293.5,-213.15625,-45.25
316,316,1727988834945,-0.19140625,-0.72558594,-0.4248047,272.375,-288.21875,-79.90625
317,317,1727988834985,-0.68066406,-0.28808594,-0.35351562,144.75,-236.34375,8.71875
318,318,1727988835025,-1.9228516,1.1083984,-0.5410156,-38.84375,-241.15625,-154.5
319,319,1727988835065,-2.0,2.0,-0.4970703,143.65625,167.03125,-88.9375
320,320,1727988835105,-0.79785156,1.6542969,-0.23730469,170.34375,185.71875,-60.0625
321,321,1727988835145,-0.6464844,0.8886719,-0.115234375,157.15625,-182.4375,25.9375
322,322,1727988835185,-0.32421875,0.3203125,0.041992188,155.75,-147.46875,42.90625
323,323,1727988835225,0.14453125,-0.31640625,0.3310547,120.78125,-68.1875,46.875
324,324,1727988835265,0.037109375,-0.42285156,-0.021484375,112.15625,-114.40625,27.03125
325,325,1727988835305,-0.3671875,-0.5185547,-0.4638672,201.34375,-140.09375,-50.96875
326,326,1727988835345,-1.1328125,0.3466797,-0.52441406,207.25,-203.6875,-43.09375
327,327,1727988835385,-2.0,1.7011719,-0.79296875,269.03125,-297.0625,33.3125
328,328,1727988835425,-1.6328125,0.65234375,-0.6611328,229.28125,-194.46875,13.84375
329,329,1727988835465,-1.3261719,0.82714844,-0.48632812,209.03125,-179.28125,29.65625
330,330,1727988835505,-1.0332031,0.41015625,-0.46679688,175.59375,-117.1875,-11.78125
331,331,1727988835545,-0.84277344,-0.024414062,-0.32617188,158.8125,-85.9375,-75.28125
332,332,1727988835585,-0.7080078,-0.20410156,-0.14648438,-319.90625,35.15625,-154.0
333,333,1727988835625,-0.22167969,-0.029296875,-0.3203125,167.09375,-111.15625,-82.21875
334,334,1727988835665,-0.6640625,0.21484375,-0.53222656,273.59375,-282.3125,-85.53125
335,335,1727988835705,-1.4482422,1.0498047,-0.4951172,281.65625,-190.125,-74.90625
336,336,1727988835745,-1.171875,1.4482422,-0.25195312,413.6875,31.90625,-14.0
337,337,1727988835785,-0.60058594,1.5810547,0.43652344,135.53125,45.875,-28.9375
338,338,1727988835825,-0.92285156,0.984375,0.43359375,82.6875,-0.9375,13.71875
339,339,1727988835865,-0.9423828,0.69140625,-0.0029296875,59.125,-6.78125,13.40625
340,340,1727988835905,-0.55859375,0.33203125,-0.21191406,-5.5,-35.0625,9.9375
341,341,1727988835945,-0.2861328,-0.43847656,-0.21191406,59.0,-64.84375,-26.8125
342,342,1727988835985,-0.23828125,-0.56640625,-0.14453125,225.3125,-161.28125,-46.78125
343,343,1727988836025,0.18847656,-0.32714844,0.3955078,-16.25,-19.84375,-74.90625
344,344,1727988836065,-0.111328125,0.9394531,0.61035156,24.34375,60.78125,-190.5625
345,345,1727988836105,-2.0,1.6035156,0.5439453,-359.9375,312.71875,-271.0625
346,346,1727988836145,-0.49609375,1.4033203,0.36523438,-22.40625,-18.21875,-34.75
347,347,1727988836185,-1.9521484,0.022460938,0.041015625,-38.90625,44.53125,-10.8125
348,348,1727988836225,-2.0,0.47851562,0.059570312,39.84375,-30.09375,28.0
349,349,1727988836265,-1.3808594,0.9111328,-0.13183594,96.71875,-68.25,83.1875
350,350,1727988836305,-1.4472656,0.7763672,-0.033203125,98.875,-18.4375,124.625
351,351,1727988836345,-1.15625,0.053710938,0.44628906,72.90625,-50.3125,90.6875
352,352,1727988836385,-0.6220703,-0.0068359375,-0.14648438,61.15625,-58.0,21.28125
353,353,1727988836425,0.040039062,-0.34765625,-0.12597656,169.125,-8.9375,19.875
354,354,1727988836465,0.23535156,-0.46972656,-0.10546875,128.71875,24.65625,-26.9375
355,355,1727988836505,0.18066406,-0.14160156,-0.072265625,-70.03125,-66.84375,-43.90625
356,356,1727988836545,-0.06347656,0.12792969,-0.115234375,-25.46875,-54.46875,-64.03125
357,357,1727988836585,-0.6357422,0.24707031,1.3242188,-109.5625,-260.9375,-142.90625
358,358,1727988836625,-2.0,1.6474609,0.828125,68.40625,-27.1875,-87.90625
359,359,1727988836665,-1.0898438,0.52734375,0.9746094,28.5625,-37.78125,-2.625
360,360,1727988836705,-1.8896484,0.9169922,0.83984375,19.21875,2.0,22.125
361,361,1727988836745,-1.1923828,0.7607422,0.6113281,37.28125,37.875,21.71875
362,362,1727988836785,-0.85253906,0.50097656,0.3359375,28.65625,45.40625,36.25
363,363,1727988836825,-0.63671875,0.0703125,0.16015625,60.15625,29.46875,30.75
364,364,1727988836865,-0.32910156,-0.11230469,-0.07324219,92.625,-17.15625,14.5
365,365,1727988836905,0.14355469,-0.111328125,0.03515625,58.46875,-22.78125,-11.0625
366,366,1727988836945,0.23925781,-0.20898438,0.028320312,46.5625,0.53125,-31.4375
367,367,1727988836985,-0.016601562,-0.89746094,1.0947266,-199.59375,25.0625,-93.34375
368,368,1727988837025,-0.99316406,0.23730469,-0.6386719,-68.5,21.46875,-168.40625
369,369,1727988837065,-2.0,0.7451172,-0.099609375,-130.9375,125.71875,-170.1875
370,370,1727988837105,-0.8574219,1.1191406,-0.23730469,11.34375,-7.78125,-15.34375
371,371,1727988837145,-1.5478516,0.032226562,-0.049804688,35.03125,-32.5625,-35.53125
372,372,1727988837185,-1.4228516,0.08691406,0.06640625,40.9375,-38.28125,-12.96875
373,373,1727988837225,-1.484375,0.23632812,0.083984375,74.9375,-55.4375,12.5
374,374,1727988837265,-1.6103516,0.16308594,-0.053710938,104.96875,-66.40625,25.8125
375,375,1727988837305,-1.4990234,0.2578125,-0.24023438,222.9375,-141.0625,69.625
376,376,1727988837345,-1.2841797,0.50390625,-0.4326172,233.4375,-78.5,78.90625
377,377,1727988837385,-0.72265625,0.29882812,0.13183594,95.8125,-40.25,59.875
378,378,1727988837425,-0.67578125,-0.22558594,0.064453125,41.84375,-45.3125,-16.5625
379,379,1727988837465,-0.13085938,-0.12207031,-0.03515625,162.34375,-97.0,-40.53125
380,380,1727988837505,0.068359375,-0.107421875,-0.02734375,171.75,-30.90625,-41.21875
381,381,1727988837545,-0.14257812,-0.036132812,-0.13183594,142.1875,-71.96875,-31.21875
382,382,1727988837585,-1.0996094,0.2626953,-0.171875,124.875,-199.125,-8.4375
383,383,1727988837625,-1.2880859,1.0810547,0.51953125,65.84375,13.15625,-80.34375
384,384,1727988837665,-0.8457031,0.91015625,0.22363281,135.96875,-18.375,-41.09375
385,385,1727988837705,-1.3974609,0.6699219,0.4296875,90.4375,9.03125,-44.625
386,386,1727988837745,-1.4228516,1.0546875,0.42089844,39.21875,76.21875,-59.71875
387,387,1727988837785,-1.1269531,0.9951172,0.048828125,47.34375,57.59375,-40.53125
388,388,1727988837825,-0.7519531,0.7480469,-0.043945312,12.625,81.21875,-27.53125
389,389,1727988837865,-0.5878906,0.2626953,0.017578125,18.65625,85.25,-5.21875
390,390,1727988837905,-0.4873047,-0.22363281,0.14746094,-14.59375,88.65625,2.5625
391,391,1727988837945,-0.2783203,-0.73046875,-0.026367188,97.8125,18.78125,-18.5
392,392,1727988837985,-0.71972656,-0.54296875,0.51953125,30.75,-52.09375,-102.75
393,393,1727988838025,-0.7558594,0.4482422,-0.2578125,-7.46875,-90.71875,-85.46875
394,394,1727988838065,-2.0,2.0,-0.061523438,-44.75,-48.1875,-100.78125
395,395,1727988838105,-1.0292969,0.36523438,-0.2998047,-68.3125,54.90625,8.59375
396,396,1727988838145,-1.4189453,0.3671875,0.01171875,-39.625,6.75,-9.78125
397,397,1727988838185,-1.3125,0.5966797,0.037109375,-7.03125,-17.59375,23.375
398,398,1727988838225,-1.1445312,0.47851562,-0.0107421875,-13.25,-19.53125,40.21875
399,399,1727988838265,-1.0478516,0.421875,0.06738281,-26.1875,-11.96875,58.03125
400,400,1727988838305,-0.9824219,0.31933594,-0.013671875,-18.03125,-19.1875,60.09375
401,401,1727988838345,-0.9433594,0.31445312,-0.06738281,-10.625,-13.8125,52.59375
402,402,1727988838385,-0.85839844,0.5214844,-0.09765625,0.28125,-5.09375,46.5
403,403,1727988838425,-0.77441406,0.5214844,-0.125,-14.71875,8.53125,46.25
404,404,1727988838465,-0.63964844,0.6542969,0.052734375,-43.40625,28.4375,39.46875
405,405,1727988838505,-0.5078125,0.703125,0.020507812,-70.5,40.34375,37.8125
406,406,1727988838545,-0.62890625,0.2998047,0.15429688,-88.46875,57.34375,44.0
407,407,1727988838585,-0.88183594,0.2578125,-0.08691406,-62.75,31.78125,40.34375
408,408,1727988838625,-1.3955078,0.21875,0.28808594,-26.25,67.5,39.09375
409,409,1727988838665,-0.93652344,0.31054688,0.024414062,-37.125,7.5625,22.9375
410,410,1727988838705,-0.53125,0.11816406,0.3076172,-13.125,23.25,0.53125
411,411,1727988838745,-0.60839844,0.70703125,0.3984375,-46.34375,49.3125,-26.3125
412,412,1727988838785,-0.30859375,0.6533203,-0.03515625,-13.125,-8.6875,6.28125
413,413,1727988838825,-0.46972656,0.21484375,0.13769531,-33.21875,-36.03125,7.375
414,414,1727988838865,-0.7597656,0.33398438,0.29882812,-89.90625,48.09375,-30.46875
415,415,1727988838905,-0.9121094,0.16503906,0.29589844,-69.40625,30.4375,-46.59375
416,416,1727988838945,-1.1835938,-0.14453125,-0.08105469,0.46875,19.03125,-67.75
417,417,1727988838985,-1.4824219,0.10546875,0.1796875,-33.875,-26.875,-162.625
418,418,1727988839025,-0.18847656,0.4248047,0.037109375,-25.21875,18.125,-105.3125
419,419,1727988839065,-1.1269531,-0.19335938,0.3359375,-93.75,60.71875,-108.40625
420,420,1727988839105,-0.79296875,-0.5761719,0.13867188,-6.4375,-0.75,4.75
421,421,1727988839145,-0.75878906,-0.5390625,0.12792969,-8.1875,-0.0625,5.34375
422,422,1727988839185,-0.76464844,-0.5908203,0.10644531,-6.375,-4.53125,7.25
423,423,1727988839225,-0.86621094,-0.65527344,0.06542969,1.625,-2.9375,9.8125
424,424,1727988839265,-0.78222656,-0.56152344,0.13574219,8.09375,-8.75,15.3125
425,425,1727988839305,-0.7548828,-0.5761719,0.17089844,5.46875,-2.40625,18.1875
426,426,1727988839345,-0.92871094,-0.6425781,-0.13769531,-8.0,8.84375,22.4375
427,427,1727988839385,-1.0019531,-0.72753906,0.44335938,-40.375,47.53125,34.59375
428,428,1727988839425,-0.96777344,-0.55566406,0.1953125,-26.875,39.84375,57.84375
429,429,1727988839465,-1.1679688,-0.6123047,0.15332031,-30.71875,35.5625,76.21875
430,430,1727988839505,-1.2519531,-0.5263672,0.20605469,-7.21875,7.4375,79.5625
431,431,1727988839545,-1.2636719,-0.43359375,0.19433594,13.09375,-25.34375,98.9375
432,432,1727988839585,-1.0800781,-0.11035156,0.22949219,3.59375,-3.5625,114.71875
433,433,1727988839625,-1.0576172,-0.20996094,0.15527344,-18.3125,18.21875,122.65625
434,434,1727988839665,-1.0537109,-0.12988281,0.16113281,-26.375,21.34375,133.28125
435,435,1727988839705,-1.0927734,-0.038085938,0.13671875,-35.71875,38.5,144.75
436,436,1727988839745,-1.0166016,0.12988281,0.0859375,-32.65625,40.625,152.4375
437,437,1727988839785,-0.95214844,0.19921875,0.06738281,-29.125,44.84375,157.03125
438,438,1727988839825,-0.6953125,0.18359375,-0.10546875,-1.125,57.46875,150.375
439,439,1727988839865,-0.6953125,0.23828125,-0.20214844,20.3125,73.53125,145.0
440,440,1727988839905,-0.7832031,0.20507812,-0.06640625,128.78125,-60.3125,138.15625
441,441,1727988839945,-0.21875,-0.033203125,-0.171875,101.59375,22.75,113.6875
442,442,1727988839985,-0.7246094,0.48339844,-0.1796875,-44.21875,59.875,3.34375
443,443,1727988840025,-1.0634766,0.89941406,-0.14941406,-100.59375,111.75,-28.03125
444,444,1727988840065,-0.6220703,0.5390625,-0.20996094,-174.40625,83.0625,-32.65625
445,445,1727988840105,-0.6660156,0.115234375,-0.16113281,-80.59375,8.40625,-35.28125
446,446,1727988840145,-0.6669922,-0.07128906,0.18847656,-198.8125,12.4375,-92.4375
447,447,1727988840185,-0.3046875,0.35546875,0.58691406,-241.65625,44.90625,-136.78125
448,448,1727988840225,-0.39257812,0.59277344,-0.041015625,-249.90625,92.34375,-116.28125
449,449,1727988840265,-1.6318359,0.7675781,-0.29101562,-139.0625,-38.78125,-99.875
450,450,1727988840305,-2.0,1.5849609,-0.171875,-326.4375,178.5,-84.1875
451,451,1727988840345,-1.3466797,0.49023438,-0.0546875,-130.5,33.8125,0.03125
452,452,1727988840385,-0.8105469,0.47851562,-0.3544922,-2.09375,19.5625,60.15625
453,453,1727988840425,-0.28320312,0.16015625,-0.16601562,-32.78125,18.34375,94.03125
454,454,1727988840465,0.16601562,-0.3232422,-0.1953125,14.21875,150.1875,77.375
455,455,1727988840505,0.29492188,-0.9316406,-0.3046875,86.40625,67.0625,-24.5625
456,456,1727988840545,-0.061523438,0.5527344,0.84277344,-66.46875,-45.3125,-6.1875
457,457,1727988840585,-2.0,0.68847656,-0.67089844,-450.34375,-5.875,2.71875
458,458,1727988840625,-1.5927734,1.2568359,-0.4482422,-369.46875,474.90625,-6.96875
459,459,1727988840665,-1.8212891,1.234375,-0.21289062,-22.34375,-7.34375,13.96875
460,460,1727988840705,-1.4912109,1.4873047,-0.2548828,-123.1875,-19.59375,54.84375
461,461,1727988840745,-1.1230469,1.3320312,-0.107421875,-197.09375,4.0,73.40625
462,462,1727988840785,-0.55859375,0.60839844,-0.55859375,-227.375,94.46875,67.0
463,463,1727988840825,0.25878906,-0.36621094,-0.7988281,-155.40625,119.90625,92.875
464,464,1727988840865,0.024414062,-1.1962891,-0.6689453,-115.0,15.5625,-109.21875
465,465,1727988840905,-0.18457031,-0.9003906,-0.3544922,-199.90625,-40.0625,-93.09375
466,466,1727988840945,-0.359375,0.7783203,1.1455078,-318.375,-48.46875,-23.34375
467,467,1727988840985,-2.0,0.75390625,1.8837891,-815.5,197.0,-196.0
468,468,1727988841025,-1.5244141,0.14941406,0.13183594,-53.25,-40.46875,44.78125
469,469,1727988841065,-0.79003906,0.5917969,0.33398438,-145.34375,119.625,78.21875
470,470,1727988841105,-1.0058594,0.7001953,-0.16113281,-113.78125,62.0625,109.25
471,471,1727988841145,-0.9082031,0.32910156,-0.25390625,-45.3125,134.8125,141.9375
472,472,1727988841185,-0.5683594,0.20605469,-0.16015625,-23.75,115.875,136.34375
473,473,1727988841225,0.05078125,-0.0146484375,-0.12109375,7.8125,110.15625,78.90625
474,474,1727988841265,0.14160156,-0.015625,-0.30664062,-29.1875,245.15625,66.34375
475,475,1727988841305,-0.076171875,-0.140625,-0.6816406,-122.875,30.4375,-18.5625
476,476,1727988841345,-1.1015625,0.28808594,-0.8857422,-540.0,42.21875,-96.15625
477,477,1727988841385,-2.0,0.1953125,-0.7050781,-417.96875,90.25,36.71875
478,478,1727988841425,-1.7275391,-1.0029297,-0.68066406,4.25,366.6875,-54.8125
479,479,1727988841465,-1.7822266,0.22949219,0.0546875,-465.78125,381.875,-174.75
480,480,1727988841505,-1.078125,0.6015625,-0.15917969,-10.875,12.6875,11.59375
481,481,1727988841545,-1.4130859,0.5800781,-0.59765625,13.0,-87.90625,37.21875
482,482,1727988841585,-1.6777344,0.6933594,-0.3876953,-38.53125,53.8125,49.65625
483,483,1727988841625,-1.546875,1.015625,0.018554688,-152.25,145.84375,63.8125
484,484,1727988841665,-1.4023438,1.2167969,0.5859375,-120.3125,-25.53125,90.9375
485,485,1727988841705,-0.8496094,0.93066406,-0.12011719,-97.25,-119.03125,73.28125
486,486,1727988841745,-0.20898438,0.33789062,-0.5048828,-200.53125,-12.78125,84.59375
487,487,1727988841785,0.2939453,-0.55566406,-0.88964844,-90.78125,-48.34375,121.9375
488,488,1727988841825,-0.37304688,-0.6582031,-0.82128906,-45.59375,-61.28125,73.53125
489,489,1727988841865,-0.24902344,-0.87109375,-0.37890625,20.96875,69.1875,-7.09375
490,490,1727988841905,-0.59375,0.15527344,0.85839844,59.875,-68.5,-104.09375
491,491,1727988841945,-2.0,1.6845703,2.0,-534.8125,461.71875,-139.90625
492,492,1727988841985,-0.66796875,1.2431641,0.37109375,-21.25,26.0,-21.6875
493,493,1727988842025,-1.2929688,0.88378906,0.6777344,-13.8125,28.25,-2.46875
494,494,1727988842065,-1.0322266,0.8095703,0.28710938,22.125,-33.84375,-3.625
495,495,1727988842105,-1.1542969,0.68847656,0.5,-79.125,31.90625,-5.8125
496,496,1727988842145,-1.0751953,0.45410156,0.3701172,-31.4375,-34.25,9.03125
497,497,1727988842185,-0.8828125,0.65625,0.2841797,-49.21875,-14.53125,31.96875
498,498,1727988842225,-0.8408203,0.56152344,0.076171875,-68.4375,37.875,16.90625
499,499,1727988842265,-0.6503906,0.24316406,0.09277344,-67.21875,82.9375,16.53125
500,500,1727988842305,-0.51953125,0.12597656,0.037109375,-135.8125,171.625,-11.0625
501,501,1727988842345,-0.35058594,-0.111328125,-0.22363281,-126.34375,93.5625,-11.0
502,502,1727988842385,-0.13183594,0.020507812,-0.16113281,-46.71875,44.125,-29.0
503,503,1727988842425,-0.38378906,0.03515625,0.14941406,-197.09375,181.8125,-35.21875
504,504,1727988842465,-1.3398438,-0.45898438,0.31640625,-157.84375,146.03125,-73.3125
505,505,1727988842505,-1.2460938,0.8261719,0.7265625,-222.625,152.09375,-123.5625
506,506,1727988842545,-0.6386719,0.7128906,-0.4892578,-111.46875,47.03125,-28.53125
507,507,1727988842585,-1.4726562,0.59765625,-0.041992188,-170.78125,63.21875,-89.90625
508,508,1727988842625,-1.7529297,0.5214844,-0.4404297,-137.03125,55.90625,31.40625
509,509,1727988842665,-1.7910156,0.38183594,-0.15332031,-83.03125,48.4375,27.75
510,510,1727988842705,-1.6845703,1.2275391,-0.24511719,-59.90625,-3.375,60.21875
511,511,1727988842745,-1.515625,1.0341797,-0.13476562,-69.28125,-35.15625,98.0625
512,512,1727988842785,-1.0761719,0.9267578,0.095703125,-125.125,-23.8125,96.96875
513,513,1727988842825,-0.5205078,0.7246094,-0.2998047,-205.34375,15.78125,80.1875
514,514,1727988842865,-0.045898438,0.040039062,-0.7685547,-275.78125,114.65625,87.875
515,515,1727988842905,0.09472656,-0.9082031,-1.0644531,-71.4375,94.59375,76.40625
516,516,1727988842945,-0.26953125,-0.58984375,-0.39746094,-67.40625,-23.6875,-0.875
517,517,1727988842985,-0.5419922,-0.5859375,-0.29785156,-6.4375,-61.1875,-16.625
518,518,1727988843025,-1.9179688,-0.0078125,-0.21679688,-701.125,559.8125,-171.59375
519,519,1727988843065,-1.0556641,0.81640625,0.8203125,1.28125,-0.5625,-21.9375
520,520,1727988843105,-0.7832031,0.03125,-0.17285156,30.8125,-11.25,8.71875
521,521,1727988843145,-1.3652344,0.20214844,-0.20507812,-40.25,90.75,-22.78125
522,522,1727988843185,-1.9736328,-0.119140625,0.33203125,-199.40625,169.1875,-13.0625
523,523,1727988843225,-0.9951172,0.9277344,0.25585938,-75.21875,50.71875,23.59375
524,524,1727988843265,-1.2529297,0.5527344,-0.35742188,-67.65625,17.5625,94.78125
525,525,1727988843305,-1.1748047,0.18457031,-0.4033203,-122.28125,16.71875,111.1875
526,526,1727988843345,-1.0371094,0.12988281,-0.1875,-74.0625,40.6875,125.03125
527,527,1727988843385,-0.51171875,0.1171875,-0.107421875,-40.71875,90.75,85.875
528,528,1727988843425,0.030273438,0.064453125,-0.07519531,8.34375,119.6875,47.03125
529,529,1727988843465,-0.046875,-0.13671875,-0.25097656,-132.875,212.03125,-11.5
530,530,1727988843505,-0.5683594,0.013671875,-0.24316406,-179.59375,57.65625,-29.0625
531,531,1727988843545,-1.4941406,-0.13183594,-0.68359375,-402.0625,520.0625,-148.15625
532,532,1727988843585,-1.0195312,0.265625,-0.15136719,-162.125,168.25,-167.1875
533,533,1727988843625,-1.2089844,0.7363281,-0.3935547,-11.78125,-85.90625,-69.65625
534,534,1727988843665,-1.8466797,1.078125,-0.6171875,39.09375,-128.375,-22.125
535,535,1727988843705,-0.9736328,0.7060547,-0.4013672,60.09375,-19.65625,16.84375
536,536,1727988843745,-1.6542969,0.93359375,-0.421875,-51.40625,83.96875,29.53125
537,537,1727988843785,-1.3544922,0.47460938,-0.23242188,2.5625,46.1875,61.6875
538,538,1727988843825,-1.2802734,0.39257812,-0.041992188,-152.78125,212.75,64.375
539,539,1727988843865,-0.88964844,0.32617188,0.33398438,-155.59375,119.3125,65.90625
540,540,1727988843905,-0.70996094,0.14160156,-0.13378906,-48.1875,-2.625,77.4375
541,541,1727988843945,-0.89160156,-0.34179688,-0.19726562,-76.5,30.1875,-20.09375
542,542,1727988843985,-0.5654297,-0.09082031,-0.14648438,-189.09375,43.5625,-99.3125
543,543,1727988844025,-0.7128906,0.34960938,0.08691406,-214.5625,89.09375,-155.34375
544,544,1727988844065,-0.90722656,0.5996094,0.14453125,-153.03125,84.6875,-110.96875
545,545,1727988844105,-1.5722656,0.5703125,-0.047851562,-101.03125,25.0625,-94.375
546,546,1727988844145,-1.2734375,0.71972656,0.18261719,-19.0,-114.34375,-91.75
547,547,1727988844185,-0.7832031,0.8808594,-0.15429688,-57.375,-68.3125,-3.0625
548,548,1727988844225,-0.39257812,1.140625,-0.4169922,-119.875,132.5625,3.78125
549,549,1727988844265,-0.4404297,0.58691406,-0.328125,-98.78125,226.5625,23.0625
550,550,1727988844305,-0.45117188,0.0087890625,-0.26660156,-15.875,199.9375,39.21875
551,551,1727988844345,-0.578125,-0.7939453,-0.41601562,45.5625,125.78125,3.90625
552,552,1727988844385,-0.31347656,-1.1708984,-0.25683594,173.5625,-46.65625,-22.15625
553,553,1727988844425,-1.2910156,0.328125,0.22167969,-326.96875,206.78125,-161.09375
554,554,1727988844465,-1.9482422,1.2753906,0.46289062,-500.8125,209.15625,-166.6875
555,555,1727988844505,-0.9121094,0.93652344,-0.4296875,-73.25,136.28125,-120.125
556,556,1727988844545,-1.2597656,0.6503906,-0.5,26.78125,-56.53125,-34.0625
557,557,1727988844585,-1.9443359,0.7734375,-0.3671875,-144.4375,63.8125,-19.84375
558,558,1727988844625,-1.6367188,0.5966797,-0.33398438,-126.3125,7.625,14.09375
559,559,1727988844665,-1.3242188,0.55371094,-0.3935547,-46.15625,-88.8125,44.25
560,560,1727988844705,-0.7792969,0.5644531,-0.23632812,-126.78125,-18.875,7.6875
561,561,1727988844745,-0.44433594,0.0390625,-0.2998047,-195.9375,40.625,-73.0
562,562,1727988844785,-0.09082031,-0.34960938,-0.14648438,-121.15625,-42.25,-125.6875
563,563,1727988844825,-0.043945312,-0.115234375,-0.09667969,-151.03125,48.03125,-117.75
564,564,1727988844865,-1.2548828,0.23339844,-0.625,-297.6875,31.71875,-241.84375
565,565,1727988844905,-1.8574219,0.044921875,-0.09277344,-253.96875,138.59375,-124.46875
566,566,1727988844945,-1.0380859,-0.0625,0.53808594,-13.5625,-125.875,-51.15625
567,567,1727988844985,-0.7294922,0.13574219,-0.0009765625,49.0625,-194.90625,45.625
568,568,1727988845025,-0.66015625,0.34179688,0.01171875,41.65625,-150.96875,91.90625
569,569,1727988845065,-0.6308594,0.059570312,0.0859375,-1.59375,-80.34375,102.40625
570,570,1727988845105,-0.8457031,-0.16601562,0.034179688,10.90625,12.5,60.34375
571,571,1727988845145,-0.6904297,0.0087890625,-0.22460938,37.46875,53.34375,-7.71875
572,572,1727988845185,-0.49121094,1.0527344,0.75683594,-138.5,146.65625,-28.21875
573,573,1727988845225,-2.0,-0.83203125,-0.8876953,233.03125,-105.71875,-107.5
574,574,1727988845265,-0.26367188,0.37695312,-0.390625,-191.59375,-27.0625,-133.0
575,575,1727988845305,-0.12597656,0.42382812,-0.2734375,39.59375,196.6875,-27.78125
576,576,1727988845345,-1.8828125,0.4345703,-0.7294922,38.0,-13.375,0.40625
577,577,1727988845385,-1.0644531,0.080078125,0.18261719,10.71875,114.0625,-58.125
578,578,1727988845425,-0.5390625,0.11425781,-0.3154297,75.71875,-85.59375,-65.75
579,579,1727988845465,-0.7167969,0.038085938,-0.4248047,-16.0625,66.09375,-62.8125
580,580,1727988845505,-1.1328125,-0.119140625,-0.111328125,-30.46875,57.59375,-91.875
581,581,1727988845545,-1.1972656,-0.103515625,-0.2685547,19.5625,-8.0,-74.96875
582,582,1727988845585,-1.1279297,-0.055664062,-0.27929688,35.5,-23.21875,-73.0625
583,583,1727988845625,-1.0078125,-0.24804688,-0.3046875,32.875,-3.25,-81.0
584,584,1727988845665,-1.0263672,-0.19921875,-0.29101562,29.78125,0.28125,-80.21875
585,585,1727988845705,-1.0498047,-0.3173828,-0.21484375,36.71875,-11.125,-87.28125
586,586,1727988845745,-0.8339844,-0.4794922,-0.18945312,36.90625,2.5625,-94.8125
587,587,1727988845785,-1.0126953,-0.5283203,-0.013671875,33.4375,3.90625,-95.96875
588,588,1727988845825,-0.86621094,-0.6455078,-0.036132812,42.59375,-18.5,-109.875
589,589,1727988845865,-0.8828125,-0.5625,-0.10449219,7.8125,13.03125,-116.53125
590,590,1727988845905,-0.99316406,-0.8105469,0.056640625,20.84375,-11.375,-117.03125
591,591,1727988845945,-0.6591797,-0.90234375,-0.18554688,11.75,-23.8125,-114.9375
592,592,1727988845985,-0.78027344,-0.78222656,-0.14746094,-0.75,-2.6875,-107.6875
593,593,1727988846025,-0.6582031,-0.9902344,-0.1484375,0.84375,-14.25,-112.9375
594,594,1727988846065,-0.41992188,-1.0166016,-0.022460938,1.6875,-14.71875,-101.75
595,595,1727988846105,-0.48242188,-1.0263672,-0.12109375,2.84375,0.78125,-85.78125
596,596,1727988846145,-0.48242188,-0.9609375,-0.07714844,13.34375,-16.25,-74.0
597,597,1727988846185,-0.5644531,-1.0722656,-0.08691406,8.34375,16.53125,-79.46875
598,598,1727988846225,-0.61816406,-0.93652344,-0.025390625,-2.875,26.09375,-81.0625
599,599,1727988846265,-0.6953125,-0.79589844,0.072265625,-7.875,36.0,-89.1875
600,600,1727988846305,-0.33691406,-0.9951172,0.18652344,-1.46875,64.75,-88.03125
601,601,1727988846345,0.0029296875,-0.59277344,0.25878906,-4.46875,64.875,-50.3125
602,602,1727988846385,0.3876953,-0.5751953,-0.09667969,-36.5625,86.03125,-15.40625
603,603,1727988846425,0.3125,-0.89453125,-0.21191406,-36.9375,35.5,28.0625
604,604,1727988846465,0.11621094,-0.9873047,-0.20996094,-29.1875,29.53125,53.625
605,605,1727988846505,-0.060546875,-0.9511719,-0.3466797,12.9375,28.5625,32.9375
606,606,1727988846545,-0.09277344,-1.3457031,-0.23144531,59.875,-37.625,-17.71875
607,607,1727988846585,0.15234375,-1.6953125,0.15234375,37.71875,-45.90625,88.96875
608,608,1727988846625,-0.31445312,-0.8730469,-0.17285156,-59.59375,-43.09375,37.21875
609,609,1727988846665,-0.34472656,-0.515625,-0.095703125,-10.5625,-55.8125,41.625
610,610,1727988846705,-0.32128906,-1.0253906,-0.18847656,68.40625,38.0,84.875
611,611,1727988846745,-0.54589844,-1.2324219,0.043945312,-36.75,7.3125,123.34375
612,612,1727988846785,-0.30664062,-0.8486328,-0.0078125,16.15625,45.09375,61.625
613,613,1727988846825,-0.4951172,-0.8496094,-0.1015625,88.0,-23.625,69.4375
614,614,1727988846865,-0.5449219,-0.88964844,0.0009765625,25.1875,31.96875,62.0625
615,615,1727988846905,-0.6328125,-0.97753906,0.0048828125,32.75,25.625,64.25
616,616,1727988846945,-0.6611328,-0.95214844,0.078125,-2.21875,14.5625,40.6875
617,617,1727988846985,-0.5996094,-0.796875,-0.091796875,35.15625,-28.6875,55.03125
618,618,1727988847025,-0.81640625,-0.8359375,0.005859375,16.40625,3.71875,53.34375
619,619,1727988847065,-0.45410156,-0.51464844,0.09375,-7.78125,52.53125,30.1875
620,620,1727988847105,-0.93359375,-0.8730469,-0.040039062,37.40625,6.8125,63.65625
621,621,1727988847145,-0.46289062,-0.6044922,0.19042969,-0.1875,53.21875,11.40625
622,622,1727988847185,-0.9169922,-0.671875,-0.0087890625,2.0625,5.90625,41.5
623,623,1727988847225,-0.6220703,-0.53027344,-0.043945312,46.8125,-24.0625,14.21875
624,624,1727988847265,-0.84277344,-0.7216797,-0.08691406,-29.9375,50.59375,42.78125
625,625,1727988847305,-0.9013672,-0.7265625,-0.024414062,23.96875,22.8125,20.96875
626,626,1727988847345,-0.6894531,-0.5908203,0.032226562,-33.78125,51.5,18.40625
627,627,1727988847385,-0.9453125,-0.74609375,-0.078125,19.8125,-6.78125,27.21875
628,628,1727988847425,-0.6298828,-0.46972656,0.06347656,16.15625,22.6875,21.28125
629,629,1727988847465,-0.9326172,-0.7861328,-0.0234375,27.875,-5.3125,27.5
630,630,1727988847505,-0.96484375,-0.5761719,-0.10644531,4.625,-5.6875,13.65625
631,631,1727988847545,-1.0410156,-0.7314453,-0.08886719,-40.25,9.3125,-10.9375
632,632,1727988847585,-0.64453125,-0.4501953,-0.013671875,-10.8125,9.09375,-13.4375
633,633,1727988847625,-0.8066406,-0.5830078,-0.10058594,-14.3125,-5.375,-6.125
634,634,1727988847665,-0.92871094,-0.6875,-0.018554688,-24.5625,9.4375,-6.71875
635,635,1727988847705,-0.8310547,-0.63671875,-0.1171875,-5.625,-2.40625,-10.28125
636,636,1727988847745,-0.82910156,-0.60546875,-0.08203125,-2.59375,1.15625,-13.875
637,637,1727988847785,-0.9736328,-0.73046875,-0.06347656,-11.125,2.84375,-21.5
638,638,1727988847825,-0.63671875,-0.63964844,-0.043945312,3.84375,-8.4375,-22.96875
639,639,1727988847865,-0.7861328,-0.68847656,-0.18554688,26.09375,-10.75,-22.59375
640,640,1727988847905,-0.7685547,-0.85058594,-0.048828125,-3.1875,22.6875,-24.4375
641,641,1727988847945,-0.765625,-0.89160156,0.047851562,27.21875,27.625,-41.03125
642,642,1727988847985,-0.859375,-0.9238281,-0.00390625,20.84375,-15.34375,-71.90625
643,643,1727988848025,-0.63183594,-0.6953125,0.0,15.5625,-52.125,-100.0625
644,644,1727988848065,-0.74609375,-0.48339844,-0.08984375,-11.5625,-60.6875,-81.6875
645,645,1727988848105,-0.6298828,-0.6875,0.09375,31.1875,-26.875,-54.46875
646,646,1727988848145,-0.6660156,-0.79296875,0.05859375,13.90625,-22.53125,-54.9375
647,647,1727988848185,-0.64746094,-0.8769531,0.12890625,-20.65625,-4.78125,-63.6875
648,648,1727988848225,-0.5078125,-0.859375,0.24316406,54.84375,-25.21875,-53.84375
649,649,1727988848265,-0.5029297,-0.8466797,0.016601562,39.21875,-29.5625,-28.21875
650,650,1727988848305,-0.44433594,-0.93847656,-0.20703125,-6.5,91.0625,-26.5
651,651,1727988848345,-0.37597656,-0.79296875,0.0048828125,-58.65625,184.4375,-43.21875
652,652,1727988848385,-0.4609375,-0.83203125,0.009765625,-24.75,89.875,-7.875
653,653,1727988848425,-0.48242188,-0.8876953,0.030273438,-27.71875,-20.78125,-31.375
654,654,1727988848465,-0.3828125,-0.7919922,-0.09082031,-36.21875,24.65625,-37.4375
655,655,1727988848505,-0.359375,-0.921875,-0.0625,-29.75,-33.21875,-6.78125
656,656,1727988848545,-0.4326172,-0.96972656,-0.16699219,-53.78125,13.65625,-2.9375
657,657,1727988848585,-0.37402344,-1.0166016,0.001953125,-61.59375,28.125,-1.65625
658,658,1727988848625,-0.3173828,-0.9189453,-0.19238281,-32.59375,8.96875,-5.875
659,659,1727988848665,-0.30664062,-0.9248047,-0.24414062,-38.09375,59.875,-4.53125
660,660,1727988848705,-0.37890625,-0.90625,-0.28222656,-30.15625,12.0,11.9375
661,661,1727988848745,-0.09863281,-0.96777344,-0.3359375,-35.90625,-0.625,30.125
662,662,1727988848785,-0.5283203,-1.0527344,-0.43359375,-43.34375,3.84375,7.125
663,663,1727988848825,-0.20800781,-1.7001953,-0.19824219,-28.40625,-33.34375,66.15625
664,664,1727988848865,-0.15136719,-1.2890625,-0.41503906,0.78125,-31.5625,11.8125
665,665,1727988848905,-0.3310547,-0.9472656,-0.4951172,13.21875,-17.53125,14.8125
666,666,1727988848945,-0.5449219,-0.8701172,-0.43652344,18.34375,-76.4375,48.8125
667,667,1727988848985,0.12109375,-0.5644531,-0.5546875,9.625,-7.03125,78.15625
668,668,1727988849025,-0.66015625,-0.69140625,-0.4736328,17.75,2.0,65.28125
669,669,1727988849065,-0.9013672,-0.5136719,-0.19628906,30.5,10.84375,47.53125
670,670,1727988849105,-0.6347656,-0.61621094,-0.3251953,40.8125,-38.90625,58.75
671,671,1727988849145,-0.34277344,-0.4482422,-0.46875,41.4375,23.1875,46.0
672,672,1727988849185,-1.0205078,-0.6542969,-0.33691406,19.21875,84.6875,23.96875
673,673,1727988849225,-1.7441406,-0.81933594,-0.24902344,-5.8125,23.125,70.0625
674,674,1727988849265,-1.2089844,-0.7558594,-0.20214844,-40.59375,-11.4375,127.71875
675,675,1727988849305,-1.3632812,-0.65625,-0.23730469,-48.1875,5.0,155.4375
676,676,1727988849345,-1.1015625,-0.6484375,-0.2109375,-44.5,27.6875,177.78125
677,677,1727988849385,-0.9951172,-0.5996094,-0.19824219,-57.21875,37.875,163.875
678,678,1727988849425,-1.0810547,-0.36816406,-0.23144531,-48.21875,26.78125,152.875
679,679,1727988849465,-0.84472656,-0.33496094,-0.21484375,-49.09375,1.625,136.40625
680,680,1727988849505,-0.74121094,-0.296875,-0.2685547,-38.78125,32.46875,114.25
681,681,1727988849545,-0.9560547,-0.087890625,-0.28808594,-55.8125,-6.3125,117.59375
682,682,1727988849585,-1.2099609,0.013671875,-0.28027344,-32.1875,-16.0,125.34375
683,683,1727988849625,-1.3007812,0.17285156,-0.33398438,-4.34375,-20.84375,132.1875
684,684,1727988849665,-1.0371094,0.33398438,-0.34765625,13.65625,-54.28125,113.75
685,685,1727988849705,-0.828125,0.25,-0.41210938,37.59375,-76.125,121.3125
686,686,1727988849745,-0.8964844,0.15039062,-0.3828125,58.34375,-95.71875,125.15625
687,687,1727988849785,-0.7871094,0.20703125,-0.4013672,75.90625,-125.625,135.59375
688,688,1727988849825,-0.7636719,0.31640625,-0.49316406,96.0,-219.1875,121.5625
689,689,1727988849865,-1.1875,0.14941406,-0.4892578,187.5,-316.90625,47.09375
690,690,1727988849905,-0.7265625,-0.35839844,-0.57910156,323.65625,-237.125,40.03125
691,691,1727988849945,-0.45410156,0.0546875,-0.37109375,214.34375,-221.5,27.8125
692,692,1727988849985,-0.16894531,-0.055664062,-0.46875,103.0,-202.96875,-0.75
693,693,1727988850025,-0.20214844,-0.015625,-0.5996094,184.375,-198.375,5.21875
694,694,1727988850065,-0.42871094,0.119140625,-0.63183594,131.875,-276.5625,-70.15625
695,695,1727988850105,-0.92285156,0.54296875,-0.74121094,118.5,-305.5625,-142.28125
696,696,1727988850145,-1.5771484,1.0810547,-0.49316406,89.875,-128.625,-128.6875
697,697,1727988850185,-1.4521484,1.3251953,-0.38671875,254.375,-32.1875,-107.125
698,698,1727988850225,-1.4521484,1.8818359,-0.35839844,206.90625,14.28125,-104.6875
699,699,1727988850265,-0.9892578,1.1513672,-0.34375,130.84375,89.46875,2.375
700,700,1727988850305,-0.7324219,0.7734375,-0.140625,242.0,4.375,49.0
701,701,1727988850345,0.33691406,-0.3720703,1.0507812,308.59375,77.375,73.15625
702,702,1727988850385,0.16210938,-0.041015625,-0.2919922,289.0,-318.625,28.65625
703,703,1727988850425,0.020507812,-0.57714844,-0.26464844,214.59375,-63.625,35.3125
704,704,1727988850465,-0.23828125,0.21972656,0.140625,183.8125,-182.75,-24.625
705,705,1727988850505,-1.8798828,0.9902344,-0.42089844,24.71875,-339.125,-175.125
706,706,1727988850545,-2.0,1.3173828,-0.54296875,-8.125,56.5,4.5625
707,707,1727988850585,-1.6933594,1.1953125,-0.22070312,205.84375,-114.09375,26.59375
708,708,1727988850625,-1.6943359,1.0751953,-0.25097656,216.46875,-123.84375,107.46875
709,709,1727988850665,-1.2421875,0.45410156,-0.28515625,217.875,-167.0,110.34375
710,710,1727988850705,-0.85546875,-0.35351562,-0.8017578,320.125,-224.9375,103.8125
711,711,1727988850745,-1.0380859,-0.40820312,-0.7373047,429.6875,-118.78125,37.53125
712,712,1727988850785,-0.36035156,-0.30566406,-0.045898438,-150.15625,119.625,-18.03125
713,713,1727988850825,-0.07421875,-0.33398438,-0.11621094,125.59375,-157.125,-44.3125
714,714,1727988850865,0.05859375,-0.43066406,-0.15332031,388.21875,-265.28125,-34.5625
715,715,1727988850905,-0.9638672,-0.013671875,-0.67578125,160.3125,-416.9375,66.40625
716,716,1727988850945,-2.0,0.70703125,-1.0595703,-167.9375,-415.65625,-292.75
717,717,1727988850985,-1.5107422,1.5507812,-0.5732422,-28.34375,206.71875,-117.1875
718,718,1727988851025,-2.0,1.9287109,-0.19921875,192.71875,258.90625,-68.625
719,719,1727988851065,-0.8076172,0.9951172,1.5009766,-324.125,-279.625,83.34375
720,720,1727988851105,-0.6875,0.4580078,-0.51953125,310.84375,-139.1875,105.15625
721,721,1727988851145,-0.29589844,0.1875,-0.055664062,305.96875,-231.34375,95.875
722,722,1727988851185,-0.4140625,-0.93066406,0.9375,303.03125,-217.375,133.28125
723,723,1727988851225,-0.20019531,-0.4794922,-1.1005859,474.59375,-336.1875,49.84375
724,724,1727988851265,0.21875,-0.34960938,0.6796875,299.125,-131.90625,8.15625
725,725,1727988851305,-0.15332031,0.26953125,-0.29785156,193.96875,-322.34375,-84.125
726,726,1727988851345,-1.3720703,1.0009766,-0.7578125,121.5,-179.53125,-249.53125
727,727,1727988851385,-2.0,1.5009766,-1.1230469,-42.875,-5.15625,-85.84375
728,728,1727988851425,-2.0,-0.60839844,1.015625,-204.78125,226.59375,-42.0625
729,729,1727988851465,-1.7060547,0.8535156,-0.46484375,261.15625,-188.6875,38.75
730,730,1727988851505,-1.1533203,0.7734375,-0.59765625,288.625,-125.3125,60.15625
731,731,1727988851545,-1.046875,0.31445312,-0.4580078,278.5625,-93.59375,75.125
732,732,1727988851585,-1.0078125,0.17578125,0.0048828125,95.9375,-151.0625,32.40625
733,733,1727988851625,-0.2998047,-0.047851562,-0.25097656,302.15625,-162.25,12.9375
734,734,1727988851665,0.046875,-0.375,-0.23535156,382.5,-266.3125,23.375
735,735,1727988851705,-0.2548828,-0.3828125,-0.24804688,334.28125,-313.0,11.40625
736,736,1727988851745,-1.0107422,0.5371094,-0.19824219,54.3125,-197.15625,-115.5
737,737,1727988851785,-2.0,2.0,0.23730469,-326.84375,245.90625,-294.8125
738,738,1727988851825,-0.09472656,1.7734375,0.12109375,-24.5,-54.8125,2.0
739,739,1727988851865,-1.40625,0.28125,0.12988281,-14.1875,-35.21875,-37.3125
740,740,1727988851905,-1.0351562,0.4501953,0.36328125,33.8125,-68.1875,-48.21875
741,741,1727988851945,-0.38085938,0.5029297,-0.07128906,-2.15625,-54.34375,-16.8125
742,742,1727988851985,-0.15332031,0.23730469,0.09082031,-5.3125,-54.40625,4.25
743,743,1727988852025,-0.33789062,0.3173828,0.16894531,-27.59375,-2.09375,8.71875
744,744,1727988852065,-0.4580078,0.3203125,0.20703125,-63.25,79.15625,26.34375
745,745,1727988852105,-0.6904297,0.26367188,0.091796875,-39.8125,123.28125,53.15625
746,746,1727988852145,-0.9941406,0.4267578,0.13085938,-73.4375,204.9375,60.90625
747,747,1727988852185,-1.0869141,0.8203125,-0.421875,-86.0,228.6875,12.0625
748,748,1727988852225,-0.67578125,0.9824219,-0.3017578,-2.21875,69.9375,28.90625
749,749,1727988852265,-0.35253906,0.7001953,-0.43945312,-67.9375,94.78125,53.4375
750,750,1727988852305,-1.2666016,0.9345703,-0.5419922,-83.21875,21.46875,23.78125
751,751,1727988852345,-1.0302734,-0.103515625,-0.3310547,-196.125,125.90625,-39.625
752,752,1727988852385,-0.8779297,0.56640625,-0.2841797,-144.90625,117.0625,6.5625
753,753,1727988852425,-1.2910156,0.5175781,-0.21972656,-144.3125,79.09375,-3.6875
754,754,1727988852465,-0.8876953,0.7480469,-0.10644531,-119.46875,18.71875,-9.71875
755,755,1727988852505,-0.5966797,0.75,-0.23730469,-100.65625,2.3125,17.1875
756,756,1727988852545,-0.6044922,0.5253906,-0.34375,-146.6875,59.0,20.0625
757,757,1727988852585,-0.6611328,0.4501953,-0.29492188,-203.5,111.375,-9.15625
758,758,1727988852625,-0.6894531,0.4169922,0.016601562,-401.75,203.84375,-79.3125
759,759,1727988852665,-0.81640625,0.3955078,0.16894531,-384.90625,174.96875,-135.4375
760,760,1727988852705,-0.7910156,0.22949219,-0.3544922,-211.75,36.71875,-104.09375
761,761,1727988852745,-2.0,-0.2685547,0.18261719,-76.3125,-16.9375,-64.34375
762,762,1727988852785,-0.5029297,0.05078125,-0.359375,90.5625,-144.375,31.65625
763,763,1727988852825,0.0859375,0.51953125,0.24414062,-85.09375,-50.78125,26.59375
764,764,1727988852865,-0.27539062,0.61328125,-0.234375,-47.1875,50.875,36.71875
765,765,1727988852905,-0.39648438,0.021484375,0.0625,-53.65625,47.15625,52.0
766,766,1727988852945,-1.6445312,-0.4091797,0.23730469,-72.46875,47.21875,12.625
767,767,1727988852985,-1.1816406,0.4921875,0.123046875,-58.59375,-19.0,-100.0625
768,768,1727988853025,-0.12988281,0.051757812,-0.19726562,-49.03125,47.84375,-72.9375
769,769,1727988853065,-2.0,-0.34765625,0.484375,-129.40625,102.28125,-160.125
770,770,1727988853105,-0.9316406,0.030273438,-0.005859375,9.125,2.375,-99.375
771,771,1727988853145,-1.4912109,-0.14941406,0.1015625,23.84375,-24.90625,-91.3125
772,772,1727988853185,-0.6279297,0.19433594,-0.10449219,-14.0625,-11.125,-93.59375
773,773,1727988853225,-1.2275391,-0.26171875,0.024414062,-45.78125,24.28125,-79.90625
774,774,1727988853265,-1.3710938,-0.51953125,-0.043945312,-10.03125,-7.15625,-76.75
775,775,1727988853305,-0.82128906,-0.27539062,0.013671875,-4.34375,-21.9375,-63.1875
776,776,1727988853345,-1.0390625,-0.46875,0.08886719,-8.3125,-14.3125,-57.4375
777,777,1727988853385,-0.99609375,-0.41503906,0.15039062,1.625,-28.21875,-52.5
778,778,1727988853425,-0.9746094,-0.4248047,0.13671875,8.21875,-11.90625,-44.4375
779,779,1727988853465,-0.8652344,-0.4794922,0.11816406,-7.59375,-5.15625,0.53125
