,Unnamed: 0,timestamp,accel_x,accel_y,accel_z,gyro_x,gyro_y,gyro_z
0,0,1727899237280,-0.98535156,-0.049804688,0.15429688,-1.90625,-6.625,2.59375
1,1,1727899237320,-0.99902344,-0.0234375,0.17089844,-4.21875,-2.90625,4.46875
2,2,1727899237360,-1.0800781,-0.0390625,0.12109375,-14.125,5.8125,9.125
3,3,1727899237400,-1.0117188,0.009765625,0.12011719,-8.0625,-0.71875,6.8125
4,4,1727899237440,-0.9501953,0.020507812,0.15429688,-8.25,-0.84375,4.78125
5,5,1727899237480,-0.9628906,0.020507812,0.16113281,-14.125,0.6875,6.5
6,6,1727899237520,-1.0039062,-0.013671875,0.15917969,-21.03125,2.21875,6.3125
7,7,1727899237560,-1.0332031,-0.0107421875,0.17382812,-18.21875,6.0625,-1.0625
8,8,1727899237600,-0.9580078,-0.026367188,0.20410156,-18.34375,9.1875,-13.96875
9,9,1727899237640,-0.96875,-0.0546875,0.20605469,-17.65625,4.59375,-8.53125
10,10,1727899237680,-1.0097656,-0.11425781,0.23046875,-9.71875,4.78125,-0.53125
11,11,1727899237720,-1.0361328,-0.25195312,0.2109375,11.28125,5.59375,-3.53125
12,12,1727899237760,-0.9824219,-0.21484375,0.19335938,42.71875,-7.53125,-3.15625
13,13,1727899237800,-0.94628906,-0.07128906,0.1640625,49.59375,-1.0,-3.53125
14,14,1727899237840,-0.99609375,-0.0029296875,0.06933594,55.65625,7.96875,-0.34375
15,15,1727899237880,-1.0234375,0.09375,0.09863281,43.125,12.65625,-3.15625
16,16,1727899237920,-1.0175781,0.047851562,0.13574219,31.28125,0.6875,-0.15625
17,17,1727899237960,-1.0058594,-0.026367188,0.17382812,18.71875,-10.34375,3.0625
18,18,1727899238000,-1.0224609,-0.123046875,0.15332031,11.28125,-15.125,1.90625
19,19,1727899238040,-0.96875,-0.14648438,0.107421875,12.78125,-12.90625,-6.15625
20,20,1727899238080,-0.96777344,-0.087890625,0.10253906,19.09375,-10.53125,-16.03125
21,21,1727899238120,-0.9892578,-0.046875,0.12207031,21.34375,-3.75,-17.625
22,22,1727899238160,-0.96777344,-0.028320312,0.15429688,16.8125,-2.21875,-17.875
23,23,1727899238200,-0.9716797,-0.040039062,0.18457031,5.90625,-5.65625,-12.625
24,24,1727899238240,-0.9707031,-0.057617188,0.17871094,-3.3125,-14.25,-7.3125
25,25,1727899238280,-0.99609375,-0.08203125,0.17382812,-15.15625,-12.25,-3.28125
26,26,1727899238320,-0.98046875,-0.115234375,0.12011719,-4.71875,-6.8125,0.6875
27,27,1727899238360,-0.9580078,-0.048828125,0.17480469,15.46875,-8.59375,2.78125
28,28,1727899238400,-0.9814453,-0.0390625,0.19042969,3.34375,-0.59375,-0.09375
29,29,1727899238440,-1.015625,-0.02734375,0.23046875,-0.375,-5.78125,-2.0625
30,30,1727899238480,-1.0146484,-0.05859375,0.24023438,-14.96875,-9.9375,-0.71875
31,31,1727899238520,-1.0478516,-0.022460938,0.28125,-10.15625,-15.28125,-9.1875
32,32,1727899238560,-1.0517578,-0.040039062,0.2265625,-30.53125,-12.3125,-22.4375
33,33,1727899238600,-1.0576172,-0.07421875,0.24121094,-58.3125,-9.96875,-40.25
34,34,1727899238640,-0.9316406,-0.056640625,0.3876953,-57.09375,-31.40625,-47.65625
35,35,1727899238680,-0.9453125,-0.01171875,0.2890625,-48.0,-67.28125,-22.6875
36,36,1727899238720,-0.8701172,-0.14257812,0.22167969,-44.46875,-55.09375,0.375
37,37,1727899238760,-0.9042969,-0.15820312,0.2998047,-41.90625,-26.34375,8.125
38,38,1727899238800,-0.85546875,-0.16503906,0.36621094,-48.53125,-21.09375,10.34375
39,39,1727899238840,-0.7998047,-0.22753906,0.40429688,-38.78125,-11.09375,16.75
40,40,1727899238880,-0.7871094,-0.2861328,0.3720703,-34.1875,1.0,16.625
41,41,1727899238920,-0.8095703,-0.3486328,0.45214844,-32.3125,14.1875,9.84375
42,42,1727899238960,-0.828125,-0.37304688,0.48046875,-27.375,8.8125,0.625
43,43,1727899239000,-0.8105469,-0.3310547,0.46679688,-18.46875,5.03125,-2.78125
44,44,1727899239040,-0.8173828,-0.25390625,0.4814453,-14.78125,-9.5625,7.34375
45,45,1727899239080,-0.7939453,-0.25097656,0.4970703,-10.53125,-9.6875,20.78125
46,46,1727899239120,-1.3066406,-0.33984375,0.48828125,-9.40625,7.09375,13.28125
47,47,1727899239160,-1.2675781,-0.05078125,0.33789062,-30.0,18.9375,-12.0
48,48,1727899239200,-0.8261719,-0.049804688,0.24804688,-14.5625,3.625,8.25
49,49,1727899239240,-0.68066406,-0.12402344,0.29882812,-63.0625,18.875,14.3125
50,50,1727899239280,-1.0048828,-0.27929688,0.087890625,-63.625,23.09375,16.625
51,51,1727899239320,-1.1259766,-0.16113281,0.01953125,-1.1875,10.34375,15.40625
52,52,1727899239360,-0.9892578,-0.14648438,-0.01171875,12.90625,-2.84375,21.03125
53,53,1727899239400,-0.8935547,-0.296875,0.08300781,-29.8125,18.34375,15.34375
54,54,1727899239440,-0.9814453,-0.22558594,0.21679688,-46.59375,25.65625,3.0
55,55,1727899239480,-0.92089844,-0.16699219,0.115234375,1.375,21.03125,15.65625
56,56,1727899239520,-0.9375,-0.21679688,0.13867188,14.4375,21.28125,19.125
57,57,1727899239560,-0.91503906,-0.17089844,0.14160156,-8.03125,29.9375,9.84375
58,58,1727899239600,-0.9892578,-0.15917969,0.1640625,-28.9375,21.03125,12.21875
59,59,1727899239640,-0.98828125,-0.15527344,0.18457031,-51.0,15.28125,14.625
60,60,1727899239680,-0.9902344,-0.21679688,0.10449219,-46.40625,0.625,22.125
61,61,1727899239720,-0.9472656,-0.30273438,0.09277344,-49.46875,-10.40625,24.6875
62,62,1727899239760,-0.98339844,-0.34277344,0.15625,-44.8125,-9.96875,25.0
63,63,1727899239800,-1.0625,-0.37890625,0.15625,-25.03125,-2.53125,17.25
64,64,1727899239840,-1.2021484,-0.23242188,0.09082031,-13.875,2.15625,-15.78125
65,65,1727899239880,-1.2490234,-0.14355469,0.11816406,-8.25,-27.375,-26.40625
66,66,1727899239920,-1.2548828,-0.021484375,0.11230469,3.8125,-52.71875,-36.59375
67,67,1727899239960,-1.0859375,0.12792969,0.09277344,-40.375,-97.75,-58.3125
68,68,1727899240000,-0.99609375,0.28515625,0.18066406,-122.65625,-84.625,-64.75
69,69,1727899240040,-0.9511719,-0.052734375,0.13769531,-138.375,-35.5,-42.65625
70,70,1727899240080,-1.0195312,-0.37304688,0.20605469,-57.09375,-50.375,-8.15625
71,71,1727899240120,-0.6464844,-0.54003906,0.32617188,-26.75,-50.375,-14.375
72,72,1727899240160,-0.57421875,-0.42089844,0.28710938,-15.53125,2.78125,-12.96875
73,73,1727899240200,-0.45507812,-0.36523438,0.12988281,-7.09375,17.3125,-10.15625
74,74,1727899240240,-0.66503906,-0.4453125,0.23339844,12.25,31.8125,30.46875
75,75,1727899240280,-1.0595703,-0.35546875,0.31054688,-3.5625,7.78125,21.09375
76,76,1727899240320,-1.34375,-0.28808594,0.5761719,1.6875,5.15625,-26.84375
77,77,1727899240360,-1.6123047,0.11425781,0.24902344,-42.125,-39.46875,-18.09375
78,78,1727899240400,-0.6464844,0.06933594,-0.047851562,-30.21875,-82.1875,24.625
79,79,1727899240440,-0.9482422,-0.37695312,0.15625,51.75,5.21875,37.5
80,80,1727899240480,-1.1533203,-0.46484375,0.103515625,7.5,33.40625,4.90625
81,81,1727899240520,-1.1269531,-0.16503906,0.16601562,-27.65625,25.90625,-6.375
82,82,1727899240560,-0.9082031,-0.13867188,0.21191406,-16.4375,-13.9375,23.34375
83,83,1727899240600,-0.7841797,-0.28710938,0.115234375,-65.8125,-23.21875,27.96875
84,84,1727899240640,-0.9189453,-0.28808594,0.13867188,-61.84375,13.34375,27.96875
85,85,1727899240680,-0.9814453,-0.28320312,0.1796875,-66.96875,-3.4375,31.21875
86,86,1727899240720,-0.95214844,-0.42382812,0.15136719,-58.625,-19.5,37.4375
87,87,1727899240760,-0.8964844,-0.47753906,0.19726562,-84.1875,2.53125,21.1875
88,88,1727899240800,-0.8613281,-0.38964844,0.22167969,-88.40625,17.65625,-1.375
89,89,1727899240840,-0.8642578,-0.14648438,0.043945312,-70.28125,-8.15625,1.90625
90,90,1727899240880,-0.9472656,-0.024414062,-0.09472656,-112.8125,-17.625,5.8125
91,91,1727899240920,-1.1123047,-0.0390625,-0.12792969,-143.8125,-25.4375,8.8125
92,92,1727899240960,-0.97265625,-0.047851562,-0.140625,-175.6875,-64.0,7.34375
93,93,1727899241000,-0.9980469,-0.3173828,-0.0146484375,-154.0,-93.34375,8.09375
94,94,1727899241040,-0.8779297,-0.39648438,0.25,-152.78125,-65.84375,-16.09375
95,95,1727899241080,-0.95996094,-0.3466797,0.40820312,-140.40625,-61.5,-34.34375
96,96,1727899241120,-0.91503906,-0.51660156,0.20605469,-85.46875,-105.4375,-4.90625
97,97,1727899241160,-0.62402344,-0.56640625,0.3359375,-23.03125,-107.59375,-2.59375
98,98,1727899241200,-0.6464844,-0.45996094,0.4892578,-33.84375,-59.65625,23.75
99,99,1727899241240,-0.5878906,-0.5966797,0.38183594,-45.375,-70.71875,4.65625
100,100,1727899241280,-0.7128906,-0.7578125,0.48242188,-37.1875,-58.25,-45.5
101,101,1727899241320,-0.90722656,-0.6308594,0.5234375,34.09375,-55.9375,-74.5
102,102,1727899241360,-0.40722656,-0.4013672,0.36816406,43.5,-81.8125,-77.90625
103,103,1727899241400,-0.29003906,-0.3154297,0.4169922,17.25,-72.59375,-49.0
104,104,1727899241440,-0.63183594,-0.55859375,0.5341797,-24.375,-46.25,-55.9375
105,105,1727899241480,-0.8417969,-0.6591797,0.57714844,-40.0625,-44.84375,-78.90625
106,106,1727899241520,-0.9736328,-0.85839844,0.59375,10.46875,-13.71875,-70.53125
107,107,1727899241560,-0.72753906,-0.765625,0.6171875,69.6875,-52.34375,-58.21875
108,108,1727899241600,-0.22949219,-0.22851562,0.5683594,49.71875,-65.53125,-30.5
109,109,1727899241640,-0.29882812,-0.4560547,0.63378906,-6.125,-79.0,-15.1875
110,110,1727899241680,-0.41992188,-0.875,0.9345703,-65.625,-54.96875,-48.4375
111,111,1727899241720,-0.50097656,-1.2109375,0.8847656,-60.25,-30.4375,-29.40625
112,112,1727899241760,-0.39257812,-0.9921875,0.609375,-14.90625,-8.65625,13.09375
113,113,1727899241800,-0.2783203,-0.66015625,0.5214844,-40.0625,-22.1875,15.53125
114,114,1727899241840,-0.27148438,-0.72265625,0.5234375,-24.8125,-41.59375,7.71875
115,115,1727899241880,-0.2529297,-0.8251953,0.515625,-23.15625,-36.21875,4.59375
116,116,1727899241920,-0.3330078,-0.8095703,0.5830078,-24.75,-35.125,16.375
117,117,1727899241960,-0.3779297,-0.85546875,0.54003906,-21.1875,-47.28125,16.375
118,118,1727899242000,-0.3544922,-0.8359375,0.47070312,-20.71875,-18.84375,4.90625
119,119,1727899242040,-0.33496094,-0.7988281,0.5371094,-4.34375,-11.15625,-0.71875
120,120,1727899242080,-0.3642578,-0.82421875,0.59277344,-11.96875,-9.25,-6.5
121,121,1727899242120,-0.21875,-0.8017578,0.5546875,-17.34375,-14.9375,-12.1875
122,122,1727899242160,-0.27539062,-0.82714844,0.5576172,-16.4375,-16.09375,-10.28125
123,123,1727899242200,-0.28710938,-0.8876953,0.5283203,-44.46875,-1.5625,-26.84375
124,124,1727899242240,-0.15429688,-0.8701172,0.515625,-29.625,-7.34375,-38.5625
125,125,1727899242280,-0.23535156,-0.8691406,0.4873047,-14.65625,-1.9375,-27.375
126,126,1727899242320,-0.13183594,-0.7998047,0.53515625,-11.6875,-8.53125,-13.53125
127,127,1727899242360,-0.1328125,-0.8251953,0.48535156,-9.78125,-27.4375,-4.0625
128,128,1727899242400,-0.16503906,-0.79589844,0.50390625,2.96875,-19.5,10.21875
129,129,1727899242440,-0.18261719,-0.84375,0.5234375,-3.9375,-21.46875,10.65625
130,130,1727899242480,-0.18945312,-0.85839844,0.47753906,-3.125,-23.96875,10.03125
131,131,1727899242520,-0.19238281,-0.8564453,0.5136719,-0.625,-22.375,15.21875
132,132,1727899242560,-0.16894531,-0.86621094,0.48242188,-1.0,-26.65625,18.34375
133,133,1727899242600,-0.1875,-0.8730469,0.4892578,-1.71875,-18.65625,18.875
134,134,1727899242640,-0.19726562,-0.8408203,0.5078125,-0.09375,-18.28125,17.40625
135,135,1727899242680,-0.22558594,-0.78125,0.51171875,10.96875,-14.1875,16.875
136,136,1727899242720,-0.19726562,-0.7578125,0.5205078,14.25,-2.34375,17.40625
137,137,1727899242760,-0.16796875,-0.7109375,0.50878906,39.21875,10.28125,27.5625
138,138,1727899242800,-0.21191406,-0.88964844,0.7402344,56.1875,-10.71875,36.15625
139,139,1727899242840,-0.4873047,-1.1054688,0.43945312,-41.09375,40.375,-12.0
140,140,1727899242880,-0.16503906,-0.7050781,0.49414062,-17.90625,20.71875,-25.5
141,141,1727899242920,-0.17871094,-0.7246094,0.5605469,19.6875,8.03125,-0.65625
142,142,1727899242960,-0.3017578,-0.8466797,0.6044922,10.28125,10.09375,5.5625
143,143,1727899243000,-0.26757812,-0.8232422,0.5605469,-8.5625,4.78125,-7.84375
144,144,1727899243040,-0.203125,-0.7675781,0.5673828,-3.5,1.96875,-4.375
145,145,1727899243080,-0.24414062,-0.7939453,0.5644531,-4.21875,3.125,2.09375
146,146,1727899243120,-0.25976562,-0.8183594,0.5576172,0.59375,-4.78125,4.125
147,147,1727899243160,-0.25195312,-0.8144531,0.55566406,-3.4375,-1.9375,2.34375
148,148,1727899243200,-0.25585938,-0.7919922,0.56347656,-7.71875,-4.125,2.53125
149,149,1727899243240,-0.24609375,-0.7890625,0.52441406,-0.8125,-7.40625,6.90625
150,150,1727899243280,-0.2607422,-0.8144531,0.5595703,0.21875,-2.90625,8.5
151,151,1727899243320,-0.26757812,-0.84765625,0.5283203,-4.40625,-4.78125,5.28125
152,152,1727899243360,-0.21191406,-0.8066406,0.5546875,2.65625,-1.3125,4.125
153,153,1727899243400,-0.24414062,-0.8173828,0.55371094,10.21875,16.4375,9.125
154,154,1727899243440,-0.265625,-0.80859375,0.5683594,13.34375,11.5,12.71875
155,155,1727899243480,-0.32714844,-0.79589844,0.53808594,10.46875,15.71875,9.46875
156,156,1727899243520,-0.3125,-0.76660156,0.57910156,11.875,15.96875,8.5
157,157,1727899243560,-0.30371094,-0.75390625,0.57714844,13.09375,12.21875,8.8125
158,158,1727899243600,-0.31445312,-0.7792969,0.625,14.03125,7.90625,13.03125
159,159,1727899243640,-0.36035156,-0.7919922,0.5722656,12.84375,4.375,12.59375
160,160,1727899243680,-0.3173828,-0.7607422,0.56640625,17.75,-0.40625,14.96875
161,161,1727899243720,-0.31640625,-0.72558594,0.5830078,25.78125,0.875,20.09375
162,162,1727899243760,-0.3095703,-0.6923828,0.63183594,14.8125,13.46875,17.34375
163,163,1727899243800,-0.3642578,-0.765625,0.68359375,-9.40625,14.6875,14.25
164,164,1727899243840,-0.34179688,-0.8300781,0.6796875,3.03125,18.875,14.25
165,165,1727899243880,-0.44433594,-0.9042969,0.6972656,2.40625,27.4375,24.0625
166,166,1727899243920,-0.50683594,-0.8388672,0.7050781,11.03125,28.78125,30.53125
167,167,1727899243960,-0.60546875,-0.81152344,0.70703125,17.625,42.375,33.84375
168,168,1727899244000,-0.5996094,-0.6689453,0.6386719,21.09375,49.40625,48.78125
169,169,1727899244040,-0.6269531,-0.6816406,0.6269531,17.1875,50.8125,58.3125
170,170,1727899244080,-0.6113281,-0.56933594,0.5839844,1.3125,54.78125,68.6875
171,171,1727899244120,-0.56152344,-0.5449219,0.5439453,0.28125,53.5,71.875
172,172,1727899244160,-0.66015625,-0.5126953,0.51464844,-5.5,52.53125,64.65625
173,173,1727899244200,-0.6845703,-0.4375,0.5078125,-10.21875,42.8125,62.8125
174,174,1727899244240,-0.7373047,-0.47558594,0.4189453,-18.34375,46.96875,68.1875
175,175,1727899244280,-0.78222656,-0.49804688,0.4013672,-11.0625,36.28125,69.1875
176,176,1727899244320,-0.77734375,-0.4453125,0.36132812,-9.84375,32.5,56.84375
177,177,1727899244360,-0.75878906,-0.328125,0.3466797,-15.71875,30.84375,51.59375
178,178,1727899244400,-0.82128906,-0.28808594,0.2841797,-11.875,24.8125,49.34375
179,179,1727899244440,-0.8925781,-0.30664062,0.32617188,-3.4375,7.03125,54.09375
180,180,1727899244480,-0.9042969,-0.35742188,0.28320312,-12.03125,24.3125,50.125
181,181,1727899244520,-0.859375,-0.32128906,0.3046875,5.90625,2.40625,32.96875
182,182,1727899244560,-0.9042969,-0.23730469,0.296875,10.59375,14.78125,30.1875
183,183,1727899244600,-0.9248047,-0.2109375,0.26953125,1.3125,12.34375,11.875
184,184,1727899244640,-0.8535156,-0.23535156,0.2939453,8.71875,16.75,4.84375
185,185,1727899244680,-0.85253906,-0.24707031,0.2939453,14.5,17.53125,6.90625
186,186,1727899244720,-0.91015625,-0.25683594,0.296875,9.625,20.34375,4.125
187,187,1727899244760,-0.9199219,-0.21679688,0.2626953,7.0,22.78125,-9.3125
188,188,1727899244800,-0.9121094,-0.16796875,0.21289062,9.5625,13.6875,-7.3125
189,189,1727899244840,-0.90722656,-0.17285156,0.18359375,7.0,16.9375,3.0625
190,190,1727899244880,-0.9326172,-0.16210938,0.24804688,12.625,16.625,4.0
191,191,1727899244920,-0.93066406,-0.20996094,0.22851562,0.65625,6.125,1.125
192,192,1727899244960,-0.9511719,-0.21777344,0.21679688,-0.15625,5.21875,1.125
193,193,1727899245000,-0.94433594,-0.23730469,0.20117188,9.125,-1.1875,0.21875
194,194,1727899245040,-0.93652344,-0.24609375,0.20703125,13.15625,4.0,-2.71875
195,195,1727899245080,-0.9248047,-0.25976562,0.20507812,15.84375,-2.46875,-5.15625
196,196,1727899245120,-0.9609375,-0.21679688,0.19335938,10.34375,9.78125,-14.5
197,197,1727899245160,-0.9423828,-0.19140625,0.1796875,21.34375,1.25,-12.0
198,198,1727899245200,-0.96875,-0.19335938,0.21386719,16.875,5.21875,-11.21875
199,199,1727899245240,-0.9785156,-0.20117188,0.19824219,14.25,-0.53125,-8.46875
200,200,1727899245280,-0.9667969,-0.22363281,0.22460938,21.46875,3.0625,-7.90625
201,201,1727899245320,-0.9628906,-0.25390625,0.23046875,24.8125,-0.28125,-10.21875
202,202,1727899245360,-0.9404297,-0.23828125,0.24121094,20.3125,-3.875,-15.65625
203,203,1727899245400,-0.92578125,-0.23144531,0.234375,19.09375,-16.09375,-14.375
204,204,1727899245440,-1.0556641,-0.23242188,0.20214844,223.125,-83.15625,-22.4375
205,205,1727899245480,-0.91015625,-0.23144531,0.5029297,51.96875,7.21875,-26.96875
206,206,1727899245520,-0.9169922,-0.20996094,0.2890625,-28.15625,7.71875,-6.5625
207,207,1727899245560,-0.9267578,-0.14453125,0.23339844,-52.8125,17.90625,3.9375
208,208,1727899245600,-1.0458984,-0.15429688,0.21386719,-44.5625,34.625,-1.9375
209,209,1727899245640,-1.0234375,-0.103515625,0.28027344,-5.09375,11.5,1.5625
210,210,1727899245680,-1.0195312,-0.08886719,0.24707031,10.0625,0.09375,2.65625
211,211,1727899245720,-1.0078125,-0.09082031,0.32226562,41.0625,-22.6875,5.46875
212,212,1727899245760,-0.99121094,-0.13476562,0.36816406,-4.0,-23.53125,6.75
213,213,1727899245800,-0.9550781,-0.13378906,0.33984375,-44.15625,-19.8125,9.96875
214,214,1727899245840,-1.0283203,0.0048828125,0.29296875,-79.0,-6.6875,10.8125
215,215,1727899245880,-0.9453125,-0.111328125,0.2841797,-109.15625,-8.28125,23.8125
216,216,1727899245920,-0.9033203,-0.19238281,0.2783203,-121.46875,-25.96875,30.28125
217,217,1727899245960,-0.8730469,-0.24414062,0.2919922,-123.25,-33.125,30.71875
218,218,1727899246000,-0.81152344,-0.35839844,0.33789062,-108.53125,-34.65625,30.65625
219,219,1727899246040,-0.7324219,-0.49902344,0.2890625,-97.5,-24.375,23.34375
220,220,1727899246080,-0.7783203,-0.49902344,0.3564453,-65.375,6.25,13.34375
221,221,1727899246120,-0.921875,-0.53027344,0.34765625,-49.40625,41.15625,3.9375
222,222,1727899246160,-0.9589844,-0.27929688,0.34179688,-68.75,33.71875,-5.40625
223,223,1727899246200,-0.92285156,-0.2841797,0.25976562,-66.125,12.0,5.28125
224,224,1727899246240,-0.9160156,-0.36035156,0.22851562,-31.6875,4.25,17.0
225,225,1727899246280,-1.0097656,-0.10839844,0.234375,-31.5625,16.6875,11.375
226,226,1727899246320,-0.9658203,-0.12207031,0.15722656,-30.0625,-7.84375,17.25
227,227,1727899246360,-0.9785156,-0.29296875,0.171875,-61.46875,-16.34375,15.59375
228,228,1727899246400,-0.89941406,-0.36816406,0.11816406,-89.25,-23.09375,3.6875
229,229,1727899246440,-0.9140625,-0.35253906,0.11425781,-76.0625,-9.5,-6.5625
230,230,1727899246480,-0.98535156,-0.2919922,0.05859375,-64.59375,-6.125,-5.71875
231,231,1727899246520,-0.98046875,-0.28125,0.043945312,-53.25,-10.03125,1.90625
232,232,1727899246560,-0.9658203,-0.37890625,-0.0009765625,-51.21875,-12.3125,7.46875
233,233,1727899246600,-0.9375,-0.390625,0.052734375,-51.78125,-3.6875,5.8125
234,234,1727899246640,-0.9638672,-0.41015625,0.08886719,-44.5625,-2.90625,2.71875
235,235,1727899246680,-0.9550781,-0.375,0.10058594,-45.6875,-15.21875,-2.65625
236,236,1727899246720,-0.94140625,-0.30371094,0.06347656,-48.0,-19.03125,-1.6875
237,237,1727899246760,-0.9433594,-0.3251953,0.06640625,-49.59375,-14.4375,4.65625
238,238,1727899246800,-0.97753906,-0.32617188,0.0625,-57.53125,-15.84375,7.59375
239,239,1727899246840,-0.96484375,-0.3466797,0.059570312,-56.84375,-17.90625,13.03125
240,240,1727899246880,-0.96484375,-0.37109375,0.109375,-52.875,-15.0625,15.78125
241,241,1727899246920,-0.9316406,-0.36816406,0.076171875,-47.5,-19.0625,17.46875
242,242,1727899246960,-0.9345703,-0.39160156,0.11816406,-46.40625,-17.5625,21.8125
243,243,1727899247000,-0.9404297,-0.3779297,0.123046875,-48.4375,-17.5625,19.5625
244,244,1727899247040,-0.9433594,-0.37304688,0.1015625,-49.71875,-20.96875,15.9375
245,245,1727899247080,-0.92871094,-0.37304688,0.095703125,-52.21875,-20.53125,16.4375
246,246,1727899247120,-0.97265625,-0.33691406,0.05859375,-52.15625,-24.625,17.53125
247,247,1727899247160,-0.96191406,-0.23730469,0.061523438,-47.9375,-20.65625,12.34375
248,248,1727899247200,-0.9316406,-0.23535156,0.0859375,-56.25,-30.125,8.6875
249,249,1727899247240,-0.9873047,-0.31152344,0.087890625,-57.6875,-36.21875,10.28125
250,250,1727899247280,-0.95996094,-0.29101562,0.17871094,-66.84375,-40.0625,2.28125
251,251,1727899247320,-0.93359375,-0.24902344,0.123046875,-94.75,-43.0625,-0.28125
252,252,1727899247360,-0.9277344,-0.21582031,0.15820312,-76.1875,-31.28125,10.34375
253,253,1727899247400,-0.9169922,-0.3330078,0.19433594,-43.90625,-35.6875,13.875
254,254,1727899247440,-0.91015625,-0.375,0.18847656,-35.125,-32.125,9.71875
255,255,1727899247480,-0.9511719,-0.328125,0.20800781,-32.75,-20.375,6.25
256,256,1727899247520,-0.9707031,-0.26953125,0.21777344,-22.0625,-17.90625,7.90625
257,257,1727899247560,-0.9824219,-0.23046875,0.21191406,-25.0,-15.71875,5.5625
258,258,1727899247600,-0.94628906,-0.24023438,0.16601562,-39.15625,-20.25,2.34375
259,259,1727899247640,-0.9160156,-0.3564453,0.22265625,-61.71875,-18.78125,-6.5625
260,260,1727899247680,-0.87890625,-0.24414062,0.20996094,-83.875,-24.15625,-16.6875
261,261,1727899247720,-0.87402344,-0.26367188,0.16992188,-74.96875,-30.375,-16.9375
262,262,1727899247760,-0.8330078,-0.3466797,0.1484375,-23.75,-39.59375,-0.15625
263,263,1727899247800,-0.7705078,-0.19238281,0.24316406,-10.59375,-27.625,4.96875
264,264,1727899247840,-0.9160156,-0.23144531,0.31347656,-69.96875,-2.53125,0.4375
265,265,1727899247880,-1.0214844,-0.3955078,0.27441406,-102.25,-12.5,-4.96875
266,266,1727899247920,-0.9667969,-0.51953125,0.13769531,-54.09375,-41.59375,5.53125
267,267,1727899247960,-0.8535156,-0.49414062,0.28515625,-28.9375,-47.75,18.28125
268,268,1727899248000,-0.90722656,-0.4091797,0.3251953,-45.0,-43.6875,17.71875
269,269,1727899248040,-0.9707031,-0.4326172,0.34570312,-44.15625,-34.03125,14.5
270,270,1727899248080,-0.98828125,-0.484375,0.37597656,-38.71875,-26.71875,9.53125
271,271,1727899248120,-0.9746094,-0.4501953,0.34472656,-36.46875,-17.125,4.46875
272,272,1727899248160,-0.9033203,-0.42578125,0.33007812,-33.15625,-3.09375,1.96875
273,273,1727899248200,-0.91308594,-0.40429688,0.3359375,-31.5,0.6875,0.875
274,274,1727899248240,-0.8623047,-0.40234375,0.25976562,-12.84375,-8.59375,7.15625
275,275,1727899248280,-0.8232422,-0.36035156,0.21875,0.78125,-10.46875,15.71875
276,276,1727899248320,-0.81640625,-0.3310547,0.23144531,-3.875,-12.65625,18.6875
277,277,1727899248360,-0.8017578,-0.37304688,0.26660156,-8.0625,-16.5625,19.625
278,278,1727899248400,-0.87402344,-0.44335938,0.3046875,-5.15625,-13.71875,17.25
279,279,1727899248440,-0.89746094,-0.46679688,0.31640625,-1.65625,-7.84375,7.59375
280,280,1727899248480,-0.8652344,-0.4169922,0.35253906,3.03125,-3.34375,0.21875
281,281,1727899248520,-0.88183594,-0.4091797,0.34375,5.65625,-0.53125,-3.34375
282,282,1727899248560,-0.88378906,-0.37402344,0.35253906,4.3125,7.40625,-6.09375
283,283,1727899248600,-0.91015625,-0.35058594,0.33398438,8.65625,9.59375,-6.4375
284,284,1727899248640,-0.9238281,-0.3515625,0.31054688,-2.40625,9.4375,-7.65625
285,285,1727899248680,-0.91503906,-0.38183594,0.28515625,-15.28125,3.0625,-6.9375
286,286,1727899248720,-0.89160156,-0.37695312,0.3076172,-2.59375,0.28125,-3.6875
287,287,1727899248760,-0.91015625,-0.375,0.3125,3.28125,0.21875,-3.53125
288,288,1727899248800,-0.90234375,-0.3828125,0.34765625,1.6875,-6.5,-4.0625
289,289,1727899248840,-0.8847656,-0.4033203,0.33007812,2.3125,-9.5,-4.875
290,290,1727899248880,-0.85253906,-0.43652344,0.31640625,1.1875,-7.78125,-6.375
291,291,1727899248920,-0.8222656,-0.4580078,0.32617188,9.625,-1.125,-7.78125
292,292,1727899248960,-0.82714844,-0.4326172,0.36914062,14.75,2.34375,-8.34375
293,293,1727899249000,-0.83496094,-0.42871094,0.34277344,29.875,3.03125,-3.53125
294,294,1727899249040,-0.80859375,-0.4404297,0.33007812,36.28125,7.53125,-2.53125
295,295,1727899249080,-0.8261719,-0.4248047,0.34375,39.65625,14.0625,-6.09375
296,296,1727899249120,-0.8623047,-0.3857422,0.32421875,34.03125,18.46875,-10.90625
297,297,1727899249160,-0.859375,-0.38085938,0.3486328,32.03125,17.375,-14.5625
298,298,1727899249200,-0.8798828,-0.3779297,0.3701172,23.65625,16.9375,-19.9375
299,299,1727899249240,-0.8515625,-0.390625,0.32421875,29.09375,12.90625,-18.59375
300,300,1727899249280,-0.8359375,-0.3935547,0.3359375,30.625,13.15625,-15.34375
301,301,1727899249320,-0.8232422,-0.3671875,0.33203125,24.625,12.40625,-12.5625
302,302,1727899249360,-0.79785156,-0.37402344,0.32910156,25.25,11.625,-5.65625
303,303,1727899249400,-0.79296875,-0.39453125,0.3125,26.65625,9.1875,1.4375
304,304,1727899249440,-0.79589844,-0.37109375,0.34472656,28.25,12.28125,3.1875
305,305,1727899249480,-0.83691406,-0.34375,0.35253906,30.1875,14.625,5.625
306,306,1727899249520,-0.86621094,-0.3564453,0.37109375,26.96875,15.78125,4.125
307,307,1727899249560,-0.9951172,-0.32617188,0.38867188,12.625,17.96875,-2.25
308,308,1727899249600,-0.9501953,-0.2841797,0.38183594,-11.375,6.3125,0.5625
309,309,1727899249640,-0.87597656,-0.2998047,0.38964844,-17.53125,-6.5625,6.1875
310,310,1727899249680,-0.9472656,-0.36621094,0.35253906,-5.6875,6.75,13.375
311,311,1727899249720,-0.97753906,-0.43066406,0.2998047,9.875,33.15625,10.59375
312,312,1727899249760,-0.9423828,-0.43066406,0.27246094,6.03125,41.09375,7.03125
313,313,1727899249800,-0.85546875,-0.4033203,0.15527344,10.34375,42.6875,3.9375
314,314,1727899249840,-0.80371094,-0.36328125,0.13378906,15.3125,34.875,3.4375
315,315,1727899249880,-0.89453125,-0.296875,0.1328125,-3.8125,36.59375,0.3125
316,316,1727899249920,-0.97753906,-0.2919922,0.123046875,-2.59375,28.65625,0.28125
317,317,1727899249960,-0.9501953,-0.30371094,0.06542969,-2.84375,25.71875,-4.625
318,318,1727899250000,-0.9423828,-0.22070312,0.064453125,-7.78125,21.5625,-9.3125
319,319,1727899250040,-1.0087891,-0.171875,0.05859375,-15.65625,11.8125,-1.5
320,320,1727899250080,-1.0185547,-0.22558594,0.0859375,-13.875,8.28125,6.25
321,321,1727899250120,-0.9902344,-0.25,0.0703125,-27.59375,4.375,5.34375
322,322,1727899250160,-0.93847656,-0.31445312,0.049804688,-41.28125,-1.5625,2.40625
323,323,1727899250200,-0.9707031,-0.3388672,0.072265625,-43.90625,-5.34375,1.5625
324,324,1727899250240,-0.99609375,-0.33007812,0.048828125,-48.46875,-8.8125,2.90625
325,325,1727899250280,-0.9609375,-0.34472656,0.047851562,-46.78125,-10.90625,6.6875
326,326,1727899250320,-0.9785156,-0.36816406,0.05859375,-51.34375,-10.53125,5.34375
327,327,1727899250360,-0.9628906,-0.3173828,0.001953125,-56.34375,-10.53125,1.1875
328,328,1727899250400,-0.9873047,-0.26464844,0.020507812,-59.46875,-15.53125,3.6875
329,329,1727899250440,-0.99121094,-0.25683594,0.0146484375,-72.71875,-23.78125,7.90625
330,330,1727899250480,-0.9580078,-0.28320312,-0.0087890625,-82.25,-28.1875,12.03125
331,331,1727899250520,-0.9433594,-0.34277344,-0.08105469,-89.0,-22.875,14.78125
332,332,1727899250560,-0.96191406,-0.34375,0.034179688,-65.8125,-21.75,20.90625
333,333,1727899250600,-0.9794922,-0.43164062,0.034179688,-65.5,-30.125,21.875
334,334,1727899250640,-0.9482422,-0.3984375,0.04296875,-88.46875,-22.1875,9.71875
335,335,1727899250680,-0.9785156,-0.3701172,0.045898438,-84.75,-21.03125,4.0625
336,336,1727899250720,-0.9902344,-0.2919922,0.07910156,-76.3125,-33.59375,6.96875
337,337,1727899250760,-0.9873047,-0.18164062,0.055664062,-104.15625,-54.0,15.34375
338,338,1727899250800,-0.9707031,-0.27539062,0.00390625,-128.375,-74.4375,26.21875
339,339,1727899250840,-0.9580078,-0.38085938,-0.0546875,-137.15625,-62.03125,25.40625
340,340,1727899250880,-0.9423828,-0.37304688,0.005859375,-103.59375,-29.46875,17.40625
341,341,1727899250920,-0.98046875,-0.27148438,0.12011719,-92.5,-34.9375,16.0625
342,342,1727899250960,-0.92871094,-0.31445312,0.0390625,-78.75,-48.0,25.0
343,343,1727899251000,-0.90234375,-0.27929688,0.07714844,-80.34375,-37.6875,15.90625
344,344,1727899251040,-0.9609375,-0.22753906,0.06542969,-22.46875,-5.90625,19.6875
345,345,1727899251080,-0.93652344,-0.33203125,0.12597656,-80.53125,-18.96875,10.21875
346,346,1727899251120,-0.9238281,-0.27148438,0.10839844,-87.65625,-36.46875,8.125
347,347,1727899251160,-0.89941406,-0.3515625,0.20605469,-61.59375,-5.40625,19.75
348,348,1727899251200,-0.93359375,-0.30566406,0.14257812,-57.34375,-33.1875,9.0
349,349,1727899251240,-0.9638672,-0.31835938,0.18652344,-14.59375,-8.03125,3.9375
350,350,1727899251280,-0.92089844,-0.2734375,0.15527344,-4.0,-9.5625,-3.59375
351,351,1727899251320,-0.9824219,-0.23339844,0.18554688,-9.375,-9.6875,-15.1875
352,352,1727899251360,-0.96972656,-0.2763672,0.24804688,-39.9375,-24.3125,-35.25
353,353,1727899251400,-0.9121094,-0.40722656,0.28125,-71.5625,-49.15625,-59.90625
354,354,1727899251440,-0.90527344,-0.61328125,0.23632812,-56.28125,-27.375,-75.90625
355,355,1727899251480,-0.8876953,-0.64160156,0.29882812,5.71875,-2.34375,-68.28125
356,356,1727899251520,-0.8105469,-0.6044922,0.1796875,62.34375,13.8125,-61.125
357,357,1727899251560,-0.8730469,-0.484375,0.20507812,74.5625,22.1875,-63.15625
358,358,1727899251600,-0.9199219,-0.453125,0.24902344,59.65625,11.9375,-75.21875
359,359,1727899251640,-0.75,-0.4716797,0.21386719,49.28125,11.1875,-66.8125
360,360,1727899251680,-0.60058594,-0.45410156,0.33496094,28.53125,9.0,-44.53125
361,361,1727899251720,-0.8984375,-0.6875,0.23144531,19.03125,17.46875,-33.59375
362,362,1727899251760,-0.81347656,-0.4736328,0.33398438,26.90625,-2.53125,-23.78125
363,363,1727899251800,-0.7011719,-0.49316406,0.21484375,32.9375,-1.0625,-11.40625
364,364,1727899251840,-0.73339844,-0.43359375,0.34765625,21.65625,-18.03125,12.71875
365,365,1727899251880,-0.71875,-0.3486328,0.31640625,-4.96875,-35.875,23.46875
366,366,1727899251920,-0.71875,-0.4169922,0.3046875,1.0625,-44.28125,28.53125
367,367,1727899251960,-0.7109375,-0.62109375,0.32617188,-9.78125,-18.53125,12.0
368,368,1727899252000,-0.6376953,-0.7207031,0.38378906,12.3125,-0.9375,14.71875
369,369,1727899252040,-0.6845703,-0.62109375,0.3623047,19.03125,27.8125,-0.78125
370,370,1727899252080,-0.8359375,-0.6074219,0.40429688,25.4375,45.1875,-3.53125
371,371,1727899252120,-0.80566406,-0.515625,0.33691406,26.21875,44.59375,-3.875
372,372,1727899252160,-0.7919922,-0.45117188,0.2939453,36.40625,46.96875,-8.9375
373,373,1727899252200,-0.79003906,-0.14355469,0.46289062,-8.5,29.1875,-2.53125
374,374,1727899252240,-0.70996094,-0.3701172,0.44726562,-89.8125,-3.75,-14.875
375,375,1727899252280,-1.0146484,-0.89453125,0.3388672,-53.4375,-30.3125,1.1875
376,376,1727899252320,-0.7910156,-0.4873047,0.31835938,-38.46875,-62.03125,-17.75
377,377,1727899252360,-0.7324219,-0.43359375,0.4814453,-47.3125,-94.03125,1.65625
378,378,1727899252400,-0.90234375,-0.6894531,0.17871094,5.65625,-83.28125,31.53125
379,379,1727899252440,-0.7480469,-0.88964844,0.16699219,-41.59375,8.5,1.71875
380,380,1727899252480,-0.8808594,-0.71972656,0.26660156,14.125,12.40625,18.5625
381,381,1727899252520,-0.9863281,-0.49902344,0.28125,67.125,24.5625,23.34375
382,382,1727899252560,-0.85839844,-0.36523438,0.35058594,81.875,23.90625,22.78125
383,383,1727899252600,-0.9042969,-0.41015625,0.17480469,84.5,26.625,23.21875
384,384,1727899252640,-0.78222656,-0.34277344,0.15332031,85.84375,39.40625,22.0625
385,385,1727899252680,-0.79296875,-0.33398438,0.22167969,90.875,44.53125,21.25
386,386,1727899252720,-0.82910156,-0.36816406,0.24121094,89.46875,40.3125,1.4375
387,387,1727899252760,-0.7548828,-0.31347656,0.27246094,88.40625,23.15625,-21.40625
388,388,1727899252800,-0.796875,-0.24121094,0.22070312,57.84375,14.6875,-25.71875
389,389,1727899252840,-0.9267578,-0.19238281,0.20703125,47.28125,5.15625,-27.5
390,390,1727899252880,-0.8769531,-0.1015625,0.19335938,47.71875,-6.5,-47.03125
391,391,1727899252920,-0.83691406,-0.1640625,0.23046875,30.375,-2.78125,-60.71875
392,392,1727899252960,-0.68652344,-0.265625,0.32128906,12.75,-25.5625,-83.21875
393,393,1727899253000,-0.6689453,-0.45410156,0.28027344,-31.5625,-41.21875,-64.84375
394,394,1727899253040,-0.6826172,-0.5576172,0.31835938,-36.34375,-55.53125,-49.125
395,395,1727899253080,-0.7089844,-0.65722656,0.3828125,-45.75,-52.53125,-69.625
396,396,1727899253120,-0.9082031,-0.8144531,0.55566406,-5.75,-68.15625,-85.78125
397,397,1727899253160,-0.8144531,-0.84375,0.9042969,24.21875,-125.53125,-115.28125
398,398,1727899253200,-0.38085938,-1.0224609,0.9296875,4.96875,-78.96875,-123.375
399,399,1727899253240,-0.45410156,-1.1220703,0.66796875,-5.6875,-46.53125,-60.65625
400,400,1727899253280,-0.296875,-0.9453125,0.484375,6.3125,-26.84375,-59.375
401,401,1727899253320,-0.20507812,-0.73535156,0.5527344,-52.4375,8.15625,-70.59375
402,402,1727899253360,-0.125,-0.6386719,0.6152344,-6.5625,-23.21875,-61.875
403,403,1727899253400,-0.005859375,-0.6845703,0.57421875,1.5,-38.59375,-43.125
404,404,1727899253440,-0.27148438,-0.9707031,0.6455078,-7.65625,-23.96875,-23.53125
405,405,1727899253480,-0.29589844,-0.95410156,0.6074219,3.46875,-40.5625,-20.375
406,406,1727899253520,-0.16503906,-0.71191406,0.6035156,-20.34375,-15.96875,-23.40625
407,407,1727899253560,-0.17089844,-0.72753906,0.6328125,4.9375,-30.75,-6.75
408,408,1727899253600,-0.13378906,-0.7792969,0.6044922,5.59375,-37.5,6.84375
409,409,1727899253640,-0.09765625,-0.8251953,0.5810547,-8.125,-29.875,5.5625
410,410,1727899253680,-0.0078125,-0.8105469,0.5996094,0.21875,-33.46875,3.375
411,411,1727899253720,-0.026367188,-0.8261719,0.62890625,-3.3125,-32.6875,5.15625
412,412,1727899253760,-0.09277344,-0.8457031,0.59472656,-1.78125,-22.5625,3.75
413,413,1727899253800,-0.083984375,-0.7763672,0.609375,0.09375,-25.71875,8.5
414,414,1727899253840,-0.06347656,-0.765625,0.57714844,-5.5625,-25.3125,13.875
415,415,1727899253880,-0.030273438,-0.7861328,0.59472656,-8.0625,-17.5625,13.09375
416,416,1727899253920,-0.0078125,-0.8095703,0.58984375,-3.6875,-11.625,13.34375
417,417,1727899253960,-0.078125,-0.8466797,0.5908203,-4.90625,-3.40625,7.59375
418,418,1727899254000,-0.08300781,-0.79003906,0.5751953,-4.90625,-3.03125,10.59375
419,419,1727899254040,-0.10449219,-0.78515625,0.6015625,-2.15625,-2.78125,14.65625
420,420,1727899254080,-0.10449219,-0.8066406,0.5654297,-0.4375,-11.15625,15.71875
421,421,1727899254120,-0.17089844,-0.84472656,0.5761719,-4.84375,-7.0625,13.5
422,422,1727899254160,-0.16894531,-0.79003906,0.6074219,-3.75,-15.59375,9.3125
423,423,1727899254200,-0.14941406,-0.80371094,0.5761719,2.34375,-18.84375,10.71875
424,424,1727899254240,-0.10449219,-0.75390625,0.640625,-3.875,-22.25,12.0
425,425,1727899254280,-0.09667969,-0.7841797,0.61035156,-5.15625,-26.03125,12.84375
426,426,1727899254320,-0.10253906,-0.7910156,0.5830078,-4.0,-24.4375,20.96875
427,427,1727899254360,-0.07324219,-0.73339844,0.5830078,3.28125,-26.03125,26.4375
428,428,1727899254400,-0.11816406,-0.76660156,0.6621094,4.8125,-35.3125,32.8125
429,429,1727899254440,-0.17773438,-0.90625,0.5800781,0.46875,-36.53125,32.4375
430,430,1727899254480,-0.09375,-0.8095703,0.5644531,7.0,-20.46875,23.75
431,431,1727899254520,0.16113281,-0.8046875,0.50683594,54.1875,-62.71875,19.625
432,432,1727899254560,-0.06640625,-0.6015625,0.8798828,50.46875,-60.15625,42.0
433,433,1727899254600,-0.18359375,-0.87402344,0.58496094,10.90625,-0.59375,27.125
434,434,1727899254640,-0.11425781,-0.82128906,0.6953125,8.53125,-20.78125,21.5625
435,435,1727899254680,-0.11230469,-0.7861328,0.71484375,12.4375,-19.5625,13.4375
436,436,1727899254720,-0.09375,-0.7001953,0.6894531,9.3125,-8.6875,11.4375
437,437,1727899254760,-0.123046875,-0.6738281,0.6611328,14.375,-15.71875,17.0625
438,438,1727899254800,-0.15136719,-0.6933594,0.7236328,16.40625,-18.90625,24.375
439,439,1727899254840,-0.18945312,-0.7519531,0.7421875,17.625,-17.78125,26.75
440,440,1727899254880,-0.12109375,-0.6767578,0.75390625,12.0,-18.59375,19.6875
441,441,1727899254920,-0.07421875,-0.62597656,0.73535156,11.46875,-17.84375,16.375
442,442,1727899254960,-0.08886719,-0.6425781,0.7451172,0.90625,-20.0625,18.28125
443,443,1727899255000,-0.107421875,-0.6816406,0.7636719,0.21875,-18.34375,19.625
444,444,1727899255040,-0.103515625,-0.6738281,0.7548828,0.65625,-8.65625,20.15625
445,445,1727899255080,-0.12988281,-0.68652344,0.7451172,-2.53125,4.0,15.90625
446,446,1727899255120,-0.16992188,-0.6455078,0.7705078,-18.5625,5.53125,13.9375
447,447,1727899255160,-0.20605469,-0.61328125,0.765625,-39.21875,-4.4375,8.3125
448,448,1727899255200,-0.15917969,-0.78125,0.73046875,-45.0,-8.9375,3.375
449,449,1727899255240,-0.12109375,-0.7734375,0.67871094,-26.4375,0.34375,1.625
450,450,1727899255280,-0.08496094,-0.71972656,0.66503906,-20.71875,0.15625,-1.5625
451,451,1727899255320,-0.107421875,-0.71875,0.6845703,-16.1875,2.53125,1.125
452,452,1727899255360,-0.15332031,-0.7138672,0.69433594,-9.25,-10.71875,15.46875
453,453,1727899255400,-0.13671875,-0.7421875,0.6669922,-8.6875,-18.34375,20.78125
454,454,1727899255440,-0.16992188,-0.80859375,0.6611328,-27.5,-18.71875,20.03125
455,455,1727899255480,-0.13085938,-0.7685547,0.6347656,-18.34375,-12.59375,16.875
456,456,1727899255520,-0.16503906,-0.7636719,0.61035156,-18.09375,-14.625,11.125
457,457,1727899255560,-0.1171875,-0.7705078,0.66503906,-0.15625,-8.65625,16.875
458,458,1727899255600,-0.11035156,-0.765625,0.6298828,-1.0,-11.25,19.0625
459,459,1727899255640,-0.12207031,-0.7314453,0.6386719,8.71875,-5.59375,23.09375
460,460,1727899255680,-0.14941406,-0.72753906,0.6435547,7.65625,-11.5625,19.6875
461,461,1727899255720,-0.1484375,-0.7480469,0.6855469,8.40625,-12.65625,26.4375
462,462,1727899255760,-0.14550781,-0.7548828,0.67285156,4.75,-3.28125,31.6875
463,463,1727899255800,-0.16992188,-0.75,0.671875,-3.125,0.5,29.0
464,464,1727899255840,-0.15722656,-0.7529297,0.6455078,-0.6875,7.09375,26.28125
465,465,1727899255880,-0.16503906,-0.73339844,0.6533203,-1.4375,12.71875,25.84375
466,466,1727899255920,-0.25097656,-0.75878906,0.69140625,-9.3125,22.5,21.3125
467,467,1727899255960,-0.2705078,-0.7636719,0.68066406,-0.4375,16.75,14.84375
468,468,1727899256000,-0.2734375,-0.7421875,0.6220703,-0.625,17.90625,16.0
469,469,1727899256040,-0.3095703,-0.703125,0.6455078,-7.53125,24.375,24.6875
470,470,1727899256080,-0.3076172,-0.7294922,0.5859375,-1.78125,26.03125,24.5625
471,471,1727899256120,-0.3642578,-0.8642578,0.6826172,-10.21875,35.5,22.59375
472,472,1727899256160,-0.3876953,-0.85058594,0.75097656,-20.71875,34.21875,19.96875
473,473,1727899256200,-0.49121094,-0.80371094,0.7060547,1.03125,34.3125,33.90625
474,474,1727899256240,-0.53125,-0.7109375,0.6425781,-1.5625,31.53125,40.3125
475,475,1727899256280,-0.54296875,-0.7324219,0.6044922,-22.40625,44.71875,46.59375
476,476,1727899256320,-0.5917969,-0.7871094,0.5185547,-48.0625,60.875,53.4375
477,477,1727899256360,-0.5996094,-0.8173828,0.4921875,-58.0,72.40625,48.84375
478,478,1727899256400,-0.6279297,-0.68847656,0.4345703,-37.4375,63.9375,44.40625
479,479,1727899256440,-0.67871094,-0.6386719,0.4140625,-27.90625,53.625,48.25
480,480,1727899256480,-0.7597656,-0.625,0.37402344,-22.84375,37.4375,50.875
481,481,1727899256520,-0.7470703,-0.5703125,0.3232422,-25.09375,34.03125,61.4375
482,482,1727899256560,-0.67285156,-0.4970703,0.2705078,-41.59375,20.53125,60.75
483,483,1727899256600,-0.66503906,-0.58496094,0.2626953,-31.625,12.71875,61.5
484,484,1727899256640,-0.7480469,-0.6425781,0.3125,-3.1875,-27.5625,42.375
485,485,1727899256680,-0.79785156,-0.65527344,0.32714844,13.96875,7.65625,43.46875
486,486,1727899256720,-0.83984375,-0.51464844,0.27929688,8.03125,16.375,41.78125
487,487,1727899256760,-0.7919922,-0.39453125,0.21289062,10.65625,29.5,21.5625
488,488,1727899256800,-0.70410156,-0.3935547,0.22558594,17.8125,16.8125,20.46875
489,489,1727899256840,-0.79589844,-0.4736328,0.27246094,19.5625,14.1875,25.59375
490,490,1727899256880,-0.86816406,-0.46679688,0.24121094,0.03125,25.59375,7.59375
491,491,1727899256920,-0.70703125,-0.42285156,0.20117188,13.28125,14.5625,-2.71875
492,492,1727899256960,-0.7294922,-0.39160156,0.19726562,1.5625,33.03125,12.21875
493,493,1727899257000,-0.8779297,-0.4326172,0.13574219,-22.0,34.4375,25.34375
494,494,1727899257040,-0.93652344,-0.32617188,0.099609375,24.46875,36.59375,2.03125
495,495,1727899257080,-0.8730469,-0.29101562,0.14746094,25.6875,35.96875,7.59375
496,496,1727899257120,-0.9423828,-0.26757812,0.072265625,7.0,32.1875,4.34375
497,497,1727899257160,-0.9248047,-0.3095703,0.07421875,-6.90625,16.03125,-3.28125
498,498,1727899257200,-0.9140625,-0.33398438,0.083984375,-7.09375,-5.28125,-3.03125
499,499,1727899257240,-0.9394531,-0.37597656,0.080078125,-14.1875,-6.9375,-6.5
500,500,1727899257280,-0.8955078,-0.4267578,0.078125,-10.40625,-4.75,-6.4375
501,501,1727899257320,-0.88671875,-0.453125,0.07714844,-5.46875,-0.15625,-7.96875
502,502,1727899257360,-0.89746094,-0.46484375,0.072265625,-0.625,0.6875,-5.40625
503,503,1727899257400,-0.91308594,-0.46875,0.07324219,8.34375,8.21875,-2.40625
504,504,1727899257440,-0.9267578,-0.453125,0.08691406,12.125,13.75,0.9375
505,505,1727899257480,-0.93066406,-0.37109375,0.095703125,5.96875,11.625,1.5
506,506,1727899257520,-0.93847656,-0.30664062,0.08984375,-10.09375,2.59375,6.84375
507,507,1727899257560,-0.95703125,-0.29492188,0.06738281,-31.40625,-8.34375,16.0625
508,508,1727899257600,-0.9169922,-0.41992188,0.046875,-68.25,-18.21875,21.75
509,509,1727899257640,-0.9404297,-0.39746094,0.07910156,-90.96875,-21.875,19.375
510,510,1727899257680,-0.9091797,-0.46484375,0.08496094,-71.0,-27.4375,19.96875
511,511,1727899257720,-0.8388672,-0.53027344,0.041992188,-57.75,-33.96875,26.15625
512,512,1727899257760,-0.828125,-0.5830078,0.0390625,-51.65625,-28.125,32.4375
513,513,1727899257800,-0.8564453,-0.55566406,0.041015625,-44.8125,-18.28125,34.8125
514,514,1727899257840,-0.875,-0.55371094,0.08105469,-35.65625,-13.21875,29.875
515,515,1727899257880,-0.85253906,-0.52246094,0.109375,-33.53125,-15.59375,11.8125
516,516,1727899257920,-0.8339844,-0.44140625,0.13183594,-20.59375,-16.625,-1.5625
517,517,1727899257960,-0.9628906,-0.4794922,0.119140625,3.09375,-15.59375,0.28125
518,518,1727899258000,-1.015625,-0.39941406,0.10644531,13.90625,-10.96875,-5.53125
519,519,1727899258040,-1.0478516,-0.2626953,0.119140625,24.5625,-10.46875,-9.3125
520,520,1727899258080,-1.0097656,-0.33007812,0.15039062,18.65625,-12.125,-17.96875
521,521,1727899258120,-1.0087891,-0.33691406,0.076171875,-6.375,-13.28125,-33.375
522,522,1727899258160,-1.1201172,-0.16796875,0.22167969,-2.53125,-0.53125,-41.125
523,523,1727899258200,-1.0673828,-0.07714844,0.12792969,-1.65625,-25.375,-27.6875
524,524,1727899258240,-1.0107422,-0.15722656,0.20996094,-11.25,-21.6875,-12.0625
525,525,1727899258280,-1.0546875,-0.37304688,0.40234375,-91.5625,-85.1875,-24.9375
526,526,1727899258320,-0.9873047,-0.5878906,0.23339844,-59.84375,-26.34375,-42.46875
527,527,1727899258360,-0.68652344,-0.33789062,0.12988281,-15.34375,-27.125,-32.5
528,528,1727899258400,-0.5205078,-0.33007812,0.15136719,9.4375,-5.28125,0.28125
529,529,1727899258440,-0.4453125,-0.3984375,0.16699219,-32.375,11.8125,19.75
530,530,1727899258480,-0.4951172,-0.5498047,0.1015625,-16.0625,8.375,50.625
531,531,1727899258520,-0.7832031,-0.7402344,0.24804688,47.21875,15.65625,53.375
532,532,1727899258560,-1.4277344,-0.5566406,0.52734375,-19.1875,42.75,-32.375
533,533,1727899258600,-1.5839844,-0.2841797,0.43554688,-79.1875,-1.0,-42.875
534,534,1727899258640,-0.57128906,-0.022460938,0.0625,-45.6875,-83.21875,-15.3125
535,535,1727899258680,-0.8876953,-0.5185547,-0.059570312,76.6875,-22.3125,55.25
536,536,1727899258720,-1.0371094,-0.609375,0.026367188,20.1875,55.1875,15.9375
537,537,1727899258760,-0.9951172,-0.39746094,-0.0107421875,30.8125,41.59375,22.25
538,538,1727899258800,-0.8671875,-0.15527344,0.057617188,18.84375,37.625,20.21875
539,539,1727899258840,-0.8955078,-0.33984375,0.0107421875,-7.46875,10.9375,14.4375
540,540,1727899258880,-0.90625,-0.4189453,0.0390625,-37.375,14.90625,14.5625
541,541,1727899258920,-0.99316406,-0.3232422,0.10449219,-29.625,1.90625,16.75
542,542,1727899258960,-0.9736328,-0.32617188,0.052734375,-26.875,-2.46875,10.75
543,543,1727899259000,-0.94921875,-0.4033203,-0.0068359375,-30.96875,3.25,5.28125
544,544,1727899259040,-0.90527344,-0.42773438,0.034179688,-17.96875,3.125,-0.40625
545,545,1727899259080,-0.9423828,-0.23828125,0.0048828125,-16.625,-11.875,1.4375
546,546,1727899259120,-0.9169922,-0.27539062,-0.056640625,-51.90625,-10.46875,7.28125
547,547,1727899259160,-0.8828125,-0.4326172,0.021484375,-48.65625,-13.40625,7.90625
548,548,1727899259200,-0.9716797,-0.45996094,0.109375,-34.875,7.03125,-10.90625
549,549,1727899259240,-0.890625,-0.63671875,0.07910156,-19.3125,11.375,1.96875
550,550,1727899259280,-0.76171875,-0.5097656,0.025390625,24.46875,9.1875,13.4375
551,551,1727899259320,-0.9511719,-0.3798828,0.02734375,23.0625,13.5625,7.84375
552,552,1727899259360,-1.0341797,-0.22070312,0.08496094,-6.3125,-4.375,-1.625
553,553,1727899259400,-0.96777344,-0.21972656,0.04296875,-24.1875,-1.5625,-5.15625
554,554,1727899259440,-0.99316406,-0.4111328,0.08300781,-11.25,-2.90625,-2.65625
555,555,1727899259480,-0.9453125,-0.45214844,0.076171875,-11.0625,-6.375,4.1875
556,556,1727899259520,-0.9355469,-0.35058594,-0.0048828125,-1.0,-0.34375,19.8125
557,557,1727899259560,-0.9501953,-0.29785156,0.0146484375,-1.375,5.65625,22.0
558,558,1727899259600,-1.0175781,-0.40234375,0.032226562,-6.78125,5.53125,13.03125
559,559,1727899259640,-0.97265625,-0.3935547,0.049804688,-4.84375,7.46875,9.25
560,560,1727899259680,-0.9394531,-0.30859375,0.02734375,6.03125,0.6875,13.6875
561,561,1727899259720,-0.9433594,-0.28515625,0.01171875,8.84375,-1.4375,16.9375
562,562,1727899259760,-0.9394531,-0.25976562,0.0107421875,0.34375,1.3125,11.5625
563,563,1727899259800,-0.9873047,-0.28710938,0.0146484375,-6.90625,-1.75,6.75
564,564,1727899259840,-0.9824219,-0.28515625,0.020507812,-6.375,-2.40625,5.5625
565,565,1727899259880,-0.9472656,-0.2626953,0.0,-0.4375,2.34375,6.96875
566,566,1727899259920,-0.93847656,-0.2626953,0.026367188,4.4375,-0.875,10.65625
567,567,1727899259960,-1.0439453,-0.23242188,-0.00390625,1.3125,-1.125,11.625
568,568,1727899260000,-1.0214844,-0.20117188,-0.0009765625,-6.5,-1.1875,7.84375
569,569,1727899260040,-0.9707031,-0.18457031,-0.005859375,-10.6875,-2.78125,9.125
570,570,1727899260080,-0.9296875,-0.22558594,0.0146484375,-11.8125,-4.125,13.03125
571,571,1727899260120,-0.94628906,-0.265625,0.0078125,-12.78125,-4.375,13.09375
572,572,1727899260160,-0.9482422,-0.25195312,-0.0078125,-9.3125,-1.8125,7.96875
573,573,1727899260200,-0.9404297,-0.28027344,0.0048828125,-5.40625,0.75,6.6875
574,574,1727899260240,-0.94433594,-0.2548828,-0.00390625,0.34375,3.4375,7.03125
575,575,1727899260280,-0.9873047,-0.25976562,-0.00390625,7.375,6.75,-1.0
576,576,1727899260320,-0.93652344,-0.23046875,0.0078125,6.21875,7.40625,-16.03125
577,577,1727899260360,-0.9169922,-0.22753906,-0.0087890625,5.71875,3.875,-23.90625
578,578,1727899260400,-0.9355469,-0.2265625,0.021484375,0.53125,2.21875,-23.125
579,579,1727899260440,-0.99121094,-0.25097656,0.0146484375,-4.71875,0.03125,-10.46875
580,580,1727899260480,-1.0175781,-0.27539062,0.0009765625,-3.125,0.875,5.28125
581,581,1727899260520,-1.0449219,-0.2939453,-0.020507812,0.71875,5.34375,7.46875
582,582,1727899260560,-1.0195312,-0.29589844,-0.0078125,3.59375,3.75,1.375
583,583,1727899260600,-0.9589844,-0.2626953,-0.026367188,1.6875,1.6875,1.375
584,584,1727899260640,-0.9873047,-0.2548828,-0.0126953125,-3.4375,3.125,6.5
585,585,1727899260680,-1.0146484,-0.25878906,-0.01953125,-7.78125,4.65625,4.46875
586,586,1727899260720,-0.9716797,-0.28222656,-0.015625,-6.625,-0.84375,2.09375
587,587,1727899260760,-0.9423828,-0.2939453,-0.01953125,-5.6875,-3.15625,1.25
588,588,1727899260800,-0.96777344,-0.26953125,-0.01953125,-6.90625,-1.5625,1.3125
589,589,1727899260840,-0.984375,-0.26757812,-0.01171875,-4.125,-3.9375,2.46875
590,590,1727899260880,-1.0,-0.27441406,-0.0009765625,-2.09375,-3.09375,3.0
591,591,1727899260920,-0.9785156,-0.2705078,-0.001953125,1.75,-5.71875,1.96875
592,592,1727899260960,-0.96484375,-0.2607422,-0.028320312,3.53125,-5.21875,2.71875
593,593,1727899261000,-0.96972656,-0.24707031,0.005859375,-0.09375,-4.5,2.9375
594,594,1727899261040,-0.9707031,-0.2783203,-0.0126953125,-3.875,1.3125,0.625
595,595,1727899261080,-0.9794922,-0.29492188,0.005859375,0.28125,-1.3125,0.03125
596,596,1727899261120,-0.96972656,-0.28320312,0.0087890625,4.3125,-2.84375,1.5625
597,597,1727899261160,-0.96972656,-0.2763672,0.00390625,5.90625,-2.0,-2.65625
598,598,1727899261200,-0.9511719,-0.26953125,0.005859375,4.4375,-2.40625,-5.28125
599,599,1727899261240,-0.95996094,-0.28125,0.020507812,4.6875,-3.8125,-4.75
600,600,1727899261280,-0.98535156,-0.25976562,0.0087890625,5.84375,-4.375,-0.59375
601,601,1727899261320,-1.0,-0.2705078,0.0009765625,7.25,-1.375,-2.28125
602,602,1727899261360,-0.94921875,-0.23242188,0.0068359375,8.71875,-3.625,-3.40625
603,603,1727899261400,-1.0009766,-0.2548828,0.020507812,0.90625,-1.8125,1.96875
604,604,1727899261440,-0.984375,-0.24511719,-0.0107421875,2.125,-4.0625,-1.1875
605,605,1727899261480,-1.0136719,-0.22558594,0.0107421875,1.875,-3.03125,1.90625
606,606,1727899261520,-0.98828125,-0.21972656,0.022460938,-4.90625,0.40625,8.3125
607,607,1727899261560,-0.9453125,-0.23535156,-0.0126953125,-6.25,1.4375,9.84375
608,608,1727899261600,-0.9667969,-0.2783203,0.03125,-4.15625,-4.375,13.8125
609,609,1727899261640,-0.9824219,-0.27246094,0.021484375,-7.71875,-4.25,9.78125
610,610,1727899261680,-0.9394531,-0.24804688,-0.00390625,-5.625,-3.03125,2.59375
611,611,1727899261720,-0.9296875,-0.23535156,-0.0068359375,-4.71875,-1.4375,0.21875
612,612,1727899261760,-0.9716797,-0.25976562,0.0068359375,-5.46875,2.03125,0.3125
613,613,1727899261800,-0.95996094,-0.23339844,0.015625,-2.15625,0.625,-0.40625
614,614,1727899261840,-0.984375,-0.22167969,0.015625,-2.21875,1.1875,2.65625
615,615,1727899261880,-0.9873047,-0.25585938,0.018554688,-1.78125,-0.03125,1.0
616,616,1727899261920,-0.96191406,-0.23535156,0.0029296875,-2.71875,-1.6875,-3.21875
617,617,1727899261960,-0.9824219,-0.2265625,0.0087890625,-4.34375,-1.0625,-4.25
618,618,1727899262000,-0.9794922,-0.22949219,0.01953125,-3.9375,0.46875,-5.09375
619,619,1727899262040,-0.9980469,-0.22265625,0.016601562,-3.6875,2.40625,-6.15625
620,620,1727899262080,-0.9707031,-0.23925781,0.0146484375,-5.9375,0.15625,-4.5625
621,621,1727899262120,-0.98046875,-0.26660156,0.045898438,-7.03125,-5.96875,-1.4375
622,622,1727899262160,-0.9824219,-0.25976562,0.01953125,-3.5,-5.46875,-3.09375
623,623,1727899262200,-0.953125,-0.26953125,0.0146484375,-0.3125,-2.96875,-2.40625
624,624,1727899262240,-0.9765625,-0.26171875,0.0234375,1.125,-1.875,-2.0625
625,625,1727899262280,-0.9658203,-0.2529297,0.029296875,-0.4375,-0.40625,-5.96875
626,626,1727899262320,-0.97558594,-0.25390625,0.036132812,0.15625,-1.3125,-7.78125
627,627,1727899262360,-0.97558594,-0.27734375,0.041015625,1.5625,-5.28125,-5.09375
628,628,1727899262400,-0.98046875,-0.27539062,0.036132812,-0.15625,-4.96875,-4.5625
629,629,1727899262440,-0.98339844,-0.30078125,0.024414062,1.375,-4.78125,-5.40625
630,630,1727899262480,-0.99902344,-0.2890625,0.02734375,2.84375,-7.25,-6.375
631,631,1727899262520,-0.9873047,-0.2998047,0.041015625,0.40625,-6.0625,-5.59375
632,632,1727899262560,-0.96972656,-0.2763672,0.040039062,-1.125,-7.84375,-6.1875
633,633,1727899262600,-0.96972656,-0.26757812,0.049804688,-5.625,-6.625,-7.0625
634,634,1727899262640,-0.9736328,-0.27539062,0.053710938,-12.65625,-6.0625,-5.21875
635,635,1727899262680,-0.9746094,-0.34179688,0.056640625,-16.9375,-8.53125,0.8125
636,636,1727899262720,-0.9892578,-0.33007812,0.08984375,-16.4375,-11.6875,-2.25
637,637,1727899262760,-0.9472656,-0.31933594,0.087890625,-20.59375,-19.6875,-6.3125
638,638,1727899262800,-0.92578125,-0.3310547,0.07714844,-26.28125,-21.15625,-5.09375
639,639,1727899262840,-0.9453125,-0.3408203,0.08203125,-24.75,-21.28125,1.0625
640,640,1727899262880,-0.9189453,-0.35253906,0.0859375,-27.125,-20.3125,-0.09375
641,641,1727899262920,-0.9482422,-0.36621094,0.09667969,-22.3125,-20.1875,-1.9375
642,642,1727899262960,-0.94140625,-0.34472656,0.09472656,-24.8125,-19.875,-6.75
643,643,1727899263000,-0.9511719,-0.31933594,0.10839844,-24.75,-19.8125,-7.0
644,644,1727899263040,-0.9794922,-0.2626953,0.07910156,-29.6875,-18.96875,-8.59375
645,645,1727899263080,-1.0058594,-0.27441406,0.09082031,-34.4375,-23.78125,-6.3125
646,646,1727899263120,-1.0654297,-0.2529297,0.14550781,-48.4375,-24.8125,-5.65625
647,647,1727899263160,-0.98046875,-0.22851562,0.140625,-53.625,-41.46875,2.9375
648,648,1727899263200,-0.9082031,-0.24902344,0.16503906,-53.4375,-49.65625,16.0625
649,649,1727899263240,-0.82421875,-0.32128906,0.13378906,-47.5,-43.90625,20.46875
650,650,1727899263280,-0.86621094,-0.37402344,0.18554688,-49.8125,-28.90625,16.0625
651,651,1727899263320,-0.95996094,-0.38964844,0.2529297,-43.0,-29.5625,6.84375
652,652,1727899263360,-0.95214844,-0.32910156,0.30664062,-37.375,-49.78125,17.0625
653,653,1727899263400,-0.9589844,-0.2763672,0.24609375,-30.71875,-61.1875,30.71875
654,654,1727899263440,-0.9277344,-0.23242188,0.2919922,-25.46875,-43.84375,40.1875
655,655,1727899263480,-0.91308594,-0.2783203,0.3154297,-27.5,-32.9375,45.8125
656,656,1727899263520,-0.89453125,-0.2705078,0.28808594,-37.0,-23.71875,47.9375
657,657,1727899263560,-0.90527344,-0.21582031,0.34765625,-24.5625,-15.84375,46.15625
658,658,1727899263600,-0.890625,-0.12695312,0.33398438,-22.40625,-20.1875,40.4375
659,659,1727899263640,-0.8876953,-0.13476562,0.23925781,-34.09375,-21.40625,30.96875
660,660,1727899263680,-0.8955078,-0.07519531,0.36816406,-50.0,-13.65625,32.6875
661,661,1727899263720,-0.8857422,-0.14160156,0.33496094,-51.0,-11.15625,26.21875
662,662,1727899263760,-0.8300781,-0.18945312,0.3515625,-51.53125,-8.28125,17.125
663,663,1727899263800,-0.79003906,-0.24902344,0.40429688,-53.125,-3.15625,0.875
664,664,1727899263840,-0.8417969,-0.22851562,0.47460938,-35.65625,-1.25,-16.15625
665,665,1727899263880,-1.0,-0.19628906,0.45410156,-20.65625,11.8125,-29.34375
666,666,1727899263920,-1.0019531,-0.17382812,0.43164062,-17.78125,5.6875,-24.34375
667,667,1727899263960,-1.0283203,-0.15625,0.33007812,-24.8125,13.34375,-19.15625
668,668,1727899264000,-1.0166016,-0.043945312,0.3515625,-22.90625,4.0,-3.625
669,669,1727899264040,-1.2509766,-0.171875,0.19726562,-55.0625,15.96875,-2.71875
670,670,1727899264080,-0.87890625,-0.2548828,0.17089844,-74.90625,2.59375,-1.8125
671,671,1727899264120,-0.75,-0.3642578,0.11621094,-94.6875,-34.59375,10.75
672,672,1727899264160,-0.921875,-0.3798828,-0.0390625,-96.875,2.34375,2.40625
673,673,1727899264200,-1.0917969,-0.37890625,-0.08105469,-67.59375,-3.03125,10.03125
674,674,1727899264240,-0.9121094,-0.53222656,-0.009765625,-66.125,-35.375,13.4375
675,675,1727899264280,-0.8417969,-0.515625,-0.02734375,-109.59375,-36.0,-4.0625
676,676,1727899264320,-0.9189453,-0.375,0.055664062,-110.96875,-13.03125,10.03125
677,677,1727899264360,-0.9013672,-0.5703125,0.12792969,-66.78125,-10.21875,31.75
678,678,1727899264400,-0.859375,-0.56933594,0.18457031,-69.96875,5.46875,16.5625
679,679,1727899264440,-0.90722656,-0.4501953,0.19042969,-48.84375,9.0,11.5
680,680,1727899264480,-0.93847656,-0.39648438,0.171875,-34.5,8.09375,10.8125
681,681,1727899264520,-0.9189453,-0.36328125,0.14648438,-35.71875,9.1875,13.09375
682,682,1727899264560,-0.96484375,-0.35742188,0.1640625,-36.28125,3.1875,14.78125
683,683,1727899264600,-0.90625,-0.38964844,0.15527344,-43.96875,-16.5,18.875
684,684,1727899264640,-0.89941406,-0.46972656,0.123046875,-39.9375,-19.625,20.96875
685,685,1727899264680,-0.8496094,-0.5546875,0.15039062,-32.625,-10.84375,16.8125
686,686,1727899264720,-0.8203125,-0.5908203,0.11230469,-9.53125,-9.5,10.09375
687,687,1727899264760,-0.8388672,-0.5732422,0.08300781,20.0625,4.375,3.75
688,688,1727899264800,-0.87597656,-0.4609375,0.029296875,51.125,17.1875,-4.8125
689,689,1727899264840,-0.9121094,-0.37890625,0.05078125,64.4375,26.875,-10.21875
690,690,1727899264880,-1.0195312,-0.37402344,0.08105469,59.5625,28.15625,-16.28125
691,691,1727899264920,-1.1445312,-0.26171875,0.07324219,31.28125,20.28125,-24.625
692,692,1727899264960,-1.03125,-0.20605469,0.07519531,39.15625,-21.6875,-20.1875
693,693,1727899265000,-0.8701172,-0.265625,0.0625,45.8125,-30.0,-16.46875
694,694,1727899265040,-0.8779297,-0.28027344,0.13085938,18.53125,-25.125,-26.96875
695,695,1727899265080,-0.9658203,-0.31347656,0.1484375,11.625,-23.28125,-34.53125
696,696,1727899265120,-0.98046875,-0.27441406,0.17480469,34.71875,-20.71875,-35.8125
697,697,1727899265160,-1.0419922,-0.33203125,0.16699219,37.21875,-6.375,-33.53125
698,698,1727899265200,-0.9472656,-0.3310547,0.2265625,12.1875,6.9375,-31.34375
699,699,1727899265240,-0.8808594,-0.4345703,0.19335938,3.59375,9.25,-37.5
700,700,1727899265280,-0.94921875,-0.5214844,0.234375,10.53125,29.8125,-51.75
701,701,1727899265320,-0.9082031,-0.5097656,0.20996094,22.75,24.125,-48.5625
702,702,1727899265360,-0.8232422,-0.47070312,0.18066406,50.5625,20.53125,-41.59375
703,703,1727899265400,-0.78515625,-0.49023438,0.14746094,54.84375,26.6875,-31.34375
704,704,1727899265440,-0.76953125,-0.5078125,0.15234375,39.53125,34.375,-27.3125
705,705,1727899265480,-0.79296875,-0.5292969,0.16601562,39.59375,42.4375,-25.3125
706,706,1727899265520,-0.79785156,-0.51953125,0.13378906,38.90625,51.0625,-21.9375
707,707,1727899265560,-0.85058594,-0.3330078,0.29003906,43.0,31.71875,-4.1875
708,708,1727899265600,-0.94433594,-0.5546875,0.119140625,42.15625,11.25,22.0625
709,709,1727899265640,-0.9580078,-0.50878906,0.19335938,61.0,1.90625,34.9375
710,710,1727899265680,-0.90722656,-0.515625,0.18652344,48.8125,-2.90625,19.125
711,711,1727899265720,-0.7011719,-0.57128906,0.15039062,35.6875,21.3125,6.84375
712,712,1727899265760,-0.8378906,-0.6123047,0.16015625,43.25,28.21875,-2.46875
713,713,1727899265800,-0.8535156,-0.51953125,0.15625,43.4375,42.1875,-9.3125
714,714,1727899265840,-0.8935547,-0.41601562,0.13378906,62.40625,15.78125,1.78125
715,715,1727899265880,-0.9082031,-0.4658203,0.1875,44.90625,10.15625,4.0
716,716,1727899265920,-0.9042969,-0.49902344,0.19726562,41.25,14.84375,5.03125
717,717,1727899265960,-0.88671875,-0.5361328,0.21875,48.75,27.25,0.03125
718,718,1727899266000,-0.8935547,-0.4951172,0.20019531,41.3125,26.15625,-5.84375
719,719,1727899266040,-0.88671875,-0.4892578,0.20117188,40.625,26.75,-3.40625
720,720,1727899266080,-0.8857422,-0.5253906,0.171875,57.21875,34.21875,-1.6875
721,721,1727899266120,-0.9082031,-0.484375,0.15136719,57.28125,37.5,-1.75
722,722,1727899266160,-0.9091797,-0.3955078,0.16113281,52.21875,34.09375,-0.96875
723,723,1727899266200,-0.8857422,-0.33984375,0.14160156,39.84375,29.375,0.3125
724,724,1727899266240,-0.88378906,-0.31054688,0.14550781,26.21875,23.59375,6.375
725,725,1727899266280,-0.8808594,-0.3251953,0.16601562,18.84375,23.03125,11.875
726,726,1727899266320,-0.8955078,-0.40234375,0.16308594,13.53125,20.40625,14.5
727,727,1727899266360,-0.8935547,-0.4423828,0.14453125,12.25,17.78125,13.34375
728,728,1727899266400,-0.89453125,-0.43164062,0.1484375,21.875,27.125,7.40625
729,729,1727899266440,-0.90234375,-0.375,0.12597656,27.9375,31.34375,3.5
730,730,1727899266480,-0.94140625,-0.33691406,0.12890625,30.125,30.1875,-0.84375
731,731,1727899266520,-0.9970703,-0.3486328,0.14257812,25.5,26.6875,-3.9375
732,732,1727899266560,-0.95410156,-0.30859375,0.10449219,23.0,12.125,-4.4375
733,733,1727899266600,-0.9160156,-0.33398438,0.07324219,27.375,6.3125,-3.6875
