,Unnamed: 0,timestamp,accel_x,accel_y,accel_z,gyro_x,gyro_y,gyro_z
0,0,1727710186420,-0.8310547,-0.11621094,0.8095703,-8.84375,-2.3125,-6.625
1,1,1727710186460,-0.8544922,0.00390625,0.671875,-14.90625,5.75,-12.84375
2,2,1727710186500,-0.8261719,0.025390625,0.625,-3.90625,16.0,-6.75
3,3,1727710186540,-0.7402344,-0.18847656,0.7470703,-3.96875,10.53125,-3.09375
4,4,1727710186580,-0.6826172,0.032226562,0.64941406,-7.375,3.5,-6.3125
5,5,1727710186620,-1.1914062,-0.11035156,0.8251953,-6.21875,-14.6875,2.65625
6,6,1727710186660,-0.7578125,-0.09375,0.83496094,0.1875,-143.21875,-6.25
7,7,1727710186700,-0.6591797,0.00390625,0.82128906,1.15625,-6.15625,-3.75
8,8,1727710186740,-0.6796875,-0.13671875,0.82910156,9.15625,27.4375,8.15625
9,9,1727710186780,-0.80371094,-0.04296875,0.9160156,-5.5625,100.84375,12.71875
10,10,1727710186820,-1.0527344,0.001953125,0.61816406,3.71875,33.65625,14.25
11,11,1727710186860,-0.88183594,-0.095703125,0.79003906,15.5625,-9.6875,11.5625
12,12,1727710186900,-0.8535156,-0.021484375,0.71777344,8.53125,11.1875,15.40625
13,13,1727710186940,-0.81347656,0.060546875,0.68359375,15.625,0.5625,15.71875
14,14,1727710186980,-0.7919922,-0.041015625,0.76953125,16.84375,2.59375,21.5625
15,15,1727710187020,-0.8515625,0.059570312,0.6230469,11.71875,9.90625,20.90625
16,16,1727710187060,-0.71777344,0.0390625,0.66503906,18.875,-0.28125,22.84375
17,17,1727710187100,-0.7792969,0.051757812,0.6669922,14.15625,2.59375,22.6875
18,18,1727710187140,-0.71777344,0.15625,0.6298828,17.03125,-3.03125,20.28125
19,19,1727710187180,-0.81933594,0.020507812,0.6357422,15.5625,0.5,24.09375
20,20,1727710187220,-0.7216797,0.20898438,0.5878906,12.875,-4.5,17.96875
21,21,1727710187260,-0.67285156,0.06347656,0.56640625,16.84375,-3.875,23.65625
22,22,1727710187300,-0.7441406,0.31445312,0.6533203,11.21875,-6.21875,18.09375
23,23,1727710187340,-0.6435547,0.14160156,0.6484375,14.09375,-10.21875,13.46875
24,24,1727710187380,-0.72753906,0.12597656,0.57421875,14.84375,-0.40625,18.59375
25,25,1727710187420,-0.6171875,0.2529297,0.61621094,8.25,-13.78125,7.40625
26,26,1727710187460,-0.65625,0.22851562,0.6308594,6.96875,-11.34375,6.3125
27,27,1727710187500,-0.6582031,0.21582031,0.5625,12.875,-0.15625,7.96875
28,28,1727710187540,-0.671875,0.14648438,0.6669922,7.15625,-0.84375,4.5625
29,29,1727710187580,-0.7763672,0.21777344,0.5410156,-0.4375,16.0,8.625
30,30,1727710187620,-0.6123047,0.1796875,0.57421875,2.9375,7.90625,4.65625
31,31,1727710187660,-0.54589844,0.22460938,0.6171875,-3.59375,2.875,1.6875
32,32,1727710187700,-0.70703125,0.31640625,0.58203125,-5.0625,-7.78125,-0.21875
33,33,1727710187740,-0.78027344,0.33007812,0.6044922,1.09375,0.03125,-1.375
34,34,1727710187780,-0.71972656,0.234375,0.65722656,2.125,-1.6875,-2.40625
35,35,1727710187820,-0.7060547,0.3095703,0.64160156,-0.96875,-4.5625,-2.03125
36,36,1727710187860,-0.70703125,0.2607422,0.6386719,-2.125,-1.625,-1.90625
37,37,1727710187900,-0.6855469,0.25976562,0.60546875,-4.09375,3.4375,-5.9375
38,38,1727710187940,-0.6279297,0.21386719,0.54785156,-5.25,0.5,-6.125
39,39,1727710187980,-0.6357422,0.20214844,0.6152344,-8.25,0.25,-5.9375
40,40,1727710188020,-0.6640625,0.25390625,0.5576172,-11.0,-0.21875,-12.3125
41,41,1727710188060,-0.6308594,0.19433594,0.609375,-8.1875,0.4375,-15.96875
42,42,1727710188100,-0.62890625,0.15722656,0.625,-10.6875,-5.53125,-16.03125
43,43,1727710188140,-0.72265625,0.17089844,0.61035156,-14.71875,-2.84375,-17.4375
44,44,1727710188180,-0.70410156,0.21386719,0.67578125,-15.0625,4.0,-18.21875
45,45,1727710188220,-0.7236328,0.09472656,0.5966797,-14.9375,5.09375,-20.21875
46,46,1727710188260,-0.59472656,0.12597656,0.6953125,-15.0,-3.03125,-20.71875
47,47,1727710188300,-0.7392578,0.08105469,0.6689453,-18.96875,-6.625,-18.59375
48,48,1727710188340,-0.7871094,0.14648438,0.6923828,-18.5625,0.15625,-22.0625
49,49,1727710188380,-0.8457031,0.0625,0.63378906,-14.28125,-3.28125,-21.09375
50,50,1727710188420,-0.7607422,-0.009765625,0.71777344,-14.71875,0.6875,-18.9375
51,51,1727710188460,-0.859375,0.049804688,0.7109375,-15.375,-2.71875,-17.125
52,52,1727710188500,-0.9326172,-0.0107421875,0.72753906,-13.4375,11.625,-16.9375
53,53,1727710188540,-0.73046875,-0.047851562,0.66796875,-11.59375,6.5,-18.03125
54,54,1727710188580,-0.7558594,-0.059570312,0.7636719,-10.375,-0.90625,-12.96875
55,55,1727710188620,-0.89746094,0.0234375,0.7089844,-13.78125,5.15625,-10.59375
56,56,1727710188660,-0.85839844,-0.005859375,0.6621094,-5.1875,6.0625,-9.84375
57,57,1727710188700,-0.6376953,0.08691406,0.38183594,22.875,-110.6875,11.5
58,58,1727710188740,-0.62890625,0.018554688,0.8066406,12.5,-120.59375,-4.65625
59,59,1727710188780,-0.5908203,0.00390625,0.81152344,9.21875,-104.53125,-9.6875
60,60,1727710188820,-0.5078125,-0.022460938,0.9316406,3.65625,-53.03125,-0.15625
61,61,1727710188860,-0.578125,0.024414062,0.8125,1.28125,-11.75,-1.375
62,62,1727710188900,-0.515625,-0.0234375,0.91308594,0.6875,-1.03125,-1.96875
63,63,1727710188940,-0.5576172,0.018554688,0.88183594,-4.34375,58.3125,-2.46875
64,64,1727710188980,-0.6113281,0.0048828125,0.7939453,-8.0625,78.375,-7.15625
65,65,1727710189020,-0.6748047,-0.00390625,0.92578125,-9.8125,115.75,-1.875
66,66,1727710189060,-1.1318359,-0.109375,0.8222656,-5.25,110.875,30.4375
67,67,1727710189100,-0.96777344,0.026367188,0.5986328,3.40625,13.625,14.25
68,68,1727710189140,-0.75878906,-0.0107421875,0.7988281,15.875,1.125,15.03125
69,69,1727710189180,-0.8652344,0.009765625,0.6904297,11.90625,7.84375,19.25
70,70,1727710189220,-0.75,0.01171875,0.6855469,15.375,3.5625,16.5625
71,71,1727710189260,-0.7626953,0.052734375,0.6660156,15.5,-0.96875,18.15625
72,72,1727710189300,-0.7763672,0.043945312,0.65722656,16.46875,3.0,19.8125
73,73,1727710189340,-0.7314453,0.06640625,0.64941406,16.78125,-0.53125,17.96875
74,74,1727710189380,-0.78515625,0.103515625,0.64746094,16.78125,0.3125,22.3125
75,75,1727710189420,-0.72265625,0.10058594,0.6269531,12.40625,-1.125,20.53125
76,76,1727710189460,-0.8261719,0.21191406,0.57910156,13.5625,6.75,23.84375
77,77,1727710189500,-0.79589844,0.15332031,0.546875,10.3125,14.71875,20.84375
78,78,1727710189540,-0.6513672,0.13183594,0.65722656,15.9375,1.84375,20.0625
79,79,1727710189580,-0.640625,0.13085938,0.6269531,14.59375,3.0,22.3125
80,80,1727710189620,-0.70214844,0.17675781,0.6123047,5.1875,-2.0,15.15625
81,81,1727710189660,-0.58984375,0.2861328,0.58496094,8.25,-14.25,6.5
82,82,1727710189700,-0.6796875,0.25097656,0.578125,13.375,-13.34375,11.875
83,83,1727710189740,-0.82128906,0.123046875,0.5859375,8.78125,-0.15625,10.40625
84,84,1727710189780,-0.6982422,0.22363281,0.5605469,4.75,2.53125,3.6875
85,85,1727710189820,-0.63964844,0.234375,0.5957031,5.75,8.25,7.59375
86,86,1727710189860,-0.64941406,0.16210938,0.6191406,2.375,5.4375,4.0625
87,87,1727710189900,-0.6816406,0.32226562,0.56640625,-3.53125,8.25,2.78125
88,88,1727710189940,-0.7050781,0.30078125,0.5625,0.375,-3.15625,2.0
89,89,1727710189980,-0.6640625,0.2919922,0.6201172,-0.65625,1.53125,0.875
90,90,1727710190020,-0.7109375,0.25683594,0.6201172,-0.4375,-9.4375,-2.15625
91,91,1727710190060,-0.74121094,0.23925781,0.55859375,-1.15625,-0.53125,-2.78125
92,92,1727710190100,-0.6347656,0.28027344,0.58984375,-4.40625,-6.875,-7.84375
93,93,1727710190140,-0.6582031,0.28125,0.5205078,-4.6875,-3.46875,-5.8125
94,94,1727710190180,-0.6542969,0.203125,0.6035156,-5.6875,-6.75,-8.34375
95,95,1727710190220,-0.68066406,0.2265625,0.55371094,-12.375,-0.96875,-12.3125
96,96,1727710190260,-0.7236328,0.2421875,0.6074219,-10.0625,-4.0,-13.03125
97,97,1727710190300,-0.60253906,0.19824219,0.65722656,-9.21875,-2.0,-16.6875
98,98,1727710190340,-0.6669922,0.12207031,0.6738281,-10.125,-13.15625,-14.90625
99,99,1727710190380,-0.75390625,0.12402344,0.6796875,-14.03125,-12.5,-18.59375
100,100,1727710190420,-0.7167969,0.18554688,0.61328125,-14.46875,-10.40625,-23.28125
101,101,1727710190460,-0.7080078,0.095703125,0.6640625,-14.21875,-6.9375,-18.21875
102,102,1727710190500,-0.8310547,0.21289062,0.6591797,-16.40625,0.75,-16.625
103,103,1727710190540,-0.77734375,0.10839844,0.6074219,-15.5625,7.78125,-19.875
104,104,1727710190580,-0.59472656,0.0126953125,0.7392578,-11.59375,0.8125,-24.5625
105,105,1727710190620,-0.75683594,0.16113281,0.7138672,-18.25,2.65625,-14.625
106,106,1727710190660,-0.8886719,-0.0048828125,0.7001953,-16.59375,9.25,-17.65625
107,107,1727710190700,-0.7324219,0.0234375,0.68652344,-12.875,5.5,-21.34375
108,108,1727710190740,-0.7324219,-0.0087890625,0.7685547,-13.5,8.03125,-14.6875
109,109,1727710190780,-0.84277344,0.0107421875,0.6816406,-14.53125,1.59375,-17.25
110,110,1727710190820,-0.7705078,-0.032226562,0.6738281,-9.53125,3.5625,-15.59375
111,111,1727710190860,-0.7910156,-0.087890625,0.73046875,-11.03125,1.78125,-13.9375
112,112,1727710190900,-0.37402344,0.37890625,0.13574219,21.1875,-123.34375,19.375
113,113,1727710190940,-0.4892578,-0.07128906,0.89160156,14.71875,-175.03125,-35.5
114,114,1727710190980,-0.5410156,-0.07421875,0.8720703,14.65625,-99.59375,2.53125
115,115,1727710191020,-0.47753906,0.0146484375,0.9550781,4.46875,-47.65625,3.6875
116,116,1727710191060,-0.5283203,0.01171875,0.8574219,-0.90625,-19.03125,-4.53125
117,117,1727710191100,-0.46777344,-0.0234375,0.93066406,1.90625,-21.9375,-4.4375
118,118,1727710191140,-0.4736328,0.018554688,0.9472656,-0.3125,38.65625,2.0
119,119,1727710191180,-0.51953125,-0.01953125,0.89746094,-3.21875,91.8125,-0.8125
120,120,1727710191220,-0.5625,-0.034179688,0.9638672,-15.75,146.4375,-6.25
121,121,1727710191260,-1.1953125,-0.0048828125,0.9238281,-16.125,211.4375,40.625
122,122,1727710191300,-1.0947266,0.0029296875,0.6044922,11.15625,11.6875,22.0
123,123,1727710191340,-0.7207031,0.0234375,0.71972656,19.96875,5.21875,14.0625
124,124,1727710191380,-0.68359375,-0.040039062,0.8261719,14.78125,-4.96875,19.75
125,125,1727710191420,-0.81152344,0.06933594,0.6376953,11.125,-2.3125,20.53125
126,126,1727710191460,-0.85546875,0.00390625,0.61621094,17.75,-2.0625,18.65625
127,127,1727710191500,-0.7578125,0.09375,0.6748047,16.0625,-1.625,18.40625
128,128,1727710191540,-0.74902344,0.06347656,0.6611328,18.4375,-3.53125,22.0625
129,129,1727710191580,-0.7324219,0.08886719,0.6074219,16.0625,-3.75,21.34375
130,130,1727710191620,-0.68359375,0.11035156,0.68847656,14.21875,-8.09375,18.65625
131,131,1727710191660,-0.81933594,0.11425781,0.57421875,11.53125,1.78125,24.5625
132,132,1727710191700,-0.7734375,0.16015625,0.54785156,13.625,1.71875,17.96875
133,133,1727710191740,-0.6484375,0.15625,0.6533203,13.625,0.09375,19.5625
134,134,1727710191780,-0.6689453,0.15039062,0.6044922,12.6875,-1.03125,14.25
135,135,1727710191820,-0.6201172,0.2705078,0.609375,10.875,-4.75,12.46875
136,136,1727710191860,-0.6689453,0.14746094,0.6142578,12.9375,-7.65625,11.625
137,137,1727710191900,-0.6699219,0.24414062,0.6279297,8.4375,2.21875,7.46875
138,138,1727710191940,-0.7558594,0.22558594,0.5654297,8.25,2.09375,9.1875
139,139,1727710191980,-0.69433594,0.15820312,0.60546875,6.78125,13.5625,8.9375
140,140,1727710192020,-0.57421875,0.28515625,0.6152344,1.78125,2.71875,3.75
141,141,1727710192060,-0.55566406,0.2685547,0.63183594,3.90625,-13.90625,3.875
142,142,1727710192100,-0.6933594,0.24902344,0.6357422,1.21875,-14.03125,0.21875
143,143,1727710192140,-0.7578125,0.29785156,0.59765625,0.5,-5.65625,-2.65625
144,144,1727710192180,-0.7314453,0.29296875,0.5908203,3.125,-6.625,-2.03125
145,145,1727710192220,-0.6582031,0.24804688,0.61816406,2.3125,2.46875,-0.9375
146,146,1727710192260,-0.640625,0.25976562,0.59765625,-3.78125,-1.9375,-2.84375
147,147,1727710192300,-0.7167969,0.2578125,0.5917969,-5.3125,3.9375,-1.875
148,148,1727710192340,-0.67089844,0.22753906,0.5527344,-7.9375,4.90625,-6.75
149,149,1727710192380,-0.58984375,0.27734375,0.5371094,-10.0625,-0.65625,-12.46875
150,150,1727710192420,-0.625,0.2109375,0.5986328,-8.375,-4.375,-13.34375
151,151,1727710192460,-0.5644531,0.20800781,0.6142578,-9.65625,2.53125,-15.03125
152,152,1727710192500,-0.6425781,0.16503906,0.640625,-13.65625,-12.125,-18.9375
153,153,1727710192540,-0.7421875,0.18945312,0.6777344,-16.40625,-2.0,-15.71875
154,154,1727710192580,-0.82421875,0.20214844,0.6113281,-15.0625,17.34375,-19.5
155,155,1727710192620,-0.79003906,0.15234375,0.6533203,-12.625,23.53125,-16.9375
156,156,1727710192660,-0.55566406,-0.0126953125,0.7158203,-13.59375,-0.84375,-16.15625
157,157,1727710192700,-0.6748047,0.09765625,0.7636719,-22.34375,-9.9375,-15.53125
158,158,1727710192740,-0.8222656,0.12988281,0.6074219,-25.28125,10.53125,-23.96875
159,159,1727710192780,-0.78808594,0.17773438,0.5185547,-11.78125,-3.6875,-23.15625
160,160,1727710192820,-0.6669922,-0.05078125,0.73046875,-9.46875,-9.9375,-22.3125
161,161,1727710192860,-0.8623047,0.05078125,0.73046875,-15.6875,-5.65625,-16.25
162,162,1727710192900,-0.93652344,-0.051757812,0.6464844,-17.28125,4.59375,-22.1875
163,163,1727710192940,-0.7451172,0.0625,0.75390625,-11.40625,6.375,-21.875
164,164,1727710192980,-0.7949219,-0.095703125,0.7519531,-11.15625,-5.15625,-11.8125
165,165,1727710193020,-0.03515625,0.15332031,0.13085938,-13.5,-225.25,-8.5625
166,166,1727710193060,-0.45898438,-0.001953125,1.0,9.59375,-170.5,-21.875
167,167,1727710193100,-0.4921875,-0.0029296875,0.8574219,4.40625,-124.96875,-12.71875
168,168,1727710193140,-0.3955078,-0.0390625,0.96484375,-20.625,-117.65625,-19.5625
169,169,1727710193180,-0.3408203,-0.046875,1.0693359,3.90625,-21.21875,-4.1875
170,170,1727710193220,-0.39746094,-0.009765625,0.9277344,-0.4375,43.71875,-1.0
171,171,1727710193260,-0.41992188,0.021484375,0.88183594,8.25,25.96875,-3.625
172,172,1727710193300,-0.4033203,-0.06640625,0.9716797,7.5625,32.0,3.8125
173,173,1727710193340,-0.46777344,0.015625,0.9482422,3.0625,66.78125,4.5
174,174,1727710193380,-0.46875,0.0068359375,0.89160156,-0.4375,124.34375,2.96875
175,175,1727710193420,-0.6503906,0.043945312,0.8769531,-5.375,196.84375,5.65625
176,176,1727710193460,-1.3876953,-0.080078125,0.7519531,-21.0,160.96875,38.46875
177,177,1727710193500,-0.7597656,-0.029296875,0.68359375,14.34375,1.375,15.15625
178,178,1727710193540,-0.7128906,0.001953125,0.87109375,13.3125,-6.375,13.71875
179,179,1727710193580,-0.8691406,0.040039062,0.66308594,13.125,5.09375,18.84375
180,180,1727710193620,-0.7949219,0.034179688,0.671875,16.46875,5.15625,18.59375
181,181,1727710193660,-0.6699219,0.0546875,0.73535156,18.9375,-4.25,16.625
182,182,1727710193700,-0.7207031,0.06347656,0.7167969,16.40625,2.71875,22.4375
183,183,1727710193740,-0.76464844,0.15429688,0.6347656,14.28125,1.65625,21.09375
184,184,1727710193780,-0.7001953,0.07519531,0.6308594,15.3125,-4.1875,21.5625
185,185,1727710193820,-0.5888672,0.1875,0.6923828,18.1875,-15.1875,18.34375
186,186,1727710193860,-0.7783203,0.07324219,0.65527344,12.34375,-5.34375,19.25
187,187,1727710193900,-0.77734375,0.16601562,0.55859375,11.65625,-10.125,10.65625
188,188,1727710193940,-0.63671875,0.20117188,0.6513672,15.03125,-8.78125,12.0
189,189,1727710193980,-0.75390625,0.16992188,0.6533203,12.9375,-0.78125,18.09375
190,190,1727710194020,-0.74902344,0.13574219,0.6533203,10.5,8.0625,11.125
191,191,1727710194060,-0.7548828,0.23242188,0.5683594,5.0,18.03125,16.34375
192,192,1727710194100,-0.74609375,0.15332031,0.61328125,6.28125,17.21875,14.625
193,193,1727710194140,-0.6875,0.2607422,0.61621094,3.78125,21.5625,11.125
194,194,1727710194180,-0.5361328,0.21386719,0.59472656,4.8125,7.90625,7.78125
195,195,1727710194220,-0.44628906,0.2548828,0.62890625,5.0,-27.8125,0.75
196,196,1727710194260,-0.5361328,0.328125,0.6152344,-1.34375,-16.09375,2.34375
197,197,1727710194300,-0.7792969,0.29296875,0.60839844,0.0625,-5.78125,0.40625
198,198,1727710194340,-0.7080078,0.23925781,0.6044922,1.40625,-7.71875,-6.0625
199,199,1727710194380,-0.6435547,0.26953125,0.66796875,2.0625,-9.5,-4.125
200,200,1727710194420,-0.6816406,0.25,0.67089844,-1.21875,-12.5625,-1.1875
201,201,1727710194460,-0.7626953,0.203125,0.671875,-2.25,2.59375,0.9375
202,202,1727710194500,-0.7558594,0.23535156,0.5996094,-2.4375,6.625,-5.71875
203,203,1727710194540,-0.63964844,0.25195312,0.6113281,-4.5,2.46875,-6.125
204,204,1727710194580,-0.6123047,0.21289062,0.5859375,-4.75,0.75,-3.4375
205,205,1727710194620,-0.5683594,0.17871094,0.5878906,-6.28125,-1.8125,-12.34375
206,206,1727710194660,-0.5830078,0.29003906,0.61328125,-11.96875,-4.75,-12.53125
207,207,1727710194700,-0.6699219,0.19726562,0.61035156,-10.375,-8.15625,-12.71875
208,208,1727710194740,-0.69140625,0.20996094,0.6621094,-10.125,-4.5,-17.3125
209,209,1727710194780,-0.6738281,0.17480469,0.640625,-13.90625,-2.125,-15.96875
210,210,1727710194820,-0.6484375,0.043945312,0.63671875,-17.15625,-1.0625,-19.75
211,211,1727710194860,-0.7607422,0.36816406,0.6074219,-21.1875,12.09375,-16.21875
212,212,1727710194900,-0.6542969,0.040039062,0.6875,-9.15625,1.78125,-23.21875
213,213,1727710194940,-0.68652344,0.030273438,0.7470703,-14.78125,7.03125,-20.90625
214,214,1727710194980,-0.6738281,0.052734375,0.68847656,-24.21875,-4.0,-21.21875
215,215,1727710195020,-0.8535156,0.13476562,0.75,-17.15625,5.5625,-12.96875
216,216,1727710195060,-1.0126953,-0.022460938,0.74902344,-21.40625,27.0,-19.0625
217,217,1727710195100,-0.68066406,0.01171875,0.6269531,-17.21875,14.90625,-26.75
218,218,1727710195140,-0.5673828,0.032226562,0.7988281,-8.59375,-17.125,-17.84375
219,219,1727710195180,-0.828125,-0.064453125,0.8154297,-16.28125,6.3125,-9.90625
220,220,1727710195220,-1.0625,0.040039062,0.62597656,-18.375,21.9375,-15.46875
221,221,1727710195260,-0.4296875,0.20214844,0.28515625,16.46875,-155.4375,-0.03125
222,222,1727710195300,-0.5546875,-0.01953125,0.87597656,14.90625,-131.09375,-8.5625
223,223,1727710195340,-0.5966797,0.032226562,0.80859375,7.375,-108.0,-3.8125
224,224,1727710195380,-0.47460938,-0.02734375,0.93066406,-0.3125,-73.71875,-5.34375
225,225,1727710195420,-0.49414062,-0.00390625,0.8671875,-3.71875,-51.125,-4.3125
226,226,1727710195460,-0.44921875,-0.017578125,0.91015625,-3.1875,-63.40625,-5.53125
227,227,1727710195500,-0.3984375,-0.009765625,1.0234375,-4.15625,-9.1875,-1.625
228,228,1727710195540,-0.4609375,-0.0126953125,0.9013672,1.03125,50.875,-3.1875
229,229,1727710195580,-0.4560547,-0.048828125,0.91503906,4.75,61.46875,-6.125
230,230,1727710195620,-0.4794922,-0.016601562,0.9033203,-4.15625,88.59375,2.09375
231,231,1727710195660,-0.5439453,-0.052734375,0.9267578,-1.15625,153.15625,10.46875
232,232,1727710195700,-0.99609375,0.10644531,0.83203125,-23.0,200.46875,15.46875
233,233,1727710195740,-1.0,-0.09082031,0.65722656,13.5,11.1875,21.46875
234,234,1727710195780,-0.8095703,-0.015625,0.76171875,14.34375,7.59375,13.40625
235,235,1727710195820,-0.78222656,-0.01953125,0.65527344,12.625,0.9375,13.65625
236,236,1727710195860,-0.8046875,0.0107421875,0.7373047,16.3125,1.59375,20.125
237,237,1727710195900,-0.81640625,0.0859375,0.6542969,14.84375,-0.90625,17.78125
238,238,1727710195940,-0.7265625,-0.0146484375,0.7089844,16.78125,-3.34375,17.96875
239,239,1727710195980,-0.796875,0.08984375,0.6845703,15.4375,-7.78125,19.3125
240,240,1727710196020,-0.8203125,0.08203125,0.61328125,16.34375,7.65625,23.59375
241,241,1727710196060,-0.7626953,0.032226562,0.63183594,17.65625,-1.375,19.625
242,242,1727710196100,-0.47851562,0.234375,0.6455078,16.71875,-18.90625,15.46875
243,243,1727710196140,-0.74121094,0.07714844,0.7714844,18.96875,-18.28125,23.34375
244,244,1727710196180,-0.8808594,0.20898438,0.5498047,9.28125,2.65625,12.375
245,245,1727710196220,-0.6503906,0.2734375,0.56152344,16.34375,-3.875,10.90625
246,246,1727710196260,-0.6953125,0.059570312,0.6425781,17.09375,2.84375,20.125
247,247,1727710196300,-0.62597656,0.23339844,0.6064453,6.59375,8.03125,7.90625
248,248,1727710196340,-0.63964844,0.22949219,0.5878906,6.28125,2.9375,8.34375
249,249,1727710196380,-0.7294922,0.12988281,0.55371094,9.46875,8.6875,10.84375
250,250,1727710196420,-0.5859375,0.24414062,0.6347656,2.25,-0.15625,5.46875
251,251,1727710196460,-0.63964844,0.30859375,0.63378906,1.40625,-8.40625,2.78125
252,252,1727710196500,-0.7080078,0.25097656,0.5986328,4.40625,0.8125,2.65625
253,253,1727710196540,-0.67578125,0.22851562,0.6279297,1.28125,-9.6875,-2.65625
254,254,1727710196580,-0.6611328,0.3095703,0.6220703,-1.71875,-4.96875,-0.75
255,255,1727710196620,-0.7060547,0.33007812,0.6044922,1.28125,-3.75,-0.15625
256,256,1727710196660,-0.7050781,0.20019531,0.6464844,0.5625,-1.75,-2.90625
257,257,1727710196700,-0.69140625,0.19628906,0.61328125,-4.03125,2.34375,-3.09375
258,258,1727710196740,-0.5839844,0.27148438,0.59765625,-6.90625,-4.1875,-5.46875
259,259,1727710196780,-0.5683594,0.1796875,0.5488281,-8.0,-1.875,-9.78125
260,260,1727710196820,-0.63378906,0.20898438,0.5996094,-9.6875,-12.96875,-10.03125
261,261,1727710196860,-0.6982422,0.19433594,0.5996094,-12.09375,-5.90625,-12.34375
262,262,1727710196900,-0.7089844,0.13964844,0.640625,-12.03125,-8.59375,-17.125
263,263,1727710196940,-0.6582031,0.20507812,0.64453125,-15.9375,1.1875,-15.53125
264,264,1727710196980,-0.6845703,0.103515625,0.6875,-14.9375,-0.59375,-14.96875
265,265,1727710197020,-0.78027344,0.12011719,0.6777344,-18.3125,12.53125,-17.1875
266,266,1727710197060,-0.7060547,0.16113281,0.66503906,-18.84375,13.03125,-21.75
267,267,1727710197100,-0.5048828,0.109375,0.69433594,-15.9375,-12.1875,-22.3125
268,268,1727710197140,-0.80078125,0.11425781,0.7080078,-20.875,10.09375,-13.625
269,269,1727710197180,-0.8691406,0.07421875,0.59277344,-21.65625,20.15625,-20.125
270,270,1727710197220,-0.796875,0.15136719,0.69140625,-10.625,4.71875,-21.4375
271,271,1727710197260,-0.6484375,-0.15917969,0.9199219,-12.09375,-17.3125,-19.8125
272,272,1727710197300,-0.89746094,-0.045898438,0.7451172,-18.25,23.03125,-12.1875
273,273,1727710197340,-0.8125,0.02734375,0.70410156,-11.78125,-7.25,-19.125
274,274,1727710197380,-0.8359375,-0.048828125,0.7607422,-12.21875,7.46875,-8.5625
275,275,1727710197420,-0.8574219,-0.0029296875,0.6220703,-13.3125,10.9375,-12.78125
276,276,1727710197460,-0.6171875,0.140625,0.3310547,18.375,-140.78125,8.53125
277,277,1727710197500,-0.38085938,-0.0546875,1.0126953,5.125,-184.375,-14.4375
278,278,1727710197540,-0.56347656,0.08496094,0.8486328,8.3125,-66.6875,-0.34375
279,279,1727710197580,-0.50878906,-0.045898438,0.8691406,0.25,-51.4375,-18.40625
280,280,1727710197620,-0.47851562,-0.0390625,0.8857422,0.5,-37.40625,-2.71875
281,281,1727710197660,-0.48242188,-0.0048828125,0.90722656,3.90625,-30.1875,-0.21875
282,282,1727710197700,-0.44628906,-0.0029296875,1.0058594,1.53125,20.15625,1.25
283,283,1727710197740,-0.51953125,0.0126953125,0.87109375,-3.46875,76.5625,-0.625
284,284,1727710197780,-0.5058594,-0.015625,0.9033203,-6.40625,117.40625,-4.96875
285,285,1727710197820,-0.7783203,-0.049804688,0.8535156,-2.5,219.125,11.8125
286,286,1727710197860,-1.375,-0.14746094,0.6015625,-16.1875,105.5625,24.4375
287,287,1727710197900,-0.7363281,-0.009765625,0.71875,12.03125,-5.03125,12.84375
288,288,1727710197940,-0.75390625,-0.044921875,0.7363281,13.25,-1.9375,16.5
289,289,1727710197980,-0.74902344,0.03515625,0.68359375,13.25,-1.3125,16.875
290,290,1727710198020,-0.7988281,0.024414062,0.6591797,14.03125,0.4375,15.71875
291,291,1727710198060,-0.69628906,0.12402344,0.6533203,17.59375,-9.9375,16.03125
292,292,1727710198100,-0.73535156,-0.009765625,0.7128906,17.8125,-9.375,18.65625
293,293,1727710198140,-0.7167969,0.08984375,0.6230469,9.28125,-10.84375,20.25
294,294,1727710198180,-0.8671875,0.07714844,0.6767578,15.8125,-12.4375,19.0
295,295,1727710198220,-0.7910156,0.053710938,0.66015625,13.75,-1.5,18.09375
296,296,1727710198260,-0.73535156,0.123046875,0.64453125,14.65625,-14.3125,14.8125
297,297,1727710198300,-0.6738281,0.20507812,0.6933594,17.59375,-12.84375,19.0625
298,298,1727710198340,-0.6826172,0.123046875,0.6796875,16.34375,-10.71875,13.34375
299,299,1727710198380,-0.6357422,0.25585938,0.60839844,9.875,-8.78125,13.75
300,300,1727710198420,-0.6826172,0.19921875,0.6777344,14.40625,-12.90625,13.40625
301,301,1727710198460,-0.6298828,0.18359375,0.6386719,12.09375,5.625,11.5
302,302,1727710198500,-0.6376953,0.171875,0.6279297,6.28125,1.125,7.40625
303,303,1727710198540,-0.52246094,0.29296875,0.60253906,5.8125,-3.21875,2.71875
304,304,1727710198580,-0.58691406,0.18945312,0.66503906,6.34375,-4.25,4.4375
305,305,1727710198620,-0.7011719,0.18847656,0.62402344,3.34375,2.875,3.09375
306,306,1727710198660,-0.6298828,0.27148438,0.6796875,-2.1875,-4.5625,-1.96875
307,307,1727710198700,-0.6582031,0.24902344,0.58691406,0.0,-1.5,-0.40625
308,308,1727710198740,-0.7294922,0.2763672,0.6591797,1.53125,2.84375,-1.125
309,309,1727710198780,-0.6425781,0.22167969,0.6972656,-2.9375,-0.40625,-4.125
310,310,1727710198820,-0.7529297,0.26757812,0.6269531,-3.0,5.09375,-2.09375
311,311,1727710198860,-0.6425781,0.19628906,0.6904297,-1.40625,2.28125,-6.4375
312,312,1727710198900,-0.6152344,0.21875,0.63964844,-5.25,5.28125,-5.78125
313,313,1727710198940,-0.57910156,0.19628906,0.640625,-6.96875,-3.09375,-9.5625
314,314,1727710198980,-0.69140625,0.19824219,0.6220703,-8.125,0.5,-9.1875
315,315,1727710199020,-0.6220703,0.14453125,0.6015625,-12.15625,0.4375,-12.65625
316,316,1727710199060,-0.5986328,0.23535156,0.62109375,-14.84375,-1.75,-14.5
317,317,1727710199100,-0.70703125,0.15234375,0.60253906,-14.34375,-3.59375,-13.75
318,318,1727710199140,-0.703125,0.14355469,0.62109375,-16.28125,10.34375,-17.84375
319,319,1727710199180,-0.58496094,0.171875,0.68847656,-16.59375,-7.4375,-21.4375
320,320,1727710199220,-0.6845703,0.076171875,0.7324219,-16.40625,-1.625,-17.5
321,321,1727710199260,-0.89746094,0.09375,0.6689453,-18.3125,12.40625,-18.34375
322,322,1727710199300,-0.71972656,0.02734375,0.7216797,-21.0625,12.40625,-24.1875
323,323,1727710199340,-0.70410156,0.1015625,0.6660156,-18.5,5.5625,-19.75
324,324,1727710199380,-0.7949219,0.053710938,0.76171875,-14.71875,8.5,-13.09375
325,325,1727710199420,-0.9140625,-0.09375,0.671875,-18.4375,26.03125,-15.71875
326,326,1727710199460,-0.7001953,0.08886719,0.6621094,-15.5625,3.125,-22.0625
327,327,1727710199500,-0.71484375,-0.01953125,0.77441406,-9.03125,1.375,-11.0
328,328,1727710199540,-0.79589844,-0.12109375,0.6503906,-14.78125,9.65625,-15.71875
329,329,1727710199580,-1.1738281,-0.07714844,0.7314453,1.34375,-264.3125,-8.15625
330,330,1727710199620,-0.34375,-0.048828125,1.0380859,-0.0625,-222.5625,-17.5
331,331,1727710199660,-0.4248047,0.01171875,0.95703125,-14.09375,-130.15625,-11.125
332,332,1727710199700,-0.3173828,-0.07128906,1.0322266,-12.4375,-33.71875,-6.5
333,333,1727710199740,-0.390625,-0.03125,0.9316406,-3.0,21.5,1.8125
334,334,1727710199780,-0.38183594,-0.046875,0.9169922,6.03125,11.75,1.0625
335,335,1727710199820,-0.375,0.0068359375,0.9951172,10.6875,25.28125,5.40625
336,336,1727710199860,-0.43847656,0.025390625,0.9355469,7.21875,76.6875,-0.15625
337,337,1727710199900,-0.515625,-0.04296875,0.9199219,2.375,91.5,-3.625
338,338,1727710199940,-0.5283203,-0.013671875,0.8828125,-5.84375,124.90625,-5.03125
339,339,1727710199980,-0.5839844,0.009765625,0.87597656,0.25,174.46875,6.375
340,340,1727710200020,-1.1044922,-0.12109375,0.8388672,-6.84375,122.75,32.5625
341,341,1727710200060,-1.1142578,-0.009765625,0.41503906,3.59375,27.65625,18.90625
342,342,1727710200100,-0.71484375,-0.015625,0.8232422,16.59375,-15.375,12.25
343,343,1727710200140,-0.80371094,-0.021484375,0.69433594,10.875,7.71875,18.09375
344,344,1727710200180,-0.7558594,0.09375,0.6972656,14.03125,-0.21875,13.09375
345,345,1727710200220,-0.7753906,0.01953125,0.6875,18.3125,-5.78125,18.59375
346,346,1727710200260,-0.7597656,0.060546875,0.69921875,15.875,-10.0625,15.53125
347,347,1727710200300,-0.65625,0.15039062,0.6894531,13.6875,-13.46875,17.25
348,348,1727710200340,-0.78222656,0.030273438,0.70410156,15.875,-5.59375,16.625
349,349,1727710200380,-0.80859375,0.16113281,0.5957031,12.28125,3.6875,17.0
350,350,1727710200420,-0.7626953,0.16113281,0.6308594,15.875,-3.46875,20.40625
351,351,1727710200460,-0.7207031,0.11425781,0.6669922,14.71875,13.3125,19.0625
352,352,1727710200500,-0.6376953,0.119140625,0.65527344,13.1875,-4.3125,13.15625
353,353,1727710200540,-0.6933594,0.16894531,0.57714844,12.8125,-0.53125,18.34375
354,354,1727710200580,-0.7392578,0.23828125,0.5761719,12.5,-2.96875,15.46875
355,355,1727710200620,-0.66796875,0.16796875,0.6816406,11.125,4.84375,10.96875
356,356,1727710200660,-0.6855469,0.25683594,0.6074219,8.71875,-0.78125,7.34375
357,357,1727710200700,-0.58496094,0.21582031,0.62109375,7.3125,0.21875,6.1875
358,358,1727710200740,-0.5576172,0.15136719,0.6201172,5.9375,-4.96875,4.5
359,359,1727710200780,-0.6171875,0.29003906,0.62109375,0.71875,-7.1875,3.09375
360,360,1727710200820,-0.69433594,0.21386719,0.6191406,1.59375,-8.21875,2.59375
361,361,1727710200860,-0.65722656,0.24804688,0.62109375,-0.1875,-1.125,-3.5
362,362,1727710200900,-0.6816406,0.29492188,0.62402344,1.21875,-7.84375,-1.8125
363,363,1727710200940,-0.6855469,0.20410156,0.6455078,1.21875,2.34375,1.8125
364,364,1727710200980,-0.75097656,0.24511719,0.6699219,-2.6875,-0.46875,-3.8125
365,365,1727710201020,-0.6503906,0.24511719,0.61328125,-4.21875,2.03125,-4.1875
366,366,1727710201060,-0.69433594,0.19921875,0.63378906,-2.0,-1.8125,-3.875
367,367,1727710201100,-0.61621094,0.20996094,0.6035156,-7.8125,1.0625,-7.59375
368,368,1727710201140,-0.5957031,0.16015625,0.5859375,-8.375,-6.3125,-11.125
369,369,1727710201180,-0.5761719,0.20507812,0.609375,-11.90625,-9.6875,-12.96875
370,370,1727710201220,-0.7158203,0.23046875,0.6269531,-12.8125,-6.875,-11.8125
371,371,1727710201260,-0.76660156,0.107421875,0.6591797,-13.375,7.34375,-15.34375
372,372,1727710201300,-0.6455078,0.23828125,0.6425781,-16.46875,1.78125,-18.875
373,373,1727710201340,-0.58984375,0.028320312,0.7089844,-16.40625,-7.5,-14.875
374,374,1727710201380,-0.7236328,0.13085938,0.625,-23.1875,4.46875,-18.28125
375,375,1727710201420,-0.7910156,0.23046875,0.68066406,-21.96875,9.46875,-21.5625
376,376,1727710201460,-0.6796875,0.028320312,0.7294922,-10.125,-2.0,-22.1875
377,377,1727710201500,-0.8701172,0.034179688,0.7363281,-16.0,14.1875,-18.34375
378,378,1727710201540,-0.765625,0.037109375,0.7578125,-17.15625,7.40625,-15.09375
379,379,1727710201580,-0.74902344,-0.07421875,0.72558594,-15.125,8.75,-16.09375
380,380,1727710201620,-0.9013672,0.06542969,0.7470703,-17.875,22.53125,-13.9375
381,381,1727710201660,-0.8652344,0.040039062,0.6357422,-12.375,20.71875,-11.3125
382,382,1727710201700,-0.68652344,-0.0546875,0.6875,-5.5,9.90625,-17.78125
383,383,1727710201740,-0.5292969,-0.083984375,0.8154297,-7.03125,-28.1875,-12.59375
384,384,1727710201780,-1.9951172,-0.3466797,0.97558594,-15.8125,24.25,-2.90625
385,385,1727710201820,-0.6982422,0.045898438,0.6933594,-3.46875,-179.59375,-9.3125
386,386,1727710201860,-0.57128906,-0.005859375,0.81152344,8.375,-169.71875,-15.84375
387,387,1727710201900,-0.4404297,-0.036132812,1.0507812,2.3125,-78.84375,0.03125
388,388,1727710201940,-0.5566406,0.0068359375,0.8544922,0.78125,-5.65625,-4.96875
389,389,1727710201980,-0.5058594,-0.052734375,0.85839844,1.96875,-10.28125,-6.625
390,390,1727710202020,-0.5097656,-0.0107421875,0.89453125,1.90625,8.5625,8.28125
391,391,1727710202060,-0.54589844,0.0126953125,0.8574219,0.125,26.03125,0.46875
392,392,1727710202100,-0.5488281,0.03515625,0.8955078,-2.25,41.71875,-7.34375
393,393,1727710202140,-0.5205078,-0.060546875,0.87890625,-6.34375,98.90625,-1.5625
394,394,1727710202180,-0.6953125,0.064453125,0.81152344,-3.46875,160.59375,-3.4375
395,395,1727710202220,-1.1972656,-0.099609375,0.7001953,-5.0,115.375,20.96875
396,396,1727710202260,-0.80566406,-0.025390625,0.5966797,11.65625,-1.9375,13.53125
397,397,1727710202300,-0.6660156,-0.00390625,0.78808594,12.6875,-21.90625,9.4375
398,398,1727710202340,-0.8408203,0.051757812,0.6689453,11.71875,3.5625,14.875
399,399,1727710202380,-0.80078125,-0.0009765625,0.67285156,13.78125,0.15625,13.75
400,400,1727710202420,-0.7714844,0.078125,0.65625,15.3125,-2.0,16.6875
401,401,1727710202460,-0.7841797,0.0546875,0.7529297,15.875,-3.46875,17.375
402,402,1727710202500,-0.8544922,0.036132812,0.68066406,15.125,6.5625,20.1875
403,403,1727710202540,-0.7236328,0.08105469,0.68847656,18.9375,-11.75,15.65625
404,404,1727710202580,-0.71777344,0.06738281,0.7265625,15.5,-7.5625,19.0
405,405,1727710202620,-0.78515625,0.12109375,0.5839844,12.5,-0.46875,20.46875
406,406,1727710202660,-0.74609375,0.13867188,0.6044922,17.34375,-2.78125,17.84375
407,407,1727710202700,-0.7060547,0.08496094,0.66503906,14.03125,-0.21875,20.65625
408,408,1727710202740,-0.77734375,0.16992188,0.53515625,13.75,-0.15625,15.28125
409,409,1727710202780,-0.6875,0.23144531,0.640625,12.875,-0.90625,18.28125
410,410,1727710202820,-0.70214844,0.16601562,0.6455078,12.21875,7.46875,14.25
411,411,1727710202860,-0.60253906,0.26171875,0.6171875,9.34375,1.84375,9.5625
412,412,1727710202900,-0.7167969,0.17089844,0.64453125,11.40625,0.375,11.8125
413,413,1727710202940,-0.6484375,0.20996094,0.5761719,2.875,3.4375,6.875
414,414,1727710202980,-0.5625,0.3017578,0.6064453,2.8125,-2.46875,2.21875
415,415,1727710203020,-0.5019531,0.21289062,0.6035156,4.03125,-18.71875,0.59375
416,416,1727710203060,-0.71777344,0.35742188,0.6230469,-1.46875,-0.15625,2.46875
417,417,1727710203100,-0.7392578,0.24414062,0.5800781,0.125,-2.84375,-3.09375
418,418,1727710203140,-0.6972656,0.25683594,0.6591797,1.40625,-7.96875,-6.25
419,419,1727710203180,-0.66015625,0.24414062,0.6425781,-2.1875,1.375,-4.53125
420,420,1727710203220,-0.6972656,0.23046875,0.6767578,-2.25,1.78125,-1.625
421,421,1727710203260,-0.74316406,0.22265625,0.6113281,-5.96875,4.0625,-6.4375
422,422,1727710203300,-0.703125,0.24414062,0.5917969,-6.09375,2.9375,-5.46875
423,423,1727710203340,-0.65527344,0.19433594,0.61035156,-7.03125,-1.8125,-7.40625
424,424,1727710203380,-0.65625,0.22460938,0.61328125,-9.75,1.4375,-10.59375
425,425,1727710203420,-0.6748047,0.18457031,0.5908203,-9.46875,-5.21875,-13.40625
426,426,1727710203460,-0.6503906,0.20117188,0.6455078,-10.6875,-3.21875,-14.375
427,427,1727710203500,-0.66503906,0.16699219,0.6464844,-13.78125,-7.1875,-10.34375
428,428,1727710203540,-0.7578125,0.12988281,0.671875,-14.46875,-7.0,-14.625
429,429,1727710203580,-0.76660156,0.14355469,0.66015625,-18.84375,7.90625,-17.5
430,430,1727710203620,-0.7841797,0.14550781,0.57421875,-14.90625,14.25,-17.71875
431,431,1727710203660,-0.609375,0.17089844,0.6767578,-12.3125,1.0,-16.21875
432,432,1727710203700,-0.5800781,0.040039062,0.80859375,-16.40625,-9.375,-19.875
433,433,1727710203740,-0.7548828,0.10449219,0.6904297,-19.40625,12.78125,-19.0
434,434,1727710203780,-0.7783203,0.1015625,0.6904297,-12.875,0.625,-20.96875
435,435,1727710203820,-0.6855469,0.0234375,0.7714844,-12.8125,1.59375,-14.25
436,436,1727710203860,-1.0439453,0.0625,0.6152344,-13.96875,21.03125,-4.375
437,437,1727710203900,-0.71875,-0.009765625,0.71191406,-8.125,-0.96875,-21.5625
438,438,1727710203940,-0.7949219,-0.061523438,0.70703125,-9.34375,7.65625,-9.25
439,439,1727710203980,-0.82421875,0.032226562,0.66015625,-11.71875,0.09375,-13.625
440,440,1727710204020,-0.7558594,-0.034179688,0.7529297,-6.59375,4.65625,-12.25
441,441,1727710204060,-1.4023438,-0.032226562,0.5830078,38.03125,-86.15625,28.15625
442,442,1727710204100,-0.6123047,-0.0078125,0.88671875,-0.71875,-187.96875,-5.21875
443,443,1727710204140,-0.5810547,0.01171875,0.8095703,3.71875,-113.8125,1.875
444,444,1727710204180,-0.4560547,-0.005859375,0.9765625,3.59375,-87.5,-11.25
445,445,1727710204220,-0.46679688,-0.021484375,0.89453125,-0.84375,-31.09375,1.5625
446,446,1727710204260,-0.42773438,-0.01953125,0.98046875,0.6875,-15.0625,1.625
447,447,1727710204300,-0.46679688,0.0087890625,0.91015625,-0.25,40.59375,6.5
448,448,1727710204340,-0.5253906,0.0107421875,0.8486328,0.375,40.375,0.875
449,449,1727710204380,-0.49609375,-0.009765625,0.94433594,-1.53125,49.75,1.5
450,450,1727710204420,-0.5732422,0.038085938,0.8876953,-2.3125,105.125,-8.9375
451,451,1727710204460,-0.7011719,-0.016601562,0.8486328,0.0625,157.3125,-18.71875
452,452,1727710204500,-1.2089844,-0.033203125,0.68652344,-6.46875,104.5,22.6875
453,453,1727710204540,-0.8173828,-0.051757812,0.66015625,9.59375,8.03125,15.53125
454,454,1727710204580,-0.64941406,0.040039062,0.7011719,8.0,-7.5625,8.28125
455,455,1727710204620,-0.6816406,0.018554688,0.7919922,12.15625,-9.875,15.40625
456,456,1727710204660,-0.9033203,0.046875,0.66503906,8.125,16.25,17.5625
457,457,1727710204700,-0.8466797,0.040039062,0.7060547,16.46875,1.4375,12.0
458,458,1727710204740,-0.6855469,-0.0078125,0.75683594,16.3125,-5.90625,17.90625
459,459,1727710204780,-0.77441406,0.14746094,0.68652344,13.25,8.375,18.65625
460,460,1727710204820,-0.7314453,0.0126953125,0.69921875,16.65625,-2.65625,17.5625
461,461,1727710204860,-0.6669922,0.17089844,0.6484375,11.59375,-3.8125,15.09375
462,462,1727710204900,-0.6972656,0.11035156,0.640625,14.84375,-6.6875,20.40625
463,463,1727710204940,-0.7392578,0.08886719,0.62109375,14.59375,-10.90625,15.28125
464,464,1727710204980,-0.60839844,0.17578125,0.63671875,8.90625,-12.84375,12.125
465,465,1727710205020,-0.77441406,0.21484375,0.6171875,12.6875,-14.6875,19.4375
466,466,1727710205060,-0.7783203,0.10839844,0.61621094,9.03125,-2.125,5.40625
467,467,1727710205100,-0.65625,0.22460938,0.5908203,3.71875,-5.96875,6.3125
468,468,1727710205140,-0.6689453,0.28125,0.5810547,13.3125,6.84375,12.4375
469,469,1727710205180,-0.5673828,0.072265625,0.73046875,8.3125,-2.46875,5.53125
470,470,1727710205220,-0.59765625,0.23632812,0.6582031,0.6875,0.5,0.75
471,471,1727710205260,-0.5498047,0.2861328,0.67871094,2.4375,-5.46875,0.46875
472,472,1727710205300,-0.7050781,0.22363281,0.6689453,1.21875,4.28125,3.75
473,473,1727710205340,-0.765625,0.1953125,0.61328125,-0.65625,-0.34375,-0.40625
474,474,1727710205380,-0.6376953,0.25195312,0.6777344,0.5625,3.9375,-1.4375
475,475,1727710205420,-0.69921875,0.27148438,0.6230469,-1.71875,1.65625,-3.25
476,476,1727710205460,-0.68847656,0.19238281,0.6582031,1.28125,2.15625,-0.53125
477,477,1727710205500,-0.7128906,0.18066406,0.69921875,-2.875,0.5,-3.75
478,478,1727710205540,-0.70703125,0.2421875,0.6269531,-4.21875,8.03125,-4.25
479,479,1727710205580,-0.65625,0.14648438,0.6230469,-2.5,-3.875,-5.78125
480,480,1727710205620,-0.5419922,0.20117188,0.640625,-9.28125,-3.8125,-9.4375
481,481,1727710205660,-0.64453125,0.20019531,0.5917969,-8.1875,-6.03125,-9.375
482,482,1727710205700,-0.6923828,0.14160156,0.67089844,-7.8125,-6.5,-10.71875
483,483,1727710205740,-0.6904297,0.13476562,0.65625,-11.84375,-8.03125,-14.0625
484,484,1727710205780,-0.70410156,0.21972656,0.640625,-13.0,-3.9375,-12.90625
485,485,1727710205820,-0.65527344,0.09472656,0.7080078,-13.125,-5.71875,-15.46875
486,486,1727710205860,-0.6621094,0.14257812,0.7050781,-13.71875,1.1875,-16.25
487,487,1727710205900,-0.7158203,0.068359375,0.70703125,-15.1875,-3.75,-14.625
488,488,1727710205940,-0.7265625,0.09765625,0.71777344,-18.90625,9.96875,-14.5
489,489,1727710205980,-0.7236328,0.0859375,0.6015625,-16.0625,-2.375,-19.1875
490,490,1727710206020,-0.578125,0.017578125,0.71777344,-15.5,-1.3125,-17.5
491,491,1727710206060,-0.68359375,0.14648438,0.70410156,-17.5625,-13.21875,-17.25
492,492,1727710206100,-0.6386719,0.045898438,0.76464844,-11.65625,-7.375,-14.90625
493,493,1727710206140,-1.1455078,-0.14550781,0.73046875,-14.53125,18.03125,-2.90625
494,494,1727710206180,-0.7783203,0.061523438,0.7001953,-17.15625,18.21875,-19.5
495,495,1727710206220,-0.6308594,-0.05078125,0.79003906,-5.5,-0.65625,-11.0
496,496,1727710206260,-0.7138672,-0.0126953125,0.8076172,-16.125,-183.8125,12.46875
497,497,1727710206300,-0.5546875,0.021484375,0.828125,1.15625,-131.09375,-0.09375
498,498,1727710206340,-0.46191406,-0.018554688,0.9404297,3.71875,-124.0625,-16.9375
499,499,1727710206380,-0.42773438,0.016601562,0.92285156,-13.84375,-77.3125,-6.1875
500,500,1727710206420,-0.390625,-0.025390625,0.921875,-13.0625,-74.1875,-16.6875
501,501,1727710206460,-0.3232422,-0.056640625,1.0380859,-3.90625,-42.15625,-12.84375
502,502,1727710206500,-0.3310547,-0.034179688,1.0009766,-1.34375,14.125,-1.0625
503,503,1727710206540,-0.37402344,-0.043945312,0.9501953,10.875,50.5,-2.21875
504,504,1727710206580,-0.3935547,-0.03515625,0.9248047,7.6875,70.34375,3.9375
505,505,1727710206620,-0.4736328,-0.005859375,0.9326172,6.03125,77.78125,0.40625
506,506,1727710206660,-0.48339844,0.0146484375,0.92089844,3.3125,128.625,3.15625
507,507,1727710206700,-0.67871094,0.09082031,0.79296875,5.3125,194.59375,22.75
508,508,1727710206740,-1.4912109,-0.0703125,0.89160156,-11.90625,167.5,30.0625
509,509,1727710206780,-0.70703125,0.07421875,0.7324219,21.5,-7.5,9.125
510,510,1727710206820,-0.7792969,-0.06347656,0.734375,18.0625,-4.125,12.71875
511,511,1727710206860,-0.6611328,0.12207031,0.71484375,9.875,7.03125,15.53125
512,512,1727710206900,-0.82128906,0.06738281,0.62109375,17.21875,6.78125,23.15625
513,513,1727710206940,-0.74609375,-0.033203125,0.7363281,16.90625,-4.5625,15.78125
514,514,1727710206980,-0.73828125,0.14941406,0.6533203,10.125,5.15625,14.9375
515,515,1727710207020,-0.7763672,0.061523438,0.6298828,21.125,-0.90625,20.25
516,516,1727710207060,-0.6982422,0.057617188,0.6933594,11.96875,-3.09375,15.96875
517,517,1727710207100,-0.73535156,0.22753906,0.5839844,12.21875,-5.46875,17.90625
518,518,1727710207140,-0.7294922,0.009765625,0.63964844,18.125,-8.46875,17.3125
519,519,1727710207180,-0.67089844,0.18652344,0.59277344,7.4375,-1.5625,12.53125
520,520,1727710207220,-0.671875,0.31933594,0.63378906,11.40625,-14.1875,15.53125
521,521,1727710207260,-0.70214844,0.140625,0.6953125,11.84375,0.21875,14.4375
522,522,1727710207300,-0.7001953,0.10644531,0.61035156,9.34375,-3.65625,6.625
523,523,1727710207340,-0.67285156,0.25,0.5839844,4.75,-5.03125,6.75
524,524,1727710207380,-0.6748047,0.20117188,0.6455078,5.5625,3.5,10.15625
525,525,1727710207420,-0.6933594,0.095703125,0.5419922,4.6875,14.3125,4.65625
526,526,1727710207460,-0.50878906,0.2939453,0.6621094,-0.1875,-10.53125,-3.1875
527,527,1727710207500,-0.57421875,0.29296875,0.7236328,1.34375,-1.0625,2.71875
528,528,1727710207540,-0.8720703,0.25390625,0.5732422,3.1875,18.5625,2.46875
529,529,1727710207580,-0.6308594,0.14453125,0.7470703,0.71875,-18.46875,-5.15625
530,530,1727710207620,-0.6201172,0.31933594,0.6513672,-3.78125,-4.25,-4.375
531,531,1727710207660,-0.7558594,0.30664062,0.62890625,1.53125,-1.0625,2.46875
532,532,1727710207700,-0.7939453,0.068359375,0.6767578,0.78125,1.25,-3.03125
533,533,1727710207740,-0.67871094,0.25390625,0.6230469,-4.46875,-4.9375,-8.09375
534,534,1727710207780,-0.5996094,0.22851562,0.59765625,-4.15625,-0.28125,-0.21875
535,535,1727710207820,-0.625,0.17382812,0.5625,-5.84375,0.375,-9.25
536,536,1727710207860,-0.5361328,0.23339844,0.6669922,-10.625,-14.375,-9.5625
537,537,1727710207900,-0.74316406,0.13378906,0.5888672,-9.875,-1.5625,-10.65625
538,538,1727710207940,-0.71777344,0.23828125,0.6113281,-13.4375,-0.28125,-16.4375
539,539,1727710207980,-0.67285156,0.17578125,0.6455078,-12.375,-5.71875,-13.6875
540,540,1727710208020,-0.64746094,0.0859375,0.6777344,-12.5625,2.40625,-17.96875
541,541,1727710208060,-0.7167969,0.16992188,0.6611328,-19.40625,6.1875,-14.6875
542,542,1727710208100,-0.7060547,0.0625,0.6611328,-16.65625,13.09375,-16.4375
543,543,1727710208140,-0.6269531,0.140625,0.6640625,-19.03125,5.21875,-21.34375
544,544,1727710208180,-0.53125,0.17675781,0.7060547,-15.375,-22.5625,-21.34375
545,545,1727710208220,-0.7216797,-0.057617188,0.8046875,-12.28125,-7.71875,-13.15625
546,546,1727710208260,-1.0986328,0.02734375,0.7363281,-24.09375,37.125,-15.28125
547,547,1727710208300,-0.7578125,-0.0126953125,0.6328125,-15.5,-3.75,-27.25
548,548,1727710208340,-0.6279297,-0.16210938,0.80078125,-13.4375,-21.21875,-19.0625
549,549,1727710208380,-0.8935547,0.055664062,0.79785156,-21.3125,36.75,-4.125
550,550,1727710208420,-0.875,0.07128906,0.5683594,-18.0625,-186.0625,-0.46875
551,551,1727710208460,-0.3095703,-0.11328125,1.0722656,-2.25,-203.59375,-16.09375
552,552,1727710208500,-0.546875,0.078125,0.85253906,5.75,-85.4375,12.25
553,553,1727710208540,-0.4033203,0.00390625,0.9746094,-2.4375,-73.46875,-12.59375
554,554,1727710208580,-0.3984375,-0.00390625,0.90527344,-13.125,-45.375,-12.3125
555,555,1727710208620,-0.35351562,-0.053710938,0.9716797,-8.84375,-35.4375,-9.78125
556,556,1727710208660,-0.3330078,-0.034179688,1.0253906,-2.0625,2.09375,-0.28125
557,557,1727710208700,-0.36816406,0.0087890625,0.9980469,3.0,54.34375,-2.34375
558,558,1727710208740,-0.40527344,-0.14355469,0.89746094,20.9375,99.3125,0.28125
559,559,1727710208780,-0.5126953,0.041992188,0.8466797,2.0625,105.84375,10.34375
560,560,1727710208820,-0.56933594,0.00390625,0.81347656,-3.28125,95.84375,0.65625
561,561,1727710208860,-0.50878906,0.041992188,0.9277344,7.625,134.0,-3.5625
562,562,1727710208900,-1.0234375,-0.10449219,1.046875,-10.0,126.0625,13.15625
563,563,1727710208940,-1.0576172,-0.037109375,0.5810547,15.8125,40.59375,17.90625
564,564,1727710208980,-0.78027344,0.038085938,0.6777344,11.40625,-0.15625,8.625
565,565,1727710209020,-0.62890625,0.001953125,0.7597656,13.78125,-18.03125,18.28125
566,566,1727710209060,-0.7675781,0.052734375,0.64160156,9.21875,8.5625,14.3125
567,567,1727710209100,-0.7089844,0.11328125,0.7246094,15.625,-5.21875,17.90625
568,568,1727710209140,-0.8496094,0.001953125,0.66015625,17.46875,0.03125,17.5625
569,569,1727710209180,-0.64746094,0.091796875,0.7480469,11.78125,-9.25,14.6875
570,570,1727710209220,-0.6875,0.12890625,0.6455078,18.6875,-6.5,16.34375
571,571,1727710209260,-0.79003906,0.0029296875,0.7783203,17.03125,-17.1875,18.59375
572,572,1727710209300,-0.7597656,0.11035156,0.6777344,8.0625,6.375,17.84375
573,573,1727710209340,-0.7207031,0.203125,0.55566406,17.21875,-1.5625,18.21875
574,574,1727710209380,-0.6777344,0.059570312,0.7597656,14.71875,-8.65625,18.34375
575,575,1727710209420,-0.734375,0.16796875,0.5966797,9.15625,6.25,15.09375
576,576,1727710209460,-0.6972656,0.1796875,0.61035156,11.78125,-2.40625,12.375
577,577,1727710209500,-0.5449219,0.12792969,0.6621094,12.34375,-13.09375,9.125
578,578,1727710209540,-0.5527344,0.23046875,0.6513672,5.4375,-6.5625,4.96875
579,579,1727710209580,-0.6435547,0.34765625,0.58984375,5.5625,-10.59375,9.75
580,580,1727710209620,-0.6796875,0.22753906,0.640625,6.21875,1.0,2.96875
581,581,1727710209660,-0.4970703,0.23730469,0.6875,3.40625,-3.8125,-2.03125
582,582,1727710209700,-0.5058594,0.23242188,0.7089844,4.21875,-8.34375,0.46875
583,583,1727710209740,-0.65527344,0.25585938,0.66308594,-3.71875,4.84375,0.15625
584,584,1727710209780,-0.6611328,0.29492188,0.6582031,-4.34375,3.0,-2.40625
585,585,1727710209820,-0.6894531,0.21484375,0.6464844,3.46875,-2.0,-3.9375
586,586,1727710209860,-0.6748047,0.103515625,0.7373047,-4.40625,1.25,-5.15625
587,587,1727710209900,-0.74121094,0.2685547,0.6328125,-9.40625,15.09375,-6.625
588,588,1727710209940,-0.6816406,0.22363281,0.59765625,-1.875,6.84375,-9.84375
589,589,1727710209980,-0.5253906,0.09375,0.69628906,-4.40625,-10.40625,-13.875
590,590,1727710210020,-0.61621094,0.14453125,0.68652344,-12.21875,-6.625,-6.9375
591,591,1727710210060,-0.7597656,0.1796875,0.56640625,-13.84375,7.40625,-10.96875
592,592,1727710210100,-0.6357422,0.21386719,0.59472656,-13.90625,5.40625,-18.15625
593,593,1727710210140,-0.6035156,0.21289062,0.625,-14.03125,1.125,-14.5
594,594,1727710210180,-0.60058594,0.17773438,0.6376953,-15.375,3.5625,-17.78125
595,595,1727710210220,-0.61816406,0.12597656,0.8408203,-13.3125,-7.5625,-17.84375
596,596,1727710210260,-0.8408203,0.048828125,0.6816406,-24.65625,21.1875,-22.6875
597,597,1727710210300,-0.67285156,0.123046875,0.64941406,-14.09375,14.0,-19.375
598,598,1727710210340,-0.74121094,0.033203125,0.87890625,-9.09375,-8.84375,-14.3125
599,599,1727710210380,-0.9042969,0.044921875,0.74121094,-20.5,25.53125,-13.21875
600,600,1727710210420,-0.875,0.052734375,0.65527344,-13.3125,7.84375,-14.3125
601,601,1727710210460,-0.59765625,-0.15332031,0.71484375,-9.21875,1.0,-20.125
602,602,1727710210500,-0.60253906,0.0625,0.76953125,-17.28125,-9.0,-10.15625
603,603,1727710210540,-0.95214844,0.0078125,0.6220703,-11.40625,6.6875,-8.875
604,604,1727710210580,-0.8417969,-0.03515625,0.7109375,-5.625,4.78125,-14.0625
605,605,1727710210620,-0.8300781,-0.0546875,0.73828125,-4.21875,-190.34375,-0.09375
606,606,1727710210660,-0.48828125,-0.033203125,0.89453125,-2.0625,-162.46875,5.84375
607,607,1727710210700,-0.4501953,0.0126953125,0.95214844,-1.03125,-117.78125,-6.6875
608,608,1727710210740,-0.46191406,0.025390625,0.93847656,2.1875,-52.84375,-15.53125
609,609,1727710210780,-0.37890625,-0.059570312,0.9951172,1.21875,-2.90625,-1.5625
610,610,1727710210820,-0.46777344,0.005859375,0.90234375,-0.0625,51.40625,11.4375
611,611,1727710210860,-0.47460938,-0.022460938,0.9277344,0.1875,58.75,4.65625
612,612,1727710210900,-0.4794922,0.01953125,0.9375,-4.09375,120.375,4.125
613,613,1727710210940,-0.69140625,0.0146484375,0.8017578,-3.90625,170.75,-12.34375
614,614,1727710210980,-1.3789062,0.01171875,0.7265625,-6.28125,145.65625,28.0625
615,615,1727710211020,-0.6748047,0.0390625,0.91796875,16.40625,-25.5625,7.40625
616,616,1727710211060,-0.8642578,-0.029296875,0.6279297,10.9375,19.0625,17.4375
617,617,1727710211100,-0.76953125,0.029296875,0.7089844,12.6875,-1.25,15.46875
618,618,1727710211140,-0.5595703,0.04296875,0.7685547,8.90625,-2.0,17.125
619,619,1727710211180,-0.87890625,0.12011719,0.57421875,12.6875,10.9375,18.03125
620,620,1727710211220,-0.7207031,0.015625,0.7158203,18.5,-7.65625,15.03125
621,621,1727710211260,-0.8642578,0.009765625,0.6826172,14.46875,4.34375,18.71875
622,622,1727710211300,-0.7167969,0.16503906,0.71777344,17.21875,-4.5,17.125
623,623,1727710211340,-0.7910156,0.029296875,0.70996094,18.0,2.71875,18.90625
624,624,1727710211380,-0.65722656,0.1640625,0.6953125,16.96875,-9.875,16.21875
625,625,1727710211420,-0.67871094,0.08984375,0.66308594,15.6875,-2.3125,18.53125
626,626,1727710211460,-0.6953125,0.13476562,0.5957031,11.34375,-7.59375,14.375
627,627,1727710211500,-0.7285156,0.22949219,0.57714844,7.875,2.9375,15.71875
628,628,1727710211540,-0.6611328,0.18164062,0.59277344,12.28125,-6.6875,8.34375
629,629,1727710211580,-0.6611328,0.21679688,0.5576172,7.09375,2.03125,11.6875
630,630,1727710211620,-0.7480469,0.29003906,0.6015625,6.71875,5.34375,12.71875
631,631,1727710211660,-0.69628906,0.20117188,0.6152344,6.21875,16.625,4.84375
632,632,1727710211700,-0.6044922,0.2578125,0.6748047,5.625,5.03125,3.75
633,633,1727710211740,-0.58496094,0.091796875,0.62597656,3.96875,-7.25,3.3125
634,634,1727710211780,-0.51953125,0.2685547,0.6660156,-1.03125,-9.8125,0.40625
635,635,1727710211820,-0.7246094,0.26464844,0.5683594,-3.84375,1.4375,2.0
636,636,1727710211860,-0.78125,0.32421875,0.58203125,-0.125,2.84375,-0.9375
637,637,1727710211900,-0.6748047,0.1875,0.65527344,2.1875,-3.40625,-3.15625
638,638,1727710211940,-0.67089844,0.22558594,0.6542969,-2.5625,-9.25,-4.0
639,639,1727710211980,-0.6542969,0.3154297,0.6796875,-3.59375,6.6875,-1.25
640,640,1727710212020,-0.7939453,0.16308594,0.5644531,-1.71875,9.53125,-3.8125
641,641,1727710212060,-0.5800781,0.22363281,0.64941406,-6.03125,-6.4375,-10.28125
642,642,1727710212100,-0.5917969,0.23242188,0.6015625,-8.71875,-3.15625,-8.03125
643,643,1727710212140,-0.6171875,0.16796875,0.6357422,-6.46875,-3.8125,-12.46875
644,644,1727710212180,-0.7626953,0.17871094,0.6269531,-9.59375,-6.15625,-13.09375
645,645,1727710212220,-0.69921875,0.1875,0.6464844,-11.46875,-5.46875,-15.21875
646,646,1727710212260,-0.8457031,0.20898438,0.62597656,-11.84375,12.71875,-13.21875
647,647,1727710212300,-0.7158203,0.091796875,0.66015625,-12.15625,16.8125,-16.6875
648,648,1727710212340,-0.5810547,0.060546875,0.5683594,-16.0,4.0625,-17.125
649,649,1727710212380,-0.47753906,0.27734375,0.6826172,-18.4375,-27.625,-16.875
650,650,1727710212420,-0.5253906,0.015625,0.8076172,-13.84375,-36.65625,-20.59375
651,651,1727710212460,-0.97558594,0.103515625,0.65625,-21.0,31.5,-18.65625
652,652,1727710212500,-1.09375,0.16210938,0.5058594,-13.5,8.75,-14.5625
653,653,1727710212540,-0.74316406,-0.043945312,0.7636719,-10.5,7.53125,-20.0625
654,654,1727710212580,-0.66308594,0.072265625,0.7285156,-12.03125,4.59375,-20.0
655,655,1727710212620,-0.6660156,-0.19238281,0.7949219,-12.5,-23.59375,-16.5625
656,656,1727710212660,-0.85253906,0.13183594,0.6972656,-22.09375,27.5,-10.15625
657,657,1727710212700,-0.9785156,-0.01953125,0.6533203,-12.5625,0.875,-13.46875
658,658,1727710212740,-1.0146484,-0.20996094,0.9482422,-11.28125,-307.53125,-16.21875
659,659,1727710212780,-0.4453125,0.053710938,0.9746094,4.75,-154.03125,-18.03125
660,660,1727710212820,-0.43066406,-0.09667969,0.92871094,-2.8125,-106.25,-23.21875
661,661,1727710212860,-0.34960938,-0.07714844,0.9628906,-10.5,-66.1875,-1.0
662,662,1727710212900,-0.3359375,-0.0048828125,1.0019531,0.71875,-29.28125,6.3125
663,663,1727710212940,-0.3466797,-0.0078125,1.0185547,0.375,-0.59375,-4.375
664,664,1727710212980,-0.33984375,-0.028320312,1.0136719,3.84375,50.9375,-8.875
665,665,1727710213020,-0.38867188,0.024414062,0.875,10.3125,73.625,4.25
666,666,1727710213060,-0.4326172,-0.11816406,1.0244141,4.34375,94.375,5.71875
667,667,1727710213100,-0.46777344,-0.016601562,0.921875,-5.75,190.15625,3.21875
668,668,1727710213140,-0.7636719,0.20410156,0.7626953,3.0625,239.40625,31.59375
669,669,1727710213180,-1.3681641,-0.18457031,0.39746094,-18.0625,78.34375,32.8125
670,670,1727710213220,-0.75390625,0.045898438,0.69628906,19.90625,-15.3125,9.625
671,671,1727710213260,-0.6689453,-0.015625,0.81347656,14.59375,-20.3125,11.625
672,672,1727710213300,-0.8095703,0.049804688,0.6621094,10.875,13.6875,18.53125
673,673,1727710213340,-0.8720703,0.0234375,0.6855469,16.71875,-0.84375,22.6875
674,674,1727710213380,-0.7285156,0.08496094,0.75878906,11.40625,2.03125,17.96875
675,675,1727710213420,-0.81152344,0.14160156,0.5517578,19.90625,1.0625,21.09375
676,676,1727710213460,-0.7451172,-0.047851562,0.7597656,21.0625,-16.09375,20.1875
677,677,1727710213500,-0.72753906,0.18847656,0.6279297,9.59375,0.875,18.46875
678,678,1727710213540,-0.7705078,0.20605469,0.5673828,24.125,-7.65625,21.21875
679,679,1727710213580,-0.7236328,-0.00390625,0.6621094,16.0625,-5.34375,19.0
680,680,1727710213620,-0.6796875,0.29296875,0.5253906,5.8125,0.21875,12.78125
681,681,1727710213660,-0.60253906,0.2265625,0.55371094,16.0,-6.875,18.34375
682,682,1727710213700,-0.5732422,0.10449219,0.53222656,8.3125,-6.375,4.25
683,683,1727710213740,-0.54589844,0.23632812,0.7919922,-0.90625,-36.40625,2.03125
684,684,1727710213780,-0.92285156,0.20605469,0.5419922,10.6875,13.25,12.125
685,685,1727710213820,-0.76953125,0.20410156,0.5722656,8.90625,3.4375,0.40625
686,686,1727710213860,-0.4189453,0.09375,0.7011719,1.15625,-35.4375,1.5625
687,687,1727710213900,-0.54589844,0.36035156,0.61816406,0.1875,-5.78125,-4.375
688,688,1727710213940,-0.6582031,0.21972656,0.71777344,-0.1875,-3.65625,5.84375
689,689,1727710213980,-0.8486328,0.19433594,0.5410156,-1.21875,18.21875,-2.84375
690,690,1727710214020,-0.6269531,0.34570312,0.70410156,0.96875,-15.59375,-6.4375
691,691,1727710214060,-0.69433594,0.19824219,0.6640625,2.375,9.25,3.3125
692,692,1727710214100,-0.7421875,0.18945312,0.6347656,-6.78125,13.03125,-5.09375
693,693,1727710214140,-0.6269531,0.27734375,0.6074219,-5.6875,-2.125,-5.03125
694,694,1727710214180,-0.62402344,0.19140625,0.5800781,-1.875,-0.09375,-6.0625
695,695,1727710214220,-0.6376953,0.14257812,0.6542969,-9.53125,-2.46875,-8.75
696,696,1727710214260,-0.71777344,0.22460938,0.5332031,-12.75,-3.09375,-10.71875
697,697,1727710214300,-0.6152344,0.16699219,0.6513672,-10.125,-2.59375,-16.375
698,698,1727710214340,-0.6298828,0.14746094,0.6425781,-14.53125,-5.15625,-16.625
699,699,1727710214380,-0.6953125,0.18945312,0.7001953,-15.4375,-1.875,-16.09375
700,700,1727710214420,-0.7578125,0.013671875,0.6435547,-15.375,7.21875,-15.65625
701,701,1727710214460,-0.56933594,0.13671875,0.68359375,-21.71875,-10.65625,-29.03125
702,702,1727710214500,-0.46875,0.11328125,0.84765625,-23.3125,-50.15625,-31.40625
703,703,1727710214540,-0.9355469,0.095703125,0.7949219,-22.75,32.125,-16.5
704,704,1727710214580,-1.2148438,0.043945312,0.34765625,-27.34375,26.21875,-13.59375
705,705,1727710214620,-0.6123047,-0.025390625,0.86328125,-10.6875,-33.5625,-24.9375
706,706,1727710214660,-0.4375,-0.032226562,0.9013672,-14.71875,-15.46875,-18.59375
707,707,1727710214700,-0.83691406,0.0126953125,0.7050781,-18.96875,29.9375,-10.15625
708,708,1727710214740,-0.74609375,-0.029296875,0.6816406,-8.65625,-6.5,-18.59375
709,709,1727710214780,-1.3837891,-0.0234375,0.6308594,87.28125,-125.28125,70.15625
710,710,1727710214820,-0.37402344,0.036132812,0.8798828,-7.125,-281.40625,-14.375
711,711,1727710214860,-0.43066406,0.020507812,0.9013672,8.25,-160.375,-13.15625
712,712,1727710214900,-0.2548828,-0.12011719,1.0117188,-49.125,-152.8125,-10.65625
713,713,1727710214940,-0.21972656,-0.032226562,1.0947266,5.75,-64.0,-5.40625
714,714,1727710214980,-0.24707031,-0.038085938,1.0693359,-3.0625,15.40625,3.28125
715,715,1727710215020,-0.32714844,-0.025390625,0.95410156,-2.25,37.25,-2.53125
716,716,1727710215060,-0.33984375,-0.025390625,0.9921875,13.125,51.65625,3.15625
717,717,1727710215100,-0.37597656,-0.0029296875,0.98535156,12.5625,75.71875,2.34375
718,718,1727710215140,-0.45703125,-0.005859375,0.9638672,-1.21875,102.0,-8.28125
719,719,1727710215180,-0.46972656,-0.052734375,0.9394531,0.125,144.0625,-4.0
720,720,1727710215220,-0.6591797,-0.01171875,0.84277344,-0.4375,237.5625,23.28125
721,721,1727710215260,-1.3203125,-0.034179688,0.6455078,-11.65625,106.84375,30.3125
722,722,1727710215300,-0.75683594,-0.01953125,0.6894531,16.0625,-5.53125,11.3125
723,723,1727710215340,-0.58496094,0.024414062,0.7890625,10.4375,-15.90625,14.5
724,724,1727710215380,-0.8535156,0.0029296875,0.671875,16.84375,7.40625,18.59375
725,725,1727710215420,-0.7128906,0.030273438,0.75,13.375,-0.15625,12.90625
726,726,1727710215460,-0.78027344,0.11621094,0.65722656,15.75,2.21875,20.59375
727,727,1727710215500,-0.7080078,-0.078125,0.7861328,20.25,-14.3125,14.75
728,728,1727710215540,-0.7451172,0.13183594,0.7138672,11.46875,7.71875,20.125
729,729,1727710215580,-0.81640625,0.060546875,0.59277344,17.6875,0.5625,18.59375
730,730,1727710215620,-0.67578125,0.09765625,0.7158203,15.5625,-2.1875,17.96875
731,731,1727710215660,-0.7470703,0.17285156,0.65625,12.9375,2.40625,20.84375
732,732,1727710215700,-0.7265625,0.045898438,0.61035156,15.8125,0.6875,16.28125
733,733,1727710215740,-0.5488281,0.21972656,0.6611328,11.0,-3.9375,13.8125
734,734,1727710215780,-0.7285156,0.171875,0.6298828,11.53125,4.28125,18.03125
735,735,1727710215820,-0.79589844,0.16015625,0.66308594,11.96875,6.75,12.46875
736,736,1727710215860,-0.71875,0.23535156,0.671875,10.9375,15.28125,14.8125
737,737,1727710215900,-0.74121094,0.15722656,0.6308594,7.4375,25.71875,17.0
738,738,1727710215940,-0.5888672,0.25585938,0.54003906,3.53125,15.46875,8.6875
739,739,1727710215980,-0.42871094,0.19238281,0.63378906,8.0625,-16.40625,8.6875
