,Unnamed: 0,timestamp,accel_x,accel_y,accel_z,gyro_x,gyro_y,gyro_z
0,0,1727019840031,0.22851562,-0.56933594,0.7949219,-0.0625,-0.1875,-0.15625
1,1,1727019840060,0.24023438,-0.5683594,0.79003906,0.0,0.1875,-0.21875
2,2,1727019840090,0.23339844,-0.5683594,0.79003906,0.0,0.125,-0.28125
3,3,1727019840151,0.23730469,-0.56933594,0.8076172,0.0625,0.0,-0.03125
4,4,1727019840180,0.23925781,-0.57714844,0.7861328,0.0625,-0.0625,0.15625
5,5,1727019840209,0.23535156,-0.5761719,0.7949219,0.0,0.0625,0.15625
6,6,1727019840270,0.23046875,-0.5732422,0.79589844,0.0625,-0.0625,0.09375
7,7,1727019840301,0.23730469,-0.57128906,0.78027344,-0.0625,-0.1875,-0.03125
8,8,1727019840331,0.23730469,-0.57910156,0.7890625,-0.0625,-0.0625,-0.09375
9,9,1727019840391,0.23632812,-0.57910156,0.7890625,0.0625,0.125,-0.09375
10,10,1727019840420,0.23535156,-0.5703125,0.7841797,0.0625,0.0625,-0.03125
11,11,1727019840450,0.23730469,-0.57421875,0.7910156,0.0,0.0,0.09375
12,12,1727019840511,0.23632812,-0.57128906,0.78808594,0.0625,0.125,0.15625
13,13,1727019840540,0.23046875,-0.56640625,0.7890625,0.09375,0.0,0.03125
14,14,1727019840571,0.23730469,-0.5810547,0.79785156,0.0,0.0625,0.15625
15,15,1727019840634,0.23339844,-0.5732422,0.79589844,0.09375,0.0625,0.03125
16,16,1727019840659,0.23339844,-0.5673828,0.79296875,0.0,0.125,0.03125
17,17,1727019840690,0.24511719,-0.5654297,0.7949219,0.0,0.0,0.21875
18,18,1727019840752,0.22265625,-0.5673828,0.79003906,-0.125,0.0,0.21875
19,19,1727019840780,0.23632812,-0.5751953,0.78027344,0.0625,0.0625,0.15625
20,20,1727019840810,0.24121094,-0.57128906,0.78515625,-0.125,-0.1875,-0.21875
21,21,1727019840874,0.23828125,-0.56347656,0.7792969,-0.125,-0.125,-0.03125
22,22,1727019840901,0.23535156,-0.5732422,0.78222656,-0.1875,-0.0625,0.21875
23,23,1727019840931,0.234375,-0.57714844,0.78515625,0.09375,-0.25,0.28125
24,24,1727019840992,0.23339844,-0.57128906,0.78515625,-0.125,-0.25,0.09375
25,25,1727019841020,0.23632812,-0.5683594,0.7939453,0.0,0.0625,0.03125
26,26,1727019841051,0.23046875,-0.5654297,0.7890625,0.0,0.0,-0.28125
27,27,1727019841112,0.24414062,-0.5644531,0.7998047,0.09375,0.3125,-0.09375
28,28,1727019841140,0.23144531,-0.5605469,0.80078125,0.15625,0.0,0.15625
29,29,1727019841203,0.23535156,-0.5732422,0.7939453,-0.0625,-0.0625,-0.03125
30,30,1727019841230,0.22949219,-0.5722656,0.7910156,0.0,-0.0625,-0.15625
31,31,1727019841292,0.234375,-0.5722656,0.7792969,-0.1875,-0.125,-0.15625
32,32,1727019841297,0.23339844,-0.56933594,0.7949219,0.0,0.0625,-0.09375
33,33,1727019841351,0.23339844,-0.578125,0.78808594,-0.0625,-0.125,-0.15625
34,34,1727019841380,0.23339844,-0.5732422,0.79589844,-0.0625,-0.125,0.09375
35,35,1727019841409,0.24316406,-0.5722656,0.78027344,-0.0625,-0.0625,-0.15625
36,36,1727019841472,0.234375,-0.5722656,0.7890625,-0.0625,-0.25,0.03125
37,37,1727019841499,0.23144531,-0.57421875,0.78125,0.09375,0.0625,-0.09375
38,38,1727019841529,0.2421875,-0.5703125,0.78808594,0.0625,0.0625,-0.09375
39,39,1727019841592,0.23925781,-0.5683594,0.7871094,0.09375,0.0625,-0.03125
40,40,1727019841621,0.23632812,-0.5654297,0.796875,0.0625,0.0625,-0.03125
41,41,1727019841651,0.21875,-0.5732422,0.7988281,-0.125,-0.125,-0.15625
42,42,1727019841713,0.23632812,-0.5732422,0.7734375,-0.1875,-0.0625,-0.21875
43,43,1727019841739,0.24316406,-0.5722656,0.7841797,-0.0625,-0.3125,-0.28125
44,44,1727019841770,0.23242188,-0.56933594,0.796875,-0.125,0.0625,-0.15625
45,45,1727019841866,0.23339844,-0.5751953,0.7919922,-0.125,-0.125,-0.03125
46,46,1727019841872,0.2265625,-0.5732422,0.7832031,0.09375,-0.125,0.09375
47,47,1727019841889,0.23046875,-0.5732422,0.79003906,-0.125,-0.1875,-0.03125
48,48,1727019841951,0.23828125,-0.5654297,0.7871094,0.0,0.0,-0.15625
49,49,1727019841980,0.23730469,-0.56640625,0.7998047,-0.0625,-0.125,-0.34375
50,50,1727019842010,0.22558594,-0.5703125,0.796875,0.09375,0.125,-0.09375
51,51,1727019842072,0.24316406,-0.57421875,0.78222656,0.0625,0.0,0.03125
52,52,1727019842101,0.234375,-0.5722656,0.78515625,-0.0625,0.0,0.03125
53,53,1727019842129,0.23046875,-0.5644531,0.78808594,0.0,0.0625,0.03125
54,54,1727019842191,0.23046875,-0.5644531,0.7939453,0.0,0.0,-0.03125
55,55,1727019842221,0.2265625,-0.5732422,0.7861328,-0.0625,-0.125,-0.03125
56,56,1727019842253,0.23632812,-0.5732422,0.7998047,0.0,0.0625,-0.15625
57,57,1727019842312,0.23339844,-0.5644531,0.79003906,0.15625,0.0625,0.03125
58,58,1727019842340,0.22851562,-0.5703125,0.7861328,0.0,0.0,-0.03125
59,59,1727019842373,0.23535156,-0.5703125,0.7939453,0.0,0.0625,-0.03125
60,60,1727019842433,0.23828125,-0.5595703,0.7832031,0.0,0.125,0.03125
61,61,1727019842460,0.22851562,-0.5751953,0.7832031,0.0,-0.0625,-0.09375
62,62,1727019842490,0.22753906,-0.5751953,0.78515625,0.0,0.0625,-0.15625
63,63,1727019842552,0.23144531,-0.5625,0.7841797,0.0,0.0625,-0.03125
64,64,1727019842580,0.23339844,-0.5722656,0.7949219,-0.0625,-0.0625,0.09375
65,65,1727019842610,0.21679688,-0.5732422,0.8046875,0.0625,-0.125,0.03125
66,66,1727019842672,0.23632812,-0.5644531,0.7949219,-0.1875,-0.1875,-0.21875
67,67,1727019842699,0.24121094,-0.5722656,0.76953125,-0.1875,-0.1875,-0.21875
68,68,1727019842731,0.23535156,-0.578125,0.7988281,-0.3125,-0.0625,-0.09375
69,69,1727019842793,0.24023438,-0.56347656,0.7890625,-0.0625,-0.1875,0.09375
70,70,1727019842819,0.22949219,-0.57714844,0.7783203,0.0,-0.1875,0.15625
71,71,1727019842849,0.22949219,-0.57128906,0.78125,-0.0625,-0.0625,0.03125
72,72,1727019842912,0.23046875,-0.56640625,0.78515625,0.0,0.0,-0.21875
73,73,1727019842944,0.22460938,-0.56640625,0.7763672,0.0,0.1875,-0.15625
74,74,1727019842970,0.234375,-0.5722656,0.79296875,0.15625,0.0,-0.03125
75,75,1727019843032,0.23925781,-0.56347656,0.7939453,-0.0625,-0.0625,0.15625
76,76,1727019843060,0.23046875,-0.56933594,0.8017578,0.0,0.0,-0.03125
77,77,1727019843093,0.22851562,-0.5625,0.79785156,0.0625,-0.0625,0.15625
78,78,1727019843153,0.23046875,-0.5703125,0.7939453,0.0,-0.125,-0.09375
79,79,1727019843180,0.23046875,-0.57421875,0.7861328,-0.0625,-0.125,-0.09375
80,80,1727019843210,0.22460938,-0.578125,0.78808594,0.0,0.0625,-0.03125
81,81,1727019843272,0.22949219,-0.57128906,0.7988281,0.0,0.0625,0.03125
82,82,1727019843300,0.22460938,-0.5703125,0.7949219,-0.0625,-0.0625,0.03125
83,83,1727019843331,0.23828125,-0.57128906,0.7890625,0.0,-0.0625,0.15625
84,84,1727019843423,0.23535156,-0.5683594,0.79785156,0.0,0.0,0.09375
85,85,1727019843428,0.22851562,-0.5703125,0.7919922,0.0625,0.0,0.09375
86,86,1727019843482,0.23339844,-0.57128906,0.7998047,0.0625,0.125,0.15625
87,87,1727019843510,0.23046875,-0.5722656,0.7910156,0.15625,0.0,0.09375
88,88,1727019843540,0.24023438,-0.56640625,0.7890625,0.09375,0.0,-0.09375
89,89,1727019843570,0.234375,-0.56640625,0.79296875,0.0625,0.0,0.15625
90,90,1727019843632,0.23144531,-0.5683594,0.78515625,-0.1875,-0.125,-0.15625
91,91,1727019843660,0.23046875,-0.5673828,0.78808594,-0.1875,0.0625,-0.21875
92,92,1727019843689,0.23144531,-0.5751953,0.7890625,-0.375,-0.03125,-0.34375
93,93,1727019843720,0.23535156,-0.5761719,0.7792969,-0.375,-0.09375,-0.09375
94,94,1727019843782,0.23144531,-0.5644531,0.76660156,0.0,0.0,0.09375
95,95,1727019843810,0.2265625,-0.5761719,0.78808594,0.1875,-0.03125,0.03125
96,96,1727019843840,0.23046875,-0.5732422,0.7890625,-0.1875,-0.03125,-0.09375
97,97,1727019843900,0.23535156,-0.57714844,0.7783203,0.25,0.1875,-0.28125
98,98,1727019843930,0.23535156,-0.5625,0.7910156,0.1875,0.125,-0.34375
99,99,1727019843960,0.23046875,-0.5703125,0.78027344,0.0625,0.0,-0.21875
100,100,1727019844021,0.2265625,-0.5654297,0.79003906,0.0,0.0625,-0.09375
101,101,1727019844050,0.23046875,-0.57714844,0.7783203,-0.125,-0.09375,-0.03125
102,102,1727019844081,0.234375,-0.56933594,0.79785156,0.0,0.0,0.03125
103,103,1727019844143,0.23339844,-0.57421875,0.7988281,0.0625,0.0625,-0.03125
104,104,1727019844170,0.22558594,-0.57421875,0.7890625,0.0625,0.125,-0.09375
105,105,1727019844200,0.22949219,-0.5683594,0.8046875,0.0625,0.125,-0.15625
106,106,1727019844262,0.22949219,-0.56933594,0.7890625,-0.0625,-0.09375,-0.09375
107,107,1727019844290,0.23046875,-0.56933594,0.7792969,0.0,0.125,0.03125
108,108,1727019844352,0.23535156,-0.5683594,0.80566406,-0.125,-0.15625,-0.03125
109,109,1727019844379,0.23828125,-0.57714844,0.78027344,-0.0625,-0.03125,-0.03125
110,110,1727019844410,0.23730469,-0.5625,0.7841797,0.0,0.0,-0.15625
111,111,1727019844440,0.22753906,-0.57421875,0.79296875,0.0625,0.125,-0.03125
112,112,1727019844502,0.23925781,-0.5732422,0.8066406,0.125,-0.03125,0.03125
113,113,1727019844530,0.2421875,-0.56640625,0.79296875,0.0,0.0625,-0.03125
114,114,1727019844559,0.23339844,-0.5732422,0.7871094,0.0625,-0.03125,-0.09375
115,115,1727019844622,0.23046875,-0.56152344,0.7988281,-0.0625,0.0625,0.03125
116,116,1727019844650,0.22460938,-0.56640625,0.8027344,0.0,0.0,-0.03125
117,117,1727019844680,0.24023438,-0.5654297,0.80078125,-0.0625,-0.09375,-0.21875
118,118,1727019844741,0.23730469,-0.5625,0.7890625,-0.0625,-0.21875,-0.03125
119,119,1727019844769,0.23828125,-0.5644531,0.7792969,0.0,0.0625,-0.03125
120,120,1727019844800,0.21777344,-0.5673828,0.80566406,-0.0625,-0.09375,-0.03125
121,121,1727019844862,0.22167969,-0.5703125,0.7919922,-0.0625,-0.15625,0.09375
122,122,1727019844921,0.23242188,-0.5810547,0.78808594,-0.0625,-0.09375,-0.09375
123,123,1727019844927,0.23730469,-0.5683594,0.79589844,-0.125,-0.03125,-0.21875
124,124,1727019844980,0.23242188,-0.5673828,0.7988281,-0.0625,-0.03125,-0.15625
125,125,1727019845010,0.23339844,-0.56933594,0.7988281,0.125,0.0,-0.03125
126,126,1727019845040,0.23730469,-0.5751953,0.7841797,0.0625,0.1875,0.03125
127,127,1727019845102,0.23339844,-0.5673828,0.796875,0.0,0.125,-0.09375
128,128,1727019845129,0.234375,-0.5732422,0.79589844,0.1875,0.0625,0.03125
129,129,1727019845160,0.24121094,-0.56933594,0.7890625,0.0625,0.0625,0.09375
130,130,1727019845223,0.2421875,-0.56933594,0.7841797,-0.0625,-0.09375,-0.03125
131,131,1727019845250,0.2421875,-0.5625,0.80371094,0.0625,0.0625,0.03125
132,132,1727019845281,0.23632812,-0.57128906,0.7988281,0.0,0.0625,-0.03125
133,133,1727019845343,0.23730469,-0.5761719,0.7890625,0.0,-0.09375,0.09375
134,134,1727019845369,0.23535156,-0.5732422,0.79589844,0.125,0.0625,0.03125
135,135,1727019845400,0.23339844,-0.56933594,0.79589844,0.0,0.0625,0.09375
136,136,1727019845462,0.22949219,-0.56347656,0.7949219,-0.0625,-0.03125,0.03125
137,137,1727019845490,0.234375,-0.5654297,0.7890625,0.0,0.0625,0.03125
138,138,1727019845520,0.23339844,-0.5683594,0.7910156,0.0,0.0,0.15625
139,139,1727019845582,0.23535156,-0.5683594,0.7998047,0.0,0.125,0.03125
140,140,1727019845610,0.23144531,-0.56640625,0.8095703,0.0,0.0625,-0.09375
141,141,1727019845639,0.234375,-0.5605469,0.78222656,0.125,0.0625,0.21875
142,142,1727019845703,0.23339844,-0.56347656,0.80859375,0.0625,0.125,0.15625
143,143,1727019845762,0.22363281,-0.5703125,0.78515625,0.0625,0.0,-0.03125
144,144,1727019845767,0.23828125,-0.56640625,0.7998047,-0.0625,-0.21875,-0.09375
145,145,1727019845822,0.24121094,-0.578125,0.80078125,-0.1875,-0.21875,-0.21875
146,146,1727019845850,0.23144531,-0.56933594,0.78515625,-0.25,0.0625,0.09375
147,147,1727019845882,0.23144531,-0.5722656,0.7832031,0.0,-0.09375,0.15625
148,148,1727019845943,0.22949219,-0.57128906,0.7861328,0.0625,-0.09375,0.09375
149,149,1727019845969,0.23730469,-0.56933594,0.7939453,-0.0625,0.0,-0.28125
150,150,1727019846000,0.22949219,-0.5732422,0.79296875,0.125,0.0,-0.34375
151,151,1727019846061,0.22949219,-0.5673828,0.8027344,-0.25,-0.03125,-0.34375
152,152,1727019846090,0.22851562,-0.5761719,0.79296875,-0.0625,-0.03125,-0.15625
153,153,1727019846120,0.23730469,-0.5683594,0.7949219,-0.1875,-0.09375,-0.03125
154,154,1727019846182,0.23535156,-0.5703125,0.7949219,-0.125,-0.15625,-0.15625
155,155,1727019846210,0.23339844,-0.5654297,0.78808594,0.0,0.0,-0.21875
156,156,1727019846240,0.23339844,-0.56933594,0.7988281,0.0625,0.0,-0.15625
157,157,1727019846302,0.22851562,-0.56347656,0.7910156,0.0,-0.0625,-0.125
158,158,1727019846330,0.23632812,-0.5625,0.78515625,-0.0625,-0.0625,-0.1875
159,159,1727019846360,0.21972656,-0.5732422,0.79785156,-0.125,-0.1875,-0.125
160,160,1727019846421,0.23339844,-0.57128906,0.79003906,-0.25,-0.1875,0.0
161,161,1727019846453,0.22265625,-0.56933594,0.7890625,-0.25,-0.125,-0.1875
162,162,1727019846481,0.23828125,-0.5761719,0.7763672,-0.0625,-0.125,-0.125
163,163,1727019846542,0.234375,-0.56933594,0.79296875,0.0,0.0625,-0.25
164,164,1727019846574,0.23046875,-0.5732422,0.7910156,0.0,0.0,-0.1875
165,165,1727019846599,0.23144531,-0.5654297,0.7949219,-0.0625,-0.0625,0.09375
166,166,1727019846660,0.23730469,-0.56933594,0.7861328,-0.0625,-0.25,0.0
167,167,1727019846692,0.23535156,-0.5683594,0.7890625,-0.25,-0.25,-0.0625
168,168,1727019846722,0.234375,-0.5732422,0.7910156,-0.25,-0.3125,-0.25
169,169,1727019846782,0.2421875,-0.5595703,0.7919922,-0.25,-0.1875,-0.125
170,170,1727019846809,0.23339844,-0.5722656,0.80371094,-0.125,-0.125,0.0
171,171,1727019846840,0.23730469,-0.57421875,0.7890625,0.0,-0.1875,0.0625
172,172,1727019846902,0.23339844,-0.5761719,0.78125,-0.1875,-0.25,0.0625
173,173,1727019846930,0.23339844,-0.57421875,0.7890625,-0.0625,-0.0625,-0.0625
174,174,1727019846960,0.22949219,-0.5732422,0.79589844,-0.0625,0.0,-0.125
175,175,1727019847023,0.22949219,-0.5605469,0.8027344,0.0,0.0,-0.25
176,176,1727019847049,0.23535156,-0.57714844,0.78027344,0.0625,-0.1875,-0.0625
177,177,1727019847112,0.22558594,-0.57128906,0.79296875,-0.1875,-0.0625,-0.125
178,178,1727019847140,0.23632812,-0.5644531,0.78515625,0.0625,0.0,-0.1875
179,179,1727019847170,0.23339844,-0.5625,0.7871094,-0.125,-0.25,-0.125
180,180,1727019847200,0.22851562,-0.56640625,0.7919922,-0.125,-0.0625,-0.0625
181,181,1727019847262,0.2421875,-0.5673828,0.78027344,-0.125,-0.125,-0.125
182,182,1727019847290,0.23535156,-0.5644531,0.7841797,-0.125,-0.0625,-0.125
183,183,1727019847320,0.234375,-0.5751953,0.8027344,0.0,0.0,0.0
184,184,1727019847382,0.23730469,-0.56933594,0.7714844,0.0625,0.0,-0.0625
185,185,1727019847410,0.23535156,-0.57128906,0.7919922,0.0625,0.125,0.0
186,186,1727019847440,0.234375,-0.5683594,0.79003906,-0.0625,-0.1875,-0.0625
187,187,1727019847502,0.23242188,-0.56152344,0.8027344,-0.0625,-0.0625,0.09375
188,188,1727019847530,0.23535156,-0.5722656,0.7939453,0.0,-0.0625,0.0625
189,189,1727019847566,0.23828125,-0.56347656,0.7939453,0.0,0.0625,-0.0625
190,190,1727019847623,0.24414062,-0.5761719,0.79589844,-0.0625,-0.0625,-0.0625
191,191,1727019847649,0.24316406,-0.5722656,0.7949219,-0.0625,-0.1875,0.09375
192,192,1727019847681,0.21484375,-0.56933594,0.79003906,0.0625,0.0625,0.0625
193,193,1727019847742,0.22558594,-0.5732422,0.7939453,-0.375,-0.0625,-0.0625
194,194,1727019847770,0.2421875,-0.5683594,0.7949219,-0.375,-0.1875,-0.1875
195,195,1727019847800,0.23242188,-0.56933594,0.7988281,-0.125,0.0,0.15625
196,196,1727019847862,0.234375,-0.56933594,0.78808594,-0.1875,-0.0625,0.21875
197,197,1727019847890,0.23144531,-0.5732422,0.7910156,-0.0625,-0.1875,0.21875
198,198,1727019847919,0.23535156,-0.56933594,0.77246094,-0.1875,-0.1875,0.0625
199,199,1727019847982,0.23535156,-0.5722656,0.7939453,0.0,0.0,-0.25
200,200,1727019848042,0.22753906,-0.56640625,0.79003906,-0.125,-0.125,-0.1875
201,201,1727019848049,0.22949219,-0.5654297,0.7949219,-0.125,-0.125,-0.1875
202,202,1727019848103,0.24121094,-0.57421875,0.7861328,-0.0625,-0.125,0.0625
203,203,1727019848130,0.22460938,-0.57714844,0.78027344,-0.1875,-0.0625,0.09375
204,204,1727019848162,0.23339844,-0.5703125,0.7832031,0.0,-0.125,-0.0625
205,205,1727019848220,0.22851562,-0.5644531,0.80371094,-0.0625,-0.1875,0.0625
206,206,1727019848249,0.234375,-0.5673828,0.7753906,-0.0625,-0.125,0.0
207,207,1727019848281,0.23535156,-0.56933594,0.79589844,-0.0625,-0.125,-0.25
208,208,1727019848342,0.23535156,-0.57128906,0.7910156,-0.125,-0.1875,-0.0625
209,209,1727019848370,0.23828125,-0.578125,0.78515625,-0.125,-0.1875,-0.125
210,210,1727019848400,0.23144531,-0.5654297,0.79003906,-0.1875,-0.125,0.0625
211,211,1727019848462,0.24316406,-0.5703125,0.7753906,-0.0625,-0.0625,0.0
212,212,1727019848490,0.23535156,-0.5683594,0.80078125,-0.0625,-0.125,-0.125
213,213,1727019848519,0.22558594,-0.57128906,0.7861328,0.0625,0.0625,-0.1875
214,214,1727019848580,0.23144531,-0.5722656,0.7910156,0.0,0.0625,-0.25
215,215,1727019848610,0.23730469,-0.5625,0.78125,0.0625,0.0,0.0
216,216,1727019848640,0.2265625,-0.56152344,0.7939453,-0.125,-0.125,-0.0625
217,217,1727019848702,0.22753906,-0.57128906,0.79589844,-0.3125,-0.1875,-0.25
218,218,1727019848730,0.23339844,-0.5703125,0.7949219,-0.3125,-0.25,-0.3125
219,219,1727019848761,0.234375,-0.5751953,0.7861328,-0.3125,-0.1875,-0.1875
220,220,1727019848823,0.22558594,-0.57714844,0.78125,-0.0625,-0.0625,0.0
221,221,1727019848849,0.22558594,-0.5800781,0.80566406,0.125,-0.25,0.0625
222,222,1727019848881,0.23339844,-0.5703125,0.79589844,-0.25,-0.1875,-0.0625
223,223,1727019848943,0.23046875,-0.57714844,0.7988281,-0.0625,-0.0625,-0.25
224,224,1727019848970,0.22753906,-0.57128906,0.78125,-0.125,0.0,-0.1875
225,225,1727019849000,0.23632812,-0.56933594,0.78515625,0.0,0.0625,-0.0625
226,226,1727019849062,0.234375,-0.5644531,0.7753906,0.0,-0.0625,0.0
227,227,1727019849090,0.23144531,-0.57910156,0.78222656,-0.25,-0.125,-0.125
228,228,1727019849120,0.2265625,-0.56347656,0.8027344,-0.0625,0.0,-0.125
229,229,1727019849181,0.23339844,-0.57128906,0.7792969,0.1875,0.0625,-0.0625
230,230,1727019849209,0.23144531,-0.56933594,0.7939453,0.0,0.0625,-0.3125
231,231,1727019849273,0.23144531,-0.5644531,0.78515625,-0.0625,-0.0625,-0.125
232,232,1727019849299,0.23535156,-0.55859375,0.7949219,-0.0625,-0.125,-0.125
233,233,1727019849329,0.22753906,-0.5673828,0.8017578,-0.125,-0.3125,0.0
234,234,1727019849360,0.22949219,-0.5703125,0.7910156,-0.0625,-0.1875,-0.0625
235,235,1727019849423,0.23535156,-0.56933594,0.7939453,-0.0625,-0.125,-0.125
236,236,1727019849450,0.234375,-0.5761719,0.8027344,0.0,0.0,-0.0625
237,237,1727019849483,0.23730469,-0.5732422,0.79589844,0.0625,-0.0625,-0.125
238,238,1727019849542,0.234375,-0.5605469,0.78515625,-0.0625,-0.125,-0.125
239,239,1727019849570,0.24023438,-0.578125,0.7988281,-0.125,-0.0625,-0.125
240,240,1727019849599,0.24414062,-0.56640625,0.7841797,-0.0625,-0.0625,-0.125
241,241,1727019849660,0.23144531,-0.5683594,0.7841797,-0.0625,-0.1875,0.09375
242,242,1727019849689,0.21875,-0.5761719,0.8046875,-0.125,-0.0625,-0.0625
243,243,1727019849719,0.23925781,-0.5683594,0.7890625,-0.25,-0.25,-0.3125
244,244,1727019849782,0.2421875,-0.5644531,0.78125,-0.125,-0.375,-0.125
245,245,1727019849811,0.23242188,-0.56640625,0.78222656,-0.25,-0.125,0.0
246,246,1727019849842,0.22949219,-0.5595703,0.78515625,0.125,-0.25,0.21875
247,247,1727019849901,0.23339844,-0.5703125,0.79296875,-0.1875,-0.25,0.0625
248,248,1727019849929,0.22558594,-0.56347656,0.7763672,0.0,0.0,-0.25
249,249,1727019849960,0.22949219,-0.5703125,0.78125,-0.1875,-0.0625,-0.1875
250,250,1727019850022,0.22851562,-0.56640625,0.78027344,0.0,0.125,-0.125
251,251,1727019850053,0.22949219,-0.57421875,0.78808594,0.0,0.0,0.15625
252,252,1727019850079,0.22363281,-0.5683594,0.7783203,0.0625,0.0,0.09375
253,253,1727019850142,0.23046875,-0.5703125,0.78515625,-0.125,-0.0625,0.0625
254,254,1727019850169,0.2265625,-0.5722656,0.7910156,0.0,0.0,0.0625
255,255,1727019850199,0.23046875,-0.5644531,0.7939453,0.0625,0.0,-0.0625
256,256,1727019850353,0.23144531,-0.5683594,0.80078125,-0.0625,-0.125,0.0
257,257,1727019850359,0.23535156,-0.5673828,0.7988281,-0.0625,-0.1875,0.0
258,258,1727019850362,0.24316406,-0.57128906,0.78027344,-0.0625,-0.1875,0.0625
259,259,1727019850381,0.23535156,-0.57421875,0.79589844,-0.0625,-0.1875,0.09375
260,260,1727019850411,0.22949219,-0.5751953,0.77246094,-0.0625,-0.1875,0.09375
261,261,1727019850440,0.234375,-0.56933594,0.78125,0.0,0.0625,0.0
262,262,1727019850501,0.23828125,-0.56640625,0.79785156,-0.0625,-0.125,0.0
263,263,1727019850529,0.23046875,-0.5732422,0.7841797,0.125,0.0625,-0.0625
264,264,1727019850592,0.23046875,-0.5703125,0.79589844,-0.0625,0.0,-0.125
265,265,1727019850620,0.23828125,-0.5605469,0.7841797,0.0,0.0625,-0.125
266,266,1727019850650,0.22753906,-0.5683594,0.7841797,-0.0625,-0.125,0.0625
267,267,1727019850680,0.22167969,-0.57128906,0.79785156,-0.25,-0.125,-0.1875
268,268,1727019850742,0.23535156,-0.5654297,0.80078125,-0.1875,-0.3125,-0.3125
269,269,1727019850771,0.24511719,-0.57128906,0.7890625,-0.1875,-0.25,-0.1875
270,270,1727019850800,0.23144531,-0.5732422,0.79589844,-0.3125,-0.3125,0.0
271,271,1727019850862,0.22949219,-0.5644531,0.7939453,-0.0625,-0.1875,0.0
272,272,1727019850890,0.22753906,-0.5673828,0.79785156,-0.0625,-0.1875,0.0625
273,273,1727019850920,0.22851562,-0.5703125,0.78125,-0.125,-0.0625,-0.1875
274,274,1727019850983,0.23730469,-0.5625,0.79785156,0.0,0.125,-0.3125
275,275,1727019851010,0.23144531,-0.56640625,0.7939453,-0.125,-0.125,-0.25
276,276,1727019851042,0.2421875,-0.5625,0.79785156,-0.125,-0.1875,-0.1875
277,277,1727019851101,0.23925781,-0.5625,0.80078125,-0.125,-0.1875,0.0
278,278,1727019851130,0.23046875,-0.5751953,0.7861328,-0.25,-0.25,0.0
279,279,1727019851160,0.23925781,-0.5722656,0.7861328,0.0,-0.125,-0.0625
280,280,1727019851222,0.23730469,-0.5703125,0.7998047,0.125,0.125,-0.1875
281,281,1727019851250,0.23046875,-0.5732422,0.78808594,0.125,0.0,-0.1875
282,282,1727019851280,0.23828125,-0.58203125,0.78808594,-0.0625,-0.0625,-0.25
283,283,1727019851341,0.23339844,-0.56152344,0.80078125,-0.0625,-0.125,-0.1875
284,284,1727019851371,0.23242188,-0.5625,0.78808594,-0.0625,-0.3125,0.0625
285,285,1727019851400,0.24316406,-0.56933594,0.7753906,-0.125,-0.25,-0.0625
286,286,1727019851462,0.23730469,-0.56152344,0.7861328,0.0,0.0,-0.1875
287,287,1727019851489,0.22851562,-0.56640625,0.7910156,0.0,-0.03125,-0.0625
288,288,1727019851519,0.22558594,-0.5722656,0.7763672,0.25,0.09375,0.0
289,289,1727019851582,0.22851562,-0.56933594,0.7841797,0.0625,0.28125,0.0
290,290,1727019851609,0.234375,-0.5625,0.78808594,0.0625,0.15625,-0.125
291,291,1727019851640,0.23144531,-0.5683594,0.79003906,-0.0625,-0.03125,0.125
292,292,1727019851702,0.22460938,-0.5732422,0.7871094,-0.0625,-0.03125,0.0
293,293,1727019851729,0.24316406,-0.5644531,0.7988281,-0.125,-0.03125,-0.1875
294,294,1727019851760,0.23828125,-0.56347656,0.7832031,-0.125,-0.1875,-0.125
295,295,1727019851822,0.22460938,-0.5722656,0.80078125,-0.1875,-0.03125,0.125
296,296,1727019851850,0.24023438,-0.5625,0.78515625,-0.125,-0.1875,0.0
297,297,1727019851880,0.23144531,-0.56640625,0.7998047,-0.0625,-0.09375,0.125
298,298,1727019851942,0.23535156,-0.57128906,0.7705078,-0.125,-0.09375,-0.0625
299,299,1727019851969,0.23828125,-0.5761719,0.796875,0.0625,0.15625,-0.25
300,300,1727019851999,0.22949219,-0.57714844,0.79003906,0.125,0.21875,-0.0625
301,301,1727019852030,0.23046875,-0.57128906,0.7890625,0.125,0.09375,-0.0625
302,302,1727019852092,0.23046875,-0.56933594,0.8027344,0.125,-0.09375,0.0625
303,303,1727019852120,0.23535156,-0.56933594,0.7763672,-0.125,-0.09375,0.0
304,304,1727019852150,0.24414062,-0.57421875,0.7890625,0.0,-0.09375,0.125
305,305,1727019852211,0.22949219,-0.5625,0.80371094,0.125,-0.09375,0.0625
306,306,1727019852239,0.23535156,-0.57128906,0.79589844,0.0,-0.09375,-0.0625
307,307,1727019852270,0.234375,-0.57421875,0.79003906,0.0,-0.03125,-0.0625
308,308,1727019852332,0.22851562,-0.5732422,0.78515625,0.125,0.15625,0.125
309,309,1727019852359,0.22753906,-0.5722656,0.7832031,0.0625,0.15625,0.25
310,310,1727019852420,0.23535156,-0.56640625,0.7949219,-0.0625,-0.09375,0.0625
311,311,1727019852450,0.23046875,-0.56933594,0.78222656,0.0625,0.09375,0.0625
312,312,1727019852480,0.23339844,-0.5644531,0.7939453,-0.0625,0.03125,0.1875
313,313,1727019852510,0.23242188,-0.5683594,0.7890625,0.0625,0.03125,0.0625
314,314,1727019852603,0.234375,-0.56640625,0.8095703,0.0,-0.09375,0.25
315,315,1727019852608,0.23339844,-0.5673828,0.7998047,0.0,0.03125,0.1875
316,316,1727019852630,0.23535156,-0.5761719,0.7988281,-0.0625,-0.15625,-0.0625
317,317,1727019852691,0.23632812,-0.5703125,0.78808594,0.0625,0.09375,0.25
318,318,1727019852723,0.234375,-0.578125,0.78515625,0.0,0.09375,0.3125
319,319,1727019852752,0.22753906,-0.5703125,0.78027344,0.0,0.03125,0.0625
320,320,1727019852809,0.23828125,-0.5722656,0.7998047,0.0,-0.09375,-0.125
321,321,1727019852839,0.234375,-0.5605469,0.7998047,-0.1875,-0.09375,0.0
322,322,1727019852871,0.2265625,-0.5732422,0.79003906,-0.125,-0.03125,0.125
323,323,1727019852932,0.22949219,-0.5703125,0.7939453,0.125,-0.09375,0.3125
324,324,1727019852966,0.22460938,-0.5654297,0.79296875,0.0,-0.09375,0.125
325,325,1727019852989,0.23828125,-0.5761719,0.81152344,0.0625,0.15625,-0.3125
326,326,1727019853052,0.23144531,-0.56640625,0.78125,0.1875,0.09375,-0.3125
327,327,1727019853080,0.23828125,-0.5644531,0.78808594,0.0,0.15625,-0.1875
328,328,1727019853110,0.23828125,-0.56640625,0.7949219,-0.0625,-0.1875,0.1875
329,329,1727019853172,0.22949219,-0.5644531,0.7910156,-0.125,-0.25,0.0
330,330,1727019853200,0.23144531,-0.57128906,0.79589844,-0.1875,-0.03125,-0.0625
331,331,1727019853230,0.23730469,-0.57128906,0.7841797,0.0,0.03125,0.0625
332,332,1727019853292,0.23535156,-0.5732422,0.7919922,0.125,0.15625,-0.125
333,333,1727019853320,0.23535156,-0.5644531,0.7871094,0.0,0.03125,-0.1875
334,334,1727019853350,0.23730469,-0.56933594,0.8154297,0.0,0.03125,-0.125
335,335,1727019853412,0.23046875,-0.5761719,0.7783203,-0.1875,-0.03125,-0.125
336,336,1727019853439,0.23925781,-0.56347656,0.7861328,-0.1875,-0.15625,0.0
337,337,1727019853469,0.23339844,-0.5703125,0.7910156,-0.0625,-0.09375,0.0
338,338,1727019853532,0.22753906,-0.56933594,0.7783203,0.0625,0.09375,-0.125
339,339,1727019853559,0.23535156,-0.5625,0.78515625,0.125,0.15625,-0.0625
340,340,1727019853589,0.23242188,-0.5605469,0.78222656,0.1875,0.09375,-0.0625
341,341,1727019853653,0.23144531,-0.57421875,0.80371094,0.0625,-0.03125,0.0
342,342,1727019853680,0.22167969,-0.5732422,0.79589844,0.0,0.03125,0.1875
343,343,1727019853710,0.23535156,-0.57910156,0.7841797,-0.0625,-0.15625,0.0625
344,344,1727019853771,0.23144531,-0.56933594,0.7939453,-0.125,-0.09375,-0.1875
345,345,1727019853803,0.23339844,-0.57128906,0.7939453,-0.125,-0.09375,-0.0625
346,346,1727019853831,0.23339844,-0.5683594,0.7783203,0.0,-0.03125,0.125
347,347,1727019853891,0.23046875,-0.5625,0.7998047,0.1875,-0.3125,0.25
348,348,1727019853919,0.23046875,-0.5703125,0.77441406,0.0,-0.09375,0.0
349,349,1727019853950,0.234375,-0.5654297,0.79003906,0.0,0.03125,-0.125
350,350,1727019854012,0.22851562,-0.5644531,0.78027344,0.0,0.09375,-0.125
351,351,1727019854039,0.23242188,-0.5625,0.78808594,0.0625,0.03125,0.0625
352,352,1727019854070,0.23632812,-0.578125,0.79589844,0.125,0.09375,0.0625
353,353,1727019854132,0.23632812,-0.5732422,0.8046875,0.0,0.03125,0.0
354,354,1727019854159,0.23828125,-0.56933594,0.7861328,0.0,-0.09375,0.125
355,355,1727019854190,0.23046875,-0.56933594,0.7871094,0.1875,-0.03125,0.0625
356,356,1727019854252,0.23339844,-0.5751953,0.78808594,0.0625,0.03125,0.0625
357,357,1727019854282,0.23632812,-0.5703125,0.7890625,0.125,0.15625,-0.125
358,358,1727019854310,0.23632812,-0.5722656,0.79589844,0.0625,0.03125,0.1875
359,359,1727019854371,0.23046875,-0.5605469,0.77441406,0.0,0.03125,0.1875
360,360,1727019854403,0.24316406,-0.5703125,0.7861328,0.0,-0.03125,0.1875
361,361,1727019854432,0.22851562,-0.5683594,0.77734375,0.125,0.09375,0.0625
362,362,1727019854492,0.2421875,-0.5722656,0.796875,0.0,-0.03125,0.125
363,363,1727019854519,0.23144531,-0.56933594,0.79785156,0.125,0.03125,0.125
364,364,1727019854550,0.23828125,-0.5703125,0.78515625,0.0,-0.03125,0.0625
365,365,1727019854611,0.23925781,-0.57128906,0.77441406,0.0625,0.09375,0.0625
366,366,1727019854639,0.23828125,-0.56933594,0.80566406,0.0,-0.15625,0.125
367,367,1727019854671,0.22949219,-0.5644531,0.7714844,0.0625,0.21875,0.25
368,368,1727019854733,0.22949219,-0.5722656,0.79003906,0.0625,0.09375,0.125
369,369,1727019854760,0.23925781,-0.56933594,0.79785156,-0.125,-0.03125,-0.1875
370,370,1727019854790,0.23046875,-0.56347656,0.78222656,-0.0625,-0.09375,0.1875
371,371,1727019854884,0.22753906,-0.5654297,0.796875,-0.0625,-0.09375,0.3125
372,372,1727019854890,0.22753906,-0.5703125,0.7939453,0.125,-0.15625,0.4375
373,373,1727019854910,0.23046875,-0.5625,0.8027344,0.0,0.03125,0.125
374,374,1727019854971,0.22851562,-0.5644531,0.7890625,0.125,0.21875,0.0
375,375,1727019855001,0.22851562,-0.5703125,0.79589844,0.0,-0.03125,0.0
376,376,1727019855030,0.23828125,-0.56640625,0.7949219,0.0625,0.15625,0.1875
377,377,1727019855090,0.23339844,-0.56347656,0.78515625,0.0625,0.09375,0.25
378,378,1727019855120,0.23535156,-0.56640625,0.80371094,0.0,-0.03125,0.125
379,379,1727019855150,0.23730469,-0.56152344,0.8046875,0.125,0.28125,0.1875
380,380,1727019855213,0.22753906,-0.56640625,0.7910156,0.1875,0.09375,0.1875
381,381,1727019855248,0.22851562,-0.5625,0.79785156,0.0625,0.03125,0.125
382,382,1727019855277,0.23828125,-0.56640625,0.78125,-0.0625,-0.03125,0.0625
383,383,1727019855332,0.22851562,-0.5761719,0.796875,0.0625,0.09375,0.0
384,384,1727019855360,0.23242188,-0.5644531,0.7949219,0.0,-0.15625,-0.0625
385,385,1727019855389,0.23535156,-0.5683594,0.78808594,0.0,-0.03125,0.0
386,386,1727019855452,0.22851562,-0.5683594,0.79589844,-0.0625,0.03125,-0.125
387,387,1727019855480,0.23046875,-0.5703125,0.79003906,0.125,0.09375,-0.0625
388,388,1727019855510,0.22949219,-0.56152344,0.79785156,0.125,0.09375,-0.0625
389,389,1727019855572,0.23339844,-0.5703125,0.80078125,0.0625,0.09375,-0.125
390,390,1727019855600,0.22265625,-0.56640625,0.7939453,-0.125,-0.09375,0.1875
391,391,1727019855632,0.22851562,-0.57128906,0.8027344,0.125,0.09375,0.0625
392,392,1727019855692,0.23730469,-0.57128906,0.79296875,0.0,-0.03125,0.0
393,393,1727019855720,0.23339844,-0.578125,0.7910156,0.0,-0.09375,-0.1875
394,394,1727019855750,0.23828125,-0.5683594,0.7949219,-0.0625,-0.03125,0.0
395,395,1727019855813,0.23535156,-0.56640625,0.80078125,-0.125,-0.03125,0.0625
396,396,1727019855845,0.234375,-0.56347656,0.79003906,0.25,-0.09375,0.25
397,397,1727019855870,0.22558594,-0.5683594,0.79003906,0.0,0.03125,0.125
398,398,1727019855931,0.23339844,-0.56152344,0.7890625,0.125,0.15625,-0.1875
399,399,1727019855959,0.22265625,-0.57421875,0.7841797,0.125,0.15625,-0.1875
400,400,1727019855989,0.22558594,-0.5683594,0.7890625,0.0625,0.03125,0.0
401,401,1727019856051,0.234375,-0.5703125,0.79003906,0.125,0.03125,0.0625
402,402,1727019856081,0.24023438,-0.5683594,0.7871094,0.0,0.03125,0.125
403,403,1727019856110,0.22753906,-0.56933594,0.796875,0.0,0.03125,0.125
404,404,1727019856172,0.23632812,-0.5732422,0.7939453,0.125,0.03125,0.0625
405,405,1727019856200,0.2265625,-0.57714844,0.7890625,0.0625,-0.03125,0.0
406,406,1727019856230,0.23339844,-0.57421875,0.7832031,0.0625,0.09375,0.0
407,407,1727019856292,0.23144531,-0.57128906,0.79589844,0.0,0.03125,-0.0625
408,408,1727019856319,0.22460938,-0.57421875,0.78808594,0.0,-0.03125,0.1875
409,409,1727019856350,0.23046875,-0.5722656,0.8066406,0.0,-0.15625,0.0625
410,410,1727019856412,0.23925781,-0.57714844,0.78125,0.125,0.03125,0.1875
411,411,1727019856446,0.23535156,-0.56640625,0.79003906,0.125,0.15625,0.125
412,412,1727019856469,0.22949219,-0.57128906,0.78027344,0.0625,-0.03125,0.0
413,413,1727019856533,0.23535156,-0.5722656,0.7910156,0.1875,0.21875,-0.0625
414,414,1727019856560,0.23046875,-0.5761719,0.80078125,0.125,0.15625,0.0625
415,415,1727019856590,0.234375,-0.5654297,0.7890625,0.0,-0.09375,0.0
416,416,1727019856651,0.22558594,-0.57128906,0.77734375,0.125,0.09375,0.0
417,417,1727019856679,0.23144531,-0.5644531,0.77441406,-0.0625,-0.0625,0.03125
418,418,1727019856709,0.22558594,-0.5683594,0.79003906,-0.0625,0.0,0.09375
419,419,1727019856772,0.22363281,-0.578125,0.7919922,-0.125,-0.0625,-0.03125
420,420,1727019856799,0.23339844,-0.5654297,0.80078125,-0.125,-0.1875,-0.09375
421,421,1727019856830,0.23339844,-0.56640625,0.79296875,-0.125,-0.3125,0.03125
422,422,1727019856892,0.23339844,-0.5654297,0.8027344,-0.0625,0.0,0.15625
423,423,1727019856919,0.22949219,-0.57421875,0.7832031,0.0625,-0.0625,0.21875
424,424,1727019856950,0.23046875,-0.57910156,0.78222656,-0.0625,-0.0625,0.03125
425,425,1727019857011,0.23046875,-0.5703125,0.7871094,0.0,0.0625,-0.21875
426,426,1727019857039,0.2265625,-0.5722656,0.7890625,-0.125,0.0,-0.03125
427,427,1727019857070,0.22949219,-0.5683594,0.7841797,0.125,0.0625,0.09375
428,428,1727019857163,0.2421875,-0.5751953,0.7919922,-0.0625,-0.0625,0.21875
429,429,1727019857169,0.23828125,-0.56640625,0.8027344,-0.0625,-0.0625,0.03125
430,430,1727019857189,0.22851562,-0.56347656,0.7910156,-0.0625,0.0,0.15625
431,431,1727019857252,0.23925781,-0.56640625,0.78222656,0.0625,0.0,0.09375
432,432,1727019857280,0.23535156,-0.5722656,0.7949219,0.0,-0.0625,0.09375
433,433,1727019857313,0.23632812,-0.5644531,0.7890625,-0.0625,-0.125,0.03125
434,434,1727019857402,0.22949219,-0.57910156,0.7939453,0.0625,0.0625,0.09375
435,435,1727019857407,0.23535156,-0.5654297,0.7949219,-0.125,-0.0625,0.15625
436,436,1727019857430,0.23535156,-0.5644531,0.7792969,-0.0625,-0.1875,0.28125
437,437,1727019857490,0.23535156,-0.5732422,0.8027344,-0.0625,0.0,0.21875
438,438,1727019857519,0.23828125,-0.5625,0.8046875,0.0625,0.0,0.09375
439,439,1727019857550,0.23046875,-0.5683594,0.7988281,0.0625,-0.0625,0.21875
440,440,1727019857612,0.22949219,-0.5703125,0.78808594,0.0,0.15625,0.09375
441,441,1727019857640,0.2265625,-0.5654297,0.80859375,-0.0625,0.0,0.09375
442,442,1727019857670,0.23535156,-0.578125,0.7998047,-0.0625,-0.0625,0.09375
443,443,1727019857762,0.22949219,-0.5673828,0.7841797,0.0,-0.0625,0.03125
444,444,1727019857767,0.23535156,-0.5625,0.7753906,-0.0625,0.0,-0.03125
445,445,1727019857790,0.23339844,-0.57910156,0.79589844,-0.125,-0.125,-0.15625
446,446,1727019857851,0.23535156,-0.57421875,0.7841797,-0.125,0.0,0.09375
447,447,1727019857879,0.22070312,-0.5761719,0.80371094,-0.0625,-0.1875,0.03125
448,448,1727019857910,0.23730469,-0.56933594,0.79589844,-0.0625,-0.3125,-0.09375
449,449,1727019858002,0.23925781,-0.5751953,0.8095703,-0.1875,-0.0625,-0.15625
450,450,1727019858008,0.23632812,-0.5732422,0.7910156,-0.125,-0.1875,-0.09375
451,451,1727019858030,0.22558594,-0.5722656,0.79296875,0.0,0.0625,0.03125
452,452,1727019858091,0.23535156,-0.56640625,0.80078125,0.125,-0.0625,0.21875
453,453,1727019858120,0.23535156,-0.57128906,0.7783203,-0.125,0.0,-0.09375
454,454,1727019858150,0.22460938,-0.5683594,0.7939453,0.0,0.09375,-0.15625
455,455,1727019858212,0.23242188,-0.5761719,0.78515625,-0.0625,-0.0625,-0.21875
456,456,1727019858239,0.23632812,-0.56933594,0.8105469,0.125,0.09375,-0.03125
457,457,1727019858269,0.22753906,-0.5761719,0.7861328,-0.0625,-0.0625,-0.03125
458,458,1727019858332,0.23828125,-0.57714844,0.7841797,-0.1875,-0.125,-0.03125
459,459,1727019858392,0.23632812,-0.5732422,0.78125,0.0,0.0625,0.09375
460,460,1727019858397,0.22851562,-0.57421875,0.7949219,0.125,0.0,0.03125
461,461,1727019858481,0.23046875,-0.5703125,0.7939453,0.0,0.0625,-0.09375
462,462,1727019858486,0.23339844,-0.5654297,0.8017578,-0.0625,-0.125,-0.09375
463,463,1727019858511,0.23632812,-0.57421875,0.7998047,-0.0625,-0.0625,0.03125
464,464,1727019858603,0.22265625,-0.57128906,0.79785156,-0.0625,0.0625,0.03125
465,465,1727019858609,0.23828125,-0.56152344,0.7792969,-0.0625,-0.0625,-0.03125
466,466,1727019858629,0.23339844,-0.57910156,0.78027344,-0.0625,0.0,0.09375
467,467,1727019858691,0.23535156,-0.5703125,0.80371094,0.0,-0.25,0.03125
468,468,1727019858719,0.234375,-0.56933594,0.80078125,0.125,0.0625,0.03125
469,469,1727019858749,0.23632812,-0.5703125,0.80371094,0.0,0.0,-0.09375
470,470,1727019858812,0.23046875,-0.5683594,0.79785156,0.0,0.0625,-0.09375
471,471,1727019858840,0.22949219,-0.5683594,0.79589844,0.0625,0.0625,-0.03125
472,472,1727019858870,0.23339844,-0.56640625,0.7949219,0.0,0.09375,0.03125
473,473,1727019858932,0.23339844,-0.5722656,0.8125,0.0,0.0625,0.03125
474,474,1727019858960,0.22949219,-0.57714844,0.79003906,0.25,-0.1875,0.03125
475,475,1727019858990,0.23144531,-0.56933594,0.7841797,-0.0625,0.0,-0.03125
476,476,1727019859052,0.23828125,-0.56933594,0.80078125,-0.0625,0.0,-0.03125
477,477,1727019859080,0.234375,-0.57421875,0.7949219,-0.3125,-0.1875,-0.09375
478,478,1727019859111,0.23339844,-0.5732422,0.79296875,-0.25,-0.1875,0.15625
479,479,1727019859172,0.234375,-0.56933594,0.77246094,-0.1875,-0.125,0.15625
480,480,1727019859199,0.22558594,-0.5654297,0.79296875,0.0,-0.0625,0.09375
481,481,1727019859230,0.23144531,-0.5683594,0.79003906,-0.0625,-0.1875,0.15625
482,482,1727019859292,0.2421875,-0.5732422,0.7988281,0.125,0.0625,-0.15625
483,483,1727019859319,0.23632812,-0.56640625,0.79589844,-0.0625,-0.0625,-0.03125
484,484,1727019859349,0.22851562,-0.5595703,0.7910156,0.0,0.0625,-0.03125
485,485,1727019859445,0.23339844,-0.57421875,0.8027344,0.0,0.0,0.09375
486,486,1727019859449,0.23046875,-0.5732422,0.79296875,-0.125,-0.125,0.15625
487,487,1727019859472,0.2421875,-0.57714844,0.796875,0.0,0.09375,0.21875
488,488,1727019859533,0.23046875,-0.5644531,0.796875,0.1875,0.0625,0.15625
489,489,1727019859559,0.22949219,-0.5683594,0.79296875,0.0625,0.0,0.09375
490,490,1727019859590,0.23535156,-0.5644531,0.7910156,0.0625,0.0625,0.09375
491,491,1727019859651,0.2421875,-0.5654297,0.7919922,0.0625,-0.0625,0.21875
492,492,1727019859679,0.22851562,-0.5703125,0.79003906,-0.125,-0.1875,0.28125
493,493,1727019859710,0.22460938,-0.5751953,0.8027344,-0.0625,-0.0625,0.21875
494,494,1727019859772,0.23730469,-0.5732422,0.7939453,-0.125,-0.0625,0.09375
495,495,1727019859799,0.23339844,-0.5683594,0.78125,-0.0625,0.0,0.21875
496,496,1727019859830,0.23242188,-0.56640625,0.78808594,0.0,0.0625,0.09375
497,497,1727019859892,0.23828125,-0.56640625,0.80371094,0.0,0.0,0.09375
498,498,1727019859920,0.22949219,-0.5732422,0.78515625,-0.0625,-0.0625,0.09375
499,499,1727019859949,0.23046875,-0.57714844,0.78027344,-0.0625,0.0,0.15625
500,500,1727019860011,0.22753906,-0.5703125,0.79003906,0.0,-0.0625,0.09375
501,501,1727019860039,0.22851562,-0.55859375,0.79003906,0.0,0.0625,-0.09375
502,502,1727019860069,0.23046875,-0.5732422,0.78515625,-0.0625,-0.0625,0.15625
503,503,1727019860129,0.22753906,-0.5644531,0.7939453,-0.0625,-0.0625,0.03125
504,504,1727019860159,0.23046875,-0.5703125,0.7988281,0.0,0.0625,-0.21875
505,505,1727019860189,0.23632812,-0.56347656,0.79589844,-0.3125,-0.125,-0.21875
506,506,1727019860249,0.23632812,-0.56933594,0.8105469,-0.1875,-0.0625,-0.03125
507,507,1727019860279,0.22851562,-0.5683594,0.8027344,0.0,0.0625,0.15625
508,508,1727019860309,0.2265625,-0.56640625,0.79589844,0.125,-0.25,0.21875
509,509,1727019860373,0.23632812,-0.578125,0.7841797,-0.125,-0.125,-0.09375
510,510,1727019860399,0.24804688,-0.57421875,0.78027344,-0.0625,0.0,-0.15625
511,511,1727019860429,0.22949219,-0.5654297,0.78125,-0.125,0.0,-0.21875
512,512,1727019860462,0.23144531,-0.5761719,0.79003906,0.0,0.09375,-0.09375
513,513,1727019860523,0.234375,-0.56933594,0.79003906,-0.0625,-0.0625,0.09375
514,514,1727019860549,0.2265625,-0.5683594,0.79589844,-0.125,-0.0625,-0.03125
515,515,1727019860580,0.23828125,-0.56347656,0.79785156,0.0,0.0,-0.03125
516,516,1727019860642,0.23535156,-0.5625,0.79785156,0.125,0.09375,-0.03125
517,517,1727019860670,0.23144531,-0.5683594,0.7998047,0.125,0.0,0.03125
518,518,1727019860732,0.23144531,-0.5683594,0.7841797,-0.0625,-0.0625,-0.09375
519,519,1727019860760,0.23046875,-0.56933594,0.7949219,-0.0625,-0.0625,0.03125
520,520,1727019860792,0.23046875,-0.5703125,0.78222656,0.0,0.0,0.09375
521,521,1727019860820,0.23339844,-0.56640625,0.79003906,-0.0625,-0.125,-0.03125
522,522,1727019860881,0.23535156,-0.57421875,0.8076172,0.0,-0.0625,-0.09375
523,523,1727019860909,0.22460938,-0.5644531,0.7939453,0.0625,0.0625,0.03125
524,524,1727019860947,0.23828125,-0.56933594,0.7841797,0.125,0.09375,-0.15625
525,525,1727019861002,0.24316406,-0.57128906,0.7910156,0.0,0.15625,0.15625
526,526,1727019861029,0.23144531,-0.5722656,0.7890625,-0.0625,0.0,0.03125
527,527,1727019861060,0.23339844,-0.57128906,0.8105469,0.0625,0.0,0.03125
528,528,1727019861121,0.23242188,-0.5761719,0.79003906,-0.125,0.0,0.03125
529,529,1727019861149,0.23339844,-0.57128906,0.7861328,0.0,0.0625,-0.09375
530,530,1727019861179,0.23632812,-0.56640625,0.7792969,0.0625,0.0625,0.21875
531,531,1727019861242,0.22363281,-0.5654297,0.7861328,0.0625,0.0,-0.03125
532,532,1727019861270,0.24023438,-0.56933594,0.80078125,-0.0625,-0.0625,-0.03125
533,533,1727019861300,0.22851562,-0.5683594,0.7890625,-0.0625,-0.3125,-0.21875
534,534,1727019861362,0.234375,-0.56347656,0.79785156,-0.25,-0.1875,0.09375
535,535,1727019861389,0.23046875,-0.56347656,0.79589844,-0.0625,-0.125,0.15625
536,536,1727019861421,0.23144531,-0.56347656,0.7939453,-0.125,-0.0625,0.03125
537,537,1727019861482,0.234375,-0.5703125,0.7890625,0.0625,0.0625,0.03125
538,538,1727019861511,0.23339844,-0.5644531,0.7910156,0.0,0.0625,-0.03125
539,539,1727019861540,0.22851562,-0.5683594,0.7939453,0.0,0.0625,-0.09375
540,540,1727019861602,0.234375,-0.5673828,0.7910156,0.125,0.09375,0.09375
541,541,1727019861629,0.23632812,-0.5761719,0.7910156,0.0625,0.15625,0.09375
542,542,1727019861660,0.23046875,-0.5654297,0.7890625,-0.1875,0.0625,-0.03125
543,543,1727019861722,0.24023438,-0.5644531,0.7998047,0.0,0.09375,0.03125
544,544,1727019861749,0.234375,-0.5654297,0.79296875,0.0625,0.0,0.09375
545,545,1727019861779,0.23339844,-0.5761719,0.7949219,0.0,0.09375,-0.03125
546,546,1727019861842,0.23339844,-0.5654297,0.7890625,0.0625,0.0625,0.03125
547,547,1727019861870,0.2421875,-0.5644531,0.7998047,-0.0625,0.03125,0.0625
548,548,1727019861900,0.22949219,-0.58203125,0.7861328,-0.0625,-0.03125,0.25
549,549,1727019861962,0.234375,-0.56640625,0.7890625,-0.125,-0.03125,0.1875
550,550,1727019861990,0.23730469,-0.5761719,0.78125,0.0,0.15625,0.0625
551,551,1727019862020,0.24316406,-0.5751953,0.79296875,-0.0625,-0.03125,0.0
552,552,1727019862084,0.22558594,-0.5673828,0.7890625,0.125,0.03125,0.125
553,553,1727019862109,0.22851562,-0.5673828,0.7949219,-0.0625,-0.03125,0.125
554,554,1727019862141,0.2265625,-0.5683594,0.78808594,0.0625,0.03125,0.125
555,555,1727019862202,0.23730469,-0.56640625,0.8076172,0.0625,0.03125,0.25
556,556,1727019862229,0.24023438,-0.5683594,0.7841797,0.0625,0.15625,0.0625
557,557,1727019862260,0.234375,-0.5703125,0.7939453,0.0,0.03125,0.0
558,558,1727019862322,0.23925781,-0.5673828,0.79296875,0.0625,0.15625,0.1875
559,559,1727019862349,0.21777344,-0.57714844,0.79296875,0.0,0.09375,0.125
560,560,1727019862380,0.22167969,-0.5751953,0.79296875,0.0,0.09375,-0.1875
561,561,1727019862442,0.23632812,-0.5703125,0.7890625,-0.1875,-0.15625,-0.25
562,562,1727019862470,0.23828125,-0.5703125,0.7910156,-0.25,-0.09375,-0.1875
563,563,1727019862500,0.24023438,-0.5703125,0.7910156,-0.125,-0.03125,0.1875
564,564,1727019862562,0.22265625,-0.5810547,0.77734375,0.125,-0.21875,0.125
565,565,1727019862589,0.23535156,-0.5732422,0.80078125,-0.125,-0.15625,0.0
566,566,1727019862620,0.2265625,-0.56347656,0.79589844,-0.0625,-0.03125,-0.25
567,567,1727019862682,0.21972656,-0.57128906,0.79589844,0.0,0.03125,-0.25
568,568,1727019862710,0.22851562,-0.56640625,0.80371094,0.125,0.09375,-0.125
569,569,1727019862742,0.23046875,-0.5605469,0.8027344,0.0,-0.03125,0.0
570,570,1727019862803,0.22949219,-0.5644531,0.7998047,-0.125,-0.09375,0.0625
571,571,1727019862829,0.22949219,-0.578125,0.7988281,-0.0625,-0.03125,0.125
572,572,1727019862862,0.23730469,-0.57421875,0.8017578,0.0625,-0.03125,0.0
573,573,1727019862922,0.23535156,-0.55859375,0.80078125,0.125,0.03125,-0.125
574,574,1727019862952,0.22265625,-0.5654297,0.7910156,0.0,0.03125,-0.0625
575,575,1727019862979,0.23730469,-0.5605469,0.8027344,0.0625,0.03125,0.0
576,576,1727019863043,0.23339844,-0.5722656,0.7841797,-0.0625,-0.09375,0.0625
577,577,1727019863070,0.23730469,-0.578125,0.78125,0.0,0.03125,-0.0625
578,578,1727019863099,0.23535156,-0.5654297,0.8027344,0.0,-0.03125,0.0
579,579,1727019863162,0.2265625,-0.57128906,0.79785156,0.0,0.09375,-0.0625
580,580,1727019863190,0.23535156,-0.56640625,0.7910156,0.0625,0.03125,0.0
581,581,1727019863220,0.23632812,-0.56640625,0.7949219,0.125,0.03125,0.0625
582,582,1727019863282,0.23535156,-0.57421875,0.796875,0.0,0.03125,-0.125
583,583,1727019863310,0.234375,-0.56640625,0.7910156,0.0,0.03125,-0.0625
584,584,1727019863340,0.23925781,-0.5673828,0.7939453,0.0,-0.03125,0.125
585,585,1727019863403,0.22558594,-0.5732422,0.7832031,-0.0625,-0.03125,0.125
586,586,1727019863429,0.23339844,-0.56933594,0.80078125,-0.125,-0.03125,-0.1875
587,587,1727019863460,0.23925781,-0.5625,0.78515625,-0.1875,0.03125,-0.25
588,588,1727019863522,0.23046875,-0.5683594,0.7988281,-0.1875,-0.03125,0.0
589,589,1727019863550,0.22949219,-0.5722656,0.7949219,0.0,0.03125,0.0625
590,590,1727019863580,0.21777344,-0.5761719,0.78125,0.125,-0.21875,0.1875
591,591,1727019863642,0.234375,-0.5732422,0.78515625,-0.125,-0.03125,0.0
592,592,1727019863669,0.23046875,-0.5644531,0.7871094,0.0,0.21875,-0.25
593,593,1727019863700,0.2265625,-0.56933594,0.79589844,-0.0625,-0.03125,-0.125
594,594,1727019863762,0.22460938,-0.5722656,0.7841797,-0.0625,-0.09375,0.0
595,595,1727019863790,0.22558594,-0.57421875,0.7939453,0.0,0.03125,-0.0625
596,596,1727019863825,0.2265625,-0.5800781,0.7988281,0.0,0.09375,0.125
597,597,1727019863882,0.23046875,-0.57421875,0.8017578,0.0625,0.15625,0.125
598,598,1727019863909,0.24414062,-0.5683594,0.7998047,0.0625,0.15625,0.0625
599,599,1727019863940,0.22949219,-0.5761719,0.79003906,0.1875,0.03125,-0.0625
600,600,1727019864002,0.234375,-0.5625,0.7998047,-0.125,-0.03125,0.0
601,601,1727019864029,0.22949219,-0.5722656,0.80566406,-0.125,-0.03125,0.0625
602,602,1727019864060,0.23144531,-0.5654297,0.7910156,-0.125,-0.09375,0.125
603,603,1727019864120,0.24023438,-0.57421875,0.7939453,0.125,0.03125,0.125
604,604,1727019864150,0.23144531,-0.5683594,0.7871094,-0.0625,-0.09375,0.0625
605,605,1727019864213,0.234375,-0.56933594,0.79003906,0.0,0.15625,-0.125
606,606,1727019864240,0.24023438,-0.5722656,0.796875,0.0625,0.15625,0.0
607,607,1727019864270,0.22753906,-0.57910156,0.7919922,-0.0625,-0.03125,0.1875
608,608,1727019864300,0.22558594,-0.5732422,0.78515625,0.0,-0.09375,0.1875
609,609,1727019864359,0.234375,-0.5644531,0.79296875,0.0625,0.09375,0.125
610,610,1727019864391,0.23828125,-0.56347656,0.7998047,0.0,0.15625,0.125
611,611,1727019864420,0.23925781,-0.56640625,0.7890625,0.125,0.15625,0.0
612,612,1727019864483,0.234375,-0.57421875,0.7988281,0.0625,0.03125,0.25
613,613,1727019864509,0.22851562,-0.5654297,0.79296875,0.125,0.0,0.03125
614,614,1727019864540,0.23339844,-0.56933594,0.79589844,-0.3125,0.0,-0.09375
615,615,1727019864602,0.23046875,-0.5683594,0.78515625,-0.1875,-0.0625,-0.09375
616,616,1727019864629,0.2265625,-0.57128906,0.7910156,-0.375,-0.125,-0.03125
617,617,1727019864660,0.22949219,-0.57128906,0.79785156,0.0,0.0,0.25
618,618,1727019864724,0.22167969,-0.5605469,0.7988281,-0.0625,-0.1875,0.15625
619,619,1727019864750,0.23242188,-0.56640625,0.80859375,-0.0625,0.0625,-0.09375
620,620,1727019864780,0.23046875,-0.56640625,0.796875,-0.0625,-0.0625,-0.34375
621,621,1727019864842,0.22753906,-0.5722656,0.7890625,-0.0625,-0.0625,-0.40625
622,622,1727019864870,0.23339844,-0.5751953,0.78125,-0.0625,-0.0625,-0.15625
623,623,1727019864900,0.23632812,-0.57714844,0.78125,-0.125,-0.1875,0.03125
624,624,1727019864963,0.23144531,-0.57421875,0.8017578,-0.125,-0.0625,-0.03125
625,625,1727019864992,0.23046875,-0.57128906,0.7832031,0.0625,0.0625,-0.03125
626,626,1727019865022,0.23046875,-0.5654297,0.78125,0.125,0.0625,0.03125
627,627,1727019865083,0.22753906,-0.5703125,0.77734375,0.0625,0.125,-0.28125
628,628,1727019865111,0.234375,-0.5683594,0.7949219,-0.0625,-0.125,-0.15625
629,629,1727019865145,0.234375,-0.57714844,0.79296875,0.0,-0.125,-0.09375
630,630,1727019865201,0.23144531,-0.5683594,0.8017578,-0.125,-0.1875,0.03125
631,631,1727019865233,0.23535156,-0.5800781,0.7792969,0.0625,0.0,-0.03125
632,632,1727019865259,0.2421875,-0.5683594,0.7861328,0.125,0.125,-0.15625
633,633,1727019865324,0.23730469,-0.56152344,0.7832031,0.0625,0.0625,-0.03125
634,634,1727019865350,0.22753906,-0.5703125,0.79003906,0.0625,0.0625,-0.15625
635,635,1727019865380,0.23046875,-0.56640625,0.7871094,0.0,0.125,-0.09375
636,636,1727019865443,0.23242188,-0.57421875,0.80566406,0.0,-0.0625,0.09375
637,637,1727019865470,0.22753906,-0.57714844,0.7910156,-0.0625,-0.0625,-0.09375
638,638,1727019865501,0.22460938,-0.5673828,0.7988281,-0.0625,-0.0625,-0.03125
639,639,1727019865562,0.23535156,-0.5673828,0.7939453,-0.1875,-0.25,-0.21875
640,640,1727019865589,0.23339844,-0.5654297,0.7890625,-0.0625,-0.125,-0.09375
641,641,1727019865620,0.23535156,-0.5654297,0.79003906,0.0,0.0,0.03125
642,642,1727019865682,0.23730469,-0.5625,0.7861328,-0.0625,-0.1875,0.09375
643,643,1727019865709,0.23339844,-0.56347656,0.78027344,-0.25,-0.125,0.03125
644,644,1727019865740,0.22753906,-0.57421875,0.78222656,0.0625,0.125,-0.21875
645,645,1727019865800,0.23144531,-0.57714844,0.79296875,0.0,0.0625,-0.03125
646,646,1727019865830,0.22949219,-0.57128906,0.7949219,0.0,0.0,-0.03125
647,647,1727019865859,0.23828125,-0.5800781,0.7949219,0.0,-0.0625,-0.03125
648,648,1727019865922,0.23632812,-0.5732422,0.79589844,-0.125,-0.0625,-0.21875
649,649,1727019865949,0.22851562,-0.57421875,0.78515625,-0.0625,-0.125,-0.03125
650,650,1727019865981,0.23144531,-0.56933594,0.7861328,0.125,0.0625,0.09375
651,651,1727019866073,0.23535156,-0.5732422,0.8066406,0.0625,0.0,-0.09375
652,652,1727019866079,0.23339844,-0.5703125,0.796875,0.0625,0.125,0.03125
653,653,1727019866101,0.22949219,-0.5703125,0.7988281,0.0625,0.0625,0.09375
654,654,1727019866161,0.23144531,-0.56640625,0.7988281,-0.0625,-0.1875,0.03125
655,655,1727019866189,0.22851562,-0.5595703,0.78515625,-0.0625,-0.0625,0.03125
656,656,1727019866220,0.23242188,-0.56152344,0.79785156,0.0625,0.0625,-0.03125
657,657,1727019866282,0.23144531,-0.57128906,0.8125,0.0,0.0625,0.09375
658,658,1727019866309,0.22949219,-0.5722656,0.78125,0.1875,0.0625,0.09375
659,659,1727019866340,0.23632812,-0.56933594,0.7910156,0.0,0.125,-0.21875
660,660,1727019866402,0.22949219,-0.5703125,0.7763672,0.125,0.0625,-0.09375
661,661,1727019866430,0.23339844,-0.56640625,0.7988281,0.0625,0.0625,0.03125
662,662,1727019866460,0.22753906,-0.5566406,0.796875,0.0,0.1875,0.03125
663,663,1727019866522,0.23535156,-0.5595703,0.79296875,0.125,0.0625,-0.09375
664,664,1727019866549,0.23632812,-0.5761719,0.78808594,0.0,0.0,0.03125
665,665,1727019866579,0.21875,-0.57421875,0.79785156,0.0,0.125,0.03125
666,666,1727019866642,0.23339844,-0.56347656,0.79785156,-0.125,-0.0625,-0.15625
667,667,1727019866670,0.24023438,-0.56933594,0.7832031,-0.1875,-0.1875,-0.09375
668,668,1727019866701,0.23339844,-0.57128906,0.7832031,-0.3125,-0.0625,0.03125
669,669,1727019866762,0.23046875,-0.5683594,0.80078125,-0.0625,0.0625,0.1875
670,670,1727019866789,0.23242188,-0.5703125,0.8017578,0.125,-0.0625,0.25
671,671,1727019866823,0.22949219,-0.5683594,0.7792969,-0.125,-0.0625,0.03125
672,672,1727019866913,0.23339844,-0.5703125,0.78515625,0.0,0.125,-0.15625
673,673,1727019866918,0.2265625,-0.5566406,0.7910156,-0.0625,0.0,-0.03125
674,674,1727019866940,0.22949219,-0.57128906,0.8076172,-0.0625,0.0625,0.03125
675,675,1727019867002,0.23046875,-0.56933594,0.7939453,0.0625,0.125,0.15625
676,676,1727019867030,0.23535156,-0.5605469,0.7910156,-0.25,-0.0625,0.09375
677,677,1727019867062,0.23632812,-0.5751953,0.7949219,0.1875,0.1875,0.09375
678,678,1727019867121,0.23046875,-0.5722656,0.80078125,0.0625,-0.0625,0.03125
679,679,1727019867149,0.23046875,-0.56152344,0.78027344,0.0625,0.0625,-0.09375
680,680,1727019867181,0.22363281,-0.5800781,0.7919922,-0.125,-0.0625,-0.15625
681,681,1727019867241,0.23339844,-0.5673828,0.79785156,0.0,0.125,-0.21875
682,682,1727019867270,0.24316406,-0.5673828,0.78515625,-0.0625,-0.125,-0.03125
683,683,1727019867304,0.23535156,-0.5625,0.7753906,-0.1875,-0.1875,-0.03125
684,684,1727019867362,0.23242188,-0.5800781,0.7841797,-0.0625,0.0,-0.09375
685,685,1727019867390,0.22460938,-0.5761719,0.79589844,-0.0625,-0.0625,-0.09375
686,686,1727019867420,0.23828125,-0.5673828,0.7890625,0.1875,0.0625,-0.03125
687,687,1727019867482,0.23339844,-0.57128906,0.79785156,0.0625,0.125,-0.09375
688,688,1727019867509,0.24023438,-0.5703125,0.78515625,-0.0625,0.0,-0.15625
689,689,1727019867540,0.23828125,-0.5683594,0.78027344,-0.0625,-0.125,-0.09375
690,690,1727019867603,0.22949219,-0.5703125,0.7910156,0.0,0.0625,0.09375
691,691,1727019867630,0.22460938,-0.5732422,0.7861328,-0.0625,-0.0625,-0.09375
692,692,1727019867660,0.24316406,-0.5644531,0.79785156,0.0,-0.1875,-0.28125
693,693,1727019867721,0.22949219,-0.56933594,0.79003906,-0.125,-0.3125,-0.21875
694,694,1727019867750,0.23730469,-0.56933594,0.79296875,-0.1875,-0.125,-0.03125
695,695,1727019867779,0.23632812,-0.5683594,0.7792969,0.0625,-0.3125,0.25
696,696,1727019867841,0.234375,-0.5722656,0.7998047,-0.1875,-0.25,0.03125
697,697,1727019867869,0.22949219,-0.56640625,0.7841797,-0.0625,-0.0625,-0.28125
698,698,1727019867902,0.23339844,-0.57128906,0.7910156,0.0,0.125,-0.28125
699,699,1727019867963,0.2265625,-0.5722656,0.79589844,0.0,0.1875,-0.15625
700,700,1727019867989,0.22363281,-0.5605469,0.80078125,0.0,-0.125,-0.03125
701,701,1727019868020,0.23925781,-0.57910156,0.79003906,0.0,0.0,0.03125
702,702,1727019868082,0.23046875,-0.5761719,0.79785156,-0.125,-0.1875,-0.03125
703,703,1727019868110,0.23339844,-0.56640625,0.7939453,0.125,0.0625,0.03125
704,704,1727019868139,0.234375,-0.57421875,0.7919922,0.125,0.125,-0.03125
705,705,1727019868204,0.22753906,-0.5683594,0.7949219,0.0625,0.0625,-0.03125
706,706,1727019868230,0.234375,-0.5722656,0.79589844,0.0625,0.0625,-0.09375
707,707,1727019868259,0.22753906,-0.5703125,0.78808594,0.125,0.0,0.03125
708,708,1727019868321,0.23339844,-0.5595703,0.79296875,-0.0625,0.0,0.03125
709,709,1727019868350,0.234375,-0.5722656,0.7910156,0.125,0.0625,-0.15625
710,710,1727019868382,0.23632812,-0.5654297,0.79589844,0.0,0.0,-0.09375
711,711,1727019868442,0.23339844,-0.56347656,0.7988281,0.0,0.125,-0.03125
712,712,1727019868469,0.23632812,-0.5810547,0.79785156,0.0625,0.0,-0.15625
713,713,1727019868499,0.22753906,-0.5654297,0.8066406,-0.0625,-0.0625,-0.09375
714,714,1727019868563,0.23925781,-0.5722656,0.79589844,0.0,0.0,0.03125
715,715,1727019868589,0.234375,-0.5683594,0.7919922,0.0,0.0625,0.09375
716,716,1727019868620,0.22949219,-0.57421875,0.79785156,0.1875,0.0625,-0.03125
717,717,1727019868682,0.23828125,-0.5673828,0.79589844,0.0,0.0,0.09375
718,718,1727019868710,0.23144531,-0.57128906,0.7832031,0.0,0.125,0.15625
719,719,1727019868739,0.22265625,-0.56347656,0.79785156,0.0,0.0625,-0.09375
720,720,1727019868770,0.234375,-0.5673828,0.7832031,-0.125,-0.125,-0.28125
721,721,1727019868832,0.23925781,-0.56347656,0.79296875,-0.125,-0.125,-0.09375
722,722,1727019868860,0.22949219,-0.5703125,0.79003906,-0.0625,-0.0625,0.09375
723,723,1727019868922,0.23339844,-0.56640625,0.7871094,0.1875,-0.0625,0.1875
724,724,1727019868950,0.22949219,-0.57421875,0.80078125,-0.125,-0.0625,0.15625
725,725,1727019868982,0.22949219,-0.5683594,0.7988281,0.0,0.0625,-0.21875
726,726,1727019869042,0.22460938,-0.5683594,0.8046875,0.0,0.0625,-0.15625
727,727,1727019869069,0.23046875,-0.56933594,0.79003906,0.0,0.0,0.09375
728,728,1727019869100,0.23046875,-0.56347656,0.7763672,-0.0625,-0.0625,-0.03125
729,729,1727019869129,0.23339844,-0.57421875,0.7998047,-0.0625,-0.125,0.15625
730,730,1727019869191,0.23144531,-0.5722656,0.7919922,-0.0625,-0.0625,0.15625
731,731,1727019869226,0.23144531,-0.5722656,0.8017578,0.0625,-0.0625,0.09375
732,732,1727019869251,0.23046875,-0.5673828,0.7890625,0.0,-0.0625,-0.03125
733,733,1727019869310,0.234375,-0.5703125,0.79296875,-0.0625,-0.0625,0.03125
734,734,1727019869340,0.23535156,-0.5751953,0.7871094,0.0,-0.125,0.03125
735,735,1727019869370,0.22851562,-0.5722656,0.7841797,-0.125,0.0,0.09375
736,736,1727019869433,0.22167969,-0.57910156,0.79785156,-0.0625,-0.125,0.03125
737,737,1727019869462,0.23242188,-0.5625,0.78515625,-0.0625,-0.125,0.03125
738,738,1727019869490,0.23046875,-0.56640625,0.80078125,0.0,0.0,0.09375
739,739,1727019869552,0.23339844,-0.5722656,0.7792969,0.125,0.0,-0.03125
740,740,1727019869579,0.22851562,-0.5654297,0.7841797,0.0625,0.0625,0.03125
741,741,1727019869611,0.23925781,-0.5722656,0.78808594,-0.0625,-0.125,-0.03125
742,742,1727019869672,0.23730469,-0.57421875,0.7832031,-0.0625,-0.125,0.03125
743,743,1727019869703,0.23339844,-0.5605469,0.7910156,0.0,0.03125,-0.1875
744,744,1727019869729,0.23144531,-0.5654297,0.7949219,-0.125,-0.09375,-0.125
745,745,1727019869793,0.23730469,-0.56347656,0.7949219,-0.0625,-0.09375,-0.0625
746,746,1727019869824,0.23144531,-0.5732422,0.8046875,-0.125,-0.09375,-0.0625
747,747,1727019869850,0.21972656,-0.57910156,0.80371094,0.0,-0.09375,-0.25
748,748,1727019869912,0.24023438,-0.5644531,0.78027344,-0.0625,-0.09375,-0.375
749,749,1727019869939,0.24511719,-0.5732422,0.7939453,-0.0625,-0.21875,-0.25
750,750,1727019869970,0.234375,-0.5703125,0.79003906,-0.125,0.03125,-0.0625
751,751,1727019870032,0.2265625,-0.56933594,0.8046875,0.0,-0.28125,0.0625
752,752,1727019870060,0.23046875,-0.57910156,0.79003906,-0.1875,-0.21875,-0.0625
753,753,1727019870089,0.23535156,-0.5722656,0.7919922,0.0625,0.03125,-0.25
754,754,1727019870152,0.2265625,-0.57714844,0.79589844,0.0,0.0625,-0.4375
755,755,1727019870180,0.23828125,-0.5644531,0.80078125,0.0625,-0.03125,-0.1875
756,756,1727019870214,0.24023438,-0.56640625,0.7832031,0.0625,-0.03125,0.0
757,757,1727019870269,0.23828125,-0.5722656,0.79589844,-0.0625,-0.15625,0.0
758,758,1727019870298,0.23828125,-0.57421875,0.78515625,-0.125,-0.03125,-0.0625
759,759,1727019870328,0.23730469,-0.5703125,0.7910156,0.0,-0.03125,0.0
760,760,1727019870420,0.234375,-0.56933594,0.8076172,0.1875,0.03125,-0.1875
761,761,1727019870424,0.23144531,-0.56640625,0.78222656,0.0625,0.0625,-0.25
762,762,1727019870449,0.23339844,-0.5625,0.79785156,0.0,0.03125,0.0
763,763,1727019870509,0.23339844,-0.56640625,0.8027344,-0.0625,-0.03125,0.0
764,764,1727019870539,0.22753906,-0.57128906,0.79003906,-0.0625,-0.09375,0.0
765,765,1727019870568,0.2265625,-0.5654297,0.7949219,-0.0625,-0.09375,-0.1875
766,766,1727019870629,0.23242188,-0.57128906,0.7783203,0.0,0.0625,-0.125
767,767,1727019870659,0.23046875,-0.5722656,0.7871094,0.0,0.03125,-0.125
