,Unnamed: 0,timestamp,accel_x,accel_y,accel_z,gyro_x,gyro_y,gyro_z
0,0,1729186908759,-0.23144531,0.3232422,-0.98046875,10.53125,-5.25,3.34375
1,1,1729186908799,-0.27148438,0.26660156,-0.68359375,-30.59375,5.0,-5.625
2,2,1729186908839,-0.22265625,0.43164062,-0.5673828,-46.53125,14.03125,-6.25
3,3,1729186908879,-0.032226562,0.3779297,-0.5107422,-23.28125,11.21875,5.34375
4,4,1729186908919,-0.1484375,0.18457031,-0.6386719,13.53125,3.09375,11.9375
5,5,1729186908959,-0.115234375,0.32128906,-0.7480469,-4.78125,22.8125,-1.78125
6,6,1729186908999,-0.0859375,0.6796875,-0.76464844,-33.65625,33.0625,1.03125
7,7,1729186909039,-0.06933594,0.6640625,-0.6904297,8.90625,18.96875,19.21875
8,8,1729186909079,-0.038085938,0.5390625,-0.8173828,3.09375,26.96875,17.1875
9,9,1729186909119,-0.04296875,0.5566406,-0.84765625,-3.96875,25.3125,20.25
10,10,1729186909159,-0.140625,0.6455078,-0.81347656,-5.3125,25.0,19.21875
11,11,1729186909199,-0.0625,0.6591797,-0.74121094,0.40625,24.71875,13.15625
12,12,1729186909239,0.049804688,0.6035156,-0.83691406,6.09375,18.28125,19.5625
13,13,1729186909279,-0.056640625,0.5253906,-0.859375,7.6875,18.21875,18.78125
14,14,1729186909319,-0.040039062,0.56640625,-0.8105469,1.5625,21.28125,10.71875
15,15,1729186909359,0.034179688,0.63378906,-0.8027344,12.75,23.1875,10.90625
16,16,1729186909399,0.001953125,0.6298828,-0.80078125,14.875,8.90625,17.1875
17,17,1729186909439,0.05859375,0.5576172,-0.8203125,30.125,10.71875,12.75
18,18,1729186909479,0.12988281,0.58203125,-0.91796875,29.28125,15.5625,11.15625
19,19,1729186909519,0.059570312,0.6279297,-0.87109375,-11.84375,12.0,6.875
20,20,1729186909559,0.0625,0.61328125,-0.82714844,19.75,5.34375,9.03125
21,21,1729186909599,0.072265625,0.5205078,-0.9394531,44.90625,4.6875,9.25
22,22,1729186909639,0.07519531,0.4970703,-1.0410156,10.71875,1.6875,3.78125
23,23,1729186909679,0.03125,0.70214844,-1.0644531,3.53125,-3.0625,-2.9375
24,24,1729186909719,0.053710938,0.7167969,-0.98339844,18.0625,-10.28125,-1.25
25,25,1729186909759,0.11621094,0.578125,-1.0625,13.21875,-17.59375,-3.625
26,26,1729186909799,0.021484375,0.48242188,-1.0214844,20.25,-21.25,-8.4375
27,27,1729186909839,0.01171875,0.46191406,-0.9238281,15.375,-21.25,-12.53125
28,28,1729186909879,0.045898438,0.4716797,-0.96484375,19.5625,-24.5,-13.03125
29,29,1729186909919,0.0068359375,0.53808594,-0.9345703,9.5,-27.34375,-19.5
30,30,1729186909959,-0.064453125,0.6142578,-0.875,-14.78125,-33.46875,-18.625
31,31,1729186909999,0.01171875,0.5107422,-0.8857422,-4.90625,-32.0625,-18.3125
32,32,1729186910039,0.026367188,0.39648438,-0.7998047,15.90625,-24.625,-14.3125
33,33,1729186910079,-0.13085938,0.33691406,-0.76953125,-9.28125,-28.28125,-11.90625
34,34,1729186910119,-0.09375,0.33398438,-0.7294922,-3.625,-24.78125,-15.09375
35,35,1729186910159,-0.09472656,0.3701172,-0.6767578,3.28125,-14.34375,-12.46875
36,36,1729186910199,-0.17480469,0.39648438,-0.71972656,-14.34375,-7.65625,-11.0
37,37,1729186910239,-0.20117188,0.42382812,-0.6621094,-4.03125,-7.40625,-8.75
38,38,1729186910279,-0.10449219,0.3798828,-0.69921875,1.375,-4.03125,1.15625
39,39,1729186910319,-0.06347656,0.4296875,-0.71484375,-20.34375,13.0,1.3125
40,40,1729186910359,-0.15527344,0.4609375,-0.5673828,-4.09375,13.78125,9.9375
41,41,1729186910399,-0.15429688,0.35742188,-0.7421875,-2.9375,12.6875,13.71875
42,42,1729186910439,-0.03515625,0.4326172,-0.6279297,-12.59375,26.0,7.625
43,43,1729186910479,-0.047851562,0.453125,-0.73535156,11.40625,27.5625,15.1875
44,44,1729186910519,-0.12109375,0.44140625,-0.91015625,-7.9375,28.84375,16.9375
45,45,1729186910559,-0.10449219,0.56347656,-0.765625,-0.5625,32.9375,13.28125
46,46,1729186910599,0.0009765625,0.5390625,-0.8173828,17.5625,26.21875,18.28125
47,47,1729186910639,-0.00390625,0.55566406,-0.97265625,-12.09375,26.71875,15.3125
48,48,1729186910679,-0.0859375,0.6357422,-0.7783203,4.5625,24.21875,11.03125
49,49,1729186910719,0.11230469,0.54589844,-0.94921875,27.875,23.3125,17.375
50,50,1729186910759,0.09082031,0.44921875,-0.9589844,2.71875,21.59375,12.9375
51,51,1729186910799,0.0068359375,0.6669922,-0.8876953,-4.84375,22.4375,6.8125
52,52,1729186910839,0.11425781,0.5410156,-0.8203125,3.78125,16.65625,11.40625
53,53,1729186910879,0.068359375,0.42578125,-0.984375,20.8125,9.6875,12.25
54,54,1729186910919,0.016601562,0.5410156,-1.0039062,-7.40625,8.78125,-0.875
55,55,1729186910959,0.13671875,0.64746094,-1.0058594,15.5,3.53125,2.0625
56,56,1729186910999,0.15332031,0.5830078,-1.0878906,15.90625,-6.3125,-0.5
57,57,1729186911039,0.10058594,0.66796875,-1.0664062,9.875,-8.1875,-5.3125
58,58,1729186911079,0.06738281,0.53222656,-1.0185547,14.03125,-14.40625,-6.0625
59,59,1729186911119,0.06933594,0.55566406,-0.96875,5.28125,-16.75,-12.28125
60,60,1729186911159,0.09667969,0.5185547,-0.9736328,-4.40625,-22.78125,-14.71875
61,61,1729186911199,0.0048828125,0.5214844,-0.91796875,-12.09375,-28.6875,-16.96875
62,62,1729186911239,-0.009765625,0.5263672,-0.8828125,9.09375,-26.3125,-19.1875
63,63,1729186911279,0.025390625,0.47070312,-0.86816406,2.1875,-31.09375,-15.03125
64,64,1729186911319,-0.0625,0.44628906,-0.89160156,-7.28125,-32.65625,-17.15625
65,65,1729186911359,-0.013671875,0.4560547,-0.71972656,0.15625,-30.84375,-16.5
66,66,1729186911399,-0.01953125,0.37695312,-0.76953125,19.625,-30.40625,-7.65625
67,67,1729186911439,-0.1015625,0.36816406,-0.8173828,-2.03125,-22.84375,-12.71875
68,68,1729186911479,-0.107421875,0.4658203,-0.63671875,3.9375,-14.3125,-11.375
69,69,1729186911519,-0.107421875,0.34375,-0.7480469,13.09375,-16.5625,-5.5
70,70,1729186911559,-0.1328125,0.45898438,-0.6923828,-9.28125,-3.96875,-9.59375
71,71,1729186911599,-0.13085938,0.44335938,-0.63671875,0.96875,-2.40625,1.6875
72,72,1729186911639,-0.13476562,0.32128906,-0.6982422,-9.21875,6.9375,4.75
73,73,1729186911679,-0.17089844,0.41992188,-0.58984375,-14.90625,20.25,4.5625
74,74,1729186911719,-0.103515625,0.40039062,-0.6582031,-2.03125,17.9375,11.71875
75,75,1729186911759,-0.049804688,0.38378906,-0.68066406,-7.28125,18.1875,15.65625
76,76,1729186911799,-0.11230469,0.4248047,-0.7949219,2.5625,29.84375,12.625
77,77,1729186911839,-0.07519531,0.49804688,-0.8027344,3.90625,34.84375,9.9375
78,78,1729186911879,0.034179688,0.5859375,-0.8828125,-0.0625,32.28125,11.15625
79,79,1729186911919,-0.025390625,0.5605469,-0.8564453,-0.4375,20.6875,17.875
80,80,1729186911959,-0.0078125,0.50683594,-0.9609375,8.28125,25.375,15.96875
81,81,1729186911999,0.0126953125,0.5566406,-0.84277344,-5.9375,29.65625,11.59375
82,82,1729186912039,-0.0068359375,0.60058594,-0.88378906,-7.59375,18.28125,11.28125
83,83,1729186912079,0.076171875,0.47265625,-0.83984375,19.34375,18.21875,11.9375
84,84,1729186912119,0.013671875,0.5253906,-0.95996094,6.6875,20.4375,9.5625
85,85,1729186912159,0.06347656,0.5839844,-0.9326172,7.5,16.78125,5.34375
86,86,1729186912199,0.11816406,0.6142578,-0.94628906,19.21875,8.03125,10.84375
87,87,1729186912239,0.14257812,0.5048828,-1.0126953,17.0625,10.1875,7.625
88,88,1729186912279,0.040039062,0.5957031,-1.0058594,-3.90625,3.46875,2.5625
89,89,1729186912319,0.14941406,0.5341797,-1.0566406,5.40625,-7.65625,-0.125
90,90,1729186912359,0.13378906,0.53222656,-1.1347656,19.15625,-11.84375,-4.84375
91,91,1729186912399,0.056640625,0.61621094,-1.1025391,-14.65625,-14.59375,-12.96875
92,92,1729186912439,0.08300781,0.6611328,-0.88964844,5.0,-15.21875,-14.25
93,93,1729186912479,0.11816406,0.4873047,-1.0,14.875,-25.15625,-10.625
94,94,1729186912519,0.009765625,0.54785156,-0.90625,-23.75,-29.3125,-20.34375
95,95,1729186912559,-0.0146484375,0.53808594,-0.86816406,1.4375,-28.28125,-21.9375
96,96,1729186912599,-0.009765625,0.484375,-0.8652344,-3.0625,-29.5625,-18.3125
97,97,1729186912639,-0.08691406,0.49414062,-0.80859375,-12.96875,-31.875,-17.40625
98,98,1729186912679,0.026367188,0.38476562,-0.80371094,14.21875,-29.0,-16.6875
99,99,1729186912719,-0.053710938,0.2919922,-0.7451172,4.125,-23.75,-12.96875
100,100,1729186912759,-0.15625,0.48535156,-0.7783203,-3.90625,-23.4375,-15.75
101,101,1729186912799,-0.10058594,0.5234375,-0.6699219,2.59375,-20.9375,-15.46875
102,102,1729186912839,-0.0703125,0.43554688,-0.72753906,8.65625,-18.6875,-8.5625
103,103,1729186912879,-0.17285156,0.40039062,-0.71777344,-4.21875,-7.71875,-9.78125
104,104,1729186912919,-0.123046875,0.4111328,-0.65527344,3.46875,-1.25,-1.1875
105,105,1729186912959,-0.1328125,0.35839844,-0.6845703,-2.75,0.0,3.65625
106,106,1729186912999,-0.10449219,0.39941406,-0.5878906,-7.40625,13.65625,1.3125
107,107,1729186913039,-0.055664062,0.35351562,-0.66796875,2.125,19.40625,11.15625
108,108,1729186913079,-0.119140625,0.4091797,-0.6152344,0.71875,26.15625,17.1875
109,109,1729186913119,-0.15625,0.41601562,-0.7128906,2.5625,26.21875,14.28125
110,110,1729186913159,-0.076171875,0.44335938,-0.78515625,3.09375,32.40625,10.1875
111,111,1729186913199,-0.0029296875,0.5175781,-0.8964844,-7.9375,31.28125,16.78125
112,112,1729186913239,0.030273438,0.4970703,-0.8652344,4.1875,30.0625,24.46875
113,113,1729186913279,0.009765625,0.53808594,-0.8222656,5.78125,30.4375,19.875
114,114,1729186913319,-0.0126953125,0.5498047,-0.9423828,2.3125,24.75,14.875
115,115,1729186913359,0.087890625,0.65527344,-0.94140625,-15.09375,26.84375,11.28125
116,116,1729186913399,-0.08105469,0.6015625,-0.79785156,13.28125,22.1875,18.53125
117,117,1729186913439,0.08105469,0.5097656,-1.0458984,4.875,19.5625,15.3125
118,118,1729186913479,0.099609375,0.4482422,-0.8408203,5.53125,13.28125,10.375
119,119,1729186913519,0.111328125,0.5917969,-1.0195312,15.5,10.84375,11.03125
120,120,1729186913559,0.06347656,0.5390625,-1.0351562,17.875,7.125,3.71875
121,121,1729186913599,0.08300781,0.68359375,-1.0771484,8.84375,1.3125,-3.75
122,122,1729186913639,0.16992188,0.71191406,-1.1455078,0.84375,-9.15625,-3.375
123,123,1729186913679,0.10058594,0.7597656,-0.9628906,-24.1875,-8.0,-12.71875
124,124,1729186913719,0.10644531,0.62109375,-0.921875,18.0,-17.59375,-7.875
125,125,1729186913759,0.12207031,0.40234375,-1.0693359,15.65625,-18.21875,-11.0
126,126,1729186913799,0.0126953125,0.48339844,-0.88671875,-28.40625,-24.5625,-24.375
127,127,1729186913839,0.037109375,0.50683594,-0.8339844,19.625,-26.6875,-22.90625
128,128,1729186913879,0.030273438,0.4716797,-0.9658203,-0.25,-29.8125,-19.0625
129,129,1729186913919,-0.06640625,0.58203125,-0.7763672,-16.6875,-27.53125,-22.125
130,130,1729186913959,-0.05859375,0.48339844,-0.7861328,23.65625,-35.90625,-12.96875
131,131,1729186913999,-0.09472656,0.5107422,-0.7998047,-12.84375,-31.4375,-16.0
132,132,1729186914039,-0.0146484375,0.484375,-0.71191406,2.3125,-27.125,-14.59375
133,133,1729186914079,-0.047851562,0.3310547,-0.7128906,8.15625,-25.34375,-8.375
134,134,1729186914119,-0.12890625,0.34277344,-0.6816406,-1.59375,-13.4375,-10.9375
135,135,1729186914159,-0.11230469,0.44726562,-0.6171875,-0.6875,-5.375,-9.96875
136,136,1729186914199,-0.13574219,0.3857422,-0.70996094,3.84375,-9.53125,-0.4375
137,137,1729186914239,-0.15039062,0.39257812,-0.6074219,-13.375,7.0625,-1.46875
138,138,1729186914279,-0.09082031,0.4873047,-0.5839844,-8.375,16.03125,7.375
139,139,1729186914319,-0.08300781,0.3232422,-0.6152344,8.28125,19.875,15.0
140,140,1729186914359,-0.055664062,0.3095703,-0.7011719,-2.625,24.8125,15.0625
141,141,1729186914399,-0.04296875,0.40722656,-0.6855469,-2.03125,30.0625,16.65625
142,142,1729186914439,-0.115234375,0.484375,-0.8232422,13.03125,27.4375,18.1875
143,143,1729186914479,-0.013671875,0.5449219,-0.875,-5.15625,32.34375,18.53125
144,144,1729186914519,0.08105469,0.56933594,-0.8388672,0.96875,29.21875,20.1875
145,145,1729186914559,0.015625,0.5263672,-0.89941406,9.6875,30.1875,20.0625
146,146,1729186914599,0.03125,0.6972656,-0.9482422,-22.125,31.84375,12.625
147,147,1729186914639,-0.08300781,0.625,-0.7265625,6.875,22.875,13.28125
148,148,1729186914679,0.08984375,0.45507812,-1.0732422,45.40625,16.40625,19.21875
149,149,1729186914719,0.0625,0.45996094,-1.0107422,2.90625,16.84375,9.6875
150,150,1729186914759,0.15332031,0.69628906,-0.9404297,3.65625,16.90625,2.1875
151,151,1729186914799,0.15625,0.54785156,-0.98535156,43.8125,2.71875,9.8125
152,152,1729186914839,0.09277344,0.6308594,-1.2402344,-1.40625,7.0625,-2.40625
153,153,1729186914879,0.083984375,0.8310547,-0.9658203,-13.0625,-0.8125,-9.28125
154,154,1729186914919,0.14453125,0.7236328,-1.0625,-15.03125,-14.3125,-8.6875
155,155,1729186914959,0.1328125,0.53222656,-1.0429688,4.5,-17.90625,-7.40625
156,156,1729186914999,0.08300781,0.43847656,-0.9941406,-0.375,-18.9375,-11.5625
157,157,1729186915039,0.103515625,0.5361328,-0.8701172,-31.21875,-23.75,-20.53125
158,158,1729186915079,0.052734375,0.40820312,-0.9160156,20.6875,-31.9375,-19.65625
159,159,1729186915119,-0.07128906,0.51660156,-0.8691406,-13.8125,-26.25,-24.125
160,160,1729186915159,-0.022460938,0.56933594,-0.796875,-3.0,-31.375,-22.65625
161,161,1729186915199,-0.0029296875,0.5019531,-0.7783203,16.28125,-37.5625,-17.59375
162,162,1729186915239,-0.044921875,0.4609375,-0.765625,9.4375,-29.6875,-16.5625
163,163,1729186915279,0.01171875,0.4013672,-0.7001953,19.15625,-30.15625,-13.03125
164,164,1729186915319,-0.0859375,0.4140625,-0.7480469,14.28125,-22.125,-14.1875
165,165,1729186915359,-0.13085938,0.42871094,-0.6621094,4.75,-13.4375,-9.90625
166,166,1729186915399,-0.11621094,0.3564453,-0.6582031,20.3125,-15.6875,1.3125
167,167,1729186915439,-0.20019531,0.390625,-0.6455078,-3.375,-1.25,-5.09375
168,168,1729186915479,-0.12207031,0.41796875,-0.6767578,2.0,6.21875,0.40625
169,169,1729186915519,-0.15039062,0.3076172,-0.6435547,6.5625,5.53125,8.03125
170,170,1729186915559,-0.14453125,0.3671875,-0.64453125,-4.46875,19.6875,5.53125
171,171,1729186915599,-0.041015625,0.43652344,-0.65625,-10.8125,27.9375,7.0
172,172,1729186915639,-0.013671875,0.4716797,-0.70214844,-15.8125,30.625,14.21875
173,173,1729186915679,-0.07714844,0.41210938,-0.74902344,13.65625,29.84375,22.25
174,174,1729186915719,-0.0234375,0.2734375,-0.8330078,27.5625,38.125,22.6875
175,175,1729186915759,0.0048828125,0.30664062,-0.85058594,14.5,34.65625,23.0625
176,176,1729186915799,-0.013671875,0.6269531,-0.9785156,-13.9375,29.65625,10.375
177,177,1729186915839,0.09667969,0.8095703,-0.9033203,-18.875,32.9375,4.75
178,178,1729186915879,0.12109375,0.6347656,-1.0283203,14.09375,23.59375,23.53125
179,179,1729186915919,-0.041015625,0.5644531,-0.890625,-6.78125,31.34375,17.75
180,180,1729186915959,-0.0546875,0.60839844,-0.99609375,4.0,19.34375,10.46875
181,181,1729186915999,0.21289062,0.5341797,-1.0820312,4.0,3.90625,8.71875
182,182,1729186916039,0.099609375,0.6191406,-1.1904297,-2.6875,8.09375,-3.8125
183,183,1729186916079,0.19238281,0.79589844,-1.0488281,-3.5,0.59375,-4.90625
184,184,1729186916119,-0.0029296875,0.6855469,-0.95703125,7.5625,-8.875,-5.25
185,185,1729186916159,0.123046875,0.46191406,-1.0986328,29.21875,-25.40625,-4.84375
186,186,1729186916199,0.10546875,0.49609375,-0.984375,-11.90625,-21.1875,-15.75
187,187,1729186916239,0.072265625,0.5283203,-0.9091797,11.53125,-21.625,-17.09375
188,188,1729186916279,0.07519531,0.5625,-0.96777344,-11.71875,-26.5625,-21.0625
189,189,1729186916319,0.030273438,0.6074219,-0.7998047,-13.375,-33.28125,-21.25
190,190,1729186916359,0.009765625,0.41601562,-0.9003906,17.25,-33.34375,-19.59375
191,191,1729186916399,-0.053710938,0.4580078,-0.83691406,-4.78125,-26.5,-21.3125
192,192,1729186916439,-0.030273438,0.5283203,-0.765625,-14.84375,-28.40625,-20.875
193,193,1729186916479,-0.044921875,0.3984375,-0.6347656,7.3125,-30.46875,-13.6875
194,194,1729186916519,-0.15722656,0.3486328,-0.7578125,11.21875,-24.96875,-12.34375
195,195,1729186916559,-0.09472656,0.5058594,-0.6660156,-13.1875,-8.5625,-18.8125
196,196,1729186916599,-0.14550781,0.46289062,-0.59375,7.96875,-16.4375,-7.71875
197,197,1729186916639,-0.09277344,0.28027344,-0.74121094,16.59375,-10.28125,-3.1875
198,198,1729186916679,-0.08886719,0.4091797,-0.63378906,-9.84375,6.03125,-4.59375
199,199,1729186916719,-0.12890625,0.4189453,-0.53808594,16.84375,8.71875,9.375
200,200,1729186916759,-0.21191406,0.28710938,-0.6982422,15.71875,13.0,11.71875
201,201,1729186916799,0.03125,0.4580078,-0.6748047,-24.0,27.875,7.125
202,202,1729186916839,0.056640625,0.48632812,-0.61621094,1.5,28.90625,20.0625
203,203,1729186916879,-0.09863281,0.3779297,-0.78515625,6.875,38.125,17.5625
204,204,1729186916919,-0.11035156,0.44335938,-0.8691406,-6.65625,37.46875,17.875
205,205,1729186916959,0.0234375,0.5292969,-0.81347656,-13.6875,36.59375,20.4375
206,206,1729186916999,0.046875,0.5859375,-0.8847656,-3.375,31.59375,19.09375
207,207,1729186917039,-0.021484375,0.5800781,-0.91308594,13.0,33.3125,19.6875
208,208,1729186917079,0.044921875,0.5107422,-1.0322266,12.0625,21.96875,20.625
209,209,1729186917119,0.0068359375,0.609375,-0.9140625,9.9375,23.0,15.0
210,210,1729186917159,0.14550781,0.6230469,-1.0605469,5.0625,20.0,11.28125
211,211,1729186917199,0.04296875,0.6220703,-1.0078125,0.46875,9.375,8.46875
212,212,1729186917239,0.19433594,0.6777344,-1.0800781,10.84375,8.28125,2.0625
213,213,1729186917279,0.107421875,0.703125,-1.1054688,-5.3125,0.03125,1.21875
214,214,1729186917319,0.13085938,0.6464844,-1.1552734,4.5,-17.40625,-8.0
215,215,1729186917359,0.18261719,0.6982422,-1.0390625,-22.40625,-8.125,-16.0
216,216,1729186917399,0.10644531,0.609375,-0.86328125,11.21875,-16.25,-10.8125
217,217,1729186917439,0.072265625,0.39160156,-0.9951172,23.125,-29.0625,-14.125
218,218,1729186917479,0.078125,0.56347656,-0.80371094,-28.15625,-21.9375,-27.90625
219,219,1729186917519,0.0068359375,0.54003906,-0.84375,17.375,-36.03125,-17.78125
220,220,1729186917559,0.047851562,0.46289062,-0.8408203,-1.40625,-30.15625,-19.5
221,221,1729186917599,0.017578125,0.50878906,-0.7988281,9.75,-32.5625,-14.125
222,222,1729186917639,-0.00390625,0.44335938,-0.7753906,1.09375,-25.28125,-13.5
223,223,1729186917679,-0.10839844,0.4716797,-0.64453125,-9.71875,-27.96875,-10.9375
224,224,1729186917719,-0.0029296875,0.46679688,-0.75097656,15.65625,-23.5625,-12.46875
225,225,1729186917759,-0.08691406,0.3125,-0.69628906,21.28125,-20.21875,-7.65625
226,226,1729186917799,-0.27246094,0.3486328,-0.765625,6.09375,-12.78125,-11.1875
227,227,1729186917839,-0.08691406,0.47265625,-0.5917969,-12.96875,-0.8125,-13.3125
228,228,1729186917879,-0.068359375,0.40039062,-0.6816406,22.03125,-1.53125,3.09375
229,229,1729186917919,-0.14941406,0.40429688,-0.62109375,-4.71875,8.96875,4.1875
230,230,1729186917959,-0.09375,0.4501953,-0.48535156,-1.40625,16.46875,6.5625
231,231,1729186917999,0.01171875,0.2421875,-0.7480469,33.84375,14.09375,20.5625
232,232,1729186918039,-0.033203125,0.29882812,-0.7626953,-10.15625,36.90625,8.90625
233,233,1729186918079,-0.022460938,0.56640625,-0.71875,-27.96875,46.4375,13.65625
234,234,1729186918119,-0.14160156,0.49023438,-0.7792969,14.625,27.75,25.75
235,235,1729186918159,0.033203125,0.6279297,-0.9951172,-37.96875,37.53125,15.625
236,236,1729186918199,-0.0234375,0.6582031,-0.8027344,-28.59375,29.78125,16.65625
237,237,1729186918239,0.056640625,0.49316406,-0.9345703,30.0,19.875,23.3125
238,238,1729186918279,0.12402344,0.41015625,-1.0839844,11.9375,29.53125,16.21875
239,239,1729186918319,0.14453125,0.6376953,-0.9375,-28.53125,30.0,7.25
240,240,1729186918359,0.119140625,0.7373047,-0.83203125,2.5625,18.28125,13.28125
241,241,1729186918399,0.072265625,0.6201172,-1.0166016,15.71875,11.71875,11.9375
242,242,1729186918439,0.10546875,0.5371094,-1.1728516,15.0,-3.6875,4.75
243,243,1729186918479,0.12402344,0.82421875,-1.0869141,-16.5,1.28125,-9.59375
244,244,1729186918519,0.24511719,0.77246094,-0.9423828,4.375,-7.21875,-6.78125
245,245,1729186918559,0.056640625,0.63183594,-1.0478516,12.4375,-16.25,-13.03125
246,246,1729186918599,0.07421875,0.61328125,-0.9013672,-3.625,-20.84375,-15.59375
247,247,1729186918639,0.08105469,0.46972656,-0.94921875,11.65625,-29.875,-19.84375
248,248,1729186918679,0.12597656,0.6298828,-0.8925781,-14.84375,-28.40625,-22.0
249,249,1729186918719,-0.01171875,0.5625,-0.82910156,8.40625,-31.21875,-19.1875
250,250,1729186918759,-0.07324219,0.49121094,-0.80859375,-0.5,-34.625,-20.40625
251,251,1729186918799,0.016601562,0.50878906,-0.75097656,19.15625,-41.53125,-16.6875
252,252,1729186918839,0.01171875,0.3701172,-0.82910156,28.78125,-27.53125,-18.5
253,253,1729186918879,-0.078125,0.5107422,-0.7324219,-26.03125,-18.5,-19.125
254,254,1729186918919,-0.18066406,0.6298828,-0.42089844,-17.96875,-12.34375,-19.65625
255,255,1729186918959,-0.021484375,0.31933594,-0.64160156,48.8125,-25.59375,-3.6875
256,256,1729186918999,-0.1015625,0.11425781,-0.6972656,23.90625,-10.09375,-2.03125
257,257,1729186919039,-0.059570312,0.3173828,-0.50683594,-16.96875,7.96875,-5.625
258,258,1729186919079,0.0009765625,0.35742188,-0.58203125,11.03125,13.03125,9.9375
259,259,1729186919119,-0.15722656,0.3701172,-0.6533203,3.03125,23.53125,11.15625
260,260,1729186919159,0.02734375,0.453125,-0.6386719,1.75,29.40625,13.71875
261,261,1729186919199,0.0,0.4013672,-0.80566406,21.40625,26.09375,22.75
262,262,1729186919239,-0.03515625,0.5126953,-0.9472656,-22.84375,40.34375,14.375
263,263,1729186919279,-0.043945312,0.58496094,-0.6689453,-6.71875,40.625,19.9375
264,264,1729186919319,0.09667969,0.47851562,-0.94140625,31.90625,29.28125,27.9375
265,265,1729186919359,0.06542969,0.54785156,-1.0712891,-26.3125,33.5625,17.625
266,266,1729186919399,0.005859375,0.7080078,-0.8222656,-31.21875,40.28125,3.09375
267,267,1729186919439,0.1171875,0.61035156,-0.91308594,22.375,18.84375,25.8125
268,268,1729186919479,-0.07519531,0.44433594,-1.0,32.53125,12.9375,16.65625
269,269,1729186919519,0.13964844,0.5703125,-1.1005859,-0.6875,17.25,6.9375
270,270,1729186919559,0.053710938,0.6191406,-1.0068359,7.6875,4.9375,1.03125
271,271,1729186919599,0.28808594,0.70214844,-1.1689453,18.28125,1.09375,-1.0
272,272,1729186919639,0.17480469,0.6796875,-1.0947266,-0.625,-5.9375,-3.25
273,273,1729186919679,0.038085938,0.5996094,-0.95996094,13.90625,-9.65625,-14.59375
274,274,1729186919719,0.12792969,0.59277344,-1.0634766,4.75,-23.875,-10.8125
275,275,1729186919759,0.12402344,0.5625,-0.9199219,-10.6875,-24.3125,-18.8125
276,276,1729186919799,0.1328125,0.4169922,-0.87597656,12.0,-26.9375,-16.875
277,277,1729186919839,0.017578125,0.59277344,-1.0273438,-9.53125,-28.53125,-17.46875
278,278,1729186919879,0.037109375,0.6074219,-0.6816406,-19.0,-19.0,-28.53125
279,279,1729186919919,0.080078125,0.40039062,-0.8613281,19.03125,-41.875,-12.21875
280,280,1729186919959,-0.041015625,0.44433594,-0.91796875,-13.875,-25.65625,-17.15625
281,281,1729186919999,-0.017578125,0.49414062,-0.55859375,-8.625,-17.84375,-20.34375
282,282,1729186920039,-0.044921875,0.29296875,-0.7841797,29.03125,-34.3125,-5.875
283,283,1729186920079,-0.111328125,0.375,-0.69921875,-7.15625,-14.3125,-12.78125
284,284,1729186920119,-0.036132812,0.51660156,-0.6328125,4.625,-16.96875,-11.5
285,285,1729186920159,-0.08203125,0.38085938,-0.75683594,8.53125,-8.375,-7.59375
286,286,1729186920199,-0.12402344,0.46191406,-0.7363281,-7.78125,-1.0625,-3.25
287,287,1729186920239,-0.10253906,0.4111328,-0.5625,4.9375,3.34375,7.25
288,288,1729186920279,-0.14355469,0.24902344,-0.6855469,24.65625,10.0625,9.375
289,289,1729186920319,-0.10839844,0.28222656,-0.7158203,-5.375,16.78125,6.03125
290,290,1729186920359,-0.015625,0.4501953,-0.6171875,-27.65625,30.5625,10.0625
291,291,1729186920399,-0.040039062,0.37597656,-0.7011719,28.4375,24.8125,18.34375
292,292,1729186920439,-0.041015625,0.47753906,-0.88183594,-4.34375,38.625,15.3125
293,293,1729186920479,-0.109375,0.57714844,-0.8105469,-25.46875,34.09375,15.65625
294,294,1729186920519,-0.005859375,0.6113281,-0.74609375,6.5625,29.78125,18.40625
295,295,1729186920559,0.16992188,0.42382812,-1.0136719,25.0625,27.8125,26.15625
296,296,1729186920599,0.060546875,0.5800781,-1.0908203,-10.5,27.4375,13.84375
297,297,1729186920639,0.0107421875,0.77734375,-0.81152344,-30.21875,34.34375,6.875
298,298,1729186920679,0.15625,0.67285156,-1.0351562,1.03125,13.71875,11.03125
299,299,1729186920719,0.21972656,0.4814453,-1.0068359,11.71875,16.53125,12.625
300,300,1729186920759,0.11621094,0.6269531,-0.9941406,-20.53125,20.96875,1.6875
301,301,1729186920799,0.06640625,0.6425781,-0.88671875,-5.5,8.53125,0.03125
302,302,1729186920839,0.20800781,0.66015625,-0.9951172,4.125,-5.5625,-3.875
303,303,1729186920879,0.17578125,0.5078125,-1.0683594,22.09375,-12.59375,-2.40625
304,304,1729186920919,0.045898438,0.6269531,-0.96777344,-9.125,-7.03125,-13.875
305,305,1729186920959,0.11425781,0.6425781,-0.9111328,14.3125,-24.0625,-10.5
306,306,1729186920999,0.12695312,0.6142578,-0.9716797,-0.75,-26.0625,-17.40625
307,307,1729186921039,0.12890625,0.5810547,-0.9238281,1.8125,-23.40625,-18.5
308,308,1729186921079,0.040039062,0.55566406,-0.8515625,-0.1875,-29.4375,-16.6875
309,309,1729186921119,0.036132812,0.5205078,-0.90527344,6.15625,-33.78125,-18.9375
310,310,1729186921159,-0.02734375,0.50097656,-0.8154297,4.25,-32.1875,-22.46875
311,311,1729186921199,-0.055664062,0.4736328,-0.8144531,-1.90625,-33.53125,-19.65625
312,312,1729186921239,-0.06738281,0.48828125,-0.68652344,19.03125,-38.21875,-14.125
313,313,1729186921279,-0.046875,0.4140625,-0.7470703,12.5625,-23.8125,-16.9375
314,314,1729186921319,-0.06347656,0.48046875,-0.60546875,-8.5,-19.5,-15.03125
315,315,1729186921359,0.030273438,0.48046875,-0.51464844,3.34375,-16.3125,-6.125
316,316,1729186921399,-0.15039062,0.2763672,-0.6230469,21.96875,-6.90625,0.71875
317,317,1729186921439,-0.2890625,0.29492188,-0.66015625,5.46875,8.59375,-0.75
318,318,1729186921479,-0.16015625,0.3955078,-0.62890625,-3.25,8.40625,2.0
319,319,1729186921519,-0.064453125,0.36328125,-0.68359375,-0.8125,16.15625,10.375
320,320,1729186921559,-0.052734375,0.4111328,-0.7011719,-3.8125,21.65625,10.375
321,321,1729186921599,-0.026367188,0.45996094,-0.5957031,0.28125,31.25,13.71875
322,322,1729186921639,-0.03515625,0.3701172,-0.8417969,25.625,22.6875,24.15625
323,323,1729186921679,-0.030273438,0.38476562,-0.88671875,-7.8125,39.0,15.4375
324,324,1729186921719,-0.047851562,0.5654297,-0.75683594,-6.53125,37.875,17.0
325,325,1729186921759,0.12207031,0.5341797,-1.0039062,27.03125,26.90625,23.4375
326,326,1729186921799,0.060546875,0.61328125,-0.98828125,-6.1875,29.03125,16.9375
327,327,1729186921839,0.10839844,0.7207031,-0.9638672,-3.625,29.09375,12.625
328,328,1729186921879,0.01171875,0.7373047,-0.8691406,-14.25,26.28125,13.71875
329,329,1729186921919,0.06347656,0.5566406,-0.9863281,12.0625,11.8125,12.1875
330,330,1729186921959,0.2685547,0.45703125,-1.0947266,-4.78125,16.21875,11.03125
331,331,1729186921999,0.08886719,0.5234375,-0.9423828,-7.34375,12.9375,6.15625
332,332,1729186922039,0.12011719,0.6533203,-1.0146484,-2.59375,-3.75,-2.09375
333,333,1729186922079,0.12011719,0.5908203,-1.1523438,15.375,-18.4375,-1.78125
334,334,1729186922119,0.09472656,0.7861328,-1.0107422,-19.1875,-5.8125,-20.40625
335,335,1729186922159,0.19042969,0.7158203,-0.88671875,17.5625,-22.78125,-6.125
336,336,1729186922199,0.041992188,0.4736328,-0.96191406,10.53125,-23.15625,-13.03125
337,337,1729186922239,0.09472656,0.5048828,-0.8671875,1.9375,-28.21875,-22.84375
338,338,1729186922279,0.111328125,0.5,-0.9160156,6.875,-28.75,-20.09375
339,339,1729186922319,-0.013671875,0.51660156,-0.8623047,-3.625,-27.34375,-24.0
340,340,1729186922359,-0.005859375,0.58203125,-0.7919922,-6.53125,-30.34375,-19.65625
341,341,1729186922399,0.0029296875,0.4453125,-0.7607422,12.1875,-32.0625,-13.03125
342,342,1729186922439,-0.0546875,0.32714844,-0.73339844,21.90625,-33.84375,-9.28125
343,343,1729186922479,-0.078125,0.26953125,-0.76660156,33.1875,-22.46875,-9.15625
344,344,1729186922519,-0.107421875,0.4189453,-0.7705078,-2.59375,-13.625,-17.15625
345,345,1729186922559,-0.09472656,0.7480469,-0.53222656,-54.28125,2.90625,-24.4375
346,346,1729186922599,-0.12207031,0.5419922,-0.41601562,16.46875,-9.28125,-3.375
347,347,1729186922639,-0.08300781,0.21582031,-0.81152344,52.40625,-10.9375,11.59375
348,348,1729186922679,-0.15429688,0.17089844,-0.6484375,-11.71875,15.65625,1.3125
349,349,1729186922719,-0.1171875,0.4453125,-0.55859375,-33.65625,26.90625,1.5625
350,350,1729186922759,0.05078125,0.41015625,-0.7138672,2.5,20.5,12.875
351,351,1729186922799,0.0009765625,0.3720703,-0.6904297,-5.8125,30.3125,13.53125
352,352,1729186922839,-0.041992188,0.5048828,-0.7890625,-9.71875,32.625,13.84375
353,353,1729186922879,-0.0390625,0.4638672,-0.8046875,7.8125,30.5625,25.8125
354,354,1729186922919,-0.0029296875,0.4169922,-0.87402344,19.625,31.59375,26.15625
355,355,1729186922959,-0.0078125,0.4716797,-0.9091797,10.71875,28.5,19.5625
356,356,1729186922999,0.05078125,0.6123047,-0.9042969,4.875,25.3125,10.0625
357,357,1729186923039,0.15332031,0.6796875,-1.1279297,20.75,15.0625,15.5
358,358,1729186923079,0.09472656,0.59472656,-0.9628906,13.0,25.125,15.96875
359,359,1729186923119,0.09765625,0.5595703,-0.890625,5.90625,19.5625,14.3125
360,360,1729186923159,0.16308594,0.5644531,-1.0390625,14.5,10.90625,11.28125
361,361,1729186923199,0.045898438,0.63671875,-0.95996094,-20.09375,7.96875,-1.59375
362,362,1729186923239,0.22949219,0.6621094,-1.0878906,8.96875,-4.28125,-1.46875
363,363,1729186923279,0.16113281,0.5996094,-1.2119141,-9.28125,-5.9375,-4.53125
364,364,1729186923319,0.037109375,0.7441406,-0.8691406,-37.375,-1.34375,-19.90625
365,365,1729186923359,0.20507812,0.6220703,-0.90722656,12.3125,-23.03125,-5.5
366,366,1729186923399,-0.001953125,0.42871094,-1.0507812,-9.78125,-26.03125,-18.375
367,367,1729186923439,0.14355469,0.5175781,-0.8251953,-8.4375,-21.125,-21.9375
368,368,1729186923479,0.034179688,0.45898438,-0.9941406,19.8125,-31.75,-15.59375
369,369,1729186923519,0.06640625,0.4736328,-0.88964844,-10.5625,-22.125,-27.71875
370,370,1729186923559,-0.0087890625,0.546875,-0.7050781,13.90625,-36.15625,-12.96875
371,371,1729186923599,-0.12207031,0.43359375,-0.90625,18.1875,-31.25,-16.625
372,372,1729186923639,-0.076171875,0.42285156,-0.75097656,-6.0625,-30.34375,-21.875
373,373,1729186923679,-0.049804688,0.4736328,-0.6777344,13.90625,-36.5,-10.4375
374,374,1729186923719,-0.08203125,0.3564453,-0.7578125,29.34375,-15.9375,-10.6875
375,375,1729186923759,-0.10546875,0.453125,-0.5810547,-11.0625,-1.0625,-13.25
376,376,1729186923799,-0.059570312,0.5058594,-0.4404297,-15.53125,-2.6875,-3.125
377,377,1729186923839,-0.057617188,0.2763672,-0.57714844,26.40625,-1.71875,9.6875
378,378,1729186923879,-0.11035156,0.203125,-0.6699219,15.1875,11.71875,9.6875
379,379,1729186923919,-0.06640625,0.3701172,-0.72265625,-18.03125,26.15625,5.65625
380,380,1729186923959,0.13476562,0.48339844,-0.70214844,-10.09375,27.875,15.0
381,381,1729186923999,-0.02734375,0.3779297,-0.765625,30.3125,24.75,24.8125
382,382,1729186924039,-0.06933594,0.40625,-0.921875,-1.125,41.5625,13.84375
383,383,1729186924079,-0.036132812,0.7080078,-0.79296875,-36.15625,39.46875,17.0625
384,384,1729186924119,-0.076171875,0.5703125,-0.76464844,21.96875,17.3125,27.03125
385,385,1729186924159,0.032226562,0.36523438,-1.0488281,28.71875,27.21875,20.375
386,386,1729186924199,0.041992188,0.6044922,-1.0791016,-36.28125,35.03125,11.53125
387,387,1729186924239,-0.021484375,0.80078125,-0.8261719,-31.75,29.15625,9.8125
388,388,1729186924279,0.20703125,0.5683594,-0.9482422,48.3125,1.15625,20.75
389,389,1729186924319,0.24316406,0.33007812,-1.3583984,43.375,12.375,17.0
390,390,1729186924359,-0.064453125,0.5966797,-1.1044922,-61.125,14.09375,-13.0625
391,391,1729186924399,0.14746094,0.91796875,-0.7373047,-25.59375,24.75,-14.78125
392,392,1729186924439,0.2841797,0.72558594,-1.2070312,49.4375,-16.625,1.09375
393,393,1729186924479,0.057617188,0.5595703,-0.92285156,-25.90625,-2.03125,-16.4375
394,394,1729186924519,0.026367188,0.546875,-0.9238281,14.21875,-21.625,-12.59375
395,395,1729186924559,0.1484375,0.46777344,-0.984375,-4.65625,-24.3125,-20.40625
396,396,1729186924599,0.15527344,0.5878906,-0.89160156,-6.84375,-30.96875,-20.09375
397,397,1729186924639,0.009765625,0.50878906,-0.8730469,8.40625,-27.3125,-20.84375
398,398,1729186924679,0.0126953125,0.5136719,-0.9736328,11.46875,-28.6875,-18.75
399,399,1729186924719,-0.041015625,0.6669922,-0.79003906,-29.9375,-27.25,-28.875
400,400,1729186924759,-0.0087890625,0.52441406,-0.6875,4.375,-29.9375,-18.15625
401,401,1729186924799,-0.047851562,0.28222656,-0.69433594,36.375,-48.46875,-6.71875
402,402,1729186924839,-0.083984375,0.29882812,-0.7441406,15.625,-21.4375,-17.40625
403,403,1729186924879,-0.024414062,0.51953125,-0.7060547,-39.3125,-4.40625,-20.78125
404,404,1729186924919,-0.07324219,0.53027344,-0.37109375,-16.5,-6.71875,-9.71875
405,405,1729186924959,-0.06542969,0.30664062,-0.57714844,36.25,-1.59375,7.625
406,406,1729186924999,-0.1328125,0.17773438,-0.74609375,25.1875,8.84375,8.15625
407,407,1729186925039,-0.14257812,0.3955078,-0.5517578,-47.0625,23.84375,3.21875
408,408,1729186925079,0.0126953125,0.375,-0.5878906,21.21875,20.4375,15.84375
409,409,1729186925119,0.01953125,0.30664062,-0.81933594,17.6875,28.0,22.8125
410,410,1729186925159,-0.091796875,0.48242188,-0.7841797,-16.25,37.46875,12.5
411,411,1729186925199,0.045898438,0.61621094,-0.6328125,-13.375,39.0,19.875
412,412,1729186925239,0.091796875,0.5361328,-0.9560547,27.75,21.53125,30.5
413,413,1729186925279,0.11328125,0.49609375,-0.8798828,10.59375,32.28125,21.03125
414,414,1729186925319,0.059570312,0.59472656,-1.0263672,-0.6875,29.09375,19.03125
415,415,1729186925359,0.14355469,0.7998047,-0.87890625,-22.59375,33.25,12.625
416,416,1729186925399,-0.032226562,0.6376953,-0.91503906,16.40625,16.65625,16.9375
417,417,1729186925439,0.2109375,0.49902344,-1.2158203,26.15625,4.6875,14.875
418,418,1729186925479,0.0859375,0.51464844,-1.1064453,-1.0,9.4375,-0.6875
419,419,1729186925519,0.10253906,0.81640625,-1.0947266,-0.5625,6.8125,-8.875
420,420,1729186925559,0.203125,0.82421875,-1.0742188,-1.53125,-3.5,-4.03125
421,421,1729186925599,0.022460938,0.62402344,-0.88671875,12.3125,-19.78125,-2.75
422,422,1729186925639,0.13671875,0.4580078,-1.0654297,18.28125,-26.25,-8.8125
423,423,1729186925679,0.119140625,0.50097656,-0.8925781,-19.0,-12.34375,-20.03125
424,424,1729186925719,0.08300781,0.4716797,-0.8798828,10.53125,-28.34375,-15.21875
425,425,1729186925759,0.05078125,0.5292969,-0.9091797,-10.6875,-21.6875,-24.0
426,426,1729186925799,0.00390625,0.6425781,-0.78808594,-11.5625,-23.28125,-26.3125
427,427,1729186925839,0.08105469,0.5439453,-0.84765625,8.78125,-38.15625,-12.28125
428,428,1729186925879,-0.021484375,0.40234375,-0.8564453,3.46875,-28.75,-14.3125
429,429,1729186925919,-0.1171875,0.4560547,-0.71777344,2.90625,-27.96875,-19.90625
430,430,1729186925959,0.038085938,0.46484375,-0.84765625,0.21875,-30.53125,-15.21875
431,431,1729186925999,-0.10449219,0.484375,-0.7236328,-4.09375,-16.125,-17.40625
432,432,1729186926039,-0.12207031,0.39746094,-0.5908203,13.90625,-9.59375,-10.75
433,433,1729186926079,-0.0625,0.42285156,-0.7001953,-11.84375,-10.8125,-8.3125
434,434,1729186926119,-0.07324219,0.5107422,-0.50097656,-11.5625,2.59375,-9.15625
435,435,1729186926159,-0.18945312,0.28125,-0.72265625,37.75,-5.15625,8.84375
436,436,1729186926199,-0.15820312,0.21679688,-0.7451172,-6.59375,16.90625,1.03125
437,437,1729186926239,-0.059570312,0.484375,-0.5654297,-40.65625,33.0,1.03125
438,438,1729186926279,0.021484375,0.38671875,-0.60058594,15.96875,16.65625,24.875
439,439,1729186926319,-0.16601562,0.2626953,-0.6767578,30.75,28.3125,24.53125
440,440,1729186926359,-0.11328125,0.4638672,-0.7832031,-6.59375,34.46875,15.0
441,441,1729186926399,0.0703125,0.5908203,-0.75683594,-10.4375,26.21875,19.15625
442,442,1729186926439,0.07519531,0.53222656,-0.7998047,7.90625,27.625,22.03125
443,443,1729186926479,-0.051757812,0.50878906,-0.8769531,15.96875,27.28125,28.5
444,444,1729186926519,-0.03125,0.49316406,-0.92871094,-1.40625,7.5625,23.90625
445,445,1729186926559,0.24902344,0.671875,-1.0048828,-0.25,21.71875,5.21875
446,446,1729186926599,0.25195312,0.6933594,-1.0634766,-6.0625,37.65625,17.3125
447,447,1729186926639,-0.024414062,0.6845703,-1.0791016,0.03125,18.0,13.96875
448,448,1729186926679,0.18847656,0.77246094,-1.0039062,-2.53125,5.34375,9.5
449,449,1729186926719,0.10644531,0.62402344,-1.1621094,8.53125,-4.21875,-1.90625
450,450,1729186926759,0.20507812,0.6777344,-1.1572266,-0.3125,0.15625,-4.90625
451,451,1729186926799,0.045898438,0.6513672,-0.8935547,6.875,-12.03125,-6.59375
452,452,1729186926839,0.08984375,0.546875,-0.90234375,14.03125,-14.65625,-11.0625
453,453,1729186926879,0.07421875,0.60253906,-0.82714844,-0.8125,-22.71875,-18.625
454,454,1729186926919,0.125,0.6142578,-0.91796875,9.09375,-25.71875,-18.375
455,455,1729186926959,0.0146484375,0.48242188,-0.8330078,-1.25,-27.71875,-14.84375
456,456,1729186926999,0.034179688,0.49609375,-0.921875,-2.40625,-23.9375,-22.15625
457,457,1729186927039,0.051757812,0.4970703,-0.82910156,2.71875,-30.65625,-17.84375
458,458,1729186927079,-0.032226562,0.5576172,-0.8564453,-6.25,-25.40625,-22.0
459,459,1729186927119,-0.0087890625,0.53515625,-0.75,-7.21875,-22.96875,-21.0625
460,460,1729186927159,-0.053710938,0.46679688,-0.7265625,-0.8125,-29.875,-14.125
461,461,1729186927199,-0.064453125,0.43554688,-0.6621094,1.15625,-19.78125,-13.875
462,462,1729186927239,-0.078125,0.35839844,-0.6386719,9.4375,-16.5,-8.4375
463,463,1729186927279,-0.057617188,0.3779297,-0.57421875,-0.3125,-14.0625,-6.0625
464,464,1729186927319,-0.061523438,0.3251953,-0.5966797,27.15625,-4.84375,-0.6875
465,465,1729186927359,-0.09863281,0.33984375,-0.7734375,23.71875,5.78125,3.34375
466,466,1729186927399,-0.1875,0.51953125,-0.65527344,-24.125,23.0,1.3125
467,467,1729186927439,-0.18945312,0.5419922,-0.53027344,0.21875,15.96875,8.46875
468,468,1729186927479,-0.005859375,0.39648438,-0.8095703,17.1875,18.125,16.78125
469,469,1729186927519,0.018554688,0.44140625,-0.91015625,-16.4375,32.34375,15.71875
470,470,1729186927559,-0.07128906,0.5673828,-0.75683594,-34.625,38.5,13.84375
471,471,1729186927599,-0.03125,0.47265625,-0.7167969,-3.25,30.6875,19.8125
472,472,1729186927639,0.036132812,0.48339844,-0.859375,7.6875,30.625,20.0
473,473,1729186927679,0.001953125,0.5361328,-0.9169922,3.21875,31.0,18.53125
474,474,1729186927719,0.052734375,0.6201172,-0.8251953,-7.15625,22.875,15.1875
475,475,1729186927759,0.12402344,0.51953125,-0.8935547,27.4375,18.96875,18.21875
476,476,1729186927799,0.07324219,0.5,-0.9873047,16.28125,22.75,13.96875
477,477,1729186927839,0.16015625,0.7011719,-0.97753906,5.0,15.3125,13.28125
478,478,1729186927879,0.15332031,0.77734375,-0.8183594,-12.59375,21.78125,4.375
479,479,1729186927919,0.16503906,0.63378906,-1.0244141,40.21875,-2.28125,8.34375
480,480,1729186927959,0.19238281,0.53027344,-1.3037109,2.59375,-2.40625,-0.25
481,481,1729186927999,0.08203125,0.8330078,-0.87597656,-40.65625,13.59375,-19.25
482,482,1729186928039,0.11230469,0.6904297,-0.8691406,22.03125,-21.875,-2.34375
483,483,1729186928079,0.08496094,0.41308594,-1.0058594,32.9375,-26.875,-2.53125
484,484,1729186928119,0.04296875,0.41796875,-1.0,-6.5,-16.6875,-19.78125
485,485,1729186928159,0.109375,0.62109375,-0.8486328,-11.625,-22.21875,-18.09375
486,486,1729186928199,0.037109375,0.5292969,-0.8935547,18.46875,-31.09375,-15.34375
487,487,1729186928239,0.10253906,0.5371094,-0.92871094,4.25,-25.78125,-17.78125
488,488,1729186928279,0.040039062,0.60253906,-0.8671875,-14.59375,-20.09375,-21.0
489,489,1729186928319,-0.06542969,0.57128906,-0.7373047,-8.0,-27.3125,-19.96875
490,490,1729186928359,-0.0009765625,0.43554688,-0.8310547,7.1875,-33.03125,-11.125
491,491,1729186928399,-0.05078125,0.37109375,-0.80859375,6.28125,-24.3125,-16.3125
492,492,1729186928439,-0.044921875,0.4609375,-0.6953125,-9.78125,-15.28125,-16.1875
493,493,1729186928479,-0.12011719,0.4658203,-0.6582031,0.65625,-19.84375,-8.9375
494,494,1729186928519,-0.064453125,0.5048828,-0.59472656,-0.0625,-11.6875,-13.125
495,495,1729186928559,-0.061523438,0.44335938,-0.6591797,12.125,-6.5,-5.375
496,496,1729186928599,-0.14453125,0.3017578,-0.7578125,12.1875,-0.5625,0.46875
497,497,1729186928639,-0.1171875,0.42382812,-0.5917969,-11.1875,13.21875,-0.625
498,498,1729186928679,-0.171875,0.51660156,-0.5908203,4.375,14.375,6.5625
499,499,1729186928719,-0.034179688,0.42773438,-0.7451172,-1.59375,18.65625,10.375
500,500,1729186928759,-0.009765625,0.57714844,-0.8378906,4.3125,-33.84375,-15.8125
501,501,1729186928799,-0.0146484375,0.4638672,-0.7578125,3.46875,-22.40625,-14.46875
502,502,1729186928839,-0.083984375,0.3232422,-0.79785156,20.625,-32.96875,-6.71875
503,503,1729186928879,-0.087890625,0.3935547,-0.7578125,-2.21875,-17.34375,-14.90625
504,504,1729186928919,-0.080078125,0.49609375,-0.6533203,-3.125,-11.125,-14.25
505,505,1729186928959,-0.051757812,0.4638672,-0.62890625,-1.71875,-11.84375,-6.96875
506,506,1729186928999,-0.12695312,0.37695312,-0.6533203,9.1875,-1.3125,-1.71875
507,507,1729186929039,-0.18554688,0.32617188,-0.6826172,16.21875,0.15625,4.875
508,508,1729186929079,-0.13574219,0.3466797,-0.7109375,-4.59375,8.65625,3.34375
509,509,1729186929119,-0.16308594,0.47070312,-0.59765625,-13.75,18.59375,1.6875
510,510,1729186929159,-0.009765625,0.44433594,-0.66308594,6.28125,16.53125,13.65625
511,511,1729186929199,0.052734375,0.33398438,-0.7128906,4.9375,23.25,18.40625
512,512,1729186929239,0.0009765625,0.44140625,-0.76953125,-17.21875,36.25,15.3125
513,513,1729186929279,-0.09375,0.55371094,-0.7246094,-20.21875,42.65625,17.75
514,514,1729186929319,-0.00390625,0.4765625,-0.79003906,-7.34375,27.75,22.3125
515,515,1729186929359,0.043945312,0.43847656,-0.9980469,10.1875,18.1875,24.28125
516,516,1729186929399,0.051757812,0.62597656,-1.0351562,-32.5,39.0,11.8125
517,517,1729186929439,0.028320312,0.7128906,-0.7324219,-15.03125,35.5,13.15625
518,518,1729186929479,0.10839844,0.56933594,-0.9628906,33.5625,9.5,24.09375
519,519,1729186929519,0.10253906,0.51953125,-0.98535156,18.125,11.15625,12.0625
520,520,1729186929559,0.14160156,0.64941406,-1.0195312,31.1875,10.71875,5.78125
521,521,1729186929599,0.26953125,0.6953125,-1.2519531,0.53125,6.34375,2.25
522,522,1729186929639,0.053710938,0.8652344,-0.86816406,-29.1875,7.75,-6.5
523,523,1729186929679,0.20898438,0.609375,-1.0556641,50.53125,-19.84375,6.8125
524,524,1729186929719,0.140625,0.35742188,-1.1923828,-4.96875,-14.53125,-6.59375
525,525,1729186929759,0.0859375,0.6142578,-0.8457031,-42.9375,-10.6875,-20.9375
526,526,1729186929799,0.10449219,0.59375,-0.77246094,15.625,-21.1875,-11.5
527,527,1729186929839,0.0859375,0.57910156,-0.93359375,-12.46875,-13.03125,-21.125
528,528,1729186929879,0.051757812,0.6171875,-0.703125,-9.53125,-24.6875,-18.25
529,529,1729186929919,0.033203125,0.3984375,-0.92285156,36.1875,-38.53125,-11.78125
530,530,1729186929959,0.017578125,0.3330078,-1.0478516,17.8125,-23.40625,-18.625
531,531,1729186929999,-0.047851562,0.6230469,-0.828125,-39.03125,-17.46875,-25.09375
532,532,1729186930039,-0.07421875,0.7060547,-0.6611328,-12.71875,-20.875,-18.875
533,533,1729186930079,-0.12011719,0.4248047,-0.6826172,40.375,-35.0,-7.53125
534,534,1729186930119,-0.0859375,0.28515625,-0.79785156,26.40625,-27.1875,-10.625
535,535,1729186930159,-0.03125,0.453125,-0.7558594,-24.75,-9.0625,-24.0625
536,536,1729186930199,-0.00390625,0.5625,-0.5283203,-13.03125,-8.875,-9.90625
537,537,1729186930239,-0.13769531,0.3984375,-0.625,20.625,-9.71875,3.65625
538,538,1729186930279,-0.14453125,0.3310547,-0.6591797,10.59375,11.03125,-2.75
539,539,1729186930319,-0.12597656,0.34960938,-0.6425781,2.71875,7.125,5.78125
540,540,1729186930359,-0.11328125,0.41992188,-0.6923828,-17.90625,13.90625,3.21875
541,541,1729186930399,0.01953125,0.39746094,-0.6582031,12.375,16.15625,11.8125
542,542,1729186930439,0.02734375,0.4091797,-0.734375,4.875,27.6875,18.71875
543,543,1729186930479,-0.09472656,0.48632812,-0.7597656,-3.0625,31.34375,15.1875
544,544,1729186930519,0.04296875,0.6328125,-0.71484375,-20.71875,31.1875,18.34375
545,545,1729186930559,0.0009765625,0.54785156,-0.8066406,-0.4375,23.0625,23.90625
546,546,1729186930599,0.07324219,0.515625,-0.9345703,-7.40625,32.875,19.6875
547,547,1729186930639,-0.041015625,0.546875,-0.9814453,-9.84375,28.0625,21.15625
548,548,1729186930679,0.057617188,0.61328125,-0.80859375,-17.15625,29.59375,9.8125
549,549,1729186930719,0.040039062,0.61621094,-0.8466797,19.75,15.1875,17.5
550,550,1729186930759,0.09472656,0.54003906,-1.0966797,31.0625,9.03125,13.0
551,551,1729186930799,0.25390625,0.7421875,-0.9707031,-32.84375,24.15625,1.875
552,552,1729186930839,0.046875,0.75097656,-0.8652344,17.875,2.5625,6.9375
553,553,1729186930879,0.14746094,0.5957031,-1.0966797,27.875,-2.09375,-1.78125
554,554,1729186930919,0.12695312,0.55859375,-1.1806641,5.1875,-9.46875,-7.46875
555,555,1729186930959,0.13378906,0.66796875,-0.9326172,-23.34375,-5.5,-15.15625
556,556,1729186930999,0.08984375,0.6230469,-0.8046875,21.03125,-24.0,-7.8125
557,557,1729186931039,0.103515625,0.4658203,-1.0068359,21.90625,-23.15625,-13.03125
558,558,1729186931079,0.043945312,0.6113281,-0.8623047,-27.1875,-17.28125,-26.125
559,559,1729186931119,0.06347656,0.6855469,-0.7578125,8.65625,-30.59375,-15.40625
560,560,1729186931159,0.043945312,0.54785156,-0.8876953,4.125,-26.03125,-16.1875
561,561,1729186931199,-0.040039062,0.515625,-0.77246094,-8.1875,-25.96875,-19.96875
562,562,1729186931239,0.0,0.50878906,-0.8876953,1.9375,-26.875,-16.125
563,563,1729186931279,-0.061523438,0.43164062,-0.75097656,0.84375,-21.9375,-16.0
564,564,1729186931319,-0.15332031,0.42382812,-0.6816406,10.65625,-26.625,-16.3125
565,565,1729186931359,-0.060546875,0.39648438,-0.7421875,14.5625,-20.71875,-15.59375
566,566,1729186931399,0.0146484375,0.45898438,-0.7011719,-2.28125,-13.1875,-12.03125
567,567,1729186931439,-0.1171875,0.546875,-0.5595703,-3.6875,-4.15625,-8.8125
568,568,1729186931479,-0.115234375,0.4765625,-0.609375,15.96875,0.90625,-1.46875
569,569,1729186931519,-0.0859375,0.32714844,-0.7753906,22.125,-2.9375,5.90625
570,570,1729186931559,-0.21386719,0.41503906,-0.71875,-24.625,14.6875,-0.4375
571,571,1729186931599,-0.13183594,0.5,-0.5839844,1.5,13.53125,3.03125
572,572,1729186931639,0.059570312,0.35742188,-0.76171875,13.84375,14.09375,13.71875
573,573,1729186931679,-0.059570312,0.43359375,-0.6464844,-9.0625,28.375,14.28125
574,574,1729186931719,-0.06933594,0.44140625,-0.65527344,11.9375,29.34375,18.40625
575,575,1729186931759,-0.0078125,0.34277344,-0.7685547,21.59375,28.125,22.125
576,576,1729186931799,0.03515625,0.5644531,-0.9423828,-8.0,33.3125,17.0625
577,577,1729186931839,0.05078125,0.7109375,-0.75097656,-20.21875,40.6875,20.84375
578,578,1729186931879,0.01953125,0.5332031,-0.93847656,27.03125,22.4375,22.3125
579,579,1729186931919,0.111328125,0.43066406,-1.0146484,7.8125,22.4375,17.4375
580,580,1729186931959,0.083984375,0.6660156,-1.0507812,-0.0625,18.46875,12.375
581,581,1729186931999,0.16601562,0.6201172,-0.921875,24.03125,19.21875,14.9375
582,582,1729186932039,0.08203125,0.5449219,-1.0771484,36.59375,2.1875,12.75
583,583,1729186932079,0.111328125,0.6699219,-1.1845703,-5.75,4.625,-5.6875
584,584,1729186932119,0.07910156,0.80566406,-0.9980469,3.28125,-3.8125,-6.0625
585,585,1729186932159,0.23828125,0.60253906,-1.0966797,12.5625,-9.125,-1.53125
586,586,1729186932199,0.09667969,0.55371094,-0.95214844,-6.3125,-12.15625,-11.5625
587,587,1729186932239,0.20019531,0.59277344,-0.8925781,-12.59375,-13.75,-15.6875
588,588,1729186932279,0.0146484375,0.359375,-0.8300781,2.59375,-23.28125,-12.59375
589,589,1729186932319,0.15527344,0.33789062,-0.87597656,19.28125,-21.3125,-17.84375
590,590,1729186932359,-0.021484375,0.5,-1.0292969,-8.75,-25.03125,-12.65625
591,591,1729186932399,-0.029296875,0.67578125,-0.7626953,-22.40625,-17.65625,-24.90625
592,592,1729186932439,-0.02734375,0.49902344,-0.8408203,37.8125,-43.03125,-8.375
593,593,1729186932479,-0.09277344,0.37304688,-1.015625,10.96875,-27.90625,-17.34375
594,594,1729186932519,-0.036132812,0.47460938,-0.76464844,-25.21875,-25.90625,-26.8125
595,595,1729186932559,-0.038085938,0.578125,-0.72753906,-1.46875,-26.6875,-14.90625
596,596,1729186932599,-0.03515625,0.47070312,-0.7001953,4.6875,-17.59375,-11.1875
597,597,1729186932639,-0.07910156,0.36132812,-0.6308594,11.09375,-17.78125,-5.5
598,598,1729186932679,-0.12011719,0.30078125,-0.72265625,8.53125,-12.40625,-6.125
599,599,1729186932719,-0.11425781,0.4453125,-0.6503906,-20.78125,4.8125,-7.21875
600,600,1729186932759,-0.23535156,0.39746094,-0.71972656,19.8125,-6.5,6.15625
601,601,1729186932799,-0.23144531,0.39648438,-0.8300781,-2.75,9.625,-1.3125
602,602,1729186932839,-0.09277344,0.49609375,-0.69921875,-7.59375,8.21875,-1.90625
603,603,1729186932879,0.038085938,0.3828125,-0.8105469,20.1875,2.96875,8.03125
604,604,1729186932919,-0.017578125,0.49121094,-0.7753906,-26.625,26.90625,2.1875
605,605,1729186932959,-0.040039062,0.625,-0.53515625,-34.9375,33.84375,5.78125
606,606,1729186932999,-0.0048828125,0.44726562,-0.6328125,17.1875,18.96875,24.65625
607,607,1729186933039,-0.0146484375,0.19726562,-0.8691406,36.96875,24.9375,28.78125
608,608,1729186933079,-0.1484375,0.2529297,-0.7988281,-16.1875,35.25,17.3125
609,609,1729186933119,0.0859375,0.59277344,-0.8095703,-32.90625,41.5625,13.96875
610,610,1729186933159,0.017578125,0.71777344,-0.8154297,6.46875,28.78125,20.0625
611,611,1729186933199,0.047851562,0.71875,-0.9433594,0.84375,29.9375,17.875
612,612,1729186933239,0.04296875,0.6328125,-0.8964844,11.03125,17.75,16.84375
613,613,1729186933279,0.17285156,0.50683594,-1.0615234,25.5,19.625,10.59375
614,614,1729186933319,0.119140625,0.546875,-1.0458984,-3.6875,16.71875,11.03125
615,615,1729186933359,-0.05859375,0.6689453,-0.9902344,5.90625,7.375,3.53125
616,616,1729186933399,0.18359375,0.6230469,-1.1455078,37.65625,-6.375,2.5625
617,617,1729186933439,0.17675781,0.6279297,-1.2109375,-4.84375,-5.5625,-5.75
618,618,1729186933479,0.14453125,0.7421875,-0.9189453,-13.625,-5.75,-14.125
619,619,1729186933519,0.14648438,0.65625,-0.8798828,-6.53125,-21.25,-2.28125
620,620,1729186933559,0.0048828125,0.44433594,-0.90625,-6.1875,-21.75,-14.3125
621,621,1729186933599,0.18066406,0.45996094,-0.83984375,-25.46875,-16.25,-25.15625
622,622,1729186933639,0.07324219,0.48339844,-0.7402344,-3.3125,-32.125,-13.25
623,623,1729186933679,0.025390625,0.42382812,-0.8671875,14.4375,-23.625,-13.3125
624,624,1729186933719,-0.08105469,0.45703125,-0.79296875,4.25,-26.0625,-14.84375
625,625,1729186933759,-0.18945312,0.6591797,-0.9511719,6.03125,-34.1875,-25.40625
626,626,1729186933799,0.23242188,0.6748047,-1.015625,-17.03125,-17.71875,-28.875
627,627,1729186933839,-0.0078125,0.59277344,-0.5888672,-15.53125,-23.6875,-12.84375
628,628,1729186933879,-0.20800781,0.4248047,-0.6982422,37.09375,-17.46875,-5.625
629,629,1729186933919,-0.025390625,0.375,-0.8251953,-4.78125,-21.5625,-10.875
630,630,1729186933959,-0.020507812,0.42578125,-0.6328125,-6.65625,-15.15625,-14.90625
631,631,1729186933999,-0.13183594,0.30566406,-0.69628906,32.75,-7.65625,-5.8125
632,632,1729186934039,-0.2578125,0.3876953,-0.7421875,2.96875,2.84375,-3.4375
633,633,1729186934079,-0.140625,0.5488281,-0.61328125,-19.96875,2.96875,0.09375
634,634,1729186934119,-0.17578125,0.36621094,-0.70996094,33.8125,-9.96875,7.125
635,635,1729186934159,-0.22363281,0.45410156,-0.96191406,10.375,6.34375,-3.5
636,636,1729186934199,-0.072265625,0.6425781,-0.77441406,-45.65625,16.28125,-4.65625
637,637,1729186934239,-0.080078125,0.55859375,-0.5439453,-3.625,10.0,13.96875
638,638,1729186934279,-0.051757812,0.390625,-0.65722656,12.0625,21.46875,18.0625
639,639,1729186934319,-0.0546875,0.3095703,-0.6689453,7.5,19.34375,15.84375
640,640,1729186934359,0.028320312,0.36523438,-0.77734375,2.375,24.03125,18.53125
641,641,1729186934399,-0.021484375,0.40722656,-0.7246094,-7.71875,38.1875,17.4375
642,642,1729186934439,-0.0107421875,0.5185547,-0.7216797,0.09375,31.125,22.125
643,643,1729186934479,0.03515625,0.5683594,-0.9609375,15.84375,28.0625,26.78125
644,644,1729186934519,-0.028320312,0.6777344,-0.9658203,-10.34375,34.21875,15.71875
645,645,1729186934559,0.064453125,0.66796875,-0.859375,-0.6875,22.5,11.15625
646,646,1729186934599,0.23144531,0.5419922,-1.015625,29.90625,10.375,18.0
647,647,1729186934639,0.13574219,0.5410156,-1.0087891,-6.125,20.5,9.9375
648,648,1729186934679,0.11621094,0.47558594,-0.84277344,29.71875,14.375,13.15625
649,649,1729186934719,0.08300781,0.48046875,-1.1699219,45.875,-2.46875,9.9375
650,650,1729186934759,0.171875,0.7480469,-1.1123047,-13.1875,9.875,-6.59375
651,651,1729186934799,0.10253906,0.8466797,-0.9638672,6.625,-10.09375,-0.875
652,652,1729186934839,0.16210938,0.6513672,-1.0673828,2.0,-12.78125,-4.90625
653,653,1729186934879,0.12988281,0.5839844,-0.91015625,-10.5625,-7.03125,-13.75
654,654,1729186934919,0.07128906,0.4765625,-0.96777344,-2.46875,-21.375,-10.9375
655,655,1729186934959,0.07519531,0.50390625,-0.8779297,-24.84375,-13.5625,-22.28125
656,656,1729186934999,0.043945312,0.5,-0.86328125,0.78125,-24.5,-13.25
657,657,1729186935039,-0.020507812,0.5107422,-0.875,-2.53125,-26.4375,-19.0625
658,658,1729186935079,0.01953125,0.41992188,-0.82421875,15.65625,-31.5625,-12.90625
659,659,1729186935119,-0.041992188,0.45214844,-0.90625,7.3125,-28.46875,-19.65625
660,660,1729186935159,0.049804688,0.5390625,-0.8466797,-12.46875,-21.875,-22.40625
661,661,1729186935199,-0.05859375,0.63964844,-0.70410156,-15.46875,-27.71875,-16.875
662,662,1729186935239,-0.08300781,0.52441406,-0.6386719,3.65625,-17.34375,-18.9375
663,663,1729186935279,0.048828125,0.35253906,-0.68847656,15.78125,-21.875,-5.25
664,664,1729186935319,-0.05859375,0.2734375,-0.7480469,3.40625,-10.875,-4.78125
665,665,1729186935359,-0.19140625,0.44433594,-0.62402344,-20.875,7.4375,-11.25
666,666,1729186935399,-0.28515625,0.4921875,-0.66015625,10.0,-3.8125,0.0
667,667,1729186935439,-0.1796875,0.40039062,-0.7529297,4.0,2.0625,-1.46875
668,668,1729186935479,-0.07910156,0.43652344,-0.7167969,-2.53125,4.0625,-1.71875
669,669,1729186935519,-0.047851562,0.49902344,-0.76464844,-1.25,7.4375,5.59375
670,670,1729186935559,-0.052734375,0.5263672,-0.6533203,-4.96875,18.71875,5.59375
671,671,1729186935599,-0.03515625,0.47460938,-0.6738281,5.90625,18.84375,14.9375
672,672,1729186935639,-0.06347656,0.43945312,-0.73339844,-10.9375,24.34375,16.9375
673,673,1729186935679,0.001953125,0.4248047,-0.67578125,2.71875,28.25,21.71875
674,674,1729186935719,-0.0703125,0.33691406,-0.7392578,17.3125,25.8125,26.0
675,675,1729186935759,0.034179688,0.43652344,-0.92285156,11.03125,32.625,14.9375
676,676,1729186935799,0.1171875,0.71777344,-0.94921875,-19.84375,38.125,17.0
677,677,1729186935839,-0.01171875,0.66503906,-0.76660156,8.03125,28.65625,17.625
678,678,1729186935879,0.01171875,0.640625,-1.0283203,17.0625,17.0625,17.75
679,679,1729186935919,0.099609375,0.6904297,-1.1162109,-11.1875,14.15625,15.84375
680,680,1729186935959,0.17480469,0.56933594,-0.9609375,-13.6875,12.5625,13.71875
681,681,1729186935999,-0.0068359375,0.50683594,-0.9453125,21.03125,13.53125,4.1875
682,682,1729186936039,0.23242188,0.49414062,-1.2080078,37.59375,-4.15625,8.21875
683,683,1729186936079,0.16308594,0.69628906,-1.1425781,-11.84375,-6.59375,-6.59375
684,684,1729186936119,0.1015625,0.86816406,-0.81640625,-21.3125,1.5,-17.34375
685,685,1729186936159,0.16699219,0.7392578,-0.92871094,17.625,-17.59375,-5.375
686,686,1729186936199,0.0126953125,0.6308594,-0.9736328,-15.8125,-20.78125,-11.78125
687,687,1729186936239,0.045898438,0.484375,-0.7207031,1.28125,-28.65625,-11.375
688,688,1729186936279,0.15527344,0.2548828,-0.9482422,34.15625,-26.25,-4.03125
689,689,1729186936319,-0.0009765625,0.3642578,-0.9482422,-14.3125,-23.5,-23.6875
690,690,1729186936359,0.08984375,0.65527344,-0.84277344,-30.84375,-13.25,-19.3125
691,691,1729186936399,-0.13574219,0.54785156,-0.71484375,-2.875,-31.6875,-18.15625
692,692,1729186936439,0.11621094,0.5410156,-0.78027344,0.0,-17.90625,-25.90625
693,693,1729186936479,-0.0126953125,0.4111328,-0.8076172,19.15625,-23.34375,-12.96875
694,694,1729186936519,-0.15625,0.4453125,-0.84375,-12.65625,-12.65625,-26.6875
695,695,1729186936559,-0.09472656,0.5732422,-0.63671875,-7.875,-3.4375,-25.65625
696,696,1729186936599,-0.16113281,0.4716797,-0.69921875,25.0,-21.1875,-13.125
697,697,1729186936639,-0.06640625,0.48632812,-0.7392578,-16.0625,-3.3125,-17.65625
698,698,1729186936679,-0.09472656,0.5800781,-0.5576172,-29.4375,10.3125,-10.6875
699,699,1729186936719,-0.23242188,0.43554688,-0.484375,9.09375,-4.09375,4.875
700,700,1729186936759,-0.11328125,0.25097656,-0.6796875,31.71875,1.5,10.71875
701,701,1729186936799,-0.15625,0.38476562,-0.7949219,-18.21875,12.4375,5.78125
702,702,1729186936839,-0.036132812,0.61621094,-0.5175781,-36.9375,27.03125,5.65625
703,703,1729186936879,0.0009765625,0.55859375,-0.62597656,34.46875,2.65625,33.25
704,704,1729186936919,-0.036132812,0.39160156,-0.78027344,18.84375,20.4375,25.8125
705,705,1729186936959,0.0048828125,0.55371094,-0.72265625,-24.5625,34.65625,16.40625
706,706,1729186936999,-0.030273438,0.56640625,-0.8066406,19.21875,23.4375,28.3125
707,707,1729186937039,-0.001953125,0.54296875,-0.91308594,14.8125,23.0625,21.59375
708,708,1729186937079,0.07519531,0.6513672,-0.8623047,8.71875,28.0,11.03125
709,709,1729186937119,0.08203125,0.6230469,-0.921875,16.34375,22.75,11.40625
710,710,1729186937159,0.078125,0.54785156,-0.9707031,20.96875,15.84375,17.75
711,711,1729186937199,-0.009765625,0.4873047,-1.0654297,29.59375,12.0625,11.53125
712,712,1729186937239,0.21972656,0.6621094,-0.8847656,-37.75,29.09375,-3.6875
713,713,1729186937279,0.05078125,0.70703125,-0.9902344,40.21875,0.96875,11.40625
714,714,1729186937319,-0.040039062,0.43945312,-0.76464844,-1.84375,-3.1875,-10.40625
715,715,1729186937359,-0.15234375,0.53515625,-0.6035156,-7.71875,-2.6875,-3.6875
716,716,1729186937399,-0.09375,0.39746094,-0.54785156,10.78125,-1.25,4.375
717,717,1729186937439,-0.123046875,0.2705078,-0.671875,14.375,6.03125,7.90625
718,718,1729186937479,-0.19433594,0.40722656,-0.71191406,1.375,19.8125,0.78125
719,719,1729186937519,0.005859375,0.5283203,-0.6689453,-14.59375,23.125,9.125
720,720,1729186937559,0.029296875,0.4873047,-0.6826172,17.1875,17.75,20.75
721,721,1729186937599,0.025390625,0.4296875,-0.8046875,6.5625,33.84375,17.5625
722,722,1729186937639,-0.125,0.53027344,-0.7871094,-14.0,37.40625,18.21875
723,723,1729186937679,-0.03515625,0.5917969,-0.84765625,3.40625,25.1875,21.84375
724,724,1729186937719,0.08691406,0.62597656,-0.9248047,-15.15625,29.09375,13.84375
725,725,1729186937759,0.08984375,0.6171875,-0.9042969,8.28125,24.875,15.96875
726,726,1729186937799,0.040039062,0.5048828,-0.9189453,7.125,24.34375,14.5
727,727,1729186937839,0.14257812,0.52734375,-0.9736328,8.59375,17.0625,14.375
728,728,1729186937879,0.09863281,0.6298828,-0.97558594,6.46875,16.53125,11.71875
729,729,1729186937919,0.07519531,0.5888672,-0.9472656,11.71875,6.5625,6.15625
730,730,1729186937959,0.15234375,0.59375,-1.0771484,21.40625,-1.0,4.875
731,731,1729186937999,0.07714844,0.74121094,-1.1494141,-17.15625,-8.3125,-2.875
732,732,1729186938039,0.1796875,0.7529297,-0.83496094,-15.8125,0.84375,-9.28125
733,733,1729186938079,0.06347656,0.53808594,-1.0244141,34.46875,-23.15625,1.3125
734,734,1729186938119,0.0625,0.5625,-1.0166016,-15.875,-18.8125,-17.53125
735,735,1729186938159,0.028320312,0.8203125,-0.76171875,-38.71875,-17.46875,-22.40625
736,736,1729186938199,0.08105469,0.5605469,-0.85253906,23.65625,-42.0625,-9.46875
737,737,1729186938239,0.17675781,0.32421875,-0.95996094,-0.625,-19.3125,-13.5625
738,738,1729186938279,-0.1328125,0.5292969,-0.70996094,-29.5625,-14.1875,-23.21875
739,739,1729186938319,0.040039062,0.44628906,-0.73339844,26.53125,-29.3125,-10.34375
740,740,1729186938359,-0.060546875,0.41308594,-0.8417969,-10.03125,-25.96875,-19.90625
741,741,1729186938399,0.0126953125,0.67285156,-0.67089844,-22.46875,-8.4375,-29.1875
742,742,1729186938439,-0.07128906,0.54296875,-0.734375,16.09375,-26.9375,-5.5
743,743,1729186938479,-0.0087890625,0.46679688,-0.7626953,-5.75,-13.8125,-16.0625
744,744,1729186938519,-0.0546875,0.5185547,-0.5888672,1.3125,-8.125,-11.25
745,745,1729186938559,-0.203125,0.41796875,-0.74609375,21.65625,-15.6875,-4.96875
746,746,1729186938599,-0.1875,0.38476562,-0.72558594,12.4375,-3.0625,-13.0625
747,747,1729186938639,-0.08300781,0.4814453,-0.65625,13.53125,-2.03125,-1.34375
748,748,1729186938679,-0.25,0.4267578,-0.7050781,24.46875,4.75,2.0
749,749,1729186938719,-0.23242188,0.5058594,-0.60253906,0.15625,16.15625,-0.5
750,750,1729186938759,-0.12890625,0.4951172,-0.59472656,7.5625,4.8125,4.4375
751,751,1729186938799,0.099609375,0.3984375,-0.8730469,4.0,12.25,14.75
752,752,1729186938839,-0.07714844,0.38671875,-0.6328125,2.65625,29.28125,18.84375
753,753,1729186938879,-0.09277344,0.296875,-0.7089844,40.03125,31.90625,20.1875
754,754,1729186938919,0.07519531,0.31835938,-0.8769531,10.375,30.0625,29.21875
755,755,1729186938959,-0.12695312,0.58691406,-0.83496094,-12.15625,30.1875,14.28125
756,756,1729186938999,0.04296875,0.75390625,-0.81347656,-13.25,35.3125,9.5625
757,757,1729186939039,0.047851562,0.76171875,-1.1289062,3.21875,22.5,15.5625
758,758,1729186939079,0.080078125,0.859375,-0.9472656,-36.875,25.5,12.875
759,759,1729186939119,0.09765625,0.71484375,-0.9326172,-20.28125,20.90625,16.90625
