,timestamp,accel_x,accel_y,accel_z,gyro_x,gyro_y,gyro_z
0,1727373258337,-1.5615234,-0.18554688,-0.047851562,23.53125,6.8125,-15.8125
1,1727373258377,-0.52246094,0.33984375,0.18164062,32.5,34.75,-36.75
2,1727373258417,0.16894531,-0.21289062,-0.30078125,-75.375,52.78125,35.09375
3,1727373258457,0.09082031,-0.10839844,-0.044921875,38.15625,28.0625,21.0
4,1727373258497,-0.0048828125,-0.18164062,0.5996094,-19.375,-12.78125,-8.78125
5,1727373258537,-0.44335938,0.4423828,-0.4638672,-76.53125,-43.59375,-27.21875
6,1727373258577,-1.9335938,-0.171875,-0.38867188,-111.0,-7.96875,37.90625
7,1727373258617,-1.2480469,-0.27539062,-1.3740234,1.78125,-22.96875,46.28125
8,1727373258657,-1.4199219,-1.1269531,-0.5136719,172.375,150.78125,42.71875
9,1727373258697,-1.8896484,-0.26757812,0.2626953,-20.96875,137.25,-26.5625
10,1727373258737,-1.2675781,-0.22167969,0.4482422,54.59375,118.5,-16.0
11,1727373258777,-0.19921875,0.21777344,0.5644531,-47.34375,20.78125,-17.625
12,1727373258817,-0.16210938,-0.12109375,0.14941406,-108.3125,-47.09375,-7.09375
13,1727373258857,-0.08203125,-0.038085938,0.14355469,19.0,-83.34375,-18.5
14,1727373258897,-0.6201172,0.11035156,-0.30566406,62.40625,-101.84375,8.90625
15,1727373258937,-2.0,-0.5498047,-0.28320312,68.0,-167.875,-9.9375
16,1727373258977,-2.0,-1.1542969,-0.23046875,45.4375,-66.0625,-20.03125
17,1727373259017,-1.7226562,-0.21777344,-0.28125,19.6875,-52.9375,-28.5
18,1727373259057,-1.1279297,-0.025390625,0.033203125,91.875,12.59375,-36.4375
19,1727373259097,-0.09765625,0.20703125,-0.11621094,-32.75,37.4375,-23.6875
20,1727373259137,0.24609375,0.0029296875,-0.23144531,-33.1875,84.4375,35.71875
21,1727373259177,-0.2763672,-0.4794922,1.0019531,12.59375,12.3125,-3.90625
22,1727373259217,-0.1640625,0.091796875,-0.55078125,-185.28125,-102.0,-80.5
23,1727373259257,-0.6435547,0.52441406,-0.7636719,-11.46875,-23.84375,23.8125
24,1727373259297,-2.0,-1.6757812,2.0,-98.6875,35.4375,117.0625
25,1727373259337,-1.0683594,-0.20898438,-1.109375,-21.40625,65.84375,73.3125
26,1727373259377,-1.8261719,-1.578125,0.44628906,190.3125,229.15625,31.6875
27,1727373259417,-1.7958984,-0.3984375,0.29296875,-13.84375,100.8125,-35.53125
28,1727373259457,-0.5878906,0.032226562,0.66796875,9.34375,55.34375,-11.59375
29,1727373259497,-0.0390625,0.036132812,0.45117188,-79.5625,-52.40625,-15.5
30,1727373259537,-0.043945312,-0.020507812,-0.06738281,47.03125,-55.625,-14.53125
31,1727373259577,-0.49316406,0.48632812,0.23339844,59.71875,-104.8125,10.5625
32,1727373259617,-1.3154297,-0.24023438,-0.3486328,-18.59375,-139.90625,0.3125
33,1727373259657,-2.0,-1.6669922,0.16796875,178.4375,-75.9375,-30.40625
34,1727373259697,-1.8232422,0.29882812,-0.21582031,22.84375,-120.25,-15.1875
35,1727373259737,-1.0800781,-0.19238281,-0.15136719,-43.9375,-27.4375,-10.375
36,1727373259777,-0.27441406,-0.2763672,0.07324219,-63.59375,29.40625,-17.34375
37,1727373259817,0.15429688,0.13769531,-0.3466797,35.78125,59.65625,11.0
38,1727373259857,0.07714844,-0.41992188,0.25,-35.8125,23.15625,9.40625
39,1727373259897,-0.37597656,-0.39941406,0.18652344,-89.28125,-82.84375,-63.0625
40,1727373259937,-0.68847656,0.6376953,-0.66503906,2.21875,9.9375,15.8125
41,1727373259977,-2.0,-0.10546875,0.59375,84.90625,-29.5,127.375
42,1727373260017,-1.1230469,-0.53515625,-0.8701172,-22.6875,20.0625,40.46875
43,1727373260057,-2.0,-2.0,0.49316406,-156.90625,268.65625,38.875
44,1727373260097,-1.5,-0.043945312,0.6044922,39.4375,150.3125,-7.75
45,1727373260137,-0.78222656,0.10253906,0.61621094,9.90625,84.25,-6.21875
46,1727373260177,-0.020507812,-0.025390625,0.3671875,-88.46875,-36.21875,-8.46875
47,1727373260217,0.07519531,-0.21386719,0.12695312,-82.0,-81.09375,-30.5625
48,1727373260257,-0.32226562,0.2578125,0.029296875,47.375,-99.9375,-17.625
49,1727373260297,-1.0761719,-0.08203125,-0.3095703,77.40625,-136.25,-10.625
50,1727373260337,-2.0,-1.3232422,-0.24804688,98.40625,-98.09375,-25.5
51,1727373260377,-2.0,-0.48242188,0.017578125,90.84375,-52.875,-43.15625
52,1727373260417,-1.4716797,-0.2998047,-0.12988281,45.5,10.21875,-13.375
53,1727373260457,-0.8076172,0.37304688,0.076171875,41.71875,39.84375,-18.0
54,1727373260497,0.23632812,0.2998047,-0.11816406,-106.125,37.8125,-11.59375
55,1727373260537,0.048828125,-0.3076172,0.07324219,-32.34375,30.125,31.5625
56,1727373260577,-0.15039062,-0.5878906,0.51171875,-2.59375,-46.46875,-17.5625
57,1727373260617,-0.21972656,0.23535156,-0.9042969,-71.28125,-53.5,-38.03125
58,1727373260657,-1.1142578,0.22265625,-0.80566406,-61.3125,-5.75,12.15625
59,1727373260697,-2.0,-0.5419922,1.5107422,213.65625,146.53125,115.0625
60,1727373260737,-1.4511719,-0.90625,-0.6923828,-75.78125,73.875,37.28125
61,1727373260777,-1.6269531,-1.1787109,0.38183594,-3.34375,164.53125,12.40625
62,1727373260817,-1.3408203,-0.23144531,0.5595703,92.71875,122.65625,-16.1875
63,1727373260857,-0.35058594,0.06933594,0.4111328,-40.625,6.5,-14.71875
64,1727373260897,-0.016601562,-0.047851562,-0.061523438,-78.84375,-21.09375,-10.6875
65,1727373260937,-0.20507812,0.0009765625,0.37890625,-17.1875,-111.15625,-23.9375
66,1727373260977,-0.6152344,0.1484375,-0.41015625,99.6875,-100.5625,6.34375
67,1727373261017,-2.0,-0.4892578,-0.08203125,91.75,-174.21875,5.375
68,1727373261057,-2.0,-1.1210938,0.26953125,150.78125,-35.375,-29.84375
69,1727373261097,-1.578125,-0.2548828,-0.19433594,3.6875,-56.3125,-35.15625
70,1727373261137,-1.2089844,-0.119140625,-0.13769531,57.40625,2.84375,-26.96875
71,1727373261177,-0.13574219,0.35351562,0.15136719,-43.1875,18.96875,-22.15625
72,1727373261217,0.24023438,0.095703125,-0.37109375,-83.84375,75.65625,38.875
73,1727373261257,-0.016601562,-0.33984375,0.1328125,-13.15625,20.25,25.8125
74,1727373261297,-0.3623047,-0.35058594,0.63378906,-67.65625,-93.71875,-24.34375
75,1727373261337,-1.015625,0.20605469,-1.0195312,-93.25,-10.34375,35.46875
76,1727373261377,-2.0,-0.5878906,0.35351562,36.75,148.78125,130.0
77,1727373261417,-1.1855469,-0.56640625,-0.91308594,53.65625,106.96875,57.0625
78,1727373261457,-1.8427734,-1.5087891,0.8017578,-141.9375,281.09375,24.15625
79,1727373261497,-1.4121094,-0.15039062,0.7109375,16.875,169.53125,-23.75
80,1727373261537,-0.69628906,0.23046875,0.6933594,22.28125,48.875,-3.125
81,1727373261577,0.0068359375,-0.19042969,0.1640625,-148.65625,-66.125,-11.34375
82,1727373261617,0.14941406,-0.23144531,0.16992188,-20.84375,-81.5,-39.71875
83,1727373261657,-0.5859375,0.111328125,-0.3642578,114.65625,-105.96875,-9.34375
84,1727373261697,-2.0,-0.28027344,-0.1796875,122.15625,-158.84375,-0.84375
85,1727373261737,-2.0,-1.0800781,0.041992188,145.78125,-57.21875,-14.21875
86,1727373261777,-1.6513672,-0.4482422,-0.16992188,-0.65625,-61.90625,-20.5
87,1727373261817,-1.2138672,-0.1484375,-0.203125,105.625,4.3125,-24.71875
88,1727373261857,-0.24804688,0.45410156,0.034179688,-20.96875,18.78125,-41.0
89,1727373261897,0.26660156,0.13085938,-0.22558594,-79.28125,64.625,32.53125
90,1727373261937,0.041015625,-0.2890625,0.3671875,-40.3125,-8.5625,5.4375
91,1727373261977,-0.16894531,-0.38867188,-0.3671875,-105.5,-50.5625,-39.375
92,1727373262017,-1.2802734,0.29003906,-0.57910156,-98.3125,-31.9375,42.25
93,1727373262057,-1.625,-0.2578125,-0.90234375,-42.78125,-12.96875,72.21875
94,1727373262097,-1.5576172,-0.99609375,-0.55078125,18.9375,75.40625,54.03125
95,1727373262137,-1.5878906,-1.2285156,0.06738281,-68.34375,187.59375,-3.0
96,1727373262177,-1.4628906,-0.125,0.5839844,23.21875,145.90625,-25.8125
97,1727373262217,-0.6748047,0.19140625,0.6308594,31.34375,63.6875,-15.0
98,1727373262257,0.0009765625,0.017578125,0.24707031,-111.25,-67.40625,-6.28125
99,1727373262297,-0.047851562,-0.19628906,0.20996094,-50.75,-100.5,-33.625
100,1727373262337,-0.62402344,0.18066406,-0.34375,67.28125,-114.46875,-4.28125
101,1727373262377,-2.0,-0.5029297,-0.10839844,137.46875,-146.625,-7.03125
102,1727373262417,-2.0,-1.2597656,0.044921875,101.71875,-59.71875,-16.125
103,1727373262457,-1.5605469,-0.4873047,-0.15722656,11.4375,-39.03125,-25.5
104,1727373262497,-1.3193359,0.064453125,-0.23144531,129.65625,-4.0625,-18.5
105,1727373262537,-0.22265625,0.5390625,0.051757812,-6.15625,18.78125,-31.25
106,1727373262577,0.30371094,0.026367188,-0.20605469,-109.46875,63.6875,50.65625
107,1727373262617,-0.08496094,-0.40234375,0.4970703,-28.84375,8.6875,26.84375
108,1727373262657,-0.2998047,-0.35351562,-0.060546875,-52.34375,-104.9375,-42.78125
109,1727373262697,-1.6757812,0.30664062,-0.16992188,-140.3125,-50.1875,37.1875
110,1727373262737,-1.7060547,-0.32421875,-0.73339844,0.1875,-19.625,65.0
111,1727373262777,-1.4775391,-1.0917969,-0.64160156,102.6875,153.125,58.34375
112,1727373262817,-1.5039062,-0.8691406,-0.1015625,-81.71875,157.09375,-22.53125
113,1727373262857,-1.4472656,0.0048828125,0.5722656,140.59375,143.34375,-7.375
114,1727373262897,-0.5859375,0.033203125,0.5878906,-60.09375,16.03125,-14.28125
115,1727373262937,-0.038085938,-0.20410156,0.15332031,-139.03125,-65.625,-22.65625
116,1727373262977,0.041015625,-0.19824219,0.16308594,-18.0625,-92.1875,-45.34375
117,1727373263017,-0.5722656,0.20800781,-0.15527344,124.34375,-83.46875,-20.875
118,1727373263057,-2.0,-0.30566406,-0.14453125,79.0,-137.84375,-28.5625
119,1727373263097,-2.0,-1.4609375,0.107421875,45.84375,-41.21875,-28.1875
120,1727373263137,-1.8847656,-0.6689453,0.12402344,79.90625,-25.0625,-23.25
121,1727373263177,-1.5458984,0.15917969,-0.1875,122.875,17.625,-22.21875
122,1727373263217,-0.59375,0.3642578,0.0390625,60.75,36.53125,-13.3125
123,1727373263257,0.20996094,-0.0146484375,-0.029296875,-93.59375,32.25,39.5625
124,1727373263297,-0.036132812,-0.42089844,0.14550781,-9.75,12.90625,25.875
125,1727373263337,-0.13867188,-0.17089844,-0.06347656,0.03125,-31.75,-17.46875
126,1727373263377,-0.38867188,0.59472656,-0.001953125,-79.15625,-19.625,12.875
127,1727373263417,-2.0,-0.5966797,0.19335938,-150.1875,4.625,95.875
128,1727373263457,-1.0019531,-0.5058594,-1.0585938,15.15625,23.71875,38.09375
129,1727373263497,-1.8027344,-1.8857422,0.15917969,-59.6875,198.71875,-5.125
130,1727373263537,-1.6298828,-0.3203125,0.33984375,31.09375,156.53125,-29.0
131,1727373263577,-1.1494141,0.171875,0.74121094,135.21875,152.4375,-22.53125
132,1727373263617,-0.37890625,0.24804688,0.609375,-108.625,-3.3125,-28.3125
133,1727373263657,-0.026367188,-0.09667969,-0.06738281,-90.0,-49.40625,-20.3125
134,1727373263697,-0.296875,0.15136719,0.39160156,20.46875,-104.53125,-17.15625
135,1727373263737,-0.8300781,-0.11035156,-0.4921875,91.375,-107.625,8.90625
136,1727373263777,-2.0,-0.64160156,-0.123046875,73.0625,-156.46875,-3.84375
137,1727373263817,-2.0,-0.81640625,-0.03515625,113.90625,-48.5,-14.90625
138,1727373263857,-1.7597656,-0.46679688,-0.15332031,-0.15625,-42.375,-31.84375
139,1727373263897,-1.1103516,-0.051757812,-0.09082031,105.71875,-10.59375,-43.21875
140,1727373263937,-0.06542969,0.23339844,0.13085938,-24.40625,40.375,-24.15625
141,1727373263977,0.20605469,-0.021484375,-0.25683594,-100.5625,108.1875,44.75
142,1727373264017,-0.056640625,-0.20019531,0.3955078,-29.53125,11.15625,9.84375
143,1727373264057,-0.37402344,-0.24023438,0.05859375,-36.34375,-106.90625,-36.6875
144,1727373264097,-0.5410156,0.21972656,-0.78808594,-126.03125,5.59375,33.28125
145,1727373264137,-2.0,-0.9667969,1.8740234,84.25,208.40625,163.46875
146,1727373264177,-1.0673828,-0.3232422,-0.92871094,-115.34375,94.21875,52.8125
147,1727373264217,-1.8662109,-1.6601562,0.53515625,94.9375,214.15625,26.1875
148,1727373264257,-1.6298828,-0.5175781,0.28515625,-14.8125,127.59375,-13.3125
149,1727373264297,-0.7832031,-0.083984375,0.7138672,-10.40625,28.28125,-21.1875
150,1727373264337,-0.040039062,0.015625,0.42382812,-94.84375,-76.5,-33.75
151,1727373264377,0.041015625,-0.041992188,-0.01953125,20.21875,-109.78125,-28.25
152,1727373264417,-0.55371094,0.14453125,0.064453125,86.625,-116.0,-13.0625
153,1727373264457,-1.6308594,-0.3544922,-0.3388672,84.5625,-158.03125,-13.3125
154,1727373264497,-2.0,-1.3769531,0.16992188,94.375,-80.90625,-38.28125
155,1727373264537,-2.0,-0.57128906,0.14160156,88.21875,-42.875,-38.9375
156,1727373264577,-1.3798828,-0.11425781,-0.08984375,98.71875,29.03125,-19.59375
157,1727373264617,-0.59765625,0.61816406,-0.0087890625,30.46875,42.6875,-21.65625
158,1727373264657,0.29589844,0.2265625,-0.18359375,-165.21875,56.75,9.09375
159,1727373264697,-0.03515625,-0.38183594,-0.16210938,-34.59375,44.03125,35.9375
160,1727373264737,-0.15039062,-0.34277344,0.22070312,-7.25,10.59375,3.3125
161,1727373264777,-0.08203125,0.16992188,-0.90527344,-143.65625,-43.46875,-41.25
162,1727373264817,-2.0,-0.12402344,-0.7597656,-109.0,-68.6875,41.1875
163,1727373264857,-1.1152344,-0.043945312,-0.8769531,94.875,-59.84375,34.78125
164,1727373264897,-1.5478516,-1.2001953,-0.72753906,29.875,158.96875,25.03125
165,1727373264937,-1.7255859,-0.47558594,0.28710938,-69.8125,102.9375,-27.78125
166,1727373264977,-1.0429688,-0.07714844,0.77441406,52.25,85.4375,-10.25
167,1727373265017,-0.15429688,0.0625,0.37890625,-93.5625,-51.0625,-14.59375
168,1727373265057,0.047851562,-0.16210938,0.107421875,-64.8125,-67.03125,-31.8125
169,1727373265097,-0.4375,0.17773438,0.015625,68.375,-105.0,-14.90625
170,1727373265137,-1.0839844,-0.16210938,-0.33496094,101.03125,-122.34375,-1.09375
171,1727373265177,-2.0,-1.2099609,-0.026367188,92.5,-98.84375,-14.71875
172,1727373265217,-1.8789062,-0.57421875,-0.12597656,61.125,-61.125,-26.71875
173,1727373265257,-1.4208984,-0.15332031,-0.17871094,92.375,-10.84375,-18.84375
174,1727373265297,-0.7675781,0.4560547,-0.009765625,46.96875,15.21875,-12.875
175,1727373265337,0.15625,0.26464844,-0.08691406,-120.28125,47.9375,1.34375
176,1727373265377,0.029296875,-0.47753906,0.103515625,-70.21875,30.0,40.40625
177,1727373265417,-0.24023438,-0.66796875,0.46777344,-33.71875,-31.75,-27.71875
178,1727373265457,-0.18066406,0.32617188,-0.79785156,-89.9375,-44.9375,-10.0625
179,1727373265497,-2.0,-0.38378906,0.6123047,-5.46875,-7.03125,79.21875
180,1727373265537,-1.2216797,-0.5,-0.7871094,-2.65625,-1.6875,25.09375
181,1727373265577,-1.8066406,-1.8183594,0.73339844,62.40625,359.03125,60.125
182,1727373265617,-1.4199219,-0.38476562,0.2548828,28.40625,180.8125,-25.625
183,1727373265657,-0.9980469,0.013671875,0.7158203,60.75,105.875,-18.5
184,1727373265697,-0.20507812,-0.018554688,0.421875,-55.78125,-49.59375,-8.65625
185,1727373265737,0.08105469,-0.10449219,0.14355469,-17.3125,-97.375,-47.0
186,1727373265777,-0.6748047,0.25097656,-0.095703125,115.75,-97.5625,-22.09375
187,1727373265817,-1.6035156,-0.10644531,0.06738281,131.1875,-136.625,-1.875
188,1727373265857,-2.0,-1.4453125,-0.2919922,46.46875,-123.875,-1.84375
189,1727373265897,-1.8056641,-0.5332031,0.14941406,130.875,-58.0625,-4.5
190,1727373265937,-1.421875,-0.08886719,-0.20703125,112.375,-25.84375,-9.59375
191,1727373265977,-0.85839844,0.36621094,0.026367188,39.3125,9.125,-25.03125
192,1727373266017,0.3232422,0.19628906,-0.020507812,-130.84375,70.59375,-21.71875
193,1727373266057,0.095703125,-0.08496094,-0.4560547,-142.0,58.09375,33.625
194,1727373266097,-0.51660156,-0.4658203,1.3583984,-46.0625,-21.6875,-24.65625
195,1727373266137,-0.00390625,0.17773438,-0.9248047,-123.09375,-38.84375,-1.46875
196,1727373266177,-2.0,-0.4873047,-0.2734375,-119.5,-100.84375,35.875
197,1727373266217,-1.0800781,-0.20800781,-1.0976562,48.125,14.25,34.59375
198,1727373266257,-1.7304688,-0.9814453,-0.38964844,15.46875,181.96875,11.53125
199,1727373266297,-1.5664062,-0.50097656,-0.013671875,-54.78125,160.0,-8.59375
200,1727373266337,-1.1875,-0.10546875,0.9716797,4.53125,102.6875,-23.125
201,1727373266377,-0.38964844,-0.05078125,0.65527344,-102.59375,-36.03125,-3.34375
202,1727373266417,-0.03125,-0.328125,0.13574219,-90.3125,-107.6875,-32.21875
203,1727373266457,-0.2841797,-0.02734375,0.119140625,43.59375,-120.375,-38.375
204,1727373266497,-0.79296875,-0.15820312,-0.26953125,141.5,-98.59375,-5.75
205,1727373266537,-2.0,-0.9394531,-0.013671875,7.28125,-146.8125,-42.53125
206,1727373266577,-2.0,-0.9248047,0.18359375,41.34375,-56.0,-77.8125
207,1727373266617,-1.6884766,-0.51464844,0.0048828125,169.34375,-13.15625,-44.25
208,1727373266657,-1.0351562,0.49414062,-0.11230469,195.09375,23.40625,-7.3125
209,1727373266697,0.009765625,0.54003906,0.06640625,-76.75,44.84375,18.375
210,1727373266737,-0.08300781,-0.06933594,-0.16992188,-134.75,90.0625,70.0
211,1727373266777,-0.14941406,-0.5371094,0.35742188,-51.8125,16.46875,27.09375
212,1727373266817,-0.09667969,-0.15429688,-0.7373047,-131.5625,-44.09375,-35.9375
213,1727373266857,-2.0,-0.17773438,0.3310547,-35.3125,-47.6875,20.5
214,1727373266897,-1.0068359,-0.18164062,-0.8876953,-95.125,-4.59375,32.46875
215,1727373266937,-1.6806641,-1.0185547,-0.3310547,106.15625,144.25,50.84375
216,1727373266977,-1.4619141,-0.70214844,0.05078125,-100.75,150.90625,-8.78125
217,1727373267017,-1.3847656,-0.29101562,0.6386719,39.9375,135.53125,-3.46875
218,1727373267057,-0.640625,0.047851562,0.7285156,-20.5,32.25,-0.90625
219,1727373267097,0.08105469,-0.2109375,0.203125,-123.8125,-62.15625,-15.5
220,1727373267137,0.0107421875,-0.34277344,0.1953125,-15.1875,-95.71875,-44.75
221,1727373267177,-0.56640625,0.07421875,-0.31152344,128.9375,-102.5625,-20.8125
222,1727373267217,-2.0,-0.4501953,-0.060546875,114.53125,-163.1875,-35.875
223,1727373267257,-2.0,-0.9580078,0.09375,59.34375,-68.75,-34.3125
224,1727373267297,-1.5585938,-0.7314453,0.020507812,70.40625,-23.53125,-26.4375
225,1727373267337,-1.3603516,0.03125,-0.21289062,162.4375,11.21875,-10.0
226,1727373267377,-0.23925781,0.47753906,0.19042969,40.84375,40.25,-26.125
227,1727373267417,0.11035156,0.22363281,-0.029296875,-128.75,87.5625,47.65625
228,1727373267457,-0.31640625,-0.375,0.24414062,-21.78125,16.03125,34.1875
229,1727373267497,-0.06542969,-0.37597656,-0.26367188,-48.875,-59.0,-21.65625
230,1727373267537,-1.1542969,0.22949219,0.20019531,-78.84375,24.03125,19.28125
231,1727373267577,-2.0,-0.5078125,-0.5800781,-97.9375,-62.90625,75.8125
232,1727373267617,-1.1640625,-0.6113281,-0.6660156,80.34375,56.96875,59.3125
233,1727373267657,-1.6083984,-1.1416016,0.0068359375,-125.90625,162.625,-3.71875
234,1727373267697,-1.4521484,-0.17480469,0.5,56.84375,152.75,-10.625
235,1727373267737,-0.8642578,-0.07910156,0.64746094,17.59375,90.1875,-10.875
236,1727373267777,-0.328125,-0.15429688,0.40625,-94.71875,-26.46875,-13.78125
237,1727373267817,0.099609375,-0.13964844,0.2939453,-0.78125,-91.46875,-14.84375
238,1727373267857,-0.4423828,0.23339844,0.18945312,105.84375,-90.65625,4.21875
239,1727373267897,-1.0732422,-0.44726562,-0.58691406,61.84375,-113.71875,-3.90625
240,1727373267937,-2.0,-0.9892578,0.5,203.03125,-54.40625,-26.375
241,1727373267977,-2.0,-0.30273438,0.07714844,12.90625,-118.5,-13.5
242,1727373268017,-1.3876953,-0.4951172,-0.18359375,10.5625,-48.375,-34.53125
243,1727373268057,-1.0888672,0.06640625,-0.14160156,64.40625,-11.4375,-34.1875
244,1727373268097,-0.12011719,0.53027344,0.18261719,-53.25,27.6875,-20.625
245,1727373268137,0.31152344,0.111328125,-0.26953125,-90.5625,91.71875,61.53125
246,1727373268177,-0.13769531,-0.5205078,0.6357422,-19.9375,-29.0625,12.6875
247,1727373268217,0.087890625,0.017578125,-1.2578125,-98.75,-109.59375,-73.3125
248,1727373268257,-1.9345703,-0.044921875,-0.7783203,-173.3125,-40.0625,114.375
249,1727373268297,-1.0478516,-0.115234375,-0.39941406,97.5,-17.71875,17.15625
250,1727373268337,-1.7373047,-1.1230469,-0.5810547,-53.25,194.875,38.6875
251,1727373268377,-1.4746094,-1.0341797,0.25878906,-71.8125,162.6875,-1.875
252,1727373268417,-1.2607422,-0.14355469,0.67578125,63.75,145.46875,-18.75
253,1727373268457,-0.51464844,0.005859375,0.65234375,-41.5,30.84375,-28.0625
254,1727373268497,-0.14355469,-0.10449219,0.15332031,-68.84375,-84.875,-23.1875
255,1727373268537,-0.025390625,-0.15234375,0.24902344,9.34375,-103.40625,-29.78125
256,1727373268577,-0.7392578,-0.025390625,-0.4921875,102.3125,-90.0625,-1.46875
257,1727373268617,-2.0,-0.6923828,0.4140625,119.9375,-156.6875,-24.21875
258,1727373268657,-2.0,-0.6796875,-0.12597656,45.3125,-94.03125,-31.5625
259,1727373268697,-1.4941406,-0.7236328,-0.22558594,44.6875,-56.375,-25.625
260,1727373268737,-1.1582031,0.24121094,-0.24902344,184.78125,-31.03125,-1.21875
261,1727373268777,0.09863281,0.5341797,0.08691406,-22.4375,3.8125,-34.59375
262,1727373268817,0.25390625,-0.11328125,-0.27734375,-81.34375,86.9375,52.25
263,1727373268857,-0.19433594,-0.27246094,0.6357422,-32.9375,6.5,18.6875
264,1727373268897,-0.22558594,-0.25585938,-0.8574219,-146.15625,-72.96875,-43.46875
265,1727373268937,-1.9658203,-0.076171875,-0.68847656,-92.375,-46.59375,27.28125
266,1727373268977,-0.9785156,-0.01171875,-0.85058594,-8.90625,-29.4375,29.53125
267,1727373269017,-1.6474609,-0.66503906,-0.47460938,-22.0,117.53125,51.28125
268,1727373269057,-1.4921875,-1.1582031,-0.0146484375,-74.03125,168.6875,23.6875
269,1727373269097,-1.3125,-0.3125,0.8388672,26.5625,99.53125,-9.28125
270,1727373269137,-0.7988281,0.095703125,0.9345703,-7.0625,9.875,-3.90625
271,1727373269177,0.16699219,-0.2626953,0.053710938,-116.0,-131.5,-27.21875
272,1727373269217,-0.2890625,-0.27441406,0.1015625,-16.15625,-137.0,-52.625
273,1727373269257,-0.7265625,0.15039062,-0.115234375,185.03125,-118.375,-32.53125
274,1727373269297,-2.0,-0.78808594,-0.015625,73.9375,-163.0625,-41.1875
275,1727373269337,-2.0,-0.85839844,0.29589844,64.28125,-90.125,-102.84375
276,1727373269377,-1.3974609,-0.46972656,0.08300781,146.125,-17.1875,-31.625
277,1727373269417,-1.0927734,0.19628906,-0.17773438,166.53125,26.59375,-1.09375
278,1727373269457,-0.061523438,0.59277344,0.11621094,-31.78125,57.65625,4.6875
279,1727373269497,0.28027344,-0.05078125,-0.26464844,-189.375,132.46875,58.53125
280,1727373269537,-0.20996094,-0.3984375,-0.03125,-43.4375,86.875,53.53125
281,1727373269577,-0.5566406,-0.03515625,0.6533203,-12.75,-140.03125,-35.875
282,1727373269617,-1.6064453,0.43554688,-0.45214844,-208.34375,-9.4375,49.1875
283,1727373269657,-1.6044922,-0.44921875,-1.1025391,36.59375,12.0,63.78125
284,1727373269697,-1.3388672,-1.6640625,-0.041992188,97.8125,145.90625,57.5
285,1727373269737,-1.6621094,-0.43554688,0.52734375,-123.53125,150.0,-56.5625
286,1727373269777,-1.3828125,0.0859375,0.8027344,71.0,124.84375,-33.125
287,1727373269817,-0.5732422,-0.10839844,0.7392578,-62.40625,2.21875,-4.625
288,1727373269857,-0.040039062,-0.39453125,0.06542969,-137.75,-66.8125,-24.96875
289,1727373269897,-0.21191406,0.08691406,0.24121094,17.65625,-128.03125,-47.46875
290,1727373269937,-0.56347656,0.3828125,-0.078125,121.28125,-131.3125,-3.53125
291,1727373269977,-1.7314453,-0.18652344,-0.07128906,27.375,-185.875,-12.4375
292,1727373270017,-2.0,-1.6796875,0.6894531,144.78125,-94.09375,-42.1875
293,1727373270057,-1.6611328,-0.34570312,0.17675781,98.59375,-72.84375,-22.15625
294,1727373270097,-1.2705078,-0.12402344,-0.030273438,99.75,-8.9375,-17.03125
295,1727373270137,-0.24707031,0.21875,0.20605469,30.59375,48.625,-23.0
296,1727373270177,0.35351562,-0.045898438,-0.1953125,-164.90625,94.875,16.125
297,1727373270217,0.064453125,-0.49804688,-0.27148438,-29.21875,119.40625,57.625
298,1727373270257,-0.5263672,-0.1953125,0.86328125,-32.21875,-28.09375,-27.84375
299,1727373270297,-0.38476562,0.29003906,-0.63183594,-149.21875,63.5,15.375
300,1727373270337,-2.0,-0.46972656,0.31152344,-251.15625,-43.78125,74.78125
301,1727373270377,-1.1533203,-0.46972656,-0.9785156,-72.6875,75.84375,36.0625
302,1727373270417,-1.5048828,-1.7138672,0.025390625,61.0,220.5,39.6875
303,1727373270457,-1.8339844,-0.3330078,0.55859375,-78.03125,131.625,-69.46875
304,1727373270497,-1.125,0.16503906,0.79785156,90.90625,99.9375,-54.875
305,1727373270537,-0.30664062,0.375,0.79589844,-131.03125,-78.8125,-23.8125
306,1727373270577,-0.078125,-0.26367188,0.40234375,-99.78125,-168.125,-31.1875
307,1727373270617,-0.48632812,0.13085938,-0.16503906,36.75,-175.9375,-13.0625
308,1727373270657,-0.88964844,-0.30664062,-0.3720703,89.125,-171.71875,-26.90625
309,1727373270697,-2.0,-1.2197266,0.37597656,130.625,-176.21875,-26.375
310,1727373270737,-2.0,-0.4189453,0.4501953,95.28125,-133.6875,-102.28125
311,1727373270777,-0.8808594,-0.5839844,0.059570312,116.28125,-21.3125,-26.3125
312,1727373270817,-0.9013672,-0.06347656,-0.1484375,95.21875,74.5,3.125
313,1727373270857,-0.07910156,0.6660156,0.10058594,-129.625,125.40625,-21.53125
314,1727373270897,0.25390625,0.17382812,-0.3876953,-201.15625,213.96875,42.53125
315,1727373270937,-0.30273438,-0.36816406,0.091796875,-20.125,113.25,81.59375
316,1727373270977,-0.0546875,0.17089844,-0.46191406,-6.875,-204.8125,-82.09375
317,1727373271017,-2.0,0.021484375,-0.4033203,-343.3125,-23.15625,82.15625
318,1727373271057,-1.2978516,-0.55078125,-0.88183594,33.34375,42.28125,65.0
319,1727373271097,-1.8388672,-1.3857422,-0.2890625,66.0625,142.84375,70.8125
320,1727373271137,-1.5371094,-0.53515625,0.14257812,-87.5625,177.90625,-41.875
321,1727373271177,-1.4306641,-0.08984375,0.85546875,53.1875,138.84375,-22.21875
322,1727373271217,-0.53222656,0.048828125,0.82714844,-90.1875,-8.25,-16.40625
323,1727373271257,-0.08496094,-0.3876953,0.109375,-108.125,-129.78125,-18.75
324,1727373271297,-0.18164062,-0.20703125,0.11621094,-23.125,-153.53125,-52.3125
325,1727373271337,-0.63378906,0.20117188,-0.17382812,120.625,-145.84375,-19.84375
326,1727373271377,-1.8867188,-0.34375,-0.08203125,76.96875,-204.0,-38.6875
327,1727373271417,-2.0,-1.6494141,0.7392578,72.40625,-125.40625,-92.90625
328,1727373271457,-1.1240234,-0.42871094,0.20019531,135.875,-71.4375,-39.5
329,1727373271497,-1.0888672,-0.26660156,-0.14257812,143.9375,28.59375,8.78125
330,1727373271537,-0.22558594,0.4814453,0.18359375,-11.21875,65.34375,-16.125
331,1727373271577,0.20117188,-0.0146484375,-0.37109375,-218.59375,146.59375,22.78125
332,1727373271617,0.09667969,-0.14355469,-0.3544922,-69.5625,157.625,75.8125
333,1727373271657,-1.0341797,-0.7324219,1.8662109,55.875,-20.90625,-4.40625
334,1727373271697,-0.14453125,0.36816406,-0.9433594,-204.9375,137.125,36.9375
335,1727373271737,-2.0,-0.6074219,1.7148438,28.875,-182.65625,76.0625
336,1727373271777,-1.1074219,-0.23046875,-0.74316406,-5.65625,22.5,32.71875
337,1727373271817,-2.0,-1.9257812,0.359375,39.5,235.9375,43.09375
338,1727373271857,-1.6396484,-0.22851562,0.65527344,-63.34375,147.375,-37.78125
339,1727373271897,-1.1796875,0.0078125,0.8388672,72.46875,111.84375,-15.875
340,1727373271937,-0.107421875,0.10058594,0.5527344,-128.21875,-46.96875,-12.21875
341,1727373271977,-0.016601562,-0.35839844,0.29296875,-88.90625,-89.3125,-32.78125
342,1727373272017,-0.37597656,0.15722656,0.14550781,-2.125,-147.4375,-40.90625
343,1727373272057,-0.70214844,0.053710938,-0.3046875,82.71875,-147.25,-19.15625
344,1727373272097,-2.0,-1.0419922,0.12207031,113.125,-177.09375,-48.8125
345,1727373272137,-2.0,-1.0048828,0.46875,56.40625,-81.9375,-87.46875
346,1727373272177,-1.265625,-0.42871094,0.18066406,76.0625,-42.8125,-51.9375
347,1727373272217,-1.0654297,-0.030273438,-0.0546875,92.59375,20.96875,1.84375
348,1727373272257,-0.052734375,0.5175781,0.13574219,-42.78125,73.34375,4.625
349,1727373272297,0.29589844,0.017578125,-0.12695312,-178.9375,138.65625,70.875
350,1727373272337,-0.05078125,-0.58496094,-0.14257812,-7.4375,80.78125,62.6875
351,1727373272377,-0.7753906,-0.5859375,1.03125,54.59375,-121.5,-60.3125
352,1727373272417,-0.39257812,0.51953125,-0.7714844,-184.78125,59.71875,37.28125
353,1727373272457,-2.0,-1.109375,1.2441406,130.375,117.34375,186.28125
354,1727373272497,-1.4453125,-0.5390625,-0.86035156,24.75,80.71875,68.46875
355,1727373272537,-1.4716797,-1.4404297,0.32910156,-49.96875,253.21875,4.21875
356,1727373272577,-1.5498047,-0.04296875,0.9316406,39.6875,146.28125,-32.03125
357,1727373272617,-0.8496094,0.10546875,0.8701172,-24.59375,2.40625,-9.65625
358,1727373272657,0.08691406,-0.25,0.2705078,-162.625,-118.8125,-20.6875
359,1727373272697,-0.059570312,-0.28027344,0.09472656,-42.53125,-164.6875,-49.75
360,1727373272737,-0.46777344,0.1015625,-0.32421875,117.6875,-116.0,-25.75
361,1727373272777,-1.3085938,-0.32421875,0.08984375,114.21875,-155.0,-26.84375
362,1727373272817,-2.0,-1.4501953,0.06347656,132.03125,-136.0,-47.125
363,1727373272857,-2.0,0.013671875,0.6455078,154.125,-99.875,-33.75
364,1727373272897,-1.4921875,-0.15039062,0.15917969,51.46875,-6.8125,0.5
365,1727373272937,-0.6425781,-0.10644531,0.10644531,54.15625,40.75,1.34375
366,1727373272977,0.23828125,0.05078125,-0.005859375,-140.125,84.4375,13.84375
367,1727373273017,0.109375,-0.47558594,-0.47558594,-90.4375,148.15625,50.0625
368,1727373273057,-0.10546875,-0.20703125,-0.06347656,-5.84375,96.46875,-14.78125
369,1727373273097,-0.65625,0.0048828125,1.3115234,-1.5,-118.96875,-57.96875
370,1727373273137,-0.76464844,0.57421875,-0.67089844,-183.28125,84.6875,49.75
371,1727373273177,-2.0,-0.5966797,1.1708984,281.4375,2.65625,110.21875
372,1727373273217,-1.2441406,-0.9667969,-0.3154297,55.375,65.59375,42.0
373,1727373273257,-1.7763672,-1.4833984,0.15039062,-28.1875,214.75,-18.1875
374,1727373273297,-1.7792969,-0.024414062,0.5390625,15.875,166.71875,-38.34375
375,1727373273337,-0.78027344,0.22167969,0.81347656,38.21875,79.8125,-33.4375
376,1727373273377,-0.140625,-0.08691406,0.30371094,-107.90625,-71.1875,-7.125
377,1727373273417,0.14941406,-0.19628906,0.2841797,-16.53125,-130.625,-18.5625
378,1727373273457,-0.35253906,0.34765625,0.047851562,-1.5,-146.5,-5.3125
379,1727373273497,-0.734375,-0.16894531,-0.45507812,64.96875,-150.15625,-3.46875
380,1727373273537,-1.9775391,-1.0,0.09375,79.59375,-178.3125,-11.28125
381,1727373273577,-2.0,-0.98535156,0.5527344,116.34375,-100.1875,-72.625
382,1727373273617,-1.4873047,-0.45117188,0.37304688,72.59375,-45.4375,-73.90625
383,1727373273657,-1.046875,-0.34570312,-0.040039062,73.1875,51.5,-10.6875
384,1727373273697,-0.37402344,0.45898438,0.25390625,-35.8125,90.90625,-17.75
385,1727373273737,0.123046875,-0.08300781,-0.20605469,-156.15625,132.0625,27.21875
386,1727373273777,0.12011719,-0.047851562,-0.45507812,12.40625,79.875,38.875
387,1727373273817,-0.3544922,-0.22753906,0.86035156,33.28125,11.4375,9.40625
388,1727373273857,0.17675781,0.29882812,-0.79003906,-93.90625,9.75,-15.875
389,1727373273897,-1.5898438,-0.19335938,-0.7324219,-195.46875,-58.1875,47.5
390,1727373273937,-1.2988281,-0.74316406,-1.4775391,81.375,30.1875,42.53125
391,1727373273977,-2.0,-1.6513672,-0.31445312,121.78125,158.3125,56.53125
392,1727373274017,-2.0,-0.18066406,0.33984375,-40.875,167.46875,-63.0625
393,1727373274057,-1.2519531,-0.171875,0.6308594,66.59375,154.9375,-30.46875
394,1727373274097,-0.4296875,0.28320312,0.5263672,-56.125,24.5,-26.71875
395,1727373274137,-0.078125,-0.14648438,0.119140625,-63.75,-65.09375,1.21875
396,1727373274177,-0.23046875,0.10449219,0.35839844,-52.21875,-147.96875,-28.6875
397,1727373274217,-0.4189453,0.23535156,-0.20605469,45.4375,-114.09375,1.46875
398,1727373274257,-1.0400391,-0.36816406,-0.26464844,70.8125,-171.96875,1.21875
399,1727373274297,-2.0,-1.7011719,-0.01171875,154.5625,-117.59375,-14.09375
400,1727373274337,-2.0,0.07128906,0.45703125,115.25,-76.0,-54.0625
401,1727373274377,-1.4658203,-0.36328125,0.03515625,-19.75,-13.34375,-20.75
402,1727373274417,-0.91015625,0.01171875,-0.0126953125,38.21875,53.1875,-28.375
403,1727373274457,0.025390625,0.30371094,0.08203125,-92.75,67.0625,-0.0625
404,1727373274497,0.12207031,-0.20898438,-0.29785156,-106.625,111.375,56.09375
405,1727373274537,-0.048828125,-0.3466797,0.15332031,10.03125,28.90625,12.625
406,1727373274577,-0.28515625,0.1484375,0.7216797,-13.84375,-127.15625,-52.96875
407,1727373274617,-0.62402344,0.3359375,-0.7841797,-142.8125,50.9375,38.6875
408,1727373274657,-2.0,-0.7607422,1.1279297,278.09375,13.21875,115.40625
409,1727373274697,-0.8066406,-0.94433594,-0.42871094,59.46875,52.21875,45.96875
410,1727373274737,-2.0,-1.3408203,0.024414062,-28.71875,191.625,-7.1875
411,1727373274777,-1.7636719,0.005859375,0.49121094,36.8125,165.3125,-35.875
412,1727373274817,-0.90625,0.0859375,0.8027344,24.90625,84.15625,-18.5
413,1727373274857,-0.10449219,-0.13183594,0.16992188,-153.1875,-54.09375,2.25
414,1727373274897,0.32617188,-0.32128906,0.28808594,-32.6875,-70.65625,-23.8125
415,1727373274937,-0.29882812,0.15820312,0.046875,3.125,-116.25,-21.90625
416,1727373274977,-0.8339844,0.060546875,-0.12890625,94.875,-133.5,-4.03125
417,1727373275017,-2.0,-0.6640625,-0.07519531,93.78125,-152.125,-13.96875
418,1727373275057,-2.0,-0.8613281,0.5888672,161.40625,-72.21875,-40.65625
419,1727373275097,-1.8320312,-0.4404297,0.34179688,16.875,-40.125,-27.03125
420,1727373275137,-1.1787109,-0.171875,0.0,91.625,16.09375,-16.0625
421,1727373275177,-0.08691406,0.20898438,0.072265625,-17.125,33.59375,-0.375
422,1727373275217,0.27148438,-0.24804688,-0.49804688,-93.84375,90.4375,18.0
423,1727373275257,0.3515625,-0.08984375,-0.15234375,-8.21875,76.15625,-19.59375
424,1727373275297,-0.328125,-0.10546875,1.0410156,-44.34375,54.1875,-3.0625
425,1727373275337,-0.3046875,0.66796875,-0.17382812,40.71875,-60.75,19.03125
426,1727373275377,-1.9003906,-0.4970703,-1.2314453,-208.59375,-35.25,76.0625
427,1727373275417,-1.1611328,-0.3154297,-2.0,25.40625,-141.8125,-36.125
428,1727373275457,-1.5478516,-0.5517578,-0.42089844,168.21875,74.875,60.71875
429,1727373275497,-1.8066406,-0.38867188,0.061523438,-56.3125,135.0,-26.96875
430,1727373275537,-1.4384766,-0.34960938,0.7363281,59.03125,127.1875,-23.5625
431,1727373275577,-0.6279297,0.111328125,0.76464844,-2.0,51.78125,-21.40625
432,1727373275617,0.14941406,-0.20800781,0.125,-86.78125,-45.5625,-10.4375
433,1727373275657,0.025390625,-0.19824219,0.29492188,-57.34375,-111.78125,-49.625
434,1727373275697,-0.3173828,0.37597656,-0.07519531,43.21875,-94.6875,-20.03125
435,1727373275737,-0.7011719,0.040039062,-0.0126953125,81.8125,-134.125,-6.21875
436,1727373275777,-1.7451172,-1.1972656,-0.16796875,154.125,-151.625,-15.6875
437,1727373275817,-2.0,-0.6748047,0.7363281,154.6875,-60.3125,-90.15625
438,1727373275857,-1.5595703,0.203125,0.5058594,2.8125,-67.09375,-40.21875
439,1727373275897,-1.0742188,-0.21484375,0.06347656,-3.75,31.40625,14.53125
440,1727373275937,-0.26660156,-0.06933594,0.2734375,-21.78125,95.5,19.34375
441,1727373275977,0.103515625,-0.47265625,-0.12792969,-95.625,108.0625,43.9375
442,1727373276017,0.15039062,-0.2421875,-0.31054688,-9.25,73.9375,9.65625
443,1727373276057,-0.1953125,-0.22363281,0.66796875,-35.3125,21.59375,-23.625
444,1727373276097,-0.03125,0.70996094,-0.5761719,-27.4375,-1.6875,-8.59375
445,1727373276137,-1.7021484,-0.17578125,-0.7783203,-175.53125,-27.5,43.34375
446,1727373276177,-1.8652344,-0.82910156,-1.5830078,28.21875,-23.78125,55.125
447,1727373276217,-1.7646484,-1.4892578,0.24316406,201.75,168.5,55.125
448,1727373276257,-2.0,0.06933594,0.421875,-0.03125,169.65625,-61.8125
449,1727373276297,-1.1708984,-0.061523438,0.57421875,55.8125,132.65625,-27.78125
450,1727373276337,-0.40625,0.115234375,0.4921875,-87.3125,24.6875,-18.5
451,1727373276377,-0.052734375,-0.22949219,0.07421875,-51.5,-3.3125,9.59375
452,1727373276417,0.041015625,-0.25976562,0.38867188,-40.03125,-98.34375,-19.59375
453,1727373276457,-0.27441406,0.33203125,-0.115234375,89.375,-91.03125,1.09375
454,1727373276497,-0.98535156,-0.052734375,-0.18164062,59.15625,-144.125,5.6875
455,1727373276537,-2.0,-1.34375,-0.080078125,131.0625,-139.6875,-35.75
456,1727373276577,-2.0,-0.107421875,0.5800781,89.9375,-99.625,-57.75
457,1727373276617,-1.7578125,-0.5800781,0.10058594,27.96875,-24.3125,-42.34375
458,1727373276657,-0.7314453,0.09082031,0.072265625,80.53125,45.03125,-24.0
459,1727373276697,0.18945312,0.103515625,-0.21972656,-88.0,65.21875,28.125
460,1727373276737,0.25683594,-0.19238281,-0.3828125,-59.75,109.65625,51.03125
461,1727373276777,-0.18261719,-0.31347656,0.32714844,-10.0625,23.46875,8.90625
462,1727373276817,-0.15625,-0.30664062,0.5605469,-78.34375,-27.4375,-43.34375
463,1727373276857,-0.24121094,0.7939453,-0.26171875,1.375,-76.1875,27.65625
464,1727373276897,-2.0,-0.828125,0.7158203,-157.5625,11.03125,28.03125
465,1727373276937,-1.4570312,-0.36132812,-1.0341797,37.25,-4.59375,31.25
466,1727373276977,-1.9326172,-1.5253906,-0.043945312,97.96875,231.96875,62.4375
467,1727373277017,-1.8603516,-0.33007812,0.42578125,-41.0625,173.125,-31.6875
468,1727373277057,-1.2216797,-0.07324219,0.6660156,25.96875,128.875,-21.46875
469,1727373277097,-0.42089844,0.052734375,0.48046875,-39.40625,17.5625,-19.09375
470,1727373277137,0.103515625,-0.15332031,0.14453125,-76.15625,-52.28125,-21.25
471,1727373277177,-0.09277344,-0.28808594,0.29589844,-25.90625,-100.125,-45.46875
472,1727373277217,-0.359375,0.17871094,-0.14355469,122.53125,-103.34375,-13.125
473,1727373277257,-1.1884766,-0.016601562,0.115234375,86.875,-159.15625,-8.71875
474,1727373277297,-2.0,-1.1269531,-0.24316406,103.96875,-144.1875,-9.59375
475,1727373277337,-2.0,-0.29785156,0.45703125,151.1875,-53.375,-23.375
476,1727373277377,-1.6503906,-0.24902344,0.037109375,-26.78125,4.1875,-7.6875
477,1727373277417,-0.9189453,0.0107421875,0.047851562,25.46875,46.96875,-29.0625
478,1727373277457,0.022460938,0.044921875,0.15820312,-101.53125,68.28125,9.65625
479,1727373277497,0.11035156,-0.17382812,-0.2626953,-106.625,89.75,19.59375
480,1727373277537,0.12011719,-0.0146484375,-0.033203125,83.625,-30.3125,-1.9375
481,1727373277577,-0.47265625,0.40527344,1.1982422,-126.1875,-91.625,-57.125
482,1727373277617,-0.5488281,0.03125,-1.4023438,-95.6875,7.78125,41.125
483,1727373277657,-2.0,-0.9160156,-0.9296875,-97.6875,-19.3125,86.0
484,1727373277697,-1.0107422,-0.13574219,-1.5996094,82.84375,-18.75,33.03125
485,1727373277737,-2.0,-1.6220703,-0.37890625,63.625,195.90625,49.9375
486,1727373277777,-1.9072266,-0.24609375,0.5126953,23.09375,184.71875,-18.25
487,1727373277817,-0.95214844,-0.22949219,0.69433594,-17.3125,115.5,-25.15625
488,1727373277857,-0.2607422,0.140625,0.44726562,-40.15625,-4.46875,-17.15625
489,1727373277897,0.01953125,-0.1484375,0.26367188,-53.03125,-69.84375,-19.59375
490,1727373277937,-0.21191406,0.11621094,0.15722656,-37.40625,-135.03125,-19.40625
491,1727373277977,-0.54589844,-0.0703125,-0.31640625,90.40625,-110.25,2.0625
492,1727373278017,-1.3740234,-0.29296875,-0.005859375,102.6875,-135.28125,5.875
493,1727373278057,-2.0,-1.4189453,-0.13183594,212.40625,-88.53125,-11.34375
494,1727373278097,-2.0,-0.07519531,0.6113281,94.375,-23.40625,-12.4375
495,1727373278137,-1.6943359,-0.05859375,0.024414062,-35.75,20.78125,-13.5625
496,1727373278177,-0.8261719,0.15625,0.12695312,-39.03125,71.75,-36.375
497,1727373278217,-0.017578125,-0.053710938,-0.12890625,-122.90625,48.0625,6.09375
498,1727373278257,0.045898438,-0.32128906,-0.2548828,-82.0625,59.25,2.3125
499,1727373278297,-0.009765625,-0.12109375,0.48046875,46.84375,-25.28125,-31.84375
500,1727373278337,-0.6464844,0.6455078,1.7626953,-89.34375,-178.5,-60.59375
501,1727373278377,-0.74902344,-0.13476562,-1.7080078,-105.03125,36.59375,55.1875
502,1727373278417,-2.0,-0.8408203,-0.69140625,-137.5625,-16.4375,119.8125
503,1727373278457,-1.1162109,0.099609375,-1.1298828,-9.875,-47.4375,-39.25
504,1727373278497,-2.0,-0.7949219,-0.4609375,-101.1875,69.625,32.78125
505,1727373278537,-1.2197266,-1.1689453,0.20800781,-82.8125,177.09375,10.4375
506,1727373278577,-1.0341797,-0.10546875,0.4892578,-2.1875,129.75,-22.71875
507,1727373278617,-0.70214844,0.49414062,0.6035156,-103.875,-1.4375,-29.78125
508,1727373278657,0.0390625,-0.12792969,0.1875,-175.6875,-118.625,-22.71875
509,1727373278697,-0.018554688,-0.24902344,0.044921875,-183.40625,-154.125,-64.28125
510,1727373278737,-0.49902344,0.043945312,-0.25195312,12.28125,-124.0,-36.5625
511,1727373278777,-1.8115234,-0.29003906,-0.021484375,72.03125,-167.375,-11.59375
512,1727373278817,-2.0,-0.73535156,-0.28710938,-15.0,-103.40625,-44.375
513,1727373278857,-2.0,-0.16503906,0.4482422,-18.53125,-69.90625,-42.90625
514,1727373278897,-1.421875,-0.18359375,0.045898438,-55.84375,-24.125,15.9375
515,1727373278937,-0.6933594,0.5253906,-0.12011719,-113.75,23.15625,30.46875
516,1727373278977,-0.13183594,0.18261719,-0.3017578,-253.8125,36.53125,67.4375
517,1727373279017,0.09082031,-0.92871094,-0.08984375,-197.96875,19.3125,21.25
518,1727373279057,-0.018554688,-0.48632812,0.09082031,-55.21875,-57.875,-23.375
519,1727373279097,-0.109375,0.5,0.43164062,-198.28125,-91.875,-7.8125
520,1727373279137,-1.7607422,-0.29101562,-0.9013672,-140.78125,-15.09375,78.75
521,1727373279177,-2.0,0.026367188,0.5341797,-132.0625,-23.875,-6.34375
522,1727373279217,-1.4423828,-0.4111328,-1.0449219,-156.0,-56.0625,84.53125
523,1727373279257,-1.5224609,-1.4423828,0.13183594,-20.0,155.375,58.46875
524,1727373279297,-1.1074219,-0.6113281,0.59375,-204.375,49.0,-3.28125
525,1727373279337,-0.9296875,-0.034179688,0.390625,-87.5,26.78125,11.78125
526,1727373279377,-0.072265625,-0.24121094,0.27441406,-187.90625,-63.875,-2.625
527,1727373279417,0.1015625,-0.21289062,0.087890625,-174.65625,-122.9375,-57.75
528,1727373279457,-0.27148438,0.28808594,0.25585938,-90.3125,-145.90625,-34.65625
529,1727373279497,-0.57128906,-0.17382812,-0.2998047,24.125,-152.0,-15.9375
530,1727373279537,-1.9570312,-1.0019531,-0.15332031,1.125,-129.78125,-6.09375
531,1727373279577,-2.0,-0.53808594,0.87109375,-77.9375,-69.59375,-100.15625
532,1727373279617,-2.0,0.0,0.53222656,31.5625,-60.09375,27.28125
533,1727373279657,-1.4072266,0.15917969,0.10253906,-85.5,20.0,31.75
534,1727373279697,-0.45507812,0.041992188,-0.11035156,-113.25,47.65625,31.0625
535,1727373279737,0.33203125,-1.1630859,-0.3330078,-186.625,54.1875,42.90625
536,1727373279777,0.030273438,-0.296875,-0.0087890625,-117.65625,36.40625,-33.09375
537,1727373279817,-0.028320312,0.26953125,0.50683594,-119.4375,-52.34375,-65.78125
538,1727373279857,-0.3251953,0.6386719,-0.4267578,-53.4375,16.21875,11.125
539,1727373279897,-1.2314453,-0.25390625,-0.94921875,-207.875,-51.84375,68.3125
540,1727373279937,-2.0,-1.5625,-0.6904297,-329.9375,-207.125,-54.75
541,1727373279977,-1.2226562,-0.86035156,-0.7285156,121.71875,0.78125,88.5
542,1727373280017,-2.0,-0.96875,0.068359375,-33.3125,186.375,22.9375
543,1727373280057,-1.6396484,-0.2919922,0.6699219,-112.84375,125.34375,-8.65625
544,1727373280097,-0.8154297,0.0107421875,0.67871094,-44.46875,49.09375,8.4375
545,1727373280137,0.22558594,-0.041015625,0.15234375,-122.25,-60.28125,-9.53125
546,1727373280177,0.15429688,-0.4501953,0.001953125,-94.78125,-73.5625,-58.96875
547,1727373280217,-0.3779297,0.0107421875,0.15136719,11.25,-111.15625,-46.5625
548,1727373280257,-0.6513672,0.21386719,0.043945312,79.59375,-145.40625,-19.40625
549,1727373280297,-1.9882812,-0.3955078,-0.15234375,13.5,-153.53125,-19.53125
550,1727373280337,-2.0,-1.2519531,0.5234375,79.375,-74.71875,-57.5
551,1727373280377,-1.7363281,-0.32617188,0.23339844,25.40625,-63.8125,-0.71875
552,1727373280417,-1.2695312,-0.2578125,-0.028320312,46.59375,20.53125,16.71875
553,1727373280457,-0.18847656,0.18261719,0.13671875,-83.0,39.46875,26.0625
554,1727373280497,0.10644531,-0.59277344,-0.40234375,-65.78125,93.0,65.6875
555,1727373280537,0.18847656,-0.123046875,0.087890625,10.53125,21.21875,-4.6875
556,1727373280577,-0.33398438,-0.23144531,0.64160156,-80.65625,-17.84375,-52.0625
557,1727373280617,-0.07421875,0.77246094,-0.39746094,-5.46875,-64.84375,-17.40625
558,1727373280657,-0.9199219,-0.1875,-0.8935547,-59.3125,-7.09375,53.65625
559,1727373280697,-2.0,-1.1220703,-1.7617188,-213.25,-131.3125,0.71875
560,1727373280737,-1.2148438,-0.59277344,-0.48339844,198.75,108.3125,80.625
561,1727373280777,-2.0,-0.81152344,0.2529297,-94.59375,170.8125,-7.3125
562,1727373280817,-1.4404297,-0.21289062,0.671875,32.375,150.5,-14.15625
563,1727373280857,-0.5449219,0.18945312,0.5888672,-28.59375,59.53125,-11.21875
564,1727373280897,0.14160156,-0.080078125,0.27929688,-114.59375,-52.8125,-18.375
565,1727373280937,0.043945312,-0.20703125,0.11035156,-14.875,-82.3125,-27.90625
566,1727373280977,-0.28710938,0.11816406,0.03515625,82.125,-88.53125,-9.34375
567,1727373281017,-0.8847656,0.0048828125,-0.15527344,68.5,-146.75,-9.75
568,1727373281057,-2.0,-0.6748047,-0.3046875,8.9375,-194.3125,-20.8125
569,1727373281097,-2.0,-1.1210938,0.50683594,154.875,-58.25,-38.09375
570,1727373281137,-1.7929688,-0.29589844,0.3203125,28.59375,-81.6875,-41.375
571,1727373281177,-0.9033203,-0.29101562,-0.10058594,90.59375,30.25,-22.53125
572,1727373281217,0.13183594,0.1875,-0.09863281,-28.25,64.3125,7.8125
573,1727373281257,0.3232422,-0.24511719,-0.453125,-15.3125,107.09375,45.71875
574,1727373281297,-0.046875,-0.1953125,0.36914062,34.8125,52.46875,-7.875
575,1727373281337,-0.3232422,-0.34277344,0.53515625,-210.625,-25.21875,-82.21875
576,1727373281377,-0.24316406,0.8457031,-0.6611328,32.71875,-21.09375,30.75
577,1727373281417,-0.7441406,-0.00390625,-0.5878906,-52.90625,9.4375,22.59375
578,1727373281457,-2.0,-1.2324219,-0.47460938,-252.46875,-92.5,61.21875
579,1727373281497,-1.2861328,-0.64160156,-0.7470703,140.59375,100.0625,86.65625
580,1727373281537,-2.0,-0.9121094,0.083984375,-38.0,167.09375,-4.28125
581,1727373281577,-1.5546875,-0.20507812,0.609375,-7.375,139.4375,-14.46875
582,1727373281617,-0.5283203,0.033203125,0.36523438,-53.8125,49.53125,-11.46875
583,1727373281657,0.18066406,-0.099609375,0.0029296875,-120.34375,-23.71875,-8.375
584,1727373281697,0.08691406,-0.2529297,0.23144531,42.0625,-33.28125,-10.0625
585,1727373281737,-0.3125,0.27929688,0.28808594,-0.78125,-75.03125,-2.5625
586,1727373281777,-0.77441406,0.25,-0.001953125,61.0625,-118.5,17.03125
587,1727373281817,-2.0,-0.7871094,-0.5488281,-35.3125,-211.15625,-11.0
588,1727373281857,-2.0,-1.0732422,0.5605469,67.59375,-24.1875,-69.9375
589,1727373281897,-1.59375,-0.53027344,-0.22070312,26.375,-87.78125,-33.5625
590,1727373281937,-1.1728516,-0.23046875,-0.12011719,152.1875,-17.90625,-13.1875
591,1727373281977,0.14648438,0.3779297,-0.20019531,6.71875,11.15625,-11.28125
592,1727373282017,0.4970703,0.0703125,-0.59277344,-34.96875,88.53125,41.8125
593,1727373282057,0.022460938,-0.18359375,0.21972656,-58.75,42.15625,21.5
594,1727373282097,-0.76464844,-0.67285156,1.3867188,17.59375,-91.875,-58.03125
595,1727373282137,0.13769531,0.47753906,-1.3671875,-73.21875,-15.71875,5.375
596,1727373282177,-1.9208984,-0.11816406,-1.0634766,-59.84375,-24.4375,48.09375
597,1727373282217,-1.5566406,-0.60839844,-0.5966797,146.4375,-59.53125,-18.0
598,1727373282257,-1.9296875,-1.6875,0.1953125,18.5625,264.125,35.65625
599,1727373282297,-1.8144531,-0.19238281,0.40625,-45.09375,181.3125,-52.5
600,1727373282337,-0.85253906,0.17480469,0.8769531,85.15625,130.96875,-29.0625
601,1727373282377,-0.17773438,-0.06933594,0.6074219,-164.65625,-25.53125,-15.0625
602,1727373282417,0.016601562,-0.18261719,-0.01953125,-49.96875,-27.75,5.125
603,1727373282457,-0.038085938,-0.03125,0.38183594,-31.21875,-103.90625,-32.34375
604,1727373282497,-0.62109375,-0.0234375,-0.28710938,109.15625,-108.5,3.71875
605,1727373282537,-1.6494141,-0.35742188,0.032226562,35.46875,-166.15625,-15.5625
606,1727373282577,-2.0,-1.6191406,-0.23632812,114.8125,-118.125,-35.09375
607,1727373282617,-1.9169922,-0.2578125,0.064453125,26.5625,-89.0625,-30.625
608,1727373282657,-1.3789062,-0.25097656,-0.119140625,81.4375,2.0,-23.25
609,1727373282697,-0.2421875,0.28808594,-0.053710938,22.46875,48.4375,-21.0625
610,1727373282737,0.421875,-0.15332031,-0.32714844,-94.28125,76.75,30.28125
611,1727373282777,0.23730469,-0.15234375,-0.04296875,35.125,67.40625,22.46875
612,1727373282817,-0.57714844,-0.41992188,1.1074219,-40.25,6.03125,-24.53125
613,1727373282857,-0.12402344,0.61816406,-0.8535156,-117.46875,-95.3125,-35.34375
614,1727373282897,-1.5507812,0.10253906,-0.79785156,-73.53125,-33.21875,-10.5625
615,1727373282937,-1.6748047,-0.5761719,-1.2285156,52.21875,-118.3125,55.375
616,1727373282977,-1.9179688,-1.3388672,-0.46191406,135.03125,212.0625,69.09375
617,1727373283017,-1.9658203,-0.29882812,0.29101562,-39.53125,142.3125,-46.625
618,1727373283057,-1.1503906,-0.12695312,0.7285156,43.59375,124.4375,-17.5
619,1727373283097,-0.13476562,0.026367188,0.5361328,-116.8125,-7.15625,-25.21875
620,1727373283137,-0.029296875,-0.13769531,0.1796875,-69.1875,-32.9375,-13.71875
621,1727373283177,-0.15039062,0.13476562,0.18945312,3.4375,-102.4375,-34.46875
622,1727373283217,-0.4189453,0.2109375,-0.056640625,90.34375,-85.53125,14.03125
623,1727373283257,-1.2490234,-0.36816406,-0.0703125,-0.71875,-175.625,-8.0
624,1727373283297,-2.0,-1.4541016,-0.2109375,64.53125,-165.0,-33.03125
625,1727373283337,-2.0,-0.3359375,0.33398438,123.3125,-92.5,-34.25
626,1727373283377,-1.4814453,-0.5673828,0.005859375,52.5625,-15.78125,-22.59375
627,1727373283417,-0.875,0.15429688,-0.13671875,103.40625,45.1875,-30.09375
628,1727373283457,0.11816406,0.32714844,-0.15722656,-92.28125,75.59375,5.5625
629,1727373283497,0.21484375,-0.16308594,-0.33007812,-64.75,115.34375,43.59375
630,1727373283537,-0.55078125,-0.2529297,0.79296875,11.96875,30.0625,2.1875
631,1727373283577,-0.21679688,-0.14355469,0.12890625,-135.84375,-128.1875,-84.09375
632,1727373283617,-0.484375,0.69628906,-0.7109375,-62.0,11.5,70.3125
633,1727373283657,-2.0,-1.9267578,2.0,-160.5,52.03125,128.3125
634,1727373283697,-1.5761719,-0.43945312,-0.9638672,65.03125,61.375,91.3125
635,1727373283737,-1.9345703,-1.4277344,0.5878906,20.71875,268.65625,33.5625
636,1727373283777,-1.5566406,-0.4013672,0.6152344,-36.1875,151.78125,-33.03125
637,1727373283817,-0.8076172,0.0029296875,0.6738281,80.59375,115.03125,-15.25
638,1727373283857,-0.23242188,-0.1328125,0.38476562,-120.15625,-33.09375,-23.8125
639,1727373283897,0.016601562,-0.076171875,0.20019531,-19.15625,-73.375,-23.9375
640,1727373283937,-0.30371094,0.3701172,0.28320312,58.375,-112.09375,-9.46875
641,1727373283977,-0.7109375,-0.103515625,-0.33691406,77.84375,-109.9375,5.4375
642,1727373284017,-2.0,-0.6982422,-0.09765625,48.59375,-209.3125,-7.4375
643,1727373284057,-2.0,-1.0292969,0.18652344,45.5,-64.46875,-49.5625
644,1727373284097,-1.7021484,-0.3310547,0.234375,47.03125,-78.625,-68.65625
645,1727373284137,-0.7910156,-0.35351562,0.080078125,101.21875,18.03125,-16.0
646,1727373284177,0.11035156,0.37402344,-0.044921875,-10.59375,44.65625,6.03125
647,1727373284217,0.2841797,-0.34960938,-0.4716797,-65.40625,129.625,41.75
648,1727373284257,-0.10839844,-0.14453125,0.22167969,-34.78125,58.1875,1.71875
649,1727373284297,-0.3515625,0.01953125,1.0908203,-73.65625,-22.3125,-45.21875
650,1727373284337,-0.18066406,0.3232422,-0.9707031,-69.8125,-13.4375,31.875
651,1727373284377,-2.0,-0.6298828,-0.9277344,-145.96875,-84.3125,53.15625
652,1727373284417,-1.0322266,-0.15039062,-1.6962891,-15.3125,-5.625,48.40625
653,1727373284457,-1.9697266,-1.0556641,-0.98339844,261.625,180.625,53.53125
654,1727373284497,-2.0,-0.2421875,0.57714844,-202.5625,71.4375,-70.96875
655,1727373284537,-0.9667969,-0.1328125,0.81933594,51.21875,103.25,-21.71875
656,1727373284577,-0.034179688,-0.036132812,0.33203125,-112.15625,3.03125,0.5
657,1727373284617,0.16308594,-0.34570312,0.09082031,-24.15625,-3.8125,-20.6875
658,1727373284657,-0.2265625,-0.040039062,0.39257812,-14.875,-87.0,-34.65625
659,1727373284697,-0.4814453,0.29882812,-0.3125,111.15625,-76.4375,-1.59375
660,1727373284737,-1.3759766,-0.1015625,-0.017578125,3.8125,-191.125,-10.9375
661,1727373284777,-2.0,-1.4355469,-0.38964844,103.84375,-145.71875,-31.5625
662,1727373284817,-2.0,-0.45214844,0.23339844,-4.8125,-87.1875,-69.15625
663,1727373284857,-1.3779297,-0.50878906,0.13183594,49.6875,-39.46875,-35.09375
664,1727373284897,-0.6230469,0.12890625,-0.11328125,119.53125,35.4375,-1.34375
665,1727373284937,0.13769531,0.4033203,-0.14355469,-48.9375,37.09375,35.78125
666,1727373284977,0.25878906,-0.38378906,-0.24316406,-27.15625,55.34375,38.40625
667,1727373285017,-0.3251953,-0.4140625,0.90625,-13.09375,10.28125,-14.15625
668,1727373285057,-0.013671875,0.37597656,-0.6582031,-135.78125,-132.96875,-58.09375
669,1727373285097,-1.9228516,-0.21582031,0.28027344,136.8125,8.34375,63.78125
670,1727373285137,-1.6748047,-0.8691406,-0.41601562,-227.75,-2.84375,46.75
671,1727373285177,-1.8447266,-0.6435547,-0.22949219,177.5625,157.9375,107.375
672,1727373285217,-1.8544922,-0.76464844,0.33496094,-84.9375,202.90625,-22.46875
673,1727373285257,-1.4443359,-0.076171875,0.65722656,60.875,174.90625,-31.96875
674,1727373285297,-0.5175781,-0.076171875,0.46484375,-20.3125,53.375,-7.75
675,1727373285337,0.076171875,-0.20605469,0.2685547,-93.84375,15.0,-6.46875
676,1727373285377,0.045898438,-0.2607422,0.29003906,14.71875,-39.21875,-28.75
677,1727373285417,-0.2939453,0.3310547,0.15136719,95.34375,-63.875,-5.5625
678,1727373285457,-0.7734375,0.07421875,-0.25585938,83.15625,-105.625,9.40625
679,1727373285497,-2.0,-0.9394531,-0.4638672,20.09375,-246.4375,-30.625
680,1727373285537,-2.0,-0.7792969,0.24023438,25.53125,-48.4375,-55.53125
681,1727373285577,-1.8779297,-0.67285156,0.051757812,22.25,-47.03125,-33.1875
682,1727373285617,-1.0625,-0.26757812,-0.20703125,168.40625,-6.5,-30.28125
683,1727373285657,0.041992188,0.3310547,-0.072265625,53.125,14.125,-8.125
684,1727373285697,0.28027344,0.045898438,-0.43554688,-47.21875,89.34375,57.3125
685,1727373285737,0.24023438,-0.04296875,0.2626953,-47.15625,35.25,16.71875
686,1727373285777,-0.45703125,-0.4765625,1.3046875,-37.875,2.96875,-17.03125
687,1727373285817,-0.16308594,0.3232422,-1.1240234,-63.65625,-97.375,9.59375
688,1727373285857,-2.0,-0.9658203,-1.5625,-130.28125,38.90625,56.46875
689,1727373285897,-1.2509766,-0.5732422,-1.2314453,165.90625,22.0,53.21875
690,1727373285937,-2.0,-0.8300781,-0.23046875,-0.53125,228.90625,18.8125
691,1727373285977,-1.796875,-0.032226562,0.24414062,69.0625,175.34375,-33.25
692,1727373286017,-1.1152344,-0.08984375,0.8779297,-5.65625,137.4375,-28.4375
693,1727373286057,-0.1328125,-0.24609375,0.18164062,-112.96875,29.21875,-2.8125
694,1727373286097,0.15039062,-0.18359375,0.35058594,-2.25,-6.9375,-14.28125
695,1727373286137,-0.20214844,0.017578125,0.3251953,19.125,-70.75,-23.8125
696,1727373286177,-0.328125,0.23925781,-0.21289062,135.34375,-67.21875,15.03125
697,1727373286217,-1.0439453,-0.28125,-0.22167969,4.65625,-149.875,5.75
698,1727373286257,-2.0,-1.3320312,0.095703125,106.78125,-157.9375,-44.25
699,1727373286297,-2.0,-0.4169922,0.23339844,26.1875,-105.0,-32.15625
700,1727373286337,-1.6992188,-0.5625,-0.04296875,71.84375,-34.4375,-13.90625
701,1727373286377,-0.9238281,0.09765625,-0.16992188,141.0625,15.0625,-33.1875
702,1727373286417,0.24804688,0.21191406,-0.115234375,-32.28125,31.59375,14.46875
703,1727373286457,0.3154297,-0.05078125,-0.4375,-53.03125,83.96875,60.0
704,1727373286497,-0.33398438,-0.07519531,0.44921875,1.59375,4.75,3.59375
705,1727373286537,-0.09082031,-0.32910156,0.01171875,-140.90625,-98.71875,-83.1875
706,1727373286577,-1.0253906,1.4765625,1.1484375,46.71875,-72.53125,86.90625
707,1727373286617,-2.0,-2.0,1.671875,-198.71875,-68.25,86.96875
708,1727373286657,-1.6767578,-0.56933594,-0.3408203,198.5,90.3125,99.125
709,1727373286697,-1.8789062,-0.8144531,-0.060546875,-7.3125,164.9375,15.03125
710,1727373286737,-1.6542969,-0.13378906,0.3798828,41.09375,184.84375,-14.09375
711,1727373286777,-0.85839844,-0.2841797,0.6972656,-79.15625,106.71875,-21.3125
712,1727373286817,-0.15234375,-0.29101562,0.28808594,-61.3125,46.1875,2.4375
713,1727373286857,0.19238281,-0.16503906,0.35839844,0.15625,-38.34375,-21.0625
714,1727373286897,-0.296875,0.25976562,0.25390625,41.15625,-91.8125,-24.71875
715,1727373286937,-0.6035156,-0.032226562,-0.37402344,61.3125,-85.65625,-19.09375
716,1727373286977,-1.6396484,-0.3876953,0.06933594,27.78125,-169.59375,-26.375
717,1727373287017,-2.0,-1.4199219,-0.25585938,114.53125,-95.90625,-47.0
718,1727373287057,-2.0,-0.68847656,0.34375,57.09375,-48.5625,-64.09375
719,1727373287097,-1.3359375,-0.29785156,-0.10546875,171.65625,-9.4375,-29.59375
720,1727373287137,-0.6484375,0.31933594,-0.13964844,111.15625,53.5,-24.15625
721,1727373287177,0.17675781,0.484375,-0.18847656,-62.96875,56.96875,20.875
722,1727373287217,0.26660156,-0.03515625,-0.19335938,-55.875,68.21875,49.625
723,1727373287257,-0.32910156,-0.19921875,0.9667969,-1.75,-0.875,14.46875
724,1727373287297,-0.33691406,-0.045898438,-0.20996094,-187.53125,-138.40625,-60.96875
725,1727373287337,-2.0,-0.5908203,-0.13574219,-27.25,5.90625,37.28125
726,1727373287377,-1.3330078,-0.46191406,-1.0830078,-10.1875,0.84375,42.25
727,1727373287417,-2.0,-0.6347656,-0.41992188,108.96875,171.90625,58.0
728,1727373287457,-1.7929688,-0.3876953,0.15039062,-60.09375,168.75,-40.46875
729,1727373287497,-1.2998047,-0.099609375,0.7949219,13.5625,137.125,-24.46875
730,1727373287537,-0.32128906,-0.09863281,0.43554688,-123.625,38.0,-10.8125
731,1727373287577,-0.041015625,-0.2421875,0.4267578,-74.1875,-8.5625,-1.15625
732,1727373287617,0.076171875,-0.30664062,0.26171875,-13.59375,-78.09375,-26.5
733,1727373287657,-0.3310547,0.2734375,0.009765625,121.28125,-73.6875,4.46875
734,1727373287697,-1.0195312,-0.19921875,-0.3330078,72.96875,-136.0625,-10.5625
735,1727373287737,-2.0,-1.0927734,-0.17675781,0.4375,-195.9375,-54.5
736,1727373287777,-2.0,-0.61816406,0.3173828,74.375,-63.25,-45.46875
737,1727373287817,-1.6923828,-0.42773438,0.1171875,68.0,-57.75,-22.59375
738,1727373287857,-0.7919922,-0.0029296875,-0.09375,98.84375,23.65625,-11.0
739,1727373287897,0.18652344,0.26367188,-0.044921875,-32.34375,38.125,20.4375
740,1727373287937,0.18945312,-0.15625,-0.4375,-65.65625,99.71875,64.46875
741,1727373287977,-0.0234375,-0.38378906,0.49804688,-28.1875,23.21875,11.0
742,1727373288017,-0.33496094,-0.23828125,0.5595703,-89.65625,-84.75,-74.28125
743,1727373288057,-0.9189453,0.7158203,-0.3466797,-36.90625,-3.75,55.0
744,1727373288097,-2.0,-1.3466797,0.2705078,-180.46875,-56.25,97.15625
745,1727373288137,-1.2880859,-0.7792969,-0.69921875,183.84375,119.53125,92.78125
746,1727373288177,-2.0,-0.9160156,-0.3671875,-94.53125,168.3125,-21.1875
747,1727373288217,-1.8076172,-0.045898438,0.7060547,28.59375,162.6875,-27.15625
748,1727373288257,-0.82714844,-0.07421875,0.6875,-52.90625,58.25,-5.4375
749,1727373288297,0.0234375,-0.39160156,0.28515625,-138.34375,-10.34375,0.375
