,timestamp,accel_x,accel_y,accel_z,gyro_x,gyro_y,gyro_z
0,1727267840230,-0.9003906,-0.22363281,-0.109375,-14.0,-7.875,17.0
1,1727267840256,-0.8154297,-0.26171875,-0.0625,-16.6875,-9.46875,11.8125
2,1727267840283,-0.87109375,-0.39453125,0.078125,-12.21875,-24.78125,8.15625
3,1727267840314,-0.95410156,-0.5488281,0.203125,5.96875,-58.0,4.25
4,1727267840344,-1.4453125,-0.5732422,0.52246094,-15.9375,-106.09375,-46.28125
5,1727267840406,-1.8759766,-0.30371094,0.024414062,117.21875,-100.1875,-82.46875
6,1727267840433,-1.6513672,0.34765625,-0.12011719,77.5625,-86.875,-63.3125
7,1727267840463,-1.8398438,-0.33398438,-0.2890625,-14.0625,-77.78125,-45.1875
8,1727267840523,-1.9326172,-1.5664062,0.21777344,-112.0,-60.9375,-120.375
9,1727267840553,-1.2783203,-0.38867188,-0.19335938,179.0,-65.9375,-52.125
10,1727267840583,-0.7421875,-0.0029296875,-0.16015625,180.53125,-52.75,-23.15625
11,1727267840648,-0.16992188,0.64746094,-0.3173828,67.375,-18.21875,9.375
12,1727267840673,0.38183594,0.7558594,-0.21484375,-58.78125,73.15625,32.15625
13,1727267840703,0.4951172,0.22851562,-0.08691406,-92.84375,124.875,48.75
14,1727267840763,-0.45996094,-0.6533203,0.21875,-94.0,88.125,21.15625
15,1727267840794,-0.6123047,-0.19335938,-0.3671875,-44.09375,32.875,-6.84375
16,1727267840825,-2.0,-0.03515625,1.0332031,-164.5,-43.34375,-84.0
17,1727267840883,-0.61621094,0.6425781,-0.5410156,53.8125,67.96875,80.5
18,1727267840918,-2.0,0.22167969,-0.8203125,-18.625,20.625,145.5625
19,1727267840973,-1.90625,-0.58984375,-0.7685547,450.25,95.875,178.03125
20,1727267841008,-1.7197266,-0.8701172,0.24121094,-321.96875,43.4375,55.59375
21,1727267841093,-1.1191406,-0.19921875,1.0390625,-104.5,-4.09375,67.78125
22,1727267841131,-0.5625,-0.5605469,-0.12011719,8.28125,10.71875,70.0625
23,1727267841155,0.35058594,-0.2607422,0.23339844,-5.15625,3.84375,81.59375
24,1727267841183,0.21484375,-0.83496094,0.022460938,58.8125,22.25,20.75
25,1727267841213,-0.055664062,-0.2763672,0.20019531,59.25,-4.59375,-65.375
26,1727267841243,-0.6513672,0.5966797,0.890625,-350.25,-141.6875,-134.0625
27,1727267841273,-2.0,-0.23144531,0.20800781,146.03125,-60.875,-259.46875
28,1727267841303,-2.0,-0.17285156,-0.4189453,386.71875,-75.8125,-195.875
29,1727267841364,-2.0,-0.123046875,-0.5283203,-67.75,-103.46875,-91.5
30,1727267841395,-1.3691406,-0.46972656,-0.37890625,-0.6875,-67.59375,-68.875
31,1727267841423,-0.734375,-0.14453125,-0.115234375,-32.3125,-22.28125,-43.96875
32,1727267841487,-0.18457031,0.5546875,-0.31933594,117.71875,-22.46875,-0.625
33,1727267841513,0.55859375,0.4140625,-0.3486328,20.84375,45.09375,65.84375
34,1727267841543,0.8408203,0.578125,-0.27441406,-61.78125,-0.9375,37.71875
35,1727267841603,0.15820312,0.03515625,0.7626953,-84.5,109.59375,21.34375
36,1727267841634,-0.71777344,-0.57421875,0.25878906,148.59375,20.5,-31.875
37,1727267841664,-1.6699219,-0.51953125,-0.8544922,-58.5,32.21875,-89.3125
38,1727267841724,-1.4111328,-0.3857422,1.6123047,-357.875,52.78125,-19.375
39,1727267841759,-1.5195312,0.78222656,-0.18359375,17.0,-25.21875,93.90625
40,1727267841790,-2.0,0.24511719,-0.54785156,152.8125,30.375,137.0625
41,1727267841844,-1.6367188,-0.4609375,-0.390625,254.9375,104.59375,170.03125
42,1727267841874,-1.4902344,-1.1865234,0.11328125,-253.4375,195.25,148.125
43,1727267841903,-0.9902344,-0.36621094,0.7480469,-354.625,25.9375,47.96875
44,1727267841967,-0.3466797,-0.29003906,0.20410156,10.53125,-18.21875,35.8125
45,1727267841993,-0.0087890625,-0.3017578,-0.017578125,-1.3125,-3.125,66.625
46,1727267842023,0.03125,-0.7207031,-0.20214844,108.0625,28.3125,34.84375
47,1727267842087,0.119140625,-0.640625,0.2861328,-1.59375,-25.53125,-45.0
48,1727267842117,-0.5419922,0.0859375,0.37304688,-96.34375,-97.3125,-150.34375
49,1727267842144,-2.0,-0.06738281,0.17773438,136.75,-14.59375,-225.1875
50,1727267842203,-2.0,0.25390625,0.026367188,74.75,-40.65625,-125.5
51,1727267842263,-2.0,0.2998047,-0.1328125,-52.1875,-58.96875,-101.875
52,1727267842297,-1.6386719,-0.73535156,-0.20996094,-102.4375,-26.125,-65.5625
53,1727267842324,-1.0253906,-0.66796875,0.0390625,-63.96875,-5.8125,-44.5625
54,1727267842357,-0.33984375,0.24023438,-0.15136719,170.5625,-16.4375,9.9375
55,1727267842384,0.2919922,0.4345703,-0.24121094,104.15625,-5.21875,54.5
56,1727267842443,0.41992188,0.32421875,-0.20898438,-76.5,56.125,44.28125
57,1727267842503,-0.061523438,-0.2734375,0.029296875,-71.0625,65.15625,44.84375
58,1727267842534,-0.5996094,-0.5332031,-0.0107421875,89.53125,32.21875,22.9375
59,1727267842563,-0.74121094,-0.5048828,0.24707031,-46.59375,16.59375,-39.875
60,1727267842593,-2.0,-0.0029296875,0.3125,-334.25,30.125,-84.84375
61,1727267842653,-0.8251953,0.9277344,-0.28515625,53.09375,37.71875,18.84375
62,1727267842685,-2.0,0.46484375,-0.7451172,54.0625,-56.21875,154.09375
63,1727267842721,-2.0,-0.64941406,-0.57714844,415.375,71.6875,174.0
64,1727267842743,-1.5517578,-1.0136719,0.17382812,-163.15625,311.1875,165.75
65,1727267842808,-1.3125,-0.3251953,0.89160156,-342.125,46.875,57.78125
66,1727267842833,-0.5888672,-0.484375,-0.1328125,25.875,-35.34375,47.78125
67,1727267842865,0.16015625,-0.31347656,0.04296875,-18.21875,65.28125,93.25
68,1727267842923,0.07324219,-1.0830078,0.15527344,-182.75,-34.4375,1.6875
69,1727267842953,0.026367188,-0.45703125,0.16699219,107.59375,-2.46875,-49.5
70,1727267842984,-0.39453125,0.23046875,0.67089844,-113.40625,-99.625,-118.4375
71,1727267843044,-0.89453125,0.16992188,0.10839844,60.78125,-61.28125,-175.6875
72,1727267843073,-2.0,-0.64160156,-0.049804688,419.71875,-116.09375,-236.84375
73,1727267843108,-2.0,-0.27148438,0.09277344,-143.5625,-77.46875,-114.8125
74,1727267843169,-1.8447266,-0.21972656,-0.36523438,-10.8125,-48.1875,-99.5
75,1727267843197,-1.3789062,-0.48535156,0.08203125,-68.8125,-11.6875,-72.9375
76,1727267843253,-0.7324219,-0.20410156,-0.18066406,114.25,-10.875,-2.53125
77,1727267843283,-0.07128906,0.52246094,-0.27734375,95.5,-14.53125,51.375
78,1727267843320,0.38867188,0.40722656,-0.22363281,8.84375,54.5625,79.09375
79,1727267843343,0.48242188,0.06542969,-0.0146484375,-113.96875,75.84375,58.875
80,1727267843404,-0.41015625,-0.10644531,0.48339844,-67.09375,10.65625,33.75
81,1727267843437,-0.7636719,-1.0654297,-0.42382812,168.5,96.46875,-1.71875
82,1727267843464,-1.1611328,-0.15625,-0.5654297,92.5625,27.5,-57.6875
83,1727267843523,-1.4951172,0.44335938,0.70410156,-430.1875,-3.5,-69.53125
84,1727267843553,-1.5595703,0.9404297,0.034179688,-100.125,-3.625,42.09375
85,1727267843583,-2.0,0.22265625,-0.61035156,193.09375,-24.25,169.25
86,1727267843644,-2.0,-1.0595703,-0.5097656,388.15625,81.53125,191.5625
87,1727267843678,-1.234375,-1.1611328,0.30859375,-122.09375,140.4375,146.15625
88,1727267843713,-1.1494141,-0.4482422,0.68066406,-307.625,34.21875,40.375
89,1727267843765,-0.44726562,-0.09082031,0.19238281,-8.5625,-11.96875,57.0625
90,1727267843800,0.14550781,-0.32910156,0.07714844,34.96875,-4.21875,97.09375
91,1727267843827,0.08203125,-1.1210938,0.033203125,80.90625,30.625,4.9375
92,1727267843883,0.0146484375,-0.4326172,0.34277344,-14.78125,-63.96875,-92.90625
93,1727267843913,-0.5097656,0.39648438,0.7158203,-128.25,-104.09375,-123.84375
94,1727267843943,-1.6396484,-0.2607422,-0.11035156,189.875,-92.0625,-216.25
95,1727267844034,-2.0,-0.171875,-0.29492188,199.5,-47.125,-171.65625
96,1727267844063,-2.0,-0.13574219,-0.15039062,12.6875,-87.96875,-95.15625
97,1727267844096,-1.3779297,-0.5683594,-0.31835938,-79.46875,-20.875,-64.53125
98,1727267844123,-0.9814453,-0.64160156,0.1015625,-61.0625,14.6875,-51.28125
99,1727267844153,-0.546875,0.41992188,-0.2763672,140.96875,-18.09375,10.0625
100,1727267844183,0.44921875,0.64746094,-0.3564453,59.75,24.8125,62.4375
101,1727267844243,0.7138672,0.5,-0.043945312,-123.96875,73.34375,36.1875
102,1727267844309,-0.078125,-0.099609375,0.4423828,-66.96875,55.28125,30.25
103,1727267844334,-0.6640625,-0.47460938,-0.08496094,134.8125,47.09375,24.71875
104,1727267844363,-1.1484375,-0.55859375,-0.50878906,-128.5,57.53125,-74.40625
105,1727267844393,-2.0,-0.10253906,0.24511719,-187.46875,-21.75,-51.34375
106,1727267844423,-1.2167969,0.8808594,-0.23339844,-110.25,7.4375,63.34375
107,1727267844514,-2.0,0.27441406,-0.5488281,227.28125,17.375,170.53125
108,1727267844543,-1.9794922,-0.6376953,-0.52246094,422.40625,92.5,189.1875
109,1727267844578,-1.9628906,-0.79589844,0.3486328,-122.5625,402.28125,177.71875
110,1727267844603,-1.1269531,-0.53515625,1.2363281,-374.84375,8.40625,31.59375
111,1727267844635,-0.1875,-0.14648438,-0.390625,14.8125,-18.5625,60.46875
112,1727267844663,0.2705078,-0.4345703,0.061523438,-23.5625,60.28125,98.6875
113,1727267844723,0.080078125,-1.1210938,0.10546875,-31.21875,-5.09375,30.125
114,1727267844783,-0.13085938,-0.43945312,0.82128906,-2.8125,-20.65625,-81.1875
115,1727267844813,-0.36035156,0.7392578,0.6669922,-124.21875,-129.96875,-112.125
116,1727267844843,-1.3066406,0.033203125,-0.053710938,87.6875,-126.96875,-200.15625
117,1727267844874,-2.0,-1.2324219,-0.044921875,136.53125,27.34375,-289.625
118,1727267844904,-2.0,0.013671875,-0.1796875,232.15625,-57.6875,-35.0
119,1727267844963,-1.8154297,-0.6640625,-0.6298828,-201.5,-39.25,-88.21875
120,1727267844999,-1.0722656,-0.8535156,0.3076172,0.46875,-34.375,-29.3125
121,1727267845025,-0.390625,0.51660156,-0.5546875,244.0,-28.75,13.15625
122,1727267845086,0.3671875,0.7089844,-0.4560547,11.03125,18.1875,49.46875
123,1727267845113,0.82714844,0.80859375,0.095703125,-140.875,70.0625,14.375
124,1727267845143,-0.059570312,-0.2998047,0.24609375,-132.65625,86.84375,22.625
125,1727267845233,-0.5107422,-0.31445312,-0.083984375,95.03125,12.375,15.96875
126,1727267845265,-0.2783203,-0.15429688,-0.27539062,84.46875,46.8125,9.9375
127,1727267845293,-2.0,0.3046875,-1.8544922,-502.6875,-132.28125,-158.09375
128,1727267845323,-0.81347656,1.0537109,-0.6015625,-156.625,-44.28125,30.375
129,1727267845354,-2.0,0.5,-0.65527344,-60.0625,-67.59375,140.3125
130,1727267845383,-2.0,-0.6035156,-0.6855469,571.46875,70.84375,164.0625
131,1727267845443,-1.9941406,-1.03125,0.24316406,-298.34375,445.25,176.3125
132,1727267845473,-1.2939453,-0.44628906,1.5136719,-337.71875,39.90625,50.03125
133,1727267845533,-0.25585938,-0.23144531,-0.27148438,53.15625,21.34375,98.5
134,1727267845567,0.484375,-0.5185547,0.095703125,-5.9375,48.25,126.3125
135,1727267845626,0.17285156,-1.3222656,0.11035156,5.65625,13.65625,-13.125
136,1727267845655,-0.18066406,-0.059570312,0.36816406,-3.125,-35.0,-103.21875
137,1727267845683,-0.35839844,0.5595703,0.6064453,-70.15625,-146.0,-103.59375
138,1727267845713,-1.3496094,-0.032226562,-0.12988281,78.125,-109.34375,-191.25
139,1727267845748,-2.0,-0.75,0.08886719,133.09375,-37.1875,-264.25
140,1727267845804,-2.0,-0.18164062,-0.07910156,226.71875,-68.25,-62.8125
141,1727267845833,-1.6865234,-0.34570312,-0.38183594,-99.5625,-48.40625,-58.96875
142,1727267845863,-1.1806641,-0.6269531,0.24902344,-130.4375,-18.5625,-63.90625
143,1727267845923,-0.5,0.27539062,-0.14355469,139.75,-22.84375,-22.90625
144,1727267845954,0.18261719,0.65625,-0.3076172,23.78125,4.0,32.15625
145,1727267845986,0.74902344,0.4482422,-0.2685547,-9.34375,71.53125,50.03125
146,1727267846044,0.30371094,-0.11816406,-0.00390625,-91.875,60.71875,34.71875
147,1727267846075,-0.43164062,-0.16894531,0.42382812,32.15625,21.09375,31.78125
148,1727267846103,-1.0683594,-1.5839844,0.13476562,20.8125,30.25,-54.75
149,1727267846163,-2.0,-0.2734375,-0.3466797,-323.75,-66.84375,-191.0
150,1727267846195,-0.8574219,1.3417969,-0.8339844,39.21875,23.59375,35.875
151,1727267846223,-2.0,0.6923828,-0.2763672,-116.15625,-1.0625,140.78125
152,1727267846313,-2.0,-0.10839844,-0.6484375,249.6875,22.6875,210.8125
153,1727267846343,-1.8486328,-0.7910156,-0.7558594,409.03125,170.40625,220.4375
154,1727267846379,-0.86621094,-1.0683594,2.0,-693.375,-115.0,75.59375
155,1727267846403,-0.7060547,-0.50390625,-0.25097656,170.34375,-0.5,50.40625
156,1727267846437,0.35839844,0.013671875,0.01171875,-51.34375,42.03125,82.5
157,1727267846465,0.034179688,-0.90234375,0.1015625,-89.1875,-24.1875,53.875
158,1727267846524,0.23632812,-0.6953125,0.5566406,30.5,7.625,-41.6875
159,1727267846554,-0.34472656,0.3095703,0.515625,7.84375,-115.625,-108.34375
160,1727267846591,-1.0351562,0.2421875,0.055664062,62.125,-133.6875,-152.0
161,1727267846644,-2.0,-1.1611328,-0.19824219,278.5625,-17.40625,-312.5
162,1727267846676,-2.0,0.4189453,-0.0009765625,241.0,-105.53125,-79.3125
163,1727267846704,-2.0,0.27734375,-0.9423828,-40.84375,-59.34375,-76.375
164,1727267846763,-1.546875,-0.77734375,0.67578125,-302.375,-25.96875,-99.125
165,1727267846793,-0.7626953,0.00390625,-0.33203125,109.84375,-27.25,-30.28125
166,1727267846823,0.1640625,0.609375,-0.2939453,79.75,-25.65625,22.5
167,1727267846884,0.69140625,0.30664062,-0.3486328,-45.84375,98.6875,65.96875
168,1727267846913,0.3720703,-0.028320312,-0.055664062,-14.78125,84.6875,50.21875
169,1727267846944,-0.57128906,0.12988281,0.2529297,-10.9375,49.53125,21.65625
170,1727267847009,-0.63964844,-0.72265625,0.3623047,149.15625,81.15625,-11.6875
171,1727267847064,-0.52441406,0.024414062,-0.6640625,-75.03125,42.65625,-54.65625
172,1727267847094,-2.0,0.796875,-1.4042969,-312.09375,-62.875,-32.125
173,1727267847124,-1.1113281,0.5761719,0.0146484375,-132.34375,-39.03125,42.46875
174,1727267847153,-2.0,0.28320312,-0.4716797,27.03125,-32.4375,146.46875
175,1727267847184,-2.0,-0.58496094,-0.6591797,321.59375,29.28125,155.75
176,1727267847243,-1.5898438,-1.0625,0.23925781,89.09375,250.96875,163.6875
177,1727267847273,-0.8964844,-1.0283203,1.6162109,-419.625,-1.46875,36.1875
178,1727267847333,-0.21972656,-0.21679688,-0.4580078,120.90625,23.65625,76.28125
179,1727267847368,0.33203125,-0.45996094,0.20898438,-27.90625,57.71875,102.875
180,1727267847393,0.14355469,-1.0625,0.109375,-45.4375,-2.625,9.8125
181,1727267847423,-0.020507812,-0.21875,0.43066406,20.84375,-47.5625,-67.9375
182,1727267847491,-0.4658203,0.4658203,0.5341797,-81.5625,-128.4375,-112.0
183,1727267847514,-1.3164062,-0.08691406,0.087890625,79.5,-112.625,-255.21875
184,1727267847544,-2.0,-0.41601562,0.072265625,170.5625,-48.0625,-274.5625
185,1727267847608,-2.0,0.2763672,-0.4013672,105.46875,-66.65625,-37.5
186,1727267847634,-1.5478516,-0.70996094,-0.1875,-222.71875,-36.03125,-89.1875
187,1727267847664,-1.0761719,-0.84277344,0.2421875,-7.59375,-8.375,-32.4375
188,1727267847724,-0.3017578,0.34570312,-0.2939453,125.59375,-22.15625,15.3125
189,1727267847813,0.31347656,0.53515625,-0.3251953,40.5625,30.375,58.8125
190,1727267847850,0.5527344,0.3359375,-0.17382812,-35.78125,86.03125,63.21875
191,1727267847874,0.23925781,-0.3203125,0.43652344,-116.84375,89.21875,43.3125
192,1727267847904,-0.68359375,-0.3720703,0.5058594,137.875,-41.6875,10.46875
193,1727267847933,-0.5097656,-0.7207031,-0.48632812,212.09375,26.96875,-21.5625
194,1727267847963,-1.0888672,0.2685547,-0.3486328,-69.21875,6.5,-61.59375
195,1727267847995,-1.2236328,0.9658203,-0.8798828,-118.71875,120.90625,-29.5625
196,1727267848023,-1.8896484,0.5234375,-0.46679688,-116.65625,-21.25,114.4375
197,1727267848088,-2.0,-0.22851562,-0.8232422,354.21875,43.125,202.0625
198,1727267848113,-2.0,-1.7832031,-0.13574219,23.90625,265.625,229.59375
199,1727267848173,-1.3808594,-0.421875,0.53125,-227.90625,77.4375,68.34375
200,1727267848204,-0.9863281,-0.22558594,0.52441406,18.78125,-4.96875,62.375
201,1727267848242,-0.18359375,-0.13867188,-0.07128906,-7.15625,19.03125,75.84375
202,1727267848294,0.38867188,-0.4736328,0.13476562,-136.25,0.90625,101.90625
203,1727267848324,0.16894531,-1.1455078,0.13964844,3.40625,-0.875,7.375
204,1727267848358,-0.22558594,-0.046875,0.55566406,74.625,-53.0,-91.15625
205,1727267848413,-0.7089844,0.39941406,0.5654297,-45.84375,-156.09375,-145.78125
206,1727267848443,-2.0,-0.078125,-0.10058594,250.46875,-86.9375,-246.96875
207,1727267848474,-2.0,0.33398438,0.20996094,108.4375,-90.78125,-154.5625
208,1727267848533,-2.0,-0.1015625,-0.28320312,-57.9375,-89.1875,-89.5625
209,1727267848563,-1.4931641,-1.1181641,-0.08300781,-179.03125,-15.9375,-69.65625
210,1727267848594,-0.93847656,-0.4609375,0.018554688,26.84375,-1.125,-45.59375
211,1727267848658,-0.25878906,0.41210938,-0.31054688,115.46875,-14.46875,0.40625
212,1727267848684,0.34179688,0.54296875,-0.28027344,58.21875,30.8125,45.03125
213,1727267848713,0.5185547,0.43554688,-0.28320312,-119.59375,130.90625,30.5625
214,1727267848773,-0.11328125,-0.18261719,0.36328125,-46.875,76.875,27.21875
215,1727267848803,-0.5996094,-0.4140625,0.3564453,104.0625,11.59375,5.78125
216,1727267848838,-1.4853516,-0.98535156,0.22558594,-26.25,16.59375,-68.875
217,1727267848893,-2.0,-0.0078125,1.5986328,-381.5,51.125,-84.375
218,1727267848930,-1.9384766,0.89453125,-0.39941406,-38.09375,-68.0,101.3125
219,1727267848953,-2.0,0.39453125,-0.54785156,136.15625,9.5,145.90625
220,1727267849014,-2.0,-0.60253906,-0.55371094,355.8125,95.3125,175.53125
221,1727267849078,-1.8330078,-0.6748047,0.38476562,-229.9375,392.0,163.0625
222,1727267849103,-1.1181641,-0.9091797,1.1533203,-349.75,51.0,75.1875
223,1727267849135,-0.28710938,-0.32617188,-0.30566406,49.90625,-3.375,54.71875
224,1727267849163,0.28027344,-0.7167969,0.1875,-140.34375,29.71875,104.71875
225,1727267849226,0.13964844,-1.0722656,0.047851562,35.25,16.40625,5.21875
226,1727267849254,-0.1484375,-0.18652344,0.40527344,43.6875,-45.1875,-80.75
227,1727267849288,-0.2578125,0.47460938,0.546875,-56.21875,-108.15625,-104.25
228,1727267849373,-1.4472656,-0.16113281,-0.076171875,88.4375,-112.5,-245.125
229,1727267849408,-2.0,-0.203125,0.11621094,116.125,-36.09375,-271.5625
230,1727267849433,-2.0,0.15039062,-0.4169922,-4.84375,-73.625,-74.28125
231,1727267849463,-1.6494141,-0.8017578,-0.26464844,-128.90625,-29.5625,-78.1875
232,1727267849493,-1.0029297,-0.74121094,0.21386719,71.6875,-23.75,-39.4375
233,1727267849558,-0.43359375,0.58203125,-0.4189453,159.78125,-42.375,0.0
234,1727267849583,0.40722656,0.6123047,-0.32714844,70.40625,10.71875,45.34375
235,1727267849618,0.6845703,0.3779297,-0.30664062,-47.75,110.65625,51.125
236,1727267849674,-0.06347656,-0.3046875,0.234375,-109.15625,93.5625,41.375
237,1727267849733,-0.6064453,-0.2578125,0.21777344,33.0625,25.125,15.0625
238,1727267849795,-0.57421875,-0.52441406,-0.4970703,55.96875,21.09375,-23.625
239,1727267849829,-2.0,-0.52734375,-0.83203125,-535.84375,-112.5,-153.15625
240,1727267849854,-0.37402344,0.5810547,0.4951172,-13.0625,26.71875,10.59375
241,1727267849884,-1.9648438,0.6542969,-0.19335938,-174.09375,-17.15625,110.34375
242,1727267849918,-2.0,-0.08300781,-0.6064453,78.0,13.28125,195.0
243,1727267849945,-1.8994141,-0.9160156,-0.5859375,367.90625,127.4375,207.03125
244,1727267849973,-1.6923828,-0.5644531,1.5146484,-653.875,-26.75,90.8125
245,1727267850004,-0.86035156,-0.6689453,-0.3466797,121.875,-42.4375,80.4375
246,1727267850033,0.40820312,-0.24023438,-0.171875,24.59375,55.46875,96.0625
247,1727267850127,0.23144531,-0.9189453,0.14746094,-136.96875,-30.28125,41.625
248,1727267850158,0.20410156,-0.7050781,0.15625,62.4375,-16.5,-37.125
249,1727267850183,-0.38085938,-0.09277344,0.60253906,0.15625,-81.375,-126.0
250,1727267850213,-1.0380859,0.14453125,0.038085938,55.34375,-97.3125,-204.65625
251,1727267850244,-2.0,-0.27734375,-0.14550781,257.84375,-3.4375,-264.34375
252,1727267850279,-2.0,0.1328125,0.1875,-6.0625,-88.875,-75.8125
253,1727267850364,-1.7714844,-0.024414062,-0.6748047,-74.84375,-58.84375,-93.40625
254,1727267850398,-1.3261719,-0.6455078,0.2685547,-106.78125,-39.375,-69.96875
255,1727267850424,-0.51171875,-0.022460938,-0.23828125,113.5,-16.125,-12.28125
256,1727267850453,0.19042969,0.64941406,-0.4560547,67.84375,-12.71875,31.40625
257,1727267850483,0.8359375,0.4580078,-0.31152344,-1.1875,95.5,68.15625
258,1727267850515,0.43945312,0.115234375,0.4794922,-151.4375,67.375,24.34375
259,1727267850573,-0.65625,-0.14550781,0.80078125,73.09375,1.875,43.5
260,1727267850604,-1.1210938,-1.3642578,-0.18847656,143.1875,-13.4375,-34.375
261,1727267850633,-2.0,0.46972656,1.7207031,-104.9375,-80.03125,-77.78125
262,1727267850694,0.26660156,0.90234375,-0.7392578,-52.3125,-6.0,-42.125
263,1727267850725,-2.0,0.88964844,-0.29296875,-250.375,-66.84375,123.53125
264,1727267850757,-2.0,0.20996094,-0.5839844,262.375,-12.90625,208.71875
265,1727267850813,-1.9511719,-0.60253906,-0.5019531,354.59375,134.3125,170.875
266,1727267850843,-2.0,-0.78515625,1.1933594,-687.625,338.84375,181.5
267,1727267850875,-1.0585938,-0.8828125,-0.1875,204.40625,-15.40625,92.15625
268,1727267850933,0.13671875,-0.19238281,-0.12695312,6.8125,29.78125,83.96875
269,1727267850963,0.41308594,-0.7988281,0.047851562,-104.5,1.5625,90.25
270,1727267850994,0.10839844,-0.86621094,0.32421875,28.78125,14.5,-18.9375
271,1727267851053,-0.4609375,0.31347656,0.6699219,7.625,-101.5625,-108.46875
272,1727267851084,-0.6152344,0.4111328,0.2109375,7.4375,-108.84375,-138.3125
273,1727267851115,-2.0,-0.5996094,-0.041015625,288.9375,-90.09375,-284.875
274,1727267851173,-2.0,0.3876953,0.46289062,111.125,-87.96875,-122.4375
275,1727267851203,-2.0,-0.06542969,-0.58984375,-151.5,-83.625,-99.75
276,1727267851233,-1.46875,-1.1376953,0.103515625,-135.15625,-10.9375,-82.53125
277,1727267851295,-0.7988281,-0.265625,-0.13769531,90.8125,-37.25,-40.71875
278,1727267851323,0.053710938,0.6972656,-0.33984375,90.4375,-39.75,0.0
279,1727267851356,0.7763672,0.58984375,-0.3564453,-64.40625,84.75,45.9375
280,1727267851414,0.7714844,0.2841797,0.22265625,-145.71875,77.875,43.1875
281,1727267851444,-0.63671875,-0.35742188,0.49902344,20.25,21.59375,25.5625
282,1727267851473,-1.0976562,-0.94433594,-0.43847656,342.15625,46.90625,17.375
283,1727267851537,-2.0,-0.3544922,-0.7392578,-224.3125,-41.15625,-148.5
284,1727267851563,-0.31054688,1.2294922,-0.68066406,146.84375,-22.125,-19.1875
285,1727267851628,-1.6396484,1.1806641,-0.3232422,-246.15625,-6.1875,111.96875
286,1727267851655,-2.0,0.5283203,-0.6074219,53.6875,-40.0,186.6875
287,1727267851684,-2.0,-0.7841797,-0.5078125,314.875,156.59375,173.09375
288,1727267851713,-1.8320312,-1.4638672,1.1455078,-154.625,399.34375,205.71875
289,1727267851773,-0.6894531,-0.98828125,0.61621094,127.84375,-51.09375,76.53125
290,1727267851805,-0.18652344,-0.115234375,-0.5732422,0.34375,21.40625,34.71875
291,1727267851833,0.2705078,-0.4111328,0.23046875,-166.9375,9.875,73.53125
292,1727267851898,0.35546875,-1.1699219,0.38378906,39.21875,28.125,7.8125
293,1727267851934,-0.20507812,-0.296875,0.26171875,93.5625,-75.34375,-114.03125
294,1727267851953,-0.75390625,0.55566406,0.6230469,-212.78125,-127.53125,-166.9375
295,1727267852013,-2.0,-0.5703125,0.02734375,261.8125,-83.28125,-272.21875
296,1727267852043,-2.0,0.018554688,0.22753906,147.875,-50.625,-149.25
297,1727267852077,-2.0,0.087890625,-0.32714844,46.1875,-54.65625,-94.9375
298,1727267852138,-1.4433594,-0.76953125,-0.20800781,-104.4375,-44.6875,-70.375
299,1727267852164,-0.7597656,-0.0087890625,0.07324219,45.34375,-16.125,-34.25
300,1727267852194,-0.08496094,0.68066406,-0.32226562,105.21875,-17.59375,11.59375
301,1727267852257,0.54296875,0.50683594,-0.2841797,-44.875,53.15625,59.3125
302,1727267852284,0.64160156,0.21484375,-0.0009765625,-90.71875,97.8125,68.40625
303,1727267852322,-0.42382812,-0.5800781,0.5576172,-106.40625,53.6875,49.90625
304,1727267852373,-0.88671875,-1.0449219,-0.9296875,310.40625,46.625,-22.46875
305,1727267852405,-1.4628906,-0.08496094,-0.0087890625,-198.75,6.40625,-124.90625
306,1727267852435,-1.3203125,0.25976562,0.1328125,-123.25,32.28125,-39.0625
307,1727267852493,-1.4287109,0.86816406,-0.25097656,-54.21875,-4.09375,71.40625
308,1727267852525,-2.0,0.40722656,-0.6113281,103.5,18.90625,173.03125
309,1727267852554,-2.0,-0.43066406,-0.62402344,278.0,98.9375,177.59375
310,1727267852619,-1.4423828,-0.7373047,0.73828125,-503.375,-36.6875,97.28125
311,1727267852644,-1.0566406,-0.87890625,0.0029296875,154.78125,-17.71875,110.03125
312,1727267852673,-0.5185547,-0.34570312,-0.078125,5.78125,3.34375,69.625
313,1727267852733,0.3642578,-0.23632812,-0.016601562,-53.1875,37.8125,117.90625
314,1727267852763,0.24316406,-1.4570312,0.12695312,8.28125,9.8125,19.8125
315,1727267852793,-0.1640625,-0.16894531,0.421875,104.0,-50.90625,-108.84375
316,1727267852854,-0.56347656,0.45703125,0.34472656,-17.28125,-99.875,-163.09375
317,1727267852883,-2.0,-0.16308594,0.1015625,217.09375,-57.15625,-231.28125
318,1727267852917,-2.0,0.35546875,-0.15039062,94.90625,-78.25,-135.625
319,1727267853009,-2.0,-0.52246094,0.047851562,-26.625,-74.71875,-97.5625
320,1727267853033,-1.5449219,-0.62109375,-0.42578125,-37.78125,-19.71875,-53.96875
321,1727267853065,-0.8642578,-0.2529297,0.12597656,-55.9375,-33.59375,-40.53125
322,1727267853100,-0.26660156,0.40429688,-0.15917969,96.78125,-21.5625,-6.4375
323,1727267853153,0.32226562,0.7373047,-0.3359375,-5.875,26.53125,28.1875
324,1727267853184,0.5732422,0.7158203,-0.030273438,-142.65625,89.65625,41.1875
325,1727267853213,-0.32128906,-0.5683594,0.33691406,-50.78125,67.71875,85.1875
326,1727267853245,-0.55078125,-0.8105469,-0.24316406,201.09375,1.875,15.1875
327,1727267853275,-0.87597656,-0.22070312,-0.08886719,-134.96875,21.15625,-91.09375
328,1727267853339,-2.0,-0.3466797,-0.099609375,-120.5,20.8125,-103.15625
329,1727267853369,-0.9580078,0.96191406,-0.203125,-89.84375,-63.5625,68.03125
330,1727267853393,-2.0,0.3564453,-0.56347656,252.78125,-12.34375,130.96875
331,1727267853458,-2.0,-0.5361328,-0.7636719,379.375,128.46875,180.21875
332,1727267853491,-1.5585938,-0.96191406,0.3623047,-390.8125,77.625,149.65625
333,1727267853513,-1.4091797,-0.48828125,1.1943359,-93.59375,-6.0625,99.15625
334,1727267853577,-0.8232422,-0.47460938,-0.27441406,45.28125,-9.0,65.15625
335,1727267853607,0.34375,0.03125,-0.1953125,-4.09375,78.90625,121.9375
336,1727267853633,0.390625,-1.4433594,0.15625,54.84375,50.71875,76.59375
337,1727267853693,-0.20117188,-0.46289062,0.7158203,-123.5,-83.28125,-111.28125
338,1727267853728,-0.34375,0.5957031,0.39746094,-15.15625,-98.78125,-89.625
339,1727267853753,-1.4404297,-0.05078125,0.064453125,57.0,-122.03125,-221.34375
340,1727267853813,-2.0,-0.49121094,-0.09667969,133.53125,-54.8125,-245.375
341,1727267853844,-2.0,0.4560547,-0.08300781,93.78125,-51.78125,-49.09375
342,1727267853903,-1.8330078,-0.34960938,-0.47753906,-8.375,-50.1875,-48.78125
343,1727267853933,-1.0683594,-0.7949219,0.17089844,-194.15625,11.09375,-46.34375
344,1727267853963,-0.5,0.17382812,-0.13476562,108.625,13.84375,-10.625
345,1727267853994,0.3203125,0.60839844,-0.43945312,60.71875,36.84375,49.46875
346,1727267854053,0.67285156,0.5175781,-0.030273438,-72.53125,60.40625,72.0
347,1727267854088,-0.14453125,-0.18457031,0.4609375,-18.8125,45.03125,35.1875
348,1727267854114,-0.7363281,-1.1669922,0.4140625,247.78125,7.375,-11.0
349,1727267854173,-0.18554688,-0.27246094,-0.7324219,-76.5625,-52.375,-109.875
350,1727267854204,-2.0,1.4287109,1.2255859,-184.90625,33.25,-29.125
351,1727267854233,0.034179688,0.13085938,1.2539062,45.34375,-0.875,-29.1875
352,1727267854293,-1.5390625,0.66796875,-0.50390625,92.6875,-8.6875,133.03125
353,1727267854324,-2.0,-0.12988281,-0.8095703,88.375,82.75,157.21875
354,1727267854356,-1.7304688,-1.4140625,-0.3095703,-55.0625,166.84375,204.28125
355,1727267854413,-1.5527344,-0.36914062,1.3232422,-294.3125,27.6875,84.625
356,1727267854444,-1.0917969,-0.3701172,0.0234375,213.375,-4.59375,70.34375
357,1727267854487,-0.20214844,-0.08300781,-0.19921875,6.09375,28.0625,76.53125
358,1727267854551,0.28222656,-0.49609375,-0.15136719,-62.5625,18.65625,90.1875
359,1727267854564,0.21972656,-1.0185547,0.11035156,-18.75,19.625,13.53125
360,1727267854595,-0.2939453,-0.26660156,1.03125,-106.8125,-20.09375,-110.25
361,1727267854653,-0.43652344,0.4375,0.32910156,-88.875,-118.0,-103.65625
362,1727267854685,-2.0,-0.1640625,0.171875,239.0,-124.21875,-294.5625
363,1727267854713,-2.0,0.1796875,-0.33789062,81.53125,-47.625,-165.71875
364,1727267854773,-2.0,-0.5371094,-0.13671875,-111.15625,-73.1875,-104.5625
365,1727267854803,-1.6982422,-0.8623047,-0.27246094,-27.46875,-20.28125,-49.34375
366,1727267854834,-0.97265625,-0.22460938,0.13476562,30.4375,17.625,-20.53125
367,1727267854893,-0.4423828,0.4658203,-0.2607422,158.4375,-16.25,-6.53125
368,1727267854923,0.28320312,0.5019531,-0.32910156,36.78125,40.09375,31.1875
369,1727267854953,0.6376953,0.6191406,0.08691406,-73.3125,67.25,58.28125
370,1727267855013,-0.12890625,-0.41015625,0.46972656,-61.1875,42.03125,60.90625
371,1727267855043,-0.45117188,-0.6123047,0.048828125,77.0,-0.25,19.625
372,1727267855073,-0.4296875,-0.14648438,-0.63378906,93.78125,21.96875,-62.21875
373,1727267855133,-2.0,-0.5126953,-0.8515625,-707.03125,-139.34375,-195.28125
374,1727267855164,-0.3251953,0.041992188,0.53222656,-51.53125,88.59375,44.28125
375,1727267855194,-2.0,0.41015625,-0.390625,-101.6875,-25.15625,117.40625
376,1727267855253,-1.8359375,-0.20898438,-0.49316406,389.4375,81.21875,194.6875
377,1727267855296,-1.828125,-0.8095703,-0.17675781,338.71875,128.09375,138.65625
378,1727267855317,-1.6748047,-0.17382812,0.63183594,-353.96875,-15.03125,73.09375
379,1727267855373,-0.9277344,-0.51660156,0.12890625,-75.28125,-70.75,72.5625
380,1727267855405,-0.0625,-0.3671875,-0.08886719,12.75,12.5,98.5625
381,1727267855463,0.5810547,-0.97753906,-0.125,73.21875,59.90625,128.65625
382,1727267855493,0.140625,-0.8408203,0.47460938,-11.25,-1.0625,-25.71875
383,1727267855523,-0.29296875,0.19628906,0.4482422,36.78125,-45.0,-104.9375
384,1727267855558,-0.63964844,0.28222656,0.20605469,-64.59375,-114.53125,-124.15625
385,1727267855613,-2.0,-0.3388672,0.44433594,207.75,-141.3125,-333.5
386,1727267855645,-2.0,0.08691406,-0.11328125,128.65625,-77.65625,-134.34375
387,1727267855674,-2.0,-0.52441406,-0.6230469,-0.125,-57.28125,-132.28125
388,1727267855733,-1.6230469,-0.9482422,0.23632812,-139.53125,-37.5625,-97.3125
389,1727267855793,-0.8623047,-0.16894531,-0.15527344,145.1875,-15.625,-17.21875
390,1727267855824,-0.06640625,0.7861328,-0.38476562,133.03125,-35.34375,21.28125
391,1727267855858,0.56640625,0.70996094,-0.2705078,-34.9375,59.8125,53.15625
392,1727267855883,0.5361328,0.4814453,0.35351562,-83.625,91.59375,80.375
393,1727267855914,-0.296875,-0.7626953,0.63378906,-105.4375,12.4375,38.6875
394,1727267855974,-0.73828125,-0.9140625,-0.9501953,222.59375,31.71875,-10.5
395,1727267856010,-1.3701172,0.0009765625,-0.53027344,-25.78125,16.09375,-62.15625
396,1727267856034,-1.0947266,-0.22460938,2.0,-312.40625,37.34375,-42.3125
397,1727267856093,-1.4121094,1.0869141,-0.2548828,-118.125,-69.46875,85.25
398,1727267856127,-2.0,0.38378906,-0.5566406,187.65625,-28.59375,178.5
399,1727267856184,-2.0,-1.0380859,-0.59765625,434.25,111.125,189.25
400,1727267856214,-1.34375,-1.0332031,0.41015625,-186.46875,88.71875,154.90625
401,1727267856244,-1.1835938,-0.5986328,1.3857422,-174.09375,38.625,74.03125
402,1727267856273,-0.38085938,-0.1640625,-0.3779297,33.6875,16.65625,65.78125
403,1727267856333,0.38085938,-0.2998047,0.22167969,-101.15625,18.90625,101.59375
404,1727267856363,0.103515625,-1.3027344,0.18554688,-8.25,13.59375,15.4375
405,1727267856396,0.057617188,-0.3173828,0.21289062,111.625,-30.71875,-81.375
406,1727267856453,-0.6611328,0.4921875,0.51464844,-73.5625,-129.21875,-134.53125
407,1727267856483,-2.0,-0.140625,0.23730469,112.15625,-102.75,-252.03125
408,1727267856513,-2.0,0.045898438,-0.28808594,257.25,-78.5625,-199.125
409,1727267856574,-2.0,-0.22265625,-0.13378906,-50.75,-93.8125,-71.0
410,1727267856603,-1.4316406,-0.71875,-0.15039062,-87.65625,-33.84375,-63.4375
411,1727267856633,-0.8046875,-0.016601562,-0.036132812,-68.5625,-7.21875,-45.4375
412,1727267856694,-0.22753906,0.5048828,-0.17578125,102.53125,4.3125,-4.03125
413,1727267856724,0.39453125,0.49023438,-0.3720703,-3.75,56.0625,42.78125
414,1727267856754,0.5625,0.49902344,-0.0029296875,-131.53125,84.40625,30.3125
415,1727267856815,-0.29296875,-0.2890625,0.3408203,-30.34375,37.53125,33.75
416,1727267856843,-0.7685547,-0.8857422,-0.09277344,142.9375,65.90625,1.03125
417,1727267856874,-0.6875,-0.26953125,-0.49316406,-101.6875,19.03125,-88.625
418,1727267856933,-2.0,0.2607422,-1.2216797,-241.78125,23.90625,-85.40625
419,1727267856964,-1.0966797,0.90527344,-0.265625,31.28125,6.8125,42.09375
420,1727267856995,-2.0,0.46875,-0.5751953,70.34375,-39.125,175.8125
421,1727267857054,-1.6679688,-0.24414062,-0.5546875,385.71875,100.3125,200.25
422,1727267857084,-1.8222656,-0.8017578,0.5654297,106.6875,221.78125,135.46875
423,1727267857115,-1.0234375,-0.93652344,1.0175781,-610.78125,-19.0625,58.34375
424,1727267857175,-0.6064453,-0.4658203,-0.39648438,53.375,-83.9375,41.125
425,1727267857204,0.07519531,-0.33789062,0.028320312,3.46875,50.9375,79.6875
426,1727267857233,0.10449219,-1.0673828,0.21289062,-11.25,19.15625,50.40625
427,1727267857293,-0.072265625,-0.53222656,0.37304688,52.78125,-29.96875,-88.28125
428,1727267857324,-0.40527344,0.5908203,0.46777344,-72.65625,-132.21875,-108.78125
429,1727267857354,-1.1005859,0.18945312,0.12695312,3.53125,-115.1875,-167.1875
430,1727267857414,-2.0,-0.78027344,-0.0126953125,192.3125,0.09375,-301.90625
431,1727267857443,-2.0,0.10644531,-0.06640625,93.1875,-71.125,-83.21875
432,1727267857474,-1.9746094,-0.41210938,-0.1484375,-88.9375,-35.15625,-66.59375
433,1727267857534,-1.3271484,-0.73339844,0.12109375,-108.59375,-27.25,-39.375
434,1727267857623,-0.7011719,0.032226562,-0.1796875,149.59375,-33.15625,8.84375
435,1727267857713,-0.025390625,0.5078125,-0.39941406,37.28125,-15.53125,32.75
436,1727267857743,0.46289062,0.3544922,-0.30859375,-65.6875,68.21875,45.625
437,1727267857774,0.52441406,-0.16992188,0.16699219,-158.40625,88.1875,25.1875
438,1727267857804,-0.43945312,-0.35546875,0.27734375,36.125,4.6875,19.21875
439,1727267857835,-0.5839844,-0.4140625,-0.40625,210.125,50.21875,12.0625
440,1727267857894,-2.0,-0.13378906,0.47070312,-274.6875,-122.34375,-174.625
441,1727267857924,-0.5498047,0.74316406,-0.5703125,156.84375,3.90625,22.375
442,1727267857953,-1.9267578,0.7089844,-0.5488281,-135.75,11.09375,116.125
443,1727267857988,-2.0,-0.11816406,-0.7109375,190.59375,22.3125,171.6875
444,1727267858020,-2.0,-1.1464844,-0.47070312,351.1875,171.375,208.46875
445,1727267858044,-1.7929688,-0.5957031,0.99121094,-673.78125,-40.46875,85.625
446,1727267858073,-0.96484375,-0.6152344,-0.36132812,145.125,-99.125,46.90625
447,1727267858103,0.23730469,-0.14453125,0.020507812,39.0,48.25,83.53125
448,1727267858133,0.546875,-0.5986328,0.32910156,-124.78125,-27.78125,45.15625
449,1727267858165,0.1796875,-0.84472656,-0.09765625,120.46875,4.125,-29.625
450,1727267858194,-0.48632812,-0.068359375,0.45898438,-7.53125,-81.6875,-117.25
451,1727267858258,-1.5478516,0.12695312,0.38964844,-33.84375,-95.71875,-194.0
452,1727267858284,-2.0,-0.00390625,-0.4111328,397.9375,-37.78125,-205.40625
453,1727267858314,-2.0,-0.015625,-0.059570312,47.71875,-43.84375,-119.875
454,1727267858378,-1.7158203,-0.29003906,-0.20898438,-45.5625,-69.28125,-40.71875
455,1727267858464,-1.1601562,-0.65722656,-0.11425781,-100.71875,-27.0625,-59.84375
456,1727267858498,-0.5595703,0.033203125,-0.119140625,73.15625,-24.96875,-27.53125
457,1727267858524,0.171875,0.6142578,-0.40722656,98.9375,-10.28125,14.5
458,1727267858614,0.9511719,0.6142578,-0.27441406,8.59375,78.53125,45.5625
459,1727267858644,0.2783203,0.25195312,0.026367188,-162.375,60.59375,1.5
460,1727267858673,-0.41601562,-0.23339844,0.45898438,-6.0625,31.84375,9.6875
461,1727267858703,-1.1748047,-1.0791016,-0.1328125,-24.625,-11.90625,-55.75
462,1727267858735,-2.0,-0.7871094,-0.5185547,-177.5,-39.875,-177.4375
463,1727267858764,-1.1025391,0.8496094,-0.4794922,-25.15625,-2.21875,8.15625
464,1727267858794,-1.9384766,0.7265625,-0.4794922,-80.8125,55.40625,147.5
465,1727267858823,-2.0,-0.095703125,-0.70703125,87.03125,8.84375,171.5
466,1727267858853,-1.8691406,-0.8388672,-0.44433594,228.5625,156.96875,207.375
467,1727267858883,-1.3720703,-1.0986328,1.5322266,-666.03125,-31.15625,100.8125
468,1727267858913,-0.8535156,-0.33496094,-0.43164062,179.78125,-48.34375,77.0
469,1727267858974,0.052734375,-0.22851562,0.16113281,-110.5,16.28125,98.3125
470,1727267859038,0.54589844,-1.0898438,0.08203125,-53.1875,-4.71875,66.03125
471,1727267859064,-0.02734375,-0.2919922,0.55859375,82.5625,-45.1875,-85.34375
472,1727267859098,-0.49902344,0.23828125,0.4189453,-26.5,-127.875,-133.75
473,1727267859125,-1.2939453,-0.15429688,0.080078125,57.25,-104.03125,-211.625
474,1727267859213,-2.0,-0.39257812,-0.119140625,202.125,-27.53125,-224.125
475,1727267859274,-2.0,-0.051757812,0.07421875,105.75,-64.53125,-107.375
476,1727267859304,-1.9951172,-0.18164062,-0.22851562,10.1875,-30.65625,-65.8125
477,1727267859333,-1.1464844,-0.60058594,-0.040039062,-156.4375,-3.3125,-56.65625
478,1727267859366,-0.4921875,0.056640625,-0.02734375,47.90625,3.34375,-3.90625
479,1727267859393,0.07421875,0.59472656,-0.3173828,65.28125,10.0625,20.90625
480,1727267859427,0.6699219,0.41308594,-0.40820312,-72.46875,130.78125,53.28125
481,1727267859453,0.15429688,-0.16503906,0.3876953,-123.5625,50.71875,20.75
482,1727267859483,-0.5205078,-0.32910156,0.25390625,97.65625,-2.03125,6.28125
483,1727267859513,-0.66015625,-0.5751953,-0.48242188,105.03125,-1.46875,-63.125
484,1727267859603,-2.0,-0.4638672,-0.24902344,-416.15625,-39.4375,-129.40625
485,1727267859664,-1.515625,0.7753906,0.0546875,-52.8125,17.3125,21.71875
486,1727267859693,-2.0,0.37695312,-0.3798828,-72.28125,-13.8125,135.46875
487,1727267859724,-1.828125,-0.2783203,-0.5449219,286.25,35.1875,166.65625
488,1727267859753,-1.8017578,-0.671875,-0.4970703,233.625,122.78125,173.5625
489,1727267859784,-1.0048828,-1.0205078,2.0,-719.8125,-87.65625,68.78125
490,1727267859813,-0.65722656,-0.33789062,-0.5,67.375,-24.25,79.875
491,1727267859845,0.20507812,-0.29101562,-0.030273438,-52.1875,32.5625,98.125
492,1727267859874,0.3173828,-1.0322266,0.11425781,83.25,49.0625,86.21875
493,1727267859938,-0.038085938,-0.60839844,0.43164062,21.59375,-24.78125,-41.875
494,1727267859964,-0.42382812,0.5341797,0.4404297,-30.90625,-121.90625,-100.34375
495,1727267859995,-1.7832031,-0.103515625,0.03125,34.53125,-110.4375,-231.21875
496,1727267860054,-2.0,0.2705078,0.06640625,149.34375,-94.1875,-241.78125
497,1727267860089,-2.0,0.11816406,-0.33203125,72.0,-89.375,-68.5625
498,1727267860113,-1.7314453,-0.6748047,-0.4423828,-90.21875,-37.0625,-48.21875
499,1727267860238,-1.1289062,-0.4267578,0.16308594,-94.125,-6.78125,-39.4375
500,1727267860265,-0.44726562,0.33203125,-0.30566406,142.1875,-11.25,-9.90625
501,1727267860305,0.17480469,0.56640625,-0.30859375,51.5,-3.8125,24.46875
502,1727267860353,0.8720703,0.6064453,-0.07910156,-9.71875,70.71875,56.4375
503,1727267860383,0.033203125,-0.068359375,0.33203125,-126.53125,62.0,20.5625
504,1727267860474,-0.26953125,-0.38867188,-0.1875,43.875,15.625,8.28125
505,1727267860509,-0.9707031,-1.0039062,-0.12988281,-14.96875,9.875,-66.90625
506,1727267860536,-2.0,-0.056640625,-0.53515625,-157.5625,6.5,-137.28125
507,1727267860564,-1.28125,1.2666016,-0.32617188,-14.25,-45.0625,32.28125
508,1727267860594,-2.0,0.6826172,-0.35351562,17.4375,3.40625,131.15625
509,1727267860623,-2.0,-0.34375,-0.63671875,250.28125,39.40625,179.6875
510,1727267860691,-1.8291016,-0.9111328,-0.4716797,217.21875,150.75,183.46875
511,1727267860744,-1.34375,-0.59472656,1.4355469,-610.71875,-101.28125,78.0
512,1727267860774,-0.89746094,-0.63671875,-0.22363281,97.65625,-48.125,70.40625
513,1727267860804,-0.06933594,-0.3232422,-0.07128906,31.0625,27.5625,56.5625
514,1727267860841,0.5419922,-0.5361328,-0.02734375,-18.8125,8.15625,84.28125
515,1727267860863,-0.053710938,-0.9511719,0.3310547,46.0625,36.90625,-15.8125
516,1727267860893,-0.45898438,0.20996094,0.61035156,12.3125,-79.90625,-119.875
517,1727267860924,-0.765625,0.3486328,0.1640625,-152.90625,-163.59375,-171.78125
518,1727267860961,-2.0,-0.8222656,0.3984375,145.8125,4.9375,-338.09375
519,1727267860984,-2.0,0.14648438,-0.25683594,259.1875,-85.03125,-74.125
520,1727267861015,-1.9453125,-0.19238281,-0.5449219,-63.75,-47.0,-85.34375
521,1727267861044,-1.5800781,-0.82714844,0.4794922,-225.84375,-16.1875,-73.6875
522,1727267861074,-0.8095703,-0.051757812,-0.24511719,151.71875,-18.8125,-7.15625
523,1727267861133,-0.0078125,0.5966797,-0.36816406,53.8125,-12.46875,32.875
524,1727267861198,0.671875,0.4873047,-0.24902344,-61.28125,69.5625,62.25
525,1727267861224,0.25195312,0.045898438,0.076171875,-48.59375,81.84375,72.25
526,1727267861261,-0.3798828,-0.84765625,0.4169922,-91.75,53.28125,41.4375
527,1727267861289,-0.6308594,-0.5126953,-0.9140625,243.875,27.8125,-32.90625
528,1727267861347,-0.8300781,0.16210938,-0.23535156,113.8125,58.75,-37.96875
529,1727267861373,-1.9970703,0.22460938,-0.4013672,-198.3125,33.90625,-18.4375
530,1727267861433,-1.1787109,0.71777344,-0.24707031,-109.15625,-4.03125,37.15625
531,1727267861494,-2.0,0.26660156,-0.5390625,33.1875,-18.21875,172.84375
532,1727267861524,-1.9667969,-0.54589844,-0.6347656,434.25,44.46875,181.75
533,1727267861553,-1.4902344,-1.2529297,-0.23339844,0.21875,279.28125,164.15625
534,1727267861583,-1.2001953,-0.96191406,2.0,-682.03125,-11.0,49.25
535,1727267861613,-0.6689453,-0.70214844,-0.49414062,242.0,22.5,93.78125
536,1727267861644,0.25585938,-0.27148438,-0.171875,2.71875,-26.875,61.25
537,1727267861703,0.63378906,-0.6064453,0.41503906,-0.25,61.03125,39.53125
538,1727267861735,-0.09765625,-0.44628906,0.044921875,147.375,9.03125,-51.53125
539,1727267861763,-0.53125,0.3876953,0.5839844,-100.34375,-73.5625,-148.75
540,1727267861824,-1.8115234,-0.10058594,0.265625,-84.84375,-133.375,-251.0625
541,1727267861854,-2.0,-0.1640625,0.0126953125,373.46875,-33.21875,-202.03125
542,1727267861892,-2.0,0.5214844,-0.33496094,122.71875,-108.46875,-31.09375
543,1727267861944,-1.5429688,-0.38964844,-0.62597656,-207.96875,-66.375,-87.0625
544,1727267861980,-1.1835938,-0.5957031,0.17382812,-113.40625,-18.5625,-69.09375
545,1727267862033,-0.5058594,0.08203125,-0.21582031,86.09375,-20.28125,-22.15625
546,1727267862067,0.21875,0.51953125,-0.28027344,29.15625,8.03125,28.125
547,1727267862125,0.7783203,0.41503906,-0.1171875,-25.03125,98.5625,53.34375
548,1727267862153,-0.056640625,-0.08984375,0.20703125,-36.34375,63.28125,28.5
549,1727267862187,-0.3857422,-0.13671875,0.40234375,27.15625,11.15625,-3.0625
550,1727267862214,-0.7548828,-0.58496094,-0.18457031,8.84375,7.6875,-54.75
551,1727267862244,-2.0,-0.35351562,-0.0029296875,-341.1875,-79.25,-185.875
552,1727267862304,-1.2373047,0.91796875,-0.5410156,68.09375,-26.75,29.53125
553,1727267862364,-2.0,0.5449219,-0.47558594,-48.53125,-9.0625,140.5625
554,1727267862394,-2.0,-0.23828125,-0.6044922,287.53125,20.5,175.59375
555,1727267862453,-1.90625,-1.0068359,-0.5498047,378.15625,123.65625,192.96875
556,1727267862484,-1.75,-0.6767578,0.4560547,-758.375,61.25,82.1875
557,1727267862519,-0.7207031,-0.6513672,-0.057617188,107.34375,-86.1875,50.46875
558,1727267862544,-0.07421875,-0.3388672,-0.078125,19.21875,39.71875,58.53125
559,1727267862573,0.375,-0.68359375,0.09472656,-22.46875,28.25,67.0625
560,1727267862609,0.10546875,-0.66015625,0.38476562,110.03125,-34.8125,-52.5
561,1727267862668,-0.4794922,0.3798828,0.37402344,-31.15625,-120.625,-130.625
562,1727267862694,-1.3173828,0.11816406,0.26171875,-94.9375,-123.25,-205.71875
563,1727267862723,-2.0,-0.4765625,0.421875,84.21875,-62.75,-294.625
564,1727267862813,-2.0,-0.109375,-0.2783203,180.03125,-67.46875,-70.5625
565,1727267862844,-1.8105469,-0.8964844,-0.3330078,-74.53125,-38.34375,-66.46875
566,1727267862873,-1.2626953,-0.44726562,0.17578125,-14.40625,-34.875,-42.6875
567,1727267862934,-0.51953125,0.3857422,-0.25878906,143.0,-13.03125,12.625
568,1727267862964,0.19238281,0.70410156,-0.3330078,-17.15625,6.8125,26.53125
569,1727267863054,0.70410156,0.48535156,-0.19335938,-108.65625,78.28125,59.96875
570,1727267863084,0.16699219,-0.109375,0.18261719,-80.03125,72.6875,57.125
571,1727267863114,-0.6269531,-0.55566406,0.50878906,47.78125,-5.375,32.75
572,1727267863144,-0.5996094,-0.5673828,-0.7841797,231.3125,0.0,-30.15625
573,1727267863233,-2.0,-0.25683594,-0.49609375,-706.6875,-155.71875,-219.5625
574,1727267863297,-0.75878906,0.90527344,-0.6044922,144.625,1.03125,32.46875
575,1727267863323,-2.0,0.5908203,-0.5371094,-42.4375,-43.53125,130.90625
576,1727267863354,-2.0,-0.22363281,-0.78125,397.3125,44.0625,181.625
577,1727267863389,-1.8769531,-1.3457031,-0.2685547,235.09375,230.15625,160.625
578,1727267863443,-1.1005859,-1.0185547,2.0,-774.75,-125.75,10.59375
579,1727267863474,-0.765625,-0.4345703,-0.52734375,150.75,-48.34375,64.25
580,1727267863504,0.26660156,-0.22949219,-0.12792969,-7.40625,2.59375,57.71875
581,1727267863533,0.53515625,-0.54296875,-0.037109375,13.34375,-20.71875,49.90625
582,1727267863564,0.078125,-0.625,0.24414062,-3.8125,68.46875,-35.21875
583,1727267863593,-0.39257812,-0.05078125,0.70214844,-63.6875,-54.8125,-97.125
584,1727267863624,-0.5732422,0.11230469,0.17773438,-2.6875,-116.71875,-121.71875
585,1727267863654,-2.0,-1.1064453,0.12207031,308.875,-96.34375,-353.28125
586,1727267863684,-2.0,0.4580078,0.13378906,102.28125,-66.125,-72.46875
587,1727267863719,-2.0,-0.0078125,-0.5371094,83.59375,-71.625,-91.8125
588,1727267863774,-1.4873047,-0.7109375,0.31054688,-247.4375,-14.71875,-72.78125
589,1727267863807,-0.7050781,0.03515625,-0.078125,101.59375,-13.375,-1.0625
590,1727267863833,-0.1875,0.6171875,-0.39746094,94.53125,-20.53125,50.40625
591,1727267863868,0.47265625,0.2861328,-0.16601562,-79.125,23.90625,104.40625
592,1727267863893,0.6621094,0.22753906,-0.20410156,-108.53125,100.5,60.90625
593,1727267863927,-0.29785156,-0.2109375,0.50878906,22.25,48.03125,12.0625
594,1727267863984,-0.67871094,-0.7392578,-0.5253906,303.21875,80.71875,10.71875
595,1727267864021,-0.6035156,-0.4345703,-0.41503906,-50.78125,33.0625,-75.34375
596,1727267864105,-2.0,0.7109375,-0.18066406,-569.46875,-30.65625,-98.46875
597,1727267864163,-1.2802734,0.66796875,-0.20800781,-246.21875,-55.1875,69.125
598,1727267864193,-2.0,-0.07128906,-0.5751953,172.03125,-95.65625,166.96875
599,1727267864224,-1.7226562,-0.8642578,-0.64941406,539.40625,122.78125,198.34375
600,1727267864256,-1.3808594,-0.234375,1.125,152.9375,318.65625,124.5625
601,1727267864291,-0.7607422,-0.5996094,1.1708984,-497.9375,-31.5625,-0.5625
602,1727267864313,-0.171875,-0.35839844,-0.2841797,17.0,-8.8125,87.25
603,1727267864343,0.2421875,-0.6748047,-0.08886719,26.78125,4.0,99.46875
604,1727267864378,0.27148438,-1.0458984,0.19335938,9.125,70.1875,28.25
605,1727267864403,-0.20117188,0.02734375,0.6376953,37.21875,-59.21875,-86.0625
606,1727267864463,-0.5341797,0.39257812,0.34472656,-109.4375,-141.75,-115.0625
607,1727267864495,-2.0,-0.36035156,0.17285156,183.28125,-107.5625,-257.65625
608,1727267864526,-2.0,0.17285156,-0.041992188,224.90625,-31.875,-184.90625
609,1727267864583,-2.0,0.029296875,-0.20019531,85.1875,-85.40625,-79.375
610,1727267864614,-1.4824219,-0.40527344,-0.3076172,13.0,-65.125,-29.25
611,1727267864648,-0.9013672,-0.072265625,-0.125,-47.5625,-11.1875,-34.875
612,1727267864704,-0.21386719,0.5,-0.12109375,-3.1875,1.9375,-10.875
613,1727267864734,0.25683594,0.39160156,-0.21972656,-6.125,37.03125,55.03125
614,1727267864764,0.6777344,0.30664062,-0.17578125,-22.59375,68.40625,98.0
615,1727267864829,-0.00390625,-0.18066406,0.21582031,-152.59375,29.40625,10.84375
616,1727267864884,-0.5800781,-0.7558594,-0.01171875,141.90625,8.71875,-24.0
617,1727267864914,-2.0,-0.24902344,2.0,-459.5625,95.625,-224.8125
618,1727267864944,-1.8984375,0.6220703,-0.171875,106.90625,51.1875,39.15625
619,1727267864973,-1.5292969,0.6660156,-0.19433594,-243.96875,-46.03125,77.625
620,1727267865006,-2.0,0.14453125,-0.47460938,116.1875,-32.59375,146.59375
621,1727267865063,-2.0,-0.6542969,-0.5058594,330.0,66.6875,157.75
622,1727267865094,-1.5800781,-0.8886719,-0.20996094,86.15625,214.09375,165.375
623,1727267865124,-0.7626953,-1.1181641,1.9628906,-800.75,-175.78125,46.5625
624,1727267865183,-0.38378906,-0.34179688,-0.21875,228.25,-27.25,65.0625
625,1727267865220,0.14746094,-0.34277344,-0.103515625,2.84375,44.46875,54.625
626,1727267865244,0.4501953,-1.0830078,0.2607422,1.8125,14.375,42.21875
627,1727267865303,-0.09765625,-0.31933594,0.19921875,135.78125,-52.6875,-80.46875
628,1727267865338,-0.6621094,0.31835938,0.3623047,-111.03125,-144.53125,-165.125
629,1727267865367,-2.0,-0.4033203,0.16015625,108.625,-104.15625,-275.65625
630,1727267865424,-2.0,0.022460938,0.06347656,181.4375,-50.5625,-157.71875
631,1727267865454,-2.0,0.16601562,-0.12402344,-33.09375,-42.875,-93.34375
632,1727267865484,-1.5917969,-0.68066406,-0.0546875,-91.25,-40.375,-33.21875
633,1727267865579,-0.8222656,-0.4560547,0.053710938,30.0625,16.65625,-4.40625
634,1727267865604,-0.32421875,0.4423828,-0.24121094,70.96875,-1.65625,18.96875
635,1727267865638,0.30371094,0.47753906,-0.14941406,8.59375,40.09375,65.59375
636,1727267865664,0.62597656,0.3076172,0.11621094,-74.21875,110.53125,52.59375
637,1727267865693,-0.23339844,-0.21289062,0.17480469,-9.28125,39.34375,23.96875
638,1727267865728,-0.6074219,-0.6582031,-0.2265625,153.96875,20.75,-18.5
639,1727267865784,-0.34960938,0.001953125,-0.16699219,18.125,21.40625,-43.15625
640,1727267865814,-2.0,0.3232422,-1.3330078,-466.5,-143.625,-199.125
641,1727267865848,0.115234375,0.5517578,-0.048828125,-22.53125,57.25,50.03125
642,1727267865904,-2.0,0.38183594,-0.4794922,-157.0625,-63.4375,106.1875
643,1727267865935,-1.9794922,-0.37402344,-0.63671875,507.5625,98.375,183.625
644,1727267865968,-1.6328125,-1.0371094,-0.08886719,195.65625,212.21875,143.34375
645,1727267866057,-1.2207031,-0.06542969,1.8671875,-664.3125,-76.5625,35.5625
646,1727267866088,-0.8017578,-0.65625,-0.5439453,170.03125,-34.8125,85.4375
647,1727267866114,0.17773438,-0.3017578,-0.0126953125,-68.5625,43.4375,94.59375
648,1727267866146,0.421875,-1.1748047,0.15527344,-9.96875,13.46875,74.875
649,1727267866173,-0.11816406,-0.43066406,0.5527344,116.875,-29.5625,-77.65625
650,1727267866204,-0.46777344,0.54003906,0.6484375,-99.25,-158.03125,-125.5
651,1727267866264,-1.3339844,-0.171875,-0.13867188,130.28125,-120.5,-189.21875
652,1727267866325,-2.0,-0.953125,-0.27441406,353.9375,-12.40625,-267.21875
653,1727267866353,-1.9833984,0.63183594,-0.48535156,-4.96875,-153.09375,-44.875
654,1727267866390,-1.7636719,-0.22851562,-0.16210938,-367.5625,-35.0,-87.53125
655,1727267866420,-1.4804688,-1.2490234,0.087890625,-63.3125,9.5,-39.0625
656,1727267866444,-0.5644531,0.083984375,-0.33496094,133.84375,-23.5625,-9.0625
657,1727267866504,0.1796875,0.6230469,-0.3017578,54.0,-19.90625,40.5
658,1727267866533,0.8261719,0.5810547,-0.009765625,-78.875,49.71875,72.96875
659,1727267866563,0.107421875,-0.060546875,0.2421875,-46.28125,64.75,18.78125
660,1727267866625,-0.41308594,-0.27246094,0.11230469,88.125,19.625,7.125
661,1727267866659,-0.6796875,-0.51953125,-0.049804688,150.4375,33.96875,-2.09375
662,1727267866684,-2.0,-0.059570312,-0.82714844,-374.21875,-145.9375,-215.53125
663,1727267866743,-0.43847656,0.7597656,-0.09082031,-140.59375,21.65625,20.75
664,1727267866834,-2.0,0.5996094,-0.29492188,-146.8125,-11.125,89.40625
665,1727267866896,-2.0,-0.16894531,-0.6376953,286.71875,-34.5625,189.8125
666,1727267866924,-1.6611328,-0.6328125,-0.52246094,311.375,149.09375,185.78125
667,1727267866954,-1.4394531,0.3076172,1.6396484,-60.4375,306.0625,115.71875
668,1727267866985,-0.6699219,-0.8955078,0.93847656,-505.75,-43.15625,61.3125
669,1727267867015,-0.12109375,-0.40234375,-0.08984375,87.375,10.375,71.9375
670,1727267867049,0.296875,-0.66015625,-0.19335938,77.875,12.625,82.1875
671,1727267867074,-0.12207031,-0.4033203,0.0087890625,46.4375,47.03125,3.09375
672,1727267867104,0.00390625,-0.35839844,0.46484375,49.84375,0.53125,-41.6875
673,1727267867134,-0.17675781,0.46191406,0.60253906,-24.25,-139.53125,-69.28125
674,1727267867163,-1.3242188,-0.42578125,-0.072265625,92.03125,-131.125,-218.46875
675,1727267867229,-2.0,-0.22363281,-0.15722656,249.0625,22.9375,-230.375
676,1727267867256,-2.0,0.6533203,-0.4267578,-73.375,-116.03125,-105.96875
677,1727267867283,-1.9667969,-0.6767578,0.18164062,-238.84375,-51.65625,-65.125
678,1727267867343,-1.2333984,-0.60839844,0.08886719,-74.46875,-19.125,-58.65625
679,1727267867374,-0.4658203,0.016601562,-0.265625,106.375,-23.8125,-13.0625
680,1727267867403,0.068359375,0.49023438,-0.3779297,49.25,-14.71875,33.5
681,1727267867496,0.63183594,0.28808594,-0.30273438,-8.4375,66.21875,60.46875
682,1727267867524,0.27148438,-0.21777344,0.2685547,-87.78125,72.6875,53.625
683,1727267867584,-0.4658203,0.0107421875,0.17675781,119.5625,7.625,18.21875
684,1727267867614,-0.7480469,-0.71875,-0.33007812,137.8125,21.40625,-14.1875
685,1727267867704,-2.0,0.37695312,-0.21289062,-247.28125,-109.8125,-154.25
686,1727267867734,-1.0966797,0.73339844,-0.203125,-87.34375,-61.71875,18.0
687,1727267867764,-2.0,0.5966797,-0.24316406,-74.59375,-36.15625,123.59375
688,1727267867800,-2.0,-0.14941406,-0.54296875,375.09375,-33.9375,189.5625
689,1727267867824,-1.8076172,-0.66015625,-0.7480469,275.375,174.0,171.4375
690,1727267867888,-1.4375,-0.6982422,-0.13964844,-100.53125,221.71875,110.15625
691,1727267867914,-0.6767578,-1.1748047,1.1660156,-545.78125,-41.15625,41.96875
692,1727267867945,-0.07421875,-0.5029297,-0.25390625,156.0,37.8125,74.3125
693,1727267867975,0.06640625,-0.7402344,0.17089844,-31.09375,15.78125,62.71875
694,1727267868004,0.18066406,-0.76464844,0.32714844,132.375,39.40625,-14.34375
695,1727267868038,-0.31933594,0.16699219,0.32421875,123.28125,-80.21875,-113.125
696,1727267868064,-1.6826172,-0.08105469,0.18652344,-109.375,-169.625,-255.25
697,1727267868125,-2.0,0.28027344,0.045898438,280.0625,-26.3125,-220.09375
698,1727267868154,-2.0,0.23828125,-0.44726562,112.96875,-131.78125,-95.53125
699,1727267868185,-1.7949219,-0.15136719,-0.4033203,-112.5625,-83.6875,-44.75
700,1727267868214,-1.0917969,-0.66308594,-0.125,-76.125,-22.78125,-59.15625
701,1727267868248,-0.5566406,0.038085938,-0.13867188,72.75,-13.75,-24.0
702,1727267868334,0.24707031,0.4453125,-0.36816406,-0.3125,-0.625,22.5625
703,1727267868366,0.8095703,0.31933594,-0.07324219,-54.21875,72.75,62.65625
704,1727267868394,0.21582031,0.09277344,0.10449219,-17.96875,42.53125,18.90625
705,1727267868424,-0.44140625,-0.026367188,0.67285156,83.65625,20.3125,11.71875
706,1727267868454,-1.2255859,-1.1220703,-0.4892578,53.875,-6.53125,-53.1875
707,1727267868514,-2.0,-0.18164062,-0.8310547,-388.875,-127.46875,-170.84375
708,1727267868574,-0.71484375,0.91796875,-0.109375,-67.75,10.40625,29.03125
709,1727267868610,-1.7148438,0.6777344,-0.34960938,75.78125,-6.71875,126.875
710,1727267868634,-1.9824219,0.016601562,-0.5136719,183.21875,32.40625,170.875
711,1727267868669,-1.9111328,-0.6464844,-0.5078125,152.34375,136.40625,175.53125
712,1727267868693,-1.5048828,-0.86816406,0.546875,-22.21875,175.46875,111.625
713,1727267868723,-0.8496094,-1.0683594,0.97558594,-184.65625,-66.84375,13.03125
714,1727267868789,-0.09765625,-0.17382812,-0.2685547,30.0,11.71875,49.1875
715,1727267868814,0.2607422,-0.49316406,0.022460938,-52.03125,-33.28125,61.75
716,1727267868844,0.21484375,-0.8828125,0.25976562,81.34375,49.0,5.78125
717,1727267868903,-0.13476562,0.080078125,0.4296875,50.78125,-69.96875,-90.90625
718,1727267868933,-0.49804688,0.20019531,0.12792969,-119.09375,-142.09375,-156.3125
719,1727267868964,-2.0,-0.5830078,0.13574219,190.78125,-64.78125,-292.5
720,1727267869025,-2.0,0.42285156,0.076171875,228.625,-42.5,-120.4375
721,1727267869053,-2.0,-0.06542969,-0.56640625,-29.75,-38.21875,-50.96875
722,1727267869083,-1.8398438,-0.89941406,0.10644531,-109.375,2.0625,-42.25
723,1727267869143,-0.8876953,-0.08105469,-0.11230469,17.125,-4.09375,-17.34375
724,1727267869173,-0.16894531,0.53222656,-0.234375,88.96875,-21.3125,26.03125
725,1727267869209,0.3720703,0.44140625,0.0078125,-18.25,26.34375,74.9375
726,1727267869264,0.5136719,0.15429688,-0.038085938,-70.5,74.875,59.3125
727,1727267869295,-0.22363281,-0.5839844,0.33203125,-7.8125,16.46875,36.96875
728,1727267869328,-0.8300781,-0.64160156,-0.009765625,193.21875,24.71875,-13.3125
729,1727267869415,-0.734375,-0.41796875,-0.60253906,-28.34375,-19.59375,-78.8125
730,1727267869443,-2.0,0.234375,-0.72265625,-517.78125,-45.375,-163.28125
731,1727267869474,-0.61816406,0.76171875,-0.17578125,-32.71875,-37.96875,21.28125
732,1727267869504,-2.0,0.65722656,-0.48828125,67.6875,-15.75,162.34375
733,1727267869534,-1.6650391,-0.04296875,-0.66796875,222.75,69.1875,125.46875
734,1727267869564,-2.0,-0.6875,-0.578125,50.09375,133.84375,156.65625
735,1727267869624,-1.1464844,-0.078125,2.0,-109.28125,244.0,132.25
736,1727267869654,-0.92871094,-0.8417969,0.030273438,181.6875,-90.78125,47.28125
737,1727267869718,-0.04296875,-0.33984375,0.028320312,-23.09375,24.59375,82.5
738,1727267869743,0.4033203,-0.7675781,0.038085938,-61.90625,0.40625,54.5625
739,1727267869774,0.02734375,-0.84375,0.5341797,-8.9375,-0.75,-42.25
740,1727267869805,-0.2998047,0.27246094,0.38867188,110.53125,-72.59375,-90.84375
741,1727267869864,-0.7910156,0.11816406,0.076171875,-103.96875,-140.46875,-192.34375
742,1727267869924,-2.0,-0.6230469,0.16601562,163.0,-99.4375,-303.71875
743,1727267869954,-2.0,0.25390625,-0.35742188,191.15625,-47.3125,-83.6875
744,1727267869985,-2.0,-0.48828125,-0.18847656,-25.40625,-29.0,-73.25
745,1727267870016,-1.5380859,-0.8203125,-0.10644531,-62.5,-8.0625,-64.71875
746,1727267870044,-0.78515625,0.06640625,-0.048828125,46.0625,8.15625,-17.65625
747,1727267870135,0.0048828125,0.61328125,-0.09667969,50.15625,-2.8125,22.4375
748,1727267870165,0.5292969,0.5625,-0.18457031,-53.46875,66.40625,76.28125
749,1727267870229,0.30566406,-0.001953125,0.18164062,-47.4375,49.375,63.9375
750,1727267870254,-0.27246094,-0.2529297,0.3857422,46.5,-25.34375,24.34375
751,1727267870285,-1.0761719,-0.7060547,-0.4111328,206.53125,42.03125,-38.34375
752,1727267870345,-2.0,-0.33691406,-1.0927734,-14.1875,-23.28125,-195.28125
753,1727267870378,-0.4560547,0.94140625,0.0087890625,-470.71875,68.71875,-7.34375
754,1727267870404,-1.7929688,0.6855469,-0.18945312,-111.84375,-9.78125,102.9375
755,1727267870464,-2.0,0.31640625,-0.5917969,140.1875,-9.53125,138.59375
756,1727267870502,-1.7177734,-0.31640625,-0.42578125,92.28125,68.34375,152.15625
757,1727267870523,-1.9179688,-0.8623047,-0.40527344,205.0625,66.5,192.25
758,1727267870553,-0.7919922,-1.6357422,1.7011719,-552.03125,-27.71875,48.25
759,1727267870614,-0.39453125,-0.09082031,-0.3828125,141.65625,-11.0625,30.875
760,1727267870643,0.3154297,-0.20019531,0.08886719,-86.6875,43.25,69.25
761,1727267870704,0.044921875,-1.2333984,0.49414062,45.5625,37.59375,-5.75
762,1727267870739,-0.24121094,-0.1015625,0.3046875,69.3125,-61.0,-99.9375
763,1727267870823,-0.4404297,0.40625,0.3564453,-108.28125,-126.65625,-133.125
764,1727267870884,-2.0,-0.3857422,-0.046875,201.46875,-91.5,-277.71875
765,1727267870914,-2.0,0.50683594,0.44628906,82.25,-50.125,-159.3125
766,1727267870953,-2.0,-0.091796875,-0.24609375,59.5625,-75.09375,-64.65625
767,1727267870974,-1.4765625,-0.55566406,-0.2890625,-13.6875,-12.96875,-18.6875
768,1727267871004,-1.2177734,-0.5078125,0.15722656,-138.625,2.59375,-13.4375
769,1727267871034,-0.37597656,0.35351562,-0.14550781,79.75,15.96875,25.375
770,1727267871064,0.27929688,0.33789062,-0.08984375,-25.96875,50.59375,60.90625
