,Unnamed: 0,timestamp,accel_x,accel_y,accel_z,gyro_x,gyro_y,gyro_z
0,0,1727993460910,-0.984375,-0.09082031,-0.26367188,0.09375,9.28125,1.375
1,1,1727993460950,-0.9814453,-0.09082031,-0.234375,-6.9375,9.96875,-0.03125
2,2,1727993460990,-0.98828125,-0.109375,-0.23046875,-8.71875,7.40625,-0.09375
3,3,1727993461030,-0.9628906,-0.12988281,-0.26757812,-6.5,4.53125,0.15625
4,4,1727993461070,-0.9667969,-0.12207031,-0.29492188,-4.96875,6.53125,0.28125
5,5,1727993461110,-0.9794922,-0.10644531,-0.2998047,-6.875,9.28125,0.46875
6,6,1727993461150,-0.95703125,-0.103515625,-0.27734375,-6.4375,9.46875,1.3125
7,7,1727993461190,-0.97753906,-0.12011719,-0.2939453,-8.34375,6.34375,-0.40625
8,8,1727993461230,-0.95996094,-0.1171875,-0.3203125,-10.21875,5.0625,-1.125
9,9,1727993461270,-0.9482422,-0.11035156,-0.32128906,-11.75,6.90625,0.78125
10,10,1727993461310,-0.9863281,-0.1328125,-0.3095703,-17.8125,8.8125,2.65625
11,11,1727993461350,-1.0136719,-0.18164062,-0.29785156,-27.375,8.5625,5.96875
12,12,1727993461390,-0.9785156,-0.2626953,-0.33398438,-8.78125,-1.6875,9.8125
13,13,1727993461430,-1.0371094,-0.25097656,-0.37304688,-4.875,1.03125,-0.75
14,14,1727993461470,-1.0166016,-0.1796875,-0.36132812,-49.34375,12.15625,-14.0625
15,15,1727993461510,-0.9433594,-0.053710938,-0.3076172,-31.34375,20.15625,-8.6875
16,16,1727993461550,-0.9326172,-0.029296875,-0.24707031,-16.875,11.1875,6.9375
17,17,1727993461590,-0.9091797,-0.109375,-0.3125,-23.125,-0.0625,16.15625
18,18,1727993461630,-0.8623047,-0.16796875,-0.38964844,-34.28125,4.40625,16.15625
19,19,1727993461670,-0.91503906,-0.09082031,-0.3466797,-25.0625,18.4375,14.6875
20,20,1727993461710,-0.97558594,-0.08203125,-0.27539062,-18.59375,15.9375,23.28125
21,21,1727993461750,-0.9863281,-0.16601562,-0.37402344,-28.53125,16.5,28.1875
22,22,1727993461790,-0.98339844,-0.12402344,-0.23730469,-27.3125,15.75,24.09375
23,23,1727993461830,-0.9902344,-0.056640625,-0.31152344,-35.75,11.90625,23.84375
24,24,1727993461870,-1.0126953,-0.076171875,-0.25195312,-12.78125,6.65625,29.53125
25,25,1727993461910,-0.9160156,-0.28027344,-0.13769531,-17.1875,-1.34375,24.625
26,26,1727993461950,-0.7841797,-0.36132812,0.0068359375,-6.25,-11.34375,23.0
27,27,1727993461990,-0.99121094,-0.7294922,0.16992188,14.65625,-34.0,15.96875
28,28,1727993462030,-1.2412109,-0.91308594,0.3544922,73.21875,-75.96875,-29.8125
29,29,1727993462070,-1.1738281,-0.6220703,0.111328125,89.875,-127.96875,-69.3125
30,30,1727993462110,-1.5253906,-0.3310547,-0.37402344,80.71875,-141.78125,-111.65625
31,31,1727993462150,-2.0019531,-0.017578125,-0.3310547,111.96875,-115.78125,-104.15625
32,32,1727993462190,-2.0019531,-0.22753906,0.5214844,83.40625,-137.0625,-77.78125
33,33,1727993462230,-2.0019531,-0.40429688,-0.14257812,-30.6875,-178.34375,-121.0
34,34,1727993462270,-1.6074219,-1.3603516,-0.22851562,56.40625,-127.5625,-147.59375
35,35,1727993462310,-1.0,-0.27929688,-0.4326172,223.90625,-97.34375,-129.34375
36,36,1727993462350,-0.07324219,1.0839844,-0.5595703,294.34375,-22.9375,3.28125
37,37,1727993462390,0.5205078,0.41992188,-0.32128906,105.125,61.21875,49.90625
38,38,1727993462430,0.2734375,0.5625,-0.043945312,-95.0,101.625,36.53125
39,39,1727993462470,0.109375,0.32421875,-0.19238281,-229.28125,109.09375,12.71875
40,40,1727993462510,-0.030273438,0.10449219,-0.36328125,-277.0625,113.34375,9.3125
41,41,1727993462550,-2.0019531,-1.9775391,0.93359375,-397.0,29.25,-23.28125
42,42,1727993462590,-1.5751953,0.0029296875,-0.64160156,-198.09375,-6.53125,117.15625
43,43,1727993462630,-0.4716797,0.20605469,-1.0214844,69.25,-4.5,144.6875
44,44,1727993462670,-2.0019531,-0.31347656,-1.0224609,187.9375,121.21875,140.59375
45,45,1727993462710,-1.96875,-0.39257812,-0.16210938,-261.9375,226.9375,0.71875
46,46,1727993462750,-1.8212891,0.10253906,-0.12011719,-166.40625,86.625,7.78125
47,47,1727993462790,-1.4716797,-0.9355469,0.74316406,-15.90625,36.3125,138.09375
48,48,1727993462830,-0.328125,-1.1796875,0.005859375,-93.3125,-20.25,89.8125
49,49,1727993462870,0.3955078,-1.6943359,0.4326172,15.78125,-28.5625,39.03125
50,50,1727993462910,0.25585938,-0.8222656,0.2763672,97.5,-54.875,-92.5625
51,51,1727993462950,-0.7578125,0.37890625,0.921875,71.625,-103.8125,-121.0
52,52,1727993462990,-2.0019531,-1.8017578,-1.2382812,126.1875,-185.125,-94.625
53,53,1727993463030,-2.0019531,0.22265625,0.4169922,128.875,-160.9375,-159.6875
54,54,1727993463070,-2.0019531,0.57128906,-0.5175781,-21.71875,-213.8125,-197.71875
55,55,1727993463110,-1.7402344,-0.9765625,-0.53515625,127.59375,-133.96875,-197.84375
56,56,1727993463150,-1.5117188,-0.13183594,-0.58984375,249.03125,-80.5,-148.28125
57,57,1727993463190,0.3076172,1.5703125,-0.65722656,316.625,2.375,-25.78125
58,58,1727993463230,1.1044922,1.0292969,-0.4296875,17.0,103.84375,60.53125
59,59,1727993463270,0.4404297,0.66015625,-0.45996094,-222.5,135.75,60.71875
60,60,1727993463310,-0.3828125,0.36816406,-0.23144531,-263.15625,151.125,104.21875
61,61,1727993463350,-1.0585938,-0.6123047,0.32714844,-107.09375,82.71875,60.59375
62,62,1727993463390,-0.67089844,-0.515625,-0.3408203,-98.84375,37.125,57.96875
63,63,1727993463430,-2.0019531,-1.1240234,-1.4941406,-323.65625,105.96875,-42.625
64,64,1727993463470,0.059570312,0.3798828,-0.9765625,-269.5625,7.53125,24.8125
65,65,1727993463510,-1.3291016,0.484375,-1.0751953,85.71875,44.375,75.65625
66,66,1727993463550,-2.0019531,0.23144531,-2.0283203,77.84375,144.84375,7.375
67,67,1727993463590,-2.0019531,-1.9775391,1.9179688,-475.1875,54.21875,138.71875
68,68,1727993463630,-1.3320312,-0.87597656,0.52734375,-77.25,24.0,156.59375
69,69,1727993463670,-0.27441406,-1.1601562,0.16796875,-40.3125,5.4375,84.625
70,70,1727993463710,0.35742188,-1.2763672,0.2861328,11.0625,-45.46875,73.40625
71,71,1727993463750,0.07128906,-1.0927734,0.61035156,77.40625,-78.53125,-25.96875
72,72,1727993463790,-0.6035156,-0.061523438,0.32128906,93.78125,-164.3125,-133.9375
73,73,1727993463830,-1.4648438,-0.93652344,-1.0263672,140.15625,-164.59375,-170.8125
74,74,1727993463870,-2.0019531,0.4892578,0.53222656,215.59375,-170.21875,-144.4375
75,75,1727993463910,-2.0019531,0.0703125,-0.48242188,-98.78125,-106.1875,-154.625
76,76,1727993463950,-1.703125,-0.94433594,-0.14941406,183.5625,-35.4375,-221.21875
77,77,1727993463990,-0.7763672,0.7373047,-0.53222656,326.125,-38.5625,-58.1875
78,78,1727993464030,0.45214844,1.6181641,-0.39941406,82.84375,76.59375,-12.65625
79,79,1727993464070,0.51953125,0.77246094,-0.3642578,-65.03125,84.84375,114.28125
80,80,1727993464110,0.3466797,0.60058594,-0.40527344,-231.4375,111.34375,75.71875
81,81,1727993464150,-0.6777344,-0.2890625,0.7910156,-187.21875,108.65625,53.75
82,82,1727993464190,-1.1992188,-0.7597656,-0.4033203,-155.75,35.40625,62.59375
83,83,1727993464230,-2.0019531,-0.47558594,0.3251953,-124.5,-15.25,-32.96875
84,84,1727993464270,0.3046875,0.7753906,-0.38378906,-22.0625,1.78125,9.5
85,85,1727993464310,-2.0019531,1.2207031,-1.1591797,87.5625,20.875,87.3125
86,86,1727993464350,-2.0019531,-0.6074219,-2.0283203,-204.9375,257.9375,180.15625
87,87,1727993464390,-1.6503906,-1.3535156,-1.0976562,-46.375,-65.1875,138.9375
88,88,1727993464430,-0.5605469,-1.2001953,0.22949219,-118.15625,-1.75,90.1875
89,89,1727993464470,-0.09667969,-1.2021484,0.52734375,5.09375,1.0,54.40625
90,90,1727993464510,-0.0087890625,-0.96484375,0.21191406,56.65625,-49.75,52.34375
91,91,1727993464550,-0.13769531,-1.0234375,0.73828125,38.78125,-118.09375,-33.28125
92,92,1727993464590,-0.39648438,-0.022460938,0.16894531,151.5,-196.71875,-124.0625
93,93,1727993464630,-1.6767578,-0.96484375,-0.9511719,128.3125,-218.375,-202.40625
94,94,1727993464670,-2.0019531,0.072265625,-0.4453125,21.75,-94.71875,-279.625
95,95,1727993464710,-2.0019531,-0.7089844,-0.038085938,-197.78125,-44.375,-249.59375
96,96,1727993464750,-1.2861328,-0.28320312,-0.640625,381.0,-70.4375,-137.96875
97,97,1727993464790,-0.19335938,1.3662109,-0.7421875,370.25,12.28125,-6.96875
98,98,1727993464830,0.5205078,1.6025391,-0.23242188,32.90625,98.21875,57.84375
99,99,1727993464870,0.5488281,0.8388672,-0.5,-168.0,84.40625,129.84375
100,100,1727993464910,-0.20996094,0.10058594,-0.3466797,-267.0,123.59375,77.625
101,101,1727993464950,-1.0996094,-0.7607422,0.44433594,-104.59375,100.34375,58.5
102,102,1727993464990,-1.1240234,-0.9511719,-0.51464844,-111.375,-1.625,64.625
103,103,1727993465030,-2.0019531,-1.0986328,0.24414062,-341.34375,102.71875,-119.46875
104,104,1727993465070,0.24023438,0.45214844,-0.3544922,-80.65625,13.9375,47.9375
105,105,1727993465110,-1.6474609,0.84375,-1.0283203,180.6875,-19.15625,69.8125
106,106,1727993465150,-2.0019531,-0.38476562,-1.9160156,-322.65625,244.03125,165.875
107,107,1727993465190,-1.5273438,-0.16308594,-0.5888672,107.25,-44.65625,196.09375
108,108,1727993465230,-0.85839844,-1.2207031,0.4296875,-80.25,6.125,156.03125
109,109,1727993465270,-0.09667969,-1.4736328,0.59277344,-24.40625,25.09375,79.75
110,110,1727993465310,0.37890625,-1.2578125,0.060546875,46.40625,-53.8125,22.5625
111,111,1727993465350,-0.33203125,-1.1845703,0.703125,118.3125,-111.75,-75.71875
112,112,1727993465390,-0.7626953,-0.20214844,-0.32714844,106.15625,-183.53125,-142.125
113,113,1727993465430,-2.0019531,-1.34375,-0.7167969,345.71875,-100.40625,-201.875
114,114,1727993465470,-2.0019531,0.3232422,-0.1640625,-13.59375,-196.65625,-233.25
115,115,1727993465510,-2.0019531,-0.41992188,-1.0400391,32.96875,-128.59375,-223.78125
116,116,1727993465550,-1.3974609,-0.7324219,-0.46777344,269.0625,-47.71875,-191.125
117,117,1727993465590,-0.34375,1.3076172,-0.8544922,316.96875,-1.28125,-35.78125
118,118,1727993465630,0.7265625,1.5429688,-0.515625,48.90625,111.65625,38.25
119,119,1727993465670,0.7324219,0.8925781,-0.31933594,-178.9375,126.28125,118.5
120,120,1727993465710,-0.20605469,-0.022460938,-0.119140625,-260.21875,133.90625,94.53125
121,121,1727993465750,-1.4199219,-0.91503906,1.2265625,-6.625,16.96875,35.25
122,122,1727993465790,-2.0019531,-1.0625,-1.0800781,-208.15625,-12.5,27.5625
123,123,1727993465830,-1.2988281,0.099609375,-0.9482422,-259.5,-92.9375,-17.34375
124,124,1727993465870,-0.69921875,1.4833984,-0.6435547,-17.6875,17.09375,55.40625
125,125,1727993465910,-2.0009766,0.8359375,-1.0039062,-27.625,11.59375,128.5625
126,126,1727993465950,-2.0019531,-0.2841797,-2.0283203,-219.21875,223.75,197.125
127,127,1727993465990,-1.9208984,-1.9501953,1.578125,-119.53125,-37.78125,132.0
128,128,1727993466030,-0.047851562,-1.0751953,1.3779297,-217.125,26.0,99.21875
129,129,1727993466070,-0.109375,-1.2246094,0.4501953,9.125,-6.46875,63.21875
130,130,1727993466110,0.09277344,-1.0742188,0.2939453,51.28125,-56.4375,61.375
131,131,1727993466150,-0.07714844,-1.0244141,0.7949219,83.15625,-121.5625,-35.375
132,132,1727993466190,-0.7089844,-0.24707031,-0.23925781,132.65625,-235.59375,-155.96875
133,133,1727993466230,-2.0019531,-1.8515625,-0.7441406,331.25,-130.4375,-310.3125
134,134,1727993466270,-2.0019531,0.66796875,-0.45898438,-142.0,-161.6875,-259.4375
135,135,1727993466310,-1.8144531,-0.9140625,-0.24902344,51.53125,-43.375,-229.28125
136,136,1727993466350,-1.1464844,-0.21875,-0.6621094,428.0625,-49.96875,-98.90625
137,137,1727993466390,0.3857422,1.78125,-0.66796875,225.90625,57.9375,-9.78125
138,138,1727993466430,0.484375,0.8935547,-0.49023438,53.3125,128.1875,104.40625
139,139,1727993466470,0.38671875,0.5498047,-0.08300781,-157.03125,133.3125,118.03125
140,140,1727993466510,-0.076171875,0.19042969,-0.25,-315.03125,138.3125,38.78125
141,141,1727993466550,-1.5224609,-0.8798828,0.5957031,-139.9375,74.15625,30.0
142,142,1727993466590,-0.35253906,-0.57128906,-0.703125,-118.375,-10.4375,62.40625
143,143,1727993466630,-2.0019531,-1.0117188,1.0732422,-322.125,122.09375,-82.4375
144,144,1727993466670,0.52246094,0.6142578,-0.7441406,-162.15625,-11.71875,72.78125
145,145,1727993466710,-1.6474609,0.9814453,-1.3476562,127.59375,24.25,120.6875
146,146,1727993466750,-2.0019531,-0.42382812,-1.9257812,-299.0625,285.40625,186.125
147,147,1727993466790,-1.7158203,-1.4072266,1.8671875,-117.96875,-29.78125,144.8125
148,148,1727993466830,0.12890625,-1.0439453,0.6191406,-169.21875,35.46875,92.5625
149,149,1727993466870,-0.061523438,-1.1914062,0.546875,0.15625,16.5,72.3125
150,150,1727993466910,0.20703125,-1.0957031,0.21972656,66.25,-27.9375,30.0625
151,151,1727993466950,-0.46972656,-0.69921875,0.9033203,87.90625,-105.03125,-92.875
152,152,1727993466990,-0.9951172,-0.13867188,-0.4404297,91.5,-190.59375,-142.34375
153,153,1727993467030,-2.0019531,-0.65527344,0.18945312,239.71875,-158.5,-205.40625
154,154,1727993467070,-2.0019531,0.0234375,-0.8955078,-18.15625,-198.125,-185.875
155,155,1727993467110,-2.0019531,-1.234375,-0.3251953,6.0625,-90.625,-205.21875
156,156,1727993467150,-1.84375,-0.3955078,-0.5078125,322.71875,-101.6875,-174.65625
157,157,1727993467190,0.2685547,1.7597656,-0.9638672,341.625,-26.3125,-35.3125
158,158,1727993467230,0.8779297,1.3291016,-0.5908203,30.1875,90.15625,67.59375
159,159,1727993467270,0.4248047,0.7753906,-0.2783203,-197.375,132.8125,104.34375
160,160,1727993467310,-0.0234375,0.42871094,-0.27246094,-259.0,123.96875,58.6875
161,161,1727993467350,-1.0341797,-0.51660156,0.28222656,-113.0,94.3125,62.71875
162,162,1727993467390,-2.0019531,-1.0048828,-0.18457031,-168.4375,43.78125,49.84375
163,163,1727993467430,-1.1835938,0.7011719,0.14160156,-257.84375,-67.75,28.0625
164,164,1727993467470,-0.21679688,0.9921875,-0.5859375,-14.3125,15.09375,92.1875
165,165,1727993467510,-2.0019531,0.7001953,-0.99609375,117.625,9.71875,143.71875
166,166,1727993467550,-2.0019531,-0.62109375,-1.9775391,-247.0,203.5,168.96875
167,167,1727993467590,-1.7197266,-1.9775391,1.6416016,-172.28125,-28.125,130.53125
168,168,1727993467630,0.24414062,-1.1503906,0.54003906,-154.9375,36.625,80.1875
169,169,1727993467670,-0.2607422,-1.1708984,0.21582031,11.125,-18.90625,47.28125
170,170,1727993467710,0.0625,-1.078125,0.2626953,49.53125,-49.78125,29.8125
171,171,1727993467750,-0.055664062,-1.0087891,0.5957031,110.3125,-123.59375,-57.59375
172,172,1727993467790,-0.61035156,-0.13574219,-0.2939453,108.40625,-192.75,-166.03125
173,173,1727993467830,-2.0019531,-1.2451172,-0.5839844,309.71875,-104.59375,-335.96875
174,174,1727993467870,-2.0019531,0.24414062,-0.73339844,-79.5,-149.09375,-163.125
175,175,1727993467910,-1.9746094,-1.2148438,-0.39257812,-59.59375,-12.125,-229.09375
176,176,1727993467950,-1.4238281,0.3017578,-0.96484375,470.96875,-74.34375,-98.90625
177,177,1727993467990,0.46777344,1.9355469,-0.8730469,204.75,26.75,-34.15625
178,178,1727993468030,0.5986328,1.3291016,-0.4873047,8.25,69.03125,113.0
179,179,1727993468070,0.59277344,0.9658203,-0.3310547,-223.71875,103.59375,112.34375
180,180,1727993468110,-0.17871094,-0.14160156,0.23925781,-227.53125,146.6875,60.15625
181,181,1727993468150,-1.3222656,-0.86621094,-0.25683594,-107.21875,62.625,25.90625
182,182,1727993468190,-2.0019531,-1.8027344,-0.29296875,-101.34375,73.75,-38.40625
183,183,1727993468230,0.25585938,0.013671875,-0.21777344,-291.84375,3.90625,-60.3125
184,184,1727993468270,0.017578125,0.42285156,-0.36816406,47.8125,-2.96875,1.5625
185,185,1727993468310,-2.0019531,1.4833984,-2.0283203,103.1875,37.84375,23.0
186,186,1727993468350,-2.0019531,-1.9775391,1.9716797,-36.84375,413.15625,197.375
187,187,1727993468390,-1.7138672,-1.5751953,-1.4472656,-179.0625,18.125,143.65625
188,188,1727993468430,-0.30664062,-0.9482422,-0.115234375,-92.25,1.78125,73.03125
189,189,1727993468470,0.13183594,-1.3984375,0.25097656,3.125,-27.53125,121.25
190,190,1727993468510,0.22851562,-0.91015625,0.53515625,82.84375,-62.96875,49.34375
191,191,1727993468550,-0.5097656,-0.74902344,0.4873047,81.1875,-168.5,-101.53125
192,192,1727993468590,-1.0673828,-0.64160156,-0.9394531,170.125,-212.46875,-149.3125
193,193,1727993468630,-2.0019531,-0.36328125,-0.25976562,225.90625,-140.125,-313.125
194,194,1727993468670,-2.0019531,1.0068359,0.1875,-154.53125,-109.25,-244.28125
195,195,1727993468710,-1.1826172,-0.28027344,-0.20703125,367.8125,-37.84375,-146.21875
196,196,1727993468750,-0.62597656,0.91796875,-0.6035156,296.59375,-11.40625,-37.3125
197,197,1727993468790,0.34765625,1.5234375,-0.46484375,27.65625,96.5625,-0.5
198,198,1727993468830,0.57128906,0.7832031,-0.13085938,-146.03125,97.375,120.21875
199,199,1727993468870,0.23828125,0.37402344,-0.265625,-246.0,106.75,95.1875
200,200,1727993468910,-0.78515625,-1.1347656,1.2490234,-93.65625,40.21875,71.5
201,201,1727993468950,-1.6357422,-1.0712891,-0.82421875,-133.8125,29.84375,28.71875
202,202,1727993468990,-2.0019531,-0.58984375,0.17480469,-356.375,0.9375,-77.65625
203,203,1727993469030,0.072265625,0.9482422,-0.7597656,-66.5,5.4375,38.625
204,204,1727993469070,-2.0019531,1.4560547,-1.0927734,62.46875,49.15625,98.4375
205,205,1727993469110,-2.0019531,0.7363281,-2.0283203,-254.4375,192.8125,216.09375
206,206,1727993469150,-2.0019531,-0.32910156,1.9716797,400.96875,88.9375,170.875
207,207,1727993469190,-0.25195312,-1.359375,-0.20507812,-247.96875,16.65625,112.15625
208,208,1727993469230,-0.04296875,-1.4414062,0.21679688,-8.46875,-15.625,71.03125
209,209,1727993469270,0.041992188,-1.1308594,0.24902344,52.4375,-39.25,33.1875
210,210,1727993469310,-0.07910156,-1.09375,0.74902344,100.4375,-115.65625,-55.125
211,211,1727993469350,-0.95703125,0.10058594,-0.11621094,109.6875,-210.5,-171.15625
212,212,1727993469390,-2.0019531,-1.6767578,-1.4394531,356.84375,-130.84375,-291.71875
213,213,1727993469430,-2.0019531,0.30371094,-0.30273438,-109.40625,-129.5625,-255.15625
214,214,1727993469470,-1.7060547,-0.35546875,-0.82714844,113.4375,-104.0625,-228.78125
215,215,1727993469510,-1.1728516,0.00390625,-0.5810547,350.65625,-41.5625,-127.84375
216,216,1727993469550,-0.13574219,1.3837891,-0.85839844,282.1875,21.6875,-17.0625
217,217,1727993469590,0.4609375,1.2949219,-0.5058594,3.625,108.65625,56.4375
218,218,1727993469630,0.58691406,0.96191406,-0.16894531,-237.28125,119.625,104.78125
219,219,1727993469670,-0.103515625,0.23339844,-0.12695312,-268.59375,123.71875,83.03125
220,220,1727993469710,-1.3632812,-1.1425781,0.5839844,9.78125,9.09375,16.28125
221,221,1727993469750,-2.0019531,-1.4990234,0.8642578,-144.6875,26.4375,-63.1875
222,222,1727993469790,0.62597656,0.18261719,-0.34277344,-252.0625,-31.65625,-41.53125
223,223,1727993469830,-0.3408203,0.984375,-1.0927734,57.09375,26.875,86.15625
224,224,1727993469870,-2.0019531,0.8125,-1.3125,111.15625,85.6875,181.0
225,225,1727993469910,-2.0019531,-0.60058594,-1.5166016,-288.375,256.96875,113.5625
226,226,1727993469950,-1.9189453,-1.3701172,-0.9589844,-63.40625,-55.15625,169.53125
227,227,1727993469990,-0.5722656,-1.3574219,0.5332031,-172.40625,29.90625,103.4375
228,228,1727993470030,-0.23242188,-1.1386719,0.21875,-4.375,-8.09375,78.84375
229,229,1727993470070,0.27929688,-1.0419922,0.2763672,7.40625,-59.125,61.9375
230,230,1727993470110,-0.1953125,-1.3710938,0.5888672,91.875,-129.4375,-56.78125
231,231,1727993470150,-0.6923828,-0.41210938,-0.59472656,144.3125,-198.90625,-166.40625
232,232,1727993470190,-2.0019531,-0.7919922,-0.359375,374.84375,-100.6875,-304.59375
233,233,1727993470230,-2.0019531,0.63671875,-0.047851562,-115.625,-140.75,-255.53125
234,234,1727993470270,-1.8574219,-0.86621094,-0.78515625,121.0,-115.53125,-235.5625
235,235,1727993470310,-1.2685547,-0.19726562,-0.2763672,279.5625,-39.84375,-152.96875
236,236,1727993470350,0.16210938,1.2773438,-0.7753906,316.6875,7.34375,1.875
237,237,1727993470390,0.6767578,1.3134766,-0.41015625,-10.21875,97.53125,74.3125
238,238,1727993470430,0.52441406,0.62597656,-0.55859375,-195.65625,108.71875,87.0
239,239,1727993470470,-0.30273438,0.09472656,-0.2109375,-217.25,133.8125,51.78125
240,240,1727993470510,-1.2539062,-0.6279297,0.8261719,2.71875,54.40625,61.0625
241,241,1727993470550,-1.7871094,-1.2548828,-1.2832031,-170.21875,-20.1875,56.6875
242,242,1727993470590,-1.3466797,-0.041015625,-0.53222656,-384.4375,-85.6875,-29.8125
243,243,1727993470630,-0.2763672,0.90527344,-0.53027344,-76.6875,41.40625,14.625
244,244,1727993470670,-2.0019531,1.1328125,-1.0351562,40.375,-9.75,160.4375
245,245,1727993470710,-2.0019531,0.001953125,-2.0283203,-54.96875,164.9375,205.0625
246,246,1727993470750,-2.0019531,-1.9775391,1.9716797,-231.25,139.59375,164.28125
247,247,1727993470790,-0.6816406,-1.1914062,-0.059570312,-130.34375,41.875,78.40625
248,248,1727993470830,-0.3017578,-1.015625,0.2529297,-16.53125,-4.6875,61.375
249,249,1727993470870,0.10449219,-1.1357422,0.23046875,26.375,-51.03125,42.53125
250,250,1727993470910,0.038085938,-1.1103516,0.6640625,61.65625,-103.625,-46.40625
251,251,1727993470950,-0.6298828,-0.17675781,-0.2998047,95.0625,-186.40625,-149.5625
252,252,1727993470990,-2.0019531,-1.3964844,-0.7158203,275.71875,-95.3125,-278.59375
253,253,1727993471030,-2.0019531,0.18261719,-0.7734375,21.5,-176.9375,-235.1875
254,254,1727993471070,-2.0019531,-0.35839844,-0.70703125,-87.3125,-66.8125,-201.9375
255,255,1727993471110,-1.6669922,-0.16015625,-0.4501953,358.125,-62.3125,-152.1875
256,256,1727993471150,0.05078125,1.4179688,-0.8876953,308.25,-23.90625,-10.03125
257,257,1727993471190,0.6269531,1.4111328,-0.37890625,-0.09375,88.03125,49.28125
258,258,1727993471230,0.6015625,0.8935547,-0.3173828,-182.28125,106.46875,107.15625
259,259,1727993471270,-0.2890625,0.10644531,-0.0546875,-259.375,105.84375,77.84375
260,260,1727993471310,-1.0615234,-0.82910156,0.31347656,-112.40625,33.15625,56.5625
261,261,1727993471350,-2.0019531,-1.6699219,0.3798828,-130.84375,52.1875,1.25
262,262,1727993471390,-0.51464844,0.37695312,-0.2626953,-314.78125,-112.53125,-32.6875
263,263,1727993471430,-0.16210938,0.8642578,-0.4267578,98.21875,-24.96875,26.15625
264,264,1727993471470,-2.0019531,1.0458984,-0.9824219,41.84375,-0.59375,75.34375
265,265,1727993471510,-2.0019531,-0.34472656,-1.7958984,-76.21875,252.21875,218.0
266,266,1727993471550,-1.7470703,-1.3710938,0.7011719,-217.5,-22.15625,160.0625
267,267,1727993471590,-0.6279297,-1.1171875,0.31835938,-173.5,82.34375,126.3125
268,268,1727993471630,-0.2109375,-1.1386719,0.4375,-6.5,32.78125,79.125
269,269,1727993471670,0.40625,-1.2373047,0.08300781,56.84375,-15.5,43.1875
270,270,1727993471710,-0.16601562,-1.0507812,0.8388672,117.09375,-81.40625,-90.65625
271,271,1727993471750,-1.0429688,-0.30371094,0.034179688,23.21875,-179.125,-158.28125
272,272,1727993471790,-2.0019531,-1.7441406,-1.1660156,344.5625,-121.625,-217.3125
273,273,1727993471830,-2.0019531,0.14941406,-0.43554688,26.03125,-192.875,-187.15625
274,274,1727993471870,-2.0019531,-0.5830078,-0.4921875,-94.34375,-129.8125,-248.375
275,275,1727993471910,-1.6162109,-0.9609375,-0.5410156,263.28125,-60.0,-185.5625
276,276,1727993471950,-0.14355469,1.7978516,-0.71191406,321.0625,-20.75,-35.25
277,277,1727993471990,0.7714844,1.3828125,-0.63964844,29.3125,74.15625,75.53125
278,278,1727993472030,0.5800781,0.8339844,-0.36523438,-194.9375,117.3125,113.1875
279,279,1727993472070,0.005859375,0.35351562,-0.34472656,-287.15625,158.34375,95.5625
280,280,1727993472110,-1.3486328,-1.2050781,0.8935547,-49.40625,76.0,89.09375
281,281,1727993472150,-1.6757812,-0.90234375,-0.70703125,-44.21875,14.78125,24.5
282,282,1727993472190,-1.7548828,-0.18945312,-0.2861328,-227.28125,-21.53125,-35.125
283,283,1727993472230,-0.06738281,0.9296875,-0.43164062,-141.75,14.78125,72.125
284,284,1727993472270,-2.0019531,0.8925781,-0.8808594,102.875,41.40625,64.90625
285,285,1727993472310,-2.0019531,0.2109375,-1.9121094,-275.625,177.375,150.125
286,286,1727993472350,-1.7460938,-0.37597656,1.9169922,196.375,2.15625,188.4375
287,287,1727993472390,0.19238281,-1.0048828,1.0830078,-169.28125,37.4375,99.09375
288,288,1727993472430,-0.18847656,-1.2148438,0.24023438,-17.3125,6.46875,66.9375
289,289,1727993472470,0.013671875,-0.9248047,0.11035156,53.6875,-41.75,86.78125
290,290,1727993472510,-0.0009765625,-1.2714844,0.8955078,66.5,-104.375,-13.4375
291,291,1727993472550,-0.9560547,-0.0029296875,-0.32910156,111.46875,-219.65625,-152.96875
292,292,1727993472590,-2.0019531,-1.2929688,-0.6660156,384.25,-117.1875,-314.59375
293,293,1727993472630,-2.0019531,0.8466797,-0.5683594,-68.34375,-163.625,-224.75
294,294,1727993472670,-1.8730469,-0.6767578,-0.61816406,74.71875,-115.21875,-190.53125
295,295,1727993472710,-1.2089844,-0.37597656,-0.3955078,231.09375,-37.28125,-153.53125
296,296,1727993472750,-0.24511719,1.2128906,-0.60546875,268.46875,5.125,-26.5625
297,297,1727993472790,0.5439453,1.3710938,-0.42578125,-15.40625,69.90625,46.90625
298,298,1727993472830,0.7832031,0.8183594,-0.44140625,-230.75,98.34375,109.21875
299,299,1727993472870,-0.02734375,0.22460938,-0.09375,-257.3125,132.34375,96.21875
300,300,1727993472910,-1.3173828,-1.1269531,0.70703125,86.8125,22.78125,67.34375
301,301,1727993472950,-2.0019531,-1.9160156,0.453125,-255.28125,-0.46875,-39.15625
302,302,1727993472990,-0.20410156,0.37304688,-0.86035156,-231.71875,3.71875,1.3125
303,303,1727993473030,-0.4951172,1.3164062,-0.8720703,-94.15625,39.125,89.09375
304,304,1727993473070,-2.0019531,0.4765625,-1.0605469,172.1875,31.375,111.1875
305,305,1727993473110,-2.0019531,-1.3759766,-0.7578125,-206.875,370.8125,138.90625
306,306,1727993473150,-2.0019531,-1.6464844,-0.6982422,-98.84375,-47.65625,140.125
307,307,1727993473190,-0.203125,-1.1455078,0.55859375,-115.53125,24.84375,65.84375
308,308,1727993473230,-0.5048828,-1.4804688,0.20214844,37.625,-15.75,57.15625
309,309,1727993473270,0.09863281,-1.0244141,0.3544922,55.6875,-48.9375,26.78125
310,310,1727993473310,-0.08105469,-0.79296875,0.5810547,118.3125,-142.09375,-38.1875
311,311,1727993473350,-0.9189453,-0.38867188,-0.35839844,109.8125,-224.78125,-164.625
312,312,1727993473390,-2.0019531,-0.75,-0.8046875,370.5,-131.34375,-372.21875
313,313,1727993473430,-2.0019531,0.6972656,-0.14160156,-143.34375,-94.40625,-198.8125
314,314,1727993473470,-1.5595703,-0.16796875,-0.4404297,177.28125,-72.625,-160.375
315,315,1727993473510,-1.0917969,0.06347656,-0.5625,254.34375,-44.4375,-90.0
316,316,1727993473550,-0.045898438,1.3544922,-0.62890625,180.375,30.96875,-32.3125
317,317,1727993473590,0.4248047,1.2763672,-0.28027344,-56.5,71.0625,86.21875
318,318,1727993473630,0.5751953,0.8300781,-0.5029297,-276.03125,96.25,123.375
319,319,1727993473670,-0.18066406,0.0146484375,-0.06542969,-215.90625,118.125,107.15625
320,320,1727993473710,-0.99609375,-0.9326172,-0.076171875,-21.21875,48.03125,82.0625
321,321,1727993473750,-2.0019531,-1.4960938,-0.06738281,-55.875,46.59375,-28.84375
322,322,1727993473790,-0.015625,-0.19238281,-0.5390625,-386.875,8.5,-24.3125
323,323,1727993473830,-0.56152344,0.7216797,-0.7910156,52.34375,-11.15625,54.0625
324,324,1727993473870,-2.0019531,1.296875,-1.7539062,272.96875,46.8125,43.0625
325,325,1727993473910,-2.0019531,-1.7685547,1.9716797,-314.125,360.71875,76.09375
326,326,1727993473950,-1.0566406,-1.0849609,-0.421875,-73.46875,44.8125,85.71875
327,327,1727993473990,-0.42773438,-0.7080078,-0.26757812,-93.65625,-15.5625,76.75
328,328,1727993474030,-0.08886719,-1.4765625,0.46777344,13.5625,1.15625,88.40625
329,329,1727993474070,0.25097656,-0.9453125,0.28515625,78.40625,-59.3125,15.0625
330,330,1727993474110,-0.21679688,-0.94628906,0.69433594,94.875,-133.28125,-44.59375
331,331,1727993474150,-0.81933594,-0.4111328,-0.5517578,83.21875,-216.0625,-153.90625
332,332,1727993474190,-2.0019531,-0.58691406,-0.4794922,394.0625,-93.4375,-296.46875
333,333,1727993474230,-2.0019531,0.40429688,-0.12792969,-166.46875,-131.71875,-186.4375
334,334,1727993474270,-1.5683594,-0.025390625,-0.66503906,117.09375,-54.0,-204.125
335,335,1727993474310,-1.1865234,-0.23828125,-0.5,302.21875,-34.59375,-107.1875
336,336,1727993474350,-0.017578125,1.5214844,-0.62109375,208.21875,43.78125,-32.3125
337,337,1727993474390,0.5263672,1.1835938,-0.32910156,-27.25,87.21875,90.5
338,338,1727993474430,0.6064453,0.6669922,-0.60839844,-270.96875,100.78125,119.125
339,339,1727993474470,-0.3857422,0.14257812,-0.24609375,-247.59375,132.75,140.46875
340,340,1727993474510,-1.1455078,-0.8300781,0.0234375,-32.625,52.75,76.40625
341,341,1727993474550,-2.0019531,-1.9775391,-1.671875,-294.71875,11.46875,-104.15625
342,342,1727993474590,0.059570312,0.39941406,-0.45996094,-262.125,-1.09375,16.15625
343,343,1727993474630,-0.43652344,0.39941406,-0.7265625,-93.53125,2.8125,23.34375
344,344,1727993474670,-2.0019531,1.8300781,-1.7734375,253.875,24.0,148.90625
345,345,1727993474710,-2.0019531,-1.5117188,-0.5078125,-191.6875,369.21875,140.96875
346,346,1727993474750,-1.9677734,-1.8320312,-1.2773438,-81.59375,-18.78125,123.21875
347,347,1727993474790,-0.18261719,-0.9560547,-0.038085938,-81.15625,-7.25,72.5
348,348,1727993474830,-0.048828125,-1.4775391,0.46484375,50.625,7.5625,67.0
349,349,1727993474870,0.024414062,-1.0556641,0.39257812,66.6875,-48.34375,5.03125
350,350,1727993474910,-0.359375,-0.7294922,0.5185547,93.78125,-147.625,-79.5625
351,351,1727993474950,-1.6289062,-0.9863281,-1.0859375,149.4375,-156.125,-206.5
352,352,1727993474990,-2.0019531,0.4580078,-0.13183594,154.125,-189.125,-199.71875
353,353,1727993475030,-2.0019531,0.55078125,-0.88183594,-18.40625,-153.8125,-155.78125
354,354,1727993475070,-1.3769531,-1.6308594,-0.22949219,125.8125,-63.53125,-161.53125
355,355,1727993475110,-1.1933594,0.35058594,-0.6386719,330.84375,-46.625,-90.0625
356,356,1727993475150,0.3515625,1.7138672,-0.7470703,210.21875,34.375,-26.46875
357,357,1727993475190,0.6152344,1.1025391,-0.41796875,-23.59375,89.96875,84.625
358,358,1727993475230,0.5800781,0.6689453,-0.40722656,-258.53125,129.34375,78.03125
359,359,1727993475270,-0.37304688,-0.23046875,0.3623047,-223.3125,135.1875,70.03125
360,360,1727993475310,-1.2802734,-0.796875,-0.3564453,-89.5625,56.71875,44.34375
361,361,1727993475350,-2.0019531,-0.4580078,-1.3652344,-260.15625,-85.8125,-61.65625
362,362,1727993475390,1.9648438,1.3925781,-0.76953125,-65.34375,17.78125,23.71875
363,363,1727993475430,-0.8066406,0.16308594,-1.2490234,113.125,32.0625,85.375
364,364,1727993475470,-2.0019531,0.5419922,-2.0283203,-45.625,127.09375,71.75
365,365,1727993475510,-2.0019531,0.7480469,1.9716797,-146.21875,406.25,143.53125
366,366,1727993475550,-0.6953125,-0.8203125,-0.7080078,-101.34375,51.46875,36.34375
367,367,1727993475590,-0.44335938,-0.78125,0.040039062,-60.46875,14.28125,59.3125
368,368,1727993475630,-0.025390625,-1.0820312,0.125,23.9375,-36.625,105.375
369,369,1727993475670,0.19140625,-1.0390625,0.56933594,56.59375,-57.65625,50.375
370,370,1727993475710,-0.6640625,-0.47265625,0.39257812,102.4375,-173.4375,-107.5625
371,371,1727993475750,-2.0019531,-1.2949219,-1.0673828,112.3125,-178.34375,-229.8125
372,372,1727993475790,-2.0019531,0.8378906,-0.1328125,204.3125,-161.78125,-277.84375
373,373,1727993475830,-2.0019531,0.51464844,-0.171875,-161.28125,-149.28125,-209.5625
374,374,1727993475870,-1.3955078,-1.3828125,0.14746094,288.0625,-51.625,-162.125
375,375,1727993475910,-0.64453125,0.38085938,-0.8496094,334.4375,-25.6875,-41.46875
376,376,1727993475950,0.7246094,1.9619141,-0.42773438,76.6875,72.03125,-2.71875
377,377,1727993475990,0.5263672,0.8955078,-0.5341797,-164.59375,98.21875,114.34375
378,378,1727993476030,0.12011719,0.62890625,-0.6044922,-268.21875,119.40625,104.21875
379,379,1727993476070,-0.7392578,-0.2529297,0.2939453,-195.03125,126.09375,117.90625
380,380,1727993476110,-1.6513672,-1.1416016,-0.4423828,-44.71875,40.46875,51.3125
381,381,1727993476150,-2.0019531,-0.08300781,0.038085938,-193.875,-68.03125,-54.90625
382,382,1727993476190,0.88964844,0.91796875,-0.36621094,-173.4375,30.21875,56.25
383,383,1727993476230,-1.2373047,0.8125,-0.8730469,19.1875,-2.375,52.40625
384,384,1727993476270,-2.0019531,1.0390625,-2.0283203,141.0,54.75,125.53125
385,385,1727993476310,-2.0019531,-1.6074219,1.9716797,-128.59375,261.96875,151.21875
386,386,1727993476350,-0.18261719,-0.84277344,0.9716797,-147.25,65.8125,53.9375
387,387,1727993476390,-0.15136719,-0.96972656,0.2607422,-48.0,19.125,67.125
388,388,1727993476430,0.3515625,-1.4238281,0.06347656,24.625,-32.78125,46.375
389,389,1727993476470,0.12890625,-1.265625,0.76464844,106.15625,-59.0625,-42.5
390,390,1727993476510,-0.76171875,-0.17773438,-0.053710938,127.21875,-171.5625,-143.9375
391,391,1727993476550,-2.0019531,-1.6162109,-0.6503906,218.96875,-84.15625,-130.8125
392,392,1727993476590,-2.0019531,-0.12890625,-0.5136719,45.625,-183.53125,-244.09375
393,393,1727993476630,-2.0019531,0.015625,-0.6748047,-114.34375,-124.6875,-241.65625
394,394,1727993476670,-1.2597656,-0.9511719,-0.30371094,266.9375,-41.375,-188.0
395,395,1727993476710,-0.44140625,0.9902344,-0.61621094,294.34375,7.34375,-61.90625
396,396,1727993476750,0.5253906,1.5068359,-0.51660156,60.375,85.6875,28.53125
397,397,1727993476790,0.50097656,0.95214844,-0.32226562,-124.375,93.03125,116.5
398,398,1727993476830,0.030273438,0.5673828,-0.35253906,-230.875,122.875,100.9375
399,399,1727993476870,-1.1083984,-0.86621094,0.60058594,-127.53125,59.15625,86.21875
400,400,1727993476910,-1.7695312,-1.1992188,-0.80371094,-122.65625,24.125,62.34375
401,401,1727993476950,-2.0019531,-0.3046875,0.3359375,-360.9375,27.40625,-21.875
402,402,1727993476990,0.25976562,0.7685547,-0.12890625,-252.1875,18.0625,79.75
403,403,1727993477030,-2.0019531,0.9511719,-0.8261719,15.71875,13.375,64.125
404,404,1727993477070,-2.0019531,0.23046875,-1.9873047,-31.28125,149.46875,183.4375
405,405,1727993477110,-2.0019531,-0.88964844,1.9716797,183.3125,34.875,162.09375
406,406,1727993477150,0.12890625,-0.7265625,-0.0625,-174.59375,-20.625,66.1875
407,407,1727993477190,0.049804688,-1.2197266,0.09667969,-19.5625,-1.75,90.25
408,408,1727993477230,0.051757812,-1.0957031,0.28125,45.1875,-14.34375,107.8125
409,409,1727993477270,-0.12988281,-1.6240234,0.87597656,117.75,-122.78125,-52.9375
410,410,1727993477310,-1.1777344,0.072265625,-0.16308594,64.34375,-219.96875,-174.65625
411,411,1727993477350,-2.0019531,-1.09375,-0.9951172,328.625,-126.46875,-330.65625
412,412,1727993477390,-2.0019531,0.30371094,-0.29003906,-120.15625,-173.21875,-239.28125
413,413,1727993477430,-1.5439453,-0.84765625,-1.7011719,78.5,-114.90625,-229.8125
414,414,1727993477470,-1.2607422,-0.6669922,-0.28125,288.34375,-39.0625,-160.90625
415,415,1727993477510,-0.18359375,1.3876953,-0.63964844,266.6875,12.21875,-45.4375
416,416,1727993477550,0.5029297,1.2890625,-0.38085938,27.4375,102.59375,58.375
417,417,1727993477590,0.5419922,0.94140625,-0.20898438,-149.28125,116.03125,112.59375
418,418,1727993477630,-0.03125,0.23242188,-0.13769531,-242.90625,143.25,96.03125
419,419,1727993477670,-1.1455078,-1.1337891,0.7558594,-84.5,18.375,59.25
420,420,1727993477710,-2.0019531,-1.7978516,-1.7470703,-189.0625,-80.75,-93.84375
421,421,1727993477750,0.9082031,0.8144531,-0.8066406,-165.4375,19.34375,-1.0
422,422,1727993477790,-0.5761719,0.5917969,-0.78125,-92.8125,72.75,106.53125
423,423,1727993477830,-2.0019531,0.5605469,-1.1298828,65.75,67.625,153.125
424,424,1727993477870,-2.0019531,-1.1132812,-0.8652344,-208.28125,335.03125,116.5625
425,425,1727993477910,-2.0019531,-1.7060547,-0.9921875,-66.9375,-12.1875,145.96875
426,426,1727993477950,-0.484375,-0.95214844,-0.041992188,-113.4375,2.6875,75.65625
427,427,1727993477990,0.0234375,-1.3212891,0.4970703,-22.625,-3.40625,99.28125
428,428,1727993478030,0.27734375,-0.96777344,0.26660156,71.75,-27.40625,34.21875
429,429,1727993478070,-0.21386719,-1.2568359,0.484375,105.90625,-135.78125,-52.5625
430,430,1727993478110,-1.2666016,-0.5751953,-0.3095703,139.78125,-223.4375,-163.34375
431,431,1727993478150,-2.0019531,-0.6640625,-0.6464844,387.53125,-161.90625,-331.9375
432,432,1727993478190,-2.0019531,0.92871094,-0.6152344,-159.65625,-189.03125,-229.40625
433,433,1727993478230,-1.078125,-1.1689453,-0.57910156,295.8125,-57.0625,-230.0625
434,434,1727993478270,-0.9638672,0.24804688,-0.7080078,366.96875,-32.03125,-68.8125
435,435,1727993478310,0.40039062,1.5849609,-0.80859375,158.09375,80.5625,-0.8125
436,436,1727993478350,0.4482422,0.94433594,-0.32226562,-53.25,113.71875,93.25
437,437,1727993478390,0.41796875,0.81152344,-0.46972656,-289.59375,121.53125,101.34375
438,438,1727993478430,-0.42871094,-0.09375,0.08105469,-218.71875,118.1875,82.8125
439,439,1727993478470,-1.4765625,-0.9501953,-0.15332031,-105.03125,30.78125,74.625
440,440,1727993478510,-2.0019531,-1.1630859,-1.1455078,-287.5625,70.625,-115.5
441,441,1727993478550,0.8720703,0.15429688,-0.6386719,-258.9375,-10.125,8.65625
442,442,1727993478590,-0.8125,0.51171875,-1.0566406,48.375,22.40625,74.25
443,443,1727993478630,-2.0019531,0.92285156,-2.0283203,79.78125,108.21875,25.5625
444,444,1727993478670,-2.0019531,-1.0185547,1.9716797,-129.6875,357.84375,149.875
445,445,1727993478710,-0.671875,-1.0253906,-0.38085938,-168.1875,28.6875,67.46875
446,446,1727993478750,-0.22753906,-0.98535156,-0.11621094,-53.375,10.875,91.03125
447,447,1727993478790,0.017578125,-1.3857422,0.46484375,-5.53125,-24.09375,108.1875
448,448,1727993478830,0.061523438,-1.1308594,0.4296875,81.8125,-75.375,-17.125
449,449,1727993478870,-0.7470703,0.0009765625,0.2685547,73.15625,-177.25,-129.65625
450,450,1727993478910,-2.0019531,-1.7978516,-1.5683594,178.1875,-145.8125,-219.3125
451,451,1727993478950,-2.0019531,0.42089844,-0.16894531,72.65625,-201.03125,-259.65625
452,452,1727993478990,-2.0019531,0.46972656,-0.29003906,-89.21875,-106.9375,-186.84375
453,453,1727993479030,-1.2617188,-1.4296875,0.046875,266.0,-43.09375,-169.875
454,454,1727993479070,-0.7001953,0.7832031,-0.8027344,330.84375,-26.34375,-63.0
455,455,1727993479110,0.47851562,1.7617188,-0.56152344,142.125,77.59375,9.1875
456,456,1727993479150,0.59472656,1.0419922,-0.33007812,-91.28125,101.09375,118.875
457,457,1727993479190,0.36816406,0.6875,-0.3857422,-244.46875,118.84375,105.03125
458,458,1727993479230,-0.609375,-0.32714844,0.25683594,-204.5625,121.90625,81.625
459,459,1727993479270,-1.7636719,-1.0322266,-0.27539062,-71.625,56.90625,64.71875
460,460,1727993479310,-2.0019531,-0.18164062,-0.67578125,-210.25,-44.4375,-68.03125
461,461,1727993479350,1.1542969,1.2119141,-0.6621094,-137.25,24.25,19.3125
462,462,1727993479390,-1.2949219,1.4990234,-0.9980469,50.9375,-1.625,74.0
463,463,1727993479430,-2.0019531,0.47851562,-2.0283203,-38.96875,133.1875,139.3125
464,464,1727993479470,-2.0019531,-1.9775391,1.9716797,126.3125,342.46875,153.40625
465,465,1727993479510,-0.64941406,-1.0947266,-1.1279297,-124.25,22.09375,64.6875
466,466,1727993479550,-0.31054688,-0.70996094,0.3173828,-15.3125,23.5625,50.8125
467,467,1727993479590,-0.09082031,-1.0839844,0.16015625,38.78125,-34.15625,73.53125
468,468,1727993479630,0.11621094,-1.0478516,0.67578125,53.96875,-69.21875,-6.5625
469,469,1727993479670,-0.7167969,-0.21777344,0.23339844,74.5,-176.5625,-121.25
470,470,1727993479710,-2.0019531,-1.9775391,-1.4736328,195.46875,-134.15625,-226.78125
471,471,1727993479750,-2.0019531,0.94628906,-0.053710938,69.71875,-173.28125,-239.46875
472,472,1727993479790,-2.0019531,0.5830078,-0.016601562,-167.8125,-164.46875,-229.625
473,473,1727993479830,-1.0048828,-0.48828125,-0.123046875,201.6875,-35.5,-151.34375
474,474,1727993479870,-0.7011719,0.24511719,-0.37304688,275.53125,-12.9375,-62.90625
475,475,1727993479910,0.35058594,1.6962891,-0.7392578,169.625,73.125,31.15625
476,476,1727993479950,0.5986328,0.84277344,-0.23339844,-65.28125,91.875,147.5625
477,477,1727993479990,-0.025390625,0.10546875,-0.50097656,-221.03125,127.5625,110.4375
478,478,1727993480030,-1.1337891,-1.0732422,0.9082031,-193.09375,86.6875,46.96875
479,479,1727993480070,-1.5166016,-1.2363281,-0.22460938,-204.75,-15.25,20.40625
480,480,1727993480110,-1.9345703,0.5214844,-0.38183594,-133.34375,-56.5,-53.75
481,481,1727993480150,-0.25390625,1.1953125,-0.47265625,-52.96875,4.15625,78.78125
482,482,1727993480190,-1.9335938,0.4326172,-1.0947266,60.625,24.0625,124.59375
483,483,1727993480230,-2.0019531,0.5341797,-2.0283203,91.21875,196.0625,86.9375
484,484,1727993480270,-1.8935547,-1.9775391,1.9716797,-526.71875,14.46875,201.8125
485,485,1727993480310,-0.4580078,-0.5751953,0.34570312,-154.09375,47.8125,84.09375
486,486,1727993480350,-0.38671875,-0.9560547,0.22558594,-22.6875,29.90625,83.71875
487,487,1727993480390,0.02734375,-1.2480469,0.046875,-8.59375,-26.0625,81.03125
488,488,1727993480430,0.29101562,-1.0625,0.8076172,86.21875,-49.3125,38.25
489,489,1727993480470,-0.4501953,-0.6953125,0.31640625,76.9375,-179.5625,-130.6875
490,490,1727993480510,-2.0019531,-1.7373047,-1.0498047,141.0,-136.96875,-249.96875
491,491,1727993480550,-2.0019531,1.2304688,0.036132812,125.875,-178.28125,-282.625
492,492,1727993480590,-2.0019531,0.4375,-0.3251953,-153.34375,-136.53125,-218.46875
493,493,1727993480630,-1.3046875,-1.5117188,-0.07714844,273.9375,-54.25,-160.90625
494,494,1727993480670,-0.609375,0.71484375,-0.6464844,355.125,-28.90625,-45.375
495,495,1727993480710,0.56640625,1.5244141,-0.58691406,100.125,75.5,27.1875
496,496,1727993480750,0.40820312,0.765625,-0.37695312,-96.0,97.96875,123.21875
497,497,1727993480790,0.22460938,0.41210938,-0.41503906,-210.5,120.3125,95.875
498,498,1727993480830,-0.7558594,-0.47558594,0.9189453,-197.375,116.28125,74.3125
499,499,1727993480870,-0.70410156,-1.1845703,-0.39453125,-116.875,18.5,55.875
500,500,1727993480910,-2.0019531,-0.9628906,0.015625,-221.65625,45.40625,-84.25
501,501,1727993480950,0.65722656,0.5058594,-0.5048828,-212.9375,26.75,22.75
502,502,1727993480990,-1.0595703,1.0664062,-0.84472656,71.25,-35.5625,52.40625
503,503,1727993481030,-2.0019531,1.1611328,-2.0283203,195.03125,101.6875,103.75
504,504,1727993481070,-2.0019531,-0.9394531,1.9716797,-151.40625,428.125,140.0625
505,505,1727993481110,-1.0341797,-1.2529297,-0.8027344,-60.15625,13.0625,91.46875
506,506,1727993481150,-0.37890625,-1.1318359,0.32714844,-70.46875,5.3125,62.96875
507,507,1727993481190,-0.16308594,-1.09375,0.08203125,44.6875,-40.6875,113.8125
508,508,1727993481230,-0.076171875,-1.2978516,0.74121094,43.53125,-86.53125,20.375
509,509,1727993481270,-0.4375,-0.4638672,0.7109375,105.84375,-213.0625,-101.09375
510,510,1727993481310,-1.71875,-0.703125,-0.9423828,161.09375,-321.46875,-216.46875
511,511,1727993481350,-2.0019531,0.8564453,-0.53515625,156.875,-141.03125,-312.71875
512,512,1727993481390,-2.0019531,-0.9472656,0.7236328,-179.0625,25.28125,-217.3125
513,513,1727993481430,-1.4228516,-1.5039062,-0.3671875,371.90625,-46.3125,-182.03125
514,514,1727993481470,-0.36035156,1.2792969,-1.0136719,399.25,15.09375,-64.34375
515,515,1727993481510,0.37890625,1.3876953,-0.4140625,70.75,115.78125,18.34375
516,516,1727993481550,0.09765625,1.0576172,-0.15722656,-130.28125,109.9375,68.6875
517,517,1727993481590,0.2626953,0.74316406,-0.23828125,-295.4375,138.5625,46.375
518,518,1727993481630,-0.38085938,0.083984375,0.35839844,-189.96875,93.40625,73.71875
519,519,1727993481670,-1.2714844,-0.83203125,-0.82910156,12.46875,22.03125,143.65625
520,520,1727993481710,-2.0019531,-0.8925781,1.5673828,-198.65625,99.375,-1.1875
521,521,1727993481750,0.5517578,0.001953125,-0.4248047,-243.875,118.53125,22.875
522,522,1727993481790,-1.4462891,-0.083984375,-1.1494141,289.6875,0.3125,8.9375
523,523,1727993481830,-2.0019531,0.28125,-2.0283203,-347.5625,177.4375,146.34375
524,524,1727993481870,-1.9853516,-0.44628906,-1.1972656,112.625,-18.0,170.03125
525,525,1727993481910,-0.7998047,-1.0195312,0.19140625,-68.09375,-8.84375,122.21875
526,526,1727993481950,-0.11816406,-1.1835938,0.22558594,-36.78125,3.96875,63.21875
527,527,1727993481990,0.17578125,-1.1748047,0.08496094,-0.21875,-39.71875,71.15625
528,528,1727993482030,0.07324219,-1.2060547,0.5878906,121.125,-77.625,-0.6875
529,529,1727993482070,-0.80859375,0.20605469,-0.16210938,79.375,-169.125,-161.21875
530,530,1727993482110,-2.0019531,-1.90625,-0.71875,256.5625,-60.0625,-230.6875
531,531,1727993482150,-2.0019531,0.55859375,-0.3564453,-13.15625,-232.40625,-283.71875
532,532,1727993482190,-2.0019531,-0.087890625,-0.7001953,-86.46875,-117.84375,-262.53125
533,533,1727993482230,-1.2646484,-0.9941406,-0.27441406,311.96875,-65.59375,-154.875
534,534,1727993482270,0.06738281,1.1826172,-0.82421875,317.78125,-5.84375,-37.5625
535,535,1727993482310,0.66015625,1.5263672,-0.45214844,18.625,95.15625,51.78125
536,536,1727993482350,0.6796875,0.91015625,-0.3564453,-189.125,111.03125,99.15625
537,537,1727993482390,-0.040039062,0.42285156,-0.3330078,-293.5625,139.28125,81.59375
538,538,1727993482430,-1.3164062,-0.9140625,0.20117188,-94.09375,35.84375,88.125
539,539,1727993482470,-2.0019531,-1.9238281,-1.3544922,-87.9375,28.09375,67.90625
540,540,1727993482510,-0.578125,0.0546875,0.390625,-441.75,-79.21875,-29.375
541,541,1727993482550,0.3564453,1.3759766,-0.53808594,-2.28125,21.90625,5.84375
542,542,1727993482590,-2.0019531,1.0019531,-1.3173828,147.125,24.25,123.21875
543,543,1727993482630,-2.0019531,-1.4375,-1.5458984,-271.8125,225.90625,210.90625
544,544,1727993482670,-1.9472656,-1.5673828,-0.7636719,-58.5,-31.125,143.15625
545,545,1727993482710,-0.22167969,-0.8847656,0.09472656,-84.625,-20.75,62.21875
546,546,1727993482750,-0.1328125,-1.5927734,0.3076172,-1.375,-28.4375,54.53125
547,547,1727993482790,0.15820312,-0.86621094,0.16601562,46.40625,-51.03125,56.0
548,548,1727993482830,-0.09082031,-1.3554688,0.6376953,85.90625,-139.34375,-40.75
549,549,1727993482870,-0.66796875,-0.3154297,-0.49023438,150.15625,-223.9375,-174.40625
550,550,1727993482910,-2.0019531,-0.6611328,-0.8125,234.09375,-122.78125,-436.65625
551,551,1727993482950,-2.0019531,0.60253906,0.044921875,-206.21875,-104.59375,-201.5625
552,552,1727993482990,-1.3652344,-1.2148438,0.20703125,253.8125,-29.21875,-205.71875
553,553,1727993483030,-0.953125,0.90625,-0.8496094,414.03125,-56.21875,-55.5625
554,554,1727993483070,0.4560547,1.8486328,-0.79296875,198.6875,63.78125,7.53125
555,555,1727993483110,0.5566406,1.1298828,-0.38964844,-63.21875,106.15625,88.96875
556,556,1727993483150,0.4638672,0.85253906,-0.5390625,-323.71875,126.28125,100.8125
557,557,1727993483190,-0.7714844,-0.42382812,1.0839844,-248.28125,86.875,105.875
558,558,1727993483230,-2.0019531,-1.4658203,-1.1181641,-143.96875,19.34375,68.21875
559,559,1727993483270,-2.0019531,-0.25,0.083984375,-264.1875,-69.28125,-20.84375
560,560,1727993483310,-0.31933594,0.9863281,0.9638672,-77.3125,-12.3125,47.09375
561,561,1727993483350,-1.7734375,0.93652344,-1.0869141,106.09375,-5.0625,39.84375
562,562,1727993483390,-2.0019531,-0.47851562,-1.9365234,-333.96875,226.6875,155.5625
563,563,1727993483430,-1.5195312,-0.27929688,1.2880859,168.28125,-28.125,171.71875
564,564,1727993483470,-0.44140625,-1.1845703,0.49023438,-148.46875,26.9375,82.1875
565,565,1727993483510,-0.19921875,-1.3242188,0.38867188,-21.9375,7.75,72.0
566,566,1727993483550,0.076171875,-0.9980469,0.11425781,16.125,-46.875,37.28125
567,567,1727993483590,-0.0126953125,-0.9941406,0.7167969,97.625,-77.9375,-4.53125
568,568,1727993483630,-0.63183594,-0.328125,0.083984375,131.84375,-176.6875,-137.28125
569,569,1727993483670,-2.0019531,-1.9775391,-1.3183594,183.375,-158.0,-206.5
570,570,1727993483710,-2.0019531,0.48046875,-0.087890625,38.59375,-132.1875,-299.34375
571,571,1727993483750,-2.0019531,-0.044921875,-0.71972656,-133.59375,-136.40625,-268.875
572,572,1727993483790,-1.4013672,-1.4023438,-0.34960938,324.125,-30.75,-155.65625
573,573,1727993483830,-0.3642578,0.96875,-0.8574219,355.25,-12.5625,-46.65625
574,574,1727993483870,0.6611328,1.7851562,-0.60058594,50.1875,119.34375,27.375
575,575,1727993483910,0.41210938,1.0234375,-0.21191406,-173.8125,107.5625,123.5625
576,576,1727993483950,-0.034179688,0.41601562,-0.3828125,-335.90625,136.25,99.53125
577,577,1727993483990,-1.0888672,-0.91015625,0.7011719,-145.84375,39.0625,85.96875
578,578,1727993484030,-1.28125,-0.55566406,-0.59472656,-63.03125,-20.5625,153.34375
579,579,1727993484070,-2.0019531,-0.51464844,0.76953125,-163.4375,90.65625,-45.6875
580,580,1727993484110,0.5332031,0.20214844,-0.5703125,-332.25,39.5625,109.15625
581,581,1727993484150,-1.5810547,0.67089844,-0.859375,193.03125,12.71875,62.46875
582,582,1727993484190,-2.0019531,0.3125,-2.022461,-99.59375,151.125,95.125
583,583,1727993484230,-1.7470703,-1.0957031,1.9716797,124.09375,29.6875,174.65625
584,584,1727993484270,0.125,-0.82421875,0.25097656,-147.9375,-2.5,72.375
585,585,1727993484310,-0.21679688,-1.15625,0.24804688,-10.53125,3.375,75.65625
586,586,1727993484350,0.125,-1.0761719,0.12597656,39.8125,-36.625,68.46875
587,587,1727993484390,-0.057617188,-1.2451172,0.9345703,99.625,-98.4375,-17.78125
588,588,1727993484430,-0.8300781,-0.3330078,-0.32617188,119.59375,-234.1875,-146.5
589,589,1727993484470,-2.0019531,-1.609375,-0.7060547,363.65625,-103.5,-337.71875
590,590,1727993484510,-2.0019531,0.5439453,-0.55566406,-204.125,-160.28125,-321.5
591,591,1727993484550,-1.3369141,-0.3173828,-1.1777344,31.75,-110.71875,-248.75
592,592,1727993484590,-1.1230469,-0.6435547,-0.10644531,284.625,-29.09375,-147.1875
593,593,1727993484630,-0.0703125,1.1738281,-0.76171875,262.09375,29.78125,-26.8125
594,594,1727993484670,0.625,1.3613281,-0.5361328,26.6875,101.3125,85.78125
595,595,1727993484710,0.65625,1.0976562,-0.39453125,-240.40625,111.9375,138.78125
596,596,1727993484750,-0.33984375,-0.056640625,0.19335938,-290.125,115.78125,128.5625
597,597,1727993484790,-1.3574219,-1.0048828,0.09082031,-96.09375,49.6875,37.5
598,598,1727993484830,-2.0019531,-1.3583984,-1.1064453,-290.0625,34.375,-144.375
599,599,1727993484870,0.43945312,0.6152344,-0.5566406,-89.75,0.25,15.46875
600,600,1727993484910,-0.7705078,0.6767578,-0.77441406,42.4375,11.375,97.875
601,601,1727993484950,-2.0019531,1.6894531,-2.0283203,28.15625,47.4375,159.46875
602,602,1727993484990,-2.0019531,-1.8476562,1.4091797,-90.25,385.25,150.4375
603,603,1727993485030,-2.0019531,-1.9775391,-1.1640625,-188.46875,-14.625,141.09375
604,604,1727993485070,-0.33203125,-1.1298828,0.048828125,-73.03125,2.8125,71.3125
605,605,1727993485110,0.057617188,-1.1777344,0.20800781,2.21875,-11.71875,101.90625
606,606,1727993485150,0.1953125,-0.98535156,0.6855469,66.5,-38.5,37.75
607,607,1727993485190,-0.06347656,-1.1396484,0.5097656,120.8125,-142.625,-74.71875
608,608,1727993485230,-1.3857422,-1.1220703,-1.0820312,142.1875,-169.65625,-216.5625
609,609,1727993485270,-2.0019531,0.3798828,-0.08300781,134.90625,-153.25,-293.71875
610,610,1727993485310,-2.0019531,0.39453125,-0.265625,-148.59375,-102.09375,-218.84375
611,611,1727993485350,-1.21875,-1.2998047,0.11816406,241.46875,-34.125,-167.5625
612,612,1727993485390,-0.9013672,0.296875,-0.6279297,344.5,-35.4375,-56.25
613,613,1727993485430,0.31054688,1.7324219,-0.72753906,173.71875,47.5,-0.625
614,614,1727993485470,0.5390625,1.1103516,-0.36035156,-73.78125,81.0625,114.21875
615,615,1727993485510,0.41015625,0.5732422,-0.5751953,-259.5,124.03125,114.34375
616,616,1727993485550,-0.64160156,-0.2783203,0.3251953,-249.0,128.625,126.6875
617,617,1727993485590,-1.265625,-1.2998047,-0.36621094,-20.375,33.59375,101.0
618,618,1727993485630,-2.0019531,-1.4560547,-1.4091797,-304.71875,55.25,-130.28125
619,619,1727993485670,0.5546875,0.37695312,-0.6328125,-207.9375,-5.96875,54.0
620,620,1727993485710,-0.58691406,0.9667969,-1.0791016,72.71875,-16.46875,77.71875
621,621,1727993485750,-2.0019531,1.0898438,-2.0283203,99.03125,86.5,66.0625
622,622,1727993485790,-2.0019531,-1.9599609,1.9716797,-155.375,374.65625,127.84375
623,623,1727993485830,-0.38867188,-0.9082031,-0.022460938,-112.78125,52.0625,97.15625
624,624,1727993485870,-0.3876953,-1.0253906,-0.018554688,-67.84375,10.09375,79.125
625,625,1727993485910,0.35546875,-1.3916016,0.3095703,-9.125,-16.71875,68.40625
626,626,1727993485950,0.08886719,-1.0478516,0.41601562,89.8125,-52.46875,-9.4375
627,627,1727993485990,-0.71875,-0.34570312,0.2841797,98.71875,-146.90625,-113.84375
628,628,1727993486030,-2.0019531,-1.5605469,-0.9511719,227.0625,-88.625,-227.6875
629,629,1727993486070,-2.0019531,0.3876953,-0.0859375,95.0625,-186.875,-225.0
630,630,1727993486110,-2.0019531,0.31933594,-0.484375,-88.96875,-136.65625,-205.78125
631,631,1727993486150,-1.1914062,-1.8339844,-0.09472656,194.0625,-29.46875,-200.40625
632,632,1727993486190,-0.56347656,0.47558594,-0.84765625,323.75,-22.4375,-66.90625
633,633,1727993486230,0.5546875,1.8212891,-0.62402344,144.6875,62.09375,6.6875
634,634,1727993486270,0.54785156,0.9472656,-0.22070312,-59.65625,77.78125,103.3125
635,635,1727993486310,0.38183594,0.7089844,-0.3955078,-229.09375,120.8125,81.75
636,636,1727993486350,-0.4873047,-0.3828125,0.8886719,-170.6875,110.84375,74.1875
637,637,1727993486390,-1.1503906,-0.69921875,-0.25683594,-123.21875,13.3125,64.96875
638,638,1727993486430,-2.0019531,-0.91015625,-0.0546875,-216.59375,49.03125,-57.71875
639,639,1727993486470,0.80371094,0.71972656,-0.6347656,-214.875,41.34375,71.875
640,640,1727993486510,-0.859375,1.21875,-0.77441406,13.875,-8.84375,21.53125
641,641,1727993486550,-2.0019531,0.4560547,-0.60058594,183.8125,59.9375,158.65625
642,642,1727993486590,-2.0019531,-1.171875,1.9716797,-27.625,359.375,196.625
643,643,1727993486630,-0.7685547,-1.0927734,-0.42285156,-125.34375,42.6875,101.46875
644,644,1727993486670,-0.27148438,-1.0966797,0.038085938,-57.53125,16.96875,58.03125
645,645,1727993486710,-0.10253906,-0.99609375,0.19726562,1.25,-26.90625,82.96875
646,646,1727993486750,0.18066406,-0.9375,0.47851562,65.5,-58.9375,40.875
647,647,1727993486790,-0.4716797,-0.9091797,0.72265625,84.25,-167.59375,-85.09375
648,648,1727993486830,-0.9765625,-0.47460938,-0.75097656,115.375,-244.875,-180.6875
649,649,1727993486870,-2.0019531,-0.23828125,-0.26953125,238.4375,-114.3125,-355.0
650,650,1727993486910,-2.0019531,0.4970703,0.20214844,-182.96875,-128.03125,-220.84375
651,651,1727993486950,-1.21875,-0.7939453,0.076171875,309.53125,-22.40625,-169.03125
652,652,1727993486990,-0.98046875,0.4501953,-0.7871094,405.34375,-32.53125,-37.9375
653,653,1727993487030,0.296875,1.4892578,-0.43945312,157.375,75.8125,-11.9375
654,654,1727993487070,0.5283203,0.9550781,-0.23535156,-83.78125,115.1875,86.15625
655,655,1727993487110,0.3388672,0.77441406,-0.40429688,-267.96875,121.28125,81.8125
656,656,1727993487150,-0.5800781,-0.4736328,0.7324219,-223.78125,102.5625,69.25
657,657,1727993487190,-1.2578125,-0.9951172,-0.56152344,-111.84375,11.90625,34.875
658,658,1727993487230,-2.0019531,-0.23242188,-0.28320312,-226.65625,-41.9375,-5.75
659,659,1727993487270,0.076171875,0.6953125,-0.5830078,-134.75,16.5625,56.4375
660,660,1727993487310,-1.6386719,0.9033203,-0.9472656,-3.9375,10.75,91.21875
661,661,1727993487350,-2.0019531,0.045898438,-2.0283203,164.34375,117.8125,119.40625
662,662,1727993487390,-2.0019531,-1.9189453,1.9716797,-250.40625,244.53125,140.0625
663,663,1727993487430,-0.22265625,-0.7216797,-0.06347656,-121.4375,43.21875,67.46875
664,664,1727993487470,0.03125,-0.9472656,0.049804688,-46.96875,17.59375,68.21875
665,665,1727993487510,0.36621094,-1.0009766,0.4638672,16.625,-13.78125,57.96875
666,666,1727993487550,-0.4296875,-1.0205078,0.03125,78.9375,-47.46875,-63.25
667,667,1727993487590,-0.6171875,-0.34277344,0.40625,83.59375,-138.71875,-99.75
668,668,1727993487630,-1.6074219,-1.9775391,-1.515625,189.71875,-193.40625,-154.625
669,669,1727993487670,-2.0019531,-0.14746094,-0.048828125,249.46875,-165.28125,-270.90625
670,670,1727993487710,-2.0019531,0.8310547,-0.11816406,-146.34375,-125.40625,-295.625
671,671,1727993487750,-1.0205078,-0.5097656,-0.36132812,295.4375,-25.5625,-189.1875
672,672,1727993487790,-1.0195312,0.16308594,-0.50097656,262.34375,-17.75,-89.625
673,673,1727993487830,0.33789062,1.5488281,-0.55566406,219.25,71.71875,7.53125
674,674,1727993487870,0.53125,1.1835938,-0.3310547,-141.09375,107.5,116.4375
675,675,1727993487910,0.087890625,0.38085938,-0.48828125,-277.875,110.25,122.03125
676,676,1727993487950,-0.7949219,-0.33007812,0.18359375,-178.75,103.9375,86.46875
677,677,1727993487990,-1.0507812,-0.40722656,-0.15625,-117.59375,4.53125,165.375
678,678,1727993488030,-2.0019531,-1.3789062,-1.4121094,-74.5,142.65625,-41.09375
679,679,1727993488070,0.29296875,-0.3046875,-0.94628906,-506.03125,2.03125,15.40625
680,680,1727993488110,-0.74121094,0.005859375,-1.0439453,125.9375,9.09375,99.46875
681,681,1727993488150,-2.0019531,0.21386719,-2.0283203,39.375,160.40625,-7.34375
682,682,1727993488190,-2.0019531,-0.5546875,1.9716797,-151.65625,252.5,130.21875
683,683,1727993488230,-0.3828125,-0.90527344,-0.8720703,-148.59375,-45.53125,97.4375
684,684,1727993488270,-0.10546875,-1.2158203,0.65722656,-72.59375,15.875,126.9375
685,685,1727993488310,-0.059570312,-1.234375,0.1796875,-0.40625,-61.75,56.625
686,686,1727993488350,0.091796875,-1.2021484,0.80371094,34.8125,-100.40625,-34.4375
687,687,1727993488390,-0.6855469,-0.2607422,0.028320312,65.875,-208.25,-128.75
688,688,1727993488430,-2.0019531,-1.9775391,-1.4433594,208.28125,-107.40625,-280.90625
689,689,1727993488470,-2.0019531,0.45214844,-0.026367188,-38.25,-135.375,-326.0625
690,690,1727993488510,-1.8085938,-0.14746094,-0.8154297,-107.53125,-122.96875,-235.5625
691,691,1727993488550,-1.3369141,-1.3554688,-0.0068359375,215.28125,-29.34375,-182.71875
692,692,1727993488590,-0.73535156,0.20507812,-0.6933594,374.15625,4.71875,-57.71875
693,693,1727993488630,0.20507812,1.4980469,-0.7626953,177.875,84.375,32.5625
694,694,1727993488670,0.09375,1.1669922,-0.09375,-58.28125,106.46875,127.1875
695,695,1727993488710,0.30566406,0.6591797,-0.5058594,-354.84375,102.71875,125.46875
696,696,1727993488750,-0.48632812,-0.5878906,0.4453125,-255.34375,79.59375,65.59375
697,697,1727993488790,-1.5019531,-1.4990234,0.9121094,-171.5,12.28125,16.8125
698,698,1727993488830,-1.3818359,0.14257812,-0.2109375,-250.34375,-54.5625,8.15625
699,699,1727993488870,-0.36328125,1.3994141,0.80371094,112.625,-7.9375,175.75
700,700,1727993488910,-1.7138672,0.42773438,-0.9746094,191.25,8.625,70.34375
701,701,1727993488950,-2.0019531,1.0361328,-2.0283203,-62.0,165.21875,49.90625
702,702,1727993488990,-1.8466797,-1.1767578,1.9716797,-192.3125,-1.75,172.34375
703,703,1727993489030,-1.3662109,-1.1201172,0.8027344,-73.53125,-0.46875,156.21875
704,704,1727993489070,-0.22460938,-1.2392578,0.028320312,-61.375,3.65625,89.15625
705,705,1727993489110,0.40625,-1.1582031,0.21582031,16.75,-8.78125,91.78125
706,706,1727993489150,0.068359375,-1.3916016,0.7558594,118.375,-30.8125,9.0625
707,707,1727993489190,-0.6328125,-0.3564453,0.21582031,108.0,-149.71875,-143.53125
708,708,1727993489230,-2.0019531,-1.3134766,-0.9589844,149.6875,-168.75,-221.78125
709,709,1727993489270,-2.0019531,0.60058594,-0.3544922,198.625,-151.3125,-304.21875
710,710,1727993489310,-2.0019531,0.6748047,-0.040039062,-151.59375,-122.3125,-220.84375
711,711,1727993489350,-1.1318359,-0.8310547,0.15917969,276.75,-10.84375,-167.6875
712,712,1727993489390,-0.66503906,0.453125,-0.51171875,257.28125,3.90625,-46.28125
713,713,1727993489430,0.27246094,1.3134766,-0.44335938,69.40625,68.0625,21.59375
714,714,1727993489470,0.4814453,1.0292969,-0.359375,-84.5,82.65625,135.46875
715,715,1727993489510,0.60839844,0.71972656,-0.38867188,-280.5,116.09375,139.875
716,716,1727993489550,-1.0664062,-1.7587891,1.9716797,-150.3125,41.28125,106.53125
717,717,1727993489590,-1.4648438,-1.3798828,-0.6171875,-110.6875,33.46875,36.71875
718,718,1727993489630,-2.0019531,-0.8144531,1.1171875,-420.25,41.03125,-59.71875
719,719,1727993489670,0.84472656,1.1826172,-0.37304688,28.21875,-40.09375,23.53125
720,720,1727993489710,-0.8876953,0.86816406,-0.95410156,117.8125,-35.8125,34.34375
721,721,1727993489750,-2.0019531,1.2226562,-2.0283203,32.96875,132.28125,159.46875
722,722,1727993489790,-2.0019531,1.9726562,1.9716797,-97.375,377.21875,150.4375
723,723,1727993489830,0.15820312,-0.3876953,0.97558594,-152.0625,49.6875,77.84375
724,724,1727993489870,-0.28320312,-0.99121094,0.1484375,-64.5625,-6.9375,83.53125
725,725,1727993489910,0.26757812,-1.2412109,0.07421875,-7.53125,-27.15625,55.75
726,726,1727993489950,0.20800781,-1.2255859,0.5341797,86.375,-51.625,-12.15625
727,727,1727993489990,-0.5957031,-0.3984375,0.22460938,150.09375,-152.21875,-130.8125
728,728,1727993490030,-1.9824219,-1.5087891,-1.3925781,158.59375,-174.96875,-204.0625
729,729,1727993490070,-2.0019531,0.25195312,-0.12402344,192.34375,-119.9375,-299.15625
730,730,1727993490110,-2.0019531,0.5722656,0.14355469,-164.96875,-105.53125,-250.5
731,731,1727993490150,-0.9814453,-0.9902344,-0.16113281,327.0,11.3125,-208.46875
732,732,1727993490190,-1.0458984,-0.13183594,-0.20117188,225.59375,7.40625,-85.0
733,733,1727993490230,-0.1640625,1.0253906,-0.34960938,214.5,66.21875,-4.125
734,734,1727993490270,0.3388672,1.0693359,-0.22363281,28.21875,116.9375,113.875
735,735,1727993490310,0.2841797,0.7832031,-0.2578125,-186.4375,103.03125,153.71875
736,736,1727993490350,-0.123046875,-0.049804688,-0.049804688,-223.4375,116.40625,93.25
737,737,1727993490390,-1.0410156,-0.8378906,0.0859375,-130.40625,60.25,18.96875
738,738,1727993490430,-2.0019531,-1.2070312,-0.88378906,-270.375,-80.0625,-117.875
739,739,1727993490470,0.1484375,0.7890625,-0.40429688,-90.90625,5.3125,34.34375
740,740,1727993490510,-0.46972656,0.8330078,-0.74902344,64.46875,-43.15625,78.09375
741,741,1727993490550,-2.0019531,0.3408203,-1.5175781,140.90625,-0.84375,169.09375
742,742,1727993490590,-1.9736328,-0.42089844,-1.4277344,-143.65625,319.96875,123.375
743,743,1727993490630,-1.4277344,-1.7275391,-1.3935547,-74.875,-48.75,149.875
744,744,1727993490670,-0.7451172,-1.2421875,0.1875,-105.03125,17.96875,95.5625
745,745,1727993490710,-0.115234375,-1.1064453,0.24609375,8.375,3.0625,72.53125
746,746,1727993490750,0.49316406,-0.99609375,0.051757812,36.40625,-18.125,10.09375
747,747,1727993490790,-0.076171875,-1.2666016,0.5107422,142.46875,-90.375,-51.90625
748,748,1727993490830,-1.1289062,-0.48046875,-0.27148438,121.71875,-166.96875,-179.40625
749,749,1727993490870,-2.0019531,-0.67578125,0.0234375,294.875,-122.0625,-369.15625
750,750,1727993490910,-2.0019531,0.8652344,-0.6796875,-63.46875,-169.1875,-259.5
751,751,1727993490950,-1.5253906,-0.30859375,-0.8232422,34.03125,-89.53125,-194.0625
752,752,1727993490990,-1.0146484,-0.6875,-0.17089844,218.34375,-52.90625,-156.21875
753,753,1727993491030,-0.3564453,0.69628906,-0.9111328,335.03125,5.8125,-25.59375
754,754,1727993491070,0.7265625,1.5097656,-0.43359375,108.96875,85.15625,55.21875
755,755,1727993491110,0.6855469,0.9892578,-0.28320312,-155.1875,116.71875,123.75
756,756,1727993491150,-0.11035156,0.28808594,-0.15332031,-248.21875,132.53125,123.625
757,757,1727993491190,-1.1367188,-0.9003906,0.9404297,-50.5625,52.75,94.59375
758,758,1727993491230,-1.2724609,-0.9550781,-0.59472656,-126.875,-7.0625,100.625
759,759,1727993491270,-2.0019531,-1.1767578,-0.10644531,-321.09375,-93.5,-104.875
