,Unnamed: 0,timestamp,accel_x,accel_y,accel_z,gyro_x,gyro_y,gyro_z
0,0,1727997938124,-0.49316406,-0.48632812,0.4189453,-113.53125,-9.625,-24.71875
1,1,1727997938164,-0.2626953,-0.3515625,0.15527344,-71.5625,-33.125,-60.1875
2,2,1727997938204,-1.2402344,0.15332031,0.33496094,-123.25,-28.34375,-157.65625
3,3,1727997938244,-1.9853516,0.4111328,0.11328125,-3.25,-103.71875,-176.40625
4,4,1727997938284,-1.9853516,0.40234375,-0.20019531,-38.90625,-44.34375,-82.28125
5,5,1727997938324,-1.6347656,0.12597656,0.16503906,-159.6875,40.8125,-104.25
6,6,1727997938364,-1.0478516,0.16894531,0.036132812,94.84375,-45.25,-65.6875
7,7,1727997938404,-0.3095703,0.3642578,-0.15917969,25.96875,8.9375,-30.28125
8,8,1727997938444,0.296875,0.3251953,-0.13574219,9.6875,59.71875,38.6875
9,9,1727997938484,0.49804688,-0.047851562,0.07910156,-7.71875,26.21875,96.625
10,10,1727997938524,-0.4716797,-0.56347656,-0.734375,58.34375,76.25,-37.1875
11,11,1727997938564,-0.6748047,0.25878906,0.44628906,-95.34375,12.1875,-2.4375
12,12,1727997938604,-1.9853516,0.9970703,0.8642578,-134.0625,22.6875,87.34375
13,13,1727997938644,-0.25878906,0.3828125,-0.35351562,-136.75,14.4375,89.34375
14,14,1727997938684,-1.9853516,0.27148438,-0.39257812,14.625,-147.375,99.78125
15,15,1727997938724,-1.3525391,-0.22949219,-0.18359375,298.4375,31.84375,102.21875
16,16,1727997938764,-0.92578125,-0.08300781,0.07421875,303.9375,85.34375,124.1875
17,17,1727997938804,-0.9580078,-0.13769531,0.115234375,8.40625,5.34375,61.75
18,18,1727997938844,-0.6777344,-0.2578125,0.16210938,-2.78125,10.09375,41.375
19,19,1727997938884,-0.25097656,-0.30273438,0.23046875,-21.625,-29.6875,3.15625
20,20,1727997938924,0.028320312,-0.25097656,0.036132812,-0.09375,-29.25,-39.0
21,21,1727997938964,-0.4033203,-0.10839844,0.06738281,-44.5625,-42.09375,-137.53125
22,22,1727997939004,-1.9853516,0.31152344,0.04296875,-73.6875,-62.15625,-271.75
23,23,1727997939044,-1.8007812,0.7265625,0.01171875,-68.0,33.96875,-15.5
24,24,1727997939084,-1.1347656,0.20800781,-0.107421875,-72.65625,16.8125,-57.5625
25,25,1727997939124,-0.79785156,0.3779297,0.016601562,108.5,-29.8125,-13.1875
26,26,1727997939164,0.08105469,0.33984375,-0.14160156,-2.53125,33.78125,36.1875
27,27,1727997939204,0.56640625,0.18261719,0.0234375,21.96875,39.8125,74.40625
28,28,1727997939244,-0.34570312,-0.66015625,0.46191406,23.28125,-27.125,24.15625
29,29,1727997939284,-0.37890625,-0.5566406,-0.5097656,127.59375,111.84375,-57.1875
30,30,1727997939324,-1.0244141,0.15234375,0.15625,-121.34375,-106.28125,64.375
31,31,1727997939364,-1.8945312,1.5849609,0.5517578,-53.5625,217.875,-18.125
32,32,1727997939404,0.055664062,0.22558594,-0.30371094,-55.875,-81.875,75.0
33,33,1727997939444,-1.9853516,-0.0009765625,-0.47851562,93.25,-86.09375,37.03125
34,34,1727997939484,-1.3427734,-0.20117188,-0.1640625,352.09375,94.03125,98.4375
35,35,1727997939524,-0.82128906,0.18457031,0.24804688,-213.53125,176.84375,129.75
36,36,1727997939564,-0.58691406,-0.37597656,0.1328125,-251.96875,57.65625,14.40625
37,37,1727997939604,-0.4873047,-0.703125,0.28515625,-56.34375,-11.3125,-32.1875
38,38,1727997939644,-0.0068359375,-0.4765625,0.044921875,-3.5,-53.0,-112.75
39,39,1727997939684,-0.86035156,0.048828125,0.203125,-13.625,-60.5,-164.875
40,40,1727997939724,-1.9853516,0.6347656,0.20117188,10.46875,-24.3125,-268.6875
41,41,1727997939764,-1.0693359,0.23339844,0.3046875,-142.34375,49.71875,-66.96875
42,42,1727997939804,-1.3574219,0.047851562,0.140625,33.96875,-35.5625,-49.1875
43,43,1727997939844,-0.6376953,0.30078125,0.0029296875,63.15625,-33.15625,-7.21875
44,44,1727997939884,-0.07519531,0.5722656,-0.052734375,-51.28125,48.96875,46.0
45,45,1727997939924,0.1015625,0.28125,-0.2529297,-19.5625,50.5,109.96875
46,46,1727997939964,-0.6015625,-0.39648438,-0.18164062,32.4375,24.5625,49.125
47,47,1727997940004,-0.080078125,-0.3125,-0.087890625,29.03125,6.25,40.21875
48,48,1727997940044,-1.2089844,0.22558594,0.5966797,7.71875,93.0625,12.5
49,49,1727997940084,-1.9853516,0.8935547,-0.15527344,-194.78125,101.90625,-10.4375
50,50,1727997940124,-0.13574219,0.08496094,-0.5576172,-39.875,20.78125,131.9375
51,51,1727997940164,-1.9853516,-0.22460938,-0.21582031,225.625,-82.125,129.625
52,52,1727997940204,-0.8466797,-0.09277344,0.056640625,237.21875,95.78125,150.375
53,53,1727997940244,-0.921875,0.06738281,0.18359375,35.1875,33.90625,69.6875
54,54,1727997940284,-0.9814453,-0.04296875,0.18847656,-63.96875,11.4375,36.5625
55,55,1727997940324,-0.56933594,-0.36914062,0.06640625,-5.28125,-2.65625,32.03125
56,56,1727997940364,-0.12011719,-0.5683594,0.24609375,-143.15625,-38.46875,-10.03125
57,57,1727997940404,-0.080078125,-0.6933594,0.20703125,-50.625,-13.75,-125.5625
58,58,1727997940444,-1.2792969,0.13085938,0.18945312,34.15625,-94.28125,-190.875
59,59,1727997940484,-1.9853516,0.79003906,0.1484375,-19.125,-57.40625,-254.40625
60,60,1727997940524,-1.5410156,0.21875,-0.25878906,-108.53125,38.1875,-118.40625
61,61,1727997940564,-1.4941406,0.0048828125,-0.051757812,51.90625,-19.375,-68.25
62,62,1727997940604,-0.56640625,0.45703125,-0.28125,96.34375,-14.375,-24.59375
63,63,1727997940644,0.23730469,0.51171875,-0.07910156,-10.15625,75.59375,40.46875
64,64,1727997940684,0.61328125,0.33691406,0.25976562,-1.1875,50.3125,137.125
65,65,1727997940724,-0.27441406,-0.23730469,-0.7216797,124.375,-20.21875,19.71875
66,66,1727997940764,0.08886719,-0.14355469,-0.12402344,14.09375,153.40625,-16.96875
67,67,1727997940804,-1.8291016,0.17773438,-0.24414062,-125.15625,-23.90625,72.6875
68,68,1727997940844,-1.4130859,0.8378906,-0.32226562,-295.5,4.90625,6.15625
69,69,1727997940884,-0.68847656,0.140625,-0.53808594,1.25,-60.5,116.03125
70,70,1727997940924,-1.9853516,-0.06640625,-0.4111328,359.90625,-143.03125,74.875
71,71,1727997940964,-0.8779297,-0.1171875,-0.10644531,384.25,136.5625,111.1875
72,72,1727997941004,-1.1787109,0.12011719,0.06933594,-108.53125,105.375,66.15625
73,73,1727997941044,-0.7998047,0.13085938,0.2919922,-69.0625,41.59375,27.21875
74,74,1727997941084,-0.2919922,-0.36914062,0.2861328,-221.75,7.125,12.3125
75,75,1727997941124,0.038085938,-0.6513672,0.48828125,-117.6875,-2.03125,-24.375
76,76,1727997941164,-0.3076172,-0.41015625,0.11425781,14.6875,-66.8125,-146.625
77,77,1727997941204,-1.9052734,0.18847656,-0.099609375,-32.90625,-106.90625,-228.53125
78,78,1727997941244,-1.9853516,1.0039062,0.001953125,-97.75,-38.0625,-106.46875
79,79,1727997941284,-1.6933594,-0.12988281,-0.07128906,-121.78125,10.71875,-120.5625
80,80,1727997941324,-1.1582031,0.18847656,0.060546875,141.46875,-64.53125,-76.3125
81,81,1727997941364,-0.3154297,0.60839844,-0.26464844,9.75,7.71875,-27.34375
82,82,1727997941404,0.40527344,0.4814453,0.09082031,-45.5,63.09375,59.75
83,83,1727997941444,0.33789062,-0.06738281,0.049804688,-47.5,15.21875,112.53125
84,84,1727997941484,-0.359375,-0.6699219,-0.77246094,111.625,-30.78125,-21.5625
85,85,1727997941524,-0.19433594,0.1953125,0.44433594,-21.125,6.5625,22.625
86,86,1727997941564,-1.9853516,1.8515625,0.9628906,-153.28125,-58.4375,-8.5
87,87,1727997941604,0.22949219,0.23242188,-0.36816406,-88.59375,-1.8125,81.96875
88,88,1727997941644,-1.9853516,0.36816406,-0.52734375,93.78125,-159.875,103.1875
89,89,1727997941684,-1.5410156,-0.13574219,-0.20898438,257.90625,61.375,98.625
90,90,1727997941724,-0.99121094,-0.125,-0.17773438,235.6875,106.0625,123.84375
91,91,1727997941764,-1.2363281,0.13476562,0.17480469,-75.75,151.28125,75.8125
92,92,1727997941804,-0.5966797,-0.15625,0.19921875,-202.21875,38.46875,49.78125
93,93,1727997941844,-0.24902344,-0.5917969,0.46875,-246.53125,56.96875,5.1875
94,94,1727997941884,0.08496094,-0.4921875,0.25683594,123.46875,-80.40625,-48.78125
95,95,1727997941924,-0.31054688,-0.40429688,0.048828125,-16.8125,-57.28125,-148.8125
96,96,1727997941964,-1.9853516,0.061523438,0.13867188,-40.53125,-88.78125,-372.6875
97,97,1727997942004,-1.9853516,1.2226562,0.049804688,-186.53125,35.625,-37.375
98,98,1727997942044,-1.3095703,0.2578125,-0.12988281,-40.0625,-24.8125,-80.03125
99,99,1727997942084,-0.78222656,0.1328125,-0.049804688,124.75,-77.90625,-37.46875
100,100,1727997942124,-0.234375,0.6660156,-0.27441406,-62.65625,20.53125,-14.46875
101,101,1727997942164,0.32128906,0.45410156,-0.087890625,-105.1875,69.5,44.5625
102,102,1727997942204,0.4453125,0.23828125,0.20703125,-93.46875,23.21875,95.34375
103,103,1727997942244,-0.016601562,-0.16210938,-0.7607422,104.84375,-13.53125,-10.4375
104,104,1727997942284,-1.0078125,-0.89941406,-0.68652344,202.375,34.5625,-83.4375
105,105,1727997942324,-1.9853516,1.9951172,1.9833984,-546.90625,-71.25,87.40625
106,106,1727997942364,-0.4296875,0.5996094,-0.8066406,-141.0,-91.65625,5.71875
107,107,1727997942404,-1.7207031,0.7597656,-0.32128906,69.3125,-86.6875,-4.28125
108,108,1727997942444,-1.1455078,0.43359375,-0.234375,-130.6875,-24.8125,19.21875
109,109,1727997942484,-0.75097656,0.0029296875,-0.27148438,-164.15625,-57.71875,36.6875
110,110,1727997942524,-0.9658203,-0.099609375,-0.41015625,-89.625,-35.125,32.09375
111,111,1727997942564,-0.3466797,-0.3359375,-0.48242188,-118.25,51.53125,-4.65625
112,112,1727997942604,0.09863281,-0.3408203,-0.3408203,-274.6875,56.0625,-82.96875
113,113,1727997942644,0.016601562,-0.296875,-0.33984375,-292.875,12.96875,-76.96875
114,114,1727997942684,-0.6435547,-0.140625,-0.35351562,-223.28125,-38.53125,-49.5
115,115,1727997942724,-1.9853516,-0.15234375,0.4736328,-653.59375,35.875,-172.75
116,116,1727997942764,-1.4082031,0.02734375,0.115234375,-118.96875,-63.5625,-15.625
117,117,1727997942804,-1.5849609,0.076171875,0.16992188,-150.21875,-80.09375,-29.0
118,118,1727997942844,-1.2080078,0.24121094,-0.15722656,-151.3125,-70.15625,-4.21875
119,119,1727997942884,-0.80371094,0.0859375,-0.17773438,-196.0,-37.9375,2.875
120,120,1727997942924,-0.6074219,0.060546875,-0.14355469,-212.53125,-31.21875,12.03125
121,121,1727997942964,-0.4794922,-0.29492188,-0.16015625,-150.03125,-43.96875,7.8125
122,122,1727997943004,-0.3857422,-0.28710938,-0.016601562,-118.5625,-72.96875,-9.21875
123,123,1727997943044,-0.4091797,0.14257812,-0.072265625,-91.8125,-85.65625,-1.0
124,124,1727997943084,-0.58984375,0.4345703,-0.059570312,-116.84375,2.34375,37.40625
125,125,1727997943124,-0.7841797,0.20800781,-0.18164062,-110.6875,58.0,134.4375
126,126,1727997943164,-1.9853516,-0.6621094,-0.08203125,-111.34375,72.96875,88.3125
127,127,1727997943204,-1.0917969,-0.08691406,-0.26367188,-66.0625,17.375,9.5625
128,128,1727997943244,-0.5839844,0.07519531,-0.34570312,-38.40625,-7.59375,40.15625
129,129,1727997943284,-1.3671875,0.103515625,-0.5253906,74.25,-45.4375,45.28125
130,130,1727997943324,-1.84375,0.25390625,-0.41210938,29.9375,32.625,72.4375
131,131,1727997943364,-1.3847656,-0.12890625,-0.31152344,6.8125,124.0625,83.125
132,132,1727997943404,-1.3974609,0.3251953,1.0146484,-80.28125,169.71875,84.84375
133,133,1727997943444,-1.2597656,-0.51464844,0.62402344,-86.5625,16.09375,43.6875
134,134,1727997943484,-0.7158203,-0.35546875,-0.057617188,32.6875,-12.96875,29.71875
135,135,1727997943524,-0.17773438,-0.3984375,0.09863281,-45.125,15.78125,28.75
136,136,1727997943564,0.21289062,-0.8984375,0.5625,-146.6875,-10.40625,-17.46875
137,137,1727997943604,-0.4375,0.060546875,0.19238281,-47.875,-77.71875,-181.53125
138,138,1727997943644,-1.9853516,0.22265625,-0.025390625,-94.3125,-127.96875,-277.34375
139,139,1727997943684,-1.9853516,0.6357422,0.030273438,-153.65625,-29.15625,-161.5625
140,140,1727997943724,-1.9511719,-0.078125,0.0029296875,-42.75,-22.6875,-114.5
141,141,1727997943764,-1.1601562,0.4716797,-0.07324219,75.0625,-35.375,-48.59375
142,142,1727997943804,-0.27441406,0.52246094,-0.2421875,0.46875,33.1875,2.4375
143,143,1727997943844,0.37402344,0.28515625,-0.24609375,14.3125,52.65625,69.4375
144,144,1727997943884,0.53808594,0.2109375,0.3798828,-80.40625,27.75,98.125
145,145,1727997943924,-0.01171875,-0.3330078,-0.9609375,68.875,107.875,-55.3125
146,146,1727997943964,-0.29785156,0.02734375,-0.25878906,-5.8125,27.5625,21.28125
147,147,1727997944004,-1.9853516,1.3173828,-0.10058594,-180.8125,23.78125,44.1875
148,148,1727997944044,-0.29785156,0.32714844,-0.3466797,-135.875,68.03125,18.1875
149,149,1727997944084,-1.9853516,0.11425781,-0.54003906,74.5,-181.90625,136.59375
150,150,1727997944124,-1.6601562,-0.21972656,-0.30664062,290.5,27.6875,142.3125
151,151,1727997944164,-1.1220703,0.09472656,0.46191406,152.3125,110.5625,117.125
152,152,1727997944204,-1.0654297,-0.19433594,0.2265625,6.15625,19.625,59.375
153,153,1727997944244,-0.48046875,-0.33496094,0.07421875,115.09375,-18.21875,70.125
154,154,1727997944284,0.038085938,-0.32617188,0.09472656,63.6875,-37.625,36.84375
155,155,1727997944324,0.30273438,-0.48046875,0.3671875,-116.28125,-61.90625,-26.25
156,156,1727997944364,-0.203125,-0.11621094,-0.087890625,8.09375,-76.1875,-174.75
157,157,1727997944404,-1.9853516,0.18066406,-0.06640625,-10.75,-52.65625,-439.65625
158,158,1727997944444,-1.9853516,0.7207031,-0.36035156,-240.8125,78.40625,-69.84375
159,159,1727997944484,-1.8134766,-0.12109375,0.0029296875,27.09375,-20.84375,-81.4375
160,160,1727997944524,-1.1162109,0.3125,-0.20410156,144.15625,-50.4375,-57.9375
161,161,1727997944564,0.0546875,0.5341797,-0.17675781,-32.6875,49.28125,25.125
162,162,1727997944604,0.58496094,0.3251953,-0.07910156,7.25,30.5,118.65625
163,163,1727997944644,0.62402344,0.036132812,0.50390625,-24.8125,-36.40625,99.25
164,164,1727997944684,-0.25585938,-0.23535156,-0.96875,130.21875,60.875,-46.34375
165,165,1727997944724,-0.39648438,-0.028320312,-0.27539062,75.84375,57.15625,44.4375
166,166,1727997944764,-1.9853516,1.5029297,0.8798828,-196.0625,-132.40625,13.34375
167,167,1727997944804,-0.24902344,0.46679688,-0.3330078,-223.90625,74.9375,18.125
168,168,1727997944844,-1.9853516,0.14746094,-0.53027344,154.71875,-284.8125,137.375
169,169,1727997944884,-1.4521484,-0.13183594,-0.24707031,413.5625,83.59375,144.875
170,170,1727997944924,-1.234375,0.041992188,0.30078125,228.625,98.96875,108.9375
171,171,1727997944964,-0.8300781,-0.17480469,0.25195312,-166.03125,18.78125,55.78125
172,172,1727997945004,-0.25585938,-0.2734375,0.14160156,41.125,12.78125,62.3125
173,173,1727997945044,0.20410156,-0.3173828,0.13378906,34.71875,-38.78125,5.3125
174,174,1727997945084,0.16113281,-0.47753906,0.42285156,-172.03125,-31.28125,-42.375
175,175,1727997945124,-0.56347656,-0.05078125,-0.115234375,36.59375,-83.40625,-176.9375
176,176,1727997945164,-1.9853516,0.1953125,0.18066406,-123.125,-73.21875,-450.9375
177,177,1727997945204,-1.7978516,0.5859375,-0.21386719,-160.0,75.71875,-99.75
178,178,1727997945244,-1.4169922,0.17285156,0.055664062,79.9375,-56.25,-48.15625
179,179,1727997945284,-0.7734375,0.42089844,-0.27246094,5.71875,4.4375,-21.6875
180,180,1727997945324,-0.046875,0.5732422,-0.2705078,-61.0,69.3125,31.59375
181,181,1727997945364,0.5419922,0.26464844,0.14453125,12.8125,58.0625,110.40625
182,182,1727997945404,0.026367188,-0.5488281,0.74316406,44.34375,-60.09375,29.28125
183,183,1727997945444,-0.12890625,-0.19726562,-0.5908203,67.78125,89.09375,-76.375
184,184,1727997945484,-1.2021484,0.20996094,-0.3798828,-182.28125,-10.46875,42.78125
185,185,1727997945524,-1.6523438,0.9248047,0.40625,10.59375,183.625,72.4375
186,186,1727997945564,-1.765625,0.37402344,-0.4140625,-76.5625,-129.59375,154.53125
187,187,1727997945604,-1.9335938,-0.10253906,-0.28808594,172.15625,-95.375,93.6875
188,188,1727997945644,-1.0517578,-0.12011719,-0.23242188,274.28125,2.84375,136.09375
189,189,1727997945684,-1.0380859,-0.11328125,-0.033203125,234.84375,116.25,96.5625
190,190,1727997945724,-0.7626953,-0.12792969,-0.033203125,-280.15625,11.4375,78.25
191,191,1727997945764,0.016601562,-0.41015625,0.4169922,-148.03125,11.375,47.125
192,192,1727997945804,0.09277344,-0.375,0.23730469,23.71875,-44.71875,-59.34375
193,193,1727997945844,0.045898438,-0.2607422,-0.072265625,-61.0,-72.71875,-103.84375
194,194,1727997945884,-1.5224609,-0.028320312,0.29003906,-81.8125,-30.125,-243.40625
195,195,1727997945924,-1.9853516,0.69433594,0.21289062,-144.78125,-52.40625,-310.875
196,196,1727997945964,-1.6386719,-0.037109375,-0.056640625,-51.09375,30.65625,-116.21875
197,197,1727997946004,-1.2802734,0.25585938,0.041992188,117.03125,-35.125,-55.78125
198,198,1727997946044,-0.4951172,0.8046875,-0.12011719,4.9375,19.875,-8.4375
199,199,1727997946084,0.28027344,0.5019531,-0.015625,-38.40625,74.3125,57.375
200,200,1727997946124,0.5830078,0.053710938,0.013671875,-62.59375,50.6875,156.0625
201,201,1727997946164,-0.3310547,-0.37695312,-0.038085938,75.46875,-37.375,-28.875
202,202,1727997946204,-0.27246094,-0.14160156,-0.37890625,17.875,61.625,-16.96875
203,203,1727997946244,-1.9853516,0.41992188,-0.3046875,-129.09375,-101.78125,54.875
204,204,1727997946284,-1.0966797,0.9160156,-0.041992188,-252.71875,-77.90625,-9.28125
205,205,1727997946324,-1.1005859,0.22460938,-0.4658203,-148.15625,-71.125,121.28125
206,206,1727997946364,-1.9853516,-0.14160156,-0.42773438,275.1875,-140.03125,107.84375
207,207,1727997946404,-1.0712891,-0.2841797,-0.19628906,460.0625,132.34375,150.25
208,208,1727997946444,-0.88671875,0.0126953125,0.23339844,302.15625,202.59375,101.0625
209,209,1727997946484,-0.70703125,-0.32910156,0.045898438,-214.6875,-63.75,-10.5
210,210,1727997946524,-0.21972656,-0.41992188,0.32226562,-129.0,39.40625,10.1875
211,211,1727997946564,0.111328125,-0.4111328,0.21679688,-35.0625,-58.5,-58.96875
212,212,1727997946604,-0.18164062,-0.3623047,0.038085938,-33.78125,-56.5,-141.25
213,213,1727997946644,-1.9853516,-0.03125,0.0625,-117.15625,-93.53125,-296.34375
214,214,1727997946684,-1.9853516,1.1367188,0.21972656,-179.34375,-35.375,-233.46875
215,215,1727997946724,-1.2880859,0.3173828,-0.20507812,-62.28125,-8.4375,-104.3125
216,216,1727997946764,-1.1171875,0.23242188,0.119140625,97.625,-55.15625,-22.03125
217,217,1727997946804,-0.43945312,0.609375,-0.24707031,-26.8125,24.15625,7.125
218,218,1727997946844,0.22070312,0.4453125,-0.032226562,-57.15625,103.3125,76.59375
219,219,1727997946884,0.36523438,-0.09472656,0.3388672,11.40625,-19.875,129.6875
220,220,1727997946924,-0.39648438,-0.38964844,-0.9814453,134.0,-36.71875,-35.59375
221,221,1727997946964,-0.5449219,0.6855469,1.1425781,55.40625,61.4375,-44.8125
222,222,1727997947004,-1.9853516,1.3740234,0.38964844,-181.78125,-41.96875,-78.625
223,223,1727997947044,0.17675781,0.04296875,-0.4482422,-145.09375,-11.25,72.0
224,224,1727997947084,-1.9853516,-0.23730469,-0.4580078,222.9375,-203.59375,103.1875
225,225,1727997947124,-1.2402344,-0.20410156,-0.13085938,205.5,106.96875,109.0625
226,226,1727997947164,-0.8642578,-0.19433594,0.038085938,60.03125,5.28125,76.40625
227,227,1727997947204,-1.1582031,-0.049804688,0.21386719,-30.71875,27.25,36.84375
228,228,1727997947244,-0.9765625,-0.7753906,0.32421875,-51.09375,-11.6875,11.21875
229,229,1727997947284,-0.30859375,-0.5419922,-0.00390625,108.0625,-96.09375,-45.59375
230,230,1727997947324,0.119140625,-0.28027344,-0.095703125,113.6875,-92.625,-98.6875
231,231,1727997947364,-0.96484375,-0.21777344,-0.23535156,237.78125,-136.375,-146.1875
232,232,1727997947404,-1.9853516,0.30664062,-0.049804688,135.0625,-246.96875,-242.5
233,233,1727997947444,-1.0078125,0.22167969,-0.5957031,-130.4375,262.0,-198.25
234,234,1727997947484,-0.6279297,0.76953125,-0.23339844,258.40625,-36.21875,1.625
235,235,1727997947524,-0.5283203,0.4248047,-0.41796875,238.3125,-23.84375,59.75
236,236,1727997947564,-0.25097656,0.087890625,-0.515625,263.71875,-9.5625,108.5625
237,237,1727997947604,0.3388672,-0.33789062,0.6425781,263.28125,-45.1875,108.8125
238,238,1727997947644,-0.5019531,-0.38867188,-0.25878906,479.96875,-105.875,32.78125
239,239,1727997947684,-0.7792969,0.20800781,-0.5449219,335.25,-7.40625,-1.28125
240,240,1727997947724,-1.9853516,1.2890625,-0.24707031,217.15625,-100.375,-143.5625
241,241,1727997947764,-0.6972656,0.53222656,-0.42285156,1.6875,51.96875,4.15625
242,242,1727997947804,-1.4833984,0.0234375,-0.28222656,197.25,-48.75,55.59375
243,243,1727997947844,-0.9091797,0.1640625,-0.22753906,125.59375,17.65625,52.84375
244,244,1727997947884,-0.4814453,-0.060546875,0.06738281,105.09375,53.0625,66.40625
245,245,1727997947924,-0.84375,-0.11425781,0.1484375,136.28125,-50.5625,70.65625
246,246,1727997947964,-1.1982422,-0.2861328,-0.04296875,213.40625,-35.4375,53.15625
247,247,1727997948004,-0.96777344,-0.41308594,-0.13183594,130.03125,-52.28125,39.59375
248,248,1727997948044,-0.9609375,-0.27734375,-0.20117188,150.125,-70.84375,0.71875
249,249,1727997948084,-0.8828125,0.001953125,-0.10644531,55.09375,-98.34375,-43.90625
250,250,1727997948124,-1.1904297,-0.05859375,0.12890625,-84.90625,-110.375,-106.09375
251,251,1727997948164,-1.4550781,-0.42578125,0.16503906,-129.40625,-31.875,-168.40625
252,252,1727997948204,-1.2597656,0.31835938,-0.10449219,105.6875,-55.03125,-180.3125
253,253,1727997948244,-1.5224609,0.46484375,-0.2607422,124.0625,-2.40625,-139.34375
254,254,1727997948284,-1.9853516,-0.6669922,-0.03125,95.625,-6.625,-132.6875
255,255,1727997948324,-1.0371094,0.5214844,-0.040039062,123.875,2.46875,-57.8125
256,256,1727997948364,-0.5888672,0.36914062,0.09863281,78.53125,44.40625,-11.0
257,257,1727997948404,-0.27441406,0.125,0.123046875,90.375,55.03125,17.21875
258,258,1727997948444,-0.00390625,0.22460938,-0.028320312,36.40625,66.0,64.4375
259,259,1727997948484,0.42578125,-0.23242188,0.64160156,-24.25,37.3125,32.46875
260,260,1727997948524,-0.12109375,-0.11816406,-0.39746094,65.46875,64.5,6.09375
261,261,1727997948564,-1.9853516,1.0039062,-0.46191406,-116.15625,70.15625,14.15625
262,262,1727997948604,-0.9628906,0.5605469,-0.30566406,-91.75,51.96875,57.90625
263,263,1727997948644,-1.9853516,0.0107421875,-0.5566406,112.34375,-89.75,131.46875
264,264,1727997948684,-1.7285156,-0.3623047,-0.13378906,266.71875,56.0625,162.09375
265,265,1727997948724,-1.3017578,-0.14941406,0.2529297,59.625,-35.375,77.625
266,266,1727997948764,-0.9042969,-0.15039062,0.14746094,112.71875,-13.625,51.625
267,267,1727997948804,-0.35058594,-0.1796875,-0.0126953125,134.6875,-17.0,30.3125
268,268,1727997948844,-0.015625,-0.296875,0.048828125,30.5625,-13.53125,29.28125
269,269,1727997948884,0.14257812,-0.42871094,0.07714844,-11.0625,-58.25,-20.21875
270,270,1727997948924,-0.6660156,-0.2109375,0.35351562,-80.46875,-50.25,-189.71875
271,271,1727997948964,-1.9853516,0.49804688,0.123046875,-61.53125,-78.71875,-297.5625
272,272,1727997949004,-1.9853516,1.0566406,-0.15625,-83.8125,-29.8125,-48.34375
273,273,1727997949044,-1.9013672,-0.056640625,-0.20019531,-8.6875,-27.96875,-62.625
274,274,1727997949084,-1.0185547,0.32910156,-0.16699219,105.15625,-32.0625,-41.8125
275,275,1727997949124,-0.16210938,0.6435547,-0.27734375,15.25,43.96875,-3.90625
276,276,1727997949164,0.484375,0.3046875,0.020507812,49.34375,84.0625,86.90625
277,277,1727997949204,0.11621094,-0.33984375,0.9042969,25.625,-116.125,88.96875
278,278,1727997949244,-0.25976562,-0.19628906,-1.1425781,105.625,50.8125,-52.375
279,279,1727997949284,-0.99316406,0.07910156,-0.45214844,-13.3125,-18.40625,8.21875
280,280,1727997949324,-1.9853516,1.1552734,0.6142578,-136.1875,425.8125,8.84375
281,281,1727997949364,-1.4033203,0.390625,-0.51660156,-116.78125,-85.90625,101.3125
282,282,1727997949404,-1.8300781,0.0107421875,-0.296875,322.1875,-113.4375,89.46875
283,283,1727997949444,-1.2275391,-0.05859375,-0.20117188,332.75,49.21875,133.0
284,284,1727997949484,-1.0722656,-0.12011719,-0.021484375,198.84375,107.21875,84.53125
285,285,1727997949524,-0.63671875,-0.083984375,0.3876953,-157.5625,-3.625,29.65625
286,286,1727997949564,-0.45996094,-0.37402344,0.24609375,13.65625,2.90625,31.59375
287,287,1727997949604,-0.005859375,-0.3876953,0.22851562,-1.96875,-39.34375,-12.8125
288,288,1727997949644,0.10644531,-0.453125,0.0048828125,-2.78125,-57.53125,-88.5625
289,289,1727997949684,-1.6826172,0.091796875,0.16113281,-27.1875,-89.4375,-232.375
290,290,1727997949724,-1.9853516,1.0927734,0.18554688,-168.53125,-71.875,-232.84375
291,291,1727997949764,-1.7705078,0.020507812,-0.5253906,-97.5625,9.96875,-111.8125
292,292,1727997949804,-1.5224609,0.06933594,-0.0029296875,46.1875,-31.40625,-44.8125
293,293,1727997949844,-0.66308594,0.5576172,-0.1875,53.3125,-16.25,-23.8125
294,294,1727997949884,0.20019531,0.5175781,-0.13867188,-21.9375,78.84375,27.9375
295,295,1727997949924,0.49609375,0.171875,-0.01171875,18.65625,97.3125,125.46875
296,296,1727997949964,-0.23339844,-0.3828125,0.8154297,33.71875,-78.9375,32.09375
297,297,1727997950004,-0.24804688,-0.4404297,-0.7949219,96.90625,108.0625,-79.34375
298,298,1727997950044,-0.90527344,0.04296875,-0.28320312,-60.125,-2.71875,77.5625
299,299,1727997950084,-1.9677734,1.4648438,1.0732422,-316.1875,504.625,-36.1875
300,300,1727997950124,-0.86328125,0.421875,-0.5078125,-168.59375,-63.8125,89.53125
301,301,1727997950164,-1.9853516,0.064453125,-0.3232422,250.71875,-184.53125,89.59375
302,302,1727997950204,-0.95996094,-0.017578125,-0.20703125,432.96875,48.5,165.21875
303,303,1727997950244,-1.2246094,-0.08691406,-0.091796875,282.5,133.75,103.5625
304,304,1727997950284,-1.0361328,-0.109375,-0.107421875,-341.3125,72.46875,21.28125
305,305,1727997950324,-0.25195312,-0.36523438,0.22851562,-306.65625,76.09375,39.125
306,306,1727997950364,0.0146484375,-0.7285156,0.26953125,-40.0,25.71875,-33.6875
307,307,1727997950404,0.10546875,-0.58496094,-0.072265625,-40.78125,-54.09375,-73.96875
308,308,1727997950444,-0.8769531,0.053710938,0.0546875,-24.1875,-78.46875,-201.3125
309,309,1727997950484,-1.9853516,0.68066406,-0.0859375,-81.75,0.53125,-391.3125
310,310,1727997950524,-1.4941406,0.13769531,-0.4248047,-67.53125,-8.4375,-126.15625
311,311,1727997950564,-1.375,-0.0068359375,0.099609375,86.46875,-54.71875,-31.8125
312,312,1727997950604,-0.63378906,0.6533203,-0.18164062,7.0,-7.34375,6.59375
313,313,1727997950644,0.044921875,0.5576172,-0.1640625,-74.1875,85.25,55.21875
314,314,1727997950684,0.38867188,0.06640625,0.051757812,-29.625,37.375,155.875
315,315,1727997950724,-0.2578125,-0.9472656,0.099609375,24.625,-57.71875,-19.59375
316,316,1727997950764,-0.043945312,-0.10449219,-0.61035156,110.5625,56.90625,-50.3125
317,317,1727997950804,-1.8798828,0.7236328,1.3203125,-151.3125,-32.0625,-2.09375
318,318,1727997950844,-1.2666016,1.1005859,-0.26367188,-91.8125,33.90625,-2.28125
319,319,1727997950884,-1.28125,0.36914062,-0.37695312,-102.0,-87.375,117.5
320,320,1727997950924,-1.9853516,-0.13574219,-0.27246094,302.46875,-136.75,126.9375
321,321,1727997950964,-1.2929688,-0.20898438,-0.2529297,416.5,124.90625,184.0625
322,322,1727997951004,-1.4697266,-0.005859375,-0.0068359375,-207.1875,207.6875,133.71875
323,323,1727997951044,-0.4765625,-0.2548828,0.31152344,-175.6875,58.5625,64.25
324,324,1727997951084,-0.12402344,-0.43652344,0.103515625,24.53125,-7.0625,39.78125
325,325,1727997951124,0.10058594,-0.37695312,0.10058594,57.46875,-60.09375,-28.6875
326,326,1727997951164,-0.09863281,-0.4951172,0.22460938,-86.03125,-32.0625,-103.53125
327,327,1727997951204,-1.046875,-0.0078125,0.0625,26.71875,-80.34375,-224.9375
328,328,1727997951244,-1.9853516,0.53808594,-0.024414062,-121.125,-60.5,-367.0
329,329,1727997951284,-1.6826172,0.32714844,-0.37304688,-155.125,84.5,-142.28125
330,330,1727997951324,-1.3955078,0.17871094,0.056640625,72.5625,-35.6875,-31.125
331,331,1727997951364,-0.6074219,0.5410156,-0.24804688,-6.6875,18.65625,-8.75
332,332,1727997951404,0.16894531,0.46972656,-0.14550781,-50.4375,76.3125,59.3125
333,333,1727997951444,0.69921875,0.022460938,0.24121094,3.65625,11.25,152.6875
334,334,1727997951484,-0.49414062,-0.6347656,0.0146484375,27.4375,-13.03125,-68.125
335,335,1727997951524,-0.068359375,-0.17382812,-0.42285156,111.375,91.875,-77.34375
336,336,1727997951564,-1.9853516,0.6279297,1.1660156,-269.71875,-86.53125,32.03125
337,337,1727997951604,-0.9033203,0.75390625,-0.21875,-88.59375,-22.5625,-22.09375
338,338,1727997951644,-1.2226562,0.3310547,-0.2998047,-81.8125,-78.875,114.4375
339,339,1727997951684,-1.9326172,-0.024414062,-0.29003906,231.65625,-135.59375,105.03125
340,340,1727997951724,-0.8808594,-0.053710938,-0.21289062,357.28125,47.6875,161.5
341,341,1727997951764,-1.2275391,-0.1875,-0.15722656,303.21875,134.1875,135.3125
342,342,1727997951804,-0.6591797,-0.0087890625,0.48828125,55.21875,146.21875,46.75
343,343,1727997951844,-0.22460938,-0.31152344,0.107421875,-385.9375,-33.65625,-7.5
344,344,1727997951884,-0.04296875,-1.0390625,0.8408203,-196.0625,133.625,-56.78125
345,345,1727997951924,-0.07519531,-0.24511719,-0.09375,96.84375,-131.0,-157.65625
346,346,1727997951964,-1.9853516,-0.09375,0.15429688,-104.34375,-49.65625,-374.65625
347,347,1727997952004,-1.9853516,1.2539062,0.10449219,-230.84375,-8.6875,-153.375
348,348,1727997952044,-1.6162109,0.34960938,-0.125,-23.40625,-59.34375,-84.65625
349,349,1727997952084,-1.2021484,0.2109375,0.0,48.75,-58.6875,-19.96875
350,350,1727997952124,-0.4951172,0.5263672,-0.31152344,-26.5625,-0.75,17.03125
351,351,1727997952164,0.2919922,0.36035156,-0.12109375,-85.71875,66.0625,89.46875
352,352,1727997952204,0.5761719,-0.17578125,0.2734375,-2.8125,-27.75,133.0625
353,353,1727997952244,-0.546875,-0.375,-1.0673828,149.28125,-19.125,-58.90625
354,354,1727997952284,-0.21777344,-0.09375,-0.19921875,115.875,40.6875,-24.96875
355,355,1727997952324,-1.9853516,0.87109375,0.66503906,-110.90625,-19.75,-61.84375
356,356,1727997952364,-0.42382812,0.6542969,-0.19335938,-156.5625,21.53125,7.75
357,357,1727997952404,-1.9853516,0.19335938,-0.3515625,-22.25,-183.6875,125.0
358,358,1727997952444,-1.2275391,-0.19628906,-0.23828125,276.78125,-35.5,115.53125
359,359,1727997952484,-1.0439453,-0.24316406,-0.24707031,352.53125,41.65625,142.625
360,360,1727997952524,-1.0634766,-0.23535156,-0.09082031,257.3125,162.4375,100.8125
361,361,1727997952564,-0.56347656,-0.22167969,-0.09375,-381.125,4.71875,-14.40625
362,362,1727997952604,-0.1328125,-0.4482422,0.515625,-404.375,11.1875,-17.90625
363,363,1727997952644,0.10644531,-0.2626953,-0.22167969,144.8125,-121.78125,-102.84375
364,364,1727997952684,-1.2626953,-0.26953125,0.01171875,-66.71875,-79.0625,-199.40625
365,365,1727997952724,-1.9853516,0.71777344,-0.07128906,-58.78125,-69.5,-316.0
366,366,1727997952764,-1.3105469,0.85058594,-0.2890625,-159.1875,80.0,-123.125
367,367,1727997952804,-0.92871094,0.5361328,0.1875,-13.3125,-6.125,-47.1875
368,368,1727997952844,-0.4423828,0.46289062,0.0087890625,-45.0,-15.03125,-15.5625
369,369,1727997952884,-0.030273438,0.60546875,-0.10839844,-137.96875,42.15625,57.59375
370,370,1727997952924,-0.22753906,0.26464844,0.45214844,-70.5,-1.8125,127.8125
371,371,1727997952964,-0.7265625,-0.64941406,-1.015625,-4.96875,-33.34375,27.65625
372,372,1727997953004,-0.24804688,-0.43554688,-0.4091797,108.5625,40.5625,-19.96875
373,373,1727997953044,-1.9853516,1.0957031,-0.9941406,-63.0,-176.40625,-102.71875
374,374,1727997953084,0.18554688,0.48828125,0.61328125,-450.09375,180.6875,72.0625
375,375,1727997953124,-1.2568359,0.5263672,-0.20117188,-84.5625,-225.625,38.75
376,376,1727997953164,-1.6416016,0.31640625,-0.37597656,-65.6875,-66.0625,23.75
377,377,1727997953204,-0.6513672,-0.14550781,-0.41796875,-103.15625,-3.09375,42.21875
378,378,1727997953244,-0.28808594,-0.14453125,-0.45410156,-114.65625,21.46875,3.03125
379,379,1727997953284,-0.34472656,-0.095703125,-0.37695312,-313.9375,50.5625,-82.46875
380,380,1727997953324,-0.7216797,-0.6113281,0.18359375,-542.0,137.1875,-136.3125
381,381,1727997953364,-0.69628906,-0.37597656,-0.40429688,-139.96875,-23.71875,-157.40625
382,382,1727997953404,-1.6494141,-0.47753906,0.8857422,-30.96875,-245.9375,-177.4375
383,383,1727997953444,-1.9326172,-0.08300781,0.6376953,-47.75,-123.75,-6.46875
384,384,1727997953484,-0.78808594,0.30566406,-0.02734375,-187.8125,-54.59375,5.78125
385,385,1727997953524,-1.2988281,-0.15820312,0.0048828125,-214.4375,-43.3125,53.34375
386,386,1727997953564,-0.9248047,-0.21289062,-0.16601562,-206.25,-40.6875,41.0625
387,387,1727997953604,-0.83496094,-0.45117188,-0.080078125,-176.65625,-74.375,34.21875
388,388,1727997953644,-0.5292969,-0.51171875,-0.025390625,-139.84375,-93.28125,6.03125
389,389,1727997953684,-0.63671875,-0.3671875,-0.09277344,-77.03125,-127.46875,-5.125
390,390,1727997953724,-0.76953125,0.0146484375,-0.0087890625,-70.03125,-105.9375,14.15625
391,391,1727997953764,-0.7167969,-0.14746094,0.041015625,-91.625,-68.6875,36.5625
392,392,1727997953804,-0.72558594,-0.390625,0.11230469,-105.65625,-17.3125,61.6875
393,393,1727997953844,-0.625,-0.2529297,0.26464844,-76.9375,19.0625,92.75
394,394,1727997953884,-0.44140625,-0.3642578,0.12109375,-51.40625,49.65625,113.03125
395,395,1727997953924,-1.1513672,-0.040039062,0.09863281,-66.0,59.1875,110.59375
396,396,1727997953964,-1.9853516,-0.1015625,-0.022460938,-110.6875,78.46875,22.5
397,397,1727997954004,-0.7792969,0.0107421875,-0.3828125,-29.3125,31.34375,58.9375
398,398,1727997954044,-0.74902344,-0.115234375,-0.37890625,45.40625,15.84375,87.15625
399,399,1727997954084,-1.9853516,0.21972656,-0.5136719,59.3125,-47.34375,95.4375
400,400,1727997954124,-1.40625,-0.04296875,-0.171875,-6.125,106.53125,93.0625
401,401,1727997954164,-1.6054688,0.11328125,0.25195312,-200.6875,180.625,88.8125
402,402,1727997954204,-1.2324219,-0.10058594,0.203125,85.78125,-45.5,90.5625
403,403,1727997954244,-0.6113281,-0.2734375,0.12402344,35.4375,1.875,36.3125
404,404,1727997954284,-0.3359375,-0.20410156,0.14648438,-53.125,36.34375,-39.25
405,405,1727997954324,0.01953125,-0.45898438,0.11425781,-21.25,47.6875,-58.53125
406,406,1727997954364,-0.05859375,-1.1113281,0.70703125,-222.75,33.1875,-82.15625
407,407,1727997954404,-1.0800781,0.26660156,0.115234375,-35.78125,-49.15625,-288.21875
408,408,1727997954444,-1.9853516,1.7802734,0.7626953,-333.21875,61.6875,-256.78125
409,409,1727997954484,-1.6972656,-0.5576172,-0.11035156,-57.9375,-34.4375,-95.59375
410,410,1727997954524,-1.3876953,0.2705078,0.087890625,43.1875,-94.09375,-55.90625
411,411,1727997954564,-0.6171875,0.5527344,-0.36035156,-0.3125,-50.875,-6.78125
412,412,1727997954604,0.25878906,0.4921875,-0.0146484375,-60.5625,9.0,49.0
413,413,1727997954644,-0.0068359375,0.024414062,-0.46484375,-35.71875,-3.1875,119.3125
414,414,1727997954684,-0.2939453,-0.8720703,-0.57421875,-14.4375,-3.375,24.28125
415,415,1727997954724,-0.08691406,-0.25,0.48632812,-104.8125,-180.375,-92.59375
416,416,1727997954764,-1.9677734,0.71191406,-0.5546875,-147.46875,57.09375,53.46875
417,417,1727997954804,-1.0625,0.88671875,-0.14746094,35.9375,231.21875,34.0
418,418,1727997954844,-1.9853516,-0.0107421875,-0.47753906,-12.78125,-74.5,164.46875
419,419,1727997954884,-1.8515625,-0.29785156,-0.24511719,165.15625,-63.6875,151.53125
420,420,1727997954924,-1.0878906,0.00390625,0.01953125,147.5,2.90625,128.65625
421,421,1727997954964,-1.1484375,-0.22851562,0.20019531,15.25,1.9375,91.84375
422,422,1727997955004,-0.4423828,-0.31640625,0.026367188,161.59375,-9.375,123.40625
423,423,1727997955044,0.01953125,-0.36132812,0.15429688,101.53125,9.96875,68.84375
424,424,1727997955084,0.23535156,-0.3779297,0.32226562,-48.40625,-65.59375,6.53125
425,425,1727997955124,-0.115234375,-0.15527344,0.06542969,-30.0625,-46.71875,-141.0625
426,426,1727997955164,-1.9472656,0.068359375,0.0029296875,-4.28125,-126.1875,-313.53125
427,427,1727997955204,-1.9853516,0.984375,-0.21777344,-133.1875,-25.1875,-176.8125
428,428,1727997955244,-1.703125,-0.0068359375,-0.5546875,-141.4375,127.65625,-128.5625
429,429,1727997955284,-1.4414062,0.21777344,-0.053710938,133.40625,-34.875,-54.8125
430,430,1727997955324,-0.32128906,0.62597656,-0.2998047,10.84375,22.375,-5.0
431,431,1727997955364,0.46484375,0.484375,0.13476562,25.90625,59.1875,75.4375
432,432,1727997955404,0.7675781,0.11328125,0.33984375,-18.40625,-17.25,126.875
433,433,1727997955444,-0.4267578,-0.375,-0.3642578,29.46875,-37.03125,-38.75
434,434,1727997955484,-0.29296875,-0.3017578,-0.50390625,118.15625,61.25,-21.125
435,435,1727997955524,-1.7119141,0.32617188,-0.35351562,-46.40625,-54.71875,61.15625
436,436,1727997955564,-1.4335938,0.9326172,0.13574219,-90.59375,350.75,41.75
437,437,1727997955604,-1.7412109,0.3642578,-0.4716797,-102.3125,-121.84375,131.28125
438,438,1727997955644,-1.9160156,-0.078125,-0.34375,252.0,-83.46875,102.21875
439,439,1727997955684,-1.1689453,-0.13378906,-0.20605469,298.5625,56.90625,140.96875
440,440,1727997955724,-0.7861328,0.34179688,0.7451172,67.96875,181.5,105.875
441,441,1727997955764,-0.46679688,-0.33984375,0.14355469,-135.28125,31.46875,66.9375
442,442,1727997955804,-0.13183594,-0.47070312,0.13671875,-93.78125,8.46875,28.8125
443,443,1727997955844,0.13574219,-0.5527344,0.39941406,-37.75,23.46875,-33.5625
444,444,1727997955884,-0.19335938,-0.3125,-0.0390625,58.8125,-76.9375,-134.90625
445,445,1727997955924,-1.9853516,-0.09472656,0.1875,-61.96875,-73.34375,-402.90625
446,446,1727997955964,-1.9853516,1.6132812,0.045898438,-282.5625,17.625,-97.40625
447,447,1727997956004,-1.8027344,0.20214844,-0.171875,11.21875,-52.03125,-80.03125
448,448,1727997956044,-1.1416016,0.1640625,-0.07910156,65.65625,-52.65625,-47.875
449,449,1727997956084,-0.45703125,0.64941406,-0.38183594,-27.96875,4.4375,5.78125
450,450,1727997956124,0.28125,0.38476562,-0.0126953125,-39.9375,61.75,76.03125
451,451,1727997956164,0.64160156,-0.072265625,0.15234375,-4.09375,4.84375,131.8125
452,452,1727997956204,-0.18847656,-0.24414062,-0.06542969,111.625,-75.40625,-19.46875
453,453,1727997956244,-0.27441406,-0.18261719,-0.50878906,122.65625,59.25,-56.03125
454,454,1727997956284,-1.9853516,1.0097656,-0.6738281,-169.4375,-176.3125,33.1875
455,455,1727997956324,-0.14257812,0.39257812,0.10058594,-241.0,46.0625,-25.34375
456,456,1727997956364,-1.9853516,0.14160156,-0.50683594,86.21875,-223.90625,145.25
457,457,1727997956404,-1.3037109,-0.095703125,-0.28808594,356.25,11.1875,111.0625
458,458,1727997956444,-0.97558594,0.044921875,-0.115234375,230.5,32.75,121.15625
459,459,1727997956484,-0.9580078,-0.005859375,-0.028320312,88.0625,89.5625,64.5625
460,460,1727997956524,-0.46875,-0.1015625,0.22070312,-255.625,-34.34375,47.40625
461,461,1727997956564,-0.1875,-0.5839844,0.45117188,-135.15625,5.78125,21.65625
462,462,1727997956604,0.0087890625,-0.46875,0.32714844,75.84375,-66.5,-40.46875
463,463,1727997956644,-0.27539062,-0.32128906,0.0029296875,-7.21875,-76.875,-126.59375
464,464,1727997956684,-1.9853516,-0.01171875,0.19140625,-39.25,-61.1875,-331.25
465,465,1727997956724,-1.9853516,1.3925781,-0.02734375,-213.28125,14.875,-88.75
466,466,1727997956764,-1.8769531,0.001953125,-0.16894531,-14.3125,-27.5,-69.71875
467,467,1727997956804,-1.0439453,0.17285156,-0.08105469,74.0625,-47.46875,-33.53125
468,468,1727997956844,-0.5107422,0.5761719,-0.23144531,18.0625,-11.75,16.15625
469,469,1727997956884,0.087890625,0.38964844,-0.15625,-21.5625,58.0,88.375
470,470,1727997956924,0.39453125,0.14941406,0.10644531,-12.03125,55.15625,135.4375
471,471,1727997956964,-0.12597656,-0.29492188,-0.1328125,61.3125,-31.09375,16.71875
472,472,1727997957004,-0.42382812,-0.23632812,-0.45898438,103.75,66.0,-44.4375
473,473,1727997957044,-1.9853516,0.7890625,0.2705078,-219.0625,10.46875,-47.1875
474,474,1727997957084,-0.24804688,0.50683594,-0.22851562,-166.03125,-10.84375,-21.375
475,475,1727997957124,-1.921875,0.20800781,-0.4248047,-11.625,-175.1875,112.65625
476,476,1727997957164,-1.4248047,-0.059570312,-0.24414062,319.0625,-51.3125,81.0
477,477,1727997957204,-0.9423828,-0.026367188,-0.17480469,278.0625,48.0625,130.84375
478,478,1727997957244,-1.0244141,-0.034179688,-0.087890625,152.625,71.25,79.71875
479,479,1727997957284,-0.5488281,-0.026367188,-0.013671875,36.78125,105.0625,23.25
480,480,1727997957324,-0.4814453,-0.33691406,-0.032226562,-416.21875,-40.6875,4.75
481,481,1727997957364,-0.41796875,-1.1513672,0.8076172,-200.40625,113.75,-60.4375
482,482,1727997957404,-0.01953125,-0.6923828,0.03515625,14.8125,-52.8125,-90.34375
483,483,1727997957444,-1.5917969,-0.06640625,-0.078125,24.03125,-63.25,-234.8125
484,484,1727997957484,-1.9853516,0.98828125,0.09667969,-140.53125,53.3125,-239.09375
485,485,1727997957524,-1.5419922,0.37890625,-0.18945312,-17.96875,-43.90625,-106.03125
486,486,1727997957564,-1.3662109,0.15332031,0.21777344,20.71875,-35.1875,-51.875
487,487,1727997957604,-0.70703125,0.53808594,-0.31640625,-11.96875,-17.375,12.03125
488,488,1727997957644,0.044921875,0.515625,-0.017578125,-64.40625,37.875,75.625
489,489,1727997957684,-0.06933594,0.17480469,-0.27441406,-39.15625,34.5625,151.0
490,490,1727997957724,-0.49121094,-0.9658203,0.5576172,-61.78125,-47.03125,39.0625
491,491,1727997957764,-0.005859375,-0.30078125,-0.6064453,263.90625,56.3125,-20.9375
492,492,1727997957804,-0.44921875,0.14257812,-0.19140625,-92.375,-12.53125,-15.5
493,493,1727997957844,-1.9853516,1.5058594,-0.028320312,-98.34375,286.90625,-0.0625
494,494,1727997957884,-0.13867188,0.11425781,-0.33496094,-152.59375,-54.40625,102.34375
495,495,1727997957924,-1.9853516,-0.04296875,-0.37402344,189.125,-202.96875,106.625
496,496,1727997957964,-0.9638672,-0.036132812,-0.18847656,363.5625,81.28125,146.84375
497,497,1727997958004,-0.7753906,-0.1484375,-0.049804688,290.03125,99.8125,104.0625
498,498,1727997958044,-1.1005859,0.11328125,0.09277344,-124.46875,146.875,30.5
499,499,1727997958084,-0.53222656,-0.19140625,0.16308594,-210.71875,38.4375,7.8125
500,500,1727997958124,-0.22363281,-0.5341797,0.5361328,-403.78125,-6.8125,-40.09375
501,501,1727997958164,0.11425781,-0.22167969,-0.23144531,165.5,-154.875,-103.84375
502,502,1727997958204,-1.7568359,-0.2548828,0.18554688,-88.53125,-83.84375,-215.78125
503,503,1727997958244,-1.9853516,0.92578125,0.032226562,-113.90625,-81.8125,-261.125
504,504,1727997958284,-1.0068359,0.53808594,-0.28222656,-115.0,15.84375,-95.28125
505,505,1727997958324,-1.2353516,0.12988281,0.11328125,-1.90625,-37.375,-38.8125
506,506,1727997958364,-0.63671875,0.36132812,-0.09375,12.90625,-36.40625,-21.5
507,507,1727997958404,-0.068359375,0.6279297,-0.125,-53.65625,14.6875,27.59375
508,508,1727997958444,-0.0859375,0.34960938,-0.18652344,-88.34375,63.9375,87.46875
509,509,1727997958484,-0.08105469,-0.125,1.0136719,-176.03125,-16.4375,70.4375
510,510,1727997958524,-0.24511719,-0.375,-0.91503906,96.53125,13.03125,-58.53125
511,511,1727997958564,-0.81640625,-0.4560547,-0.8125,86.90625,38.59375,-23.4375
512,512,1727997958604,-1.9853516,1.5097656,0.8027344,-464.1875,553.4375,95.9375
513,513,1727997958644,-0.18457031,0.58691406,-0.734375,-107.25,-32.9375,-12.28125
514,514,1727997958684,-1.9853516,0.86328125,-0.3935547,-79.375,-159.09375,13.0625
515,515,1727997958724,-1.1650391,0.17285156,-0.4580078,-160.84375,24.15625,30.5
516,516,1727997958764,-0.57421875,-0.12792969,-0.38183594,-94.6875,-28.21875,10.96875
517,517,1727997958804,-0.8935547,-0.07714844,-0.5058594,-193.9375,-6.0625,-12.59375
518,518,1727997958844,-0.31445312,-0.14257812,-0.55078125,-270.53125,47.9375,-57.5
519,519,1727997958884,0.047851562,-0.48046875,-0.6230469,-145.53125,108.5625,-95.84375
520,520,1727997958924,-0.2685547,-0.8300781,-0.23925781,-552.6875,-25.71875,-182.0
521,521,1727997958964,-1.1259766,-0.63964844,0.5107422,-326.25,123.75,-140.5625
522,522,1727997959004,-1.9853516,0.4404297,-0.37695312,-160.0625,-16.5625,-77.9375
523,523,1727997959044,-1.1044922,-0.35351562,0.50097656,-108.40625,-82.625,-58.1875
524,524,1727997959084,-1.9853516,-0.11035156,-0.23046875,-158.65625,-89.1875,-0.6875
525,525,1727997959124,-1.1875,0.24902344,-0.20996094,-145.65625,-87.5625,11.65625
526,526,1727997959164,-0.8300781,0.12109375,-0.23242188,-226.15625,-47.46875,12.375
527,527,1727997959204,-0.6933594,-0.47558594,-0.044921875,-156.09375,-79.4375,-8.8125
528,528,1727997959244,-0.43554688,-0.43652344,0.0078125,-97.625,-112.46875,-48.84375
529,529,1727997959284,-0.4921875,0.23632812,-0.17382812,-82.53125,-97.9375,-33.28125
530,530,1727997959324,-0.36621094,0.6533203,-0.28222656,-88.8125,-20.40625,30.4375
531,531,1727997959364,0.0126953125,0.30664062,-0.3154297,-146.25,27.4375,112.125
532,532,1727997959404,-0.8173828,0.4345703,-0.72753906,-115.125,67.34375,130.4375
533,533,1727997959444,-1.9853516,0.14746094,-0.73535156,85.3125,-157.0625,126.15625
534,534,1727997959484,-0.53222656,-0.65625,-0.25097656,-257.71875,306.5,47.34375
535,535,1727997959524,-1.9853516,0.17480469,-0.12597656,-166.875,-26.34375,105.53125
536,536,1727997959564,-1.4619141,-0.15039062,-0.19238281,-60.0625,33.90625,84.65625
537,537,1727997959604,-1.0751953,-0.16308594,0.0029296875,-36.15625,-4.96875,101.5
538,538,1727997959644,-0.8203125,-0.25683594,0.12207031,21.40625,17.65625,75.25
539,539,1727997959684,-0.48632812,-0.43847656,0.05078125,-4.90625,8.5625,47.125
540,540,1727997959724,-0.22265625,-0.40527344,-0.001953125,48.5,48.0625,-27.0
541,541,1727997959764,0.14453125,-0.5390625,0.041015625,-58.75,0.28125,-58.125
542,542,1727997959804,-0.31054688,-0.62890625,0.6845703,-276.5,-7.46875,-144.40625
543,543,1727997959844,-1.6455078,0.0146484375,-0.03125,23.25,-109.40625,-302.6875
544,544,1727997959884,-1.9853516,1.40625,0.24804688,-394.625,104.40625,-113.78125
545,545,1727997959924,-1.9853516,-0.2939453,0.14160156,107.28125,-81.625,-64.40625
546,546,1727997959964,-1.2158203,0.15527344,-0.0859375,126.3125,-73.8125,-33.46875
547,547,1727997960004,-0.60058594,0.7089844,-0.31054688,67.71875,-46.59375,3.96875
548,548,1727997960044,0.21777344,0.5517578,-0.022460938,-43.65625,54.15625,61.34375
549,549,1727997960084,0.13671875,0.16992188,-0.13964844,-50.875,30.3125,96.3125
550,550,1727997960124,-0.01171875,-0.7138672,-0.71191406,5.59375,-31.65625,22.09375
551,551,1727997960164,-0.7421875,-0.3154297,0.5908203,211.65625,-57.71875,4.625
552,552,1727997960204,-1.9853516,1.0019531,-0.33203125,-164.09375,84.5,-22.03125
553,553,1727997960244,-0.3173828,0.6923828,-0.16113281,-112.1875,-4.375,4.6875
554,554,1727997960284,-1.9853516,0.21484375,-0.4189453,-18.03125,-148.28125,118.9375
555,555,1727997960324,-1.6523438,-0.30371094,-0.1953125,375.09375,-25.125,151.90625
556,556,1727997960364,-1.0146484,-0.05859375,-0.09375,343.84375,106.0625,135.625
557,557,1727997960404,-0.93066406,-0.06933594,0.234375,-111.03125,-38.0625,28.9375
558,558,1727997960444,-0.6542969,-0.2890625,0.12792969,-20.28125,-7.0,67.375
559,559,1727997960484,-0.34960938,-0.39453125,0.08105469,35.125,-4.25,34.21875
560,560,1727997960524,0.2265625,-0.41210938,0.14550781,7.96875,-40.875,-0.9375
561,561,1727997960564,0.033203125,-0.5917969,0.2763672,-97.90625,-58.75,-117.6875
562,562,1727997960604,-1.8945312,0.038085938,0.09375,45.21875,-81.3125,-292.78125
563,563,1727997960644,-1.9853516,1.1728516,-0.018554688,-284.375,-29.8125,-173.28125
564,564,1727997960684,-1.875,0.22070312,0.08300781,-17.71875,-46.96875,-95.15625
565,565,1727997960724,-1.2871094,0.20898438,-0.061523438,109.34375,-35.78125,-45.0625
566,566,1727997960764,-0.5185547,0.6386719,-0.171875,-6.1875,24.8125,1.625
567,567,1727997960804,0.22851562,0.45214844,-0.0703125,2.90625,71.6875,70.5625
568,568,1727997960844,0.4482422,0.0234375,0.27148438,-2.78125,39.875,159.125
569,569,1727997960884,-0.36816406,-0.6738281,-0.45117188,14.375,-14.875,-46.28125
570,570,1727997960924,-0.14648438,-0.24121094,-0.5566406,150.4375,43.71875,-27.78125
571,571,1727997960964,-1.9853516,0.78027344,1.328125,-124.90625,-31.09375,20.375
572,572,1727997961004,-0.2529297,0.65722656,-0.20996094,-179.03125,-11.8125,-42.5625
573,573,1727997961044,-1.9580078,0.4169922,-0.34765625,-65.15625,-171.78125,144.40625
574,574,1727997961084,-1.8271484,-0.25,-0.23535156,372.40625,-138.875,107.46875
575,575,1727997961124,-1.0556641,-0.09667969,-0.16113281,456.78125,103.3125,168.9375
576,576,1727997961164,-0.8076172,0.2890625,0.71875,249.625,104.9375,72.875
577,577,1727997961204,-0.3984375,-0.13476562,0.2421875,-113.25,-49.78125,30.75
578,578,1727997961244,-0.26464844,-0.43164062,0.23242188,-118.5,46.84375,22.09375
579,579,1727997961284,0.12695312,-0.5214844,0.4033203,37.09375,-22.3125,-48.59375
580,580,1727997961324,0.030273438,-0.24414062,-0.028320312,-19.3125,-79.3125,-123.53125
581,581,1727997961364,-1.0273438,-0.040039062,-0.08984375,-29.0,-127.09375,-252.03125
582,582,1727997961404,-1.9853516,1.2070312,0.45117188,-260.53125,6.125,-253.1875
583,583,1727997961444,-1.1728516,0.0078125,-0.38964844,-30.65625,-7.0625,-111.9375
584,584,1727997961484,-1.3105469,0.23046875,0.0146484375,104.28125,-47.15625,-41.6875
585,585,1727997961524,-0.5371094,0.6826172,-0.34765625,43.375,3.15625,7.4375
586,586,1727997961564,0.49902344,0.578125,0.021484375,-11.5625,83.84375,71.34375
587,587,1727997961604,0.5751953,0.029296875,0.23242188,23.59375,-16.5,164.84375
588,588,1727997961644,-0.4794922,-0.5839844,0.076171875,-4.09375,-13.9375,-49.8125
589,589,1727997961684,-0.07910156,-0.296875,-0.58496094,52.71875,74.875,-33.6875
590,590,1727997961724,-1.7138672,0.28710938,-0.31445312,-149.125,-39.28125,32.875
591,591,1727997961764,-1.3935547,1.1826172,-0.3623047,-242.375,-46.46875,-70.625
592,592,1727997961804,-0.38183594,0.29296875,-0.4951172,-157.5625,55.5625,96.5625
593,593,1727997961844,-1.9853516,0.11328125,-0.26953125,302.78125,-302.875,159.78125
594,594,1727997961884,-0.95214844,-0.13964844,-0.15039062,499.75,178.625,164.46875
595,595,1727997961924,-1.2373047,0.36523438,0.3798828,-91.625,110.5625,135.4375
596,596,1727997961964,-0.76953125,-0.09765625,0.2705078,-168.40625,51.1875,67.3125
597,597,1727997962004,-0.3251953,-0.30078125,0.17089844,-50.0,28.0,38.0625
598,598,1727997962044,0.046875,-0.3408203,0.19140625,4.0,-41.15625,4.625
599,599,1727997962084,0.15625,-0.41308594,0.052734375,-78.75,-18.09375,-51.78125
600,600,1727997962124,-0.68066406,-0.21484375,0.013671875,46.4375,-47.9375,-192.4375
601,601,1727997962164,-1.9853516,0.09765625,0.14355469,-132.71875,-134.3125,-436.28125
602,602,1727997962204,-1.3671875,0.23046875,-0.03125,-198.875,112.6875,-117.125
603,603,1727997962244,-1.4697266,0.39257812,0.032226562,66.8125,-37.6875,-44.3125
604,604,1727997962284,-0.6875,0.5527344,-0.17578125,-2.40625,4.3125,-22.21875
605,605,1727997962324,0.07421875,0.67285156,-0.14746094,-57.5625,83.34375,46.375
606,606,1727997962364,0.38867188,0.25976562,-0.05859375,-46.78125,44.40625,146.78125
607,607,1727997962404,-0.6035156,-0.7734375,0.38378906,0.84375,-33.90625,32.21875
608,608,1727997962444,-0.056640625,-0.30566406,-0.5361328,185.28125,49.53125,-26.3125
609,609,1727997962484,-1.5253906,0.31640625,-0.24316406,-51.53125,6.1875,-23.75
610,610,1727997962524,-1.5126953,1.0517578,-0.001953125,-335.15625,100.6875,-53.40625
611,611,1727997962564,-0.91308594,0.27148438,-0.36035156,-152.78125,-120.6875,103.25
612,612,1727997962604,-1.9853516,-0.033203125,-0.3232422,265.71875,-174.34375,88.125
613,613,1727997962644,-1.0478516,-0.11621094,-0.27246094,406.46875,62.40625,173.5625
614,614,1727997962684,-0.9794922,-0.0625,-0.13867188,273.65625,119.40625,102.65625
615,615,1727997962724,-0.95410156,-0.0546875,-0.0029296875,23.53125,123.1875,35.9375
616,616,1727997962764,-0.56347656,-0.3203125,-0.034179688,-356.09375,-24.9375,-8.25
617,617,1727997962804,-0.0625,-1.0673828,0.7763672,-136.4375,119.59375,-33.46875
618,618,1727997962844,0.01171875,-0.328125,0.064453125,60.96875,-123.3125,-111.40625
619,619,1727997962884,-1.3867188,-0.03515625,0.12207031,-40.1875,-25.125,-261.59375
620,620,1727997962924,-1.9853516,0.8798828,0.13867188,-219.125,5.40625,-300.96875
621,621,1727997962964,-1.5146484,0.14746094,-0.4140625,-58.5625,-24.125,-117.0625
622,622,1727997963004,-1.3359375,0.21386719,0.119140625,7.65625,-33.28125,-40.0625
623,623,1727997963044,-0.58691406,0.5644531,-0.18945312,-27.53125,-12.71875,-2.21875
624,624,1727997963084,0.2705078,0.4814453,-0.16601562,-94.625,73.34375,69.15625
625,625,1727997963124,0.39453125,-0.029296875,-0.09472656,-45.0,10.53125,170.875
626,626,1727997963164,-0.47851562,-0.6748047,-0.24316406,33.6875,-69.25,0.1875
627,627,1727997963204,-0.24707031,-0.4482422,-0.5439453,215.125,52.59375,-3.375
628,628,1727997963244,-1.9853516,0.63183594,0.2783203,-99.03125,-49.03125,-30.09375
629,629,1727997963284,-0.4951172,0.77441406,-0.19726562,-176.84375,-11.875,6.53125
630,630,1727997963324,-1.8359375,0.23046875,-0.42382812,16.875,-150.84375,126.8125
631,631,1727997963364,-1.7246094,-0.22363281,-0.2421875,361.5625,-26.34375,126.875
632,632,1727997963404,-1.046875,-0.1796875,-0.17578125,299.78125,90.59375,145.5625
633,633,1727997963444,-1.0664062,-0.10546875,0.0146484375,-249.28125,53.1875,59.375
634,634,1727997963484,-0.43847656,-0.27148438,0.38476562,-190.09375,33.71875,12.5
635,635,1727997963524,-0.14355469,-0.35839844,0.04296875,41.5,-28.09375,-26.8125
636,636,1727997963564,0.27148438,-0.296875,-0.06640625,44.71875,-65.8125,-39.75
637,637,1727997963604,-0.6669922,-0.2265625,-0.16308594,15.25,-55.5,-179.4375
638,638,1727997963644,-1.9853516,0.5439453,0.4111328,-178.25,-26.6875,-359.5625
639,639,1727997963684,-1.2324219,0.88964844,-0.12109375,-146.625,14.125,-109.5
640,640,1727997963724,-0.98828125,0.4638672,0.10839844,-23.625,-46.46875,-39.6875
641,641,1727997963764,-0.60546875,0.28808594,-0.06738281,-91.5625,0.46875,-27.09375
642,642,1727997963804,-0.08203125,0.4326172,-0.20507812,-107.0,27.125,26.65625
643,643,1727997963844,0.015625,0.19238281,-0.20605469,-73.5625,25.90625,95.8125
644,644,1727997963884,-0.46289062,-0.5419922,0.45214844,-76.6875,-96.15625,84.84375
645,645,1727997963924,-0.37109375,-0.62109375,-0.6142578,121.375,51.65625,-45.34375
646,646,1727997963964,-1.2470703,-0.21875,-0.5185547,13.71875,11.25,-5.5
647,647,1727997964004,-1.6386719,1.2773438,1.2138672,-398.9375,231.96875,-20.9375
648,648,1727997964044,-1.0703125,0.65722656,-0.63378906,-110.3125,-89.5625,44.5
649,649,1727997964084,-1.7373047,0.5546875,-0.31152344,-22.25,-85.40625,8.21875
650,650,1727997964124,-0.9267578,0.26953125,-0.26660156,-108.78125,-77.78125,34.21875
651,651,1727997964164,-0.578125,0.08496094,-0.24609375,-108.28125,-67.59375,26.25
652,652,1727997964204,-0.7636719,0.11621094,-0.4892578,-155.15625,-38.53125,15.3125
653,653,1727997964244,-0.27929688,-0.061523438,-0.5175781,-251.125,46.34375,-19.0625
654,654,1727997964284,-0.10644531,-0.19628906,-0.56640625,-279.75,89.3125,-76.59375
655,655,1727997964324,-0.17773438,-0.14648438,-0.609375,-208.40625,91.34375,-116.03125
656,656,1727997964364,-0.8378906,-0.41308594,-0.4091797,-326.1875,110.9375,-117.375
657,657,1727997964404,-1.9853516,-0.15039062,0.34570312,-445.03125,264.875,-52.1875
658,658,1727997964444,-1.2636719,-0.4765625,-0.3623047,3.65625,-107.15625,-37.3125
659,659,1727997964484,-1.0458984,0.080078125,-0.22167969,-52.75,-138.46875,13.0625
660,660,1727997964524,-0.6923828,-0.123046875,0.087890625,-174.28125,-48.625,-10.875
661,661,1727997964564,-0.7529297,-0.23828125,-0.20605469,-192.03125,-58.375,-33.03125
662,662,1727997964604,-0.84765625,-0.62109375,0.09082031,-88.71875,-119.28125,-31.25
663,663,1727997964644,-0.7685547,-0.3125,-0.00390625,-49.34375,-135.21875,-49.5625
664,664,1727997964684,-0.58984375,0.28027344,-0.10546875,-63.3125,-106.40625,-2.5
665,665,1727997964724,-0.46972656,0.14550781,0.09863281,-86.5625,-45.0625,29.53125
666,666,1727997964764,-0.61621094,-0.29101562,0.06640625,-65.375,14.4375,93.375
667,667,1727997964804,-0.61035156,-0.24707031,-0.3125,-51.09375,70.71875,127.4375
668,668,1727997964844,-1.0869141,0.0390625,-0.21875,-119.71875,126.1875,116.15625
669,669,1727997964884,-1.9853516,0.27539062,-0.4013672,-71.84375,59.46875,20.0
670,670,1727997964924,-0.5175781,-0.053710938,-0.3623047,-84.125,27.25,7.0
671,671,1727997964964,-1.5263672,-0.0625,-0.5175781,-18.34375,10.84375,93.8125
672,672,1727997965004,-1.8251953,-0.11035156,-0.22363281,-20.90625,29.625,81.71875
673,673,1727997965044,-1.484375,0.11816406,0.29101562,-198.8125,228.71875,78.90625
674,674,1727997965084,-1.4111328,-0.09472656,0.078125,41.125,-6.4375,106.25
675,675,1727997965124,-1.1650391,-0.4375,0.045898438,52.46875,-18.59375,95.34375
676,676,1727997965164,-0.80078125,-0.2763672,0.04296875,24.75,-0.875,37.40625
677,677,1727997965204,-0.33007812,-0.2578125,0.13183594,48.125,-4.125,-1.53125
678,678,1727997965244,0.22167969,-0.3955078,0.33691406,-49.34375,-40.9375,-3.3125
679,679,1727997965284,0.07714844,-0.17480469,0.115234375,-53.125,-50.75,-152.96875
680,680,1727997965324,-1.171875,0.27246094,0.19042969,-73.625,-26.625,-289.8125
681,681,1727997965364,-1.9853516,0.77441406,-0.12207031,-180.0625,20.71875,-209.0
682,682,1727997965404,-1.7480469,-0.5595703,-0.3388672,-97.375,18.65625,-124.53125
683,683,1727997965444,-1.6103516,0.30566406,0.12011719,73.15625,-40.0625,-91.25
684,684,1727997965484,-0.8027344,0.5439453,-0.19628906,59.625,-31.15625,-28.375
685,685,1727997965524,-0.08105469,0.5029297,-0.31347656,-17.84375,38.71875,38.125
686,686,1727997965564,0.2939453,0.21386719,-0.08300781,-33.78125,64.0,116.09375
687,687,1727997965604,0.5996094,0.0390625,0.5419922,-88.8125,10.46875,101.96875
688,688,1727997965644,-0.4921875,-0.4814453,-1.1796875,166.1875,55.8125,-59.46875
689,689,1727997965684,-0.73339844,0.34277344,0.4658203,73.40625,-23.65625,60.1875
690,690,1727997965724,-1.9853516,1.1865234,0.5654297,-176.65625,4.5625,-21.84375
691,691,1727997965764,-1.1425781,0.5449219,-0.31054688,-105.375,-5.28125,69.375
692,692,1727997965804,-1.9853516,0.038085938,-0.34179688,198.71875,-174.40625,144.65625
693,693,1727997965844,-1.3642578,-0.11425781,-0.24414062,287.34375,33.71875,154.78125
694,694,1727997965884,-1.2353516,-0.1015625,-0.09375,217.75,64.78125,120.09375
695,695,1727997965924,-1.2275391,-0.2265625,0.15429688,-176.90625,-28.90625,37.96875
696,696,1727997965964,-0.44921875,-0.3671875,0.24023438,-104.15625,27.6875,46.625
697,697,1727997966004,-0.048828125,-0.45410156,0.22363281,29.28125,-20.78125,4.875
698,698,1727997966044,0.2421875,-0.44921875,0.16503906,71.21875,-96.59375,-10.25
699,699,1727997966084,-0.1484375,-0.31835938,-0.19433594,-16.75,-97.375,-136.0
700,700,1727997966124,-1.9853516,-0.080078125,0.0048828125,16.03125,-42.8125,-379.03125
701,701,1727997966164,-1.9853516,1.1015625,-0.5371094,-383.0625,36.90625,-149.25
702,702,1727997966204,-1.8427734,0.23144531,0.13671875,48.6875,-60.28125,-126.28125
703,703,1727997966244,-1.1904297,0.21972656,-0.14746094,49.84375,-26.34375,-66.46875
704,704,1727997966284,-0.22460938,0.6044922,-0.30664062,21.34375,41.21875,21.84375
705,705,1727997966324,0.64453125,0.43652344,0.24121094,10.34375,61.875,84.84375
706,706,1727997966364,0.72558594,0.060546875,0.8828125,-4.34375,-62.40625,109.71875
707,707,1727997966404,-0.31054688,-0.44433594,-1.0917969,87.9375,-13.625,1.21875
708,708,1727997966444,-0.48242188,-0.27539062,-0.4189453,172.65625,3.3125,47.46875
709,709,1727997966484,-1.9853516,1.3496094,0.7236328,-81.5,-167.8125,-36.5
710,710,1727997966524,-0.7216797,0.7089844,-0.36523438,-184.53125,33.1875,-0.1875
711,711,1727997966564,-1.9853516,0.19042969,-0.4501953,202.3125,-224.03125,129.375
712,712,1727997966604,-1.515625,-0.123046875,-0.25,390.0,46.84375,149.15625
713,713,1727997966644,-1.0205078,0.040039062,0.1796875,213.3125,73.625,133.125
714,714,1727997966684,-0.73339844,-0.20019531,0.103515625,-103.78125,4.625,73.21875
715,715,1727997966724,-0.2626953,-0.2998047,0.12011719,-30.96875,70.96875,81.84375
716,716,1727997966764,0.14453125,-0.5048828,0.40820312,-34.375,3.03125,4.625
717,717,1727997966804,0.10644531,-0.36523438,0.33203125,5.84375,-63.3125,-99.0
718,718,1727997966844,-0.4404297,-0.07421875,0.015625,-55.375,-81.4375,-189.78125
719,719,1727997966884,-1.9853516,0.14648438,0.3232422,-109.9375,-71.8125,-429.4375
720,720,1727997966924,-1.7783203,0.42285156,-0.27246094,-199.46875,36.53125,-121.46875
721,721,1727997966964,-1.5263672,0.2705078,-0.043945312,38.5625,-54.34375,-50.78125
722,722,1727997967004,-0.84375,0.31640625,-0.14453125,29.875,-3.03125,-28.6875
723,723,1727997967044,0.0146484375,0.63183594,-0.40039062,-73.875,85.40625,34.78125
724,724,1727997967084,0.546875,0.30078125,0.17773438,-23.625,78.875,127.1875
725,725,1727997967124,0.265625,-0.6015625,0.70214844,19.375,-110.4375,78.25
726,726,1727997967164,-0.48535156,-0.29003906,-1.0742188,101.90625,19.75,-42.90625
727,727,1727997967204,-0.67578125,0.06933594,-0.33691406,-17.34375,-6.0625,-12.46875
728,728,1727997967244,-1.9853516,1.4433594,0.8310547,12.75,309.0,-46.53125
729,729,1727997967284,-1.0205078,0.43359375,-0.47851562,-219.125,-50.6875,105.71875
730,730,1727997967324,-1.9853516,0.0126953125,-0.32421875,180.65625,-176.46875,90.03125
731,731,1727997967364,-1.1855469,-0.11621094,-0.22070312,405.75,33.96875,171.25
732,732,1727997967404,-1.0507812,-0.083984375,-0.10449219,279.21875,102.5,119.625
733,733,1727997967444,-0.6669922,0.17480469,0.55859375,93.1875,122.90625,61.9375
734,734,1727997967484,-0.20703125,-0.3125,0.36132812,-295.25,20.65625,35.625
735,735,1727997967524,-0.013671875,-0.4921875,0.1171875,22.0,-21.15625,-77.21875
736,736,1727997967564,0.13867188,-0.3720703,0.16015625,-60.125,-76.09375,-87.34375
737,737,1727997967604,-0.48632812,-0.14453125,0.07910156,-47.4375,-91.59375,-206.90625
738,738,1727997967644,-1.9853516,0.20410156,0.17675781,-110.96875,-49.96875,-396.4375
739,739,1727997967684,-1.5292969,0.1015625,-0.3798828,-135.15625,15.09375,-122.4375
740,740,1727997967724,-1.5722656,0.1015625,0.013671875,79.25,-45.3125,-57.125
741,741,1727997967764,-0.8173828,0.46679688,-0.15820312,30.4375,-17.1875,-19.71875
742,742,1727997967804,-0.10839844,0.63183594,-0.5214844,-59.78125,67.28125,39.96875
743,743,1727997967844,0.40820312,0.3544922,0.026367188,-72.59375,100.1875,130.0
744,744,1727997967884,0.25390625,-0.5761719,1.1308594,-5.375,-122.65625,103.3125
745,745,1727997967924,-0.47851562,-0.35253906,-0.9326172,179.125,48.75,-20.46875
746,746,1727997967964,-0.4423828,-0.038085938,-0.14550781,-7.15625,20.53125,42.15625
747,747,1727997968004,-1.9853516,1.5693359,1.5097656,-101.46875,-5.59375,-43.09375
748,748,1727997968044,0.14355469,0.61621094,-0.32714844,-282.6875,25.46875,5.78125
749,749,1727997968084,-1.9853516,0.19042969,-0.5566406,-137.65625,-216.75,103.5
750,750,1727997968124,-1.6699219,-0.20996094,-0.3154297,426.5625,-60.8125,125.40625
751,751,1727997968164,-0.7451172,-0.109375,-0.26367188,519.15625,136.25,169.375
752,752,1727997968204,-0.98828125,-0.043945312,0.06933594,232.71875,160.90625,82.8125
753,753,1727997968244,-0.49414062,-0.3173828,0.01171875,-343.9375,12.3125,-9.84375
754,754,1727997968284,-0.059570312,-0.63378906,0.26171875,-241.28125,40.9375,23.84375
755,755,1727997968324,0.07421875,-0.8359375,0.6669922,-164.15625,-5.59375,-82.46875
756,756,1727997968364,-0.18652344,-0.3251953,-0.037109375,56.625,-87.4375,-146.6875
757,757,1727997968404,-1.9013672,-0.12207031,-0.13964844,16.46875,-98.78125,-271.84375
758,758,1727997968444,-1.9853516,1.3603516,0.9013672,-394.25,225.96875,-315.5625
759,759,1727997968484,-1.6240234,0.12011719,-0.24121094,105.3125,-45.6875,-83.1875
