,timestamp,accel_x,accel_y,accel_z,gyro_x,gyro_y,gyro_z
0,1727104342429,-1.4042969,-0.265625,-0.5576172,202.59375,208.03125,14.84375
1,1727104342469,-1.5771484,-0.44726562,-0.3310547,164.15625,9.71875,-33.125
2,1727104342501,-1.6582031,0.053710938,-0.125,-19.875,107.9375,-17.8125
3,1727104342538,-0.5683594,0.7792969,2.0,-240.5,97.8125,-14.6875
4,1727104342576,0.087890625,-0.13183594,-0.3203125,-241.84375,2.28125,28.75
5,1727104342614,-0.24902344,-0.71484375,0.2734375,-150.65625,-29.34375,-18.78125
6,1727104342652,-0.07421875,-0.38378906,0.23632812,39.8125,-77.375,-46.875
7,1727104342714,-0.7011719,0.4267578,0.21386719,6.1875,-160.0,-66.28125
8,1727104342749,-2.0,-0.12988281,1.0244141,78.09375,-293.0,-129.9375
9,1727104342789,-1.1259766,-0.19042969,0.140625,-96.15625,-25.4375,-11.34375
10,1727104342825,-1.6191406,-0.85058594,0.49023438,78.21875,16.4375,15.9375
11,1727104342858,-0.99316406,0.03515625,-0.23242188,147.59375,33.65625,27.96875
12,1727104342896,-0.23730469,0.5058594,-0.18359375,32.6875,115.8125,8.25
13,1727104342934,-0.060546875,0.42089844,-0.21972656,-35.125,126.71875,53.125
14,1727104342970,0.083984375,-0.12402344,0.22460938,-66.375,15.46875,32.65625
15,1727104343063,-0.17578125,-0.4716797,0.640625,-25.4375,28.40625,-18.3125
16,1727104343083,-2.0,0.4873047,-0.8017578,-196.75,-136.09375,-32.28125
17,1727104343101,-1.6083984,-0.2265625,-0.4375,148.03125,120.75,73.875
18,1727104343158,-2.0,-0.6074219,-0.3388672,258.25,-101.0625,15.5
19,1727104343199,-1.4658203,-0.09082031,0.17773438,110.375,269.0625,-10.125
20,1727104343214,-0.7734375,0.4765625,1.6035156,-299.21875,88.09375,-8.46875
21,1727104343253,0.03125,-0.076171875,-0.13378906,-85.71875,60.15625,37.53125
22,1727104343291,-0.25390625,-0.53222656,0.41308594,-118.125,-0.46875,10.375
23,1727104343365,0.040039062,-0.21777344,-0.06347656,-93.0625,-30.4375,-25.5
24,1727104343386,-0.24414062,-0.1171875,0.44628906,16.5625,-127.34375,-77.625
25,1727104343422,-2.0,-0.15136719,-0.13378906,206.875,-247.09375,-191.875
26,1727104343465,-1.7802734,-0.0546875,0.17871094,-0.15625,12.28125,49.3125
27,1727104343496,-1.9365234,-0.2607422,0.35742188,-97.75,7.09375,-29.34375
28,1727104343538,-0.953125,-0.18457031,-0.24707031,108.0,65.5625,10.5625
29,1727104343572,-0.421875,0.4501953,-0.27539062,97.6875,51.59375,9.09375
30,1727104343626,-0.06542969,0.38476562,-0.14648438,43.40625,63.3125,50.4375
31,1727104343663,0.051757812,0.043945312,-0.028320312,-74.875,49.46875,34.875
32,1727104343719,-0.4189453,-1.4746094,2.0,-18.59375,49.34375,-2.0
33,1727104343738,-0.5595703,0.17675781,-0.44628906,-138.71875,26.9375,-55.53125
34,1727104343776,-2.0,0.69140625,-0.07519531,68.625,-373.21875,17.09375
35,1727104343832,-1.6523438,-0.07324219,-0.33203125,92.375,146.75,42.0625
36,1727104343852,-2.0,-0.7158203,-0.020507812,152.0625,-2.59375,-38.25
37,1727104343897,-1.4189453,-0.111328125,-0.040039062,-42.15625,203.28125,-2.75
38,1727104343949,-0.578125,0.26367188,1.1015625,-110.5625,19.75,11.78125
39,1727104343983,0.21679688,-0.23535156,0.051757812,-144.03125,10.21875,15.09375
40,1727104344021,-0.18652344,-0.53808594,0.05859375,-82.3125,22.71875,-11.34375
41,1727104344058,-0.0009765625,-0.35058594,0.3828125,-20.3125,-66.1875,-35.21875
42,1727104344165,-0.37695312,0.3955078,0.3076172,71.875,-151.40625,-49.4375
43,1727104344177,-2.0,-0.6699219,0.42773438,248.875,-358.9375,-220.625
44,1727104344180,-1.2451172,-0.045898438,0.3623047,-29.75,-31.90625,45.34375
45,1727104344227,-1.5625,-0.3544922,0.5566406,-124.96875,-5.40625,-31.1875
46,1727104344273,-0.87890625,-0.14355469,-0.25976562,185.75,55.4375,12.59375
47,1727104344303,-0.35839844,0.5332031,-0.31054688,90.40625,56.59375,2.28125
48,1727104344338,-0.0107421875,0.3623047,-0.2783203,-60.09375,77.34375,29.90625
49,1727104344378,0.13769531,-0.0087890625,-0.07519531,-95.5625,62.28125,50.5
50,1727104344414,-0.16699219,-0.9560547,2.0,55.5625,55.6875,13.625
51,1727104344455,-0.8457031,-0.044921875,-0.28515625,-122.15625,-32.15625,-31.5
52,1727104344491,-2.0,0.25878906,1.0146484,16.5,-137.84375,34.4375
53,1727104344549,-1.8125,-0.3720703,-0.62402344,51.34375,-125.21875,-3.59375
54,1727104344583,-1.7558594,-0.6044922,-0.21582031,188.875,173.4375,21.4375
55,1727104344624,-1.5732422,-0.048828125,-0.19824219,41.09375,185.6875,17.28125
56,1727104344677,-0.8886719,0.47851562,1.2822266,-43.4375,45.375,8.90625
57,1727104344696,-0.041992188,-0.07519531,0.20019531,-170.625,-7.125,28.28125
58,1727104344734,-0.103515625,-0.6123047,0.13476562,-126.25,-46.71875,9.34375
59,1727104344772,-0.11816406,-0.4560547,0.14160156,-39.59375,-56.8125,-40.15625
60,1727104344832,-0.53125,0.07519531,0.15722656,111.46875,-94.34375,-64.1875
61,1727104344869,-2.0,-0.2919922,0.5253906,199.3125,-291.53125,-145.3125
62,1727104344901,-1.5283203,0.12207031,0.041992188,22.90625,-26.09375,12.71875
63,1727104344961,-1.7275391,-0.3876953,0.5,-103.84375,-10.71875,-7.0
64,1727104345009,-0.9736328,-0.09765625,-0.31054688,145.53125,41.09375,5.75
65,1727104345020,-0.21289062,0.32714844,-0.4111328,68.1875,42.875,0.0
66,1727104345051,0.1875,0.3251953,-0.16894531,-29.03125,53.78125,34.875
67,1727104345109,0.22558594,0.05859375,-0.080078125,-111.84375,61.3125,30.90625
68,1727104345151,-0.20605469,-0.14550781,0.13867188,-20.96875,47.15625,5.3125
69,1727104345186,-1.6972656,-0.203125,-0.3154297,-291.25,-91.15625,-90.4375
70,1727104345222,-1.8134766,0.3466797,-0.043945312,68.3125,23.65625,38.71875
71,1727104345260,-2.0,-0.14746094,-0.5205078,162.125,-161.90625,53.0625
72,1727104345299,-1.8173828,-0.46972656,-0.22851562,152.78125,265.90625,20.9375
73,1727104345334,-1.3867188,-0.0703125,0.30664062,-62.15625,167.375,19.96875
74,1727104345369,-0.9404297,0.22167969,0.28125,3.5,-16.21875,11.59375
75,1727104345444,0.13574219,-0.14160156,0.5205078,-171.78125,-9.9375,24.0
76,1727104345463,-0.020507812,-0.66308594,-0.059570312,-78.65625,-14.6875,-7.3125
77,1727104345501,0.11230469,-0.31933594,0.12695312,80.03125,-37.09375,-40.625
78,1727104345537,-0.9980469,0.41601562,0.17578125,57.59375,-170.625,-67.875
79,1727104345575,-2.0,-0.23925781,0.8232422,70.09375,-258.53125,-136.21875
80,1727104345620,-1.3085938,0.06933594,0.060546875,65.40625,-6.03125,38.875
81,1727104345654,-1.6513672,-0.40429688,0.296875,-96.21875,-54.84375,-20.4375
82,1727104345690,-0.8066406,0.045898438,-0.265625,73.5,12.0,17.84375
83,1727104345748,-0.17285156,0.30566406,-0.3515625,67.34375,82.46875,16.71875
84,1727104345788,0.16015625,0.17578125,-0.12890625,46.21875,47.5,36.03125
85,1727104345824,0.09667969,-0.0107421875,-0.107421875,-95.5,37.9375,20.9375
86,1727104345863,-0.19140625,-0.34277344,0.2783203,20.34375,9.1875,-1.34375
87,1727104345902,-1.8476562,0.265625,0.79785156,-69.0625,-86.59375,-81.34375
88,1727104345937,-1.6386719,0.11621094,-0.28320312,55.1875,62.40625,35.96875
89,1727104345971,-2.0,-0.3251953,-0.5126953,57.6875,-174.71875,24.71875
90,1727104346027,-1.8125,-0.31640625,-0.25585938,168.59375,337.90625,-6.03125
91,1727104346064,-1.2724609,0.19140625,1.8759766,-174.65625,134.71875,23.15625
92,1727104346107,-0.890625,0.33496094,-0.0078125,-72.59375,46.59375,38.40625
93,1727104346139,-0.057617188,-0.4716797,0.37304688,-138.28125,-18.71875,34.6875
94,1727104346196,-0.026367188,-0.74121094,-0.06933594,-80.0,-13.21875,-7.0625
95,1727104346217,-0.19726562,-0.24609375,0.453125,28.15625,-64.5625,-42.34375
96,1727104346257,-1.0029297,0.46777344,-0.046875,182.03125,-155.9375,-53.9375
97,1727104346293,-2.0,-0.55371094,0.33984375,91.75,-167.875,-148.90625
98,1727104346370,-1.5703125,-0.0625,-0.0126953125,2.65625,-37.5625,1.59375
99,1727104346385,-1.5527344,-0.45214844,0.34570312,-61.4375,-16.9375,-16.21875
100,1727104346420,-0.8984375,0.034179688,-0.484375,140.84375,32.875,21.375
101,1727104346458,-0.12011719,0.47265625,-0.43066406,105.5625,20.59375,-12.0625
102,1727104346497,0.39746094,0.41992188,-0.22265625,-5.96875,62.875,49.75
103,1727104346537,0.055664062,-0.03125,0.0546875,-62.65625,30.40625,37.90625
104,1727104346572,-0.3720703,-1.2578125,2.0,26.75,4.21875,-19.78125
105,1727104346630,-2.0,0.17773438,-0.78515625,-90.75,-84.21875,-61.5625
106,1727104346686,-1.4326172,0.16210938,-0.16308594,9.375,298.78125,17.78125
107,1727104346701,-1.9228516,-0.40527344,-1.0556641,34.15625,-131.1875,3.0
108,1727104346741,-1.8847656,-0.3671875,-0.13867188,178.84375,196.1875,16.71875
109,1727104346777,-0.95703125,0.07421875,1.4892578,-112.875,173.59375,29.96875
110,1727104346814,-0.82421875,-0.07910156,0.2548828,10.03125,22.46875,14.71875
111,1727104346852,0.06738281,-0.30664062,0.20410156,-162.28125,4.21875,16.71875
112,1727104346890,-0.10546875,-0.4580078,0.17773438,-102.5625,-18.59375,0.25
113,1727104346983,-0.15820312,-0.23144531,0.2578125,-29.6875,-33.90625,-14.875
114,1727104347004,-0.70214844,0.23730469,0.16894531,87.625,-147.5625,-53.6875
115,1727104347043,-2.0,-0.63378906,0.48535156,283.78125,-238.8125,-180.90625
116,1727104347060,-1.7041016,0.35058594,0.12988281,25.0625,-15.90625,25.875
117,1727104347096,-1.5595703,-0.19042969,0.26953125,-158.59375,-35.8125,-11.71875
118,1727104347134,-1.2646484,0.03125,-0.24121094,115.875,0.21875,-14.40625
119,1727104347171,-0.30273438,0.24023438,-0.35742188,37.0,78.40625,-10.5625
120,1727104347232,0.22851562,0.3203125,-0.09277344,20.53125,62.65625,44.125
121,1727104347277,0.20019531,-0.0390625,-0.0146484375,-75.90625,51.71875,42.5625
122,1727104347320,-0.4658203,-1.0996094,2.0,122.78125,52.875,33.09375
123,1727104347349,-0.68066406,0.053710938,-0.5488281,-118.125,8.3125,-37.96875
124,1727104347382,-2.0,0.5214844,0.421875,44.09375,-248.28125,4.90625
125,1727104347414,-1.578125,0.02734375,-0.7939453,118.0,-48.5,32.25
126,1727104347452,-2.0,-0.45996094,-0.22070312,76.0,-18.59375,9.34375
127,1727104347489,-1.4580078,-0.15136719,0.22949219,32.375,263.09375,20.40625
128,1727104347588,-1.0078125,0.001953125,0.97558594,-4.3125,54.40625,23.15625
129,1727104347624,-0.20605469,-0.2607422,0.0,-119.1875,41.46875,26.3125
130,1727104347640,-0.1484375,-0.3486328,0.45898438,-88.15625,-16.46875,10.8125
131,1727104347659,-0.015625,-0.296875,0.14648438,-30.0625,-67.59375,-11.15625
132,1727104347714,-0.3125,-0.078125,0.39160156,40.5,-133.65625,-43.375
133,1727104347735,-1.6425781,-0.0703125,-0.4091797,239.03125,-162.21875,-91.1875
134,1727104347775,-2.0,-0.12792969,0.5283203,-30.8125,-94.34375,-64.875
135,1727104347812,-1.6474609,-0.060546875,0.8183594,-33.375,-22.0,-43.5625
136,1727104347867,-1.3994141,-0.23046875,0.018554688,62.09375,34.9375,1.96875
137,1727104347908,-0.6894531,0.12792969,-0.3779297,78.34375,93.15625,-13.28125
138,1727104347945,-0.23242188,0.5263672,-0.25390625,9.0625,91.875,12.59375
139,1727104347981,0.051757812,0.35058594,-0.06640625,3.4375,45.5,50.25
140,1727104348022,-0.07421875,-0.08496094,0.22558594,1.375,35.59375,59.53125
141,1727104348072,-0.08984375,-0.48339844,0.07519531,-221.65625,2.28125,-127.90625
142,1727104348108,-1.8320312,1.1191406,-1.1748047,-170.5625,-35.0625,-19.09375
143,1727104348145,-1.5517578,-0.12109375,1.0507812,111.46875,-50.34375,118.0625
144,1727104348183,-2.0,-0.6875,0.016601562,159.75,-179.125,24.0
145,1727104348221,-1.5205078,-0.58691406,-0.01171875,9.71875,187.65625,11.90625
146,1727104348258,-1.2646484,0.14941406,1.4150391,-93.125,336.875,3.1875
147,1727104348299,-0.5810547,0.00390625,-0.29882812,-77.125,31.09375,26.3125
148,1727104348339,0.095703125,-0.2705078,0.47753906,-105.9375,4.84375,19.59375
149,1727104348380,-0.0390625,-0.36132812,-0.12695312,-19.75,-10.53125,-11.90625
150,1727104348410,-0.0087890625,-0.14160156,0.16992188,7.40625,-67.71875,-26.96875
151,1727104348487,-0.6171875,0.25195312,0.42578125,17.59375,-136.28125,-68.90625
152,1727104348501,-2.0,-0.7519531,0.77734375,165.96875,-298.4375,-204.15625
153,1727104348539,-1.6220703,0.099609375,0.30664062,-64.78125,-2.59375,1.34375
154,1727104348577,-1.6347656,-0.33398438,0.37695312,1.5,-20.53125,-18.84375
155,1727104348614,-0.8105469,0.24316406,-0.43164062,153.34375,48.0625,20.75
156,1727104348654,-0.07910156,0.4423828,-0.43359375,-2.65625,89.4375,-1.8125
157,1727104348708,0.17480469,0.21484375,-0.1171875,-107.40625,58.625,47.4375
158,1727104348745,0.07910156,-0.19042969,0.078125,-2.28125,0.09375,37.0
159,1727104348783,-0.7167969,-0.43359375,0.034179688,-179.28125,21.75,-35.34375
160,1727104348821,-0.38476562,0.119140625,-0.10449219,-79.875,-0.03125,-42.84375
161,1727104348861,-2.0,0.7207031,1.0322266,78.34375,-390.53125,8.25
162,1727104348907,-1.7763672,-0.020507812,-0.92871094,49.84375,-4.6875,66.96875
163,1727104348937,-2.0,-0.5283203,-0.21386719,143.28125,58.375,15.28125
164,1727104348970,-1.9296875,-0.31640625,1.1689453,-141.09375,262.21875,37.1875
165,1727104349008,-0.9501953,-0.078125,0.47265625,18.21875,27.25,27.15625
166,1727104349064,0.20507812,-0.25976562,0.29492188,-167.09375,18.625,19.78125
167,1727104349114,0.36914062,-0.6064453,-0.16992188,-108.25,-20.0,3.1875
168,1727104349139,-0.06640625,-0.22753906,-0.17285156,60.9375,37.25,-31.3125
169,1727104349177,-0.45410156,0.4423828,0.90625,11.4375,-142.8125,-20.1875
170,1727104349233,-2.0,0.09765625,-0.5595703,94.4375,-200.125,-127.4375
171,1727104349252,-2.0,0.05859375,0.33789062,-43.75,15.53125,30.34375
172,1727104349291,-1.9492188,-0.5595703,0.6953125,-45.5625,-17.3125,-10.1875
173,1727104349351,-1.0507812,-0.12890625,-0.29492188,48.125,5.53125,3.65625
174,1727104349388,-0.21582031,0.4423828,-0.52246094,107.03125,62.46875,14.28125
175,1727104349426,-0.16308594,0.27441406,-0.19335938,-76.8125,91.875,21.4375
176,1727104349459,0.16796875,-0.14941406,0.0087890625,-8.8125,31.53125,41.28125
177,1727104349496,-0.30371094,-1.1464844,1.5234375,-48.5,41.65625,-13.28125
178,1727104349535,-0.03125,-0.099609375,-0.13769531,-138.15625,-23.15625,-78.125
179,1727104349574,-2.0,0.734375,-0.7675781,26.21875,-171.4375,-52.3125
180,1727104349629,-0.9091797,0.27734375,-0.1328125,108.53125,556.78125,25.46875
181,1727104349670,-2.0,-0.47558594,-0.8046875,14.25,-274.15625,16.1875
182,1727104349706,-1.8027344,-0.5361328,-0.041015625,71.125,293.28125,24.53125
183,1727104349744,-1.3466797,0.359375,2.0,-307.46875,327.53125,8.8125
184,1727104349782,-0.19042969,-0.15527344,-0.047851562,-126.875,3.0,25.71875
185,1727104349819,0.39257812,-0.5957031,0.001953125,-82.9375,-15.53125,25.875
186,1727104349866,0.032226562,-0.28027344,-0.26953125,-15.21875,33.78125,-26.65625
187,1727104349895,-0.2939453,0.08203125,0.69140625,-27.625,-102.03125,-41.0
188,1727104349951,-1.2695312,0.25683594,-0.27246094,177.625,-133.40625,-107.78125
189,1727104350002,-2.0,-0.34960938,0.5371094,-63.75,-152.0625,-125.71875
190,1727104350022,-1.8720703,0.03515625,0.6435547,-90.96875,-40.5625,-5.375
191,1727104350062,-1.4482422,-0.9638672,0.20800781,-24.8125,-24.28125,11.59375
192,1727104350104,-0.6044922,0.025390625,-0.3486328,146.375,45.0625,42.96875
193,1727104350136,0.0107421875,0.56933594,-0.50097656,148.59375,106.40625,31.875
194,1727104350173,0.20996094,0.3017578,-0.15429688,-15.90625,63.3125,17.90625
195,1727104350214,-0.0146484375,-0.06347656,0.07519531,-29.8125,46.71875,43.15625
196,1727104350264,-0.46191406,-0.7294922,0.39257812,-149.4375,-9.875,-15.1875
197,1727104350301,-0.068359375,0.061523438,-0.03125,-34.875,-4.1875,-27.9375
198,1727104350343,-2.0,0.5449219,-1.03125,72.96875,-356.3125,26.3125
199,1727104350382,-1.6884766,-0.25,-0.3154297,19.4375,24.8125,38.34375
200,1727104350419,-2.0,-0.7236328,-0.23144531,181.0625,170.5,8.6875
201,1727104350455,-1.9228516,0.07910156,0.3095703,-266.625,179.40625,7.75
202,1727104350493,-0.828125,0.3076172,0.7607422,61.125,33.65625,36.15625
203,1727104350546,-0.07324219,-0.0146484375,0.21875,-142.8125,-30.25,30.96875
204,1727104350585,0.20898438,-0.7294922,-0.24023438,-46.0,-31.46875,19.96875
205,1727104350621,0.13183594,-0.42285156,-0.06933594,32.875,33.15625,-33.75
206,1727104350658,-0.35253906,0.6699219,1.3164062,-33.46875,-205.125,-28.5625
207,1727104350696,-2.0,-0.16113281,-0.83203125,234.34375,-236.4375,-134.6875
208,1727104350733,-2.0,-0.115234375,0.41796875,-102.03125,17.40625,14.71875
209,1727104350774,-1.7646484,-0.09472656,0.53027344,-65.03125,-24.5625,-40.625
210,1727104350813,-1.0800781,-0.26757812,-0.28710938,102.8125,11.4375,5.5625
211,1727104350863,-0.43359375,0.44140625,-0.28710938,79.625,40.96875,26.5625
212,1727104350902,0.1171875,0.4609375,-0.203125,24.5,84.6875,41.40625
213,1727104350942,0.16699219,-0.08300781,0.08691406,17.125,47.5625,81.6875
214,1727104350977,-0.09082031,-0.8691406,1.5800781,50.375,52.03125,-7.25
215,1727104351014,-0.32421875,-0.107421875,-0.02734375,-158.1875,-74.875,-66.46875
216,1727104351053,-2.0,0.6513672,-0.76171875,-9.6875,-109.15625,-118.53125
217,1727104351110,-1.5996094,0.05078125,-0.5986328,128.5,60.15625,71.84375
218,1727104351160,-2.0,-0.5058594,-0.2763672,220.0625,78.75,16.4375
219,1727104351183,-2.0,-0.107421875,1.3544922,-188.75,293.96875,9.59375
220,1727104351221,-0.84277344,0.28808594,0.2705078,-9.1875,27.65625,17.53125
221,1727104351258,0.13964844,-0.2734375,0.07421875,-121.875,-10.65625,36.8125
222,1727104351296,0.12792969,-0.7636719,-0.03125,-72.0,13.8125,10.25
223,1727104351333,0.021484375,-0.13769531,-0.09667969,96.28125,6.625,-14.625
224,1727104351373,-0.31640625,0.7373047,0.9863281,-3.03125,-187.71875,-8.34375
225,1727104351408,-2.0,-0.2998047,-0.52441406,188.75,-191.375,-145.0625
226,1727104351466,-2.0,0.034179688,0.24804688,-87.75,8.6875,-9.15625
227,1727104351521,-1.9882812,-0.21972656,0.53027344,-85.84375,-11.75,-26.40625
228,1727104351545,-1.1728516,-0.2998047,-0.13085938,111.0,17.40625,4.78125
229,1727104351577,-0.6308594,0.6064453,-0.2529297,39.46875,77.40625,16.1875
230,1727104351637,-0.024414062,0.5214844,0.0234375,-48.25,82.65625,33.6875
231,1727104351651,0.087890625,-0.19335938,-0.059570312,51.78125,43.53125,53.90625
232,1727104351689,0.020507812,-1.0449219,1.0878906,-55.59375,-2.65625,-20.6875
233,1727104351749,-0.09082031,-0.25195312,-0.13183594,-199.5625,-59.59375,-71.03125
234,1727104351787,-2.0,0.6533203,-0.58203125,52.15625,-205.96875,-84.9375
235,1727104351823,-1.2333984,0.14453125,-0.6699219,94.75,230.1875,45.25
236,1727104351861,-2.0,-0.60253906,-0.16113281,182.6875,-204.5,-25.25
237,1727104351898,-1.6601562,-0.28515625,-0.21386719,64.84375,355.5,0.5625
238,1727104351936,-1.0234375,0.25683594,1.4013672,-224.21875,26.28125,27.84375
239,1727104351977,0.05078125,-0.4658203,0.049804688,-141.03125,6.125,24.71875
240,1727104352008,0.21484375,-0.60058594,0.08496094,-53.5625,16.875,27.34375
241,1727104352107,0.06738281,-0.17773438,-0.111328125,30.84375,36.9375,-17.4375
242,1727104352121,-0.39941406,0.1796875,1.0302734,-93.71875,-147.9375,-60.96875
243,1727104352144,-2.0,0.15039062,-0.484375,204.6875,-173.4375,-136.34375
244,1727104352196,-2.0,-0.3564453,0.1015625,-53.25,-53.3125,-21.15625
245,1727104352217,-1.7666016,-0.20117188,0.43652344,-153.34375,-4.8125,-28.875
246,1727104352258,-1.3837891,-0.2578125,-0.029296875,47.75,-30.96875,-16.59375
247,1727104352293,-0.4921875,0.34960938,-0.3564453,150.53125,72.71875,19.84375
248,1727104352331,0.05859375,0.42089844,-0.27539062,-32.8125,126.5,30.84375
249,1727104352385,0.234375,0.015625,0.09472656,16.5,-27.875,83.125
250,1727104352424,-0.22070312,-1.0019531,2.0,112.6875,46.71875,44.9375
251,1727104352462,-0.25878906,-0.16894531,-0.6386719,-265.84375,-24.21875,-78.46875
252,1727104352503,-2.0,0.8359375,-0.70410156,103.0625,-177.96875,-87.15625
253,1727104352537,-1.4638672,0.29003906,-0.28710938,96.46875,301.53125,60.375
254,1727104352575,-2.0,-0.48828125,0.0546875,147.5,-175.75,45.46875
255,1727104352627,-1.6054688,-0.52734375,0.029296875,33.78125,349.21875,4.09375
256,1727104352664,-0.86816406,0.3095703,1.6552734,-147.125,93.40625,22.65625
257,1727104352702,-0.0029296875,-0.21289062,0.09765625,-90.0625,19.5625,26.0625
258,1727104352739,0.33496094,-0.42773438,0.21191406,-67.1875,-13.46875,19.40625
259,1727104352777,0.078125,-0.26660156,-0.35546875,49.71875,43.90625,-22.4375
260,1727104352814,-0.5107422,-0.024414062,0.71484375,-46.65625,-130.90625,-51.03125
261,1727104352856,-1.6425781,0.24609375,-0.42871094,220.25,-196.9375,-93.9375
262,1727104352894,-2.0,-0.13378906,0.14355469,6.4375,-90.8125,-75.75
263,1727104352933,-1.9238281,-0.12109375,0.85253906,-211.46875,-19.15625,-23.90625
264,1727104352985,-1.4619141,-0.4453125,-0.04296875,116.0625,-34.53125,-4.5625
265,1727104353044,-0.5283203,0.45703125,-0.31054688,107.09375,3.25,1.53125
266,1727104353058,-0.0087890625,0.4921875,-0.33691406,-39.90625,98.03125,43.59375
267,1727104353096,0.19335938,-0.041015625,-0.024414062,67.46875,39.9375,58.3125
268,1727104353133,-0.140625,-1.4414062,2.0,-114.65625,10.59375,-39.0625
269,1727104353170,-0.12792969,-0.23730469,-0.6582031,-194.5625,31.28125,-84.28125
270,1727104353209,-2.0,0.9082031,1.9863281,148.40625,-106.46875,-35.4375
271,1727104353267,-2.0,0.70214844,0.115234375,104.34375,46.96875,86.6875
272,1727104353303,-2.0,-0.3720703,-0.22949219,84.8125,-121.625,41.875
273,1727104353340,-1.6708984,-0.49804688,0.21386719,147.5,324.0625,5.25
274,1727104353381,-1.3681641,0.19824219,1.7539062,-195.65625,180.125,-9.21875
275,1727104353415,-0.20800781,0.12402344,0.2548828,-77.78125,41.09375,32.90625
276,1727104353453,0.32910156,-0.5185547,0.27246094,-96.59375,-20.90625,21.25
277,1727104353490,0.13085938,-0.2998047,-0.23242188,10.40625,17.34375,-9.625
278,1727104353528,-0.31445312,0.07519531,0.48632812,22.78125,-76.5,-29.40625
279,1727104353588,-0.77246094,0.38867188,-0.051757812,189.0,-126.625,-35.09375
280,1727104353624,-2.0,-0.6376953,0.30664062,-11.5625,-247.96875,-128.96875
281,1727104353658,-1.7978516,0.3876953,0.31445312,-80.46875,-17.875,32.71875
282,1727104353696,-1.5869141,-0.8232422,0.38964844,-10.59375,-12.6875,-20.0625
283,1727104353734,-0.921875,0.080078125,-0.28320312,58.1875,14.65625,-2.0625
284,1727104353771,0.025390625,0.7675781,-0.41503906,57.59375,97.96875,38.9375
285,1727104353808,-0.13476562,0.16015625,-0.017578125,-79.625,59.34375,40.96875
286,1727104353868,-0.046875,-0.28222656,0.13769531,97.1875,45.875,20.6875
287,1727104353905,-0.36035156,-0.7714844,0.3125,-78.03125,-7.59375,-36.0
288,1727104353944,-0.8574219,0.203125,-0.4296875,-36.65625,-35.875,-33.0625
289,1727104353984,-2.0,0.7753906,1.15625,53.75,-79.25,53.28125
290,1727104354022,-2.0,-0.17480469,-0.67871094,49.71875,-114.125,48.84375
291,1727104354055,-1.8476562,-0.0068359375,0.0,349.375,149.875,-5.65625
292,1727104354089,-1.5488281,-0.1640625,1.1533203,-280.0625,172.5,3.65625
293,1727104354128,-0.6142578,-0.23925781,0.40722656,6.96875,22.65625,14.28125
294,1727104354188,0.14746094,-0.25097656,-0.203125,-76.625,68.625,4.90625
295,1727104354225,0.0625,-0.23632812,0.21484375,-35.0,-0.34375,-7.875
296,1727104354261,-0.10253906,-0.24609375,0.14746094,79.90625,-14.0,-20.0
297,1727104354299,-0.56347656,0.484375,0.51953125,-64.0,-174.46875,-35.03125
298,1727104354339,-2.0,-0.63378906,0.28808594,125.34375,-267.5,-188.59375
299,1727104354374,-1.8242188,0.26757812,0.18945312,-51.4375,-18.21875,26.5
300,1727104354411,-1.6445312,-0.5449219,0.25976562,-137.25,-9.5625,-32.875
301,1727104354464,-0.9316406,-0.103515625,-0.41015625,100.125,19.25,6.90625
302,1727104354507,-0.21484375,0.33691406,-0.42773438,103.28125,87.65625,23.625
303,1727104354559,0.13671875,0.36132812,-0.26660156,-45.75,64.15625,15.28125
304,1727104354581,0.08203125,-0.053710938,0.119140625,23.84375,-11.03125,62.03125
305,1727104354618,-0.49414062,-1.15625,1.5498047,-61.0625,35.46875,-6.59375
306,1727104354657,-0.36132812,0.12597656,-0.6269531,-127.46875,68.4375,-31.125
307,1727104354692,-2.0,0.6357422,0.4716797,157.3125,-406.40625,12.9375
308,1727104354729,-1.4833984,-0.03515625,-0.6777344,162.5,-2.28125,24.4375
309,1727104354783,-2.0,0.00390625,0.040039062,206.5,-11.4375,5.1875
310,1727104354825,-1.4111328,-0.22167969,0.56640625,-87.75,244.90625,5.5625
311,1727104354860,-0.6777344,0.14941406,0.37402344,-101.21875,12.46875,20.625
312,1727104354896,0.10449219,-0.28222656,0.32617188,-106.46875,-21.15625,27.46875
313,1727104354937,-0.041015625,-0.5859375,0.036132812,-43.125,13.5625,-3.21875
314,1727104354979,-0.025390625,-0.19921875,0.24804688,42.75,-47.21875,-28.0625
315,1727104355009,-0.19921875,0.44140625,0.5361328,70.21875,-119.4375,-25.9375
316,1727104355064,-2.0,-0.6640625,-0.038085938,170.6875,-344.71875,-257.625
317,1727104355102,-1.2236328,0.09667969,-0.11230469,40.84375,63.875,80.6875
318,1727104355141,-1.9335938,-0.32421875,0.5341797,-90.125,-29.75,-57.4375
319,1727104355177,-1.2744141,0.01953125,-0.34570312,91.28125,-30.75,-17.6875
320,1727104355218,-0.32714844,0.67089844,-0.32617188,48.0625,66.375,26.3125
321,1727104355254,0.41796875,0.4375,-0.0009765625,-15.59375,92.5,37.78125
322,1727104355289,0.115234375,-0.24902344,-0.15332031,61.0,16.0,40.28125
323,1727104355327,-0.62109375,-1.2138672,1.609375,-191.8125,-51.5,-26.25
324,1727104355383,-0.6855469,0.11425781,-0.61816406,-107.21875,30.34375,-52.25
325,1727104355423,-2.0,0.546875,1.2763672,116.46875,-87.3125,64.28125
326,1727104355457,-1.7402344,-0.28320312,-0.86621094,150.71875,-77.1875,25.78125
327,1727104355499,-2.0,-0.17089844,-0.2685547,262.71875,132.21875,-10.84375
328,1727104355534,-1.2285156,-0.203125,1.3359375,-287.5625,142.90625,13.375
329,1727104355571,-0.5488281,-0.05078125,0.10839844,-54.96875,14.90625,29.90625
330,1727104355631,0.11425781,-0.22265625,0.3544922,-67.96875,10.875,27.84375
331,1727104355667,-0.021484375,-0.43652344,-0.025390625,-42.46875,14.0625,7.03125
332,1727104355720,0.08496094,-0.24902344,0.22265625,-21.65625,-32.21875,-24.09375
333,1727104355739,-0.31445312,0.5332031,0.5722656,20.53125,-133.46875,-59.1875
334,1727104355778,-2.0,-0.8183594,0.1640625,232.03125,-315.90625,-241.4375
335,1727104355861,-1.328125,0.24609375,0.16992188,40.84375,49.15625,75.9375
336,1727104355874,-1.8837891,-0.14453125,0.3125,-108.5625,-42.65625,-52.53125
337,1727104355892,-0.7910156,-0.00390625,-0.28027344,92.90625,29.25,-7.8125
338,1727104355928,-0.34375,0.41796875,-0.29101562,37.8125,66.78125,17.96875
339,1727104355988,0.14550781,0.38671875,0.00390625,45.25,54.59375,43.46875
340,1727104356043,-0.078125,-0.13769531,-0.034179688,-16.5625,26.21875,47.4375
341,1727104356078,-0.7792969,-0.95214844,1.1171875,-15.0,5.34375,-15.1875
342,1727104356100,-0.88671875,0.12695312,-0.78027344,-168.96875,-1.25,-84.84375
343,1727104356137,-2.0,0.61035156,-0.49316406,109.46875,-70.34375,25.21875
344,1727104356171,-1.9951172,0.049804688,-0.24902344,170.125,-39.40625,62.3125
345,1727104356249,-1.8720703,-0.29589844,-0.0234375,151.40625,209.375,26.3125
346,1727104356269,-1.3720703,-0.14648438,1.4052734,-162.4375,209.1875,22.96875
347,1727104356304,-0.6357422,0.07128906,0.09667969,-117.84375,69.1875,23.1875
348,1727104356343,-0.02734375,-0.36328125,0.61621094,-71.5,6.96875,43.09375
349,1727104356384,0.0048828125,-0.4423828,-0.22460938,-44.71875,44.28125,9.21875
350,1727104356419,0.107421875,-0.21777344,0.29785156,4.40625,-25.5,-17.625
351,1727104356457,-0.5527344,0.60546875,0.24414062,34.8125,-132.125,-32.78125
352,1727104356494,-2.0,-0.80371094,0.4736328,122.78125,-274.8125,-204.40625
353,1727104356552,-1.4941406,0.5048828,-0.10644531,106.84375,0.3125,58.0625
354,1727104356624,-1.6904297,-0.5019531,0.2841797,-160.4375,-19.15625,-39.59375
355,1727104356640,-1.0888672,0.17675781,-0.26953125,76.4375,20.90625,3.25
356,1727104356661,-0.2548828,0.60253906,-0.4375,-23.46875,90.59375,10.5625
357,1727104356698,-0.024414062,0.23339844,0.00390625,-25.0625,17.96875,33.875
358,1727104356755,0.055664062,-0.44628906,-0.025390625,27.5,42.5625,40.0
359,1727104356773,-0.6591797,-1.1328125,1.2910156,-103.125,-42.75,-41.5
360,1727104356813,0.22460938,0.19726562,-0.48242188,-17.4375,68.3125,-51.5
361,1727104356887,-2.0,0.6660156,-0.8720703,211.9375,-398.96875,-40.28125
362,1727104356901,-0.74902344,0.1171875,-0.38867188,97.8125,235.375,61.34375
363,1727104356961,-2.0,-0.47265625,-0.453125,44.28125,-109.15625,-15.1875
364,1727104356977,-1.7255859,-0.53125,-0.060546875,-16.21875,264.65625,-5.375
365,1727104357020,-0.9638672,0.40234375,1.6474609,-71.6875,40.25,25.875
366,1727104357056,-0.12695312,-0.3486328,-0.032226562,-132.0,-17.1875,23.25
367,1727104357095,0.29589844,-0.40234375,0.059570312,-102.6875,-8.65625,4.90625
368,1727104357131,0.0029296875,-0.4375,-0.078125,-26.78125,4.96875,-32.46875
369,1727104357184,-0.3408203,-0.14648438,0.36132812,13.21875,-94.71875,-35.6875
370,1727104357221,-1.7900391,0.32910156,-0.18164062,167.9375,-209.3125,-106.125
371,1727104357265,-2.0,-0.07324219,0.38476562,61.78125,-32.5,-18.25
372,1727104357297,-2.0,-0.044921875,0.5136719,-111.5625,-17.0,-25.25
373,1727104357333,-1.1386719,-0.3095703,-0.037109375,66.0625,22.65625,28.28125
374,1727104357376,-0.5595703,0.38476562,-0.46484375,121.125,86.375,18.75
375,1727104357409,-0.11035156,0.48535156,-0.25976562,-8.75,94.8125,10.8125
376,1727104357470,0.0859375,0.09082031,-0.07910156,-71.875,19.0625,35.40625
377,1727104357502,-0.17578125,-0.17773438,0.15820312,-22.9375,29.25,45.65625
378,1727104357539,-0.2578125,-0.50390625,-0.41601562,-292.34375,-50.46875,-60.96875
379,1727104357603,-2.0,0.45507812,-0.6425781,55.5625,-188.21875,-75.375
380,1727104357614,-1.4169922,0.16992188,-0.23925781,-13.09375,254.21875,57.125
381,1727104357677,-2.0,0.026367188,-0.19824219,68.375,-103.0625,54.15625
382,1727104357694,-1.7207031,-0.6142578,0.17480469,112.21875,200.59375,13.25
383,1727104357727,-1.1630859,0.09863281,1.859375,-127.34375,218.28125,2.9375
384,1727104357786,-0.203125,0.038085938,-0.35351562,-6.125,25.96875,35.78125
385,1727104357822,0.10644531,0.10644531,0.43164062,-46.71875,-4.6875,34.0
386,1727104357878,0.033203125,-0.6386719,-0.10546875,-8.34375,16.375,-13.59375
387,1727104357896,-0.21582031,-0.21679688,0.48828125,-53.5,-83.65625,-41.5
388,1727104357933,-0.99609375,0.4375,-0.13378906,111.71875,-150.5,-36.4375
389,1727104357971,-2.0,-0.86035156,0.18652344,86.6875,-128.21875,-137.8125
390,1727104358010,-1.7587891,0.40234375,0.55371094,-55.625,-44.46875,-19.78125
391,1727104358046,-1.2753906,-0.1015625,0.16308594,20.34375,-32.8125,-6.15625
392,1727104358112,-0.62109375,0.3359375,-0.53808594,34.5,85.03125,-5.4375
393,1727104358144,-0.14453125,0.5234375,-0.26171875,-53.8125,52.75,7.6875
394,1727104358181,0.1484375,-0.040039062,-0.0546875,-20.125,11.9375,42.125
395,1727104358218,-0.3720703,-1.1972656,2.0,68.875,42.5625,26.3125
396,1727104358252,-0.01171875,-0.40820312,-0.71191406,-217.0625,-37.28125,-122.96875
397,1727104358292,-2.0,0.64941406,-0.859375,113.90625,-127.0625,-50.46875
398,1727104358328,-0.89453125,0.7441406,-0.62890625,94.4375,256.3125,54.15625
399,1727104358386,-2.0,-0.10058594,-0.7392578,25.46875,-236.1875,11.90625
400,1727104358425,-1.8701172,-0.63183594,0.021484375,181.71875,313.8125,10.25
401,1727104358466,-1.3710938,-0.2548828,1.5566406,-398.28125,153.71875,32.34375
402,1727104358499,-0.59765625,0.12402344,0.018554688,135.71875,2.71875,35.09375
403,1727104358540,0.06933594,-0.13476562,0.2607422,-75.34375,-0.53125,28.375
404,1727104358593,-0.07324219,-0.5839844,-0.009765625,-113.5625,7.46875,-15.96875
405,1727104358611,-0.14257812,-0.2919922,0.3154297,-33.84375,-64.0,-32.28125
406,1727104358653,-0.55566406,0.3408203,0.43359375,30.0,-140.0625,-81.71875
407,1727104358708,-2.0,-0.9003906,0.6845703,138.40625,-282.09375,-239.0625
408,1727104358749,-1.1679688,0.2529297,0.31054688,-41.46875,3.875,57.25
409,1727104358799,-1.4394531,-0.64160156,0.33007812,-12.5,-15.3125,-24.84375
410,1727104358819,-1.1044922,-0.091796875,-0.390625,230.8125,61.0,1.96875
411,1727104358865,-0.18066406,0.6347656,-0.2919922,51.59375,62.15625,-2.875
412,1727104358911,0.09375,0.36914062,-0.09863281,-7.84375,58.96875,48.15625
413,1727104358932,0.103515625,-0.115234375,0.040039062,-22.5625,63.3125,42.375
414,1727104359006,-0.69140625,-0.85253906,1.3857422,90.25,-40.75,-10.3125
415,1727104359024,-1.2402344,0.043945312,-0.85546875,-218.59375,11.125,-72.3125
416,1727104359059,-1.7929688,0.5126953,0.3359375,112.4375,85.71875,24.1875
417,1727104359117,-2.0,-0.119140625,-0.69628906,-4.90625,-76.28125,48.03125
418,1727104359154,-1.84375,-0.46484375,0.33398438,213.84375,171.03125,31.9375
419,1727104359175,-1.4267578,0.080078125,0.77734375,-161.84375,170.75,13.9375
420,1727104359211,-0.7519531,0.061523438,0.25195312,11.75,59.09375,38.8125
421,1727104359250,-0.13378906,-0.13867188,0.111328125,-101.65625,1.0,15.6875
422,1727104359304,-0.026367188,-0.33496094,0.19238281,-120.875,-50.75,10.6875
423,1727104359340,-0.0068359375,-0.42382812,-0.08886719,36.53125,-34.03125,-29.03125
424,1727104359377,-0.42578125,0.171875,0.48242188,1.78125,-122.96875,-65.40625
425,1727104359418,-2.0,-0.28320312,0.21289062,210.84375,-248.625,-238.53125
426,1727104359455,-1.5039062,0.67089844,-0.14941406,40.0625,-7.0625,112.6875
427,1727104359490,-1.7568359,-0.39257812,0.56933594,-129.3125,7.78125,-31.25
428,1727104359530,-1.0917969,0.029296875,-0.3232422,84.9375,29.3125,12.28125
429,1727104359583,-0.22070312,0.53515625,-0.22558594,25.21875,69.53125,24.96875
430,1727104359624,-0.1015625,0.3955078,-0.13964844,-107.21875,57.53125,7.875
431,1727104359658,-0.13574219,-0.43847656,-0.15527344,198.09375,22.90625,58.0
432,1727104359721,-0.8359375,-1.5507812,1.6914062,-106.0,-50.15625,-67.0625
433,1727104359736,-0.515625,0.2890625,-0.71484375,-116.3125,71.5,-56.09375
434,1727104359771,-2.0,0.88671875,-0.47070312,138.15625,-204.03125,25.46875
435,1727104359830,-1.7558594,0.041992188,-0.28320312,63.6875,44.28125,46.03125
436,1727104359846,-1.9423828,-0.5341797,0.13476562,174.15625,122.75,20.9375
437,1727104359926,-1.3925781,-0.1171875,0.703125,-200.96875,199.125,20.28125
438,1727104359940,-0.85546875,-0.0859375,0.5439453,-5.65625,66.3125,19.0625
439,1727104359977,0.140625,-0.1328125,0.19238281,-101.40625,39.28125,38.34375
440,1727104360036,-0.12011719,-0.5703125,0.068359375,-76.75,-22.5,5.25
441,1727104360052,-0.05078125,-0.26367188,0.07519531,26.8125,-30.4375,-22.9375
442,1727104360089,-1.125,0.16601562,0.19921875,53.375,-146.65625,-54.4375
443,1727104360150,-2.0,-0.16699219,0.38378906,242.21875,-215.96875,-141.40625
444,1727104360183,-1.4960938,0.38476562,-0.03515625,76.1875,-29.625,49.625
445,1727104360243,-1.5644531,-0.23632812,0.109375,-184.65625,-15.34375,-24.46875
446,1727104360262,-1.1005859,0.17382812,-0.3232422,17.40625,13.5625,5.625
447,1727104360299,-0.1953125,0.25097656,-0.20898438,-3.625,51.0,-25.75
448,1727104360333,0.32421875,0.36523438,-0.0390625,-92.6875,66.375,39.6875
449,1727104360371,-0.0107421875,-0.29785156,-0.01953125,49.78125,13.03125,38.65625
450,1727104360410,-0.7949219,-1.2080078,1.7216797,14.125,-151.15625,-49.0625
451,1727104360452,-0.9472656,0.23730469,-0.7089844,-175.875,-5.84375,-76.71875
452,1727104360506,-2.0,0.8154297,0.43652344,76.5,-99.40625,60.8125
453,1727104360540,-2.0,-0.13769531,-0.51464844,159.875,-73.28125,47.0625
454,1727104360581,-1.8183594,-0.7236328,0.22070312,111.65625,266.0625,14.96875
455,1727104360634,-1.1699219,0.00390625,1.0488281,-197.3125,206.25,19.96875
456,1727104360656,-0.578125,0.16503906,0.1796875,81.03125,40.6875,35.53125
457,1727104360692,-0.028320312,-0.19140625,0.15527344,-89.625,-4.5,31.9375
458,1727104360749,-0.103515625,-0.6201172,0.061523438,-94.28125,-0.34375,-13.71875
459,1727104360789,-0.06738281,-0.3408203,0.19628906,30.78125,-60.15625,-37.90625
460,1727104360825,-0.9082031,0.2841797,0.25,115.8125,-163.625,-50.34375
461,1727104360862,-2.0,-0.33691406,0.27734375,252.03125,-221.21875,-135.90625
462,1727104360898,-1.59375,0.22851562,0.34570312,-30.6875,-34.84375,24.59375
463,1727104360955,-1.4384766,-0.35351562,0.12988281,-107.40625,1.4375,-18.125
464,1727104360974,-0.9199219,0.12695312,-0.38867188,124.71875,58.96875,21.125
465,1727104361017,-0.296875,0.4267578,-0.390625,36.15625,56.0625,-12.375
466,1727104361048,0.28027344,0.3076172,0.13769531,-108.5625,46.46875,52.125
467,1727104361102,-0.15917969,-0.19824219,-0.07421875,4.96875,40.125,47.875
468,1727104361158,-0.7392578,-1.1660156,1.6308594,13.09375,-100.0,-49.625
469,1727104361178,-0.9326172,0.20410156,-0.77441406,-222.8125,14.375,-77.9375
470,1727104361218,-2.0,0.54296875,-0.11035156,142.25,-123.4375,47.3125
471,1727104361256,-1.90625,-0.09667969,-0.2109375,89.5625,-45.375,35.96875
472,1727104361309,-1.859375,-0.3779297,-0.18554688,124.09375,144.125,22.84375
473,1727104361331,-1.5185547,-0.2705078,0.2783203,-166.0625,180.875,27.0625
474,1727104361406,-0.80371094,0.2265625,0.6435547,15.21875,34.09375,31.5625
475,1727104361464,-0.0703125,-0.030273438,0.37597656,-130.21875,-5.21875,28.21875
476,1727104361481,0.15820312,-0.80078125,-0.05078125,-88.34375,-12.5,1.59375
477,1727104361496,0.06542969,-0.39453125,-0.07519531,16.9375,-7.71875,-31.84375
478,1727104361535,-0.5488281,0.54003906,0.7324219,31.28125,-180.6875,-28.375
479,1727104361578,-2.0,-0.41601562,0.49023438,173.71875,-245.59375,-167.78125
480,1727104361612,-1.5800781,0.19824219,-0.26953125,41.09375,-23.0,44.5625
481,1727104361667,-1.8652344,-0.3203125,0.61816406,-96.34375,-27.375,-18.78125
482,1727104361702,-0.9238281,0.12207031,-0.34179688,70.9375,13.21875,22.40625
483,1727104361740,-0.3857422,0.42871094,-0.30371094,5.875,34.3125,-22.40625
484,1727104361779,0.17871094,0.24511719,-0.09765625,27.1875,25.40625,39.9375
485,1727104361815,-0.033203125,-0.328125,0.06640625,67.53125,45.6875,30.03125
486,1727104361879,-0.32714844,-0.9326172,0.9980469,-1.0625,-71.75,-54.0625
487,1727104361890,-0.9765625,0.25585938,-0.6191406,-167.28125,33.09375,-32.53125
488,1727104361935,-1.6669922,0.7363281,-0.059570312,105.90625,-40.5625,44.125
489,1727104361964,-2.0,-0.013671875,-0.8857422,-15.59375,-109.53125,14.84375
490,1727104362020,-1.9746094,-0.21972656,-0.24609375,251.125,124.46875,24.78125
491,1727104362080,-1.5263672,-0.34179688,1.2470703,-357.59375,208.21875,17.78125
492,1727104362097,-0.59472656,-0.14160156,0.15625,37.1875,94.375,37.65625
493,1727104362156,-0.026367188,0.055664062,0.31152344,-60.03125,16.0,20.6875
494,1727104362174,-0.27929688,-0.703125,0.16601562,-94.40625,-18.40625,16.5
495,1727104362209,0.025390625,-0.36132812,0.14257812,7.53125,-30.625,-12.0625
496,1727104362246,-0.2734375,0.27148438,0.87402344,22.25,-112.65625,-63.90625
497,1727104362306,-2.0,-0.21191406,-0.5136719,330.21875,-236.125,-215.9375
498,1727104362339,-1.8017578,0.0048828125,0.15917969,-28.34375,31.9375,77.15625
499,1727104362390,-1.6982422,-0.12597656,0.56640625,-169.15625,-22.875,-45.84375
500,1727104362415,-1.0839844,-0.2265625,-0.35351562,134.96875,27.71875,6.25
501,1727104362452,-0.5205078,0.31445312,-0.35253906,126.125,33.40625,9.15625
502,1727104362492,0.055664062,0.43945312,-0.25976562,68.625,59.15625,3.0
503,1727104362530,0.18554688,0.11328125,0.01171875,-34.03125,-1.125,34.5625
504,1727104362584,-0.06933594,-0.30664062,1.0009766,43.1875,-21.53125,28.9375
505,1727104362624,-0.49414062,-0.119140625,-0.4375,-252.21875,-45.15625,-68.53125
506,1727104362665,-2.0,0.3720703,-0.24316406,18.28125,-201.28125,-8.65625
507,1727104362715,-1.5791016,-0.053710938,-0.2529297,3.6875,47.25,18.1875
508,1727104362740,-2.0,-0.16015625,-0.17773438,80.21875,-35.0,26.5
509,1727104362792,-1.5673828,-0.23339844,-0.18261719,54.71875,241.59375,18.75
510,1727104362812,-0.7109375,-0.16992188,1.7753906,-6.09375,211.5625,24.90625
511,1727104362846,-0.52734375,0.15332031,0.2626953,134.90625,-10.21875,7.875
512,1727104362921,-0.16113281,0.2578125,0.5830078,-141.875,-28.53125,26.875
513,1727104362939,0.033203125,-0.89453125,-0.2421875,-58.8125,-14.5625,-22.5625
514,1727104362999,-0.0234375,-0.46289062,0.2919922,-12.78125,-55.8125,-43.15625
515,1727104363018,-1.6162109,0.43164062,-0.044921875,122.78125,-186.5625,-83.0
516,1727104363057,-2.0,0.072265625,0.63378906,92.5625,-101.0,-60.53125
517,1727104363090,-1.7177734,0.30078125,0.4716797,-90.0,-40.75,-22.21875
518,1727104363133,-1.3066406,-0.07910156,0.056640625,-3.6875,-33.5,5.875
519,1727104363168,-0.97753906,0.25683594,-0.2109375,109.34375,59.65625,16.84375
520,1727104363221,-0.07519531,0.35351562,-0.22949219,18.53125,52.28125,18.3125
521,1727104363262,0.22851562,0.18652344,-0.12695312,-60.875,60.21875,47.8125
522,1727104363302,-0.14160156,-0.2763672,0.032226562,-29.5625,30.90625,42.6875
523,1727104363337,-0.44335938,-0.9941406,0.68066406,-54.28125,-38.75,-36.96875
524,1727104363380,-0.8847656,0.032226562,-0.44628906,-103.0625,-21.09375,-50.90625
525,1727104363414,-2.0,0.2578125,2.0,121.1875,56.25,38.9375
526,1727104363453,-1.515625,-0.09375,-0.9736328,-92.6875,-69.875,13.8125
527,1727104363503,-1.953125,-0.25390625,-0.17773438,166.34375,69.53125,38.21875
528,1727104363539,-1.7197266,-0.07714844,2.0,-77.78125,315.6875,45.46875
529,1727104363578,-0.64453125,-0.05078125,0.34179688,63.1875,141.125,27.0625
530,1727104363617,0.05859375,-0.19628906,0.10839844,-130.03125,24.625,10.03125
531,1727104363652,-0.1484375,-0.375,0.5126953,-73.71875,33.15625,-4.75
532,1727104363709,-0.08496094,-0.13378906,0.38476562,-29.9375,-65.90625,-17.6875
533,1727104363733,-0.49902344,-0.0234375,0.04296875,-6.625,-87.75,-51.4375
534,1727104363769,-2.0,-0.2841797,-0.24121094,125.40625,-234.65625,-143.1875
535,1727104363825,-2.0,-0.21289062,-0.24414062,75.9375,-9.5625,-5.65625
536,1727104363860,-1.8994141,0.041992188,0.89746094,-35.0625,-44.53125,-44.0625
537,1727104363919,-1.2724609,0.0703125,-0.072265625,-88.21875,7.34375,-13.65625
538,1727104363934,-0.7861328,-0.12988281,-0.2890625,119.96875,38.84375,19.125
539,1727104363971,-0.12207031,0.3720703,-0.19433594,47.75,48.71875,39.625
540,1727104364031,0.055664062,0.18945312,-0.083984375,94.09375,44.15625,53.71875
541,1727104364046,-0.053710938,-0.08691406,0.11425781,51.0,36.28125,31.0625
542,1727104364123,-0.140625,-0.8339844,1.6425781,-120.53125,39.5625,26.0625
543,1727104364139,-1.5927734,-0.0546875,0.38378906,-142.8125,-151.34375,-69.875
544,1727104364179,-1.6835938,0.26171875,-0.3310547,-51.3125,89.125,30.96875
545,1727104364238,-2.0,-0.34765625,-0.79589844,-17.96875,-193.75,45.3125
546,1727104364253,-1.7978516,-0.328125,-0.091796875,354.21875,222.0625,25.875
547,1727104364290,-1.5683594,0.08300781,1.7275391,-122.90625,333.09375,-4.625
548,1727104364334,-0.71484375,0.20996094,0.11816406,96.40625,82.125,9.59375
549,1727104364366,0.26464844,-0.10644531,0.32128906,-128.34375,11.9375,19.96875
550,1727104364462,-0.19726562,-0.5488281,-0.08984375,-136.8125,-17.0,-20.9375
551,1727104364483,0.040039062,-0.21386719,-0.1640625,26.8125,-2.59375,-29.34375
552,1727104364498,-0.15039062,0.48535156,0.9716797,-62.09375,-166.78125,-17.8125
553,1727104364537,-2.0,-0.055664062,-0.5761719,166.28125,-230.5625,-119.1875
554,1727104364571,-2.0,-0.24609375,0.71777344,-158.78125,100.25,48.15625
555,1727104364609,-1.8232422,-0.23535156,0.3154297,-64.1875,-7.78125,-34.46875
556,1727104364646,-0.9423828,-0.057617188,-0.20019531,52.5,31.875,1.21875
557,1727104364705,-0.38671875,0.69921875,-0.31152344,151.34375,36.09375,38.71875
558,1727104364743,-0.08496094,0.45898438,-0.125,-76.6875,58.625,25.71875
559,1727104364782,-0.1875,-0.36035156,0.06933594,-71.09375,33.53125,48.78125
560,1727104364819,-0.140625,-1.1318359,1.2363281,25.0,-53.75,-39.25
561,1727104364856,-0.087890625,-0.001953125,-0.4716797,-54.25,34.4375,-55.03125
562,1727104364896,-2.0,0.5996094,-0.25097656,75.34375,-370.09375,9.03125
563,1727104364951,-0.9121094,0.09667969,-0.71777344,134.125,55.75,53.65625
564,1727104364965,-2.0,-0.08203125,-0.57128906,-2.125,-48.4375,5.75
565,1727104365042,-1.6572266,-0.15429688,-0.12792969,42.9375,271.8125,40.40625
566,1727104365064,-0.95996094,-0.103515625,0.9863281,-58.15625,4.125,9.90625
567,1727104365098,-0.0048828125,-0.07910156,0.1171875,-187.90625,10.03125,23.25
568,1727104365155,-0.13476562,-0.7470703,0.19042969,-186.1875,-35.5,-12.0625
569,1727104365175,-0.0087890625,-0.4873047,0.029296875,-19.875,-65.09375,-46.6875
570,1727104365213,-0.3955078,0.053710938,0.3466797,84.75,-141.53125,-57.59375
571,1727104365258,-2.0,0.0048828125,-0.33691406,265.15625,-255.03125,-110.59375
572,1727104365400,-2.0,0.12988281,0.23144531,-49.46875,68.5625,54.15625
573,1727104365401,-1.3115234,-0.31933594,0.79003906,-75.34375,-36.96875,-31.25
574,1727104365402,-0.8046875,-0.3095703,-0.3955078,49.28125,58.0,4.46875
575,1727104365442,-0.4140625,0.36132812,-0.4140625,143.40625,30.125,12.40625
576,1727104365466,-0.0859375,0.3544922,-0.17871094,-5.15625,105.6875,37.84375
577,1727104365547,-0.0009765625,-0.018554688,0.056640625,-132.3125,62.09375,24.4375
578,1727104365559,-0.6621094,-0.65722656,2.0,241.71875,40.5625,22.40625
579,1727104365615,-1.0244141,0.17089844,-0.9736328,-170.375,-13.09375,-59.0625
580,1727104365622,-2.0,0.28515625,-0.17382812,62.03125,-168.5625,45.96875
581,1727104365658,-2.0,-0.25976562,-0.22949219,93.84375,-54.0,27.0625
582,1727104365696,-1.8583984,-0.57128906,-0.15429688,226.09375,208.875,4.09375
583,1727104365733,-1.5507812,0.1953125,0.12792969,-146.53125,148.71875,3.65625
584,1727104365773,-0.8076172,0.0859375,0.85839844,-53.625,29.625,23.875
585,1727104365810,0.018554688,-0.29101562,0.08203125,-129.375,12.59375,40.40625
586,1727104365848,-0.0107421875,-0.5722656,0.059570312,-91.78125,-10.09375,2.75
587,1727104365902,-0.026367188,-0.35253906,0.2421875,6.96875,-57.96875,-13.0
588,1727104365967,-0.34375,0.109375,0.12988281,2.96875,-162.15625,-44.375
589,1727104365977,-2.0,-0.23242188,-0.7402344,339.0,-207.9375,-191.65625
590,1727104366045,-1.9443359,-0.13574219,0.24414062,-106.3125,19.8125,27.28125
591,1727104366058,-1.5898438,-0.12988281,0.5566406,3.875,10.53125,-45.09375
592,1727104366093,-1.0429688,-0.0390625,-0.3232422,91.6875,35.0625,14.28125
593,1727104366127,-0.4580078,0.40722656,-0.3828125,38.46875,27.1875,-7.375
594,1727104366184,0.03125,0.4580078,-0.01171875,-52.03125,78.5625,31.75
595,1727104366220,0.18652344,-0.044921875,-0.0107421875,-47.53125,65.875,63.59375
596,1727104366259,-0.50390625,-0.7988281,2.0,200.90625,-83.90625,-26.84375
597,1727104366295,-1.1328125,0.049804688,-0.6982422,-206.53125,16.5,-57.90625
598,1727104366334,-2.0,0.63183594,-0.12402344,119.96875,-128.34375,54.09375
599,1727104366375,-2.0,-0.15722656,-0.3203125,90.78125,-39.15625,45.3125
600,1727104366410,-1.9150391,-0.30273438,0.22167969,190.40625,167.8125,29.1875
601,1727104366446,-1.1533203,0.11328125,0.4658203,-193.59375,226.53125,14.84375
602,1727104366483,-0.6035156,0.107421875,0.21386719,-86.15625,60.15625,29.96875
603,1727104366539,-0.078125,-0.4716797,0.31445312,-104.03125,-11.6875,33.9375
604,1727104366577,-0.115234375,-0.46484375,-0.036132812,-65.59375,28.21875,-2.3125
605,1727104366617,-0.032226562,-0.20410156,0.57910156,-39.65625,-78.21875,-26.3125
606,1727104366653,-0.60253906,0.31152344,0.056640625,190.40625,-141.53125,-54.8125
607,1727104366690,-2.0,-0.43164062,0.35058594,173.65625,-273.53125,-168.625
608,1727104366728,-1.5136719,0.2890625,0.1484375,-39.28125,6.25,34.0625
609,1727104366768,-1.4707031,-0.36816406,0.20800781,-108.0625,-35.1875,-26.90625
610,1727104366825,-0.8935547,0.20214844,-0.375,108.71875,58.125,24.90625
611,1727104366863,-0.049804688,0.43066406,-0.2734375,19.3125,2.84375,8.90625
612,1727104366900,0.29589844,0.203125,-0.17578125,-67.25,61.125,20.53125
613,1727104366938,-0.028320312,-0.10253906,-0.044921875,-57.65625,39.5,21.5625
614,1727104366974,-0.2890625,-0.8408203,0.40234375,-229.03125,-23.0625,-53.28125
615,1727104367010,-2.0,0.5517578,2.0,-86.9375,-209.03125,-41.9375
616,1727104367046,-1.7001953,-0.095703125,-0.51464844,92.4375,80.09375,28.28125
617,1727104367083,-2.0,-0.48828125,-0.34960938,291.46875,-123.5,45.59375
618,1727104367140,-1.6152344,-0.17871094,-0.09082031,37.1875,316.0,-5.53125
619,1727104367181,-0.9511719,0.44726562,2.0,-330.40625,191.625,1.0
620,1727104367219,-0.21582031,-0.057617188,-0.034179688,-109.96875,20.15625,36.9375
621,1727104367256,0.087890625,-0.7626953,0.119140625,-101.96875,1.1875,24.0625
622,1727104367293,0.036132812,-0.49804688,0.09667969,-76.5625,1.0625,-22.5
623,1727104367329,-0.3984375,-0.15136719,0.38867188,59.03125,-57.46875,-70.5
624,1727104367375,-2.0,0.20117188,-0.23339844,260.59375,-189.375,-141.03125
625,1727104367422,-2.0,-0.061523438,0.36621094,32.0625,-54.65625,-25.9375
626,1727104367477,-1.9990234,-0.055664062,0.3076172,-43.625,2.9375,-6.15625
627,1727104367501,-1.1875,-0.18652344,-0.08984375,-51.5625,28.09375,0.375
628,1727104367534,-0.7578125,0.26464844,-0.25585938,129.59375,76.1875,27.59375
629,1727104367578,0.051757812,0.34375,-0.22070312,-41.0625,99.5625,12.40625
630,1727104367612,0.4296875,-0.028320312,-0.09375,-95.5,36.34375,45.96875
631,1727104367654,-0.68652344,-1.0087891,2.0,128.0625,-49.71875,24.0625
632,1727104367687,-0.4423828,-0.037109375,-0.83203125,-230.4375,63.0,-73.78125
633,1727104367740,-2.0,0.6933594,-0.57421875,166.90625,-188.09375,-20.6875
634,1727104367777,-1.859375,0.234375,-0.1953125,24.9375,78.6875,42.96875
635,1727104367818,-2.0,-0.28222656,0.17382812,139.3125,-11.09375,24.90625
636,1727104367853,-1.5214844,-0.2861328,0.030273438,12.84375,235.1875,4.40625
637,1727104367894,-0.9082031,0.20703125,2.0,-314.71875,154.25,15.21875
638,1727104367931,-0.1484375,-0.12695312,-0.2626953,-11.875,1.5625,57.0625
639,1727104367971,0.27734375,-0.5546875,0.08886719,-151.21875,-6.6875,17.28125
640,1727104368022,0.06933594,-0.515625,-0.12597656,21.5625,-1.25,-26.84375
641,1727104368062,-0.46679688,0.203125,1.1728516,-105.625,-166.125,-45.59375
642,1727104368096,-2.0,0.14160156,-0.60546875,287.5,-216.03125,-154.46875
643,1727104368134,-2.0,-0.091796875,-0.0390625,-47.40625,32.875,72.6875
644,1727104368171,-1.7548828,-0.359375,0.76171875,-148.53125,-20.53125,-29.96875
645,1727104368209,-0.90722656,-0.08203125,-0.30566406,93.96875,17.0,21.4375
646,1727104368247,-0.3046875,0.4873047,-0.47558594,98.53125,22.3125,25.71875
647,1727104368289,0.1328125,0.4423828,-0.32617188,-119.96875,106.84375,6.40625
648,1727104368340,0.3486328,-0.111328125,0.23144531,-35.3125,-7.78125,27.40625
649,1727104368378,-0.625,-0.93652344,1.6875,132.28125,-30.375,-4.03125
650,1727104368416,-0.31054688,-0.046875,-0.60253906,-145.3125,-2.0,-76.40625
651,1727104368453,-2.0,0.71191406,-0.265625,116.59375,-344.09375,2.09375
652,1727104368490,-1.8388672,0.061523438,-0.7060547,61.71875,-61.4375,38.78125
653,1727104368547,-2.0,-0.32128906,-0.13964844,265.15625,34.5,2.34375
654,1727104368567,-1.5976562,-0.21289062,0.036132812,-31.78125,271.9375,14.84375
655,1727104368621,-0.64453125,0.3623047,1.5898438,-233.96875,77.34375,17.09375
656,1727104368658,0.030273438,-0.16015625,-0.11621094,-130.40625,-0.21875,42.5625
657,1727104368696,0.037109375,-0.7001953,-0.005859375,-162.5,14.125,2.03125
658,1727104368733,0.033203125,-0.3076172,0.16992188,-11.03125,-29.625,-21.09375
659,1727104368771,-0.31347656,0.34765625,0.73339844,-17.6875,-118.15625,-57.96875
660,1727104368810,-2.0,-0.45507812,0.20898438,185.5,-313.03125,-229.3125
661,1727104368847,-1.5859375,0.49609375,-0.07421875,125.5,66.1875,119.09375
662,1727104368884,-1.8173828,-0.22558594,0.6064453,-85.375,-57.03125,-49.90625
663,1727104368942,-0.9189453,-0.2890625,-0.30859375,3.0625,55.9375,12.40625
664,1727104368996,-0.40820312,0.30859375,-0.4921875,39.40625,58.1875,7.21875
665,1727104369018,0.16894531,0.3017578,-0.061523438,-52.53125,89.5625,14.0625
666,1727104369057,0.09765625,-0.21484375,0.23632812,83.875,5.5625,55.5625
667,1727104369091,-0.39160156,-0.4033203,0.9628906,-63.9375,-36.40625,-24.71875
668,1727104369127,-0.5214844,0.19238281,-0.4404297,-121.5625,25.78125,-40.03125
669,1727104369167,-2.0,0.6044922,-0.41210938,189.21875,-239.96875,69.96875
670,1727104369236,-2.0,0.0087890625,-0.6455078,138.4375,3.9375,39.25
671,1727104369263,-1.8730469,-0.23046875,-0.140625,294.09375,161.71875,9.78125
672,1727104369301,-1.5244141,-0.21484375,0.74121094,-229.59375,217.75,-4.8125
673,1727104369342,-0.89160156,-0.032226562,0.45703125,-120.6875,49.21875,23.09375
674,1727104369383,0.016601562,-0.34570312,0.36523438,-86.28125,-9.125,26.6875
675,1727104369412,0.16796875,-0.51660156,0.1171875,-81.59375,-33.90625,11.0625
676,1727104369447,0.12011719,-0.17089844,-0.1796875,69.53125,37.9375,-15.90625
677,1727104369495,-0.5097656,0.16894531,0.53808594,-57.90625,-127.28125,-41.3125
678,1727104369543,-2.0,-0.15917969,0.52246094,216.625,-244.90625,-203.84375
679,1727104369581,-2.0,0.3779297,-0.25097656,67.90625,7.96875,56.65625
680,1727104369619,-1.6738281,-0.50390625,0.40039062,-141.75,12.59375,8.375
681,1727104369657,-0.92285156,0.20117188,-0.19921875,-38.5625,34.15625,-3.40625
682,1727104369690,-0.42578125,0.5908203,-0.30566406,73.5625,68.75,17.15625
683,1727104369730,0.41210938,0.21289062,-0.22363281,-52.65625,47.375,20.21875
684,1727104369769,0.07324219,-0.33496094,0.017578125,124.78125,38.09375,36.03125
685,1727104369821,-0.4033203,-0.8828125,0.7236328,-140.96875,-49.21875,-38.3125
686,1727104369861,-0.5527344,0.25097656,-0.6591797,-89.21875,40.96875,-45.59375
687,1727104369896,-2.0,0.7480469,-0.047851562,143.8125,-264.8125,116.40625
688,1727104369934,-2.0,0.080078125,-0.38085938,88.71875,-48.75,33.46875
689,1727104369978,-1.9111328,-0.64453125,0.23046875,317.96875,121.46875,-9.75
690,1727104370013,-1.3212891,-0.08496094,-0.0107421875,-151.28125,270.65625,13.375
691,1727104370049,-0.5800781,0.24023438,0.6816406,-77.125,9.125,19.25
692,1727104370086,0.26953125,-0.32128906,0.16992188,-99.09375,8.3125,29.78125
693,1727104370141,0.044921875,-0.48828125,-0.1171875,-61.1875,58.125,-5.4375
694,1727104370178,-0.14453125,-0.041015625,0.24511719,-42.875,-12.1875,-13.90625
695,1727104370216,-0.31835938,0.5097656,0.6269531,0.9375,-96.15625,-25.5
696,1727104370254,-2.0,-0.72753906,-0.17089844,225.5,-345.9375,-276.40625
697,1727104370292,-1.6699219,0.09765625,-0.21679688,-3.21875,111.84375,86.8125
698,1727104370327,-1.5839844,-0.44921875,0.58203125,-64.0,-53.1875,-29.15625
699,1727104370375,-0.79003906,0.11816406,-0.32226562,94.25,63.375,19.90625
700,1727104370423,-0.13378906,0.6425781,-0.6748047,43.375,50.25,-2.375
701,1727104370458,0.3720703,0.10253906,-0.08886719,-107.875,22.90625,10.375
702,1727104370518,0.25097656,-0.34570312,0.42773438,20.03125,-21.46875,56.28125
703,1727104370535,-0.3857422,-0.6142578,-0.26660156,-157.03125,-47.59375,-21.0
704,1727104370571,-0.51464844,0.05859375,-0.42285156,17.90625,-3.03125,-44.78125
705,1727104370609,-2.0,0.82421875,0.21484375,96.875,-392.96875,80.28125
706,1727104370650,-1.9199219,-0.047851562,-0.4326172,62.78125,41.03125,38.8125
707,1727104370683,-1.8251953,-0.453125,-0.06542969,141.5625,193.5,33.9375
708,1727104370739,-1.5410156,-0.21679688,1.1503906,-173.375,226.09375,57.75
709,1727104370777,-0.7089844,0.2265625,0.36328125,73.3125,-42.09375,41.5
710,1727104370815,0.17675781,-0.27539062,-0.14257812,-163.25,-8.28125,50.78125
711,1727104370858,0.171875,-0.7558594,-0.1171875,-42.875,27.125,-12.625
712,1727104370890,-0.078125,-0.22460938,0.020507812,90.40625,12.84375,-25.3125
713,1727104370927,-0.44140625,0.57128906,0.6269531,-90.78125,-196.8125,-35.34375
714,1727104370965,-2.0,-0.49902344,0.47070312,96.53125,-263.28125,-261.40625
715,1727104371003,-1.5957031,0.28125,-0.3251953,-12.0625,52.9375,27.21875
716,1727104371064,-1.4833984,-0.5078125,0.5625,-5.15625,-12.6875,-8.0625
717,1727104371100,-0.9140625,0.33007812,-0.42871094,109.71875,53.0,23.75
718,1727104371140,-0.03515625,0.71972656,-0.3876953,63.1875,-2.46875,16.84375
719,1727104371171,0.3154297,0.107421875,-0.21484375,-106.0,43.40625,4.90625
720,1727104371209,0.17871094,-0.26757812,0.0126953125,-3.9375,-14.5625,23.25
721,1727104371248,-0.5732422,-1.0205078,0.3232422,-233.5,-22.875,-58.53125
722,1727104371284,-0.6201172,0.06640625,-0.7285156,22.25,22.53125,-59.5625
723,1727104371343,-2.0,1.0039062,1.0087891,139.90625,-343.59375,146.6875
724,1727104371380,-1.6396484,0.14746094,-0.38867188,77.53125,-25.96875,38.46875
725,1727104371420,-2.0,-0.5722656,0.11230469,162.8125,155.65625,0.375
726,1727104371453,-1.3242188,-0.25976562,-0.07421875,-93.125,256.375,10.8125
727,1727104371493,-0.32617188,0.33398438,1.0351562,-217.875,-24.5,4.90625
728,1727104371532,0.09082031,-0.18164062,-0.24414062,-137.3125,-10.84375,49.625
729,1727104371569,0.009765625,-0.81152344,-0.0234375,-134.0625,27.65625,4.53125
730,1727104371624,0.08105469,-0.5576172,0.33203125,-9.4375,-32.4375,-38.03125
731,1727104371663,-0.37597656,0.6904297,0.44335938,115.3125,-150.5625,-49.5
732,1727104371705,-2.0,-0.9111328,0.9326172,183.0,-358.3125,-289.46875
733,1727104371740,-1.5039062,0.16308594,-0.04296875,-13.59375,66.71875,67.03125
734,1727104371774,-1.3769531,-0.25585938,0.16503906,-80.46875,-1.5,-3.03125
735,1727104371811,-0.74902344,0.25390625,-0.36132812,161.875,106.40625,38.21875
736,1727104371854,-0.1484375,0.6904297,-0.38476562,85.65625,41.28125,1.78125
737,1727104371886,0.22460938,0.26464844,-0.17578125,-129.1875,31.21875,17.84375
738,1727104371939,0.15429688,-0.265625,0.49023438,-22.75,-37.09375,55.0625
739,1727104371978,-0.375,-1.0224609,0.032226562,-159.09375,-70.53125,-27.875
740,1727104372034,-0.88671875,0.22265625,-1.1015625,-19.75,-19.25,-37.71875
741,1727104372071,-2.0,0.65527344,0.29785156,57.65625,-210.125,89.3125
742,1727104372094,-2.0,-0.25683594,-0.24121094,94.4375,-11.5625,28.6875
743,1727104372134,-1.5927734,-0.23632812,0.1171875,193.125,226.71875,24.84375
744,1727104372168,-1.3613281,0.068359375,0.8857422,-178.0625,229.28125,21.5
745,1727104372207,-0.60839844,0.21875,0.3017578,-59.4375,-45.15625,30.40625
746,1727104372259,0.14550781,-0.5488281,0.059570312,-168.25,-18.09375,40.0
747,1727104372299,0.20898438,-0.63671875,-0.013671875,-56.5625,24.875,-5.71875
748,1727104372333,-0.025390625,-0.30566406,0.25878906,45.625,-60.53125,-48.4375
749,1727104372371,-0.59765625,0.6845703,0.2783203,85.15625,-157.21875,-54.625
750,1727104372408,-2.0,-0.8515625,0.9550781,27.78125,-282.15625,-239.25
751,1727104372449,-1.3720703,-0.0048828125,-0.18261719,13.15625,26.4375,13.125
752,1727104372488,-1.3828125,-0.5332031,0.35253906,-38.3125,-14.25,-11.34375
753,1727104372540,-0.77734375,0.32617188,-0.40234375,204.8125,75.59375,20.53125
754,1727104372581,0.10546875,0.61328125,-0.4140625,52.03125,40.0,-3.15625
755,1727104372614,0.20800781,0.013671875,-0.06542969,-120.875,11.8125,0.9375
756,1727104372654,0.028320312,-0.5644531,0.7998047,11.125,32.75,-1.21875
757,1727104372693,-0.4375,-0.5214844,-0.3330078,-147.3125,57.21875,-49.6875
758,1727104372729,-1.1435547,0.3125,-0.43847656,-50.6875,-66.1875,-34.90625
759,1727104372765,-2.0,0.61621094,0.7626953,-42.21875,381.125,116.09375
760,1727104372802,-2.0,-0.33496094,-0.9394531,30.71875,-197.3125,15.8125
761,1727104372859,-1.7353516,-0.44335938,0.059570312,307.46875,262.28125,31.75
762,1727104372897,-1.5556641,-0.0390625,0.9355469,-310.28125,99.15625,26.375
763,1727104372933,-0.79003906,0.08496094,0.36816406,2.84375,-55.28125,17.15625
764,1727104372972,0.2998047,-0.44921875,-0.05859375,-131.375,-16.75,60.125
765,1727104373010,0.203125,-0.7216797,-0.14746094,-32.3125,-3.21875,-12.5625
766,1727104373046,-0.02734375,-0.1015625,-0.017578125,86.5,16.875,-38.1875
767,1727104373083,-0.33789062,0.58496094,0.8222656,-40.125,-176.1875,-21.0625
768,1727104373143,-2.0,-0.6123047,-0.87402344,199.3125,-290.5,-280.09375
769,1727104373189,-1.4091797,0.025390625,0.055664062,-37.4375,123.8125,72.40625
