,Unnamed: 0,timestamp,accel_x,accel_y,accel_z,gyro_x,gyro_y,gyro_z
0,0,1727277319770,0.14819336,-0.06695557,-0.13287354,-9.21875,-8.953125,-29.4375
1,1,1727277319810,0.23510742,-0.27960205,-0.14678955,11.375,8.640625,-15.6875
2,2,1727277319850,-1.1657715,-2.0,-1.4404907,-123.71875,-37.1875,61.171875
3,3,1727277319890,-0.61376953,-1.6321411,0.92645264,-45.125,79.375,-9.828125
4,4,1727277319930,-0.2319336,-1.3535767,-0.019592285,-3.390625,3.203125,7.828125
5,5,1727277319970,-0.13110352,-0.881897,-0.13116455,18.109375,-42.375,18.359375
6,6,1727277320010,0.09643555,-0.9038696,0.039001465,3.140625,-49.703125,6.203125
7,7,1727277320050,0.026855469,-0.84942627,0.20379639,-6.015625,-3.703125,10.6875
8,8,1727277320090,-0.19897461,-0.66070557,0.01751709,-9.21875,11.125,13.0
9,9,1727277320130,-0.26171875,-0.34674072,-0.03253174,-0.6875,-9.65625,-3.203125
10,10,1727277320170,-0.16015625,-0.18902588,-0.17755127,-11.40625,-24.65625,-15.796875
11,11,1727277320210,-0.10424805,-0.2300415,-0.11798096,-6.4375,-13.4375,-15.703125
12,12,1727277320250,0.021484375,-1.1851196,-0.0010375977,5.9375,-6.390625,2.25
13,13,1727277320290,0.08691406,-2.0,1.3439331,21.875,-2.203125,31.96875
14,14,1727277320330,-0.4465332,-1.4421997,0.20135498,-31.765625,10.71875,-3.859375
15,15,1727277320370,-0.21191406,-1.0037231,-0.20635986,0.0,-27.71875,-21.125
16,16,1727277320410,-0.057617188,-0.79107666,0.0018920898,-19.734375,-17.6875,-33.890625
17,17,1727277320450,0.015380859,-1.0427856,0.39422607,-6.25,-13.03125,-19.796875
18,18,1727277320490,-0.1821289,-0.78570557,0.277771,3.9375,5.59375,5.09375
19,19,1727277320530,-0.06616211,-0.3189087,0.058044434,17.359375,-9.265625,17.703125
20,20,1727277320570,-0.24609375,-0.02545166,-0.0015258789,-7.328125,9.84375,4.703125
21,21,1727277320610,0.0078125,0.17327881,-0.1494751,-24.125,5.765625,-9.734375
22,22,1727277320650,-0.1352539,-0.39996338,-0.38824463,11.046875,-4.234375,-12.765625
23,23,1727277320690,-0.27661133,-2.0,0.9801636,153.26562,-213.89062,76.53125
24,24,1727277320730,-0.32055664,-1.7566528,0.0289917,-34.640625,83.390625,-29.28125
25,25,1727277320770,-0.41967773,-1.2229614,-0.105041504,-2.34375,-5.984375,31.671875
26,26,1727277320810,-0.27563477,-0.63116455,-0.19610596,10.484375,-16.484375,28.03125
27,27,1727277320850,-0.03149414,-0.77056885,-0.055480957,-0.515625,-22.046875,7.265625
28,28,1727277320890,-0.010986328,-0.91412354,0.24066162,15.15625,-0.984375,11.234375
29,29,1727277320930,0.079833984,-0.6917114,0.05267334,9.078125,2.09375,13.390625
30,30,1727277320970,0.0031738281,-0.32647705,0.04949951,-14.0625,-15.546875,2.03125
31,31,1727277321010,0.009765625,-0.15240479,-0.04058838,-31.8125,-30.609375,-8.890625
32,32,1727277321050,-0.21655273,-0.15826416,-0.34088135,-10.125,-28.234375,-10.3125
33,33,1727277321090,-0.37841797,-1.9155884,-0.6592407,-39.609375,-47.53125,-1.0
34,34,1727277321130,0.35839844,-2.0,1.6959839,37.46875,57.015625,-6.46875
35,35,1727277321170,-0.028076172,-1.7393188,-0.2835083,-33.9375,24.375,-4.953125
36,36,1727277321210,-0.54589844,-0.9290161,-0.10723877,10.828125,-24.53125,-4.0
37,37,1727277321250,-0.23779297,-0.8699341,-0.0005493164,-21.28125,-18.953125,-25.390625
38,38,1727277321290,0.009277344,-0.9800415,0.42108154,-12.859375,-22.3125,-18.734375
39,39,1727277321330,-0.08081055,-0.788147,0.31903076,6.28125,27.546875,-2.84375
40,40,1727277321370,-0.16748047,-0.45806885,0.07904053,1.90625,33.84375,1.625
41,41,1727277321410,-0.13842773,-0.25445557,-0.003967285,2.109375,17.765625,-6.421875
42,42,1727277321450,-0.109375,-0.1831665,0.0033569336,0.21875,15.890625,-22.109375
43,43,1727277321490,-0.036132812,-0.3411255,-0.2078247,-10.96875,-9.9375,-19.625
44,44,1727277321530,0.28125,-2.0,-0.71099854,-77.3125,-37.1875,12.625
45,45,1727277321570,-0.64282227,-1.3699341,1.439148,-27.875,100.203125,29.53125
46,46,1727277321610,-0.67333984,-1.6065063,-0.5442505,51.34375,42.875,-22.265625
47,47,1727277321650,-0.5041504,-0.8508911,-0.00982666,7.421875,-41.203125,3.234375
48,48,1727277321690,-0.032958984,-0.96466064,0.109313965,-21.5625,-35.296875,13.359375
49,49,1727277321730,0.16821289,-1.0632935,0.18939209,7.234375,9.0625,19.125
50,50,1727277321770,-0.091308594,-0.61553955,0.04901123,27.875,67.0,17.484375
51,51,1727277321810,-0.26342773,-0.51226807,0.055603027,6.09375,37.34375,5.09375
52,52,1727277321850,-0.26611328,-0.50177,-0.0154418945,-23.921875,7.40625,-4.796875
53,53,1727277321890,-0.2121582,-0.6589966,-0.19439697,-27.421875,9.140625,-12.421875
54,54,1727277321930,-0.16430664,-0.8518677,-0.37799072,-13.75,1.40625,-12.609375
55,55,1727277321970,-0.030029297,-1.3381958,-0.024963379,5.859375,-9.71875,-18.296875
56,56,1727277322010,0.22485352,-1.9570923,0.86883545,46.6875,104.1875,-10.40625
57,57,1727277322050,-0.43774414,-1.3848267,-0.11407471,-15.734375,78.015625,1.765625
58,58,1727277322090,-0.49951172,-0.97906494,-0.034729004,-9.15625,62.6875,-0.9375
59,59,1727277322130,-0.35986328,-0.92559814,-0.13043213,3.4375,56.46875,-32.765625
60,60,1727277322170,-0.16040039,-0.9780884,-0.02520752,5.6875,45.234375,-33.171875
61,61,1727277322210,-0.20214844,-0.8899536,0.043395996,16.28125,79.9375,-18.328125
62,62,1727277322250,-0.24389648,-0.7022095,0.027526855,23.125,106.828125,-5.359375
63,63,1727277322290,-0.18603516,-0.44708252,-0.2156372,23.375,107.875,-6.453125
64,64,1727277322330,-0.06958008,-0.2666626,-0.300354,26.171875,79.953125,-17.515625
65,65,1727277322370,0.016845703,-0.47418213,-0.36212158,21.59375,75.59375,-8.296875
66,66,1727277322410,-0.20092773,-1.2288208,-0.7268677,3.640625,88.265625,24.90625
67,67,1727277322450,-0.008544922,-2.0,1.3446655,132.625,23.734375,56.65625
68,68,1727277322490,-0.076660156,-1.1709595,-0.15679932,-39.0625,124.171875,-22.421875
69,69,1727277322530,-0.54296875,-1.1792603,-0.24835205,2.0625,68.546875,-1.65625
70,70,1727277322570,-0.49194336,-0.87701416,-0.11602783,10.828125,40.65625,1.265625
71,71,1727277322610,-0.34985352,-0.9209595,-0.21734619,-5.59375,65.015625,-8.1875
72,72,1727277322650,-0.111328125,-0.8386841,-0.2822876,2.125,75.296875,-7.46875
73,73,1727277322690,-0.1472168,-0.6865845,-0.24029541,13.71875,66.4375,-5.234375
74,74,1727277322730,-0.2175293,-0.6609497,-0.21417236,15.921875,64.703125,-4.953125
75,75,1727277322770,-0.18798828,-0.7036743,-0.20831299,-4.390625,58.625,-8.5
76,76,1727277322810,-0.07397461,-0.7090454,-0.30010986,-16.671875,60.296875,-0.234375
77,77,1727277322850,0.041015625,-0.86846924,-0.085754395,13.28125,101.875,-0.59375
78,78,1727277322890,0.44091797,-2.0,0.3451538,21.0625,48.90625,-8.53125
79,79,1727277322930,-0.09692383,-1.7666626,0.27874756,-7.9375,74.5625,-0.578125
80,80,1727277322970,-0.44433594,-1.2595825,-0.027160645,-30.1875,56.578125,-10.234375
81,81,1727277323010,-0.2939453,-0.8670044,-0.07867432,-17.078125,48.546875,-15.890625
82,82,1727277323050,-0.14013672,-0.7024536,-0.007385254,0.765625,31.578125,-13.9375
83,83,1727277323090,-0.1315918,-0.72784424,0.022155762,11.625,50.4375,-7.8125
84,84,1727277323130,-0.11279297,-0.6538696,0.070495605,13.265625,51.40625,-3.578125
85,85,1727277323170,-0.08251953,-0.5442505,0.07196045,6.390625,40.734375,-6.9375
86,86,1727277323210,0.024414062,-0.5076294,0.137146,-1.796875,29.875,-11.265625
87,87,1727277323250,0.052246094,-0.5864868,0.08099365,-4.3125,38.390625,-18.75
88,88,1727277323290,-0.07861328,-0.78790283,-0.25323486,-2.9375,21.921875,-16.40625
89,89,1727277323330,-0.4399414,-1.442688,-0.21368408,-11.171875,-3.71875,1.109375
90,90,1727277323370,-0.44458008,-1.6306763,0.35882568,31.40625,14.65625,16.140625
91,91,1727277323410,-0.46289062,-1.9380493,0.17156982,35.328125,60.734375,-2.296875
92,92,1727277323450,-0.051757812,-1.4507446,0.014099121,10.0,1.375,20.515625
93,93,1727277323490,-0.25073242,-1.1414185,0.08123779,-2.609375,33.546875,26.234375
94,94,1727277323530,-0.08081055,-0.68756104,-0.09136963,9.078125,37.171875,15.9375
95,95,1727277323570,-0.03540039,-0.38775635,-0.1741333,14.5,24.65625,2.421875
96,96,1727277323610,-0.052978516,-0.49395752,0.016784668,-2.015625,20.109375,4.65625
97,97,1727277323650,0.030029297,-0.46246338,-0.05328369,-21.609375,1.015625,0.671875
98,98,1727277323690,-0.060058594,-0.38067627,-0.0635376,-13.0,-4.171875,-7.125
99,99,1727277323730,-0.029296875,-0.52227783,-0.14239502,-1.15625,-10.234375,-10.9375
100,100,1727277323770,-0.043945312,-0.7490845,-0.19146729,15.84375,-18.8125,-3.171875
101,101,1727277323810,0.29052734,-2.0,0.8912964,34.6875,-51.03125,5.5
102,102,1727277323850,-0.46142578,-1.8831177,0.14178467,-42.234375,52.21875,-0.828125
103,103,1727277323890,-0.22192383,-1.3154907,-0.17462158,-9.828125,-11.890625,-20.3125
104,104,1727277323930,-0.053955078,-1.0576782,0.039489746,-16.015625,-31.640625,-38.796875
105,105,1727277323970,-0.123046875,-0.8855591,0.34466553,-3.578125,-25.171875,-15.515625
106,106,1727277324010,-0.28466797,-0.7070923,0.12249756,-4.3125,11.953125,7.015625
107,107,1727277324050,-0.21459961,-0.43048096,-0.042541504,-8.515625,28.359375,3.328125
108,108,1727277324090,-0.106933594,-0.11016846,-0.047668457,-10.21875,12.28125,-10.859375
109,109,1727277324130,0.056152344,0.05706787,-0.027648926,12.34375,6.796875,-15.515625
110,110,1727277324170,0.15258789,-0.15118408,-0.4902954,23.234375,-5.8125,-4.765625
111,111,1727277324210,-0.1875,-1.397522,-0.4817505,-7.140625,-35.859375,18.78125
112,112,1727277324250,-0.87060547,-2.0,1.999939,105.859375,60.609375,41.953125
113,113,1727277324290,-0.40820312,-2.0,-0.34332275,37.46875,46.828125,4.3125
114,114,1727277324330,-0.2019043,-1.010315,-0.07598877,10.734375,-5.671875,5.421875
115,115,1727277324370,-0.13745117,-0.85601807,-0.046447754,-10.59375,-17.71875,13.28125
116,116,1727277324410,0.099121094,-0.7180786,-0.121398926,-11.703125,3.515625,14.78125
117,117,1727277324450,-0.07495117,-0.75372314,-0.032043457,10.3125,28.25,7.890625
118,118,1727277324490,-0.052246094,-0.7161255,-0.0134887695,-16.84375,-4.609375,1.25
119,119,1727277324530,-0.023925781,-0.21417236,0.010192871,-29.359375,-20.328125,-2.609375
120,120,1727277324570,0.03149414,-0.0064086914,-0.10211182,-24.0,-18.1875,-15.890625
121,121,1727277324610,-0.006591797,0.06439209,-0.3118286,20.234375,-28.328125,-15.0
122,122,1727277324650,0.8244629,-2.0,-1.0806274,-68.78125,-38.8125,-27.453125
123,123,1727277324690,-0.3779297,-1.6409302,0.8973999,-67.828125,83.640625,-12.875
124,124,1727277324730,-0.27197266,-1.4505005,-0.41412354,-9.640625,-9.34375,-9.421875
125,125,1727277324770,-0.2836914,-0.8501587,-0.16973877,-3.890625,-37.375,-23.65625
126,126,1727277324810,-0.14282227,-0.9077759,0.36663818,-7.59375,-39.984375,-17.0
127,127,1727277324850,-0.43481445,-1.2073364,0.5336304,-11.375,22.890625,-14.265625
128,128,1727277324890,-0.35083008,-0.75738525,0.018005371,1.5625,45.3125,-14.09375
129,129,1727277324930,-0.14404297,-0.22369385,-0.06768799,-2.28125,6.484375,-17.71875
130,130,1727277324970,0.13183594,0.12567139,-0.12188721,6.828125,-6.171875,-16.09375
131,131,1727277325010,0.25170898,0.026306152,-0.19659424,-12.546875,-11.9375,-9.71875
132,132,1727277325050,0.06225586,-0.3953247,-0.55352783,-4.578125,1.3125,17.640625
133,133,1727277325090,-1.0808105,-2.0,-1.1931763,-126.375,-35.140625,62.671875
134,134,1727277325130,-0.37695312,-1.4180298,0.62713623,-7.0625,108.65625,-3.90625
135,135,1727277325170,-0.5305176,-1.3184204,-0.2144165,18.84375,14.71875,11.28125
136,136,1727277325210,-0.28295898,-1.0447388,-0.08843994,-1.28125,-28.203125,20.625
137,137,1727277325250,0.041992188,-1.2385864,0.043151855,-21.28125,-13.0,5.078125
138,138,1727277325290,0.07421875,-0.8296509,0.11663818,22.09375,37.578125,11.484375
139,139,1727277325330,-0.03930664,-0.75616455,0.0680542,0.484375,-1.125,4.734375
140,140,1727277325370,-0.08520508,-0.5786743,-0.03277588,-26.6875,-17.21875,-3.046875
141,141,1727277325410,-0.08300781,-0.29864502,-0.1404419,-25.09375,-14.4375,-1.734375
142,142,1727277325450,0.014892578,-0.14093018,-0.27471924,-19.6875,-15.3125,-3.1875
143,143,1727277325490,-0.057861328,-0.19732666,-0.06085205,4.3125,-7.796875,-0.703125
144,144,1727277325530,0.46606445,-1.4754028,0.07757568,25.125,6.109375,-4.1875
145,145,1727277325570,-0.30859375,-1.9053345,1.1652222,16.171875,26.71875,34.015625
146,146,1727277325610,-0.35351562,-1.4453735,-0.09674072,-12.609375,-14.359375,-1.65625
147,147,1727277325650,-0.09643555,-1.1912231,-0.1326294,-6.296875,-44.171875,-25.53125
148,148,1727277325690,-0.18310547,-0.99786377,0.23480225,-11.875,-11.328125,-21.875
149,149,1727277325730,-0.34350586,-1.0100708,0.2921753,1.828125,-7.765625,0.25
150,150,1727277325770,-0.32714844,-0.8779907,0.26971436,-12.046875,33.5,-10.171875
151,151,1727277325810,-0.13256836,-0.41656494,0.10003662,0.625,23.203125,-14.984375
152,152,1727277325850,-0.009033203,-0.18096924,-0.028381348,6.46875,-1.609375,-18.671875
153,153,1727277325890,0.07397461,-0.08306885,-0.12701416,6.703125,-10.625,-20.796875
154,154,1727277325930,0.12963867,-0.206604,-0.52056885,0.140625,6.734375,-5.265625
155,155,1727277325970,-0.26953125,-1.5628052,-0.20050049,-61.453125,23.75,37.1875
156,156,1727277326010,-0.6977539,-1.8672485,1.59906,70.859375,38.40625,55.796875
157,157,1727277326050,-0.09350586,-1.4119263,-0.108947754,7.390625,48.765625,-11.609375
158,158,1727277326090,-0.59399414,-1.104065,-0.020080566,-9.46875,1.9375,-0.296875
159,159,1727277326130,-0.29125977,-1.1672974,0.15447998,-12.453125,-13.65625,4.703125
160,160,1727277326170,-0.028320312,-1.0745239,-0.0064086914,14.53125,23.53125,8.78125
161,161,1727277326210,0.015625,-0.6201782,0.06121826,22.390625,44.015625,12.109375
162,162,1727277326250,-0.12646484,-0.5755005,0.038757324,-6.75,19.9375,-1.078125
163,163,1727277326290,-0.18774414,-0.57354736,-0.09527588,-28.359375,9.8125,-15.046875
164,164,1727277326330,-0.19555664,-0.5095825,-0.13287354,-24.046875,15.640625,-13.6875
165,165,1727277326370,-0.10839844,-0.4492798,-0.20465088,-15.0625,6.78125,-7.875
166,166,1727277326410,-0.092285156,-0.677063,-0.14630127,19.34375,2.4375,-1.890625
167,167,1727277326450,0.8552246,-2.0,0.41253662,31.390625,30.34375,-16.40625
168,168,1727277326490,-0.19677734,-1.8223267,0.48114014,-30.1875,97.375,3.390625
169,169,1727277326530,-0.876709,-1.1026001,-0.3887329,-12.890625,14.90625,4.84375
170,170,1727277326570,-0.61938477,-0.90093994,-0.19073486,1.015625,49.40625,-32.71875
171,171,1727277326610,-0.09277344,-0.97857666,-0.13531494,4.171875,61.671875,-40.453125
172,172,1727277326650,-0.060791016,-1.0435181,0.13861084,15.171875,75.53125,-24.375
173,173,1727277326690,-0.14794922,-0.73760986,-0.008605957,11.21875,103.921875,-12.59375
174,174,1727277326730,-0.091308594,-0.37677002,-0.22320557,10.625,79.6875,-19.984375
175,175,1727277326770,0.0021972656,-0.28546143,-0.15045166,19.796875,18.015625,-29.90625
176,176,1727277326810,-0.052246094,-0.39361572,0.003112793,36.953125,70.65625,-38.890625
177,177,1727277326850,-0.2121582,-0.57598877,-0.45098877,32.796875,73.765625,-13.359375
178,178,1727277326890,-0.23095703,-1.1697388,-0.4072876,4.46875,77.453125,3.890625
179,179,1727277326930,0.005859375,-2.0,-0.019592285,9.078125,16.421875,32.671875
180,180,1727277326970,-0.24975586,-1.4837036,0.30340576,11.5625,85.21875,5.40625
181,181,1727277327010,-0.7336426,-1.2698364,-0.2456665,0.171875,66.65625,4.296875
182,182,1727277327050,-1.0095215,-1.112854,-0.21905518,12.359375,42.578125,15.546875
183,183,1727277327090,-0.6621094,-0.89263916,-0.41461182,6.46875,46.65625,-13.984375
184,184,1727277327130,-0.24316406,-0.9890747,-0.2131958,-2.609375,59.484375,-16.265625
185,185,1727277327170,-0.118896484,-0.7505493,-0.33746338,-1.75,85.53125,-4.765625
186,186,1727277327210,-0.07421875,-0.40777588,-0.34332275,18.765625,93.640625,-5.640625
187,187,1727277327250,-0.119384766,-0.33013916,-0.24395752,25.4375,80.203125,-11.703125
188,188,1727277327290,-0.09741211,-0.43414307,-0.15362549,8.59375,50.203125,-13.515625
189,189,1727277327330,-0.004638672,-0.67681885,-0.017150879,8.3125,77.953125,-0.859375
190,190,1727277327370,0.15795898,-1.0701294,-0.0025024414,11.171875,82.90625,6.9375
191,191,1727277327410,-0.10839844,-1.8897095,0.3859253,32.21875,79.03125,14.65625
192,192,1727277327450,-0.25878906,-1.8394165,0.42547607,12.359375,111.171875,7.4375
193,193,1727277327490,-0.28759766,-1.5115356,0.13739014,-17.203125,66.171875,-17.71875
194,194,1727277327530,-0.047607422,-1.2349243,0.13641357,1.890625,12.921875,-2.828125
195,195,1727277327570,0.0061035156,-1.1157837,0.19696045,11.953125,-5.984375,9.4375
196,196,1727277327610,-0.21899414,-0.8855591,0.2843628,3.953125,46.359375,7.28125
197,197,1727277327650,-0.38745117,-0.69366455,0.16448975,-2.28125,58.0625,-0.03125
198,198,1727277327690,-0.32543945,-0.40020752,-0.10455322,1.9375,33.5625,-11.015625
199,199,1727277327730,-0.2043457,-0.2131958,-0.06329346,20.125,23.609375,-18.6875
200,200,1727277327770,-0.025146484,-0.15362549,-0.32208252,15.4375,46.71875,-19.234375
201,201,1727277327810,0.07739258,-0.34527588,-0.4229126,8.15625,33.328125,-9.015625
202,202,1727277327850,-0.12597656,-1.7373657,-0.5767212,-0.59375,65.546875,-6.59375
203,203,1727277327890,-0.5422363,-2.0,1.333435,48.484375,111.359375,40.859375
204,204,1727277327930,-0.3083496,-1.362854,-0.2781372,6.859375,38.90625,0.828125
205,205,1727277327970,-0.16748047,-1.159729,-0.12628174,-5.546875,0.484375,12.671875
206,206,1727277328010,-0.12109375,-1.1409302,0.015319824,-2.71875,8.421875,14.953125
207,207,1727277328050,-0.17822266,-0.98394775,-0.02935791,18.28125,31.5,20.140625
208,208,1727277328090,-0.1484375,-0.74224854,-0.08404541,8.640625,30.421875,11.671875
209,209,1727277328130,-0.091308594,-0.628479,0.02923584,-20.90625,9.59375,1.796875
210,210,1727277328170,-0.12060547,-0.45977783,-0.06011963,-28.875,1.671875,1.0625
211,211,1727277328210,-0.030029297,-0.42999268,-0.19805908,-21.65625,-14.1875,12.65625
212,212,1727277328250,0.08691406,-0.30523682,-0.18487549,-19.09375,-26.359375,10.921875
213,213,1727277328290,0.28857422,-0.60601807,-0.031555176,12.015625,25.328125,-6.75
214,214,1727277328330,0.7492676,-2.0,-0.13458252,0.28125,-3.765625,-40.296875
215,215,1727277328370,-0.3815918,-1.666565,0.34002686,-1.25,21.9375,-1.375
216,216,1727277328410,-0.09326172,-1.2815552,-0.10821533,-31.25,-14.0,-16.625
217,217,1727277328450,0.067871094,-1.1777954,0.08831787,-7.625,-32.09375,-18.234375
218,218,1727277328490,-0.08862305,-1.0982056,0.21624756,2.40625,-30.53125,-4.78125
219,219,1727277328530,-0.32739258,-0.9053345,0.1720581,-14.875,4.0,-8.65625
220,220,1727277328570,-0.37109375,-0.60357666,0.06854248,-12.40625,8.734375,-14.4375
221,221,1727277328610,-0.15991211,-0.31500244,0.042907715,-3.375,-7.765625,-13.859375
222,222,1727277328650,0.0390625,-0.190979,0.0680542,3.109375,-19.359375,-15.5625
223,223,1727277328690,0.09057617,-0.23150635,0.077819824,3.96875,-12.296875,-11.65625
224,224,1727277328730,0.0024414062,-0.41046143,-0.4282837,-8.3125,-10.984375,-2.03125
225,225,1727277328770,0.0703125,-1.2019653,-0.54693604,-31.3125,-58.34375,7.59375
226,226,1727277328810,-0.89819336,-2.0,1.6547241,127.484375,42.71875,39.046875
227,227,1727277328850,-0.6672363,-1.3999634,0.3156128,-9.6875,92.90625,-6.75
228,228,1727277328890,-0.20532227,-1.0325317,-0.2468872,35.8125,-10.828125,14.703125
229,229,1727277328930,-0.1809082,-1.0237427,0.032165527,-14.671875,-43.125,25.9375
230,230,1727277328970,0.018798828,-1.3140259,0.38397217,-20.421875,4.21875,10.09375
231,231,1727277329010,-0.020751953,-0.9331665,0.07659912,21.96875,43.125,19.875
232,232,1727277329050,-0.057128906,-0.6531372,0.040222168,5.734375,1.65625,12.796875
233,233,1727277329090,-0.09350586,-0.5274048,0.01361084,-18.28125,-21.46875,-7.640625
234,234,1727277329130,-0.16870117,-0.35650635,-0.11895752,-26.609375,-5.921875,-19.578125
235,235,1727277329170,-0.16015625,-0.31451416,-0.24542236,-14.328125,-4.34375,-15.671875
236,236,1727277329210,-0.04711914,-0.4151001,-0.23345947,14.921875,-8.90625,-9.03125
237,237,1727277329250,0.5683594,-1.5073853,0.34832764,-5.484375,23.09375,-20.859375
238,238,1727277329290,0.064941406,-2.0,0.6925659,20.828125,11.265625,14.03125
239,239,1727277329330,-0.4958496,-1.4570923,-0.101867676,-18.875,3.265625,-0.921875
240,240,1727277329370,0.0034179688,-1.1882935,-0.0134887695,-15.828125,-22.703125,-19.796875
241,241,1727277329410,0.05126953,-1.0496216,0.20819092,-3.453125,-21.96875,-20.90625
242,242,1727277329450,-0.23144531,-0.97320557,0.3324585,12.171875,-24.421875,-5.546875
243,243,1727277329490,-0.41455078,-0.78570557,0.25457764,-10.484375,4.6875,1.515625
244,244,1727277329530,-0.21069336,-0.5647583,0.062927246,-15.375,13.75,-7.90625
245,245,1727277329570,-0.10986328,-0.32891846,0.10638428,4.46875,-4.859375,-14.796875
246,246,1727277329610,0.041992188,-0.29400635,0.15106201,6.171875,-14.625,-18.9375
247,247,1727277329650,-0.033935547,-0.5960083,0.0119018555,4.21875,-15.546875,-16.296875
248,248,1727277329690,-0.08691406,-1.6514282,-0.74298096,-31.90625,-41.125,5.609375
249,249,1727277329730,0.4404297,-1.5640259,0.46380615,24.390625,15.875,49.46875
250,250,1727277329770,-0.6269531,-0.9529419,0.20281982,-18.21875,77.453125,-10.828125
251,251,1727277329810,-0.6203613,-1.3648071,0.057556152,41.359375,4.25,8.078125
252,252,1727277329850,-0.27441406,-0.8430786,-0.055725098,-1.640625,-30.515625,4.265625
253,253,1727277329890,-0.296875,-0.63946533,0.1383667,-15.5625,-8.359375,-2.203125
254,254,1727277329930,0.080566406,-0.69000244,0.018981934,-5.03125,21.25,2.609375
255,255,1727277329970,0.106933594,-0.50860596,-0.0134887695,14.859375,5.84375,12.796875
256,256,1727277330010,-0.014404297,-0.5786743,0.1083374,7.46875,4.546875,12.21875
257,257,1727277330050,-0.21435547,-0.8135376,-0.03375244,-6.59375,-11.28125,9.578125
258,258,1727277330090,-0.7062988,-1.4856567,-0.0335083,-17.109375,-16.171875,-6.328125
259,259,1727277330130,-0.5554199,-1.1653442,0.24163818,-25.78125,1.53125,2.578125
260,260,1727277330170,-0.2644043,-1.2041626,0.23944092,-11.875,34.703125,-4.859375
261,261,1727277330210,-0.044189453,-1.1392212,-0.2942505,-8.15625,11.765625,-13.765625
262,262,1727277330250,0.18603516,-0.7839966,-0.14312744,-12.296875,-1.953125,-14.859375
263,263,1727277330290,0.42358398,-1.2512817,0.32635498,-0.015625,45.125,-23.125
264,264,1727277330330,-0.30908203,-1.59552,0.116882324,1.953125,67.890625,-15.40625
265,265,1727277330370,-0.5048828,-0.95880127,0.06488037,-13.046875,52.21875,-6.421875
266,266,1727277330410,-0.12451172,-0.8862915,0.06976318,-9.015625,46.0,-22.8125
267,267,1727277330450,-0.24121094,-0.8057251,0.10394287,8.5,59.59375,-18.96875
268,268,1727277330490,-0.1784668,-0.63897705,-0.1338501,4.96875,65.5,-11.375
269,269,1727277330530,-0.09448242,-0.6231079,-0.038635254,11.0,78.796875,-14.171875
270,270,1727277330570,-0.12451172,-0.704895,0.0018920898,15.765625,98.796875,-20.875
271,271,1727277330610,-0.17285156,-0.7000122,-0.22369385,24.859375,94.359375,-18.84375
272,272,1727277330650,-0.115478516,-0.6055298,-0.16412354,28.234375,99.921875,-10.59375
273,273,1727277330690,-0.0061035156,-0.6716919,-0.42095947,25.375,105.1875,-12.421875
274,274,1727277330730,0.0012207031,-0.9187622,-0.32061768,22.703125,100.265625,0.875
275,275,1727277330770,-0.15161133,-1.736145,-0.17047119,16.34375,88.421875,31.390625
276,276,1727277330810,0.0871582,-1.7437134,0.27972412,22.03125,61.609375,-0.015625
277,277,1727277330850,-0.41357422,-1.4031372,-0.07501221,-5.703125,69.796875,-15.625
278,278,1727277330890,-0.4580078,-0.9829712,-0.14776611,9.453125,74.3125,1.0
279,279,1727277330930,-0.38012695,-1.0027466,-0.23565674,-2.28125,64.71875,-3.8125
280,280,1727277330970,-0.3803711,-1.0791626,-0.045715332,-14.046875,61.484375,-12.234375
281,281,1727277331010,-0.32226562,-0.84381104,-0.21734619,-3.84375,80.5625,-12.578125
282,282,1727277331050,-0.32861328,-0.59698486,-0.27838135,7.25,77.09375,-10.25
283,283,1727277331090,-0.171875,-0.4668579,-0.35186768,1.1875,62.328125,-15.75
284,284,1727277331130,-0.119384766,-0.4282837,-0.20098877,3.921875,73.921875,-24.765625
285,285,1727277331170,-0.12475586,-0.5964966,-0.3250122,20.046875,73.515625,-17.359375
286,286,1727277331210,0.06982422,-1.2608032,-0.14215088,43.5,84.90625,-9.203125
287,287,1727277331250,0.38452148,-2.0,0.37860107,26.328125,88.921875,-4.34375
288,288,1727277331290,0.15039062,-1.3777466,0.26116943,-1.328125,98.671875,-1.65625
289,289,1727277331330,-0.30541992,-1.3484497,0.053649902,-0.4375,48.21875,8.65625
290,290,1727277331370,-0.03564453,-1.1651001,0.10272217,-8.078125,18.453125,10.234375
291,291,1727277331410,0.038330078,-1.114563,0.21209717,-10.9375,22.03125,-4.140625
292,292,1727277331450,-0.24414062,-0.92755127,0.22039795,2.734375,44.09375,-11.078125
293,293,1727277331490,-0.42260742,-0.62677,0.054382324,-4.171875,41.859375,-11.140625
294,294,1727277331530,-0.19335938,-0.3123169,-0.0881958,-8.359375,27.78125,-25.109375
295,295,1727277331570,0.036132812,-0.1897583,-0.024475098,9.734375,16.046875,-28.359375
296,296,1727277331610,0.20166016,-0.2341919,-0.23687744,29.609375,25.921875,-24.328125
297,297,1727277331650,0.16674805,-0.5515747,-0.34918213,2.390625,8.21875,9.75
298,298,1727277331690,-0.27368164,-1.9614868,-0.4854126,-38.5,50.9375,12.546875
299,299,1727277331730,-1.3059082,-1.8113403,1.5778198,78.640625,65.625,-15.796875
300,300,1727277331770,-0.22436523,-1.0559692,-0.00982666,37.453125,40.6875,-5.484375
301,301,1727277331810,-0.4033203,-1.1536255,0.0018920898,10.203125,-41.203125,35.765625
302,302,1727277331850,-0.23486328,-1.5247192,-0.007873535,-30.5,-39.203125,37.890625
303,303,1727277331890,-0.33374023,-1.015686,0.14324951,26.34375,42.578125,14.734375
304,304,1727277331930,-0.25708008,-0.56500244,-0.09307861,28.453125,11.3125,5.40625
305,305,1727277331970,-0.26464844,-0.4907837,-0.13531494,-8.859375,-10.140625,5.375
306,306,1727277332010,-0.1550293,-0.45733643,-0.17315674,-30.921875,8.828125,-2.1875
307,307,1727277332050,0.011474609,-0.5496216,-0.25787354,-18.890625,5.484375,-2.34375
308,308,1727277332090,0.08105469,-0.5967407,-0.11187744,0.875,-21.203125,-1.6875
309,309,1727277332130,0.22290039,-0.48809814,0.22528076,19.34375,22.453125,-6.6875
310,310,1727277332170,0.6796875,-1.6172485,0.0038452148,10.078125,56.3125,-45.125
311,311,1727277332210,-1.1501465,-2.0,0.3012085,8.90625,-26.234375,12.46875
312,312,1727277332250,-0.46899414,-1.4497681,0.012390137,-25.5625,-3.046875,-4.203125
313,313,1727277332290,0.06689453,-1.1677856,0.035827637,-23.84375,-40.859375,-11.5
314,314,1727277332330,0.03930664,-1.1367798,0.16546631,-2.671875,-29.46875,-8.6875
315,315,1727277332370,-0.3178711,-0.8550415,0.10028076,-10.015625,-2.21875,-5.0625
316,316,1727277332410,-0.61157227,-0.6704712,0.08734131,-25.21875,11.921875,-12.0
317,317,1727277332450,-0.23413086,-0.36724854,0.00579834,-4.890625,-13.703125,-15.890625
318,318,1727277332490,-0.11303711,-0.22979736,0.010437012,27.84375,-0.28125,-22.859375
319,319,1727277332530,0.045166016,-0.25543213,-0.05670166,17.4375,17.078125,-4.609375
320,320,1727277332570,0.056152344,-0.5664673,-0.38336182,-12.421875,2.328125,8.90625
321,321,1727277332610,0.6430664,-1.880188,-0.33306885,-64.765625,-15.890625,12.796875
322,322,1727277332650,-0.45263672,-1.8682251,0.8810425,41.890625,43.921875,11.84375
323,323,1727277332690,-0.31518555,-1.2886353,0.17474365,19.671875,-6.296875,18.3125
324,324,1727277332730,-0.49169922,-1.3518677,-0.04034424,-18.53125,-43.640625,13.09375
325,325,1727277332770,-0.5031738,-1.3447876,0.31292725,-3.765625,-25.140625,20.46875
326,326,1727277332810,-0.2861328,-1.2151489,0.043884277,17.09375,25.65625,12.6875
327,327,1727277332850,-0.13305664,-0.78619385,-0.021057129,0.578125,6.234375,11.375
328,328,1727277332890,-0.020751953,-0.5549927,0.1473999,-17.46875,3.015625,-3.140625
329,329,1727277332930,-0.08105469,-0.49298096,-0.11187744,-23.53125,-0.734375,-16.984375
330,330,1727277332970,-0.111572266,-0.43658447,-0.18511963,-24.0625,1.90625,-7.078125
331,331,1727277333010,-0.076171875,-0.46392822,-0.16900635,-4.796875,-17.734375,7.09375
332,332,1727277333050,0.1730957,-0.5857544,0.152771,15.0625,-9.453125,-2.4375
333,333,1727277333090,0.26708984,-1.4480591,0.21844482,25.890625,28.96875,-33.65625
334,334,1727277333130,-0.3474121,-2.0,0.3048706,2.609375,-50.890625,-9.578125
335,335,1727277333170,-0.33691406,-1.2947388,0.043395996,-24.59375,23.4375,-4.390625
336,336,1727277333210,-0.17285156,-1.1851196,0.059265137,-7.875,7.5625,-7.59375
337,337,1727277333250,-0.16796875,-1.1448364,0.117370605,-0.0625,-7.609375,-10.53125
338,338,1727277333290,-0.36791992,-0.9368286,0.23260498,-4.0,-15.671875,-16.640625
339,339,1727277333330,-0.43115234,-0.6609497,0.18231201,-6.921875,12.984375,-18.953125
340,340,1727277333370,-0.20751953,-0.50494385,0.043395996,4.640625,9.125,-15.75
341,341,1727277333410,-0.060302734,-0.3040161,0.090026855,9.859375,-4.984375,-15.15625
342,342,1727277333450,0.13549805,-0.42852783,0.1605835,1.71875,5.703125,-15.265625
343,343,1727277333490,0.11230469,-0.82525635,-0.19390869,-1.09375,-6.40625,11.03125
344,344,1727277333530,-0.3623047,-2.0,-0.047180176,-48.265625,-2.28125,45.078125
345,345,1727277333570,-0.41333008,-0.75738525,0.046813965,1.4375,50.28125,34.84375
346,346,1727277333610,-0.3005371,-0.9768677,0.0079956055,26.28125,-2.0,-1.90625
347,347,1727277333650,-0.13598633,-1.4121704,0.30218506,-7.953125,-16.890625,-12.640625
348,348,1727277333690,-0.41796875,-1.8186646,0.47625732,12.171875,-22.53125,15.15625
349,349,1727277333730,-0.30200195,-1.1248169,-0.109191895,6.484375,0.9375,28.828125
350,350,1727277333770,-0.19238281,-0.67071533,-0.043518066,-14.859375,1.0625,14.1875
351,351,1727277333810,-0.052490234,-0.38653564,0.08050537,-9.828125,-12.1875,9.46875
352,352,1727277333850,-0.111083984,-0.4290161,0.030944824,-8.234375,-2.484375,1.640625
353,353,1727277333890,-0.3466797,-0.5767212,-0.1560669,-11.96875,19.078125,-8.53125
354,354,1727277333930,-0.7084961,-1.0969849,-0.02911377,-17.734375,2.328125,-10.015625
355,355,1727277333970,-0.39453125,-1.0774536,-0.07110596,-28.296875,1.09375,-16.03125
356,356,1727277334010,0.14746094,-0.986145,0.03753662,4.265625,7.546875,-21.4375
357,357,1727277334050,0.58496094,-0.9314575,0.4472046,21.859375,41.015625,-11.96875
358,358,1727277334090,0.053955078,-1.8606567,0.015319824,-2.765625,40.140625,-12.28125
359,359,1727277334130,-0.5961914,-1.2913208,0.2843628,3.234375,29.3125,24.4375
360,360,1727277334170,-0.46313477,-1.0588989,-0.03375244,-3.609375,59.5,-16.109375
361,361,1727277334210,-0.33398438,-0.9973755,0.032409668,-2.75,35.6875,-35.3125
362,362,1727277334250,-0.5095215,-0.7620239,0.0018920898,15.375,60.21875,-25.140625
363,363,1727277334290,-0.33764648,-0.6848755,-0.2119751,24.875,83.609375,-9.78125
364,364,1727277334330,-0.2919922,-0.5679321,-0.21417236,20.84375,90.53125,-4.25
365,365,1727277334370,-0.060058594,-0.4109497,-0.18560791,19.25,89.59375,-8.015625
366,366,1727277334410,0.32910156,-0.46124268,-0.17315674,9.9375,100.28125,-17.359375
367,367,1727277334450,0.12158203,-0.62628174,-0.09161377,10.65625,83.25,-6.09375
368,368,1727277334490,-0.22558594,-1.2485962,-0.44488525,17.453125,74.3125,13.421875
369,369,1727277334530,-0.2578125,-1.6116333,-0.21490479,42.703125,60.03125,30.390625
370,370,1727277334570,-0.16870117,-1.5950317,-0.22003174,27.46875,112.859375,0.875
371,371,1727277334610,-0.26586914,-1.5696411,-0.0134887695,6.84375,85.546875,-7.265625
372,372,1727277334650,-0.44433594,-1.2771606,-0.037902832,32.109375,94.296875,16.28125
373,373,1727277334690,-0.61450195,-1.104065,-0.22247314,13.484375,85.421875,17.78125
374,374,1727277334730,-0.48486328,-0.9849243,-0.37286377,-11.453125,90.609375,1.1875
375,375,1727277334770,-0.111816406,-0.8970337,-0.54400635,-7.015625,76.3125,0.296875
376,376,1727277334810,0.013671875,-0.67803955,-0.29278564,17.359375,90.625,-2.21875
377,377,1727277334850,-0.016113281,-0.6314087,-0.13482666,17.6875,96.6875,-0.0625
378,378,1727277334890,-0.045654297,-0.66363525,-0.06011963,-4.25,82.453125,1.5625
379,379,1727277334930,-0.037597656,-0.6248169,-0.13360596,-13.96875,63.34375,1.3125
380,380,1727277334970,-0.006591797,-0.53253174,-0.28009033,-10.671875,38.3125,0.8125
381,381,1727277335010,0.1340332,-0.5054321,-0.35186768,-8.625,35.46875,-3.15625
382,382,1727277335050,0.17651367,-0.89971924,-0.14605713,-0.578125,60.046875,-8.578125
383,383,1727277335090,0.15478516,-2.0,0.276062,52.421875,67.125,-8.140625
384,384,1727277335130,0.0012207031,-2.0,0.49139404,-6.703125,83.515625,-7.328125
385,385,1727277335170,-0.43237305,-1.4832153,-0.045715332,-34.40625,53.234375,-20.109375
386,386,1727277335210,-0.36865234,-1.0671997,-0.06060791,-22.703125,22.453125,-10.09375
387,387,1727277335250,-0.20166016,-0.9612427,-0.074523926,0.03125,8.359375,-2.828125
388,388,1727277335290,-0.17285156,-1.0413208,0.29681396,1.78125,31.5,-4.96875
389,389,1727277335330,-0.15991211,-0.76348877,0.2501831,-8.734375,47.359375,-0.125
390,390,1727277335370,-0.012451172,-0.4812622,-0.0051879883,1.5625,21.015625,5.234375
391,391,1727277335410,-0.00024414062,-0.25616455,-0.050354004,0.40625,10.625,1.921875
392,392,1727277335450,-0.033203125,-0.13580322,-0.027648926,-5.40625,27.046875,-9.53125
393,393,1727277335490,0.059570312,-0.15509033,-0.3513794,-27.640625,4.296875,-13.984375
394,394,1727277335530,-0.24267578,-0.59698486,-0.15826416,-7.96875,25.515625,11.3125
395,395,1727277335570,0.22192383,-2.0,1.022644,53.984375,-54.03125,11.140625
396,396,1727277335610,-0.37597656,-0.9915161,0.3937378,-0.234375,83.21875,-12.828125
397,397,1727277335650,-0.45751953,-1.2654419,-0.12530518,14.34375,4.515625,4.328125
398,398,1727277335690,-0.4387207,-1.0755005,0.15618896,-4.703125,-0.15625,25.5
399,399,1727277335730,-0.13305664,-1.3997192,0.14520264,4.671875,18.53125,7.3125
400,400,1727277335770,-0.014892578,-0.7854614,-0.016418457,17.75,47.625,9.171875
401,401,1727277335810,-0.10424805,-0.6543579,-0.06085205,-5.53125,18.890625,6.640625
402,402,1727277335850,-0.11352539,-0.44244385,-0.06378174,-20.0,-4.28125,-2.625
403,403,1727277335890,-0.010009766,-0.24859619,-0.15338135,-18.53125,-8.4375,-5.609375
404,404,1727277335930,0.12646484,-0.13409424,-0.17315674,-20.734375,-4.234375,-15.09375
405,405,1727277335970,0.2626953,-0.2666626,-0.10845947,21.03125,38.828125,-19.484375
406,406,1727277336010,1.4416504,-2.0,0.21868896,55.140625,-65.0,-45.703125
407,407,1727277336050,-0.27148438,-1.498352,0.3612671,-40.96875,46.65625,22.078125
408,408,1727277336090,-0.5229492,-1.3213501,-0.206604,-2.625,-28.34375,-19.265625
409,409,1727277336130,-0.19604492,-1.1636353,0.16107178,-3.6875,-30.328125,-21.546875
410,410,1727277336170,0.05493164,-1.2398071,0.45355225,0.625,-33.796875,-11.578125
411,411,1727277336210,-0.23803711,-1.0664673,0.39422607,-17.78125,1.34375,-7.703125
412,412,1727277336250,-0.36376953,-0.6572876,0.13568115,-19.484375,24.3125,-13.875
413,413,1727277336290,-0.2199707,-0.21099854,-0.046203613,11.15625,-8.28125,-19.59375
414,414,1727277336330,-0.06616211,0.008972168,-0.040100098,19.3125,-23.609375,-24.265625
415,415,1727277336370,0.12988281,-0.10089111,-0.30377197,1.6875,-3.0625,-30.46875
416,416,1727277336410,0.13598633,-0.42242432,-0.14971924,-23.78125,16.953125,6.71875
417,417,1727277336450,-0.026367188,-2.0,-0.4212036,-48.984375,36.828125,30.65625
418,418,1727277336490,-0.6687012,-1.2564087,0.760437,3.90625,62.546875,34.78125
419,419,1727277336530,-0.33740234,-1.4011841,0.18499756,3.453125,-13.90625,-3.890625
420,420,1727277336570,-0.3876953,-1.4087524,0.0680542,3.046875,-28.25,3.9375
421,421,1727277336610,-0.24291992,-1.3357544,0.37127686,8.65625,-1.703125,16.796875
422,422,1727277336650,-0.106933594,-0.99346924,0.03753662,11.28125,28.046875,12.53125
423,423,1727277336690,0.060546875,-0.73321533,0.019714355,-4.625,7.21875,1.84375
424,424,1727277336730,0.0087890625,-0.5598755,0.035339355,-25.96875,-10.359375,-8.28125
425,425,1727277336770,-0.10131836,-0.27789307,-0.13287354,-18.4375,-14.546875,-4.21875
426,426,1727277336810,-0.099609375,-0.21539307,-0.12554932,-0.078125,-20.046875,4.640625
427,427,1727277336850,0.07495117,-0.042297363,-0.12530518,-0.5625,-25.734375,-1.46875
428,428,1727277336890,0.27270508,-0.7637329,0.12982178,-3.125,14.78125,-7.765625
429,429,1727277336930,0.6152344,-2.0,0.262146,10.3125,-40.671875,-29.96875
430,430,1727277336970,-0.5541992,-1.4475708,0.47625732,-14.71875,37.796875,13.4375
431,431,1727277337010,-0.5227051,-1.1939087,-0.078186035,13.984375,-12.359375,-4.6875
432,432,1727277337050,-0.080566406,-1.3052368,0.24481201,-7.234375,-35.796875,-4.109375
433,433,1727277337090,0.039794922,-1.4900513,0.53900146,14.234375,-47.09375,-14.3125
434,434,1727277337130,-0.3076172,-1.1121216,0.2189331,-13.6875,-0.203125,-11.515625
435,435,1727277337170,-0.40478516,-0.5984497,0.109069824,-21.734375,20.046875,-16.53125
436,436,1727277337210,-0.09301758,-0.23492432,-0.0049438477,-3.28125,-0.609375,-15.328125
437,437,1727277337250,0.044921875,-0.19464111,0.02923584,11.84375,-12.21875,-19.46875
438,438,1727277337290,-0.001953125,-0.31915283,0.07171631,3.0,14.875,-24.453125
439,439,1727277337330,0.05102539,-0.5706177,-0.20465088,-23.234375,6.359375,-6.953125
440,440,1727277337370,-0.22607422,-1.454895,-0.19732666,-40.15625,-6.453125,37.484375
441,441,1727277337410,-0.38061523,-1.7600708,0.5165405,64.546875,1.765625,62.953125
442,442,1727277337450,-0.20214844,-1.284729,0.45648193,-14.0625,10.265625,-7.65625
443,443,1727277337490,-0.4650879,-1.4937134,0.26068115,20.96875,-17.0,0.390625
444,444,1727277337530,-0.57592773,-1.4678345,0.15081787,10.75,-10.484375,25.34375
445,445,1727277337570,-0.3173828,-1.1026001,-0.0134887695,-10.96875,21.515625,14.8125
446,446,1727277337610,-0.061035156,-0.6670532,0.04534912,1.421875,9.3125,8.78125
447,447,1727277337650,0.07128906,-0.43096924,0.022644043,-8.8125,-9.953125,3.984375
448,448,1727277337690,-0.042236328,-0.42022705,0.05291748,-19.578125,8.578125,-8.71875
449,449,1727277337730,-0.4560547,-0.65997314,-0.11407471,-25.65625,26.53125,-2.578125
450,450,1727277337770,-0.38916016,-0.92266846,-0.09039307,-19.765625,-8.515625,3.1875
451,451,1727277337810,0.0234375,-0.7839966,-0.16192627,-16.984375,-9.171875,-14.46875
452,452,1727277337850,0.4033203,-0.8237915,0.33465576,23.515625,23.8125,-21.578125
453,453,1727277337890,0.37670898,-1.2713013,0.24554443,9.484375,52.765625,-29.515625
454,454,1727277337930,-0.29125977,-1.5772095,0.16229248,1.484375,6.484375,17.625
455,455,1727277337970,-0.16430664,-1.149231,0.1251831,-8.390625,9.40625,1.375
456,456,1727277338010,-0.19799805,-1.1785278,0.19158936,-2.1875,14.8125,-13.8125
457,457,1727277338050,-0.328125,-1.1045532,0.32806396,9.375,38.375,-11.875
458,458,1727277338090,-0.20898438,-0.8904419,0.13446045,3.875,62.03125,-10.015625
459,459,1727277338130,-0.16723633,-0.7202759,0.070739746,-3.03125,74.96875,-20.921875
460,460,1727277338170,-0.25390625,-0.6902466,0.14910889,15.796875,75.25,-19.875
461,461,1727277338210,-0.38134766,-0.55914307,0.0067749023,27.640625,67.390625,-16.828125
462,462,1727277338250,-0.29223633,-0.489563,-0.04083252,22.171875,78.65625,-28.640625
463,463,1727277338290,-0.12060547,-0.57037354,-0.04815674,3.640625,84.109375,-41.203125
464,464,1727277338330,-0.1237793,-0.7876587,-0.23101807,21.28125,80.328125,-26.90625
465,465,1727277338370,-0.24829102,-1.272522,-0.7527466,43.84375,45.640625,14.25
466,466,1727277338410,0.0703125,-1.3799438,-0.41705322,46.046875,94.421875,30.25
467,467,1727277338450,-0.47021484,-1.8096313,-0.4883423,39.296875,92.421875,46.953125
468,468,1727277338490,-0.7705078,-1.3501587,0.19696045,-37.828125,104.203125,6.5
469,469,1727277338530,-0.49731445,-1.2800903,-0.43511963,30.78125,103.625,-4.265625
470,470,1727277338570,-0.3762207,-0.9585571,-0.3032837,15.921875,95.359375,2.109375
471,471,1727277338610,-0.65063477,-1.0252075,-0.36968994,26.0625,102.078125,1.484375
472,472,1727277338650,-0.5102539,-0.88165283,-0.300354,7.25,84.375,-2.171875
473,473,1727277338690,-0.18969727,-0.83135986,-0.5015259,16.015625,88.140625,8.984375
474,474,1727277338730,0.16333008,-0.81866455,-0.37261963,16.90625,85.46875,25.984375
475,475,1727277338770,0.25756836,-0.8189087,-0.22442627,9.28125,78.28125,22.03125
476,476,1727277338810,-0.12719727,-0.8296509,-0.07550049,7.015625,75.96875,16.828125
477,477,1727277338850,-0.29003906,-0.74542236,-0.12310791,-4.703125,60.328125,14.765625
478,478,1727277338890,-0.13085938,-0.5894165,-0.22979736,-13.015625,37.59375,-2.4375
479,479,1727277338930,0.033447266,-0.4661255,-0.21368408,-2.328125,38.234375,-11.65625
480,480,1727277338970,0.2619629,-0.5261841,-0.21173096,2.78125,40.828125,-6.84375
481,481,1727277339010,0.31860352,-1.5176392,-0.05621338,11.625,45.953125,-2.765625
482,482,1727277339050,-0.07763672,-1.9182739,0.746521,28.84375,69.96875,22.921875
483,483,1727277339090,-0.38842773,-1.486145,-0.20904541,-35.6875,32.296875,2.375
484,484,1727277339130,-0.49731445,-1.1165161,-0.17095947,-23.4375,20.4375,-6.1875
485,485,1727277339170,-0.18847656,-1.0366821,-0.027893066,-16.65625,17.390625,-6.8125
486,486,1727277339210,-0.072509766,-1.0403442,0.17034912,3.96875,20.375,-4.875
487,487,1727277339250,-0.12207031,-0.9446411,0.25482178,-2.484375,37.515625,-2.125
488,488,1727277339290,-0.114990234,-0.64434814,0.1408081,-8.171875,25.734375,-7.75
489,489,1727277339330,-0.013916016,-0.37774658,0.062683105,-7.71875,11.234375,-9.171875
490,490,1727277339370,0.0625,-0.23736572,-0.019836426,-15.484375,14.171875,-12.421875
491,491,1727277339410,0.06542969,-0.20172119,-0.4421997,-18.515625,11.8125,-10.640625
492,492,1727277339450,-0.059814453,-0.6399536,-0.50372314,-0.953125,-24.84375,5.09375
493,493,1727277339490,0.029785156,-2.0,0.022399902,64.359375,-38.125,5.140625
494,494,1727277339530,-0.3815918,-1.5579224,0.09661865,-47.515625,118.046875,-6.328125
495,495,1727277339570,-0.057861328,-1.1851196,-0.13726807,1.015625,-14.09375,20.609375
496,496,1727277339610,-0.20141602,-1.1257935,0.043640137,10.953125,-2.75,14.796875
497,497,1727277339650,-0.16015625,-0.9902954,0.00970459,-14.640625,1.28125,7.8125
498,498,1727277339690,-0.09838867,-0.7503052,-0.097717285,5.171875,29.203125,-1.71875
499,499,1727277339730,-0.056640625,-0.73760986,0.093933105,8.953125,20.296875,-3.96875
500,500,1727277339770,-0.010498047,-0.5022583,-0.006652832,-21.34375,1.046875,1.640625
501,501,1727277339810,0.033203125,-0.18048096,0.06488037,-21.5,-10.4375,2.375
502,502,1727277339850,0.15722656,-0.13360596,-0.25958252,4.09375,-14.21875,-5.375
503,503,1727277339890,0.13354492,-0.6409302,-0.538147,9.296875,-13.21875,-17.71875
504,504,1727277339930,1.3435059,-2.0,0.5258179,37.5,-70.546875,-52.0
505,505,1727277339970,-0.34179688,-1.593811,0.36468506,-44.671875,35.140625,13.71875
506,506,1727277340010,-0.53271484,-1.2107544,-0.25958252,-13.15625,-14.375,1.484375
507,507,1727277340050,-0.37597656,-0.9968872,-0.07940674,-19.25,-21.171875,-28.96875
508,508,1727277340090,-0.13623047,-0.99542236,0.1449585,-15.375,-37.75,-30.625
509,509,1727277340130,-0.27124023,-1.0745239,0.3234253,1.671875,21.234375,-7.609375
510,510,1727277340170,-0.24951172,-0.51568604,0.1461792,7.640625,17.6875,-1.171875
511,511,1727277340210,-0.16064453,-0.18121338,-0.020324707,10.109375,5.328125,-5.265625
512,512,1727277340250,-0.03125,0.08001709,-0.07305908,3.375,0.890625,-14.9375
513,513,1727277340290,0.0925293,-0.08428955,-0.32476807,-7.609375,-5.875,-18.765625
514,514,1727277340330,0.010986328,-0.60528564,-0.47418213,-6.21875,-18.65625,11.671875
515,515,1727277340370,-0.8815918,-2.0,1.5075073,105.34375,-58.6875,55.65625
516,516,1727277340410,-0.6435547,-1.4849243,-0.0020141602,-24.21875,106.171875,-9.515625
517,517,1727277340450,-0.24072266,-1.2910767,-0.14581299,24.0625,7.421875,9.71875
518,518,1727277340490,-0.18676758,-1.3084106,-0.003479004,7.484375,-26.21875,6.8125
519,519,1727277340530,0.12597656,-1.1499634,-0.059143066,-15.90625,10.8125,22.84375
520,520,1727277340570,0.005859375,-0.7102661,0.05633545,10.328125,38.171875,24.359375
521,521,1727277340610,-0.107666016,-0.673645,0.11102295,-6.046875,9.328125,5.859375
522,522,1727277340650,-0.13208008,-0.41436768,-0.10626221,-34.328125,-9.671875,-12.40625
523,523,1727277340690,-0.17919922,-0.09674072,-0.1453247,-21.625,-15.40625,-12.296875
524,524,1727277340730,0.1315918,-0.055725098,-0.17633057,-7.78125,-16.640625,-14.390625
525,525,1727277340770,0.29663086,-0.48394775,-0.054748535,14.0625,1.890625,-6.0
526,526,1727277340810,1.3056641,-2.0,0.40545654,4.5,-29.46875,-21.6875
527,527,1727277340850,-0.4970703,-1.6553345,0.14349365,-38.921875,15.640625,14.796875
528,528,1727277340890,-0.5661621,-1.2605591,-0.018127441,-15.640625,-16.734375,-19.578125
529,529,1727277340930,-0.02368164,-1.1748657,0.07733154,-13.34375,-15.828125,-27.171875
530,530,1727277340970,0.030517578,-1.0432739,0.3012085,2.0625,-46.5625,-19.53125
531,531,1727277341010,-0.26464844,-0.88360596,0.2526245,-4.84375,12.65625,-11.875
532,532,1727277341050,-0.30249023,-0.65875244,0.13470459,-13.84375,21.5625,-11.28125
533,533,1727277341090,-0.015625,-0.24151611,0.08270264,-1.15625,-17.25,-13.34375
534,534,1727277341130,0.091552734,-0.15045166,-0.032287598,9.34375,-18.625,-17.453125
535,535,1727277341170,0.10961914,-0.2888794,-0.23980713,6.34375,-14.671875,-15.453125
536,536,1727277341210,-0.12133789,-0.74884033,-0.36505127,-14.890625,-20.421875,-1.4375
537,537,1727277341250,-0.29541016,-2.0,-0.058898926,-63.21875,4.75,37.5625
538,538,1727277341290,-0.5185547,-1.4172974,0.7015991,32.375,75.828125,12.578125
539,539,1727277341330,-0.31762695,-1.5073853,0.09832764,21.21875,8.1875,9.234375
540,540,1727277341370,-0.49194336,-1.1870728,0.16888428,-7.96875,-3.796875,17.734375
541,541,1727277341410,-0.28930664,-1.0759888,0.070251465,-17.3125,-3.671875,11.421875
542,542,1727277341450,-0.11694336,-0.85357666,0.1005249,-2.5625,29.21875,4.171875
543,543,1727277341490,0.00390625,-0.5967407,0.034118652,5.328125,16.234375,0.328125
544,544,1727277341530,-0.06982422,-0.49835205,0.04486084,-16.375,5.4375,-10.6875
545,545,1727277341570,-0.30444336,-0.45269775,-0.018615723,-28.28125,26.28125,-18.53125
546,546,1727277341610,-0.47631836,-0.57891846,-0.26324463,-17.90625,23.96875,-8.234375
547,547,1727277341650,-0.091796875,-0.8743286,-0.29058838,-3.84375,0.453125,-6.1875
548,548,1727277341690,0.47143555,-1.3794556,0.29119873,7.71875,19.234375,-23.625
549,549,1727277341730,0.15820312,-1.8189087,0.40350342,19.890625,97.578125,-19.140625
550,550,1727277341770,-0.3330078,-1.4155884,0.055847168,-7.046875,51.640625,-3.0
551,551,1727277341810,-0.37158203,-1.1494751,0.027038574,8.1875,51.5,-19.171875
552,552,1727277341850,-0.3359375,-1.093811,0.05340576,5.328125,38.0,-28.65625
553,553,1727277341890,-0.21801758,-0.95147705,0.12957764,3.890625,39.78125,-20.046875
554,554,1727277341930,-0.24291992,-0.7583618,0.18499756,6.640625,70.84375,-13.109375
555,555,1727277341970,-0.19824219,-0.534729,-0.011047363,11.453125,82.296875,-11.875
556,556,1727277342010,-0.15185547,-0.35601807,-0.112854004,18.484375,72.890625,-18.984375
557,557,1727277342050,-0.032958984,-0.3640747,-0.17022705,14.71875,57.71875,-21.78125
558,558,1727277342090,0.091552734,-0.50006104,-0.00079345703,15.265625,63.296875,-18.203125
559,559,1727277342130,0.08227539,-1.0952759,-0.16973877,23.984375,66.140625,6.28125
560,560,1727277342170,-0.7468262,-1.8428345,0.07171631,19.875,78.5,68.046875
561,561,1727277342210,-0.3701172,-1.0127563,-0.43145752,14.125,85.40625,16.953125
562,562,1727277342250,-0.122802734,-1.3530884,-0.053527832,3.921875,66.109375,-25.46875
563,563,1727277342290,-0.24633789,-1.8213501,0.2826538,13.1875,54.75,-16.140625
564,564,1727277342330,-0.31347656,-1.2935181,0.055847168,13.171875,68.875,17.25
565,565,1727277342370,-0.5319824,-0.9685669,-0.1519165,10.640625,83.859375,19.09375
566,566,1727277342410,-0.57006836,-0.8296509,-0.22052002,0.625,84.09375,-0.953125
567,567,1727277342450,-0.3815918,-0.7007446,-0.2901001,8.21875,74.609375,-14.96875
568,568,1727277342490,-0.20507812,-0.6958618,-0.3916626,13.140625,72.796875,-16.375
569,569,1727277342530,-0.17944336,-0.8394165,-0.31451416,10.703125,78.078125,-9.203125
570,570,1727277342570,-0.09790039,-0.88238525,-0.17730713,10.671875,86.625,0.03125
571,571,1727277342610,-0.036132812,-0.8977661,-0.10772705,7.203125,74.109375,1.546875
572,572,1727277342650,0.018310547,-0.82598877,-0.12799072,-3.03125,55.09375,-8.984375
573,573,1727277342690,-0.061767578,-0.7124634,-0.25494385,-2.234375,45.0,-13.046875
574,574,1727277342730,0.0043945312,-0.6087036,-0.10333252,-1.671875,60.453125,-12.75
575,575,1727277342770,0.26391602,-0.9631958,0.026550293,17.265625,85.5625,-7.171875
576,576,1727277342810,0.16699219,-2.0,0.293396,34.171875,50.0,13.640625
577,577,1727277342850,-0.1706543,-1.789856,0.36761475,-24.59375,80.96875,-1.46875
578,578,1727277342890,-0.58740234,-1.3933716,0.11029053,-25.40625,45.578125,-33.28125
579,579,1727277342930,-0.4104004,-0.89190674,-0.00079345703,-3.1875,34.3125,-16.671875
580,580,1727277342970,-0.052978516,-0.9890747,-0.02130127,1.984375,-11.359375,-2.71875
581,581,1727277343010,-0.084472656,-0.9807739,0.47747803,10.96875,29.03125,-0.59375
582,582,1727277343050,-0.14697266,-0.6626587,0.19720459,-3.34375,45.859375,-0.296875
583,583,1727277343090,-0.21948242,-0.3081665,-0.031555176,-3.0,27.28125,5.0
584,584,1727277343130,-0.09448242,-0.016662598,-0.25543213,-27.21875,1.328125,-6.359375
585,585,1727277343170,0.10058594,0.013122559,-0.5232544,-16.75,-10.1875,-26.765625
586,586,1727277343210,-0.23608398,-0.9976196,-0.5581665,34.109375,50.828125,5.859375
587,587,1727277343250,0.20581055,-2.0,1.3761597,62.890625,47.625,42.359375
588,588,1727277343290,-0.18945312,-1.2839966,-0.09893799,-10.8125,35.015625,-20.640625
589,589,1727277343330,-0.19189453,-1.1401978,-0.011047363,26.875,-23.484375,14.828125
590,590,1727277343370,-0.21777344,-1.0366821,0.18426514,11.0,-18.75,13.109375
591,591,1727277343410,-0.21459961,-1.0484009,0.05218506,0.40625,19.03125,12.96875
592,592,1727277343450,-0.15942383,-0.7217407,-0.16827393,23.125,21.640625,7.890625
593,593,1727277343490,-0.08569336,-0.7293091,-0.13702393,-13.734375,-4.375,-2.703125
594,594,1727277343530,-0.05493164,-0.52227783,-0.022521973,-21.3125,-5.34375,-10.234375
595,595,1727277343570,0.08227539,-0.32476807,0.00091552734,-12.28125,-0.359375,-9.09375
596,596,1727277343610,0.08154297,-0.0491333,-0.15899658,-6.71875,7.3125,-8.78125
597,597,1727277343650,0.22875977,-1.1641235,-0.41290283,17.921875,27.0,-13.15625
598,598,1727277343690,-0.45214844,-1.9273071,0.9616089,9.921875,-2.140625,26.71875
599,599,1727277343730,-0.29516602,-1.56427,0.061462402,-24.34375,-7.703125,-14.34375
600,600,1727277343770,-0.20629883,-1.0796509,-0.14630127,-25.46875,-37.125,-31.9375
601,601,1727277343810,-0.15551758,-0.9656372,0.2255249,-3.765625,-13.734375,-29.734375
602,602,1727277343850,-0.23535156,-1.1228638,0.36102295,-9.015625,-11.625,-14.703125
603,603,1727277343890,-0.35205078,-0.75787354,0.29656982,-11.203125,3.890625,-8.59375
604,604,1727277343930,-0.28344727,-0.24908447,-0.009094238,-5.046875,2.515625,-8.40625
605,605,1727277343970,0.037109375,0.14178467,-0.24957275,-1.765625,-8.46875,-16.65625
606,606,1727277344010,0.24511719,0.09710693,-0.32208252,0.875,-3.640625,-20.75
607,607,1727277344050,0.20922852,-0.31524658,-0.32989502,19.8125,-3.28125,11.265625
608,608,1727277344090,-1.0541992,-2.0,-0.87579346,-60.078125,-8.296875,53.484375
609,609,1727277344130,-0.6086426,-1.4793091,0.899353,-79.875,62.15625,-24.484375
610,610,1727277344170,-0.39892578,-1.4570923,-0.2210083,29.6875,35.4375,-10.796875
611,611,1727277344210,-0.2487793,-1.0198364,-0.027404785,27.4375,-33.765625,16.125
612,612,1727277344250,-0.08081055,-1.1123657,0.19110107,-1.8125,-20.453125,16.015625
613,613,1727277344290,-0.052978516,-1.0579224,0.13641357,-6.0625,16.53125,21.84375
614,614,1727277344330,-0.13012695,-0.6604614,0.020202637,4.96875,0.546875,19.75
615,615,1727277344370,-0.2668457,-0.5303345,0.011413574,-11.125,-9.375,8.84375
616,616,1727277344410,-0.27246094,-0.37286377,-0.1885376,-23.796875,-7.578125,-11.703125
617,617,1727277344450,-0.16503906,-0.3887329,-0.23223877,-13.859375,-5.296875,-10.390625
618,618,1727277344490,-0.0078125,-0.36773682,-0.12017822,5.109375,-19.140625,-3.15625
619,619,1727277344530,0.4650879,-0.8364868,0.4352417,1.625,18.046875,-4.59375
620,620,1727277344570,0.69262695,-2.0,-0.010314941,8.484375,-17.953125,-19.296875
621,621,1727277344610,-0.8991699,-1.5527954,0.5704956,2.796875,11.046875,19.453125
622,622,1727277344650,-0.22021484,-1.3899536,-0.11236572,-16.390625,-25.171875,-29.96875
623,623,1727277344690,-0.07714844,-1.1243286,0.26434326,-9.21875,-29.390625,-27.09375
624,624,1727277344730,-0.15795898,-0.7451782,0.20599365,8.65625,-21.328125,-2.625
625,625,1727277344770,-0.30078125,-0.59698486,0.10369873,-2.015625,-6.046875,5.578125
626,626,1727277344810,-0.2890625,-0.47686768,0.06097412,5.078125,15.140625,-5.40625
627,627,1727277344850,-0.15527344,-0.2539673,0.0006713867,5.28125,7.125,-12.484375
628,628,1727277344890,0.041015625,-0.17852783,-0.030090332,-0.09375,-0.390625,-19.34375
629,629,1727277344930,0.01586914,-0.31304932,-0.22296143,-18.90625,-2.4375,-11.328125
630,630,1727277344970,-0.0043945312,-0.6314087,-0.30230713,-20.859375,-17.34375,7.265625
631,631,1727277345010,-0.6357422,-2.0,-0.1260376,-54.890625,73.828125,12.8125
632,632,1727277345050,-0.3935547,-1.5808716,0.666687,-18.953125,52.875,-23.15625
633,633,1727277345090,-0.48291016,-1.3648071,0.09588623,20.75,5.34375,-12.703125
634,634,1727277345130,-0.46044922,-1.1939087,0.086120605,39.78125,-34.546875,30.46875
635,635,1727277345170,-0.30004883,-1.4841919,0.034118652,-6.625,9.6875,27.515625
636,636,1727277345210,-0.20092773,-0.94366455,0.11956787,13.40625,24.96875,20.203125
637,637,1727277345250,-0.023925781,-0.75665283,0.04510498,-0.203125,-9.734375,12.015625
638,638,1727277345290,-0.08178711,-0.5964966,0.06585693,-36.25,-6.40625,-7.09375
639,639,1727277345330,-0.19580078,-0.347229,0.02508545,-34.625,28.0,-16.875
640,640,1727277345370,-0.32958984,-0.3032837,-0.039611816,-14.109375,9.78125,-1.125
641,641,1727277345410,-0.07055664,-0.22369385,-0.32452393,-20.28125,-22.5625,-5.671875
642,642,1727277345450,-0.12817383,-0.56866455,-0.43463135,11.96875,-14.28125,-5.234375
643,643,1727277345490,1.9152832,-2.0,1.4118042,99.9375,-52.75,-7.421875
644,644,1727277345530,-0.26245117,-1.4041138,0.03265381,-49.515625,39.75,-0.640625
645,645,1727277345570,-0.74121094,-0.9404907,-0.3164673,7.828125,28.65625,-8.109375
646,646,1727277345610,-0.5227051,-0.8826294,-0.14703369,1.796875,32.109375,-39.390625
647,647,1727277345650,-0.14648438,-1.0049438,0.12347412,-0.828125,16.625,-42.25
648,648,1727277345690,-0.17260742,-1.1013794,0.24554443,25.265625,50.953125,-3.515625
649,649,1727277345730,-0.16772461,-0.6531372,0.078552246,9.875,73.359375,5.359375
650,650,1727277345770,-0.25830078,-0.34039307,-0.17510986,18.5,89.59375,-2.84375
651,651,1727277345810,-0.29077148,-0.25372314,-0.18292236,24.734375,70.1875,-13.1875
652,652,1727277345850,-0.1340332,-0.44952393,-0.051574707,10.203125,64.109375,-17.640625
653,653,1727277345890,-0.14746094,-0.8401489,-0.04864502,5.84375,77.453125,-8.359375
654,654,1727277345930,-0.1616211,-2.0,-0.5203247,-11.78125,65.1875,7.5
655,655,1727277345970,-0.06958008,-1.2449341,-0.25860596,37.09375,78.34375,37.609375
656,656,1727277346010,-0.40771484,-0.9595337,-0.2144165,25.734375,110.03125,18.515625
657,657,1727277346050,-0.23950195,-1.1577759,-0.1531372,-5.796875,91.25,-4.53125
658,658,1727277346090,-0.26586914,-1.0501099,-0.08502197,17.21875,51.6875,4.546875
659,659,1727277346130,-0.09643555,-0.8110962,-0.066711426,28.734375,69.125,11.875
660,660,1727277346170,-0.19897461,-0.89971924,0.03314209,15.484375,103.984375,-1.9375
661,661,1727277346210,-0.7192383,-0.9151001,-0.28253174,2.78125,78.796875,-7.875
662,662,1727277346250,-0.53466797,-0.6646118,-0.4517212,22.296875,78.875,3.953125
663,663,1727277346290,-0.15478516,-0.8274536,-0.46881104,19.15625,78.5625,8.203125
664,664,1727277346330,0.011474609,-1.4277954,-0.20343018,-3.578125,83.90625,14.671875
665,665,1727277346370,-0.076660156,-1.3269653,0.1749878,18.0,101.921875,13.25
666,666,1727277346410,-0.34887695,-1.0591431,-0.25054932,2.453125,93.21875,17.75
667,667,1727277346450,-0.32641602,-0.90582275,-0.2769165,0.671875,68.203125,15.125
668,668,1727277346490,-0.33935547,-0.92633057,-0.19927979,3.3125,62.46875,8.359375
669,669,1727277346530,-0.3894043,-0.8748169,-0.16998291,8.265625,66.84375,8.390625
670,670,1727277346570,-0.14892578,-0.74346924,-0.32720947,-3.25,37.078125,3.1875
671,671,1727277346610,0.17382812,-0.63946533,-0.17095947,-15.5625,34.296875,1.671875
672,672,1727277346650,0.23828125,-0.53302,-0.3430786,-13.296875,21.953125,9.109375
673,673,1727277346690,0.18334961,-0.48736572,-0.04815674,-0.625,36.6875,14.71875
674,674,1727277346730,0.2705078,-0.9180298,0.19525146,8.21875,67.234375,0.5
675,675,1727277346770,0.14111328,-1.8692017,0.020690918,-0.984375,81.65625,-15.953125
676,676,1727277346810,0.125,-2.0,0.32733154,-2.53125,49.59375,-1.1875
677,677,1727277346850,-0.072509766,-1.5982056,0.0927124,-26.90625,20.40625,-22.765625
678,678,1727277346890,0.014160156,-1.117981,0.018493652,-10.390625,-9.59375,-10.515625
679,679,1727277346930,-0.010986328,-0.8413696,-0.05670166,1.671875,-6.015625,-8.890625
680,680,1727277346970,-0.18701172,-0.7593384,0.11224365,-4.890625,15.1875,-15.421875
681,681,1727277347010,-0.31152344,-0.76934814,0.168396,-16.5625,29.515625,-16.46875
682,682,1727277347050,-0.21679688,-0.46002197,0.10345459,5.359375,7.40625,-15.203125
683,683,1727277347090,-0.0390625,-0.22174072,-0.01763916,3.734375,15.03125,-21.84375
684,684,1727277347130,0.20825195,-0.14141846,-0.40631104,-20.15625,12.984375,-23.546875
685,685,1727277347170,-0.020507812,-0.32183838,-0.31402588,-2.25,-7.65625,-5.5625
686,686,1727277347210,-0.19995117,-2.0,-0.6585083,-22.421875,33.125,21.46875
687,687,1727277347250,-0.32543945,-1.5491333,0.555603,2.765625,61.375,6.046875
688,688,1727277347290,-0.37329102,-1.8235474,0.034118652,10.0,-7.9375,2.40625
689,689,1727277347330,-0.5126953,-1.1973267,0.035339355,26.390625,14.3125,28.78125
690,690,1727277347370,-0.23046875,-0.9656372,-0.1506958,-0.203125,20.515625,23.71875
691,691,1727277347410,-0.09765625,-0.68096924,-0.0947876,8.9375,24.234375,12.890625
692,692,1727277347450,-0.030517578,-0.62628174,0.001159668,-0.140625,16.25,-2.40625
693,693,1727277347490,-0.0625,-0.6211548,-0.13555908,-23.453125,-2.65625,-14.34375
694,694,1727277347530,-0.007080078,-0.4360962,-0.10845947,-19.40625,-8.59375,-8.65625
695,695,1727277347570,0.0949707,-0.29327393,-0.22735596,-14.125,-6.96875,-2.359375
696,696,1727277347610,0.13476562,-0.35235596,-0.11431885,-14.96875,-10.09375,-4.4375
697,697,1727277347650,0.32226562,-1.4993286,-0.21783447,6.59375,4.765625,-3.171875
698,698,1727277347690,-0.1706543,-2.0,0.5140991,-22.59375,52.34375,26.328125
699,699,1727277347730,-0.5776367,-1.3091431,-0.059143066,-7.484375,-8.53125,4.53125
700,700,1727277347770,-0.020019531,-1.298645,-0.06695557,-5.34375,-33.546875,-18.65625
701,701,1727277347810,0.12524414,-1.171936,0.34613037,19.859375,-32.140625,-28.640625
702,702,1727277347850,-0.15795898,-0.8999634,0.07684326,-10.078125,-14.8125,-13.4375
703,703,1727277347890,-0.3605957,-0.694397,0.029968262,-17.75,0.265625,-13.703125
704,704,1727277347930,-0.19995117,-0.44708252,0.07293701,-8.890625,8.984375,-15.671875
705,705,1727277347970,-0.0871582,-0.19854736,0.04437256,4.21875,5.703125,-15.375
706,706,1727277348010,0.095214844,-0.027160645,-0.11016846,2.59375,-0.125,-14.796875
707,707,1727277348050,0.20507812,-0.09454346,-0.52423096,-6.25,-11.03125,-1.5
708,708,1727277348090,-0.037353516,-1.4536743,-0.9973755,-7.328125,-27.046875,35.015625
709,709,1727277348130,-0.35913086,-1.6467896,0.776062,26.1875,59.234375,22.78125
710,710,1727277348170,-0.36132812,-1.9048462,0.1852417,-16.84375,17.703125,-20.234375
711,711,1727277348210,-0.2084961,-1.3450317,-0.06109619,21.046875,-9.0625,3.390625
712,712,1727277348250,-0.20336914,-1.4573364,0.050231934,-2.640625,-8.265625,17.953125
713,713,1727277348290,-0.2915039,-1.0227661,0.030944824,4.828125,29.75,17.796875
714,714,1727277348330,-0.017578125,-0.5940552,-0.09552002,1.265625,-0.328125,11.625
715,715,1727277348370,0.059326172,-0.5310669,-0.09991455,-27.46875,-17.796875,-2.171875
716,716,1727277348410,-0.0690918,-0.40411377,-0.16119385,-26.71875,-1.0,-10.28125
717,717,1727277348450,-0.12792969,-0.28179932,-0.18609619,-13.171875,-7.375,-4.75
718,718,1727277348490,0.049804688,-0.070617676,-0.047180176,-12.390625,-15.921875,-7.25
719,719,1727277348530,0.13842773,-0.57769775,0.014343262,22.96875,17.8125,-5.4375
720,720,1727277348570,0.51660156,-2.0,0.27947998,60.4375,-72.546875,24.25
721,721,1727277348610,-0.5925293,-1.7310181,-0.31134033,-54.703125,-2.203125,13.828125
722,722,1727277348650,-0.41870117,-1.2075806,-0.19073486,-5.109375,-11.84375,-16.96875
723,723,1727277348690,-0.07397461,-1.180481,-0.044006348,-11.546875,-19.125,-32.265625
724,724,1727277348730,-0.119140625,-0.98394775,0.36517334,8.390625,-28.625,-31.15625
725,725,1727277348770,-0.3684082,-0.93341064,0.3366089,-7.328125,14.71875,-12.296875
726,726,1727277348810,-0.21362305,-0.6712036,-0.012756348,-17.890625,25.9375,-14.46875
727,727,1727277348850,-0.057373047,-0.22491455,-0.003479004,0.0625,4.703125,-12.015625
728,728,1727277348890,0.059326172,0.026062012,-0.15557861,18.328125,-5.859375,-12.65625
729,729,1727277348930,0.12695312,-0.058654785,-0.54693604,12.421875,-19.28125,-8.203125
730,730,1727277348970,-0.22314453,-0.847229,-0.54278564,-9.484375,16.703125,36.03125
731,731,1727277349010,0.1105957,-2.0,1.107605,113.9375,-56.609375,59.28125
732,732,1727277349050,-0.008300781,-1.6494751,0.04046631,-34.765625,57.875,-11.15625
733,733,1727277349090,-0.47998047,-1.1851196,-0.18560791,5.40625,16.796875,7.265625
734,734,1727277349130,-0.29467773,-1.1887817,-0.046691895,-5.625,-10.296875,1.609375
735,735,1727277349170,-0.23413086,-1.187561,0.15960693,-8.5,13.46875,9.328125
736,736,1727277349210,-0.00024414062,-0.81988525,0.08123779,6.84375,46.90625,21.171875
737,737,1727277349250,-0.018554688,-0.6255493,0.018737793,-14.828125,23.609375,8.96875
738,738,1727277349290,-0.1694336,-0.45269775,-0.013977051,-26.953125,6.15625,-4.6875
739,739,1727277349330,-0.28027344,-0.29595947,-0.1716919,-24.453125,16.140625,-11.125
740,740,1727277349370,-0.33666992,-0.38775635,-0.3814087,-13.125,4.578125,-10.734375
741,741,1727277349410,-0.014892578,-0.6148071,-0.3098755,9.09375,0.984375,-16.203125
742,742,1727277349450,0.46289062,-2.0,0.2098999,27.1875,8.5625,-13.3125
743,743,1727277349490,0.24853516,-1.7210083,0.53826904,-2.40625,84.453125,22.53125
744,744,1727277349530,-0.30908203,-1.3621216,-0.4524536,-9.0625,40.203125,16.609375
745,745,1727277349570,-0.54248047,-1.0628052,-0.17388916,11.765625,45.953125,-21.65625
746,746,1727277349610,-0.2775879,-1.0859985,-0.13873291,1.453125,58.5625,-44.453125
747,747,1727277349650,-0.11230469,-1.0159302,-0.019348145,17.53125,36.65625,-38.390625
748,748,1727277349690,-0.1550293,-0.83013916,0.13323975,21.515625,99.28125,-0.34375
749,749,1727277349730,-0.14819336,-0.4336548,-0.2539673,18.25,122.859375,12.625
750,750,1727277349770,-0.17700195,-0.2300415,-0.34649658,29.984375,99.171875,-2.234375
751,751,1727277349810,-0.110839844,-0.2444458,-0.3460083,14.6875,73.359375,-18.15625
752,752,1727277349850,-0.064941406,-0.6279907,-0.32647705,13.046875,49.28125,-21.015625
753,753,1727277349890,-0.33007812,-1.5549927,-0.4915161,16.046875,93.9375,3.34375
754,754,1727277349930,-0.17016602,-1.7271118,0.06341553,66.78125,98.09375,45.375
755,755,1727277349970,-0.49047852,-1.0342407,-0.62823486,38.140625,110.359375,-9.4375
756,756,1727277350010,-0.49267578,-1.234436,-0.409729,5.671875,70.875,-16.171875
757,757,1727277350050,-0.21289062,-1.6174927,0.19940186,-3.765625,33.203125,13.90625
758,758,1727277350090,-0.21459961,-0.9776001,-0.10406494,35.671875,87.71875,27.109375
759,759,1727277350130,-0.6333008,-0.7593384,-0.34918213,5.90625,93.375,19.453125
