,Unnamed: 0,timestamp,accel_x,accel_y,accel_z,gyro_x,gyro_y,gyro_z
0,0,1727346446767,-1.0029297,-0.34527588,0.124694824,18.96875,-1.671875,1.015625
1,1,1727346446807,-1.0043945,-0.36773682,0.15716553,11.65625,-4.1875,-5.296875
2,2,1727346446847,-1.0019531,-0.4212036,0.07220459,5.875,1.640625,-14.15625
3,3,1727346446887,-0.9941406,-0.36602783,-0.17510986,-5.53125,-3.15625,-15.359375
4,4,1727346446927,-0.8183594,-0.2276001,-0.29522705,28.59375,-9.140625,-3.59375
5,5,1727346446967,-0.6401367,-0.0020141602,-0.13214111,3.734375,6.25,6.84375
6,6,1727346447007,-0.71728516,-0.37921143,-0.16998291,-34.203125,16.28125,-19.25
7,7,1727346447047,-1.4946289,-0.65948486,0.13006592,-29.65625,7.953125,-23.90625
8,8,1727346447087,-1.8374023,-0.18218994,-0.06378174,-3.640625,-4.421875,-18.03125
9,9,1727346447127,-1.2780762,-0.10308838,0.08270264,-4.828125,-9.078125,3.390625
10,10,1727346447167,-0.9929199,-0.21173096,-0.008850098,-10.265625,-4.296875,-2.671875
11,11,1727346447207,-1.0627441,-0.26202393,-0.066467285,4.515625,-3.921875,-1.578125
12,12,1727346447247,-0.9836426,-0.24298096,-0.10870361,8.90625,1.296875,10.90625
13,13,1727346447287,-0.5734863,-0.17877197,-0.15875244,13.859375,-1.578125,21.46875
14,14,1727346447327,-0.43725586,-0.1585083,-0.11553955,12.359375,-2.453125,11.0
15,15,1727346447367,-0.5871582,0.03753662,-0.035705566,0.015625,8.09375,2.21875
16,16,1727346447407,-0.4152832,-0.2942505,-0.04058838,-6.5,0.921875,7.359375
17,17,1727346447447,-0.79296875,-0.3748169,0.085632324,-24.34375,24.78125,-4.359375
18,18,1727346447487,-1.4919434,-0.7053833,-0.3821411,-33.4375,-24.0,-18.4375
19,19,1727346447527,-2.0,-0.8867798,0.22357178,3.015625,57.203125,8.765625
20,20,1727346447567,-1.3591309,0.35150146,-0.09503174,1.53125,-8.5625,-1.625
21,21,1727346447607,-1.2006836,-0.36627197,0.02166748,-1.59375,-4.40625,-10.28125
22,22,1727346447647,-1.1777344,-0.8255005,0.24700928,-7.203125,19.03125,2.046875
23,23,1727346447687,-0.6484375,-0.022277832,-0.022766113,2.21875,-7.09375,6.71875
24,24,1727346447727,-0.23706055,0.17156982,-0.17510986,5.078125,8.90625,-10.6875
25,25,1727346447767,-0.15283203,-0.13116455,0.04119873,32.21875,8.640625,-5.3125
26,26,1727346447807,-0.091308594,-0.37579346,-0.028137207,23.859375,10.890625,-6.578125
27,27,1727346447847,-0.29638672,0.019470215,-0.3196411,5.28125,-8.21875,-2.5
28,28,1727346447887,-1.1799316,-0.04498291,-0.13970947,-37.265625,59.453125,-56.25
29,29,1727346447927,-2.0,-2.0,-0.09942627,2.140625,-7.953125,-3.71875
30,30,1727346447967,-1.5439453,0.27069092,0.44744873,37.921875,-13.21875,4.109375
31,31,1727346448007,-0.7883301,-0.055236816,0.30560303,-8.453125,8.1875,-14.703125
32,32,1727346448047,-1.2729492,-0.331604,0.028503418,14.1875,-32.484375,0.390625
33,33,1727346448087,-1.0178223,-0.12701416,0.045837402,-1.484375,-18.96875,14.15625
34,34,1727346448127,-0.56152344,-0.22906494,-0.1338501,3.484375,4.8125,15.6875
35,35,1727346448167,-0.140625,-0.40216064,-0.1873169,-4.59375,-0.75,14.34375
36,36,1727346448207,-0.18652344,0.039489746,-0.17193604,-8.75,-10.640625,5.40625
37,37,1727346448247,-0.29125977,-0.097961426,0.05682373,4.828125,-18.578125,5.90625
38,38,1727346448287,-0.67163086,-0.16851807,0.07171631,-34.515625,-5.421875,-3.25
39,39,1727346448327,-1.7016602,-0.7151489,-0.17095947,-33.21875,8.765625,-54.921875
40,40,1727346448367,-2.0,-0.81134033,0.19696045,-28.75,20.921875,71.09375
41,41,1727346448407,-1.057373,0.5765991,-0.012756348,4.09375,-22.609375,-15.0625
42,42,1727346448447,-1.2670898,-0.14190674,0.02923584,-7.09375,-8.015625,-4.46875
43,43,1727346448487,-1.1105957,-0.9993286,0.2345581,-15.71875,20.5,21.265625
44,44,1727346448527,-0.4321289,-0.019348145,-0.059387207,6.28125,-14.84375,15.125
45,45,1727346448567,-0.23828125,0.22943115,-0.22857666,0.8125,14.078125,-1.5625
46,46,1727346448607,-0.13867188,0.074645996,0.05316162,41.625,4.234375,-7.1875
47,47,1727346448647,-0.04272461,-0.22271729,-0.13311768,47.21875,11.84375,-6.109375
48,48,1727346448687,-0.46972656,-0.105773926,-0.34088135,-12.453125,1.15625,-0.53125
49,49,1727346448727,-1.4714355,-0.027893066,-0.09039307,-26.5625,60.109375,-66.265625
50,50,1727346448767,-2.0,-2.0,-0.1675415,-30.0625,1.5625,69.890625
51,51,1727346448807,-1.5300293,0.21160889,0.6051636,63.25,-44.78125,-10.578125
52,52,1727346448847,-1.1789551,-0.1338501,0.48114014,22.546875,31.578125,-2.734375
53,53,1727346448887,-0.6569824,-0.14117432,0.016540527,14.578125,-9.484375,16.140625
54,54,1727346448927,-0.46899414,-0.121398926,-0.5388794,-2.078125,-24.828125,27.34375
55,55,1727346448967,-0.5085449,-0.9663696,0.18719482,-4.296875,1.46875,14.609375
56,56,1727346449007,-0.13964844,-0.24835205,-0.24713135,-16.984375,-5.734375,8.171875
57,57,1727346449047,-0.2878418,0.6947632,-0.117492676,3.765625,-15.34375,6.46875
58,58,1727346449087,-0.15844727,-0.3970337,-0.36553955,-48.4375,-4.46875,1.546875
59,59,1727346449127,-0.9814453,-1.0794067,0.27825928,-22.296875,46.546875,-50.40625
60,60,1727346449167,-2.0,-1.5808716,-0.7161255,-62.984375,-51.828125,73.359375
61,61,1727346449207,-0.99609375,0.99261475,-0.21685791,9.5625,-1.546875,-6.078125
62,62,1727346449247,-1.2214355,0.16522217,0.010437012,14.53125,17.234375,-45.203125
63,63,1727346449287,-1.204834,-1.1152954,0.20501709,-28.875,0.0,32.125
64,64,1727346449327,-0.6086426,-0.16851807,-0.046936035,-5.25,-10.625,13.4375
65,65,1727346449367,-0.24511719,0.16375732,-0.038635254,-11.171875,4.90625,-3.421875
66,66,1727346449407,-0.07861328,0.061706543,-0.20172119,10.78125,7.015625,-14.6875
67,67,1727346449447,-0.19311523,-0.14068604,-0.11090088,25.0,4.390625,-5.328125
68,68,1727346449487,-0.44628906,-0.46099854,-0.27593994,-13.53125,13.9375,0.375
69,69,1727346449527,-1.3515625,-0.13897705,0.035827637,21.734375,51.0625,-43.5625
70,70,1727346449567,-2.0,-0.48101807,-0.014709473,-10.59375,21.671875,-22.734375
71,71,1727346449607,-1.6420898,-0.3994751,0.64105225,39.171875,-38.328125,24.71875
72,72,1727346449647,-1.1796875,-0.6682739,0.20574951,21.171875,19.859375,-10.234375
73,73,1727346449687,-1.1364746,0.047790527,-0.054992676,11.46875,-12.09375,-4.09375
74,74,1727346449727,-0.57788086,0.105407715,-0.035217285,-2.390625,-17.953125,21.8125
75,75,1727346449767,-0.2553711,-0.3965454,-0.10845947,16.34375,-2.15625,15.5
76,76,1727346449807,-0.08203125,-0.18243408,-0.286438,-5.828125,-0.078125,4.109375
77,77,1727346449847,-0.17211914,-0.038635254,-0.17877197,-4.6875,-20.015625,17.390625
78,78,1727346449887,-0.34716797,-0.27960205,-0.3008423,-35.5,1.015625,4.734375
79,79,1727346449927,-1.2004395,-0.631897,0.4545288,-41.265625,39.9375,-45.671875
80,80,1727346449967,-2.0,-2.0,-0.3994751,-7.703125,-106.046875,27.28125
81,81,1727346450007,-1.1611328,0.246521,0.30267334,44.359375,33.0,7.3125
82,82,1727346450047,-1.1779785,0.4923706,-0.026428223,12.578125,-14.328125,-26.484375
83,83,1727346450087,-1.2570801,-0.74542236,0.2189331,-12.6875,2.0,22.828125
84,84,1727346450127,-0.7141113,-0.42926025,-0.031555176,7.6875,-19.703125,18.6875
85,85,1727346450167,-0.35498047,0.1696167,-0.061584473,-6.671875,0.9375,-4.125
86,86,1727346450207,-0.14672852,0.05291748,0.00970459,-14.640625,4.625,-11.140625
87,87,1727346450247,-0.32177734,-0.07891846,-0.04449463,4.203125,15.25,-8.46875
88,88,1727346450287,-0.36621094,-0.3171997,-0.07891846,13.203125,11.0625,-6.875
89,89,1727346450327,-0.8618164,-0.06402588,-0.37261963,-21.140625,38.28125,-15.640625
90,90,1727346450367,-1.6018066,-0.1182251,-0.117492676,23.453125,37.71875,-59.375
91,91,1727346450407,-2.0,-1.1831665,0.5560913,-30.1875,19.984375,39.578125
92,92,1727346450447,-1.8820801,-0.15533447,0.3366089,31.328125,-10.953125,-8.078125
93,93,1727346450487,-1.3925781,-0.16339111,0.15692139,33.4375,-20.640625,13.75
94,94,1727346450527,-0.6435547,-0.2720337,0.093933105,28.953125,-29.9375,18.671875
95,95,1727346450567,-0.579834,-0.06402588,-0.12164307,2.515625,-21.859375,13.890625
96,96,1727346450607,-0.3708496,-0.28009033,-0.066711426,11.984375,0.46875,7.875
97,97,1727346450647,-0.14697266,-0.23883057,-0.27545166,6.25,-12.875,18.734375
98,98,1727346450687,-0.14501953,-0.030578613,-0.2053833,-5.046875,-9.3125,12.0
99,99,1727346450727,-0.20629883,-0.28277588,-0.51031494,-37.515625,-3.3125,0.015625
100,100,1727346450767,-1.0939941,-0.7473755,0.6793823,-36.8125,46.90625,-34.140625
101,101,1727346450807,-2.0,-2.0,-0.38409424,2.9375,-92.5,-11.15625
102,102,1727346450847,-1.4626465,0.12200928,0.5055542,7.546875,83.984375,7.890625
103,103,1727346450887,-1.2382812,0.43450928,-0.04864502,-2.203125,-2.078125,-40.453125
104,104,1727346450927,-1.2844238,-0.9661255,0.26531982,-6.375,-10.28125,13.25
105,105,1727346450967,-0.66137695,-0.54107666,0.055358887,-15.0625,-0.234375,11.640625
106,106,1727346451007,-0.27734375,0.030944824,-0.07647705,-10.296875,-0.65625,3.796875
107,107,1727346451047,-0.07763672,0.22625732,-0.093811035,-0.1875,2.453125,-10.1875
108,108,1727346451087,-0.056152344,0.06951904,-0.11431885,26.609375,21.171875,-13.609375
109,109,1727346451127,-0.16479492,-0.39312744,-0.41290283,6.25,3.90625,2.28125
110,110,1727346451167,-1.1818848,-0.051574707,-0.253479,-23.25,61.28125,-35.703125
111,111,1727346451207,-2.0,-1.0664673,0.20794678,36.09375,23.875,-55.484375
112,112,1727346451247,-2.0,-0.28936768,0.6300659,44.171875,-20.171875,13.265625
113,113,1727346451287,-1.4509277,0.20404053,0.40447998,23.703125,17.640625,-16.5
114,114,1727346451327,-0.8864746,-0.35064697,0.04510498,30.078125,-12.75,-1.65625
115,115,1727346451367,-0.6052246,-0.2630005,-0.15216064,-5.234375,-17.953125,18.640625
116,116,1727346451407,-0.94433594,0.0211792,-0.17584229,8.1875,-8.40625,-2.640625
117,117,1727346451447,-0.1887207,-0.3579712,-0.3098755,18.78125,-18.734375,35.921875
118,118,1727346451487,0.1027832,-0.17999268,-0.031066895,20.109375,-18.734375,31.109375
119,119,1727346451527,0.072021484,-0.003967285,-0.17218018,-23.453125,-1.671875,4.453125
120,120,1727346451567,-0.70532227,-0.29083252,0.18963623,-23.96875,-15.25,-30.078125
121,121,1727346451607,-2.0,-1.149231,0.11517334,-66.75,8.484375,-85.25
122,122,1727346451647,-1.8823242,-0.364563,0.30389404,9.953125,48.734375,68.28125
123,123,1727346451687,-1.0026855,0.73309326,0.1749878,-1.859375,-38.765625,-41.5
124,124,1727346451727,-1.550293,-0.2564087,0.14129639,-26.75,-14.40625,-2.046875
125,125,1727346451767,-1.1428223,-1.0188599,0.1942749,-22.40625,15.734375,19.96875
126,126,1727346451807,-0.39111328,0.06512451,-0.15509033,-3.328125,-3.625,10.71875
127,127,1727346451847,0.23779297,0.37469482,-0.16168213,14.359375,11.828125,-2.0625
128,128,1727346451887,0.095703125,-0.007385254,-0.12408447,33.421875,14.25,-10.359375
129,129,1727346451927,-0.052978516,-0.25274658,-0.20635986,10.640625,-2.609375,1.0
130,130,1727346451967,-0.81933594,-0.0068969727,-0.36138916,-34.328125,26.734375,-21.703125
131,131,1727346452007,-2.0,-0.5877075,0.14593506,-8.078125,28.96875,-80.765625
132,132,1727346452047,-2.0,-0.850647,1.0558472,44.109375,39.84375,15.0
133,133,1727346452087,-1.4663086,0.6166382,0.5006714,17.9375,3.921875,-22.765625
134,134,1727346452127,-1.2202148,-0.2625122,-0.09307861,22.515625,3.65625,-5.59375
135,135,1727346452167,-0.88061523,-0.52056885,-6.1035156e-05,33.765625,-13.84375,26.421875
136,136,1727346452207,-0.90356445,-0.23297119,-0.16998291,7.8125,-19.8125,-3.453125
137,137,1727346452247,-0.2434082,-0.38555908,-0.038635254,36.15625,-6.171875,33.5
138,138,1727346452287,0.20166016,-0.059387207,-0.20855713,-6.984375,-11.78125,21.765625
139,139,1727346452327,0.18847656,0.1395874,-0.17242432,-12.09375,-4.5,18.984375
140,140,1727346452367,-0.1508789,-0.33258057,-0.6392212,-64.578125,-21.21875,-10.75
141,141,1727346452407,-1.3935547,-0.8086548,0.26116943,-84.765625,41.75,-54.109375
142,142,1727346452447,-2.0,-1.727356,-0.87628174,-54.859375,-115.78125,124.765625
143,143,1727346452487,-0.9592285,-0.15509033,-0.09625244,-1.984375,-0.328125,-74.421875
144,144,1727346452527,-1.6799316,0.7946167,-0.13873291,-8.203125,0.390625,-25.375
145,145,1727346452567,-1.3081055,-1.0610962,0.42645264,-42.15625,24.71875,37.609375
146,146,1727346452607,-0.6845703,-0.26104736,-0.066467285,-6.609375,5.1875,5.609375
147,147,1727346452647,-0.037353516,0.05706787,-0.21539307,-13.078125,11.40625,7.171875
148,148,1727346452687,0.018554688,0.23626709,-0.08892822,14.28125,2.765625,-10.96875
149,149,1727346452727,0.041015625,-0.09210205,-0.022766113,33.59375,5.609375,-16.234375
150,150,1727346452767,0.0043945312,-0.28985596,-0.3526001,-6.734375,-11.015625,11.4375
151,151,1727346452807,-0.7922363,-0.11431885,-0.20318604,-56.40625,35.953125,-23.0625
152,152,1727346452847,-2.0,-0.3748169,0.37982178,30.03125,7.796875,-130.26562
153,153,1727346452887,-1.9094238,-0.538147,0.85076904,45.9375,69.203125,50.09375
154,154,1727346452927,-1.3376465,0.6222534,0.46185303,35.265625,28.828125,-39.546875
155,155,1727346452967,-1.4445801,-0.12994385,0.23822021,32.109375,12.15625,-11.96875
156,156,1727346453007,-1.0637207,-0.48150635,-0.20758057,12.6875,0.5625,2.0625
157,157,1727346453047,-0.8781738,-0.42340088,-0.12628174,36.390625,-18.65625,16.4375
158,158,1727346453087,-0.07348633,-0.25274658,0.024108887,42.859375,-4.484375,26.859375
159,159,1727346453127,0.22143555,0.10321045,-0.20245361,0.234375,-1.953125,20.953125
160,160,1727346453167,0.1159668,-0.08795166,-0.21734619,0.4375,-7.8125,18.34375
161,161,1727346453207,-0.23242188,-0.39068604,-0.38165283,-59.21875,-25.3125,1.734375
162,162,1727346453247,-1.6286621,-0.8479614,0.26727295,-52.15625,36.96875,-68.984375
163,163,1727346453287,-2.0,-0.7283325,-0.58673096,-39.828125,-65.484375,141.34375
164,164,1727346453327,-0.9482422,-0.23028564,-0.04864502,-10.265625,1.328125,-49.90625
165,165,1727346453367,-1.6586914,0.7926636,-0.059631348,3.546875,12.4375,-25.828125
166,166,1727346453407,-1.2758789,-1.192688,0.28778076,-31.515625,42.703125,26.734375
167,167,1727346453447,-0.5131836,-0.2876587,-0.1638794,2.53125,2.6875,16.078125
168,168,1727346453487,-0.01928711,0.14349365,-0.11236572,-8.703125,23.015625,-1.140625
169,169,1727346453527,0.011230469,0.29022217,-0.05670166,29.890625,1.40625,2.90625
170,170,1727346453567,0.0234375,-0.10235596,-0.042053223,32.421875,15.453125,-3.75
171,171,1727346453607,-0.4013672,-0.22979736,-0.5515747,-18.25,-0.109375,-7.65625
172,172,1727346453647,-1.6774902,-0.24224854,-0.04473877,30.984375,71.171875,-55.640625
173,173,1727346453687,-2.0,-1.3174438,0.215271,6.5,2.5,40.15625
174,174,1727346453727,-1.3339844,0.05706787,0.42352295,60.890625,-52.5625,6.671875
175,175,1727346453767,-1.1916504,0.081726074,0.20452881,34.109375,17.046875,-36.421875
176,176,1727346453807,-1.0705566,-0.36749268,0.10028076,32.53125,-21.25,19.671875
177,177,1727346453847,-0.7697754,-0.06329346,-0.19268799,21.640625,-5.78125,11.859375
178,178,1727346453887,-0.34814453,-0.15948486,-0.1272583,38.734375,-14.859375,24.828125
179,179,1727346453927,0.018066406,-0.16339111,-0.20465088,7.265625,-13.4375,10.390625
180,180,1727346453967,-0.103027344,0.2111206,-0.1921997,7.4375,-3.3125,18.484375
181,181,1727346454007,-0.18969727,-0.30108643,-0.50445557,-63.3125,1.65625,-1.59375
182,182,1727346454047,-1.0744629,-0.97125244,0.67230225,-62.078125,55.78125,-64.0
183,183,1727346454087,-2.0,-2.0,-0.7427368,-35.921875,-98.21875,38.5
184,184,1727346454127,-1.3498535,0.3595581,0.058044434,51.828125,10.890625,7.15625
185,185,1727346454167,-1.1218262,0.4225464,-0.014221191,-15.265625,-6.453125,-34.421875
186,186,1727346454207,-1.4382324,-0.8584595,0.3312378,-17.765625,7.421875,26.953125
187,187,1727346454247,-0.83251953,-0.35992432,0.028259277,2.1875,-11.5625,4.421875
188,188,1727346454287,-0.1965332,0.26556396,-0.12579346,-9.609375,-8.625,9.1875
189,189,1727346454327,-0.032714844,0.06951904,-0.08673096,6.984375,3.046875,-11.46875
190,190,1727346454367,-0.22509766,0.016784668,-0.094055176,27.875,3.1875,-10.0
191,191,1727346454407,-0.15917969,-0.28692627,0.07659912,28.671875,-8.3125,-2.578125
192,192,1727346454447,-0.69189453,-0.09844971,-0.56329346,-46.375,27.328125,-8.515625
193,193,1727346454487,-1.8227539,0.08856201,-0.21246338,12.21875,19.015625,-71.265625
194,194,1727346454527,-2.0,-1.5620728,0.66522217,8.25,71.703125,47.078125
195,195,1727346454567,-1.3417969,0.2723999,0.6950073,25.546875,-21.59375,-38.5
196,196,1727346454607,-1.2199707,-0.024475098,0.036315918,26.28125,-11.71875,-6.4375
197,197,1727346454647,-1.0837402,-0.34088135,0.08831787,37.28125,-12.515625,12.609375
198,198,1727346454687,-0.73217773,-0.269104,-0.046447754,16.046875,-19.59375,10.953125
199,199,1727346454727,-0.30810547,-0.3213501,-0.14605713,5.515625,-6.0,12.34375
200,200,1727346454767,-0.22485352,-0.25787354,-0.15899658,-6.40625,-6.921875,13.375
201,201,1727346454807,-0.22143555,0.21234131,-0.20928955,-9.484375,-16.375,9.984375
202,202,1727346454847,-0.19580078,-0.23272705,-0.5857544,-41.21875,-4.8125,-1.5
203,203,1727346454887,-0.8635254,-1.0391235,0.6622925,-44.53125,31.671875,-26.03125
204,204,1727346454927,-2.0,-2.0,-0.3850708,-29.1875,-56.875,-29.8125
205,205,1727346454967,-1.6977539,0.3703003,0.36883545,13.6875,66.734375,27.671875
206,206,1727346455007,-1.0061035,0.08001709,0.06781006,-21.546875,-10.625,-29.140625
207,207,1727346455047,-1.3491211,-0.5796509,0.08685303,-28.53125,-26.65625,5.921875
208,208,1727346455087,-0.96118164,-0.3789673,0.1317749,-10.578125,-4.640625,16.390625
209,209,1727346455127,-0.24243164,0.06561279,-0.05987549,-4.859375,-4.046875,7.390625
210,210,1727346455167,-0.095214844,-0.012512207,-0.07525635,-8.0625,-5.875,-4.6875
211,211,1727346455207,-0.25952148,-0.120666504,0.11566162,9.71875,-3.40625,-5.71875
212,212,1727346455247,-0.30810547,-0.3406372,-0.2810669,-9.875,14.21875,2.78125
213,213,1727346455287,-0.8352051,0.05657959,-0.44073486,-45.015625,31.265625,-24.890625
214,214,1727346455327,-2.0,-0.8399048,0.23675537,18.796875,13.84375,-61.125
215,215,1727346455367,-1.8874512,-0.20123291,0.49847412,30.921875,5.59375,8.171875
216,216,1727346455407,-1.2043457,-0.14923096,0.24847412,21.921875,2.140625,-1.671875
217,217,1727346455447,-1.2329102,-0.2901001,0.061950684,14.46875,-31.59375,-5.046875
218,218,1727346455487,-0.67041016,-0.113098145,-0.15093994,19.421875,-39.296875,38.265625
219,219,1727346455527,-0.7753906,0.014831543,-0.19732666,15.625,-20.390625,15.921875
220,220,1727346455567,-0.29077148,-0.4414673,-0.19439697,6.8125,16.5625,1.140625
221,221,1727346455607,-0.06762695,-0.11602783,-0.14019775,2.875,-1.265625,12.796875
222,222,1727346455647,-0.17749023,0.1149292,-0.06964111,1.59375,9.40625,6.921875
223,223,1727346455687,-0.43652344,-0.26055908,-0.2444458,-67.84375,19.109375,-0.828125
224,224,1727346455727,-1.4841309,-0.94317627,-0.24493408,-83.984375,43.3125,-52.84375
225,225,1727346455767,-2.0,-1.3381958,0.27069092,-9.265625,3.984375,62.46875
226,226,1727346455807,-1.3679199,0.7675171,0.019226074,24.234375,-27.0625,-42.46875
227,227,1727346455847,-1.4438477,0.32806396,0.011169434,-15.390625,7.109375,-20.4375
228,228,1727346455887,-1.2590332,-1.4373169,0.44036865,-33.84375,-1.21875,28.4375
229,229,1727346455927,-0.61499023,-0.16265869,-0.1116333,3.296875,-3.8125,7.0625
230,230,1727346455967,-0.1640625,0.3475952,0.06121826,-12.234375,0.515625,6.140625
231,231,1727346456007,0.0087890625,0.13665771,-0.29742432,10.765625,19.046875,-3.671875
232,232,1727346456047,0.0126953125,-0.16314697,0.028015137,17.171875,-1.703125,-5.109375
233,233,1727346456087,-0.41967773,-0.23492432,-0.52130127,-12.390625,11.71875,-10.78125
234,234,1727346456127,-1.8212891,-0.10333252,-0.019348145,22.265625,68.328125,-71.34375
235,235,1727346456167,-2.0,-1.3633423,0.2819214,-32.921875,1.765625,76.203125
236,236,1727346456207,-1.222168,-0.120910645,0.45184326,42.609375,-5.09375,-18.40625
237,237,1727346456247,-1.5861816,-0.09039307,0.054626465,23.546875,1.5625,-17.4375
238,238,1727346456287,-0.8930664,-0.394104,0.117126465,22.4375,-31.8125,35.171875
239,239,1727346456327,-0.6057129,-0.13580322,-0.011779785,2.34375,-15.0625,8.171875
240,240,1727346456367,-0.5644531,0.073913574,-0.1404419,18.546875,-14.78125,3.5
241,241,1727346456407,-0.30566406,-0.28570557,-0.07867432,16.96875,4.578125,9.171875
242,242,1727346456447,-0.15332031,0.035095215,-0.20465088,9.4375,-3.1875,12.5
243,243,1727346456487,-0.18383789,-0.31085205,-0.3982544,-2.296875,-4.546875,10.59375
244,244,1727346456527,-1.1633301,-0.58599854,0.5248413,-44.796875,51.90625,-30.15625
245,245,1727346456567,-2.0,-1.8093872,-0.39312744,11.984375,-100.46875,-44.90625
246,246,1727346456607,-1.3676758,-0.1326294,0.1876831,44.40625,13.5,17.140625
247,247,1727346456647,-1.248291,0.6642456,0.112976074,18.203125,9.046875,-40.96875
248,248,1727346456687,-1.2404785,-0.31549072,0.137146,2.578125,32.1875,25.234375
249,249,1727346456727,-0.86694336,-0.8701782,0.10247803,8.546875,18.234375,7.046875
250,250,1727346456767,-0.5048828,0.09588623,-0.022277832,27.125,-0.34375,12.796875
251,251,1727346456807,-0.10571289,0.2670288,-0.10772705,15.921875,13.140625,5.015625
252,252,1727346456847,-0.10522461,-0.13482666,-0.22247314,26.59375,20.3125,-10.0
253,253,1727346456887,-0.5024414,-0.45440674,-0.32183838,1.265625,37.046875,-1.734375
254,254,1727346456927,-1.5019531,-0.23321533,-0.2925415,29.875,51.265625,-38.171875
255,255,1727346456967,-1.8574219,-0.92755127,0.17938232,13.078125,-5.15625,22.953125
256,256,1727346457007,-1.394043,-0.17608643,0.29119873,29.796875,-4.171875,-6.921875
257,257,1727346457047,-1.8144531,-0.26983643,0.22943115,40.140625,10.984375,-21.109375
258,258,1727346457087,-1.5876465,-0.035217285,-0.028869629,53.28125,-11.796875,32.71875
259,259,1727346457127,-0.63720703,-0.10455322,0.012145996,46.734375,-0.046875,16.09375
260,260,1727346457167,-0.5324707,0.024597168,-0.03253174,30.109375,6.4375,2.796875
261,261,1727346457207,-0.35229492,-0.082092285,-0.101623535,22.6875,17.25,14.28125
262,262,1727346457247,-0.42773438,-0.16363525,-0.108947754,7.203125,29.0,7.28125
263,263,1727346457287,-0.33203125,-0.124572754,-0.36749268,4.75,6.90625,5.046875
264,264,1727346457327,-0.7861328,0.09637451,-0.4578247,75.34375,0.4375,39.0625
265,265,1727346457367,-0.7180176,-0.6807251,-0.3352661,81.34375,16.890625,8.453125
266,266,1727346457407,-0.61328125,-0.40582275,-0.24005127,75.578125,6.890625,12.921875
267,267,1727346457447,-0.25073242,-0.27886963,-0.010803223,41.65625,44.25,28.125
268,268,1727346457487,0.080566406,-0.07525635,-0.078186035,24.015625,30.046875,12.484375
269,269,1727346457527,-0.27392578,-0.1885376,0.0060424805,-19.296875,38.46875,-8.71875
270,270,1727346457567,-0.9428711,-0.14703369,-0.4800415,-12.25,37.546875,-53.828125
271,271,1727346457607,-2.0,-1.5117798,-0.82476807,-6.0,-98.296875,133.29688
272,272,1727346457647,-0.012451172,-1.5591431,0.14764404,33.15625,24.1875,-51.96875
273,273,1727346457687,-2.0,0.871521,-0.13043213,18.625,37.046875,-36.6875
274,274,1727346457727,-1.8056641,-0.04034424,0.10321045,25.671875,-31.921875,31.953125
275,275,1727346457767,-0.7651367,-0.9421997,0.18572998,5.78125,-5.890625,-15.21875
276,276,1727346457807,-0.5065918,-0.05645752,-0.059631348,21.0,2.734375,1.875
277,277,1727346457847,-0.23754883,0.3222046,0.040222168,24.3125,37.078125,2.734375
278,278,1727346457887,0.25805664,-0.017150879,-0.10284424,26.09375,41.515625,-16.265625
279,279,1727346457927,0.08251953,-0.10626221,-0.20758057,19.5,40.765625,-35.140625
280,280,1727346457967,-0.5673828,-0.27398682,-0.5342407,-6.640625,22.078125,-39.40625
281,281,1727346458007,-1.8850098,-0.27545166,0.07611084,30.109375,72.078125,-60.71875
282,282,1727346458047,-2.0,-0.6079712,0.60858154,28.921875,22.375,11.453125
283,283,1727346458087,-1.2019043,0.11810303,0.4442749,50.15625,-0.4375,-6.765625
284,284,1727346458127,-1.4841309,-0.3694458,0.17425537,24.90625,10.296875,-7.578125
285,285,1727346458167,-1.6208496,-0.79278564,0.06439209,33.046875,-65.0,2.046875
286,286,1727346458207,-0.7775879,-0.04425049,-0.03668213,53.0,-18.03125,13.546875
287,287,1727346458247,-0.37353516,0.12689209,0.015808105,7.78125,-6.015625,14.703125
288,288,1727346458287,-0.34960938,-0.108947754,-0.11138916,28.1875,3.359375,13.53125
289,289,1727346458327,-0.11791992,-0.113586426,-0.18389893,9.03125,4.921875,22.375
290,290,1727346458367,0.025146484,-0.14703369,-0.2962036,-43.28125,13.71875,14.125
291,291,1727346458407,-0.53686523,-0.35723877,-0.15582275,-29.71875,9.03125,-18.9375
292,292,1727346458447,-2.0,-1.4302368,-0.13775635,-51.625,-26.671875,-51.671875
293,293,1727346458487,-1.8344727,-0.13092041,0.16522217,30.03125,24.03125,2.78125
294,294,1727346458527,-1.3156738,0.83343506,-0.005432129,-6.765625,-10.703125,-17.609375
295,295,1727346458567,-1.328125,-0.8418579,0.19158936,-0.984375,4.296875,-9.078125
296,296,1727346458607,-1.1157227,-0.96832275,0.20404053,-10.1875,-6.3125,-4.359375
297,297,1727346458647,-0.5812988,0.29681396,-0.05596924,-7.140625,-11.328125,4.84375
298,298,1727346458687,-0.01928711,0.4545288,-0.40338135,22.140625,19.984375,5.8125
299,299,1727346458727,0.0871582,-0.078186035,-0.082092285,44.296875,10.8125,-8.640625
300,300,1727346458767,-0.039794922,-0.34942627,-0.36212158,11.96875,3.734375,-2.921875
301,301,1727346458807,-0.71118164,-0.18121338,-0.19781494,-21.46875,27.015625,-9.515625
302,302,1727346458847,-2.0,-0.8040161,0.21356201,11.515625,20.875,-61.234375
303,303,1727346458887,-2.0,-0.46295166,0.1293335,-2.921875,25.671875,10.125
304,304,1727346458927,-1.2734375,-0.14385986,0.41448975,34.203125,-12.34375,1.9375
305,305,1727346458967,-1.5893555,-0.548645,0.049987793,32.953125,-22.78125,-20.125
306,306,1727346459007,-1.0085449,-0.2654419,0.06854248,33.328125,-29.015625,6.96875
307,307,1727346459047,-0.7036133,0.01727295,-0.12628174,5.90625,-17.109375,12.953125
308,308,1727346459087,-0.42626953,-0.07598877,-0.074035645,8.109375,0.90625,21.171875
309,309,1727346459127,0.15576172,-0.3279419,-0.3406372,10.296875,-10.078125,29.359375
310,310,1727346459167,0.10913086,-0.15582275,-0.1404419,2.296875,-14.75,12.53125
311,311,1727346459207,-0.19848633,-0.30841064,-0.6199341,-93.28125,-19.109375,-10.90625
312,312,1727346459247,-1.3059082,-0.4866333,0.007751465,-69.75,26.125,-58.734375
313,313,1727346459287,-2.0,-1.0977173,-0.7979126,-74.015625,-60.84375,128.39062
314,314,1727346459327,-0.8125,-0.077941895,-0.3303833,-4.390625,16.578125,-44.078125
315,315,1727346459367,-1.5332031,0.10418701,-0.18634033,-7.84375,-24.140625,-25.546875
316,316,1727346459407,-1.3566895,-1.1763306,0.27386475,-15.265625,29.3125,19.390625
317,317,1727346459447,-0.6791992,-0.09893799,0.07293701,4.078125,-9.265625,8.5625
318,318,1727346459487,0.024658203,0.46746826,-0.15338135,6.109375,3.1875,-2.109375
319,319,1727346459527,0.099365234,0.322937,-0.20098877,21.203125,19.609375,-3.0625
320,320,1727346459567,-0.14892578,-0.39727783,-0.05596924,32.078125,15.71875,-17.265625
321,321,1727346459607,-0.21826172,-0.2715454,-0.487854,-28.1875,-4.484375,6.4375
322,322,1727346459647,-0.99438477,-0.038391113,-0.20562744,-24.125,62.234375,-31.78125
323,323,1727346459687,-2.0,-1.5405884,0.20892334,0.984375,3.71875,-35.265625
324,324,1727346459727,-1.8288574,-0.43341064,0.3829956,24.640625,-29.71875,3.21875
325,325,1727346459767,-1.607666,0.04852295,0.2411499,40.828125,-24.390625,14.859375
326,326,1727346459807,-1.4899902,-0.23712158,0.14520264,40.34375,0.3125,-9.21875
327,327,1727346459847,-0.8820801,-0.069885254,-0.2288208,17.4375,-7.90625,-0.484375
328,328,1727346459887,-0.3161621,-0.31280518,-0.18414307,43.03125,-4.421875,28.25
329,329,1727346459927,0.018554688,-0.44244385,-0.21685791,11.578125,-3.15625,19.34375
330,330,1727346459967,0.095458984,-0.08648682,-0.28204346,-13.015625,-11.625,35.6875
331,331,1727346460007,-0.07006836,-0.054260254,0.055358887,-22.765625,-5.265625,9.90625
332,332,1727346460047,-0.2253418,-0.29083252,-0.3880005,-57.296875,-20.171875,-24.734375
333,333,1727346460087,-1.5979004,-0.27423096,-0.19732666,-45.71875,1.515625,-55.09375
334,334,1727346460127,-2.0,-1.6416626,-0.50006104,-85.109375,-32.453125,118.234375
335,335,1727346460167,-0.8564453,0.44281006,-0.11651611,13.890625,-24.484375,-58.546875
336,336,1727346460207,-1.6123047,0.09515381,-0.1831665,-10.84375,-4.5625,-6.859375
337,337,1727346460247,-1.2011719,-0.9817505,0.13494873,-18.890625,25.859375,22.984375
338,338,1727346460287,-0.390625,-0.16802979,-0.031555176,14.53125,0.671875,9.796875
339,339,1727346460327,-0.020751953,0.2850952,-0.23687744,8.59375,23.15625,-0.796875
340,340,1727346460367,0.11987305,0.17669678,-0.2498169,33.78125,12.609375,-9.671875
341,341,1727346460407,0.040771484,-0.42022705,-0.051818848,31.375,16.796875,-15.375
342,342,1727346460447,-0.28808594,-0.23272705,-0.6609497,-25.359375,5.203125,6.046875
343,343,1727346460487,-1.4475098,-0.08770752,-0.13482666,-11.53125,153.65625,-81.296875
344,344,1727346460527,-2.0,-1.8284302,0.2687378,4.234375,-4.828125,60.890625
345,345,1727346460567,-1.6906738,0.36834717,0.855896,36.546875,-89.96875,1.15625
346,346,1727346460607,-1.3349609,0.14910889,0.019470215,16.203125,10.265625,-11.609375
347,347,1727346460647,-0.9160156,-0.5276489,-0.010314941,35.515625,-2.765625,-6.828125
348,348,1727346460687,-0.8195801,-0.2962036,-0.12945557,20.65625,-17.6875,-6.875
349,349,1727346460727,-0.36035156,-0.1795044,-0.18389893,24.453125,-14.6875,26.578125
350,350,1727346460767,0.13427734,-0.36138916,-0.35772705,-35.953125,-4.65625,28.765625
351,351,1727346460807,0.08618164,0.08319092,-0.22589111,-13.90625,-14.1875,20.15625
352,352,1727346460847,-0.06323242,-0.07159424,-0.58258057,-71.5,-14.796875,-5.109375
353,353,1727346460887,-1.4255371,-0.8772583,0.5101929,-63.125,63.53125,-58.5625
354,354,1727346460927,-2.0,-1.437561,-0.6392212,-22.5,-134.01562,108.9375
355,355,1727346460967,-0.74731445,0.2970581,-0.07647705,18.578125,5.3125,-19.703125
356,356,1727346461007,-1.2504883,0.31121826,-0.15118408,-18.953125,-7.453125,-46.515625
357,357,1727346461047,-1.7958984,-1.1848755,0.3727417,-38.4375,-2.734375,26.578125
358,358,1727346461087,-0.7866211,-0.11798096,0.070739746,8.96875,-18.953125,16.265625
359,359,1727346461127,0.14428711,0.3234253,-0.109436035,2.328125,10.359375,3.703125
360,360,1727346461167,0.2524414,0.4459839,-0.21807861,25.640625,31.65625,-0.359375
361,361,1727346461207,-0.020507812,-0.33721924,-0.04498291,17.515625,4.9375,-11.671875
362,362,1727346461247,-0.25805664,-0.29083252,-0.6646118,-22.125,-14.421875,9.640625
363,363,1727346461287,-1.5493164,0.10321045,-0.30621338,-27.09375,85.046875,-60.96875
364,364,1727346461327,-2.0,-2.0,-0.05670166,-23.59375,-47.203125,80.921875
365,365,1727346461367,-1.4101562,0.18060303,0.6117554,29.765625,-91.265625,-29.578125
366,366,1727346461407,-1.3413086,0.82733154,0.39471436,4.484375,24.015625,-8.625
367,367,1727346461447,-0.85180664,-0.38775635,-0.12213135,10.78125,-18.0625,5.640625
368,368,1727346461487,-0.7375488,-0.3862915,-0.19683838,2.625,-1.90625,-11.875
369,369,1727346461527,-0.87890625,-0.34698486,0.081726074,17.953125,-29.953125,22.734375
370,370,1727346461567,-0.1665039,-0.4763794,-0.31866455,-58.640625,4.9375,48.609375
371,371,1727346461607,-0.001953125,0.2987671,-0.32037354,27.03125,-13.28125,13.703125
372,372,1727346461647,0.16308594,0.010437012,-0.16168213,-22.875,10.5,7.390625
373,373,1727346461687,-0.8156738,-0.4446411,0.7289429,5.46875,10.5625,-32.53125
374,374,1727346461727,-2.0,-2.0,-0.50982666,7.9375,-134.625,-82.515625
375,375,1727346461767,-1.1181641,-0.13458252,1.1366577,25.53125,142.92188,45.265625
376,376,1727346461807,-1.2556152,0.7946167,-0.15045166,2.46875,-18.796875,-65.53125
377,377,1727346461847,-1.4790039,-0.54644775,0.3036499,-26.96875,24.46875,38.59375
378,378,1727346461887,-0.6816406,-0.6682739,0.10223389,-11.765625,-9.96875,20.046875
379,379,1727346461927,-0.15576172,0.11981201,-0.12359619,-12.984375,2.0,-1.234375
380,380,1727346461967,0.10571289,0.6832886,-0.002746582,21.265625,3.859375,-0.65625
381,381,1727346462007,-0.00048828125,-0.21368408,-0.13970947,24.578125,8.609375,-22.71875
382,382,1727346462047,-0.40893555,-0.36627197,-0.5401001,-16.15625,-20.328125,-2.515625
383,383,1727346462087,-1.3986816,-0.059143066,-0.18951416,15.8125,53.34375,-30.765625
384,384,1727346462127,-2.0,-2.0,0.08270264,-1.796875,14.8125,41.546875
385,385,1727346462167,-1.4504395,0.0993042,0.48236084,17.890625,-43.59375,8.25
386,386,1727346462207,-1.0246582,-0.15704346,0.13153076,18.921875,27.46875,-12.5
387,387,1727346462247,-1.340332,-0.40411377,0.05340576,44.515625,-23.171875,17.703125
388,388,1727346462287,-0.89819336,-0.13677979,-0.237854,11.515625,7.296875,-3.15625
389,389,1727346462327,-0.32739258,-0.24737549,-0.01739502,20.953125,-9.265625,35.21875
390,390,1727346462367,-0.030761719,-0.27301025,-0.32452393,-39.65625,10.796875,-0.484375
391,391,1727346462407,-0.20507812,0.10687256,-0.17193604,1.0,4.703125,20.203125
392,392,1727346462447,-0.07836914,-0.07110596,-0.012023926,0.046875,6.09375,15.734375
393,393,1727346462487,-0.9560547,-0.40386963,0.61468506,-27.140625,49.390625,-34.09375
394,394,1727346462527,-2.0,-1.9216919,0.011413574,-39.796875,-71.3125,-44.09375
395,395,1727346462567,-1.5466309,-0.14996338,0.4960327,33.828125,93.265625,6.34375
396,396,1727346462607,-1.1164551,0.85858154,0.39300537,19.078125,-8.234375,-38.953125
397,397,1727346462647,-1.2685547,-0.27545166,-0.10064697,-3.78125,0.859375,21.265625
398,398,1727346462687,-0.9645996,-1.0535278,0.22039795,4.9375,11.40625,24.75
399,399,1727346462727,-0.34228516,-0.015686035,0.019470215,30.578125,-17.65625,7.625
400,400,1727346462767,0.049560547,0.42401123,-0.18511963,12.125,-16.984375,1.4375
401,401,1727346462807,-0.064453125,0.25091553,0.06097412,57.78125,-5.78125,-8.25
402,402,1727346462847,-0.15966797,-0.5166626,-0.62701416,51.0625,9.953125,-0.140625
403,403,1727346462887,-0.99780273,-0.1560669,-0.40679932,-16.171875,58.28125,-10.390625
404,404,1727346462927,-2.0,-1.2544556,0.10223389,11.234375,6.96875,-57.578125
405,405,1727346462967,-2.0,-0.72198486,0.5819702,18.375,-58.21875,-1.4375
406,406,1727346463007,-1.6462402,0.69744873,0.3209839,52.046875,19.390625,-14.484375
407,407,1727346463047,-1.1496582,0.09466553,-0.11090088,16.28125,4.5,8.546875
408,408,1727346463087,-0.7583008,-0.3381958,-0.06573486,44.40625,-20.703125,19.25
409,409,1727346463127,-0.501709,-0.40948486,-0.11187744,29.21875,-10.625,5.203125
410,410,1727346463167,-0.5578613,-0.2341919,-0.15167236,7.828125,11.515625,30.015625
411,411,1727346463207,-0.08496094,0.10784912,-0.11602783,6.875,5.203125,16.140625
412,412,1727346463247,-0.059570312,0.168396,-0.23931885,10.859375,13.53125,12.453125
413,413,1727346463287,-0.12597656,-0.43951416,-0.6433716,-67.015625,29.828125,4.765625
414,414,1727346463327,-1.0461426,-0.97784424,0.1918335,-7.015625,43.59375,-58.3125
415,415,1727346463367,-2.0,-1.3904419,-0.6651001,0.3125,-85.78125,109.84375
416,416,1727346463407,-0.9716797,0.480896,-0.02911377,29.890625,40.3125,-13.71875
417,417,1727346463447,-1.5808105,0.5504761,-0.09918213,16.625,26.78125,-38.265625
418,418,1727346463487,-1.3586426,-1.8128052,0.21551514,0.0625,12.921875,22.484375
419,419,1727346463527,-0.59350586,-0.12237549,-0.11065674,24.703125,-3.1875,10.984375
420,420,1727346463567,-0.18359375,0.42230225,-0.17095947,-2.90625,-9.0,10.3125
421,421,1727346463607,-0.0007324219,0.3456421,-0.16217041,30.359375,32.640625,-12.71875
422,422,1727346463647,0.059326172,-0.16778564,-0.06793213,41.515625,10.453125,-15.75
423,423,1727346463687,-0.14624023,-0.37799072,-0.4385376,12.3125,4.78125,-1.171875
424,424,1727346463727,-1.1149902,-0.31549072,-0.22442627,-42.328125,46.828125,-39.65625
425,425,1727346463767,-2.0,-1.9612427,-0.2715454,28.90625,-31.890625,-22.375
426,426,1727346463807,-1.9699707,0.34857178,0.65740967,60.21875,-68.90625,10.75
427,427,1727346463847,-1.3686523,0.821228,0.2975464,20.46875,44.90625,-20.953125
428,428,1727346463887,-1.0905762,-0.09649658,-0.40777588,26.484375,21.625,24.5625
429,429,1727346463927,-0.5695801,-0.3279419,-0.30914307,36.765625,-27.5,-2.671875
430,430,1727346463967,-0.8071289,-0.78692627,0.09832764,49.296875,-14.234375,21.75
431,431,1727346464007,-0.2758789,-0.53082275,-0.04498291,-1.34375,5.0625,22.75
432,432,1727346464047,-0.072265625,0.6256714,-0.004699707,30.96875,-1.078125,3.5625
433,433,1727346464087,0.07006836,0.1449585,-0.3369751,23.5625,-3.078125,4.953125
434,434,1727346464127,-0.34643555,-0.59991455,-0.35992432,-43.78125,-43.140625,-1.578125
435,435,1727346464167,-2.0,-1.6873169,-0.32843018,-100.296875,39.890625,-76.046875
436,436,1727346464207,-2.0,0.07269287,0.19940186,17.3125,58.984375,24.28125
437,437,1727346464247,-0.9733887,1.2841187,-0.24639893,-0.15625,-39.1875,-14.796875
438,438,1727346464287,-1.324707,-0.46343994,-0.089660645,23.1875,20.375,0.203125
439,439,1727346464327,-0.9953613,-1.7620239,0.3690796,0.59375,8.421875,32.953125
440,440,1727346464367,-0.43530273,0.05218506,-0.2859497,29.46875,-12.171875,9.03125
441,441,1727346464407,0.07763672,0.6185913,-0.2300415,26.90625,12.640625,-2.734375
442,442,1727346464447,0.31201172,-0.04937744,-0.027160645,36.4375,19.8125,-4.8125
443,443,1727346464487,0.08544922,-0.284729,0.06488037,12.625,-16.546875,1.9375
444,444,1727346464527,-0.55493164,-0.28424072,-0.4800415,-49.03125,7.84375,6.828125
445,445,1727346464567,-2.0,-0.72662354,-0.36968994,27.75,16.140625,-130.26562
446,446,1727346464607,-2.0,-0.5889282,0.29779053,-56.4375,100.75,54.328125
447,447,1727346464647,-1.3500977,0.5639038,0.44329834,59.140625,6.578125,-33.75
448,448,1727346464687,-1.2685547,0.013366699,-0.007873535,38.515625,8.34375,-5.140625
449,449,1727346464727,-0.61621094,-0.30743408,-0.3772583,25.46875,-11.78125,35.03125
450,450,1727346464767,-0.513916,-0.55474854,-0.3086548,13.140625,-14.1875,14.109375
451,451,1727346464807,-0.3388672,-0.75250244,-0.042297363,27.484375,-14.390625,42.171875
452,452,1727346464847,0.06713867,-0.085510254,0.08441162,-24.703125,7.640625,5.234375
453,453,1727346464887,0.1730957,0.5602417,-0.21685791,-20.359375,8.390625,1.140625
454,454,1727346464927,-0.5583496,-0.09161377,-0.25177002,-11.609375,-36.671875,-23.234375
455,455,1727346464967,-2.0,-1.4646606,0.14349365,-82.96875,56.875,-94.0625
456,456,1727346465007,-1.7084961,-0.2300415,0.16156006,45.8125,32.640625,58.125
457,457,1727346465047,-0.92749023,0.8324585,-0.190979,-30.03125,-28.703125,-35.078125
458,458,1727346465087,-1.5310059,-0.76934814,0.06488037,-21.625,-14.125,-6.3125
459,459,1727346465127,-1.2045898,-0.83843994,0.1954956,-2.421875,-11.875,15.171875
460,460,1727346465167,-0.44384766,0.124938965,-0.12823486,-7.5,-16.484375,12.515625
461,461,1727346465207,-0.033447266,0.22991943,-0.13360596,12.0,5.53125,0.953125
462,462,1727346465247,0.043701172,0.0045776367,-0.13043213,32.5,5.4375,-0.46875
463,463,1727346465287,-0.013183594,-0.16607666,-0.081604004,22.96875,9.125,-2.65625
464,464,1727346465327,-0.45117188,-0.1453247,-0.5828247,-58.03125,36.265625,2.1875
465,465,1727346465367,-1.4396973,0.08831787,0.19232178,-29.015625,95.125,-87.734375
466,466,1727346465407,-2.0,-2.0,0.2736206,-4.5625,-41.34375,91.4375
467,467,1727346465447,-1.4685059,0.31976318,0.6950073,29.421875,-37.359375,-3.5
468,468,1727346465487,-1.1203613,-0.08087158,-0.06060791,22.9375,1.140625,-5.015625
469,469,1727346465527,-1.0563965,-0.41583252,0.058532715,32.5625,-12.53125,15.828125
470,470,1727346465567,-0.78344727,-0.12530518,-0.22198486,21.15625,-25.859375,-2.203125
471,471,1727346465607,-0.36645508,-0.22052002,-0.077697754,33.265625,-44.6875,34.5
472,472,1727346465647,-0.1184082,-0.44805908,-0.038391113,-20.03125,12.90625,23.84375
473,473,1727346465687,-0.014160156,0.020690918,-0.26446533,-9.125,5.28125,4.015625
474,474,1727346465727,-0.13061523,0.04852295,-0.315979,-9.140625,-0.640625,8.578125
475,475,1727346465767,-0.6574707,-0.33966064,0.24627686,-27.640625,21.75,-10.0625
476,476,1727346465807,-2.0,-1.0149536,0.13861084,-67.1875,3.796875,-52.046875
477,477,1727346465847,-2.0,-0.26739502,0.18621826,15.296875,29.078125,48.09375
478,478,1727346465887,-1.0036621,0.37738037,-0.24761963,-30.109375,-41.25,-28.28125
479,479,1727346465927,-1.5222168,-0.72003174,0.04046631,-14.296875,-20.09375,8.78125
480,480,1727346465967,-1.3095703,-0.65753174,0.19232178,7.59375,1.859375,13.15625
481,481,1727346466007,-0.39868164,0.20452881,-0.11236572,2.671875,-3.5625,15.03125
482,482,1727346466047,0.18359375,0.11468506,-0.113098145,17.03125,-1.296875,1.125
483,483,1727346466087,0.040039062,0.30511475,-0.13360596,47.796875,12.875,-15.390625
484,484,1727346466127,-0.115234375,-0.057434082,-0.23834229,43.078125,30.953125,-11.6875
485,485,1727346466167,-0.3251953,-0.30133057,-0.4241333,-22.53125,0.453125,14.53125
486,486,1727346466207,-1.1164551,-0.15875244,-0.2000122,-32.375,59.21875,-37.109375
487,487,1727346466247,-2.0,-2.0,0.27386475,0.984375,43.578125,19.171875
488,488,1727346466287,-1.2731934,0.35394287,0.6300659,40.53125,-46.328125,10.921875
489,489,1727346466327,-1.4350586,-0.116760254,-0.089904785,23.25,6.21875,-3.015625
490,490,1727346466367,-1.3718262,-0.3772583,0.09051514,41.671875,15.5,-6.34375
491,491,1727346466407,-0.7470703,-0.16827393,-0.25250244,34.640625,-14.703125,8.703125
492,492,1727346466447,-0.3125,-0.062316895,-0.26934814,23.28125,-6.46875,46.9375
493,493,1727346466487,0.28149414,-0.68170166,-0.23248291,-39.0,0.9375,20.921875
494,494,1727346466527,0.10595703,0.06854248,-0.21368408,-23.328125,4.671875,8.921875
495,495,1727346466567,-0.11010742,-0.049621582,-0.772522,-60.828125,-0.671875,1.015625
496,496,1727346466607,-1.0939941,-1.0386353,0.5487671,-23.9375,24.53125,-43.421875
497,497,1727346466647,-2.0,-2.0,-1.0664673,5.953125,-145.82812,12.40625
498,498,1727346466687,-1.4833984,-0.16851807,0.30316162,50.828125,120.0,15.078125
499,499,1727346466727,-1.5175781,0.5516968,-0.2727661,1.84375,-31.734375,-31.65625
500,500,1727346466767,-1.2819824,-0.98760986,0.20721436,-0.625,14.421875,19.234375
501,501,1727346466807,-0.78149414,-0.64068604,0.14984131,4.28125,3.9375,18.96875
502,502,1727346466847,-0.41503906,0.11004639,-0.18023682,0.203125,-1.1875,-0.6875
503,503,1727346466887,0.017578125,0.17401123,-0.07720947,21.953125,7.578125,-5.125
504,504,1727346466927,0.13916016,0.2662964,-0.13604736,43.5,26.140625,-8.0625
505,505,1727346466967,-0.0017089844,-0.29278564,-0.51568604,-4.28125,-3.71875,-3.046875
506,506,1727346467007,-0.7854004,-0.42095947,-0.27545166,-79.234375,77.90625,-18.234375
507,507,1727346467047,-2.0,-1.6453247,-0.2727661,47.328125,-27.375,-107.0
508,508,1727346467087,-1.3378906,0.27337646,1.2868042,81.140625,72.984375,-12.1875
509,509,1727346467127,-1.2729492,0.5338745,0.39056396,13.125,-8.0,-15.9375
510,510,1727346467167,-1.1767578,-0.8257446,-0.13214111,18.65625,-20.5625,-11.140625
511,511,1727346467207,-0.86035156,-0.5159302,-0.020080566,35.484375,-32.4375,21.1875
512,512,1727346467247,-0.7211914,-0.054260254,-0.19683838,6.859375,-10.6875,20.53125
513,513,1727346467287,-0.091796875,-0.24127197,0.026306152,-0.890625,14.28125,30.609375
514,514,1727346467327,0.076171875,0.20233154,-0.3184204,-23.953125,7.28125,-7.859375
515,515,1727346467367,-0.15258789,0.15057373,-0.22540283,10.890625,1.390625,8.765625
516,516,1727346467407,-0.20458984,-0.333313,-0.5930786,-70.359375,1.171875,8.078125
517,517,1727346467447,-1.2641602,-1.1358032,0.22625732,-82.515625,22.984375,-65.90625
518,518,1727346467487,-2.0,-1.1963501,-0.54473877,-67.609375,-69.125,98.453125
519,519,1727346467527,-1.2875977,1.1305542,-0.48223877,33.15625,-26.53125,-9.53125
520,520,1727346467567,-1.1489258,0.5231323,-0.24786377,35.875,2.625,-32.171875
521,521,1727346467607,-1.1989746,-1.6963501,0.4052124,-15.796875,17.0625,32.609375
522,522,1727346467647,-0.7487793,-0.30499268,-0.06842041,31.140625,-7.265625,18.015625
523,523,1727346467687,-0.06225586,0.37664795,-0.25567627,-1.71875,8.140625,10.328125
524,524,1727346467727,0.020751953,0.25628662,-0.15118408,29.15625,17.546875,-5.65625
525,525,1727346467767,0.0034179688,-0.2756958,-0.11456299,54.1875,11.9375,-7.234375
526,526,1727346467807,-0.3564453,-0.32989502,-0.50445557,-34.703125,17.734375,15.34375
527,527,1727346467847,-1.1621094,0.35247803,-0.25616455,-57.46875,109.625,-50.515625
528,528,1727346467887,-2.0,-2.0,-0.023986816,10.0625,-40.125,-5.71875
529,529,1727346467927,-2.0,0.35858154,0.75164795,103.84375,-43.953125,8.625
530,530,1727346467967,-1.2390137,0.78533936,0.22698975,54.671875,10.1875,-10.453125
531,531,1727346468007,-0.986084,-0.09967041,-0.06011963,42.59375,9.828125,33.921875
532,532,1727346468047,-0.40454102,-0.054748535,-0.5022583,11.78125,6.6875,-12.625
533,533,1727346468087,-0.97875977,-0.77130127,0.15545654,34.78125,3.5625,23.875
534,534,1727346468127,-0.45507812,-0.237854,-0.31817627,-21.109375,20.796875,12.859375
535,535,1727346468167,-0.107910156,0.38934326,-0.15777588,36.75,5.21875,22.546875
536,536,1727346468207,-0.036132812,0.024353027,-0.7173462,-10.6875,33.46875,9.78125
537,537,1727346468247,-0.65722656,-0.8569946,0.3619995,5.5625,-5.390625,-34.921875
538,538,1727346468287,-2.0,-2.0,-0.007385254,-11.546875,-49.859375,-82.875
539,539,1727346468327,-1.9609375,0.14154053,0.6793823,98.734375,112.671875,8.453125
540,540,1727346468367,-1.2143555,1.5145874,-0.3057251,15.21875,-28.890625,-8.0
541,541,1727346468407,-0.8979492,-0.2107544,-0.4998169,48.5625,13.09375,40.234375
542,542,1727346468447,-0.9914551,-1.5579224,-0.0022583008,33.53125,7.953125,12.4375
543,543,1727346468487,-0.5671387,-0.29962158,-0.08013916,51.328125,-3.140625,20.265625
544,544,1727346468527,0.02319336,0.6559448,-0.082336426,31.828125,39.125,-0.734375
545,545,1727346468567,0.18139648,0.21868896,-0.237854,54.390625,45.734375,-16.25
546,546,1727346468607,-0.08300781,-0.59747314,-0.35284424,52.296875,-1.109375,8.34375
547,547,1727346468647,-0.88671875,-0.24810791,-0.84747314,-1.03125,4.90625,3.578125
548,548,1727346468687,-2.0,-1.1851196,0.043151855,45.734375,83.171875,-95.359375
549,549,1727346468727,-2.0,-0.36016846,0.18743896,69.84375,-13.84375,14.328125
550,550,1727346468767,-1.3793945,0.5253296,0.34124756,95.875,6.515625,-8.9375
551,551,1727346468807,-1.1306152,0.43450928,-0.14849854,47.65625,21.328125,16.796875
552,552,1727346468847,-0.8937988,-0.42852783,-0.6096802,21.4375,41.40625,1.234375
553,553,1727346468887,-0.4638672,-0.49468994,-0.505188,59.5,-39.96875,27.75
554,554,1727346468927,-0.58203125,-0.6553345,0.0914917,4.09375,25.46875,9.046875
555,555,1727346468967,-0.62060547,0.3102417,-0.027404785,31.3125,34.390625,-4.4375
556,556,1727346469007,-0.40673828,0.5765991,-0.20196533,42.203125,31.171875,18.828125
557,557,1727346469047,0.16455078,-0.40093994,-0.59088135,34.515625,34.1875,23.171875
558,558,1727346469087,-0.61743164,-0.7522583,0.10028076,33.953125,-11.265625,-8.71875
559,559,1727346469127,-2.0,-2.0,-0.49224854,20.328125,-39.859375,-58.59375
560,560,1727346469167,-1.7231445,0.062683105,0.27923584,70.671875,180.29688,19.453125
561,561,1727346469207,-1.1691895,0.6034546,-0.29522705,19.5,-6.265625,-20.015625
562,562,1727346469247,-1.1987305,-0.7349243,-0.03692627,11.9375,7.796875,17.65625
563,563,1727346469287,-1.0112305,-1.5230103,0.19500732,15.21875,16.296875,52.6875
564,564,1727346469327,-0.42993164,0.1473999,-0.19195557,23.21875,15.078125,-11.5
565,565,1727346469367,0.07763672,0.48406982,-0.11602783,50.8125,7.40625,-1.0
566,566,1727346469407,0.08691406,0.055114746,-0.11456299,53.15625,34.859375,-15.71875
567,567,1727346469447,-0.24267578,-0.2883911,-0.6538696,6.296875,15.8125,-5.59375
568,568,1727346469487,-0.9909668,-0.11138916,-0.34552002,32.453125,55.921875,-38.234375
569,569,1727346469527,-2.0,-2.0,0.090270996,-9.890625,35.015625,-16.875
570,570,1727346469567,-1.1843262,0.016052246,0.36688232,78.546875,-64.765625,21.390625
571,571,1727346469607,-1.1862793,-0.23394775,0.15252686,34.84375,14.96875,-3.828125
572,572,1727346469647,-1.7910156,0.34051514,-0.19586182,50.03125,27.84375,-12.5
573,573,1727346469687,-0.77246094,-0.10357666,-0.2131958,65.015625,0.8125,36.578125
574,574,1727346469727,-0.43066406,-0.4619751,-0.12261963,43.03125,15.359375,6.578125
575,575,1727346469767,-0.25756836,-0.097473145,-0.19317627,7.6875,7.296875,39.734375
576,576,1727346469807,-0.14501953,-0.019348145,-0.19488525,9.21875,20.203125,18.84375
577,577,1727346469847,-0.12133789,0.13568115,-0.19293213,14.296875,8.5,12.25
578,578,1727346469887,-0.24072266,-0.15020752,-0.53790283,-25.234375,1.5,5.203125
579,579,1727346469927,-1.4238281,-1.1514282,0.34002686,-55.15625,36.390625,-79.09375
580,580,1727346469967,-2.0,-1.350647,-0.6577759,-15.59375,-54.421875,76.65625
581,581,1727346470007,-1.1672363,1.163269,-0.46099854,42.5,6.890625,4.09375
582,582,1727346470047,-1.0117188,-0.06304932,-0.43829346,29.234375,8.625,-22.046875
583,583,1727346470087,-1.3425293,-1.3757935,0.11004639,27.125,18.796875,35.96875
584,584,1727346470127,-0.82055664,-0.19659424,0.089538574,59.84375,-6.03125,8.0625
585,585,1727346470167,0.07495117,0.3895874,-0.2341919,20.625,2.765625,9.84375
586,586,1727346470207,0.20703125,0.4081421,-0.19488525,64.21875,12.046875,3.09375
587,587,1727346470247,0.040283203,-0.41729736,-0.14703369,52.703125,38.0,-9.8125
588,588,1727346470287,-0.4658203,-0.47442627,-0.6409302,-28.5,43.09375,-0.671875
589,589,1727346470327,-1.7412109,0.20916748,0.0053100586,49.921875,53.53125,-103.375
590,590,1727346470367,-2.0,-1.9238892,0.33538818,-28.265625,13.28125,102.65625
591,591,1727346470407,-1.6049805,0.51898193,0.44476318,78.046875,-11.4375,-0.9375
592,592,1727346470447,-1.012207,0.4328003,-0.20269775,53.40625,36.28125,-6.25
593,593,1727346470487,-0.6765137,-0.51568604,-0.44488525,79.234375,31.328125,35.5625
594,594,1727346470527,-0.67700195,-0.24737549,-0.14190674,51.171875,0.0,7.84375
595,595,1727346470567,-0.19116211,-0.54644775,-0.18341064,14.859375,2.640625,36.359375
596,596,1727346470607,0.018310547,0.04168701,-0.22711182,-8.90625,33.984375,24.296875
597,597,1727346470647,0.16381836,0.23724365,-0.17510986,7.0,-3.453125,-3.828125
598,598,1727346470687,-0.53564453,-0.6333618,0.011413574,-19.265625,14.828125,-28.40625
599,599,1727346470727,-2.0,-1.8865356,0.061950684,-46.0,5.40625,-52.5625
600,600,1727346470767,-2.0,0.038513184,0.54071045,32.765625,70.046875,-12.265625
601,601,1727346470807,-1.4677734,0.6845093,-0.10308838,-42.109375,-26.140625,-18.296875
602,602,1727346470847,-1.3718262,-0.7720337,0.030212402,-21.359375,-31.578125,17.515625
603,603,1727346470887,-1.1359863,-1.0979614,0.105651855,-14.703125,2.640625,21.3125
604,604,1727346470927,-0.4958496,0.16693115,0.061462402,-14.984375,-16.375,-6.90625
605,605,1727346470967,-0.036376953,0.23114014,-0.2876587,-12.78125,-3.09375,7.53125
606,606,1727346471007,-0.0075683594,0.09222412,0.117370605,34.375,16.53125,2.125
607,607,1727346471047,0.040527344,-0.06744385,-0.39556885,43.1875,23.5625,-27.96875
608,608,1727346471087,-0.6870117,-0.19683838,-0.31793213,6.65625,3.71875,-40.359375
609,609,1727346471127,-2.0,-0.61968994,0.19671631,41.453125,99.890625,-60.671875
610,610,1727346471167,-2.0,-0.3814087,0.3480835,6.796875,22.75,5.0625
611,611,1727346471207,-1.1679688,0.014587402,0.3085327,48.75,-14.6875,1.9375
612,612,1727346471247,-1.0515137,-0.17706299,0.005554199,26.546875,-26.453125,8.484375
613,613,1727346471287,-0.8469238,-0.36114502,-0.25616455,8.625,7.25,20.140625
614,614,1727346471327,-0.83984375,-0.33648682,-0.43096924,15.828125,-12.734375,-5.28125
615,615,1727346471367,-0.48876953,-0.30499268,-0.039855957,32.9375,-25.0625,39.203125
616,616,1727346471407,-0.07861328,-0.26446533,-0.13580322,-25.171875,7.890625,23.109375
617,617,1727346471447,0.15771484,-0.23760986,-0.583313,-75.625,16.4375,15.734375
618,618,1727346471487,-0.57250977,-0.7659302,0.23162842,-35.265625,3.546875,-68.28125
619,619,1727346471527,-2.0,-1.3652954,-0.25079346,-56.21875,-34.125,-62.359375
620,620,1727346471567,-1.8500977,0.22723389,1.220398,63.078125,111.96875,23.671875
621,621,1727346471607,-0.5895996,0.42010498,-0.1729126,-3.546875,-31.4375,-21.0625
622,622,1727346471647,-0.9650879,-0.93218994,0.22943115,-8.453125,-13.140625,15.9375
623,623,1727346471687,-1.1911621,-0.725647,0.046081543,11.625,24.03125,5.6875
624,624,1727346471727,-0.4580078,0.23822021,-0.019836426,39.359375,-14.4375,9.0
625,625,1727346471767,0.29956055,0.2892456,-0.09893799,40.171875,-5.984375,12.90625
626,626,1727346471807,0.12231445,-0.117248535,-0.10479736,37.203125,0.65625,-18.71875
627,627,1727346471847,-0.18481445,-0.2871704,-0.5733032,-19.765625,-15.0625,-11.390625
628,628,1727346471887,-1.0378418,-0.2588501,-0.14385986,-39.359375,94.6875,-44.78125
629,629,1727346471927,-2.0,-2.0,0.00018310547,-4.03125,-0.703125,-4.375
630,630,1727346471967,-1.6640625,-0.008850098,0.25482178,13.625,-95.21875,6.71875
631,631,1727346472007,-1.4345703,-0.109436035,0.07733154,20.5625,-3.921875,-1.125
632,632,1727346472047,-1.3557129,-0.12896729,0.34661865,67.96875,-29.15625,20.265625
633,633,1727346472087,-0.7487793,-0.14898682,-0.23248291,40.359375,28.921875,30.515625
634,634,1727346472127,-0.24487305,-0.22125244,-0.861145,-38.203125,-18.546875,28.40625
635,635,1727346472167,0.014892578,-0.84869385,0.1774292,7.4375,-13.5,7.890625
636,636,1727346472207,-0.068847656,0.12298584,-0.18463135,-16.703125,27.40625,15.015625
637,637,1727346472247,-0.029541016,0.29388428,-0.06402588,-24.203125,1.875,14.28125
638,638,1727346472287,-0.5085449,-0.37579346,0.13861084,-39.359375,-12.359375,-32.8125
639,639,1727346472327,-2.0,-1.4607544,0.355896,-99.109375,41.5625,-61.34375
640,640,1727346472367,-2.0,-0.31915283,0.48382568,53.921875,57.375,-29.453125
641,641,1727346472407,-0.8737793,1.1222534,-0.00079345703,-24.015625,-46.625,-34.1875
642,642,1727346472447,-1.3510742,-0.65753174,-0.057434082,-12.796875,8.453125,11.0
643,643,1727346472487,-1.2128906,-1.295227,0.45721436,-3.90625,8.90625,6.34375
644,644,1727346472527,-0.4099121,-0.0413208,-0.26641846,9.0,-26.515625,3.828125
645,645,1727346472567,0.3557129,0.5895386,-0.20855713,22.578125,20.359375,5.71875
646,646,1727346472607,0.29589844,-0.11627197,-0.08673096,35.890625,21.28125,-17.9375
647,647,1727346472647,0.15209961,-0.57281494,-0.3892212,-2.828125,-22.0625,-9.484375
648,648,1727346472687,-0.967041,-0.19000244,-0.3255005,-46.390625,46.734375,-27.203125
649,649,1727346472727,-2.0,-0.81866455,-0.4072876,23.296875,-60.5,-88.359375
650,650,1727346472767,-1.4873047,0.18450928,1.1676636,84.109375,47.203125,-30.09375
651,651,1727346472807,-1.0900879,0.2399292,0.574646,6.359375,4.921875,-32.734375
652,652,1727346472847,-1.5234375,-0.55352783,0.008483887,19.734375,-7.71875,37.6875
653,653,1727346472887,-0.9265137,0.010925293,-0.2312622,11.390625,23.171875,-19.640625
654,654,1727346472927,-0.33325195,-0.26348877,-0.16949463,44.109375,-12.5625,39.40625
655,655,1727346472967,0.09375,-0.6421509,-0.39434814,-31.46875,0.96875,26.6875
656,656,1727346473007,0.12573242,-0.48883057,-0.15582275,-19.15625,-29.671875,13.734375
657,657,1727346473047,-0.014404297,0.07147217,0.0524292,-50.859375,10.890625,9.90625
658,658,1727346473087,-0.72558594,0.5031128,0.070007324,0.21875,-2.4375,-21.6875
659,659,1727346473127,-1.3945312,-0.45269775,-0.3242798,-65.609375,-48.71875,-49.875
660,660,1727346473167,-2.0,-1.513977,0.2538452,-42.421875,27.546875,80.28125
661,661,1727346473207,-1.0266113,0.8522339,-0.23638916,8.4375,-25.5,-70.578125
662,662,1727346473247,-1.1472168,0.22039795,0.05999756,8.5,-32.3125,-2.9375
663,663,1727346473287,-1.3115234,-1.4109497,0.44232178,-17.75,22.421875,34.53125
664,664,1727346473327,-0.4230957,-0.16143799,-0.23687744,15.78125,-27.59375,-0.484375
665,665,1727346473367,0.12475586,0.23016357,-0.09552002,7.59375,11.40625,7.265625
666,666,1727346473407,0.20629883,0.34051514,-0.10040283,39.96875,15.984375,-12.46875
667,667,1727346473447,0.029541016,-0.2197876,-0.019836426,44.15625,-9.671875,-8.0
668,668,1727346473487,-0.7272949,-0.09649658,-0.5112915,-16.515625,-12.453125,-9.4375
669,669,1727346473527,-2.0,0.0289917,-0.32843018,-9.578125,38.234375,-97.09375
670,670,1727346473567,-2.0,-2.0,0.8324585,-87.0,170.76562,95.609375
671,671,1727346473607,-1.1884766,0.54364014,0.5922241,37.5625,-24.671875,-51.875
672,672,1727346473647,-1.1711426,0.5038452,-0.024475098,24.828125,-8.8125,-13.875
673,673,1727346473687,-0.4658203,-0.018859863,-0.34161377,32.40625,-3.296875,44.703125
674,674,1727346473727,-0.37524414,-0.5081177,-0.17144775,23.578125,-16.921875,-5.5
675,675,1727346473767,-0.1484375,-0.88238525,-0.43902588,-74.015625,32.3125,9.046875
676,676,1727346473807,-0.24536133,-0.16607666,-0.175354,-21.828125,14.53125,-2.28125
677,677,1727346473847,-0.4963379,0.5368042,0.04510498,5.296875,-17.734375,3.265625
678,678,1727346473887,-0.3852539,0.14886475,-0.27349854,-19.578125,19.15625,-2.859375
679,679,1727346473927,-0.9033203,-1.1052856,0.24603271,-22.140625,3.296875,-13.34375
680,680,1727346473967,-2.0,-1.8225708,-0.009338379,2.125,-4.921875,47.546875
681,681,1727346474007,-1.0185547,0.9633179,0.15325928,10.8125,-31.71875,1.875
682,682,1727346474047,-1.0012207,-0.17828369,-0.08673096,-5.546875,-22.625,-17.34375
683,683,1727346474087,-1.2199707,-0.78302,0.21331787,-4.859375,15.125,20.921875
684,684,1727346474127,-0.54785156,0.0067749023,-0.17633057,9.546875,-15.625,10.5
685,685,1727346474167,0.071777344,0.33880615,-0.1482544,23.171875,26.96875,15.703125
686,686,1727346474207,0.2355957,0.15496826,-0.10479736,47.0625,16.328125,-6.453125
687,687,1727346474247,-0.08154297,-0.21832275,-0.39752197,14.796875,5.359375,-9.84375
688,688,1727346474287,-0.6862793,-0.39898682,-0.28741455,-31.578125,19.609375,-15.171875
689,689,1727346474327,-2.0,-2.0,0.2538452,14.46875,15.09375,-54.46875
690,690,1727346474367,-2.0,0.35931396,0.651062,50.78125,3.921875,-23.515625
691,691,1727346474407,-1.3664551,0.5922241,0.5140991,15.328125,2.28125,-19.90625
692,692,1727346474447,-1.2832031,-0.41192627,-0.15631104,-5.203125,-13.234375,7.9375
693,693,1727346474487,-0.6687012,-0.347229,-0.18414307,-6.90625,4.15625,28.78125
694,694,1727346474527,-0.45458984,-0.47052002,0.1317749,12.015625,22.765625,-8.140625
695,695,1727346474567,-0.18359375,-0.3418579,-0.2703247,-25.296875,8.8125,15.046875
696,696,1727346474607,-0.2607422,0.16473389,-0.23565674,2.453125,4.546875,12.640625
697,697,1727346474647,-0.14770508,-0.08892822,-0.36676025,0.28125,6.796875,-1.53125
698,698,1727346474687,-0.7402344,-0.9776001,0.50653076,-25.71875,30.0,-21.5625
699,699,1727346474727,-2.0,-1.3064575,0.10858154,-26.984375,-13.046875,-67.53125
700,700,1727346474767,-2.0,0.08392334,0.2333374,31.359375,51.484375,40.4375
701,701,1727346474807,-1.0236816,-0.038391113,0.1317749,-1.46875,-43.984375,-17.140625
702,702,1727346474847,-1.1755371,-0.29107666,-0.070129395,-7.15625,-7.390625,30.25
703,703,1727346474887,-1.1054688,-0.41900635,0.25994873,-0.390625,2.078125,14.734375
704,704,1727346474927,-0.47094727,-0.15435791,0.09100342,30.578125,-8.65625,5.828125
705,705,1727346474967,-0.072753906,0.14666748,-0.28863525,14.09375,0.71875,7.96875
706,706,1727346475007,0.0017089844,0.10467529,-0.097961426,41.984375,23.4375,-10.671875
707,707,1727346475047,-0.06591797,-0.39727783,-0.12921143,22.515625,2.484375,-14.109375
708,708,1727346475087,-0.7895508,-0.23272705,-0.20050049,-39.546875,32.0,-20.171875
709,709,1727346475127,-1.8398438,-0.41485596,0.081726074,-26.109375,29.671875,-71.75
710,710,1727346475167,-2.0,-1.0803833,0.9467163,-24.671875,35.328125,20.25
711,711,1727346475207,-1.3144531,0.7086792,0.6901245,15.125,-41.6875,-21.84375
712,712,1727346475247,-0.9416504,-0.062072754,-0.26055908,-1.28125,-31.046875,14.59375
713,713,1727346475287,-0.81274414,-0.5149536,0.0018920898,-4.578125,-1.40625,24.5
714,714,1727346475327,-0.90185547,-0.19415283,-0.06402588,1.09375,-24.03125,6.21875
715,715,1727346475367,-0.43896484,-0.3086548,0.047790527,10.265625,22.609375,-4.453125
716,716,1727346475407,-0.3154297,-0.14752197,-0.13775635,-22.59375,-0.25,16.28125
717,717,1727346475447,-0.36669922,0.4232788,-0.11798096,17.890625,6.078125,4.609375
718,718,1727346475487,-0.43579102,-0.57403564,-0.55059814,-48.484375,-4.375,5.828125
719,719,1727346475527,-0.9211426,-1.555481,0.41351318,-26.65625,38.578125,-13.375
720,720,1727346475567,-2.0,-1.3718872,0.13519287,-20.265625,-31.40625,-5.796875
721,721,1727346475607,-2.0,1.7670288,-0.020812988,38.125,-1.34375,30.28125
722,722,1727346475647,-0.907959,-0.14605713,0.06341553,20.59375,1.984375,-8.640625
723,723,1727346475687,-1.2224121,-0.88946533,0.02532959,18.25,24.21875,38.359375
724,724,1727346475727,-0.8457031,-0.2727661,-0.03668213,8.1875,-3.734375,5.15625
725,725,1727346475767,-0.39648438,0.026794434,0.026550293,9.3125,-9.71875,14.859375
726,726,1727346475807,0.055419922,-0.39215088,0.0014038086,-0.609375,3.65625,-4.015625
727,727,1727346475847,-0.4519043,-0.14385986,0.0067749023,-11.0,-7.484375,-27.078125
728,728,1727346475887,-0.71850586,-0.12774658,-0.17730713,-6.984375,-4.078125,-22.953125
729,729,1727346475927,-1.0822754,-0.21173096,-0.41949463,-3.90625,53.515625,-12.328125
730,730,1727346475967,-1.1606445,-0.5088501,-0.046691895,21.796875,-29.4375,-11.796875
731,731,1727346476007,-1.9162598,-0.25079346,0.31463623,4.359375,38.53125,-11.4375
732,732,1727346476047,-1.8217773,0.0036010742,0.2501831,43.203125,-6.125,-24.421875
733,733,1727346476087,-1.5234375,-0.4048462,0.035583496,45.875,-20.390625,20.875
734,734,1727346476127,-0.92333984,-0.32647705,0.10369873,21.671875,-2.984375,4.6875
735,735,1727346476167,-0.49975586,0.022399902,-0.18365479,10.390625,-16.453125,3.765625
736,736,1727346476207,-0.5854492,0.11517334,-0.17047119,2.765625,4.53125,1.375
737,737,1727346476247,-0.73583984,-0.21612549,-0.17144775,15.109375,21.8125,-9.59375
738,738,1727346476287,-0.6105957,0.06072998,-0.28619385,11.28125,32.265625,0.53125
739,739,1727346476327,-0.50146484,-0.4265747,-0.5471802,-13.734375,3.109375,-2.640625
740,740,1727346476367,-0.65063477,-0.9976196,0.06097412,23.328125,-7.375,-2.125
741,741,1727346476407,-1.4606934,-1.0181274,0.30804443,-18.453125,21.5,-18.78125
742,742,1727346476447,-2.0,0.49700928,0.051940918,47.484375,36.359375,-10.875
743,743,1727346476487,-1.4331055,0.56121826,-0.24029541,29.90625,-14.6875,20.15625
744,744,1727346476527,-0.84375,-0.47418213,-0.058410645,55.484375,41.21875,-5.8125
745,745,1727346476567,-1.309082,-0.52716064,0.12591553,58.578125,9.421875,7.546875
746,746,1727346476607,-0.6665039,-0.050109863,-0.062805176,42.328125,11.59375,29.03125
747,747,1727346476647,-0.18383789,0.007751465,-0.12384033,66.546875,7.109375,22.15625
748,748,1727346476687,-0.1887207,0.074401855,-0.2041626,60.8125,12.140625,2.78125
749,749,1727346476727,-0.3251953,-0.25616455,-0.28570557,64.421875,18.28125,-1.109375
750,750,1727346476767,-0.73168945,-0.26397705,-0.34991455,62.703125,30.96875,-9.375
751,751,1727346476807,-1.4189453,-0.010803223,-0.4915161,10.21875,49.375,-19.59375
752,752,1727346476847,-2.0,-1.4011841,-0.14923096,32.8125,17.171875,7.046875
753,753,1727346476887,-2.0,-0.034484863,0.10345459,84.390625,6.703125,-30.21875
754,754,1727346476927,-1.3625488,0.855896,-0.1506958,77.328125,14.390625,7.578125
755,755,1727346476967,-0.9448242,-0.18145752,-0.38409424,94.328125,24.5625,32.921875
756,756,1727346477007,-0.9458008,-0.45220947,-0.24224854,78.8125,40.484375,7.0
757,757,1727346477047,-0.7380371,0.030456543,-0.425354,87.421875,23.390625,5.125
758,758,1727346477087,-0.3137207,0.015319824,-0.29034424,91.3125,24.09375,22.96875
759,759,1727346477127,-0.11401367,-0.23956299,-0.10357666,86.265625,27.828125,27.3125
