,Unnamed: 0,timestamp,accel_x,accel_y,accel_z,gyro_x,gyro_y,gyro_z
0,0,1727461517630,0.29663086,0.8942261,0.08929443,10.25,30.140625,-5.734375
1,1,1727461517670,0.14672852,0.32562256,0.22894287,-19.890625,4.125,-28.84375
2,2,1727461517710,-0.01953125,0.15374756,0.007507324,17.0,-10.5,-16.734375
3,3,1727461517750,0.017822266,0.12298584,0.1786499,0.859375,-21.609375,-5.84375
4,4,1727461517790,0.41259766,0.7411499,-0.6814575,39.21875,-57.921875,12.359375
5,5,1727461517830,0.22827148,0.914978,-0.06695557,-41.90625,11.25,-15.234375
6,6,1727461517870,0.7861328,1.9640503,0.5619507,-8.265625,-13.703125,13.265625
7,7,1727461517910,0.34643555,1.7511597,0.3949585,-12.234375,-25.5625,13.1875
8,8,1727461517950,0.70166016,1.8258667,0.26971436,-5.015625,-9.234375,11.765625
9,9,1727461517990,0.5185547,1.2824097,0.3673706,-5.796875,-20.25,2.21875
10,10,1727461518030,0.22875977,0.8185425,0.074401855,0.90625,-14.3125,7.34375
11,11,1727461518070,-0.13964844,0.20501709,0.2333374,16.703125,-26.25,1.953125
12,12,1727461518110,-0.13745117,-0.08746338,-0.44366455,25.34375,-7.75,1.1875
13,13,1727461518150,-0.3161621,-0.09991455,-0.09307861,5.75,8.171875,9.78125
14,14,1727461518190,-0.1809082,0.6083374,-0.17901611,53.125,25.609375,-3.203125
15,15,1727461518230,0.42651367,1.999939,0.262146,-13.3125,69.28125,-5.28125
16,16,1727461518270,0.27172852,1.6229858,0.39593506,21.90625,16.234375,21.28125
17,17,1727461518310,0.94262695,1.6906128,0.5336304,-12.4375,55.6875,2.75
18,18,1727461518350,0.13208008,1.999939,0.48406982,0.921875,60.78125,-25.90625
19,19,1727461518390,0.42944336,1.3202515,0.20428467,6.453125,46.65625,-5.953125
20,20,1727461518430,0.4440918,0.23504639,0.25286865,-0.09375,25.484375,-21.140625
21,21,1727461518470,0.075927734,-0.0022583008,-0.2263794,14.546875,-1.25,-23.78125
22,22,1727461518510,-0.19628906,-0.15704346,0.027282715,11.421875,-29.34375,-3.09375
23,23,1727461518550,0.09301758,-0.02935791,0.022155762,-27.265625,-36.953125,8.546875
24,24,1727461518590,0.27172852,1.1681519,-0.9961548,24.203125,-76.625,28.90625
25,25,1727461518630,0.54174805,1.999939,0.80926514,-83.3125,65.859375,18.390625
26,26,1727461518670,0.9243164,1.6034546,0.089782715,-4.703125,-16.796875,4.875
27,27,1727461518710,0.69750977,1.932312,0.5314331,-7.734375,-15.703125,-0.203125
28,28,1727461518750,0.484375,1.3573608,0.21697998,-20.34375,-50.609375,22.921875
29,29,1727461518790,0.44677734,0.71551514,-0.28082275,11.921875,-40.734375,-0.375
30,30,1727461518830,-0.07055664,0.23406982,0.20233154,-20.484375,-26.609375,-0.921875
31,31,1727461518870,-0.3540039,-0.06500244,-0.27545166,3.546875,-8.265625,2.8125
32,32,1727461518910,-0.3076172,-0.04864502,0.02142334,-2.21875,11.515625,5.984375
33,33,1727461518950,-0.20019531,0.39276123,-0.33087158,58.59375,32.421875,-6.78125
34,34,1727461518990,0.09667969,1.999939,-0.06793213,12.984375,15.8125,-8.953125
35,35,1727461519030,0.5,1.9984741,1.0119019,5.9375,40.296875,18.265625
36,36,1727461519070,0.7961426,1.5482788,0.10443115,-13.828125,55.453125,5.515625
37,37,1727461519110,0.32006836,1.7831421,0.31585693,-19.5625,36.28125,-15.59375
38,38,1727461519150,0.34594727,1.4542847,0.3595581,-11.921875,22.734375,-22.359375
39,39,1727461519190,0.056640625,0.17572021,0.24603271,12.1875,0.203125,-44.578125
40,40,1727461519230,0.09106445,-0.3789673,-0.1729126,9.921875,-32.6875,-23.6875
41,41,1727461519270,-0.0690918,-0.049865723,-0.23345947,5.09375,-49.375,-14.65625
42,42,1727461519310,0.09887695,0.23895264,0.17376709,-1.046875,9.671875,5.125
43,43,1727461519350,0.19213867,1.999939,-0.31793213,31.78125,-63.765625,42.078125
44,44,1727461519390,0.7036133,1.999939,0.35638428,-58.234375,23.15625,-0.421875
45,45,1727461519430,0.9797363,1.8934937,0.4310913,-2.4375,-42.671875,15.3125
46,46,1727461519470,0.7878418,1.5101929,0.002380371,-22.78125,-58.15625,20.8125
47,47,1727461519510,0.45361328,1.0631714,0.0138549805,-10.890625,-49.359375,-0.46875
48,48,1727461519550,-0.05908203,0.3842163,0.16937256,-18.96875,-57.453125,-1.296875
49,49,1727461519590,-0.19335938,-0.18927002,-0.38311768,7.71875,-20.34375,4.765625
50,50,1727461519630,-0.5661621,-0.11065674,-0.25030518,3.21875,-10.78125,10.4375
51,51,1727461519670,-0.17822266,-0.002746582,0.26507568,0.8125,18.859375,25.75
52,52,1727461519710,-0.024169922,1.0675659,-0.6921997,63.859375,20.078125,-17.796875
53,53,1727461519750,0.62524414,1.999939,0.3241577,-44.3125,79.6875,10.03125
54,54,1727461519790,0.70703125,1.999939,0.4718628,47.15625,5.0625,23.0625
55,55,1727461519830,0.79052734,1.5460815,0.15057373,-13.78125,41.546875,-10.625
56,56,1727461519870,0.35961914,1.4989624,0.40716553,-1.9375,43.640625,-29.390625
57,57,1727461519910,-0.10961914,0.68963623,0.19354248,7.828125,23.21875,-30.078125
58,58,1727461519950,-0.03564453,-0.2727661,-0.11846924,20.828125,17.15625,-25.984375
59,59,1727461519990,-0.15942383,-0.047180176,-0.09185791,32.78125,-7.65625,-11.921875
60,60,1727461520030,-0.21020508,-0.09039307,-0.026916504,-16.125,-14.265625,2.765625
61,61,1727461520070,0.08642578,1.0907593,-1.0352173,53.453125,-51.703125,34.53125
62,62,1727461520110,0.30908203,1.999939,0.20233154,-99.984375,68.21875,24.578125
63,63,1727461520150,0.87158203,1.9247437,0.3295288,19.453125,22.46875,-7.765625
64,64,1727461520190,0.20727539,1.999939,0.19207764,15.3125,13.578125,16.859375
65,65,1727461520230,0.6311035,1.5509644,0.42962646,-7.328125,-66.109375,34.09375
66,66,1727461520270,0.55810547,0.63568115,-0.22369385,8.796875,-30.609375,-21.703125
67,67,1727461520310,-0.21459961,0.34002686,0.24090576,-9.90625,-4.171875,6.28125
68,68,1727461520350,-0.40649414,-0.014221191,-0.30255127,18.390625,-15.40625,8.265625
69,69,1727461520390,-0.4025879,-0.18682861,0.27874756,-9.03125,16.609375,21.328125
70,70,1727461520430,0.029052734,0.10369873,-0.4295044,41.234375,29.171875,2.75
71,71,1727461520470,0.033935547,1.5221558,-0.21588135,-8.8125,-16.046875,-10.9375
72,72,1727461520510,0.30249023,1.999939,1.8920288,33.59375,72.25,39.96875
73,73,1727461520550,0.9291992,1.4420776,-0.3279419,-13.9375,48.734375,1.015625
74,74,1727461520590,0.41723633,1.7853394,0.3546753,-23.640625,10.890625,-25.796875
75,75,1727461520630,0.33569336,1.8146362,0.857605,9.890625,36.890625,-25.875
76,76,1727461520670,0.06958008,0.65667725,0.18890381,-3.578125,-0.1875,-27.109375
77,77,1727461520710,-0.18286133,-0.1482544,-0.2341919,24.796875,-5.53125,-20.78125
78,78,1727461520750,-0.08300781,-0.19244385,-0.31793213,21.03125,-10.59375,-12.390625
79,79,1727461520790,-0.15795898,-0.07183838,-0.04937744,-12.484375,-4.703125,-2.1875
80,80,1727461520830,-0.09643555,0.91986084,-0.5405884,19.359375,-49.15625,15.453125
81,81,1727461520870,0.8703613,1.999939,0.025817871,-112.21875,68.21875,27.09375
82,82,1727461520910,0.7661133,1.8742065,0.105651855,34.828125,17.53125,0.0625
83,83,1727461520950,0.079589844,1.8446655,0.56781006,-21.796875,-36.640625,32.609375
84,84,1727461520990,0.8171387,1.1452026,-0.11871338,-27.390625,-35.171875,32.578125
85,85,1727461521030,0.38793945,0.8114624,-0.11212158,24.890625,-62.296875,-13.578125
86,86,1727461521070,-0.12524414,0.28289795,0.02532959,-21.890625,-22.6875,-4.171875
87,87,1727461521110,-0.31835938,-0.0947876,-0.29180908,10.9375,-11.90625,6.8125
88,88,1727461521150,-0.5124512,-0.3032837,-0.022766113,-4.546875,0.03125,7.203125
89,89,1727461521190,-0.037109375,-0.082092285,0.19671631,0.359375,11.078125,13.296875
90,90,1727461521230,-0.1628418,0.930603,-0.6421509,38.828125,19.90625,-20.15625
91,91,1727461521270,0.5883789,1.999939,0.34539795,-59.421875,59.734375,9.125
92,92,1727461521310,1.0671387,1.999939,0.24945068,44.796875,-26.84375,10.046875
93,93,1727461521350,0.5695801,1.5751343,0.007019043,-33.609375,28.515625,-22.671875
94,94,1727461521390,0.30029297,1.6742554,0.6063843,-19.59375,49.484375,-36.09375
95,95,1727461521430,-0.118896484,0.73065186,0.32147217,-14.15625,17.21875,-40.390625
96,96,1727461521470,0.10668945,-0.31158447,-0.2888794,20.265625,-2.515625,-17.109375
97,97,1727461521510,-0.140625,-0.29571533,-0.24249268,28.28125,-32.90625,-6.53125
98,98,1727461521550,0.03955078,-0.04473877,0.06121826,-21.515625,-39.046875,3.671875
99,99,1727461521590,0.40673828,1.0067749,-1.024231,48.40625,-33.625,28.03125
100,100,1727461521630,-0.16748047,1.999939,0.19476318,-109.78125,47.140625,4.046875
101,101,1727461521670,0.9904785,1.999939,0.73236084,55.15625,-37.625,36.796875
102,102,1727461521710,0.24707031,1.8768921,0.2255249,-21.3125,-37.34375,3.65625
103,103,1727461521750,0.6203613,0.91815186,0.0016479492,27.5,-43.90625,5.109375
104,104,1727461521790,0.095214844,0.21575928,0.023132324,-22.046875,-13.546875,-1.109375
105,105,1727461521830,-0.296875,-0.20098877,-0.1963501,1.375,-16.375,4.59375
106,106,1727461521870,-0.2854004,-0.21612549,-0.1375122,9.953125,1.625,11.8125
107,107,1727461521910,-0.07910156,0.07171631,0.10736084,-2.453125,16.578125,0.609375
108,108,1727461521950,-0.22216797,0.77459717,-0.6248169,53.59375,37.546875,-13.109375
109,109,1727461521990,0.5847168,1.999939,0.1876831,-51.953125,68.0,-11.171875
110,110,1727461522030,0.5124512,1.999939,0.30999756,36.546875,-22.40625,23.296875
111,111,1727461522070,1.1315918,1.4786987,0.12567139,-1.984375,57.09375,-12.765625
112,112,1727461522110,0.46313477,1.479187,0.10491943,-9.65625,25.640625,-41.953125
113,113,1727461522150,-0.048583984,0.53289795,0.2855835,-17.703125,14.9375,-37.59375
114,114,1727461522190,-0.018798828,-0.25445557,-0.4216919,33.0625,-9.640625,-14.46875
115,115,1727461522230,-0.14379883,-0.0029907227,-0.0713501,25.921875,-26.015625,-21.890625
116,116,1727461522270,-0.23242188,-0.07354736,0.008728027,-17.625,-26.5,-1.09375
117,117,1727461522310,0.047607422,1.3095093,-0.99835205,72.03125,-66.90625,34.921875
118,118,1727461522350,1.2541504,1.9098511,0.215271,-110.28125,30.875,-25.828125
119,119,1727461522390,1.041748,1.6364136,-0.0803833,51.171875,0.4375,5.859375
120,120,1727461522430,0.2253418,1.9098511,0.14886475,8.3125,-5.109375,26.453125
121,121,1727461522470,1.1188965,1.2521362,0.21380615,-51.859375,-26.34375,10.78125
122,122,1727461522510,-0.033691406,0.64764404,-0.20343018,1.21875,-26.640625,1.453125
123,123,1727461522550,-0.19262695,0.12030029,0.0692749,-7.78125,-39.640625,9.625
124,124,1727461522590,-0.37475586,-0.09283447,-0.18389893,9.625,-6.4375,8.25
125,125,1727461522630,-0.3149414,-0.16485596,0.10638428,-3.359375,10.078125,16.625
126,126,1727461522670,-0.08520508,0.27166748,0.007751465,51.375,46.09375,-4.296875
127,127,1727461522710,0.1538086,1.8131714,-0.27398682,12.9375,14.53125,5.03125
128,128,1727461522750,0.40576172,1.999939,1.6674194,7.953125,76.8125,2.828125
129,129,1727461522790,0.64404297,1.5839233,-0.70806885,-20.46875,28.359375,7.125
130,130,1727461522830,0.35253906,1.772644,0.7536011,-39.0,35.15625,-17.9375
131,131,1727461522870,0.17822266,1.0592651,-0.026916504,25.875,34.921875,-21.203125
132,132,1727461522910,-0.022949219,0.02142334,0.3866577,-5.171875,15.15625,-30.3125
133,133,1727461522950,-0.029296875,-0.32818604,-0.19537354,17.984375,-5.484375,-17.765625
134,134,1727461522990,-0.12207031,0.08709717,-0.0947876,3.0625,-19.734375,-9.296875
135,135,1727461523030,0.048339844,0.50408936,-0.48809814,45.46875,-2.921875,2.953125
136,136,1727461523070,-0.2758789,1.999939,-0.2913208,-11.84375,6.140625,50.953125
137,137,1727461523110,1.0710449,1.999939,0.8588257,25.234375,-8.046875,3.921875
138,138,1727461523150,0.45776367,1.7438354,0.10296631,-38.40625,-53.734375,7.578125
139,139,1727461523190,0.6665039,1.493103,-0.093322754,-25.578125,-40.515625,22.890625
140,140,1727461523230,0.5065918,0.78167725,0.16107178,-4.25,-43.921875,-0.359375
141,141,1727461523270,-0.17407227,0.18670654,-0.09429932,-12.40625,-17.421875,-2.09375
142,142,1727461523310,-0.55322266,-0.06329346,-0.23980713,15.71875,-12.296875,9.890625
143,143,1727461523350,-0.35473633,-0.025939941,-0.06719971,28.890625,5.640625,19.859375
144,144,1727461523390,-0.034179688,0.35101318,-0.2456665,55.484375,50.0625,-3.109375
145,145,1727461523430,0.45825195,1.999939,-0.43804932,16.171875,4.453125,2.90625
146,146,1727461523470,-0.1484375,1.999939,1.836853,-26.5625,71.734375,-2.484375
147,147,1727461523510,0.8754883,1.4557495,-0.66192627,4.3125,52.0625,9.703125
148,148,1727461523550,0.21020508,1.5170288,0.18499756,-27.921875,65.171875,-17.953125
149,149,1727461523590,0.35327148,1.1969604,0.5409546,31.203125,48.078125,-14.984375
150,150,1727461523630,0.13989258,0.002380371,0.05316162,-14.265625,17.234375,-30.40625
151,151,1727461523670,0.09326172,-0.27496338,-0.14141846,8.84375,-16.578125,-21.171875
152,152,1727461523710,-0.18408203,0.058532715,-0.03765869,13.84375,-30.875,-8.21875
153,153,1727461523750,-0.06982422,0.08416748,0.06951904,-1.53125,-17.3125,1.421875
154,154,1727461523790,0.13745117,1.8908081,-0.41680908,28.90625,-72.609375,24.109375
155,155,1727461523830,0.8300781,1.999939,0.5829468,-80.421875,44.421875,-6.734375
156,156,1727461523870,0.7915039,1.6452026,0.03265381,22.734375,-55.875,10.25
157,157,1727461523910,0.3947754,1.7199097,0.15179443,-17.34375,-32.25,20.984375
158,158,1727461523950,0.72509766,1.0341187,0.19500732,-5.359375,-64.28125,7.640625
159,159,1727461523990,0.091308594,0.40911865,-0.105529785,-13.1875,-23.40625,-4.90625
160,160,1727461524030,-0.36816406,0.027038574,-0.12530518,-5.5,-20.59375,6.640625
161,161,1727461524070,-0.42382812,0.008728027,-0.09039307,9.984375,-8.640625,8.28125
162,162,1727461524110,-0.036132812,0.13812256,0.17816162,4.953125,16.578125,2.171875
163,163,1727461524150,0.28735352,1.3998413,-0.37017822,48.21875,2.21875,-29.484375
164,164,1727461524190,-0.18798828,1.999939,1.4616089,-55.015625,87.34375,-2.0625
165,165,1727461524230,0.8288574,1.5184937,-0.39068604,10.609375,52.0,18.109375
166,166,1727461524270,0.5878906,1.44281,0.16326904,-4.328125,35.71875,-6.8125
167,167,1727461524310,0.40307617,1.454773,0.6491089,-9.515625,48.9375,-20.140625
168,168,1727461524350,0.092041016,0.27947998,0.020202637,11.71875,26.875,-26.5
169,169,1727461524390,0.14648438,-0.2954712,-0.21661377,21.5625,-0.359375,-13.640625
170,170,1727461524430,-0.17797852,-0.014221191,-0.031799316,15.484375,-28.8125,-15.234375
171,171,1727461524470,-0.08154297,0.12640381,-0.047668457,-7.15625,-29.859375,-8.453125
172,172,1727461524510,0.25048828,0.70233154,-0.57232666,54.4375,-15.5625,23.8125
173,173,1727461524550,-0.041992188,1.999939,0.043640137,-60.25,32.953125,18.53125
174,174,1727461524590,1.0344238,1.9889526,0.8966675,-20.3125,19.671875,11.984375
175,175,1727461524630,0.86572266,1.9244995,0.5265503,-19.84375,-50.546875,26.71875
176,176,1727461524670,0.7397461,1.2296753,0.011169434,-7.5625,-34.890625,15.640625
177,177,1727461524710,0.10131836,0.621521,-0.020324707,-22.625,-39.3125,4.09375
178,178,1727461524750,-0.20043945,0.13665771,0.1395874,-15.65625,-27.328125,10.296875
179,179,1727461524790,-0.30004883,-0.022766113,-0.19244385,17.109375,-4.9375,7.1875
180,180,1727461524830,-0.23461914,-0.03643799,0.016784668,3.109375,10.3125,2.953125
181,181,1727461524870,-0.06958008,0.8473511,-0.44805908,67.328125,18.921875,-15.140625
182,182,1727461524910,0.18896484,1.999939,-0.34747314,-13.703125,36.234375,-4.5
183,183,1727461524950,0.66015625,1.8920288,0.58587646,50.234375,-11.359375,25.25
184,184,1727461524990,0.5541992,1.4779663,0.18011475,-28.171875,36.875,4.640625
185,185,1727461525030,0.37109375,1.5304565,0.23553467,-20.0,42.71875,-10.640625
186,186,1727461525070,0.23901367,0.78533936,0.12738037,1.65625,40.625,-26.203125
187,187,1727461525110,-0.061523438,-0.31134033,-0.12237549,18.09375,9.859375,-22.90625
188,188,1727461525150,-0.041503906,-0.06719971,0.055114746,22.34375,-5.578125,-9.046875
189,189,1727461525190,-0.049072266,0.15032959,-0.074035645,6.296875,-15.921875,-7.1875
190,190,1727461525230,0.08520508,0.67303467,-0.6553345,48.578125,-2.34375,12.828125
191,191,1727461525270,0.14257812,1.8444214,0.010437012,13.625,41.125,19.015625
192,192,1727461525310,1.0981445,1.999939,0.7994995,11.859375,-23.5625,18.546875
193,193,1727461525350,0.35058594,1.8534546,0.29315186,-31.203125,-46.578125,7.75
194,194,1727461525390,0.7504883,1.600769,-0.09698486,-28.84375,-14.140625,27.03125
195,195,1727461525430,0.6123047,1.0819702,0.20648193,-24.875,-45.5625,10.21875
196,196,1727461525470,-0.057373047,0.35736084,-0.02178955,-21.78125,-21.0625,3.75
197,197,1727461525510,-0.29785156,0.031677246,-0.074035645,-5.453125,-20.421875,5.546875
198,198,1727461525550,-0.3647461,-0.038635254,-0.09674072,3.921875,-6.40625,5.84375
199,199,1727461525590,-0.11401367,0.1876831,-0.027404785,13.8125,16.484375,-3.96875
200,200,1727461525630,0.24804688,1.3322144,-0.4163208,58.921875,-12.0625,-15.1875
201,201,1727461525670,-0.49902344,1.999939,0.8666382,5.640625,68.203125,-11.21875
202,202,1727461525710,0.8405762,1.6161499,-0.026184082,-12.53125,31.609375,20.0625
203,203,1727461525750,0.34887695,1.6115112,0.16156006,-10.671875,43.65625,-5.46875
204,204,1727461525790,0.26953125,1.3009644,0.30291748,2.640625,45.109375,-10.859375
205,205,1727461525830,0.32885742,0.65008545,0.05633545,0.46875,27.796875,-16.1875
206,206,1727461525870,0.16503906,-0.21881104,0.07562256,1.65625,8.640625,-29.96875
207,207,1727461525910,-0.029296875,0.0067749023,-0.2078247,17.953125,-21.953125,-16.703125
208,208,1727461525950,-0.13647461,0.012878418,0.022888184,-11.296875,-33.109375,-9.484375
209,209,1727461525990,0.072265625,0.96673584,-0.835022,60.734375,-30.9375,14.296875
210,210,1727461526030,0.41455078,1.999939,0.008728027,-60.875,66.234375,2.15625
211,211,1727461526070,1.0439453,1.999939,0.76068115,11.078125,-22.484375,8.40625
212,212,1727461526110,0.39746094,1.8700562,0.496521,-10.796875,-37.640625,18.46875
213,213,1727461526150,0.76123047,1.1881714,-0.015930176,-10.109375,-30.34375,23.46875
214,214,1727461526190,0.09106445,0.7040405,-0.0022583008,-25.484375,-43.8125,-0.28125
215,215,1727461526230,-0.15551758,0.16204834,0.11126709,-2.625,-21.703125,6.40625
216,216,1727461526270,-0.22631836,-0.08380127,-0.16192627,16.109375,-13.3125,7.90625
217,217,1727461526310,-0.28759766,-0.06085205,-0.04522705,11.046875,-0.25,6.765625
218,218,1727461526350,-0.1550293,0.6329956,-0.4866333,69.4375,20.265625,-9.390625
219,219,1727461526390,0.62841797,1.999939,-0.26348877,-23.765625,30.8125,-14.25
220,220,1727461526430,0.20678711,1.999939,0.83148193,46.8125,2.953125,19.921875
221,221,1727461526470,1.0524902,1.494812,-0.065979004,-38.1875,38.921875,7.03125
222,222,1727461526510,0.22387695,1.6415405,0.22869873,-24.75,52.296875,-23.390625
223,223,1727461526550,0.18041992,1.09198,0.028259277,14.21875,48.65625,-9.8125
224,224,1727461526590,0.088378906,-0.13433838,0.24822998,2.875,19.109375,-29.859375
225,225,1727461526630,0.10571289,-0.039367676,-0.21734619,31.59375,-18.265625,-19.4375
226,226,1727461526670,-0.21728516,0.06707764,-0.042541504,3.4375,-35.96875,-13.203125
227,227,1727461526710,0.099365234,0.28216553,-0.11602783,40.96875,-7.578125,4.984375
228,228,1727461526750,0.2890625,1.999939,-0.4985962,-12.921875,-55.84375,29.109375
229,229,1727461526790,0.78686523,1.999939,1.430603,-61.25,-14.875,27.046875
230,230,1727461526830,0.734375,1.8373413,0.22113037,-32.140625,-61.765625,27.75
231,231,1727461526870,0.53125,1.2965698,-0.120666504,-7.34375,-62.625,26.5
232,232,1727461526910,0.26660156,0.79852295,-0.003479004,-22.765625,-45.828125,9.828125
233,233,1727461526950,-0.23095703,0.14129639,-0.002746582,-11.671875,-6.984375,5.546875
234,234,1727461526990,-0.4489746,0.0006713867,-0.18536377,27.03125,-8.953125,10.5625
235,235,1727461527030,-0.38085938,-0.06866455,-0.024230957,-4.9375,14.734375,5.953125
236,236,1727461527070,-0.0034179688,0.52508545,-0.3821411,58.734375,64.125,-11.984375
237,237,1727461527110,0.49926758,1.999939,-0.673645,7.828125,-3.53125,-5.234375
238,238,1727461527150,0.06298828,1.999939,1.0883179,-30.09375,53.1875,-9.421875
239,239,1727461527190,0.44726562,1.4728394,-0.6033325,13.46875,48.5625,0.390625
240,240,1727461527230,0.41992188,1.7814331,0.447937,-20.625,48.234375,-9.171875
241,241,1727461527270,0.4724121,1.0697632,-0.13604736,24.8125,52.984375,-23.171875
242,242,1727461527310,0.10839844,-0.05987549,0.338562,0.0625,11.546875,-35.3125
243,243,1727461527350,0.100097656,-0.17730713,-0.35699463,22.5625,-12.796875,-14.359375
244,244,1727461527390,-0.1965332,0.04071045,0.02508545,7.515625,-20.359375,-5.859375
245,245,1727461527430,-0.0017089844,0.25091553,-0.06402588,27.328125,2.21875,3.578125
246,246,1727461527470,-0.068847656,1.999939,-0.6074829,10.796875,-24.15625,43.140625
247,247,1727461527510,1.0625,1.999939,1.0250854,-41.890625,17.640625,14.515625
248,248,1727461527550,0.52734375,1.8344116,0.15374756,-13.828125,-59.390625,7.1875
249,249,1727461527590,0.34155273,1.6134644,-0.35821533,-32.625,-38.28125,35.46875
250,250,1727461527630,0.5476074,0.8366089,0.11907959,-3.640625,-50.578125,6.1875
251,251,1727461527670,-0.15185547,0.25091553,0.24627686,-18.921875,-22.875,2.53125
252,252,1727461527710,-0.3774414,-0.08258057,-0.26446533,11.078125,-17.65625,8.453125
253,253,1727461527750,-0.34057617,-0.0017700195,-0.11114502,15.984375,2.484375,8.125
254,254,1727461527790,-0.13012695,0.32611084,-0.04547119,40.953125,32.359375,-2.9375
255,255,1727461527830,0.3618164,1.7694702,-0.612854,33.34375,-16.859375,-9.296875
256,256,1727461527870,-0.6699219,1.999939,1.999939,-85.28125,85.6875,-0.4375
257,257,1727461527910,1.0375977,1.4589233,-0.7835083,41.75,91.1875,14.4375
258,258,1727461527950,0.29956055,1.446228,0.21038818,-37.546875,60.984375,-26.546875
259,259,1727461527990,0.4921875,1.3270874,0.66522217,15.5,55.703125,-22.71875
260,260,1727461528030,0.13671875,0.28631592,-0.13189697,-23.4375,26.46875,-41.171875
261,261,1727461528070,0.18408203,-0.17681885,-0.15997314,26.8125,-13.078125,-26.71875
262,262,1727461528110,-0.23071289,0.04949951,-0.16900635,20.578125,-46.875,-8.125
263,263,1727461528150,-0.045654297,0.06414795,0.20965576,-29.578125,-31.921875,2.515625
264,264,1727461528190,0.1965332,1.9989624,-0.73321533,56.265625,-86.078125,19.203125
265,265,1727461528230,1.0441895,1.999939,0.6757202,-51.921875,16.21875,-4.015625
266,266,1727461528270,1.2626953,1.4711304,0.31732178,-21.84375,-62.03125,13.875
267,267,1727461528310,0.5168457,1.6535034,-0.018615723,-4.765625,-53.53125,15.875
268,268,1727461528350,0.51708984,1.0724487,-0.053771973,-36.640625,-40.0625,8.65625
269,269,1727461528390,-0.079589844,0.37371826,0.1071167,-24.234375,-31.609375,9.0
270,270,1727461528430,-0.38964844,-0.014465332,-0.25543213,9.5625,-20.703125,13.84375
271,271,1727461528470,-0.28344727,-0.010314941,-0.13482666,6.328125,-5.71875,5.359375
272,272,1727461528510,-0.17797852,0.4142456,-0.4031372,49.796875,27.90625,-6.078125
273,273,1727461528550,0.15722656,1.999939,-0.27764893,12.90625,-4.625,3.34375
274,274,1727461528590,0.2824707,1.999939,1.5348511,18.96875,60.0,8.5
275,275,1727461528630,0.79711914,1.5455933,-0.35650635,-13.5625,48.171875,11.25
276,276,1727461528670,0.38671875,1.4945679,0.2477417,-30.359375,46.078125,-23.0
277,277,1727461528710,0.35791016,0.84295654,0.14813232,15.96875,55.59375,-22.59375
278,278,1727461528750,-0.03149414,-0.2366333,0.14886475,1.390625,10.53125,-25.90625
279,279,1727461528790,-0.07495117,-0.15509033,-0.23638916,3.859375,-16.6875,-13.046875
280,280,1727461528830,-0.068847656,0.14886475,-0.019104004,-2.109375,-28.390625,-11.859375
281,281,1727461528870,0.11743164,1.1447144,-0.86846924,59.59375,-30.171875,15.28125
282,282,1727461528910,1.0605469,1.8488159,-0.2666626,-82.109375,74.5,12.46875
283,283,1727461528950,1.4335938,1.999939,0.19281006,55.859375,-52.78125,18.734375
284,284,1727461528990,0.032958984,1.781189,0.19256592,-43.03125,-61.125,15.84375
285,285,1727461529030,0.69799805,1.1776733,-0.0064086914,-29.6875,-50.265625,23.765625
286,286,1727461529070,0.08984375,0.34661865,0.16107178,3.3125,-49.171875,-0.03125
287,287,1727461529110,-0.48120117,-0.07696533,-0.2600708,2.234375,-16.609375,9.0
288,288,1727461529150,-0.42529297,-0.1260376,-0.10992432,19.078125,5.71875,14.609375
289,289,1727461529190,-0.07006836,0.13153076,-0.10235596,18.390625,26.875,4.015625
290,290,1727461529230,0.23657227,1.2753296,-0.40289307,26.359375,-10.265625,-13.578125
291,291,1727461529270,-0.37280273,1.999939,1.3859253,-97.15625,147.21875,8.75
292,292,1727461529310,0.9433594,1.8016968,-0.23834229,16.90625,25.546875,23.625
293,293,1727461529350,0.48828125,1.3605347,0.1696167,-39.0625,63.109375,-28.46875
294,294,1727461529390,0.36108398,1.2728882,0.49090576,3.484375,54.9375,-18.515625
295,295,1727461529430,0.009521484,0.35662842,0.52508545,-4.8125,16.828125,-42.578125
296,296,1727461529470,0.10522461,-0.22247314,-0.26470947,28.140625,-7.109375,-25.84375
297,297,1727461529510,-0.14160156,-0.036193848,-0.14019775,21.140625,-25.359375,-11.5
298,298,1727461529550,0.0087890625,0.016540527,0.12908936,-20.25,-30.484375,-0.90625
299,299,1727461529590,0.4584961,1.999939,-1.1084595,73.953125,-92.484375,37.515625
300,300,1727461529630,0.9140625,1.999939,0.38153076,-106.75,46.0,-13.1875
301,301,1727461529670,0.8913574,1.4332886,-0.18658447,14.0625,-78.921875,30.796875
302,302,1727461529710,0.6225586,1.5975952,-0.0076293945,3.546875,-60.046875,19.21875
303,303,1727461529750,0.37231445,1.0241089,-0.043273926,-18.53125,-54.5625,-4.484375
304,304,1727461529790,0.07397461,0.39300537,0.33099365,-9.765625,-26.15625,-4.125
305,305,1727461529830,-0.45239258,-0.012512207,-0.44024658,7.890625,-22.75,8.09375
306,306,1727461529870,-0.34179688,-0.008117676,-0.010070801,11.5,3.984375,8.265625
307,307,1727461529910,-0.12719727,0.5067749,-0.38580322,48.265625,36.171875,-6.09375
308,308,1727461529950,0.5600586,1.999939,-0.52130127,15.296875,-7.328125,-17.421875
309,309,1727461529990,-0.17871094,1.999939,1.5011597,31.671875,67.28125,12.28125
310,310,1727461530030,0.984375,1.6224976,-0.038879395,-8.15625,62.78125,19.578125
311,311,1727461530070,0.34643555,1.3475952,0.08514404,-13.421875,58.984375,-31.546875
312,312,1727461530110,0.2861328,1.102478,0.5553589,-11.75,22.4375,-28.625
313,313,1727461530150,0.0715332,-0.36553955,-0.057678223,19.765625,5.546875,-20.546875
314,314,1727461530190,-0.03466797,-0.15142822,-0.1572876,23.671875,-27.125,-13.9375
315,315,1727461530230,-0.08691406,0.038269043,-0.09625244,-5.34375,-24.671875,-9.125
316,316,1727461530270,-0.08911133,0.9923706,-0.6992798,35.40625,-58.046875,34.203125
317,317,1727461530310,1.2080078,1.8143921,0.59051514,-115.609375,35.421875,-14.078125
318,318,1727461530350,1.3806152,1.5748901,-0.039367676,22.828125,-58.109375,6.9375
319,319,1727461530390,0.09716797,1.9301147,0.3156128,-29.234375,-49.09375,20.90625
320,320,1727461530430,0.7487793,1.1815796,0.37005615,-24.15625,-56.421875,38.328125
321,321,1727461530470,0.29956055,0.5079956,0.036315918,0.875,-39.0,-6.5625
322,322,1727461530510,-0.38671875,-0.05718994,-0.2263794,-9.5625,-40.453125,-3.078125
323,323,1727461530550,-0.5097656,-0.042541504,-0.16021729,7.9375,4.671875,4.609375
324,324,1727461530590,-0.29614258,0.2711792,0.01751709,22.21875,47.21875,3.40625
325,325,1727461530630,0.37573242,1.1754761,-0.54229736,44.59375,15.515625,-16.375
326,326,1727461530670,-0.5222168,1.999939,1.5929565,-34.546875,120.984375,1.625
327,327,1727461530710,0.796875,1.4923706,-0.28179932,-18.671875,49.75,24.734375
328,328,1727461530750,0.44604492,1.3793335,0.06732178,12.0,51.671875,-15.5
329,329,1727461530790,0.4987793,1.1630249,0.4154663,-21.171875,46.0,-28.90625
330,330,1727461530830,-0.09326172,0.043884277,0.07122803,15.234375,30.71875,-44.71875
331,331,1727461530870,0.080566406,-0.23956299,-0.21099854,28.59375,-6.953125,-16.390625
332,332,1727461530910,-0.052001953,0.04901123,-0.12872314,5.65625,-28.359375,-4.21875
333,333,1727461530950,-0.10498047,0.19085693,-0.022521973,9.53125,-12.984375,-4.796875
334,334,1727461530990,-0.04296875,1.999939,-0.4985962,16.28125,-43.046875,50.9375
335,335,1727461531030,0.74731445,1.999939,1.0560913,-49.59375,18.890625,-3.203125
336,336,1727461531070,0.8149414,1.6918335,0.26287842,-13.03125,-54.234375,12.828125
337,337,1727461531110,0.39013672,1.458435,-0.23345947,-18.875,-77.671875,37.21875
338,338,1727461531150,0.31225586,0.6161499,-0.12408447,-0.9375,-43.578125,4.140625
339,339,1727461531190,-0.05126953,0.15423584,0.31951904,-15.71875,-19.109375,7.28125
340,340,1727461531230,-0.48217773,-0.03765869,-0.31524658,22.921875,-19.9375,8.34375
341,341,1727461531270,-0.4243164,-0.0569458,-0.07330322,11.703125,10.40625,4.234375
342,342,1727461531310,-0.114990234,0.3649292,-0.09552002,53.875,49.078125,-0.46875
343,343,1727461531350,0.40576172,1.8856812,-0.39874268,22.71875,8.734375,-9.328125
344,344,1727461531390,-0.037353516,1.999939,1.8842163,-39.875,65.109375,-3.96875
345,345,1727461531430,0.9489746,1.2987671,-0.8167114,-7.15625,54.015625,15.390625
346,346,1727461531470,0.48901367,1.4349976,0.2008667,-22.84375,47.109375,-18.78125
347,347,1727461531510,0.31591797,1.4135132,0.6137085,-4.703125,28.359375,-24.40625
348,348,1727461531550,-0.14379883,0.016296387,0.0099487305,12.75,13.609375,-27.265625
349,349,1727461531590,-0.057373047,-0.24615479,-0.1609497,18.328125,-10.484375,-14.484375
350,350,1727461531630,0.015136719,0.012878418,-0.19903564,14.65625,-40.71875,-8.328125
351,351,1727461531670,-0.07421875,0.02557373,0.020446777,-28.671875,-22.046875,-8.96875
352,352,1727461531710,0.39672852,1.8126831,-0.8574829,68.296875,-89.9375,34.8125
353,353,1727461531750,0.66796875,1.999939,0.6671753,-60.71875,47.34375,7.484375
354,354,1727461531790,0.8581543,1.6254272,0.14886475,16.890625,-33.015625,23.78125
355,355,1727461531830,0.8864746,1.6598511,0.46746826,-8.90625,-74.0,17.53125
356,356,1727461531870,0.39233398,1.0455933,-0.42877197,-5.6875,-38.34375,2.703125
357,357,1727461531910,0.020507812,0.49578857,0.3961792,-29.25,-38.140625,-1.125
358,358,1727461531950,-0.17504883,0.0914917,-0.27496338,17.0625,-21.109375,3.984375
359,359,1727461531990,-0.5078125,-0.035217285,-0.11505127,-2.84375,-6.171875,2.78125
360,360,1727461532030,-0.1340332,0.040222168,0.11175537,7.53125,-0.015625,4.859375
361,361,1727461532070,-0.0087890625,1.0309448,-0.44854736,70.4375,-2.421875,-19.84375
362,362,1727461532110,0.4182129,1.999939,0.15057373,-32.546875,41.5625,-1.6875
363,363,1727461532150,0.5961914,1.999939,0.4730835,56.765625,18.84375,28.0
364,364,1727461532190,0.7036133,1.532898,0.23724365,-30.375,46.265625,-9.171875
365,365,1727461532230,0.4399414,1.4103394,0.35931396,-18.109375,50.671875,-18.96875
366,366,1727461532270,0.1862793,0.5910034,0.13934326,-14.59375,11.0,-22.875
367,367,1727461532310,0.006591797,-0.2444458,-0.3027954,21.15625,-0.5625,-18.3125
368,368,1727461532350,-0.038085938,-0.09259033,-0.10235596,16.25,-33.046875,-11.484375
369,369,1727461532390,-0.012451172,0.059020996,-0.04864502,-9.4375,-34.265625,-9.140625
370,370,1727461532430,0.19018555,0.92889404,-0.72979736,61.0,-32.515625,17.4375
371,371,1727461532470,-0.20947266,1.999939,0.0692749,-51.171875,52.453125,5.375
372,372,1727461532510,1.1633301,1.5424194,0.5158081,-32.640625,19.390625,6.46875
373,373,1727461532550,0.9394531,1.999939,0.48382568,-8.5625,-21.265625,22.578125
374,374,1727461532590,0.5473633,1.2206421,-0.3262329,-24.6875,-53.890625,24.59375
375,375,1727461532630,0.20483398,0.7328491,-0.059631348,-15.15625,-48.484375,2.46875
376,376,1727461532670,0.103515625,0.2423706,0.17230225,-10.953125,-14.140625,2.625
377,377,1727461532710,-0.3359375,0.10345459,-0.3081665,13.015625,-8.4375,10.109375
378,378,1727461532750,-0.4326172,-0.042785645,0.02142334,-12.40625,13.921875,5.34375
379,379,1727461532790,-0.21118164,0.42132568,-0.4607544,64.265625,44.875,3.796875
380,380,1727461532830,0.1928711,1.736023,-0.18023682,14.78125,18.375,-6.546875
381,381,1727461532870,0.024902344,1.999939,1.5304565,-46.546875,86.703125,8.0625
382,382,1727461532910,1.1311035,1.6720581,-0.024963379,20.09375,48.46875,13.59375
383,383,1727461532950,0.39990234,1.4647827,0.19818115,-30.25,59.640625,-18.75
384,384,1727461532990,0.33276367,0.9879761,0.4389038,2.578125,28.578125,-12.34375
385,385,1727461533030,-0.1862793,0.17767334,0.051452637,5.8125,-1.640625,-37.578125
386,386,1727461533070,-0.029296875,-0.09112549,-0.2925415,-3.375,1.296875,-7.0
387,387,1727461533110,-0.06982422,-0.012756348,-0.0491333,6.359375,-24.890625,-8.78125
388,388,1727461533150,-0.13061523,0.2982788,-0.5737915,30.9375,-2.4375,6.625
389,389,1727461533190,-0.1472168,1.5033569,-0.30914307,-11.46875,4.890625,41.9375
390,390,1727461533230,1.25,1.999939,1.3302612,-45.640625,17.484375,8.765625
391,391,1727461533270,0.6633301,1.999939,0.23480225,-6.0,-38.484375,7.578125
392,392,1727461533310,0.82128906,1.5731812,0.11566162,-41.734375,-44.59375,45.046875
393,393,1727461533350,0.60791016,1.001648,0.026062012,-2.328125,-46.03125,0.640625
394,394,1727461533390,-0.20996094,0.3480835,0.049743652,-11.8125,-42.5,-8.390625
395,395,1727461533430,-0.35595703,-0.13848877,-0.36602783,17.3125,-14.140625,4.5625
396,396,1727461533470,-0.47802734,-0.20245361,-0.13726807,1.03125,4.390625,5.796875
397,397,1727461533510,-0.19458008,0.058044434,-0.036193848,44.890625,35.296875,15.046875
398,398,1727461533550,0.15771484,1.1898804,-0.24639893,12.53125,10.625,8.46875
399,399,1727461533590,0.35498047,1.999939,1.0499878,-75.28125,115.328125,0.625
400,400,1727461533630,0.9135742,1.999939,0.29534912,29.265625,8.25,10.25
401,401,1727461533670,0.41918945,1.7487183,0.12176514,-23.21875,65.109375,-22.28125
402,402,1727461533710,0.34399414,1.0055542,0.51678467,-5.0,28.953125,-27.921875
403,403,1727461533750,-0.05053711,-0.08380127,0.10809326,29.71875,6.734375,-37.046875
404,404,1727461533790,-0.10913086,-0.2962036,-0.45977783,31.375,-25.765625,-21.84375
405,405,1727461533830,-0.14648438,-0.089660645,0.0368042,-4.15625,-20.015625,-9.0625
406,406,1727461533870,-0.18457031,0.75164795,-0.60943604,32.78125,-29.046875,15.15625
407,407,1727461533910,0.6542969,1.999939,-0.04425049,-88.5625,42.21875,25.9375
408,408,1727461533950,0.97216797,1.999939,0.20941162,13.8125,17.59375,-3.75
409,409,1727461533990,0.3762207,1.9711304,0.16522217,-28.25,-30.203125,26.765625
410,410,1727461534030,1.0043945,0.97039795,0.070495605,-12.203125,-61.96875,17.90625
411,411,1727461534070,-0.07446289,0.51434326,-0.04498291,-11.59375,-46.25,-4.40625
412,412,1727461534110,-0.37158203,-0.1338501,-0.16339111,4.8125,-29.40625,2.65625
413,413,1727461534150,-0.5734863,-0.12628174,-0.16314697,23.734375,-6.265625,4.703125
414,414,1727461534190,-0.1430664,-0.04888916,0.034606934,16.953125,22.28125,11.171875
415,415,1727461534230,0.033691406,0.7719116,-0.45147705,65.921875,31.0625,-23.703125
416,416,1727461534270,0.49023438,1.999939,-0.042053223,-6.640625,56.109375,-2.03125
417,417,1727461534310,0.8522949,1.999939,0.75531006,49.140625,22.9375,24.328125
418,418,1727461534350,0.83032227,1.4657593,-0.1260376,-24.453125,47.921875,-9.578125
419,419,1727461534390,0.6713867,1.3026733,0.32489014,-32.640625,43.703125,-25.34375
420,420,1727461534430,-0.18530273,0.932312,0.32537842,-2.65625,16.765625,-44.1875
421,421,1727461534470,0.017578125,-0.487854,-0.37799072,8.78125,-14.734375,-16.015625
422,422,1727461534510,-0.27172852,-0.16021729,-0.15411377,25.75,-35.625,-4.71875
423,423,1727461534550,-0.052490234,-0.0051879883,-0.051818848,-22.671875,-27.328125,2.828125
424,424,1727461534590,0.13012695,1.2802124,-1.0418091,76.0625,-62.953125,42.4375
425,425,1727461534630,0.91674805,1.999939,-0.0017700195,-112.171875,61.5625,2.859375
426,426,1727461534670,1.0151367,1.8099976,0.0072631836,41.6875,-11.59375,18.828125
427,427,1727461534710,0.43408203,1.739685,0.14324951,-14.671875,-95.5,6.609375
428,428,1727461534750,0.5871582,0.8317261,-0.13873291,-4.46875,-66.375,-6.171875
429,429,1727461534790,-0.203125,0.20794678,0.24822998,-22.671875,-41.59375,4.8125
430,430,1727461534830,-0.38208008,-0.17559814,-0.4993286,37.671875,-38.078125,14.15625
431,431,1727461534870,-0.3232422,-0.061584473,-0.14361572,4.0,-2.359375,7.640625
432,432,1727461534910,0.05908203,0.13397217,0.27679443,3.109375,12.484375,-5.984375
433,433,1727461534950,-0.01953125,1.1564331,-0.96832275,68.46875,-4.828125,-23.3125
434,434,1727461534990,0.2055664,1.999939,1.5094604,-120.078125,129.85938,2.40625
435,435,1727461535030,1.0539551,1.999939,0.043884277,53.5,3.625,32.828125
436,436,1727461535070,0.6850586,1.444519,0.46087646,-27.25,74.5625,-24.875
437,437,1727461535110,0.3725586,1.1994019,0.5438843,14.6875,54.90625,-26.90625
438,438,1727461535150,0.28686523,-0.06744385,0.10736084,1.78125,6.453125,-33.6875
439,439,1727461535190,-0.022460938,-0.26812744,-0.20343018,8.640625,-12.84375,-25.28125
440,440,1727461535230,-0.15820312,0.070007324,-0.07720947,11.203125,-23.59375,-6.921875
441,441,1727461535270,-0.032470703,0.18304443,-0.005432129,-11.484375,-26.5,-3.671875
442,442,1727461535310,0.19848633,1.999939,-0.427063,19.171875,-82.625,18.96875
443,443,1727461535350,0.8659668,1.999939,0.6942749,-86.296875,47.5625,14.921875
444,444,1727461535390,1.1179199,1.3285522,0.19085693,16.546875,-56.125,4.21875
445,445,1727461535430,0.810791,1.6967163,0.48358154,-33.90625,-36.375,22.3125
446,446,1727461535470,0.45581055,1.0612183,0.014831543,1.15625,-22.046875,-6.546875
447,447,1727461535510,0.15112305,0.40838623,0.36151123,0.734375,-42.1875,4.578125
448,448,1727461535550,-0.33691406,-0.06524658,-0.38555908,27.21875,-23.96875,7.4375
449,449,1727461535590,-0.43725586,-0.08721924,-0.2654419,13.921875,13.375,16.1875
450,450,1727461535630,0.08642578,0.24871826,0.19256592,14.46875,28.21875,12.25
451,451,1727461535670,0.5571289,1.4347534,-0.35040283,-4.578125,-9.9375,-8.40625
452,452,1727461535710,-0.56762695,1.999939,1.819519,-20.390625,64.78125,-7.921875
453,453,1727461535750,1.2885742,1.7033081,0.059265137,7.1875,55.6875,42.5625
454,454,1727461535790,0.7463379,1.3510132,0.11566162,-23.15625,40.046875,-27.0
455,455,1727461535830,0.25878906,1.5136108,0.4401245,-28.296875,66.421875,-14.046875
456,456,1727461535870,0.23486328,0.6696167,0.20379639,-38.75,22.765625,-20.703125
457,457,1727461535910,0.12475586,-0.1362915,-0.2456665,16.90625,3.015625,-19.796875
458,458,1727461535950,-0.23217773,-0.16339111,-0.20611572,22.734375,-11.328125,-9.5625
459,459,1727461535990,-0.21362305,-0.12384033,-0.00592041,-21.0625,-12.65625,5.140625
460,460,1727461536030,0.061523438,0.68743896,-0.7666626,63.015625,-1.859375,42.5625
461,461,1727461536070,0.21777344,1.9406128,-0.22735596,-45.859375,63.0,-2.578125
462,462,1727461536110,1.2431641,1.999939,0.95233154,17.0,42.765625,12.984375
463,463,1727461536150,0.96435547,1.97406,0.5360718,-17.578125,-62.25,16.359375
464,464,1727461536190,0.53515625,1.0575562,-0.18609619,-18.96875,-60.75,29.75
465,465,1727461536230,-0.059814453,0.6149292,0.121276855,6.609375,-74.75,2.8125
466,466,1727461536270,-0.1574707,0.047790527,-0.15509033,-4.515625,-15.671875,13.109375
467,467,1727461536310,-0.45410156,-0.031799316,-0.25933838,22.03125,-11.09375,13.28125
468,468,1727461536350,-0.17358398,-0.047912598,0.05218506,18.5,32.6875,16.546875
469,469,1727461536390,-0.06542969,0.88446045,-0.2727661,45.390625,3.84375,-14.5625
470,470,1727461536430,-0.16381836,1.999939,0.8036499,-134.26562,49.5625,-21.484375
471,471,1727461536470,1.1948242,1.999939,0.42034912,38.875,3.421875,14.59375
472,472,1727461536510,0.28100586,1.4747925,-0.06817627,-31.65625,44.515625,-31.59375
473,473,1727461536550,0.43408203,1.2223511,0.9557495,-13.0,30.0,-29.234375
474,474,1727461536590,-0.11425781,-0.070129395,-0.48321533,6.046875,9.234375,-46.375
475,475,1727461536630,0.03881836,-0.50079346,-0.12994385,4.046875,-15.078125,-19.828125
476,476,1727461536670,-0.08862305,-0.007385254,-0.11065674,13.90625,-18.953125,-11.34375
477,477,1727461536710,-0.11694336,0.15911865,0.059020996,-33.546875,-26.546875,-3.28125
478,478,1727461536750,0.30908203,1.999939,-1.109436,60.0,-101.953125,32.5
479,479,1727461536790,0.7001953,1.999939,1.3908081,-102.84375,88.171875,8.765625
480,480,1727461536830,1.3317871,1.4835815,0.023132324,24.28125,-61.828125,20.21875
481,481,1727461536870,0.453125,1.6217651,0.094177246,-8.25,-84.625,6.3125
482,482,1727461536910,0.15893555,0.6168823,-0.29058838,-18.90625,-49.5625,4.78125
483,483,1727461536950,0.051757812,0.32073975,0.5248413,-17.234375,-21.96875,1.46875
484,484,1727461536990,-0.49243164,-0.08380127,-0.29400635,0.3125,-22.15625,5.75
485,485,1727461537030,-0.34936523,-0.1116333,-0.13800049,13.125,10.171875,5.34375
486,486,1727461537070,-0.024658203,0.11566162,-0.010559082,16.46875,26.28125,0.21875
487,487,1727461537110,-0.096191406,1.0116577,-0.48223877,38.0,13.375,-16.109375
488,488,1727461537150,0.43945312,1.999939,0.47357178,-84.71875,86.78125,9.359375
489,489,1727461537190,0.9411621,1.999939,-0.06719971,62.046875,-4.890625,28.859375
490,490,1727461537230,0.63500977,1.6532593,0.2831421,-57.671875,54.125,-21.578125
491,491,1727461537270,0.35083008,1.6742554,0.87786865,9.8125,44.015625,-23.203125
492,492,1727461537310,0.26611328,0.50335693,-0.0881958,-10.71875,17.140625,-37.640625
493,493,1727461537350,-0.060791016,-0.4212036,-0.2942505,22.765625,-0.84375,-14.828125
494,494,1727461537390,-0.16357422,0.0028686523,-0.12237549,26.359375,-3.25,0.8125
495,495,1727461537430,-0.07421875,-0.0095825195,0.07611084,-30.296875,-2.53125,6.390625
496,496,1727461537470,0.107421875,1.309021,-0.93634033,52.40625,-54.578125,26.953125
497,497,1727461537510,0.44799805,1.999939,0.039001465,-145.54688,8.546875,6.21875
498,498,1727461537550,1.4667969,1.999939,0.14642334,68.734375,3.109375,3.671875
499,499,1727461537590,0.42163086,1.6464233,0.0006713867,-28.171875,-83.25,-0.71875
500,500,1727461537630,0.6689453,0.92767334,0.3912964,-24.609375,-65.5625,13.65625
501,501,1727461537670,-0.07519531,0.34222412,-0.2966919,4.703125,-33.625,-4.8125
502,502,1727461537710,-0.5969238,-0.05987549,-0.12359619,0.0,-28.265625,4.453125
503,503,1727461537750,-0.43603516,-0.090148926,-0.12799072,16.984375,4.78125,6.46875
504,504,1727461537790,0.06958008,0.1395874,-0.10015869,33.453125,43.78125,1.109375
505,505,1727461537830,0.2319336,1.3651733,-0.46636963,16.640625,8.515625,-10.1875
506,506,1727461537870,-0.47070312,1.999939,1.999939,-101.671875,41.25,21.875
507,507,1727461537910,1.1972656,1.6415405,-0.5183716,36.453125,48.828125,11.8125
508,508,1727461537950,0.29589844,1.5582886,0.1461792,-44.78125,60.984375,-45.875
509,509,1727461537990,0.26049805,1.3134155,0.838562,8.8125,46.59375,-42.796875
510,510,1727461538030,0.10913086,-0.28692627,0.0119018555,8.046875,-14.09375,-44.046875
511,511,1727461538070,-0.19873047,-0.35113525,-0.2522583,19.71875,-18.421875,-19.609375
512,512,1727461538110,-0.114746094,0.06781006,-0.03277588,7.75,-20.71875,1.234375
513,513,1727461538150,-0.055664062,0.26312256,-0.14752197,7.4375,15.09375,13.03125
514,514,1727461538190,0.03100586,1.999939,-0.7835083,4.40625,-25.546875,41.625
515,515,1727461538230,1.076416,1.999939,1.999939,-51.484375,28.625,1.46875
516,516,1727461538270,0.736084,1.4830933,0.10321045,-5.140625,-65.359375,10.5
517,517,1727461538310,0.72998047,1.2736206,0.055603027,-6.046875,-73.359375,4.015625
518,518,1727461538350,0.2409668,0.49627686,0.20428467,-24.984375,-62.765625,-9.03125
519,519,1727461538390,-0.29614258,0.13665771,-0.17510986,11.96875,-37.984375,-0.578125
520,520,1727461538430,-0.5727539,-0.097229004,-0.16949463,15.59375,-6.84375,10.84375
521,521,1727461538470,-0.1381836,-0.0713501,0.05706787,-12.078125,9.125,15.1875
522,522,1727461538510,0.045654297,0.41497803,-0.23272705,58.0,38.90625,-12.109375
523,523,1727461538550,0.40454102,1.999939,-0.105529785,-29.625,11.53125,9.28125
524,524,1727461538590,0.19335938,1.999939,1.3187866,15.265625,-8.84375,8.046875
525,525,1727461538630,1.0942383,1.5175171,-0.21539307,-31.71875,23.734375,22.15625
526,526,1727461538670,0.59765625,1.5407104,0.6749878,-21.28125,23.328125,-20.453125
527,527,1727461538710,0.13476562,0.8876343,0.0016479492,25.5625,35.421875,-28.40625
528,528,1727461538750,0.07543945,-0.22613525,-0.024963379,16.1875,4.25,-24.25
529,529,1727461538790,-0.025390625,-0.27838135,-0.08087158,21.140625,-29.265625,-19.84375
530,530,1727461538830,-0.17895508,0.021911621,-0.1194458,0.4375,-23.84375,-8.078125
531,531,1727461538870,-0.09863281,0.8656616,-0.75616455,23.703125,-47.171875,15.96875
532,532,1727461538910,0.7873535,1.999939,-0.003479004,-66.65625,54.109375,38.03125
533,533,1727461538950,1.2661133,1.8019409,0.4088745,39.015625,-24.28125,11.453125
534,534,1727461538990,0.1315918,1.8275757,0.15814209,-59.4375,-45.859375,14.65625
535,535,1727461539030,1.0510254,1.3185425,-0.008850098,-14.09375,-43.859375,18.125
536,536,1727461539070,0.21972656,0.670105,0.21575928,-6.515625,-54.9375,0.015625
537,537,1727461539110,-0.15258789,-0.09503174,-0.066711426,13.5,-46.734375,12.484375
538,538,1727461539150,-0.28442383,-0.19464111,-0.1663208,16.171875,8.625,9.09375
539,539,1727461539190,-0.21582031,0.19744873,-0.06402588,-10.109375,17.125,13.015625
540,540,1727461539230,0.0017089844,0.93133545,-0.631897,74.3125,9.0625,-10.265625
541,541,1727461539270,0.4345703,1.999939,-0.022766113,-19.1875,80.9375,-6.71875
542,542,1727461539310,0.26464844,1.999939,0.48773193,57.359375,-5.8125,18.65625
543,543,1727461539350,0.9172363,1.5385132,0.33587646,-2.0625,56.546875,-0.28125
544,544,1727461539390,0.5529785,1.1090698,0.0211792,12.390625,29.21875,-25.828125
545,545,1727461539430,0.12524414,0.59954834,0.69696045,-4.734375,55.375,-22.796875
546,546,1727461539470,0.14501953,-0.036193848,-0.4138794,14.765625,12.953125,-12.265625
547,547,1727461539510,-0.038330078,-0.14361572,-0.14849854,2.609375,-25.671875,-6.9375
548,548,1727461539550,-0.10131836,0.04852295,0.07098389,-16.015625,-38.4375,-7.015625
549,549,1727461539590,0.05053711,1.3234253,-0.86505127,47.125,-65.6875,16.3125
550,550,1727461539630,0.8527832,1.999939,0.3209839,-107.9375,52.0625,16.9375
551,551,1727461539670,1.1660156,1.5536499,0.3961792,31.53125,-50.671875,-5.265625
552,552,1727461539710,0.0715332,1.999939,0.4315796,-54.875,-22.90625,41.09375
553,553,1727461539750,0.90722656,1.0165405,0.11175537,-28.96875,-34.234375,18.0625
554,554,1727461539790,0.33642578,0.5932007,-0.014221191,24.3125,-28.5625,-9.5625
555,555,1727461539830,-0.27685547,0.017028809,-0.14996338,2.03125,-29.765625,1.296875
556,556,1727461539870,-0.48510742,-0.034484863,-0.24591064,19.0625,8.484375,10.8125
557,557,1727461539910,-0.13549805,0.16229248,0.2423706,-8.140625,21.40625,18.3125
558,558,1727461539950,0.40551758,1.0214233,-0.48736572,38.78125,-12.0625,-21.34375
559,559,1727461539990,0.18286133,1.999939,0.070739746,-34.875,29.34375,-15.4375
560,560,1727461540030,0.8762207,1.999939,0.48114014,45.1875,-11.09375,36.53125
561,561,1727461540070,0.6928711,1.4823608,0.2609253,-20.5,56.21875,-10.25
562,562,1727461540110,0.38330078,1.2850952,0.3156128,-5.625,63.359375,-22.609375
563,563,1727461540150,0.07397461,0.6935425,0.07147217,-12.140625,17.234375,-25.140625
564,564,1727461540190,-0.35766602,-0.4126587,-0.38946533,15.625,-5.546875,-25.203125
565,565,1727461540230,0.1628418,0.07635498,0.030456543,8.53125,2.484375,0.9375
566,566,1727461540270,0.060302734,-0.0056762695,-0.1609497,-18.765625,-20.890625,-14.3125
567,567,1727461540310,0.08496094,0.8890991,-0.72540283,43.125,-52.8125,16.6875
568,568,1727461540350,0.5900879,1.999939,0.059020996,-54.71875,35.25,21.625
569,569,1727461540390,1.0808105,1.6581421,0.6749878,-9.421875,-23.046875,14.390625
570,570,1727461540430,0.03173828,1.7438354,0.20892334,-55.640625,-31.71875,41.46875
571,571,1727461540470,0.9260254,1.0038452,0.17962646,-21.59375,-47.859375,42.609375
572,572,1727461540510,0.16870117,0.57733154,-0.08355713,1.6875,-28.59375,6.71875
573,573,1727461540550,-0.1184082,0.06048584,-0.10723877,10.703125,-33.015625,1.0
574,574,1727461540590,-0.31347656,0.05682373,-0.5183716,-3.640625,-10.03125,-2.859375
575,575,1727461540630,-0.73583984,0.52459717,0.68426514,19.953125,46.234375,8.75
576,576,1727461540670,0.15942383,1.999939,-1.3831177,53.375,25.75,24.390625
577,577,1727461540710,0.44995117,1.6229858,0.40350342,-64.46875,104.75,20.890625
578,578,1727461540750,0.7104492,1.0968628,-0.15582275,-49.875,67.390625,-35.015625
579,579,1727461540790,-0.4284668,1.8226929,1.0175171,-34.3125,69.03125,-29.28125
580,580,1727461540830,0.56689453,0.5910034,-0.19293213,-0.21875,46.578125,-35.125
581,581,1727461540870,0.2824707,-0.3291626,-0.46099854,5.296875,-27.625,-51.0
582,582,1727461540910,-0.03125,-0.22247314,0.35125732,10.421875,-50.859375,-15.703125
583,583,1727461540950,-0.76171875,1.999939,-1.1660767,84.046875,-71.078125,40.40625
584,584,1727461540990,0.68774414,1.999939,-0.4295044,-185.75,67.53125,7.640625
585,585,1727461541030,1.5690918,1.2929077,-0.20831299,99.234375,-97.9375,2.296875
586,586,1727461541070,-0.30639648,1.999939,-0.64678955,11.28125,-42.8125,7.796875
587,587,1727461541110,0.40942383,0.64959717,0.28778076,-44.46875,-77.375,12.09375
588,588,1727461541150,-0.21923828,0.27923584,0.27020264,63.265625,-8.0625,10.625
589,589,1727461541190,-0.45776367,-0.3110962,-0.2703247,13.8125,-19.359375,15.984375
590,590,1727461541230,-0.1315918,-0.1885376,0.07611084,29.265625,24.4375,7.140625
591,591,1727461541270,-0.022705078,0.00018310547,-0.16363525,29.296875,33.65625,-7.390625
592,592,1727461541310,-0.12402344,0.13812256,-0.055236816,33.03125,40.09375,0.28125
593,593,1727461541350,0.9055176,1.999939,-0.7695923,-33.84375,-50.34375,26.890625
594,594,1727461541390,-0.032714844,1.999939,0.8353882,71.15625,-61.609375,13.03125
595,595,1727461541430,1.2636719,1.2887573,-0.66290283,-28.484375,51.03125,-23.703125
596,596,1727461541470,0.12597656,1.2975464,0.30316162,-55.65625,62.375,-51.90625
597,597,1727461541510,0.091796875,0.80145264,0.48773193,59.375,20.640625,-29.578125
598,598,1727461541550,-0.06982422,-0.41168213,-0.2053833,5.8125,-18.703125,-30.3125
599,599,1727461541590,-0.3474121,-0.3616333,-0.04425049,19.859375,-27.484375,-17.015625
600,600,1727461541630,-0.22167969,0.16595459,-0.12359619,-6.6875,-29.75,4.34375
601,601,1727461541670,0.25439453,0.8095093,-0.40020752,56.28125,4.40625,13.515625
602,602,1727461541710,0.20532227,1.999939,-0.097229004,-57.234375,25.8125,10.953125
603,603,1727461541750,0.8190918,1.999939,1.3165894,-16.4375,3.078125,18.96875
604,604,1727461541790,1.0744629,1.9953003,0.5812378,-17.046875,-46.953125,34.234375
605,605,1727461541830,0.46972656,1.2318726,-0.117492676,-8.921875,-51.453125,11.5625
606,606,1727461541870,0.28100586,0.59295654,0.23968506,-9.5,-44.28125,3.25
607,607,1727461541910,-0.07299805,0.034118652,-0.21954346,2.359375,-39.6875,0.34375
608,608,1727461541950,-0.41748047,-0.12261963,-0.2234497,8.90625,-16.359375,4.9375
609,609,1727461541990,-0.18652344,0.14520264,-0.011047363,-6.546875,5.9375,9.15625
610,610,1727461542030,-0.075927734,0.24700928,0.0119018555,18.3125,33.0625,-8.3125
611,611,1727461542070,0.23828125,1.6432495,-0.23443604,-1.75,6.34375,-14.390625
612,612,1727461542110,0.0017089844,1.999939,1.5314331,-36.21875,49.484375,-0.875
613,613,1727461542150,0.998291,1.7221069,-0.4854126,-5.375,58.21875,21.921875
614,614,1727461542190,0.55371094,1.710144,0.31488037,-18.234375,65.46875,-12.15625
615,615,1727461542230,0.3894043,1.085144,0.20892334,-5.953125,30.140625,-18.5625
616,616,1727461542270,0.23779297,0.30389404,0.42303467,-12.4375,-3.046875,-28.171875
617,617,1727461542310,0.0036621094,-0.2937622,-0.07208252,21.59375,-13.9375,-20.828125
618,618,1727461542350,-0.06713867,-0.043518066,-0.17974854,27.953125,-24.28125,-12.71875
619,619,1727461542390,-0.033447266,0.027282715,-0.081604004,-13.53125,-26.109375,-4.84375
620,620,1727461542430,0.07739258,1.3622437,-0.8086548,39.25,-57.859375,24.625
621,621,1727461542470,1.3393555,1.999939,0.4147339,-109.9375,91.90625,-28.359375
622,622,1727461542510,1.0708008,1.739685,-0.061828613,39.0,-51.109375,8.75
623,623,1727461542550,0.57714844,1.8036499,0.6119995,-53.0,-53.328125,21.6875
624,624,1727461542590,0.83032227,1.180603,-0.039855957,-42.828125,-36.640625,29.15625
625,625,1727461542630,0.30615234,0.602478,0.024597168,-5.625,-34.296875,2.828125
626,626,1727461542670,-0.2487793,0.12298584,0.00579834,-14.546875,-24.453125,6.03125
627,627,1727461542710,-0.375,0.019958496,-0.2197876,17.0,-4.0625,9.96875
628,628,1727461542750,-0.3161621,0.043151855,-0.11846924,17.421875,21.28125,3.921875
629,629,1727461542790,-0.15722656,0.71209717,-0.5835571,60.9375,38.203125,-14.703125
630,630,1727461542830,0.6960449,1.999939,-0.22198486,2.09375,23.765625,7.390625
631,631,1727461542870,-0.034423828,1.999939,1.229187,15.0,8.0,18.484375
632,632,1727461542910,0.8955078,1.5077515,-0.12261963,-12.078125,53.5,-0.140625
633,633,1727461542950,0.2734375,1.8278198,0.2086792,-33.140625,72.25,-22.1875
634,634,1727461542990,0.2800293,0.9088745,0.39788818,21.59375,23.5,-22.859375
635,635,1727461543030,0.18798828,-0.09942627,0.06414795,7.3125,19.375,-28.765625
636,636,1727461543070,0.03955078,-0.28546143,-0.22564697,14.53125,-11.4375,-15.65625
637,637,1727461543110,-0.068359375,0.059509277,-0.11651611,12.234375,-28.6875,-20.9375
638,638,1727461543150,-0.115722656,0.07562256,0.06121826,-5.625,-25.671875,-11.65625
639,639,1727461543190,0.3371582,1.999939,-0.52789307,44.78125,-100.359375,19.234375
640,640,1727461543230,0.8894043,1.999939,0.36712646,-68.234375,66.46875,-3.96875
641,641,1727461543270,1.0437012,1.6366577,0.45672607,19.046875,-30.125,19.125
642,642,1727461543310,0.8286133,1.4823608,0.31878662,-28.859375,-65.0,29.8125
643,643,1727461543350,0.33691406,0.9015503,-0.22735596,3.328125,-31.484375,9.46875
644,644,1727461543390,-0.020996094,0.43548584,0.42645264,-12.34375,-34.34375,5.984375
645,645,1727461543430,-0.14404297,0.113220215,-0.2720337,46.78125,-24.96875,18.375
646,646,1727461543470,-0.30859375,-0.032043457,-0.15240479,20.640625,17.078125,6.90625
647,647,1727461543510,0.026367188,0.05340576,0.1539917,-0.890625,36.15625,8.109375
648,648,1727461543550,-0.049072266,0.5956421,-0.4680786,84.34375,0.25,-14.109375
649,649,1727461543590,0.62719727,1.999939,0.13543701,-61.234375,53.65625,18.515625
650,650,1727461543630,-0.087890625,1.999939,0.5006714,41.9375,-22.59375,27.890625
651,651,1727461543670,1.0256348,1.3849487,0.001159668,-48.78125,44.78125,-4.21875
652,652,1727461543710,0.1081543,1.9152222,0.7731323,-17.5625,44.578125,-19.71875
653,653,1727461543750,0.36743164,0.8156128,-0.08258057,21.875,34.96875,-11.5625
654,654,1727461543790,0.0029296875,0.12542725,0.27215576,-22.9375,10.515625,-24.265625
655,655,1727461543830,-0.055908203,-0.033996582,0.038269043,25.25,-7.484375,-15.21875
656,656,1727461543870,-0.033447266,0.08343506,-0.22418213,21.90625,-28.5625,-8.203125
657,657,1727461543910,0.053222656,0.008972168,-0.009338379,-21.96875,-24.6875,-8.671875
658,658,1727461543950,0.14746094,1.3099976,-0.39337158,11.90625,-64.703125,14.796875
659,659,1727461543990,0.5769043,1.999939,0.22796631,-80.359375,54.46875,2.140625
660,660,1727461544030,1.1557617,1.8397827,0.14251709,9.484375,-31.234375,9.953125
661,661,1727461544070,0.46728516,1.999939,0.69989014,-34.03125,-42.546875,12.609375
662,662,1727461544110,0.8967285,1.1732788,0.20281982,-44.65625,-32.6875,25.40625
663,663,1727461544150,0.2109375,0.5595093,-0.17706299,0.4375,-20.203125,7.84375
664,664,1727461544190,-0.12890625,0.27215576,0.08123779,-8.0625,-15.296875,11.84375
665,665,1727461544230,-0.20605469,0.11932373,-0.31817627,29.75,5.6875,14.03125
666,666,1727461544270,-0.2175293,-0.0791626,0.043395996,4.09375,23.859375,1.859375
667,667,1727461544310,0.022460938,0.6012573,-0.33892822,27.125,0.546875,-6.578125
668,668,1727461544350,-0.088378906,1.999939,0.21673584,-11.796875,70.09375,-7.5
669,669,1727461544390,0.9157715,1.999939,0.37957764,25.09375,6.0,37.890625
670,670,1727461544430,0.5239258,1.6105347,0.10614014,-18.828125,35.390625,-17.421875
671,671,1727461544470,0.30297852,1.7174683,0.49334717,-22.265625,46.296875,-19.1875
672,672,1727461544510,0.2902832,0.94525146,0.06707764,-19.09375,30.078125,-20.375
673,673,1727461544550,-0.18041992,0.07342529,0.2333374,9.75,-10.640625,-35.328125
674,674,1727461544590,-0.022460938,-0.21295166,-0.086242676,28.09375,-5.953125,-21.0625
675,675,1727461544630,0.015625,-0.16534424,-0.15802002,14.921875,-27.328125,-10.0
676,676,1727461544670,-0.051757812,0.34197998,-0.40533447,24.046875,-12.28125,2.671875
677,677,1727461544710,-0.05493164,1.999939,-0.37384033,13.28125,-21.703125,21.828125
678,678,1727461544750,0.8305664,1.999939,1.0446167,-69.109375,50.203125,3.625
679,679,1727461544790,0.40454102,1.666687,0.04901123,12.359375,-51.3125,-5.6875
680,680,1727461544830,0.74194336,1.6022339,0.39154053,-10.078125,-22.296875,43.765625
681,681,1727461544870,0.6413574,1.0150757,-0.020324707,-8.25,-47.234375,8.078125
682,682,1727461544910,-0.036621094,0.5182495,0.2074585,0.8125,-29.34375,2.59375
683,683,1727461544950,-0.19946289,0.09710693,-0.3225708,18.0625,-18.09375,8.5
684,684,1727461544990,-0.34057617,-0.16485596,-0.10455322,7.265625,12.03125,1.984375
685,685,1727461545030,-0.1303711,0.008239746,-0.042541504,21.265625,17.578125,2.984375
686,686,1727461545070,0.11669922,1.0748901,-0.18096924,2.828125,-3.6875,-15.71875
687,687,1727461545110,0.10913086,1.999939,0.47625732,-63.890625,63.15625,-13.765625
688,688,1727461545150,1.1782227,1.7643433,0.19085693,17.59375,-12.96875,29.109375
689,689,1727461545190,0.63134766,1.5680542,0.012145996,-12.8125,46.9375,-19.015625
690,690,1727461545230,0.26171875,1.652771,0.49066162,-36.734375,66.484375,-17.921875
691,691,1727461545270,0.15136719,0.6950073,0.24871826,-18.78125,1.03125,-29.34375
692,692,1727461545310,-0.14477539,-0.25201416,-0.11627197,26.078125,-9.796875,-33.515625
693,693,1727461545350,-0.10449219,-0.11236572,-0.1350708,39.09375,-30.03125,-14.03125
694,694,1727461545390,0.040771484,-0.2805786,-0.0017700195,-7.65625,-26.03125,-2.328125
695,695,1727461545430,0.18945312,0.7682495,-0.9031372,33.5,-30.078125,24.703125
696,696,1727461545470,0.18896484,1.999939,-0.3093872,-43.03125,42.890625,28.171875
697,697,1727461545510,0.93725586,1.999939,1.3078003,-42.890625,0.109375,19.796875
698,698,1727461545550,0.5031738,1.8163452,-0.024719238,2.046875,-42.875,8.1875
699,699,1727461545590,0.7229004,1.3578491,0.11810303,-4.203125,-39.125,35.0
700,700,1727461545630,0.42529297,0.7609253,0.11248779,6.015625,-26.609375,-5.875
701,701,1727461545670,-0.022216797,0.13983154,-0.049621582,4.625,-14.015625,0.453125
702,702,1727461545710,-0.4765625,-0.109436035,-0.23443604,14.40625,-5.875,6.421875
703,703,1727461545750,-0.23876953,-0.03668213,0.010925293,14.671875,20.359375,6.171875
704,704,1727461545790,-0.12109375,0.38372803,-0.3196411,52.546875,48.28125,-4.578125
705,705,1727461545830,0.42114258,1.9672241,-0.20440674,5.640625,2.5625,15.96875
706,706,1727461545870,-0.33691406,1.999939,1.0263062,2.078125,3.6875,18.609375
707,707,1727461545910,1.0187988,1.4725952,-0.24298096,-15.921875,39.046875,8.140625
708,708,1727461545950,0.26757812,1.5077515,0.11029053,-27.015625,43.953125,-26.796875
709,709,1727461545990,0.36914062,1.2384644,0.62323,15.15625,28.421875,-18.515625
710,710,1727461546030,-0.1418457,0.2855835,-0.18096924,3.125,12.953125,-32.234375
711,711,1727461546070,-0.13745117,-0.24639893,0.06732178,22.9375,2.984375,-12.015625
712,712,1727461546110,-0.033935547,-0.016906738,-0.22369385,32.828125,-14.03125,-2.09375
713,713,1727461546150,0.068115234,-0.17779541,-0.038879395,-27.15625,-33.84375,-6.375
714,714,1727461546190,0.36376953,1.6776733,-0.8635864,37.4375,-98.59375,12.5625
715,715,1727461546230,0.52563477,1.999939,-0.045959473,-114.25,94.46875,9.484375
716,716,1727461546270,1.3632812,1.8768921,0.4550171,36.265625,-30.875,9.3125
717,717,1727461546310,-0.14501953,1.999939,0.09637451,0.0625,-12.875,24.5
718,718,1727461546350,1.0898438,1.1671753,0.11956787,-24.78125,-32.921875,14.34375
719,719,1727461546390,0.23999023,0.6881714,0.020446777,38.328125,-41.515625,-7.71875
720,720,1727461546430,-0.25341797,0.10760498,-0.0647583,-6.546875,-19.234375,3.0625
721,721,1727461546470,-0.38476562,-0.0005493164,-0.41973877,20.890625,-2.84375,9.734375
722,722,1727461546510,-0.51464844,-0.2444458,0.08099365,-14.703125,20.515625,23.078125
723,723,1727461546550,0.0063476562,0.05316162,0.0138549805,32.65625,36.765625,5.78125
724,724,1727461546590,0.29077148,1.8468628,-0.5244751,-16.390625,-2.3125,-16.71875
725,725,1727461546630,0.07788086,1.999939,1.5668335,-50.484375,39.53125,12.828125
726,726,1727461546670,1.083252,1.4494019,-0.28179932,30.046875,43.484375,4.859375
727,727,1727461546710,0.38500977,1.6351929,0.35272217,-40.359375,32.78125,-32.46875
728,728,1727461546750,0.33398438,1.6234741,0.789978,42.734375,12.953125,-28.3125
729,729,1727461546790,0.0234375,0.5536499,0.026550293,44.0,11.03125,-31.96875
730,730,1727461546830,-0.13549805,-0.1741333,-0.21392822,36.828125,-2.375,-24.078125
731,731,1727461546870,-0.31323242,-0.22686768,-0.11431885,19.046875,-9.984375,-7.296875
732,732,1727461546910,0.10839844,-0.18487549,-0.1897583,-9.15625,-34.5625,10.28125
733,733,1727461546950,1.0830078,1.0563354,-0.753479,96.390625,14.78125,39.46875
734,734,1727461546990,-0.65966797,1.999939,-0.08892822,-109.921875,126.765625,12.15625
735,735,1727461547030,1.4360352,1.999939,1.6571655,-3.796875,-28.65625,30.296875
736,736,1727461547070,0.41430664,1.8405151,-0.25738525,21.171875,-42.3125,9.6875
737,737,1727461547110,0.7001953,1.3314819,0.33465576,-4.921875,-27.875,16.25
738,738,1727461547150,0.0769043,0.49212646,0.184021,13.71875,-14.28125,3.296875
739,739,1727461547190,-0.036865234,-0.06768799,-0.43829346,30.203125,-16.15625,14.59375
740,740,1727461547230,-0.3544922,-0.23468018,-0.011779785,0.8125,13.125,7.3125
741,741,1727461547270,-0.020019531,0.08148193,0.0927124,9.796875,23.484375,11.953125
742,742,1727461547310,0.4177246,1.2848511,-0.73809814,25.09375,-16.953125,-5.703125
743,743,1727461547350,-0.23095703,1.999939,1.999939,-37.359375,150.23438,-8.890625
744,744,1727461547390,0.8137207,1.6063843,-0.5569458,-1.921875,-17.984375,29.734375
745,745,1727461547430,0.61083984,1.5614624,0.25946045,-14.734375,37.71875,-28.59375
746,746,1727461547470,0.3347168,1.6818237,0.6456909,-5.421875,34.796875,-10.1875
747,747,1727461547510,0.29077148,1.0299683,0.11981201,3.3125,38.328125,-14.328125
748,748,1727461547550,0.079833984,0.045837402,-6.1035156e-05,0.90625,17.4375,-18.59375
749,749,1727461547590,0.09790039,-0.11602783,0.023376465,11.84375,-9.578125,-15.015625
750,750,1727461547630,0.0793457,-0.101623535,-0.19171143,13.296875,-28.84375,-12.96875
751,751,1727461547670,-0.061279297,0.33831787,-0.35430908,36.65625,-37.953125,-7.3125
752,752,1727461547710,-0.3076172,1.5429077,-0.074035645,7.40625,-18.421875,22.140625
753,753,1727461547750,1.2514648,1.999939,0.41375732,-89.171875,24.203125,17.0
754,754,1727461547790,0.5913086,1.958435,0.17327881,27.65625,-74.359375,-16.203125
755,755,1727461547830,0.54785156,1.7023315,0.3595581,-37.0,-26.609375,31.359375
756,756,1727461547870,0.8156738,0.9677124,0.18719482,-10.09375,-56.265625,6.953125
757,757,1727461547910,0.22558594,0.37982178,0.14813232,5.765625,-39.546875,-3.5625
758,758,1727461547950,-0.2722168,0.14276123,-0.11407471,6.34375,-40.21875,18.640625
759,759,1727461547990,-0.26000977,-0.09698486,-0.20562744,10.828125,-5.828125,15.75
760,760,1727461548030,-0.0078125,0.18231201,0.09295654,-0.296875,14.484375,0.0
761,761,1727461548070,0.1574707,1.0441284,-0.5401001,32.875,-13.453125,-31.609375
762,762,1727461548110,0.6401367,1.999939,-6.1035156e-05,-13.09375,18.359375,-18.0625
763,763,1727461548150,0.5554199,1.999939,0.3156128,22.375,-16.5,38.234375
764,764,1727461548190,0.967041,1.451355,0.5150757,-25.421875,36.34375,-2.515625
765,765,1727461548230,0.19628906,1.3656616,-0.13824463,4.578125,7.9375,-24.15625
766,766,1727461548270,0.15698242,0.9035034,0.5223999,-17.359375,45.53125,-11.4375
767,767,1727461548310,0.020019531,0.08660889,0.09490967,17.015625,41.8125,-12.359375
768,768,1727461548350,0.031982422,-0.06402588,-0.25274658,13.171875,-3.796875,-17.703125
769,769,1727461548390,-0.045166016,-0.04425049,-0.050109863,14.515625,-28.34375,-10.96875
770,770,1727461548430,0.095458984,0.038024902,0.038757324,-10.6875,-37.078125,-3.984375
771,771,1727461548470,0.3942871,1.8759155,-0.51934814,19.578125,-106.8125,6.109375
772,772,1727461548510,0.4309082,1.999939,0.42230225,-130.39062,73.8125,16.625
773,773,1727461548550,1.3063965,1.527771,0.032409668,49.671875,-53.515625,-1.390625
774,774,1727461548590,-0.040283203,1.7946167,0.19476318,-18.328125,-16.140625,18.84375
775,775,1727461548630,0.9716797,1.1630249,0.34246826,-35.53125,-29.375,21.390625
776,776,1727461548670,0.32617188,0.51116943,0.25091553,24.046875,-36.21875,-5.78125
777,777,1727461548710,0.016845703,0.113708496,-0.20855713,8.859375,-25.984375,3.234375
778,778,1727461548750,-0.29516602,-0.030334473,-0.1585083,16.703125,-9.1875,6.109375
779,779,1727461548790,-0.3642578,0.078552246,0.090270996,-11.78125,19.5625,1.9375
780,780,1727461548830,0.072265625,0.7128296,-0.5149536,30.984375,-23.625,-17.953125
781,781,1727461548870,0.51660156,1.999939,0.07537842,-21.84375,56.734375,-18.765625
782,782,1727461548910,0.3046875,1.9450073,0.5560913,56.421875,-28.5,24.21875
783,783,1727461548950,0.92871094,1.4579468,0.12591553,-29.875,41.671875,5.609375
784,784,1727461548990,0.20410156,1.7518921,0.35516357,-15.171875,10.03125,-18.6875
785,785,1727461549030,0.28710938,1.15448,0.36834717,12.609375,20.203125,-3.78125
786,786,1727461549070,0.3696289,0.590271,0.22991943,2.5625,35.84375,-10.015625
787,787,1727461549110,-0.0026855469,0.18182373,-0.036193848,5.9375,17.9375,-17.71875
788,788,1727461549150,0.03100586,-0.07232666,0.02142334,14.15625,-6.625,-15.625
