,Unnamed: 0,timestamp,accel_x,accel_y,accel_z,gyro_x,gyro_y,gyro_z
0,0,1727384019184,-1.0534668,0.15447998,0.08807373,-15.25,-8.921875,6.734375
1,1,1727384019224,-0.8952637,0.17132568,0.12176514,-11.953125,-3.09375,2.703125
2,2,1727384019264,-0.61083984,0.12005615,0.22015381,1.65625,13.9375,0.953125
3,3,1727384019304,-0.30249023,0.11077881,0.013122559,11.34375,19.703125,-1.890625
4,4,1727384019344,-0.5336914,-0.09576416,-0.57769775,-13.828125,-21.171875,3.84375
5,5,1727384019384,-1.1008301,0.15716553,-0.015686035,1.015625,-18.78125,16.890625
6,6,1727384019424,-1.635498,0.6185913,-0.25006104,7.15625,-17.15625,0.71875
7,7,1727384019464,-1.5996094,0.38153076,-0.16583252,16.6875,-24.546875,5.046875
8,8,1727384019504,-1.7233887,0.4159546,-0.070617676,25.6875,0.15625,-0.875
9,9,1727384019544,-1.2990723,0.2579956,-0.17510986,30.78125,4.734375,-5.90625
10,10,1727384019584,-1.0019531,0.048034668,-0.18951416,26.828125,-13.109375,3.140625
11,11,1727384019624,-0.74194336,0.02142334,0.018249512,13.9375,14.171875,-3.203125
12,12,1727384019664,-0.23217773,-0.078186035,-0.23223877,-4.828125,43.640625,-11.84375
13,13,1727384019704,0.061523438,-0.24493408,-0.0569458,-15.234375,32.09375,-14.421875
14,14,1727384019744,-0.21875,-0.38165283,-0.39141846,-49.8125,-17.375,-0.4375
15,15,1727384019784,-2.0,0.33416748,-0.44708252,-61.203125,-82.5,32.078125
16,16,1727384019824,-2.0,-0.097717285,0.16546631,-26.9375,30.765625,-13.8125
17,17,1727384019864,-1.8037109,0.3222046,-0.32574463,-41.21875,9.171875,-11.796875
18,18,1727384019904,-1.4162598,0.3637085,0.03753662,-18.65625,25.9375,-19.65625
19,19,1727384019944,-0.7019043,0.16229248,0.12005615,-4.640625,31.03125,-21.296875
20,20,1727384019984,-0.008544922,-0.07110596,-0.16778564,-0.296875,59.671875,-23.078125
21,21,1727384020024,0.30395508,-0.06744385,-0.077697754,10.21875,29.09375,-20.734375
22,22,1727384020064,0.022460938,0.1618042,-0.009338379,24.25,6.5,0.03125
23,23,1727384020104,-0.7504883,0.33343506,-0.85357666,-0.09375,-86.984375,26.875
24,24,1727384020144,-2.0,0.9567261,0.8793335,3.34375,-21.96875,5.375
25,25,1727384020184,-1.8815918,0.4862671,-0.0881958,52.03125,-21.578125,7.5625
26,26,1727384020224,-1.4736328,0.40081787,-0.120666504,49.015625,17.703125,-3.375
27,27,1727384020264,-1.0361328,0.12225342,-0.17877197,33.125,-8.109375,3.15625
28,28,1727384020304,-0.8730469,0.010437012,-0.18267822,26.03125,-8.125,4.203125
29,29,1727384020344,-0.30371094,0.0004272461,-0.08770752,4.171875,46.15625,-13.109375
30,30,1727384020384,0.043945312,-0.19122314,-0.18121338,-11.890625,23.484375,-12.40625
31,31,1727384020424,-0.034423828,-0.3604126,-0.32574463,-45.5625,18.90625,-5.984375
32,32,1727384020464,-1.2185059,0.1630249,-0.16729736,-47.5,-104.109375,29.28125
33,33,1727384020504,-2.0,0.19989014,0.22210693,-57.0,60.78125,-6.34375
34,34,1727384020544,-2.0,0.43255615,0.120788574,-30.125,-0.625,5.203125
35,35,1727384020584,-1.2429199,0.43255615,-0.23175049,-28.640625,28.28125,-15.296875
36,36,1727384020624,-0.71850586,0.2987671,0.1251831,-33.359375,8.65625,-15.90625
37,37,1727384020664,-0.23413086,0.06317139,-0.06573486,-0.671875,24.796875,-17.875
38,38,1727384020704,0.07836914,-0.04888916,-0.085998535,1.859375,15.203125,-12.8125
39,39,1727384020744,-0.012207031,0.027770996,0.011657715,8.390625,5.671875,3.09375
40,40,1727384020784,-0.48339844,0.30316162,-0.5166626,-5.609375,-42.578125,19.0625
41,41,1727384020824,-2.0,0.684021,-0.16168213,19.65625,-107.1875,16.171875
42,42,1727384020864,-1.8256836,0.5258179,-0.36187744,56.0,3.796875,2.734375
43,43,1727384020904,-1.628418,0.24432373,-0.23394775,47.171875,4.453125,6.15625
44,44,1727384020944,-1.1911621,0.18963623,-0.10845947,43.171875,4.4375,10.90625
45,45,1727384020984,-0.64282227,0.10687256,0.028503418,30.25,14.296875,1.390625
46,46,1727384021024,-0.21386719,-0.04473877,-0.06768799,16.34375,37.71875,-9.234375
47,47,1727384021064,-0.0017089844,-0.237854,-0.14923096,-0.125,24.28125,-11.859375
48,48,1727384021104,-0.064453125,-0.18145752,-0.25933838,-30.8125,21.0625,-2.859375
49,49,1727384021144,-1.2980957,-0.09625244,-0.32525635,-48.390625,-81.640625,21.1875
50,50,1727384021184,-2.0,0.21429443,0.11663818,-57.25,45.921875,-8.03125
51,51,1727384021224,-1.998291,0.3768921,-0.062805176,-37.78125,7.875,-0.296875
52,52,1727384021264,-1.5012207,0.4784546,-0.08135986,-37.921875,13.9375,-6.484375
53,53,1727384021304,-1.0627441,0.32733154,0.04827881,-26.6875,14.59375,-16.1875
54,54,1727384021344,-0.546875,0.21160889,-0.05670166,-11.84375,27.328125,-4.234375
55,55,1727384021384,-0.0029296875,-0.06719971,0.015075684,-11.421875,18.140625,-8.71875
56,56,1727384021424,0.15576172,-0.023254395,0.0033569336,5.859375,8.375,-2.40625
57,57,1727384021464,-0.0053710938,0.3024292,0.00970459,19.21875,-0.015625,6.8125
58,58,1727384021504,-1.739502,0.024597168,-0.960022,-19.9375,-61.421875,51.5
59,59,1727384021544,-1.9628906,0.79486084,0.050231934,25.796875,-8.78125,5.109375
60,60,1727384021584,-1.9533691,0.3661499,-0.09576416,67.734375,3.890625,9.765625
61,61,1727384021624,-1.3417969,0.31658936,-0.012023926,55.109375,4.828125,1.90625
62,62,1727384021664,-0.8754883,0.0014038086,-0.13409424,32.3125,-10.640625,4.5
63,63,1727384021704,-0.6933594,0.08709717,-0.016906738,23.671875,6.390625,1.15625
64,64,1727384021744,-0.25878906,0.018737793,-0.15924072,-1.171875,24.15625,-10.03125
65,65,1727384021784,-0.088378906,-0.14727783,-0.12164307,-7.15625,20.421875,-7.109375
66,66,1727384021824,-0.0690918,-0.16729736,-0.28302002,-17.03125,15.703125,-1.6875
67,67,1727384021864,-1.0021973,-0.19854736,-0.17926025,-49.53125,-72.265625,18.53125
68,68,1727384021904,-2.0,0.18914795,0.3619995,-56.40625,33.484375,-6.828125
69,69,1727384021944,-1.8945312,0.2748413,-0.16485596,-22.609375,6.609375,5.984375
70,70,1727384021984,-1.3666992,0.5253296,-0.12579346,-25.953125,15.921875,-11.9375
71,71,1727384022024,-0.890625,0.1954956,0.08050537,-22.265625,5.40625,-13.609375
72,72,1727384022064,-0.40063477,0.0602417,-0.0012817383,-3.578125,16.4375,-9.40625
73,73,1727384022104,0.07470703,-0.073791504,0.010437012,-0.046875,7.34375,-13.578125
74,74,1727384022144,0.028076172,0.04925537,-0.035461426,11.59375,-0.890625,-5.828125
75,75,1727384022184,-0.2631836,0.20892334,-0.3237915,17.875,-10.03125,3.015625
76,76,1727384022224,-1.9760742,0.36419678,-0.52911377,29.65625,-54.390625,20.453125
77,77,1727384022264,-1.8251953,0.65374756,-0.2637329,48.578125,9.515625,11.5625
78,78,1727384022304,-1.8640137,0.53704834,-0.11383057,81.921875,20.4375,2.34375
79,79,1727384022344,-1.3588867,0.10491943,-0.15240479,54.875,13.3125,2.125
80,80,1727384022384,-1.0876465,0.19744873,0.1305542,40.15625,-2.828125,-1.578125
81,81,1727384022424,-0.6513672,-0.04083252,0.09954834,22.359375,10.71875,-6.265625
82,82,1727384022464,-0.19970703,-0.13140869,-0.07110596,2.734375,25.65625,-6.0
83,83,1727384022504,-0.041259766,-0.19415283,-0.1843872,-12.578125,16.671875,-8.03125
84,84,1727384022544,-0.28564453,-0.25445557,-0.598938,-45.234375,20.03125,-1.203125
85,85,1727384022584,-2.0,0.36029053,-0.44683838,-54.84375,-83.359375,15.5625
86,86,1727384022624,-2.0,-0.023010254,0.35321045,-35.171875,37.765625,-6.53125
87,87,1727384022664,-1.7539062,0.4725952,-0.028381348,-49.65625,6.578125,3.015625
88,88,1727384022704,-1.2788086,0.45672607,-0.018859863,-47.203125,12.703125,-7.71875
89,89,1727384022744,-0.8334961,0.24432373,0.10369873,-28.546875,18.84375,-9.78125
90,90,1727384022784,-0.32470703,0.19012451,0.10736084,-19.421875,29.96875,-11.484375
91,91,1727384022824,0.12182617,-0.022033691,-0.058166504,-11.265625,10.84375,-9.53125
92,92,1727384022864,0.02734375,0.059509277,-0.039855957,-0.40625,3.15625,1.40625
93,93,1727384022904,-0.2734375,0.18988037,-0.43463135,0.046875,-17.265625,14.46875
94,94,1727384022944,-2.0,0.45526123,-0.673645,6.796875,-133.89062,13.28125
95,95,1727384022984,-1.7104492,0.60369873,-0.18902588,48.5,49.515625,-9.578125
96,96,1727384023024,-1.8269043,0.6300659,0.1383667,63.578125,-0.34375,7.59375
97,97,1727384023064,-1.1501465,0.18084717,-0.17901611,37.5,-11.3125,12.515625
98,98,1727384023104,-0.96972656,0.10760498,0.036071777,19.921875,-21.8125,6.09375
99,99,1727384023144,-0.60302734,0.04486084,-0.10992432,12.265625,3.203125,-2.671875
100,100,1727384023184,-0.13354492,-0.14312744,-0.16192627,-5.515625,36.03125,-4.828125
101,101,1727384023224,-0.04272461,-0.12994385,0.0065307617,-8.078125,17.125,-6.765625
102,102,1727384023264,-0.35546875,-0.32965088,-0.28741455,-50.671875,-7.96875,-7.234375
103,103,1727384023304,-2.0,0.2694702,-0.3718872,-68.046875,-62.625,18.640625
104,104,1727384023344,-2.0,0.19500732,0.1593628,-26.015625,33.078125,-1.90625
105,105,1727384023384,-1.7297363,0.58221436,-0.06109619,-44.890625,3.453125,-1.28125
106,106,1727384023424,-1.2731934,0.4364624,0.062683105,-32.140625,8.59375,-11.734375
107,107,1727384023464,-0.6008301,0.23040771,0.073913574,-7.078125,22.140625,-16.53125
108,108,1727384023504,0.06616211,-0.00079345703,-0.053771973,-8.3125,24.125,-13.4375
109,109,1727384023544,0.20043945,-0.02545166,-0.00079345703,5.671875,-0.96875,-8.828125
110,110,1727384023584,-0.12231445,0.07684326,0.012634277,21.484375,-5.125,1.125
111,111,1727384023624,-1.1894531,0.3427124,-0.5894165,-2.625,-65.5625,34.125
112,112,1727384023664,-2.0,0.7797241,0.19110107,22.3125,-9.203125,20.984375
113,113,1727384023704,-1.855957,0.49261475,-0.08355713,68.609375,-16.203125,18.890625
114,114,1727384023744,-1.5300293,0.19671631,-0.14630127,50.109375,10.84375,6.5
115,115,1727384023784,-1.0068359,0.20233154,-0.009094238,52.265625,0.625,7.140625
116,116,1727384023824,-0.4765625,0.010925293,-0.014465332,29.0,13.890625,-2.828125
117,117,1727384023864,-0.111083984,-0.17584229,-0.21148682,3.96875,30.09375,-10.46875
118,118,1727384023904,0.0029296875,-0.22735596,-0.009338379,-13.0,21.0,-7.125
119,119,1727384023944,-0.23339844,-0.2107544,-0.55670166,-51.8125,14.515625,-4.890625
120,120,1727384023984,-2.0,0.31072998,-0.42340088,-57.953125,-72.546875,10.71875
121,121,1727384024024,-2.0,-0.030334473,0.33636475,-38.953125,46.703125,-3.265625
122,122,1727384024064,-1.6196289,0.53826904,-0.04522705,-60.21875,8.046875,-4.328125
123,123,1727384024104,-1.1574707,0.55755615,0.031677246,-45.53125,4.6875,-9.78125
124,124,1727384024144,-0.7128906,0.28240967,0.0680542,-13.53125,15.6875,-9.203125
125,125,1727384024184,-0.13671875,0.1071167,0.043884277,-5.90625,25.375,-10.796875
126,126,1727384024224,0.15576172,-0.06085205,-0.023742676,-0.09375,0.546875,-10.9375
127,127,1727384024264,-0.009765625,0.08880615,0.03704834,13.546875,-6.96875,-5.140625
128,128,1727384024304,-0.66430664,0.3678589,-0.7271118,-20.34375,-51.34375,19.171875
129,129,1727384024344,-2.0,0.2999878,0.39520264,3.25,-35.765625,29.75
130,130,1727384024384,-1.8796387,0.5848999,0.00091552734,64.859375,-40.703125,13.015625
131,131,1727384024424,-1.5124512,0.41033936,-0.15997314,49.828125,4.703125,4.09375
132,132,1727384024464,-0.97387695,0.18255615,-0.13140869,31.6875,-15.0,8.53125
133,133,1727384024504,-0.78515625,0.085876465,-0.04547119,34.734375,-7.609375,6.953125
134,134,1727384024544,-0.39794922,0.0079956055,0.014587402,7.859375,20.953125,-6.421875
135,135,1727384024584,-0.13623047,-0.15655518,-0.1921997,-10.8125,29.4375,-8.4375
136,136,1727384024624,-0.123535156,-0.12237549,0.018493652,-20.984375,32.515625,-8.4375
137,137,1727384024664,-0.65893555,-0.19268799,-0.23956299,-49.875,-32.84375,-2.21875
138,138,1727384024704,-2.0,0.2616577,0.24798584,-76.4375,-23.140625,12.640625
139,139,1727384024744,-1.9584961,0.34881592,-0.038879395,-19.359375,32.625,0.828125
140,140,1727384024784,-1.4191895,0.62298584,-0.109191895,-46.609375,10.921875,-6.203125
141,141,1727384024824,-1.0263672,0.51116943,0.039978027,-22.34375,8.03125,-15.515625
142,142,1727384024864,-0.44458008,0.17694092,0.061950684,4.09375,21.421875,-4.84375
143,143,1727384024904,-0.008056641,-0.04156494,-0.04498291,-6.625,13.84375,-6.765625
144,144,1727384024944,0.110839844,-0.031311035,0.13031006,13.1875,0.953125,-3.046875
145,145,1727384024984,-0.1965332,0.21990967,0.07293701,27.34375,2.4375,2.203125
146,146,1727384025024,-1.5637207,0.68084717,-1.1130981,31.328125,-84.421875,20.5625
147,147,1727384025064,-2.0,0.97528076,0.16278076,38.484375,45.40625,13.921875
148,148,1727384025104,-1.8161621,0.44891357,0.054626465,54.640625,-14.953125,9.578125
149,149,1727384025144,-1.2893066,0.22845459,-0.190979,46.5625,1.046875,8.15625
150,150,1727384025184,-1.0026855,0.09124756,0.08099365,36.375,-25.25,1.9375
151,151,1727384025224,-0.6262207,0.11029053,-0.054748535,20.25,9.40625,2.34375
152,152,1727384025264,-0.1809082,-0.047912598,-0.15167236,-0.4375,22.078125,-11.6875
153,153,1727384025304,-0.14746094,-0.22198486,-0.16192627,-12.625,21.8125,-6.875
154,154,1727384025344,-0.22045898,-0.109680176,-0.15582275,-30.828125,30.25,-7.046875
155,155,1727384025384,-1.2463379,-0.1885376,-0.16217041,-65.40625,-67.921875,-4.65625
156,156,1727384025424,-2.0,0.4472046,0.11273193,-59.921875,77.21875,-12.625
157,157,1727384025464,-1.7175293,0.32366943,-0.19561768,-28.5625,18.4375,4.609375
158,158,1727384025504,-1.3652344,0.55462646,-0.034729004,-39.703125,-3.71875,-4.84375
159,159,1727384025544,-0.9892578,0.30926514,0.08001709,-28.671875,12.359375,-14.265625
160,160,1727384025584,-0.36816406,0.1918335,0.009216309,-6.28125,20.671875,-7.296875
161,161,1727384025624,0.021728516,-0.039123535,0.0016479492,-7.375,15.59375,-12.875
162,162,1727384025664,0.07104492,0.05999756,0.02166748,5.453125,3.734375,-6.578125
163,163,1727384025704,-0.29174805,0.24603271,-0.409729,11.53125,-9.453125,4.84375
164,164,1727384025744,-2.0,0.5548706,-0.6350708,18.84375,-92.84375,23.6875
165,165,1727384025784,-1.8059082,0.69158936,-0.19537354,62.671875,19.046875,10.0
166,166,1727384025824,-1.7617188,0.53045654,-0.006652832,53.640625,-0.34375,3.359375
167,167,1727384025864,-1.2993164,0.25701904,-0.06719971,42.8125,-10.453125,7.0625
168,168,1727384025904,-0.94262695,0.18060303,-0.08477783,37.609375,-16.671875,6.21875
169,169,1727384025944,-0.6591797,0.12689209,0.053649902,23.359375,0.625,-0.0625
170,170,1727384025984,-0.23876953,-0.062805176,-0.07965088,9.03125,25.3125,-4.203125
171,171,1727384026024,-0.07910156,-0.1494751,-0.16607666,-1.96875,19.1875,-6.296875
172,172,1727384026064,-0.24975586,-0.19073486,-0.41314697,-32.140625,16.375,-4.796875
173,173,1727384026104,-2.0,0.117614746,-0.38311768,-67.015625,-108.078125,11.234375
174,174,1727384026144,-2.0,0.030700684,-0.003967285,-29.46875,55.609375,-1.09375
175,175,1727384026184,-1.6791992,0.5241089,-0.06890869,-42.328125,8.71875,0.859375
176,176,1727384026224,-1.309082,0.5895386,-0.0413208,-46.515625,3.25,-6.8125
177,177,1727384026264,-0.88720703,0.31170654,0.08319092,-24.234375,10.90625,-14.421875
178,178,1727384026304,-0.4116211,0.1593628,-0.0005493164,-13.0,18.390625,-6.203125
179,179,1727384026344,-0.07055664,-0.0005493164,0.0524292,-10.84375,6.046875,-6.265625
180,180,1727384026384,-0.020751953,0.11053467,0.003112793,11.515625,9.703125,-1.0
181,181,1727384026424,-0.2956543,0.24969482,-0.29058838,16.296875,-9.0,8.171875
182,182,1727384026464,-2.0,0.4623413,-0.79644775,21.421875,-105.25,9.703125
183,183,1727384026504,-1.9104004,0.8768921,-0.11236572,58.921875,29.828125,4.796875
184,184,1727384026544,-1.7248535,0.56365967,-0.04864502,56.875,-10.328125,7.953125
185,185,1727384026584,-1.270752,0.22796631,-0.17388916,41.140625,-4.15625,6.328125
186,186,1727384026624,-1.0288086,0.20281982,-0.014221191,41.484375,-16.359375,7.109375
187,187,1727384026664,-0.5805664,0.07977295,0.0016479492,30.859375,10.875,0.15625
188,188,1727384026704,-0.08300781,-0.089904785,-0.14898682,8.9375,25.25,-5.75
189,189,1727384026744,0.0031738281,-0.1687622,-0.1873169,-5.34375,12.734375,-10.515625
190,190,1727384026784,-0.7504883,-0.34283447,-0.54522705,-45.578125,-16.390625,-7.296875
191,191,1727384026824,-2.0,0.494812,0.4286499,-67.6875,11.4375,0.359375
192,192,1727384026864,-2.0,0.20404053,0.06048584,-29.46875,17.03125,1.796875
193,193,1727384026904,-1.5217285,0.54852295,-0.23712158,-49.90625,19.296875,-8.6875
194,194,1727384026944,-1.2399902,0.43743896,0.081726074,-32.859375,11.953125,-10.5625
195,195,1727384026984,-0.7043457,0.24505615,0.16009521,-18.84375,25.390625,-8.90625
196,196,1727384027024,-0.14135742,0.043884277,-0.0569458,-13.859375,31.546875,-9.359375
197,197,1727384027064,0.122802734,0.0079956055,0.008483887,-8.40625,9.46875,-7.28125
198,198,1727384027104,-0.06982422,0.074401855,-0.073791504,16.671875,6.546875,0.46875
199,199,1727384027144,-0.99243164,0.15081787,-0.7210083,-13.09375,-47.046875,26.109375
200,200,1727384027184,-2.0,0.99139404,0.3456421,23.65625,25.984375,7.6875
201,201,1727384027224,-1.7470703,0.46307373,0.0053100586,56.3125,-34.484375,9.671875
202,202,1727384027264,-1.5334473,0.46380615,-0.09088135,52.15625,2.546875,-0.46875
203,203,1727384027304,-1.1230469,0.1984253,-0.0025024414,36.53125,-12.328125,0.65625
204,204,1727384027344,-0.70532227,-0.0335083,-0.074279785,31.34375,-20.46875,4.46875
205,205,1727384027384,-0.37670898,-0.045715332,-0.07208252,7.953125,21.265625,-3.734375
206,206,1727384027424,-0.140625,-0.12213135,-0.11627197,-7.03125,23.390625,-5.328125
207,207,1727384027464,-0.27612305,-0.036193848,-0.05987549,-18.28125,17.03125,-5.140625
208,208,1727384027504,-0.88305664,-0.4085083,-0.5960083,-60.015625,-38.046875,-4.5625
209,209,1727384027544,-2.0,0.6149292,0.5133667,-57.140625,50.46875,7.140625
210,210,1727384027584,-1.8212891,0.21234131,-0.0134887695,-27.171875,25.546875,-4.203125
211,211,1727384027624,-1.5297852,0.53778076,-0.04425049,-38.796875,-3.71875,0.390625
212,212,1727384027664,-1.2314453,0.3912964,0.14984131,-34.8125,9.171875,-13.5
213,213,1727384027704,-0.6635742,0.16937256,-0.0010375977,-14.265625,12.921875,-6.3125
214,214,1727384027744,-0.25,0.0446167,0.05218506,-19.015625,11.046875,-5.796875
215,215,1727384027784,-0.030029297,-0.002746582,-0.00030517578,-8.171875,2.484375,-3.234375
216,216,1727384027824,-0.18334961,0.06903076,0.015808105,8.8125,8.703125,-3.703125
217,217,1727384027864,-0.6086426,0.26507568,-0.6553345,-0.15625,-53.703125,1.125
218,218,1727384027904,-2.0,0.9110718,0.41204834,12.546875,-20.765625,8.828125
219,219,1727384027944,-1.6586914,0.54241943,-0.2185669,51.421875,-12.203125,-2.828125
220,220,1727384027984,-1.5,0.47039795,-0.12310791,46.59375,12.078125,-1.34375
221,221,1727384028024,-1.222168,0.29681396,0.121520996,29.375,-13.390625,-1.984375
222,222,1727384028064,-0.7741699,0.13275146,-0.066711426,35.046875,-4.078125,2.9375
223,223,1727384028104,-0.33569336,0.08929443,0.014587402,17.03125,18.3125,-5.0625
224,224,1727384028144,-0.106933594,-0.10821533,-0.22467041,4.8125,23.796875,-5.359375
225,225,1727384028184,-0.2043457,-0.093566895,-0.03692627,-4.828125,11.453125,-3.953125
226,226,1727384028224,-0.798584,-0.30767822,-0.5430298,-40.5,-58.171875,2.0625
227,227,1727384028264,-2.0,0.4196167,0.42767334,-56.8125,31.609375,5.765625
228,228,1727384028304,-1.9050293,0.3366089,0.014831543,-14.8125,24.359375,-0.5
229,229,1727384028344,-1.3803711,0.512146,-0.19683838,-41.25,-2.0,-2.3125
230,230,1727384028384,-1.282959,0.50286865,0.16693115,-28.15625,3.9375,-10.34375
231,231,1727384028424,-0.68603516,0.21697998,-0.038635254,-19.3125,18.5,-9.1875
232,232,1727384028464,-0.37329102,0.11663818,0.0065307617,-17.1875,9.109375,-5.609375
233,233,1727384028504,-0.15161133,0.049987793,0.09539795,2.90625,12.625,-1.375
234,234,1727384028544,-0.103759766,0.12640381,0.03656006,18.578125,11.9375,-2.484375
235,235,1727384028584,-0.37670898,0.31048584,-0.5149536,12.046875,-22.53125,6.234375
236,236,1727384028624,-2.0,0.4303589,-0.23321533,0.125,-105.21875,23.59375
237,237,1727384028664,-1.6584473,0.59295654,-0.25787354,52.453125,10.3125,1.421875
238,238,1727384028704,-1.6489258,0.5487671,0.0036010742,48.734375,14.296875,5.59375
239,239,1727384028744,-0.91552734,0.14837646,-0.22711182,25.296875,-16.21875,8.25
240,240,1727384028784,-0.9711914,0.22576904,0.050231934,27.21875,-21.28125,7.828125
241,241,1727384028824,-0.5258789,0.08734131,-0.121154785,13.9375,12.953125,0.390625
242,242,1727384028864,-0.21899414,-0.08917236,-0.0881958,0.234375,21.875,-2.546875
243,243,1727384028904,-0.14404297,-0.027404785,-0.059143066,-5.0,19.015625,-3.8125
244,244,1727384028944,-0.32983398,-0.18218994,-0.61602783,-30.90625,17.140625,-2.890625
245,245,1727384028984,-2.0,0.30047607,-0.3508911,-54.734375,-169.34375,31.25
246,246,1727384029024,-1.9846191,0.07098389,-0.38848877,-2.875,57.703125,7.484375
247,247,1727384029064,-1.5754395,0.39300537,-0.21588135,-36.9375,-3.859375,-2.578125
248,248,1727384029104,-1.4645996,0.49041748,0.039489746,-33.953125,-15.828125,-5.03125
249,249,1727384029144,-0.8654785,0.27337646,-0.03302002,-11.75,34.21875,-12.765625
250,250,1727384029184,-0.33984375,0.1239624,-0.12554932,-7.84375,22.578125,-3.53125
251,251,1727384029224,-0.17382812,-0.005432129,0.08782959,-7.25,12.4375,-7.953125
252,252,1727384029264,-0.08300781,0.124694824,0.001159668,11.78125,20.765625,-1.59375
253,253,1727384029304,-0.33374023,0.20501709,-0.31158447,15.171875,-1.3125,0.53125
254,254,1727384029344,-1.9387207,0.48480225,-0.82891846,3.5625,-102.328125,26.484375
255,255,1727384029384,-1.9484863,0.7406616,-0.13336182,33.28125,17.875,0.625
256,256,1727384029424,-1.7890625,0.4928589,-0.015197754,49.984375,1.71875,10.28125
257,257,1727384029464,-1.1818848,0.2453003,-0.24468994,32.0625,0.421875,8.34375
258,258,1727384029504,-1.0288086,0.12835693,-0.082092285,30.375,-18.921875,7.421875
259,259,1727384029544,-0.64038086,0.11590576,0.044128418,27.328125,13.109375,-1.1875
260,260,1727384029584,-0.27490234,-0.022521973,-0.09234619,6.34375,35.3125,-9.0
261,261,1727384029624,-0.16503906,-0.10284424,-0.15826416,-8.546875,29.546875,-7.453125
262,262,1727384029664,-0.27075195,-0.10211182,-0.26275635,-22.015625,17.765625,-4.59375
263,263,1727384029704,-1.3217773,-0.0051879883,-0.22711182,-66.875,-95.8125,14.625
264,264,1727384029744,-2.0,0.21551514,0.058776855,-32.203125,43.71875,4.296875
265,265,1727384029784,-1.6696777,0.30462646,-0.32525635,-31.78125,36.796875,-8.71875
266,266,1727384029824,-1.5192871,0.44110107,0.066345215,-44.640625,15.109375,-12.765625
267,267,1727384029864,-0.9355469,0.37322998,0.09637451,-22.765625,25.0,-19.875
268,268,1727384029904,-0.3779297,0.13128662,0.038269043,-15.421875,18.84375,-7.125
269,269,1727384029944,-0.02734375,0.018493652,0.00970459,-17.765625,8.859375,-4.03125
270,270,1727384029984,-0.012451172,0.08099365,0.010192871,5.578125,12.625,0.765625
271,271,1727384030024,-0.19921875,0.18377686,0.09075928,22.109375,-1.03125,5.125
272,272,1727384030064,-1.4926758,0.56414795,-0.90167236,3.5625,-89.0,23.578125
273,273,1727384030104,-2.0,0.7301636,0.20452881,38.015625,60.828125,3.453125
274,274,1727384030144,-1.7441406,0.51776123,0.20404053,63.09375,-41.671875,14.515625
275,275,1727384030184,-1.262207,0.34832764,-0.26275635,44.5,-2.375,5.453125
276,276,1727384030224,-0.9946289,0.14593506,-0.06109619,37.140625,-34.140625,7.265625
277,277,1727384030264,-0.69921875,0.0045776367,-0.13092041,30.40625,1.34375,2.234375
278,278,1727384030304,-0.27441406,-0.08526611,-0.10064697,11.765625,30.75,-8.265625
279,279,1727384030344,-0.056884766,-0.15338135,-0.13140869,-6.015625,25.3125,-8.125
280,280,1727384030384,-0.21899414,-0.2041626,-0.4336548,-29.828125,9.21875,-4.71875
281,281,1727384030424,-1.546875,0.08831787,-0.109680176,-58.703125,-106.921875,20.0
282,282,1727384030464,-2.0,0.1317749,-0.046936035,-42.09375,41.234375,-7.546875
283,283,1727384030504,-1.6379395,0.41497803,-0.3032837,-35.546875,16.734375,-7.640625
284,284,1727384030544,-1.4440918,0.4882202,-0.13018799,-30.859375,13.0,-9.953125
285,285,1727384030584,-0.9189453,0.30169678,0.08294678,-6.28125,17.984375,-19.453125
286,286,1727384030624,-0.31030273,0.168396,0.0028686523,-7.078125,31.125,-2.109375
287,287,1727384030664,-0.0034179688,-0.0178833,-0.0037231445,1.5,16.125,-2.734375
288,288,1727384030704,0.009033203,0.038024902,0.003112793,19.625,10.65625,1.84375
289,289,1727384030744,-0.32666016,0.23675537,-0.31500244,22.75,-14.375,16.515625
290,290,1727384030784,-2.0,0.3336792,-0.80426025,24.03125,-109.296875,34.015625
291,291,1727384030824,-2.0,0.7509155,-0.16168213,56.640625,34.171875,16.125
292,292,1727384030864,-1.7995605,0.31341553,0.015563965,47.84375,-13.90625,2.8125
293,293,1727384030904,-1.2368164,0.2538452,-0.31134033,43.65625,-1.59375,6.671875
294,294,1727384030944,-1.052002,0.21429443,0.0026245117,40.96875,-10.296875,-5.765625
295,295,1727384030984,-0.6442871,0.043884277,-0.05279541,28.78125,17.03125,-3.65625
296,296,1727384031024,-0.1977539,-0.014221191,-0.07623291,13.703125,30.53125,-16.296875
297,297,1727384031064,0.015136719,-0.17901611,-0.20025635,-4.078125,19.875,-14.90625
298,298,1727384031104,-0.3256836,-0.25421143,-0.45928955,-39.140625,-11.96875,-5.1875
299,299,1727384031144,-2.0,0.5753784,-0.28619385,-65.734375,-135.46875,20.1875
300,300,1727384031184,-2.0,-0.11431885,-0.23638916,-33.453125,60.53125,-15.90625
301,301,1727384031224,-1.7182617,0.49066162,-0.14874268,-50.109375,7.578125,-11.296875
302,302,1727384031264,-1.302002,0.59124756,-0.1572876,-36.546875,16.1875,-18.21875
303,303,1727384031304,-0.7468262,0.260437,-0.07476807,-16.625,20.296875,-15.234375
304,304,1727384031344,-0.26586914,0.11175537,0.035827637,-15.359375,20.765625,-8.328125
305,305,1727384031384,-0.08227539,-0.028625488,0.026306152,-5.296875,19.9375,-3.390625
306,306,1727384031424,0.0043945312,0.066101074,0.050231934,8.390625,8.734375,1.9375
307,307,1727384031464,-0.28759766,0.20648193,-0.4805298,7.390625,-14.171875,8.4375
308,308,1727384031504,-2.0,0.5973511,-0.50787354,2.734375,-109.921875,31.953125
309,309,1727384031544,-1.878418,0.7509155,-0.20684814,57.703125,24.609375,3.1875
310,310,1727384031584,-1.7678223,0.6415405,-0.05303955,54.234375,11.578125,1.46875
311,311,1727384031624,-1.1064453,0.14569092,-0.062316895,33.234375,-16.96875,4.28125
312,312,1727384031664,-1.0402832,0.14178467,-0.039855957,38.296875,-26.625,8.109375
313,313,1727384031704,-0.57836914,0.06903076,-0.19805908,17.453125,10.4375,1.921875
314,314,1727384031744,-0.25317383,-0.13287354,-0.028381348,-2.96875,12.21875,-3.796875
315,315,1727384031784,-0.09301758,-0.120910645,-0.07720947,-16.078125,32.6875,-7.0
316,316,1727384031824,-0.21240234,-0.06549072,-0.4212036,-29.3125,25.65625,-7.5625
317,317,1727384031864,-1.7883301,0.24945068,-0.6109009,-57.28125,-145.45312,15.109375
318,318,1727384031904,-2.0,0.15740967,-0.1272583,-36.984375,66.5625,-4.328125
319,319,1727384031944,-1.5183105,0.36590576,-0.3862915,-27.140625,17.796875,-1.734375
320,320,1727384031984,-1.2485352,0.45355225,-0.06719971,-41.234375,6.15625,-1.671875
321,321,1727384032024,-0.9831543,0.4232788,0.051452637,-27.078125,14.609375,-11.375
322,322,1727384032064,-0.60668945,0.14813232,-0.031311035,-22.859375,15.46875,-4.484375
323,323,1727384032104,-0.2746582,0.047790527,-0.020324707,-11.125,15.296875,-2.75
324,324,1727384032144,-0.13647461,0.034851074,0.034362793,2.34375,17.171875,-0.515625
325,325,1727384032184,-0.23876953,0.14300537,-0.10992432,8.890625,-1.0625,4.765625
326,326,1727384032224,-1.269043,0.41619873,-0.51519775,5.75,-60.46875,16.203125
327,327,1727384032264,-1.9887695,0.8353882,0.06097412,24.078125,-2.125,14.53125
328,328,1727384032304,-1.6416016,0.6288452,-0.15948486,56.890625,-6.625,4.640625
329,329,1727384032344,-1.4711914,0.33587646,-0.1921997,47.328125,12.234375,0.8125
330,330,1727384032384,-1.1569824,0.19500732,-0.004699707,38.359375,-14.625,4.421875
331,331,1727384032424,-0.77441406,0.09832764,-0.028137207,42.578125,6.015625,2.46875
332,332,1727384032464,-0.3203125,0.04559326,-0.04840088,11.15625,12.21875,-2.859375
333,333,1727384032504,-0.18383789,-0.049621582,-0.10650635,-1.515625,12.625,-2.546875
334,334,1727384032544,-0.21972656,0.04095459,-0.12701416,-23.046875,-0.375,-1.3125
335,335,1727384032584,-0.61450195,-0.26885986,-0.6499634,-58.15625,-43.90625,-2.3125
336,336,1727384032624,-2.0,0.37322998,0.70770264,-46.203125,0.390625,4.484375
337,337,1727384032664,-1.7900391,0.10760498,-0.3652954,-35.34375,11.296875,-2.28125
338,338,1727384032704,-1.6542969,0.42352295,-0.12750244,-45.5,16.015625,-7.15625
339,339,1727384032744,-1.1445312,0.40716553,-0.034240723,-31.015625,21.859375,-8.125
340,340,1727384032784,-0.56030273,0.19598389,0.03656006,-13.5,20.34375,-5.8125
341,341,1727384032824,-0.23925781,0.1383667,-0.019104004,-13.671875,17.125,1.296875
342,342,1727384032864,-0.1015625,0.0060424805,0.038757324,-8.703125,1.6875,-3.515625
343,343,1727384032904,-0.19677734,0.13739014,0.014099121,13.4375,-0.203125,1.75
344,344,1727384032944,-0.7470703,0.36297607,-0.6536255,-8.390625,-39.34375,19.265625
345,345,1727384032984,-2.0,0.5775757,0.2897339,11.03125,-16.03125,10.796875
346,346,1727384033024,-1.5463867,0.43475342,-0.2954712,50.21875,-12.03125,6.359375
347,347,1727384033064,-1.6218262,0.40130615,-0.12799072,34.0625,8.328125,-3.21875
348,348,1727384033104,-1.0969238,0.2506714,-0.20709229,33.453125,-8.609375,3.265625
349,349,1727384033144,-0.8190918,0.15423584,-0.043762207,33.21875,-0.71875,-2.875
350,350,1727384033184,-0.4790039,0.057556152,0.010192871,15.375,15.828125,-3.265625
351,351,1727384033224,-0.22192383,-0.04058838,-0.027160645,1.53125,19.25,-8.03125
352,352,1727384033264,-0.2043457,-0.026184082,-0.089660645,-7.84375,20.109375,-9.34375
353,353,1727384033304,-0.3178711,-0.06304932,-0.32232666,-30.5,9.796875,-7.921875
354,354,1727384033344,-2.0,0.5109253,-0.61798096,-27.75,-111.625,-12.171875
355,355,1727384033384,-2.0,0.09564209,-0.08453369,-30.59375,60.9375,-8.65625
356,356,1727384033424,-1.6147461,0.43719482,-0.27618408,-20.015625,17.625,0.734375
357,357,1727384033464,-1.1843262,0.3793335,-0.07647705,-46.828125,-1.046875,0.578125
358,358,1727384033504,-0.9614258,0.2880249,0.007019043,-30.453125,7.546875,-6.828125
359,359,1727384033544,-0.5217285,0.14324951,-0.05206299,-1.546875,7.921875,3.71875
360,360,1727384033584,-0.3059082,0.05999756,-0.020324707,-8.375,6.640625,2.890625
361,361,1727384033624,-0.22949219,0.013366699,0.05682373,7.984375,13.109375,1.515625
362,362,1727384033664,-0.24853516,0.16522217,0.18817139,20.28125,13.46875,0.75
363,363,1727384033704,-0.69506836,0.4352417,-0.60601807,-13.984375,-15.546875,13.59375
364,364,1727384033744,-2.0,0.33441162,-0.07232666,-8.796875,-32.75,6.546875
365,365,1727384033784,-1.3979492,0.46014404,-0.21514893,54.0625,-2.421875,12.640625
366,366,1727384033824,-1.6010742,0.47235107,-0.08795166,50.328125,3.59375,-0.75
367,367,1727384033864,-1.1787109,0.20379639,-0.18023682,40.265625,-16.8125,5.8125
368,368,1727384033904,-1.0292969,0.1642456,0.043151855,40.4375,-9.703125,-1.53125
369,369,1727384033944,-0.46240234,0.06390381,-0.046447754,22.75,18.578125,-0.453125
370,370,1727384033984,-0.14135742,-0.05206299,-0.06329346,4.765625,13.078125,-7.921875
371,371,1727384034024,-0.18310547,-0.13092041,-0.1182251,-8.828125,16.203125,-4.765625
372,372,1727384034064,-0.42895508,-0.07183838,-0.4463501,-34.203125,-3.5,-1.640625
373,373,1727384034104,-1.9943848,0.36151123,-0.121398926,-50.140625,-102.015625,0.75
374,374,1727384034144,-2.0,0.08050537,-0.12652588,-36.1875,43.078125,1.59375
375,375,1727384034184,-1.6762695,0.387146,-0.18414307,-38.015625,15.8125,-4.84375
376,376,1727384034224,-1.4562988,0.47991943,0.0036010742,-33.796875,19.859375,-7.625
377,377,1727384034264,-0.9121094,0.35614014,-0.0947876,-18.921875,22.671875,-9.609375
378,378,1727384034304,-0.50341797,0.17132568,0.030212402,-7.78125,9.453125,-4.90625
379,379,1727384034344,-0.21875,0.02166748,0.015563965,-6.65625,10.125,-1.40625
380,380,1727384034384,-0.103271484,0.013366699,-0.0095825195,15.453125,19.578125,2.96875
381,381,1727384034424,-0.19848633,0.10784912,0.022155762,17.671875,8.078125,2.9375
382,382,1727384034464,-1.3051758,0.52508545,-0.47906494,1.359375,-65.109375,22.140625
383,383,1727384034504,-2.0,0.69573975,0.23114014,11.3125,10.15625,16.5625
384,384,1727384034544,-1.6171875,0.57684326,0.0006713867,57.265625,-14.9375,4.921875
385,385,1727384034584,-1.5742188,0.4352417,-0.09283447,50.515625,8.3125,2.09375
386,386,1727384034624,-1.1557617,0.2538452,-0.016174316,45.28125,-14.21875,0.5
387,387,1727384034664,-0.77978516,0.08416748,0.010192871,37.40625,-3.359375,1.0625
388,388,1727384034704,-0.43920898,0.0036010742,-0.04864502,12.953125,2.84375,-2.296875
389,389,1727384034744,-0.1730957,-0.12652588,-0.13531494,0.625,20.09375,-7.78125
390,390,1727384034784,-0.14550781,-0.012512207,-0.09918213,-10.96875,9.671875,-7.609375
391,391,1727384034824,-0.46679688,-0.24761963,-0.60650635,-51.40625,-26.15625,-4.640625
392,392,1727384034864,-2.0,0.41693115,0.54681396,-64.0625,-97.9375,25.03125
393,393,1727384034904,-1.8740234,0.11590576,-0.19073486,-28.578125,41.59375,-1.953125
394,394,1727384034944,-1.8376465,0.43743896,-0.11090088,-52.046875,-2.90625,1.46875
395,395,1727384034984,-1.4658203,0.4562378,0.042907715,-36.96875,8.03125,-3.0625
396,396,1727384035024,-0.85717773,0.2489624,-0.1375122,-23.453125,13.078125,-6.265625
397,397,1727384035064,-0.46240234,0.13348389,-0.012268066,-14.640625,11.640625,-4.421875
398,398,1727384035104,-0.18359375,0.0026245117,0.026306152,0.15625,23.71875,-2.140625
399,399,1727384035144,0.06933594,0.035339355,-0.03668213,26.140625,25.4375,-1.703125
400,400,1727384035184,-0.16748047,0.19036865,-0.33648682,10.75,-10.234375,3.59375
401,401,1727384035224,-2.0,0.5289917,-0.7095337,13.984375,-107.28125,29.953125
402,402,1727384035264,-2.0,0.6552124,0.06317139,44.015625,38.171875,3.78125
403,403,1727384035304,-1.6445312,0.559021,-0.13409424,51.34375,-4.40625,4.65625
404,404,1727384035344,-1.4138184,0.3456421,-0.15753174,36.734375,-8.96875,3.21875
405,405,1727384035384,-1.1601562,0.16229248,-0.042053223,41.40625,-5.796875,1.34375
406,406,1727384035424,-0.7290039,0.08709717,-0.05303955,30.328125,5.578125,1.875
407,407,1727384035464,-0.2529297,-0.019104004,-0.06842041,9.21875,22.734375,-11.21875
408,408,1727384035504,-0.05834961,-0.1963501,-0.2185669,-8.578125,25.5625,-13.015625
409,409,1727384035544,-0.10522461,-0.175354,-0.29595947,-28.765625,8.140625,-8.765625
410,410,1727384035584,-0.99853516,0.018249512,-0.117492676,-64.96875,-103.421875,7.53125
411,411,1727384035624,-2.0,0.22625732,-0.007873535,-54.953125,30.9375,-1.890625
412,412,1727384035664,-1.722168,0.34344482,-0.30914307,-21.875,34.59375,-3.0625
413,413,1727384035704,-1.4013672,0.4179077,-0.22442627,-42.9375,3.28125,-9.578125
414,414,1727384035744,-1.1552734,0.34197998,0.04144287,-23.671875,9.453125,-11.359375
415,415,1727384035784,-0.6130371,0.15911865,-0.0044555664,-8.4375,21.671875,-7.59375
416,416,1727384035824,-0.2331543,0.05731201,-6.1035156e-05,-9.125,25.671875,-5.5
417,417,1727384035864,-0.053466797,0.054382324,0.04901123,18.84375,28.46875,-4.328125
418,418,1727384035904,0.031982422,0.14813232,-0.06451416,28.90625,22.734375,-1.3125
419,419,1727384035944,-1.0661621,0.0914917,-0.77960205,-4.921875,-63.984375,22.953125
420,420,1727384035984,-2.0,1.0394897,0.61468506,4.4375,22.671875,5.90625
421,421,1727384036024,-1.5637207,0.524353,-0.0881958,52.125,-4.28125,9.515625
422,422,1727384036064,-1.3579102,0.3361206,-0.23370361,31.1875,0.625,6.5625
423,423,1727384036104,-1.1452637,0.18206787,0.018981934,27.015625,-29.015625,5.625
424,424,1727384036144,-0.82421875,0.00091552734,-0.14117432,20.671875,-6.296875,6.875
425,425,1727384036184,-0.45532227,-0.029846191,-0.07330322,5.640625,4.734375,-1.84375
426,426,1727384036224,-0.19433594,-0.09649658,-0.11529541,-5.421875,24.96875,-7.765625
427,427,1727384036264,-0.13232422,-0.05621338,-0.0725708,-17.609375,18.703125,-12.390625
428,428,1727384036304,-0.4416504,-0.20196533,-0.71466064,-61.34375,4.671875,-9.21875
429,429,1727384036344,-2.0,0.6547241,0.09857178,-51.875,-123.21875,31.359375
430,430,1727384036384,-1.8544922,0.031921387,-0.33843994,-22.453125,55.328125,-11.59375
431,431,1727384036424,-1.3110352,0.5038452,-0.32159424,-21.625,12.296875,-0.578125
432,432,1727384036464,-1.2512207,0.44354248,0.06707764,-23.90625,-5.453125,-0.71875
433,433,1727384036504,-0.8132324,0.19232178,0.15692139,-5.59375,10.3125,-10.71875
434,434,1727384036544,-0.35229492,0.07928467,0.058288574,2.984375,11.15625,-6.09375
435,435,1727384036584,-0.18823242,-0.022033691,-0.09088135,8.53125,10.015625,-4.296875
436,436,1727384036624,-0.13696289,0.066101074,0.06585693,21.890625,12.078125,-2.359375
437,437,1727384036664,-0.6809082,0.22747803,-0.50738525,3.4375,-15.109375,5.453125
438,438,1727384036704,-2.0,0.774353,0.4376831,23.28125,-13.0625,15.015625
439,439,1727384036744,-1.4533691,0.43572998,-0.1194458,49.484375,-6.96875,5.0
440,440,1727384036784,-1.5400391,0.43988037,-0.06719971,41.96875,1.609375,2.6875
441,441,1727384036824,-1.3115234,0.25164795,0.06829834,33.0625,-20.859375,4.71875
442,442,1727384036864,-1.0351562,0.15350342,-0.027893066,33.125,-2.375,-0.84375
443,443,1727384036904,-0.60180664,0.1161499,-0.011047363,16.6875,-5.75,-5.03125
444,444,1727384036944,-0.3725586,-0.0032348633,-0.0491333,3.5,2.890625,-7.9375
445,445,1727384036984,-0.22729492,-0.07891846,-0.13140869,-7.8125,16.609375,-10.8125
446,446,1727384037024,-0.25708008,-0.062316895,-0.255188,-25.5625,6.9375,-10.609375
447,447,1727384037064,-1.0959473,-0.16143799,-0.18804932,-66.8125,-92.265625,0.4375
448,448,1727384037104,-2.0,0.3895874,0.06951904,-44.703125,52.859375,-1.484375
449,449,1727384037144,-1.5673828,0.19036865,-0.14263916,-7.6875,46.015625,-5.765625
450,450,1727384037184,-1.6572266,0.4767456,0.117126465,-47.09375,2.78125,-14.15625
451,451,1727384037224,-1.2163086,0.34368896,0.09857178,-22.078125,41.171875,-16.140625
452,452,1727384037264,-0.6279297,0.24285889,-0.04449463,-25.171875,21.6875,-8.265625
453,453,1727384037304,-0.37890625,0.12005615,0.0368042,-22.875,10.5,-8.015625
454,454,1727384037344,-0.26513672,0.02947998,-0.03717041,-4.859375,14.484375,-2.046875
455,455,1727384037384,-0.18676758,0.09857178,0.10491943,5.671875,11.046875,0.515625
456,456,1727384037424,-0.5983887,0.40301514,-0.29449463,-6.328125,-31.109375,9.09375
457,457,1727384037464,-2.0,0.70526123,0.03656006,11.234375,-22.9375,4.734375
458,458,1727384037504,-1.3525391,0.4381714,-0.13336182,45.25,-4.015625,6.9375
459,459,1727384037544,-1.6069336,0.6039429,0.024353027,39.5625,-5.75,10.71875
460,460,1727384037584,-1.1447754,0.2736206,-0.00079345703,35.921875,-14.15625,11.03125
461,461,1727384037624,-0.94628906,0.17010498,-0.09698486,33.0,-17.65625,10.328125
462,462,1727384037664,-0.6604004,0.03289795,-0.07525635,15.578125,-3.015625,1.609375
463,463,1727384037704,-0.44995117,-0.010070801,-0.016906738,6.21875,8.765625,-0.6875
464,464,1727384037744,-0.3227539,0.03314209,-0.105285645,-8.125,11.828125,-7.265625
465,465,1727384037784,-0.37646484,-0.0015258789,-0.26739502,-27.296875,5.8125,-7.234375
466,466,1727384037824,-1.28125,0.0993042,-0.10040283,-44.6875,-83.75,6.609375
467,467,1727384037864,-2.0,0.25653076,0.02557373,-35.453125,25.84375,9.703125
468,468,1727384037904,-1.6225586,0.37908936,-0.051574707,-25.28125,20.9375,-2.875
469,469,1727384037944,-1.5793457,0.4977417,0.0524292,-39.546875,6.28125,-5.296875
470,470,1727384037984,-1.2463379,0.39691162,-0.028137207,-22.21875,23.109375,-9.5
471,471,1727384038024,-0.81103516,0.2723999,-0.074279785,-15.296875,9.25,-2.125
472,472,1727384038064,-0.53930664,0.19696045,0.06854248,-6.3125,5.078125,-4.046875
473,473,1727384038104,-0.2722168,0.1005249,0.030456543,12.09375,22.953125,0.421875
474,474,1727384038144,-0.042236328,0.05706787,0.03704834,25.796875,18.6875,-2.390625
475,475,1727384038184,-0.31152344,0.20770264,-0.40289307,8.4375,-24.234375,8.421875
476,476,1727384038224,-2.0,0.5072632,-0.47930908,22.5625,-76.03125,9.6875
477,477,1727384038264,-1.6540527,0.5741577,-0.18756104,67.5625,40.625,-1.0625
478,478,1727384038304,-1.6911621,0.6300659,0.085632324,52.578125,-7.65625,2.4375
479,479,1727384038344,-1.2897949,0.27435303,-0.054016113,43.03125,-0.875,3.25
480,480,1727384038384,-1.0192871,0.25335693,-0.043273926,42.015625,-5.921875,0.890625
481,481,1727384038424,-0.64208984,0.074157715,-0.08331299,31.203125,2.28125,-0.921875
482,482,1727384038464,-0.36865234,0.040222168,0.086120605,17.625,10.015625,-8.65625
483,483,1727384038504,-0.22314453,0.011413574,-0.17364502,-1.15625,20.0,-13.59375
484,484,1727384038544,-0.40893555,-0.093811035,-0.2522583,-18.84375,3.109375,-10.90625
485,485,1727384038584,-1.1762695,-0.00592041,-0.13189697,-50.609375,-83.71875,5.921875
486,486,1727384038624,-2.0,0.2741089,0.15301514,-45.796875,22.140625,-0.015625
487,487,1727384038664,-1.5754395,0.3673706,-0.20318604,-23.59375,43.546875,-6.78125
488,488,1727384038704,-1.6091309,0.43548584,0.066833496,-45.453125,-3.828125,-0.34375
489,489,1727384038744,-1.3168945,0.3529663,0.07659912,-25.21875,29.953125,-6.09375
490,490,1727384038784,-0.7878418,0.29022217,-0.04864502,-13.6875,14.578125,-2.5
491,491,1727384038824,-0.45458984,0.22943115,0.036315918,-15.109375,3.328125,-0.765625
492,492,1727384038864,-0.34179688,0.07879639,0.018737793,3.90625,13.609375,5.375
493,493,1727384038904,-0.2590332,0.08392334,0.11663818,19.265625,18.515625,0.453125
494,494,1727384038944,-0.39672852,0.19134521,-0.2630005,11.203125,-11.078125,3.75
495,495,1727384038984,-1.6003418,0.4076538,-0.3328247,4.171875,-62.6875,20.6875
496,496,1727384039024,-1.706543,0.62786865,-0.04888916,41.453125,14.390625,2.46875
497,497,1727384039064,-1.505127,0.3756714,-0.0881958,39.34375,-2.078125,5.453125
498,498,1727384039104,-1.4199219,0.31292725,0.07659912,30.03125,-12.109375,4.15625
499,499,1727384039144,-1.1132812,0.21575928,-0.051574707,32.859375,-5.75,4.5
500,500,1727384039184,-0.80566406,0.17132568,-0.0071411133,19.515625,-10.171875,2.90625
501,501,1727384039224,-0.5917969,0.050964355,-0.010803223,8.90625,1.640625,-2.21875
502,502,1727384039264,-0.38330078,0.0028686523,-0.07623291,1.34375,15.84375,-6.09375
503,503,1727384039304,-0.37548828,0.059753418,-0.07208252,-9.3125,11.109375,-8.21875
504,504,1727384039344,-0.53149414,-0.26275635,-0.5828247,-45.59375,-10.046875,-4.53125
505,505,1727384039384,-1.9262695,0.22210693,0.21551514,-57.796875,-73.328125,15.578125
506,506,1727384039424,-1.9736328,0.042663574,0.07098389,-26.328125,28.96875,-2.359375
507,507,1727384039464,-1.5290527,0.43328857,-0.23760986,-42.515625,2.578125,-3.8125
508,508,1727384039504,-1.4296875,0.34979248,-0.039611816,-33.921875,4.453125,-5.359375
509,509,1727384039544,-0.9819336,0.2543335,-0.02178955,-18.078125,15.140625,-8.5
510,510,1727384039584,-0.5859375,0.2230835,-0.024475098,-16.328125,22.03125,-4.34375
511,511,1727384039624,-0.34301758,0.06951904,-0.03692627,-9.828125,16.328125,-5.734375
512,512,1727384039664,-0.30322266,0.12225342,0.08319092,6.6875,14.78125,-1.0
513,513,1727384039704,-0.2631836,0.1149292,0.10491943,29.203125,22.8125,-4.953125
514,514,1727384039744,-0.5793457,0.1630249,-0.534729,-4.109375,-32.1875,11.171875
515,515,1727384039784,-2.0,0.61590576,0.49505615,-0.703125,-22.0,14.515625
516,516,1727384039824,-1.4658203,0.34173584,-0.25299072,35.53125,8.75,2.21875
517,517,1727384039864,-1.5827637,0.53045654,0.05731201,26.125,3.0625,7.96875
518,518,1727384039904,-1.0871582,0.22894287,0.0048217773,22.71875,-16.921875,5.34375
519,519,1727384039944,-0.85253906,0.08026123,-0.11993408,19.875,-7.53125,4.890625
520,520,1727384039984,-0.63427734,0.09222412,-0.023254395,12.96875,1.53125,-0.203125
521,521,1727384040024,-0.4572754,0.06121826,0.005554199,2.109375,7.8125,-5.453125
522,522,1727384040064,-0.43481445,0.057800293,-0.07647705,-1.171875,11.984375,-9.65625
523,523,1727384040104,-0.3864746,-0.0178833,-0.3538208,-16.28125,17.0,-9.6875
524,524,1727384040144,-0.8762207,0.00091552734,-0.117004395,-43.34375,-75.1875,1.140625
525,525,1727384040184,-2.0,0.31292725,-0.085998535,-30.921875,35.6875,3.296875
526,526,1727384040224,-1.6293945,0.18597412,-0.010559082,-10.171875,28.9375,-2.703125
527,527,1727384040264,-1.6481934,0.42596436,0.07537842,-21.140625,2.5,4.46875
528,528,1727384040304,-1.1643066,0.27508545,0.070739746,-3.625,17.25,-0.34375
529,529,1727384040344,-0.6743164,0.21234131,-0.0256958,-2.234375,15.109375,2.125
530,530,1727384040384,-0.3815918,0.15374756,0.024353027,7.046875,14.578125,-2.46875
531,531,1727384040424,-0.23364258,0.12860107,0.0289917,15.296875,14.515625,-4.125
532,532,1727384040464,-0.3552246,0.13934326,0.11663818,27.765625,1.515625,-5.390625
533,533,1727384040504,-0.48388672,0.262146,-0.31866455,22.953125,-7.84375,-2.796875
534,534,1727384040544,-2.0,0.5067749,-0.40020752,26.484375,-36.34375,8.90625
535,535,1727384040584,-1.5336914,0.479187,0.026550293,38.453125,9.234375,0.640625
536,536,1727384040624,-1.595459,0.49871826,0.10809326,40.453125,-4.46875,1.84375
537,537,1727384040664,-1.2548828,0.33148193,0.015075684,29.734375,-7.640625,0.53125
538,538,1727384040704,-0.93359375,0.24456787,-0.04449463,31.9375,-8.671875,-0.953125
539,539,1727384040744,-0.7182617,0.13446045,-0.12506104,18.625,-4.328125,-4.640625
540,540,1727384040784,-0.5546875,0.026794434,-0.035461426,6.546875,-1.828125,-5.140625
541,541,1727384040824,-0.48828125,0.10394287,-0.012023926,-0.15625,10.28125,-10.265625
542,542,1727384040864,-0.47753906,0.059020996,-0.109191895,-10.984375,11.21875,-17.890625
543,543,1727384040904,-0.75512695,0.026794434,-0.16729736,-28.015625,-32.671875,-8.921875
544,544,1727384040944,-1.7421875,0.29144287,0.09857178,-33.796875,-18.515625,-0.15625
545,545,1727384040984,-1.6994629,0.20819092,0.12322998,-13.03125,27.578125,-4.875
546,546,1727384041024,-1.7111816,0.49041748,0.0038452148,-23.171875,2.28125,1.171875
547,547,1727384041064,-1.4665527,0.434021,0.10614014,-7.765625,11.78125,2.875
548,548,1727384041104,-0.9831543,0.2675171,0.03265381,0.15625,3.15625,2.078125
549,549,1727384041144,-0.63720703,0.20574951,0.008728027,1.21875,2.890625,1.3125
550,550,1727384041184,-0.36938477,0.12957764,0.016052246,12.25,9.296875,-1.375
551,551,1727384041224,-0.25976562,0.09710693,0.04925537,17.40625,6.375,-5.203125
552,552,1727384041264,-0.45654297,0.18133545,-0.20391846,19.3125,-9.515625,1.015625
553,553,1727384041304,-1.2163086,0.18035889,-0.21710205,11.265625,-45.296875,13.984375
554,554,1727384041344,-1.6726074,0.57073975,-0.038635254,27.6875,-14.546875,12.640625
555,555,1727384041384,-1.604248,0.4730835,-0.18048096,31.296875,-2.78125,2.328125
556,556,1727384041424,-1.5273438,0.34857178,-0.054748535,21.640625,-7.6875,0.828125
557,557,1727384041464,-1.1826172,0.276062,-0.14190674,21.421875,-1.875,-0.015625
558,558,1727384041504,-0.84106445,0.14642334,-0.03375244,18.875,2.546875,-0.4375
559,559,1727384041544,-0.51660156,0.07318115,0.011169434,10.5,7.21875,-4.71875
560,560,1727384041584,-0.32080078,0.06781006,-0.0947876,2.75,8.734375,-6.625
561,561,1727384041624,-0.32080078,0.00018310547,-0.23199463,-9.890625,8.625,-7.90625
562,562,1727384041664,-0.48339844,0.030700684,-0.1260376,-20.53125,-19.65625,-2.375
563,563,1727384041704,-1.5673828,0.21087646,-0.19244385,-37.59375,-46.5,12.671875
564,564,1727384041744,-2.0,0.31976318,0.35662842,-10.78125,7.953125,5.625
565,565,1727384041784,-1.7844238,0.3944702,-0.12042236,-11.96875,1.609375,0.125
566,566,1727384041824,-1.5136719,0.38983154,-0.09454346,-6.234375,-5.65625,-1.109375
567,567,1727384041864,-1.0134277,0.2489624,-0.0056762695,8.34375,3.375,-3.1875
568,568,1727384041904,-0.44433594,0.14251709,-0.037902832,14.484375,22.890625,-5.84375
569,569,1727384041944,-0.06713867,0.02923584,-0.051574707,22.546875,19.578125,-10.46875
570,570,1727384041984,0.087646484,0.046569824,-0.11383057,22.171875,11.8125,-9.015625
571,571,1727384042024,-0.3239746,0.039001465,-0.15777588,16.796875,-27.1875,3.453125
572,572,1727384042064,-1.5541992,0.26385498,-0.38555908,-2.890625,-56.828125,23.828125
573,573,1727384042104,-2.0,0.5956421,0.0053100586,17.390625,-8.4375,1.1875
574,574,1727384042144,-1.4846191,0.41741943,-0.39385986,20.96875,20.375,6.375
575,575,1727384042184,-1.3564453,0.30950928,-0.05255127,5.84375,-1.28125,3.375
576,576,1727384042224,-0.95288086,0.18865967,-0.04034424,6.640625,-1.4375,0.109375
577,577,1727384042264,-0.59814453,0.078063965,-0.08868408,-2.203125,7.578125,1.140625
578,578,1727384042304,-0.39916992,0.038757324,-0.14654541,-15.421875,6.234375,-4.734375
579,579,1727384042344,-0.34887695,0.028747559,-0.20025635,-23.015625,4.484375,-7.140625
580,580,1727384042384,-0.4658203,-0.00982666,-0.14312744,-22.09375,-8.390625,-2.796875
581,581,1727384042424,-0.9929199,0.2218628,0.0065307617,-35.078125,-22.796875,2.984375
582,582,1727384042464,-2.0,0.5790405,-0.06524658,-6.328125,-27.546875,5.453125
583,583,1727384042504,-1.8098145,0.28045654,-0.02545166,2.3125,9.609375,-2.140625
584,584,1727384042544,-1.3847656,0.33172607,-0.09063721,-0.234375,0.421875,2.953125
585,585,1727384042584,-1.0268555,0.26922607,-0.117004395,14.625,-1.5625,4.859375
586,586,1727384042624,-0.66552734,0.124694824,-0.0178833,20.734375,0.46875,-1.578125
587,587,1727384042664,-0.3623047,0.08392334,-0.02154541,29.859375,13.296875,0.21875
588,588,1727384042704,-0.084228516,0.06536865,-0.047180176,30.03125,10.140625,-5.125
589,589,1727384042744,-0.2902832,0.03387451,-0.28326416,12.265625,-14.953125,1.921875
590,590,1727384042784,-1.5876465,0.3847046,-0.3735962,-4.21875,-38.265625,17.234375
591,591,1727384042824,-2.0,0.35687256,0.19671631,-5.171875,13.328125,1.09375
592,592,1727384042864,-1.4985352,0.465271,-0.124816895,9.28125,3.546875,-0.28125
593,593,1727384042904,-1.2019043,0.42034912,-0.08428955,5.28125,6.21875,-2.65625
594,594,1727384042944,-0.81225586,0.2033081,-0.15924072,7.921875,-4.3125,-1.125
595,595,1727384042984,-0.6086426,0.089538574,-0.12335205,1.828125,9.765625,-1.640625
596,596,1727384043024,-0.43701172,0.03338623,-0.19244385,-6.0625,12.21875,-6.453125
597,597,1727384043064,-0.29345703,-0.024719238,-0.07745361,-11.65625,11.25,-6.03125
598,598,1727384043104,-0.45385742,0.054870605,-0.08306885,-21.0625,-0.484375,-0.140625
599,599,1727384043144,-1.3874512,0.40374756,-0.06695557,-30.359375,-30.65625,3.359375
600,600,1727384043184,-2.0,0.42108154,-0.12652588,-4.0,0.921875,-2.71875
601,601,1727384043224,-1.7456055,0.4484253,0.061706543,14.203125,5.171875,1.84375
602,602,1727384043264,-1.2651367,0.37420654,-0.116760254,17.65625,4.1875,3.265625
603,603,1727384043304,-0.83984375,0.26312256,-0.05987549,22.796875,6.59375,2.875
604,604,1727384043344,-0.50268555,0.09539795,0.05267334,22.234375,5.953125,1.9375
605,605,1727384043384,-0.3684082,0.042419434,0.005065918,22.328125,4.765625,3.0625
606,606,1727384043424,-0.40673828,0.05682373,-0.09942627,24.6875,-2.171875,4.453125
607,607,1727384043464,-0.6520996,0.09320068,-0.33673096,9.78125,-7.84375,15.71875
608,608,1727384043504,-1.7902832,0.58758545,-0.28546143,16.171875,-27.640625,3.4375
609,609,1727384043544,-1.7104492,0.40008545,-0.19415283,8.5,17.296875,6.40625
610,610,1727384043584,-1.3896484,0.39666748,0.023132324,8.1875,6.09375,-0.34375
611,611,1727384043624,-0.9963379,0.24578857,-0.13189697,-0.625,2.265625,-0.8125
612,612,1727384043664,-0.80200195,0.15496826,-0.16436768,-2.296875,2.46875,-2.359375
613,613,1727384043704,-0.6496582,0.08514404,-0.15875244,-8.875,4.421875,-2.53125
614,614,1727384043744,-0.53881836,0.04095459,-0.06744385,-15.953125,12.15625,-4.078125
615,615,1727384043784,-0.32666016,-0.06915283,-0.128479,-23.390625,13.125,-3.78125
616,616,1727384043824,-0.54541016,0.08758545,-0.06036377,-48.328125,-26.078125,0.375
617,617,1727384043864,-2.0,0.6642456,-0.22027588,-24.09375,-38.71875,-2.8125
618,618,1727384043904,-1.9345703,0.30926514,0.036315918,-1.8125,15.828125,2.84375
619,619,1727384043944,-1.5246582,0.34320068,-0.049865723,-4.625,8.234375,1.1875
620,620,1727384043984,-1.2531738,0.3192749,-0.086242676,6.875,8.140625,5.9375
621,621,1727384044024,-0.8618164,0.20111084,0.027038574,14.765625,5.578125,1.203125
622,622,1727384044064,-0.5419922,0.12835693,-0.055236816,20.09375,11.890625,1.765625
623,623,1727384044104,-0.27148438,0.01776123,-0.05279541,22.5625,7.328125,0.484375
624,624,1727384044144,-0.13208008,-0.022766113,-0.10797119,17.140625,3.703125,1.203125
625,625,1727384044184,-0.40161133,0.024108887,-0.18243408,2.34375,-14.765625,8.046875
626,626,1727384044224,-1.7805176,0.6713257,-0.3406372,-4.546875,-40.609375,9.0
627,627,1727384044264,-2.0,0.2897339,-0.03668213,4.828125,36.234375,1.4375
628,628,1727384044304,-1.6479492,0.5270386,0.08319092,2.75,2.515625,0.375
629,629,1727384044344,-1.1987305,0.31658936,-0.055236816,-6.21875,10.21875,-3.75
630,630,1727384044384,-0.8178711,0.13421631,-0.070373535,-4.421875,1.671875,-1.03125
631,631,1727384044424,-0.61743164,0.093933105,0.0038452148,-10.734375,9.1875,-4.890625
632,632,1727384044464,-0.49365234,0.070007324,-0.07476807,-24.546875,10.78125,-9.578125
633,633,1727384044504,-0.42626953,0.066833496,-0.13555908,-27.21875,11.015625,-6.234375
634,634,1727384044544,-0.4020996,-0.014953613,-0.18365479,-36.78125,-3.203125,-2.15625
635,635,1727384044584,-0.8220215,0.16522217,-0.049621582,-64.890625,-31.0,3.171875
636,636,1727384044624,-2.0,0.6522827,0.24188232,-36.265625,-31.59375,-5.25
637,637,1727384044664,-1.8398438,0.3756714,-0.08648682,-4.296875,9.0,0.53125
638,638,1727384044704,-1.3615723,0.34710693,-0.11968994,-13.125,5.953125,2.53125
639,639,1727384044744,-0.87890625,0.21600342,-0.070129395,3.125,8.484375,1.546875
640,640,1727384044784,-0.4609375,0.026794434,0.0368042,11.46875,7.640625,-2.453125
641,641,1727384044824,-0.38671875,0.05706787,-0.015930176,16.28125,0.203125,-0.328125
642,642,1727384044864,-0.27929688,0.0016479492,-0.013000488,20.859375,0.75,1.171875
643,643,1727384044904,-0.17675781,0.074157715,-0.20733643,15.515625,-0.21875,2.765625
644,644,1727384044944,-1.0319824,0.31536865,-0.44976807,-5.265625,-42.328125,14.15625
645,645,1727384044984,-2.0,0.6117554,-0.04156494,3.421875,-18.25,-1.265625
646,646,1727384045024,-1.6367188,0.3168335,-0.1260376,14.859375,-2.96875,6.8125
647,647,1727384045064,-1.5354004,0.40985107,-0.050598145,-3.953125,3.90625,-2.96875
648,648,1727384045104,-1.0368652,0.2645874,-0.13214111,3.203125,2.78125,-0.671875
649,649,1727384045144,-0.701416,0.20941162,-0.051086426,4.96875,17.625,-2.25
650,650,1727384045184,-0.42797852,0.10345459,-0.07745361,-9.640625,15.609375,-12.375
651,651,1727384045224,-0.20239258,0.0036010742,-0.101867676,-15.53125,18.15625,-12.90625
652,652,1727384045264,-0.2319336,-0.06866455,-0.13067627,-25.765625,8.75,-9.75
653,653,1727384045304,-1.0544434,0.17132568,-0.08892822,-55.4375,-45.953125,-3.609375
654,654,1727384045344,-2.0,0.24725342,0.4237671,-45.234375,-16.59375,-4.453125
655,655,1727384045384,-1.5874023,0.36151123,-0.19903564,-2.1875,20.703125,2.03125
656,656,1727384045424,-1.21875,0.338562,-0.15484619,-17.359375,7.75,-2.234375
657,657,1727384045464,-1.0146484,0.24090576,-0.04498291,-6.390625,3.546875,-0.828125
658,658,1727384045504,-0.6916504,0.12664795,0.0072631836,4.921875,15.5625,-4.109375
659,659,1727384045544,-0.37963867,0.06488037,-0.012268066,6.015625,10.5625,-1.890625
660,660,1727384045584,-0.3083496,0.07269287,0.07196045,11.015625,7.921875,-3.953125
661,661,1727384045624,-0.24902344,0.16229248,-0.09185791,17.484375,1.28125,-5.78125
662,662,1727384045664,-1.2231445,0.47161865,-0.4968872,8.96875,-38.796875,5.65625
663,663,1727384045704,-1.9006348,0.5001831,0.06903076,12.40625,18.8125,13.578125
664,664,1727384045744,-1.5053711,0.52752686,-0.057678223,16.78125,-3.59375,0.0625
665,665,1727384045784,-1.4038086,0.49139404,0.012145996,20.03125,6.8125,-1.140625
666,666,1727384045824,-0.9628906,0.23260498,-0.124816895,15.40625,-1.328125,-0.984375
667,667,1727384045864,-0.80200195,0.1564331,-0.10601807,8.796875,0.609375,-0.75
668,668,1727384045904,-0.59228516,0.11126709,-0.015686035,-5.96875,2.015625,-4.25
669,669,1727384045944,-0.4543457,0.066833496,-0.03717041,-12.625,9.640625,-5.78125
670,670,1727384045984,-0.41845703,0.042907715,-0.10040283,-20.828125,11.984375,-5.890625
671,671,1727384046024,-0.62158203,0.008239746,-0.25152588,-40.859375,-9.3125,-6.75
672,672,1727384046064,-2.0,0.48260498,-0.13311768,-37.5625,-64.4375,-8.078125
673,673,1727384046104,-1.7419434,0.3012085,-0.13092041,-15.46875,28.71875,4.125
674,674,1727384046144,-1.4560547,0.512146,-0.19000244,-19.3125,12.5625,1.421875
675,675,1727384046184,-1.1901855,0.33953857,-0.057922363,-14.640625,9.953125,4.46875
676,676,1727384046224,-0.8935547,0.24188232,0.06439209,-5.375,8.375,0.09375
677,677,1727384046264,-0.5620117,0.19012451,0.07537842,0.25,11.0625,3.0625
678,678,1727384046304,-0.3623047,0.11273193,0.03314209,7.234375,12.0625,-0.515625
679,679,1727384046344,-0.33544922,0.13079834,0.01751709,13.421875,-0.21875,3.890625
680,680,1727384046384,-0.734375,0.33099365,-0.38946533,3.953125,-18.359375,10.03125
681,681,1727384046424,-1.5446777,0.25775146,-0.1638794,12.265625,-13.125,8.90625
682,682,1727384046464,-1.4519043,0.545105,-0.15899658,31.046875,-2.125,13.03125
683,683,1727384046504,-1.6247559,0.47772217,-0.08087158,15.640625,-0.625,0.15625
684,684,1727384046544,-1.2041016,0.30145264,-0.051574707,13.5625,2.328125,4.09375
685,685,1727384046584,-0.85717773,0.18695068,-0.17730713,15.171875,-6.09375,3.96875
686,686,1727384046624,-0.75146484,0.08929443,-0.11407471,0.34375,-7.9375,2.34375
687,687,1727384046664,-0.6513672,0.04925537,-0.08013916,-5.53125,5.28125,0.046875
688,688,1727384046704,-0.5083008,0.038269043,-0.128479,-12.109375,15.703125,-7.859375
689,689,1727384046744,-0.3161621,0.011657715,-0.09063721,-19.796875,21.546875,-11.4375
690,690,1727384046784,-0.49023438,0.010925293,-0.18609619,-39.140625,0.484375,-7.921875
691,691,1727384046824,-2.0,0.73895264,-0.08135986,-25.078125,-47.03125,-10.578125
692,692,1727384046864,-1.9343262,0.22528076,0.03338623,-15.890625,20.4375,0.109375
693,693,1727384046904,-1.5141602,0.4796753,-0.117004395,-17.0625,10.203125,2.796875
694,694,1727384046944,-1.1745605,0.36566162,-0.00982666,-5.015625,6.203125,3.640625
695,695,1727384046984,-0.82299805,0.15228271,0.0040893555,-3.75,0.28125,0.890625
696,696,1727384047024,-0.607666,0.11859131,0.03729248,2.09375,1.359375,3.34375
697,697,1727384047064,-0.4855957,0.08074951,0.026062012,8.921875,3.296875,1.890625
698,698,1727384047104,-0.38476562,0.06951904,-0.004211426,13.53125,0.640625,3.4375
699,699,1727384047144,-0.39404297,0.16693115,0.046813965,19.75,-3.5625,3.1875
700,700,1727384047184,-1.0930176,0.4467163,-0.5696411,12.75,-29.546875,16.328125
701,701,1727384047224,-1.8239746,0.11810303,-0.0413208,1.703125,-7.078125,14.46875
702,702,1727384047264,-1.510498,0.5470581,-0.058898926,29.578125,0.34375,1.5
703,703,1727384047304,-1.473877,0.45281982,-0.09161377,23.421875,10.34375,-4.15625
704,704,1727384047344,-1.0480957,0.2897339,-0.097961426,27.28125,-7.265625,-0.703125
705,705,1727384047384,-0.87402344,0.18817139,-0.1609497,23.21875,1.578125,-2.171875
706,706,1727384047424,-0.6789551,0.15203857,-0.05255127,14.484375,4.984375,-4.515625
707,707,1727384047464,-0.5324707,0.14129639,-0.11016846,10.5625,7.390625,-8.25
708,708,1727384047504,-0.43554688,0.024597168,-0.11090088,6.515625,13.71875,-9.5
709,709,1727384047544,-0.31762695,-0.02154541,-0.1729126,-8.078125,7.640625,-11.765625
710,710,1727384047584,-1.237793,0.16619873,-0.08868408,-46.0625,-60.3125,-0.25
711,711,1727384047624,-2.0,0.24798584,-0.0134887695,-22.03125,14.875,2.484375
712,712,1727384047664,-1.4580078,0.27435303,-0.09991455,-3.0625,13.9375,-0.15625
713,713,1727384047704,-1.2944336,0.30340576,-0.09429932,-17.546875,3.796875,5.09375
714,714,1727384047744,-1.0002441,0.2518921,-0.07476807,-6.1875,7.671875,0.765625
715,715,1727384047784,-0.66674805,0.13739014,0.030456543,-1.09375,15.75,1.140625
716,716,1727384047824,-0.45458984,0.097351074,0.0016479492,3.3125,14.0625,-2.359375
717,717,1727384047864,-0.34228516,0.07318115,0.022888184,8.4375,9.765625,-2.828125
718,718,1727384047904,-0.38720703,0.117614746,-0.2600708,3.3125,-1.15625,4.5625
719,719,1727384047944,-1.578125,0.39935303,-0.33258057,2.125,-29.625,13.328125
720,720,1727384047984,-1.6508789,0.46136475,0.011657715,3.5625,9.796875,14.359375
721,721,1727384048024,-1.5283203,0.45111084,0.012878418,4.25,0.53125,-0.625
722,722,1727384048064,-1.2956543,0.38275146,0.04852295,3.40625,12.3125,-0.296875
723,723,1727384048104,-0.98461914,0.21673584,-0.17144775,-0.578125,-1.578125,-1.84375
724,724,1727384048144,-0.87402344,0.11029053,-0.12774658,-3.578125,-4.78125,-0.265625
725,725,1727384048184,-0.70703125,0.06488037,-0.008361816,-18.875,4.25,-3.078125
726,726,1727384048224,-0.5788574,0.0446167,-0.10357666,-24.359375,10.765625,-4.203125
727,727,1727384048264,-0.453125,-0.022766113,-0.13189697,-33.265625,19.546875,-5.890625
728,728,1727384048304,-0.40844727,0.0524292,-0.175354,-48.265625,14.484375,-4.46875
729,729,1727384048344,-1.010498,0.2477417,-0.07965088,-64.03125,-43.734375,4.8125
730,730,1727384048384,-2.0,0.5343628,0.3287964,-26.953125,-2.171875,4.75
731,731,1727384048424,-1.5175781,0.23382568,-0.051818848,1.515625,21.25,1.4375
732,732,1727384048464,-1.1408691,0.26654053,-0.086242676,-12.5625,3.09375,1.734375
733,733,1727384048504,-0.88183594,0.26898193,0.049743652,-1.28125,2.015625,-1.796875
734,734,1727384048544,-0.67749023,0.16815186,0.06756592,16.328125,12.59375,-1.828125
735,735,1727384048584,-0.4453125,0.14178467,-0.05645752,23.03125,12.640625,-3.4375
736,736,1727384048624,-0.30078125,0.04559326,-0.05670166,26.5,5.375,-2.125
737,737,1727384048664,-0.40429688,0.13006592,-0.2210083,18.5625,-13.609375,7.78125
738,738,1727384048704,-1.3166504,0.25775146,-0.33502197,-3.3125,-40.765625,15.453125
739,739,1727384048744,-2.0,0.18572998,0.20648193,-0.0625,25.671875,11.484375
740,740,1727384048784,-1.4621582,0.37322998,0.047302246,3.734375,-5.5,3.09375
741,741,1727384048824,-1.2243652,0.3546753,-0.047424316,2.734375,10.375,-4.078125
742,742,1727384048864,-0.967041,0.15106201,-0.1531372,-0.34375,-12.171875,1.578125
743,743,1727384048904,-0.8625488,0.124938965,-0.11138916,-8.171875,0.3125,0.578125
744,744,1727384048944,-0.6784668,0.12664795,-0.057434082,-19.171875,3.8125,-6.53125
745,745,1727384048984,-0.54174805,0.070007324,-0.11016846,-15.390625,11.0625,-5.84375
746,746,1727384049024,-0.3515625,-0.02154541,-0.11260986,-18.9375,10.28125,-8.515625
747,747,1727384049064,-0.54248047,0.089538574,-0.003967285,-38.34375,-20.890625,-9.578125
748,748,1727384049104,-1.6755371,0.5685425,-0.09698486,-25.1875,-32.328125,0.015625
749,749,1727384049144,-1.9299316,0.23919678,0.10394287,5.296875,-0.203125,-1.203125
750,750,1727384049184,-1.4577637,0.2904663,-0.05303955,0.0625,1.0625,1.21875
751,751,1727384049224,-1.2038574,0.322937,-0.07940674,5.15625,2.53125,4.328125
752,752,1727384049264,-1.0808105,0.24749756,0.03704834,13.875,-0.75,1.953125
753,753,1727384049304,-0.8088379,0.15863037,0.01361084,23.6875,7.703125,1.6875
754,754,1727384049344,-0.5800781,0.08929443,-0.030334473,29.765625,3.09375,4.921875
755,755,1727384049384,-0.43579102,0.07293701,-0.0635376,32.734375,-2.5,8.1875
756,756,1727384049424,-0.45532227,0.06097412,-0.28082275,28.59375,-11.6875,15.296875
757,757,1727384049464,-1.248291,0.29974365,-0.45220947,18.953125,-34.78125,22.96875
758,758,1727384049504,-1.5539551,0.23040771,-0.13580322,14.390625,2.25,20.203125
759,759,1727384049544,-1.3637695,0.30828857,-0.16900635,13.8125,-11.78125,2.234375
