,Unnamed: 0,timestamp,accel_x,accel_y,accel_z,gyro_x,gyro_y,gyro_z
0,0,1727219618927,0.3215332,0.0993042,-0.29473877,15.65625,1.875,3.015625
1,1,1727219618967,0.13378906,-0.058410645,0.3529663,-1.0625,-39.140625,13.40625
2,2,1727219619007,-0.37036133,-0.2546997,-0.8460083,12.109375,-39.1875,-1.5
3,3,1727219619047,1.1376953,-2.0,0.0289917,50.390625,-65.234375,-32.546875
4,4,1727219619087,-0.3034668,-2.0,0.024597168,1.484375,-74.28125,84.1875
5,5,1727219619127,-0.7607422,-1.4854126,-0.2288208,-9.078125,-103.078125,-74.46875
6,6,1727219619167,-0.114990234,-1.5842896,0.046813965,-73.046875,-18.359375,-67.109375
7,7,1727219619207,-0.27368164,0.94989014,-0.053527832,-32.375,-15.5625,-27.609375
8,8,1727219619247,0.25048828,-0.019348145,-0.08477783,-36.71875,-10.78125,-1.53125
9,9,1727219619287,0.05908203,-0.34918213,-0.2805786,8.53125,-16.296875,-8.40625
10,10,1727219619327,-0.2763672,-0.25665283,-0.081604004,25.640625,-7.8125,-0.09375
11,11,1727219619367,-0.6098633,-2.0,0.7748413,90.875,40.203125,-5.15625
12,12,1727219619407,-1.3017578,-2.0,0.020935059,8.9375,40.046875,1.015625
13,13,1727219619447,-0.08911133,-2.0,0.5426636,51.390625,105.59375,36.453125
14,14,1727219619487,-0.4255371,-0.94976807,0.13104248,35.4375,113.328125,38.59375
15,15,1727219619527,0.33984375,0.26361084,-0.3508911,-24.21875,46.3125,36.953125
16,16,1727219619567,0.28564453,0.1954956,-0.68878174,-18.734375,-8.296875,18.78125
17,17,1727219619607,0.23510742,0.07366943,0.24603271,22.390625,-37.0,4.234375
18,18,1727219619647,-0.010498047,-0.348938,-0.81451416,19.140625,-31.40625,18.953125
19,19,1727219619687,0.74194336,-2.0,-0.07159424,18.453125,-89.84375,-28.859375
20,20,1727219619727,-0.50634766,-2.0,0.07659912,-16.1875,-52.484375,77.109375
21,21,1727219619767,-0.6081543,-1.4092407,0.07196045,-4.0,-130.21875,-65.609375
22,22,1727219619807,-0.37451172,-1.1472778,-0.049621582,-74.71875,-33.453125,-70.234375
23,23,1727219619847,-0.13134766,0.9796753,-0.17486572,-1.984375,-9.796875,-22.328125
24,24,1727219619887,0.3071289,-0.1182251,-0.15631104,-17.78125,-15.015625,10.390625
25,25,1727219619927,0.12207031,-0.15704346,-0.07525635,23.34375,-7.25,2.265625
26,26,1727219619967,-0.6335449,-0.5462036,-0.27838135,44.515625,34.9375,-0.421875
27,27,1727219620007,-1.0002441,-2.0,0.31048584,63.671875,126.21875,-38.984375
28,28,1727219620047,-0.6508789,-1.992981,0.06536865,15.546875,88.859375,-9.0625
29,29,1727219620087,0.29858398,-1.8215942,-0.113098145,21.234375,143.82812,28.484375
30,30,1727219620127,-0.3112793,-0.19976807,0.16986084,-20.671875,63.53125,32.609375
31,31,1727219620167,0.4189453,0.55267334,-0.55303955,-16.09375,11.453125,17.9375
32,32,1727219620207,0.2915039,0.15325928,-0.3670044,9.46875,-30.078125,8.71875
33,33,1727219620247,0.1743164,-0.03302002,0.10394287,22.328125,-42.015625,22.96875
34,34,1727219620287,0.17260742,-1.5623169,-0.8010864,14.65625,-5.875,10.609375
35,35,1727219620327,1.0427246,-2.0,1.180603,7.328125,-173.85938,25.265625
36,36,1727219620367,-0.33569336,-1.6204224,-0.86431885,-22.390625,-139.42188,-30.1875
37,37,1727219620407,-0.39086914,-1.7068481,0.036315918,-25.40625,-36.109375,-81.640625
38,38,1727219620447,-0.39746094,0.25946045,-0.033996582,-37.921875,14.25,-67.390625
39,39,1727219620487,0.41967773,0.44232178,0.10394287,-61.53125,-0.625,-8.015625
40,40,1727219620527,0.07788086,-0.1885376,-0.4854126,14.015625,-5.84375,9.453125
41,41,1727219620567,0.05029297,0.06414795,0.2982788,37.78125,-20.9375,0.21875
42,42,1727219620607,-1.2404785,-1.7962036,-0.42510986,25.84375,35.359375,12.03125
43,43,1727219620647,-1.6203613,-2.0,0.54730225,11.171875,27.59375,-32.21875
44,44,1727219620687,0.31958008,-2.0,0.47821045,39.734375,112.34375,35.1875
45,45,1727219620727,-0.0793457,-1.1355591,-0.046447754,23.6875,74.953125,57.078125
46,46,1727219620767,0.05908203,0.3361206,-0.04425049,8.515625,60.3125,34.390625
47,47,1727219620807,0.15332031,0.13104248,-0.70147705,-10.5625,9.1875,6.046875
48,48,1727219620847,0.45996094,0.0048217773,0.042419434,13.25,-21.671875,0.25
49,49,1727219620887,-0.08569336,-0.3562622,-0.5906372,30.15625,-44.828125,19.3125
50,50,1727219620927,0.4946289,-2.0,-0.30670166,-0.171875,-24.9375,-56.1875
51,51,1727219620967,-0.20458984,-2.0,0.1317749,-12.59375,-109.171875,95.984375
52,52,1727219621007,-0.78808594,-1.1372681,-0.2288208,43.921875,-130.35938,-87.875
53,53,1727219621047,-0.36572266,-1.4519653,0.113708496,-69.453125,-30.4375,-77.90625
54,54,1727219621087,-0.1730957,1.24823,-0.54156494,-23.125,3.53125,-12.65625
55,55,1727219621127,-0.06323242,-0.078430176,0.25457764,-12.015625,-14.140625,2.890625
56,56,1727219621167,0.22998047,-0.034240723,-0.19317627,-7.296875,-18.65625,6.296875
57,57,1727219621207,-0.48876953,0.09100342,0.22576904,59.5625,-21.625,7.125
58,58,1727219621247,-1.3735352,-2.0,-0.18878174,51.28125,34.828125,-24.0
59,59,1727219621287,-1.2097168,-2.0,0.48602295,6.953125,67.84375,28.09375
60,60,1727219621327,0.041503906,-1.7305298,-0.12335205,15.140625,149.15625,39.546875
61,61,1727219621367,0.1940918,-0.7424927,0.17230225,9.421875,100.421875,49.265625
62,62,1727219621407,-0.052246094,0.5140991,-0.36480713,-32.3125,33.9375,22.34375
63,63,1727219621447,0.35058594,0.22088623,-0.4463501,-30.703125,-20.34375,-3.96875
64,64,1727219621487,0.07885742,0.061950684,0.2177124,14.671875,-26.390625,2.796875
65,65,1727219621527,-0.07299805,-0.4060669,-1.0337524,27.15625,-26.5,1.625
66,66,1727219621567,1.2084961,-2.0,0.45916748,-6.796875,-70.140625,-51.296875
67,67,1727219621607,-0.6738281,-1.9343872,-0.64923096,-37.703125,-8.953125,62.46875
68,68,1727219621647,-0.52246094,-1.4216919,0.18499756,20.609375,-151.89062,-80.3125
69,69,1727219621687,-0.26513672,-1.0366821,0.105407715,-62.328125,-8.484375,-82.515625
70,70,1727219621727,-0.106933594,1.3544312,-0.35162354,-41.203125,-16.25,-5.578125
71,71,1727219621767,0.24365234,-0.24371338,-0.0491333,2.578125,-6.078125,10.765625
72,72,1727219621807,0.20288086,0.06414795,0.20452881,18.140625,-23.25,5.359375
73,73,1727219621847,-0.8745117,-0.3303833,-0.12432861,30.984375,48.375,-5.484375
74,74,1727219621887,-1.1125488,-2.0,0.086120605,89.96875,-29.5625,-47.78125
75,75,1727219621927,-1.3510742,-2.0,0.30340576,24.453125,102.390625,5.65625
76,76,1727219621967,0.5041504,-1.9102173,-0.0335083,60.234375,126.953125,22.8125
77,77,1727219622007,0.3828125,-0.40167236,0.07489014,-12.90625,71.375,38.34375
78,78,1727219622047,0.1616211,0.5819702,-0.3237915,-44.015625,-8.828125,7.328125
79,79,1727219622087,0.33032227,0.16693115,-0.3711548,-19.890625,-23.609375,-16.984375
80,80,1727219622127,-0.064941406,0.010437012,0.094177246,6.640625,-39.96875,-5.265625
81,81,1727219622167,-0.036132812,-0.07696533,-0.6555786,39.125,-27.71875,14.515625
82,82,1727219622207,0.75512695,-2.0,0.17767334,16.734375,-42.65625,-13.328125
83,83,1727219622247,-0.43945312,-2.0,0.058776855,-26.359375,-26.046875,76.609375
84,84,1727219622287,-0.73583984,-1.4641724,0.3847046,12.140625,-174.85938,-55.71875
85,85,1727219622327,-0.28857422,-1.4343872,-0.011047363,-33.390625,-29.859375,-89.59375
86,86,1727219622367,-0.10229492,0.75408936,-0.07574463,-4.46875,-2.296875,-20.640625
87,87,1727219622407,0.32470703,-0.013977051,-0.10406494,-21.140625,-22.796875,21.796875
88,88,1727219622447,0.11425781,-0.14776611,-0.035705566,29.265625,-11.546875,16.15625
89,89,1727219622487,-0.46313477,-0.29693604,-0.17047119,37.84375,6.875,9.703125
90,90,1727219622527,-1.8190918,-2.0,0.0028686523,41.1875,99.640625,-29.71875
91,91,1727219622567,-1.2138672,-2.0,0.22747803,23.109375,69.78125,2.125
92,92,1727219622607,0.12792969,-1.8423462,-0.06939697,8.125,130.75,38.703125
93,93,1727219622647,-0.09741211,-0.43170166,0.08734131,-13.25,90.296875,35.46875
94,94,1727219622687,0.59521484,0.3444214,-0.26226807,-34.359375,17.75,25.859375
95,95,1727219622727,0.27441406,0.23529053,-0.4356079,-28.265625,-7.8125,5.640625
96,96,1727219622767,-0.19262695,-0.04034424,0.3060913,0.359375,-16.3125,-9.484375
97,97,1727219622807,0.14624023,-0.40753174,-1.1677856,42.3125,8.71875,20.234375
98,98,1727219622847,0.6479492,-2.0,0.10101318,-6.125,-5.84375,-17.09375
99,99,1727219622887,-0.6621094,-2.0,0.113464355,3.921875,-30.109375,39.78125
100,100,1727219622927,-0.4897461,-1.5366821,0.34588623,13.140625,-126.90625,-64.59375
101,101,1727219622967,-0.1965332,-1.5501099,0.044128418,-71.375,-46.125,-79.625
102,102,1727219623007,-0.24121094,1.8109741,-0.32403564,24.3125,3.203125,-18.34375
103,103,1727219623047,0.11352539,-0.4529419,-0.023742676,-25.53125,-1.40625,1.375
104,104,1727219623087,0.029785156,-0.09088135,0.021911621,9.375,-14.421875,14.6875
105,105,1727219623127,-0.39648438,-0.33843994,-0.39337158,18.234375,17.125,13.640625
106,106,1727219623167,-0.5373535,-2.0,0.4328003,108.296875,58.03125,-15.96875
107,107,1727219623207,-1.9343262,-2.0,0.3944702,-0.65625,25.703125,-8.828125
108,108,1727219623247,0.9379883,-2.0,-0.021057129,36.78125,121.34375,18.34375
109,109,1727219623287,-0.2409668,-0.5256958,0.24871826,9.28125,57.578125,59.484375
110,110,1727219623327,0.032470703,0.38006592,-0.4446411,-16.296875,39.65625,6.0
111,111,1727219623367,0.64990234,0.1618042,-0.36505127,-14.953125,7.015625,-2.140625
112,112,1727219623407,-0.076171875,0.07269287,0.30096436,21.921875,-31.078125,4.171875
113,113,1727219623447,0.08886719,-0.53619385,-1.1333618,26.359375,7.5,-7.796875
114,114,1727219623487,0.84375,-2.0,0.11663818,25.265625,-32.5,-21.4375
115,115,1727219623527,-0.75,-2.0,-0.070129395,-20.46875,-31.09375,18.703125
116,116,1727219623567,-0.6791992,-1.2183228,-0.13897705,27.03125,-140.48438,-53.296875
117,117,1727219623607,-0.24291992,-1.211731,0.11981201,-60.78125,-16.65625,-90.890625
118,118,1727219623647,0.2253418,1.6691284,-0.11065674,-46.625,-31.703125,10.8125
119,119,1727219623687,0.099121094,-0.37579346,-0.2263794,15.890625,9.265625,7.328125
120,120,1727219623727,0.21069336,0.11956787,0.1552124,22.34375,-15.5,13.375
121,121,1727219623767,-0.4584961,-0.55255127,-0.5029907,22.96875,35.328125,-12.34375
122,122,1727219623807,-0.8952637,-2.0,0.7382202,134.84375,-1.015625,-15.28125
123,123,1727219623847,-0.9772949,-1.881897,0.5194702,31.4375,39.71875,23.46875
124,124,1727219623887,0.5053711,-1.8533325,0.11859131,57.4375,129.34375,29.828125
125,125,1727219623927,-0.41601562,-0.13336182,0.10736084,-8.609375,63.625,22.890625
126,126,1727219623967,0.4963379,0.40570068,-0.64068604,-30.859375,15.359375,6.421875
127,127,1727219624007,0.36938477,0.1918335,-0.16607666,3.25,-13.453125,0.484375
128,128,1727219624047,-0.12036133,-0.03717041,0.0004272461,7.171875,-29.875,-5.984375
129,129,1727219624087,0.41430664,-1.031311,-1.0791626,16.0625,-19.921875,-13.4375
130,130,1727219624127,0.47753906,-2.0,1.2123413,-89.015625,-130.9375,5.875
131,131,1727219624167,-0.3408203,-1.6118774,-1.0574341,-23.28125,-93.265625,-37.578125
132,132,1727219624207,-0.6516113,-1.906311,0.71673584,-17.453125,12.296875,-52.734375
133,133,1727219624247,-0.23535156,-0.21539307,-0.3731079,-90.84375,2.296875,-42.921875
134,134,1727219624287,0.5192871,0.92474365,-0.12872314,-52.15625,-13.6875,12.171875
135,135,1727219624327,0.034179688,-0.46636963,-0.16314697,4.8125,-11.65625,-2.625
136,136,1727219624367,-0.35888672,0.12322998,0.027526855,4.421875,-3.34375,-7.3125
137,137,1727219624407,0.5786133,-2.0,-0.58551025,-17.890625,-105.046875,31.25
138,138,1727219624447,-1.6601562,-2.0,0.19451904,9.015625,62.140625,9.046875
139,139,1727219624487,0.22509766,-2.0,0.14959717,81.015625,101.921875,24.96875
140,140,1727219624527,-0.060546875,-1.102356,0.15325928,-7.875,121.625,56.265625
141,141,1727219624567,0.0075683594,0.215271,-0.6712036,11.140625,54.890625,8.203125
142,142,1727219624607,0.6801758,0.12835693,-0.5991821,-8.375,16.296875,23.515625
143,143,1727219624647,-0.028564453,0.03729248,0.21942139,18.421875,-26.8125,5.3125
144,144,1727219624687,-0.0036621094,-0.5396118,-1.1738892,20.171875,-8.046875,-6.140625
145,145,1727219624727,1.5473633,-2.0,0.35662842,-17.5625,-78.78125,-37.125
146,146,1727219624767,-0.95874023,-1.927063,-0.14556885,7.78125,-21.609375,26.828125
147,147,1727219624807,-0.63256836,-1.208313,0.1539917,2.71875,-67.984375,-41.546875
148,148,1727219624847,-0.40014648,-1.2669067,0.1395874,-74.640625,-35.046875,-66.1875
149,149,1727219624887,0.041015625,1.803894,-0.086242676,-15.390625,-39.21875,-4.78125
150,150,1727219624927,0.0024414062,-0.5252075,-0.09893799,8.046875,-4.578125,0.03125
151,151,1727219624967,0.12475586,0.05340576,0.20672607,32.46875,-2.953125,-2.4375
152,152,1727219625007,-0.60253906,-0.48638916,-0.65093994,5.734375,36.984375,-7.015625
153,153,1727219625047,-0.5361328,-2.0,0.18817139,123.515625,16.40625,-18.140625
154,154,1727219625087,-1.2011719,-1.5654907,0.18670654,9.75,86.515625,8.890625
155,155,1727219625127,0.6057129,-1.7676392,-0.25030518,40.65625,109.765625,23.375
156,156,1727219625167,0.0029296875,-0.054260254,0.34490967,-28.625,31.453125,60.09375
157,157,1727219625207,0.016601562,0.40423584,-0.69732666,-20.609375,-2.796875,-3.453125
158,158,1727219625247,0.5703125,0.08099365,-0.057678223,-14.046875,-5.46875,-0.6875
159,159,1727219625287,-0.19555664,-0.019836426,0.010192871,-0.5625,-21.9375,-3.8125
160,160,1727219625327,0.23144531,-0.315979,-1.0332642,40.0,-16.0,-12.546875
161,161,1727219625367,0.51660156,-2.0,0.50335693,-12.96875,-133.32812,-16.390625
162,162,1727219625407,-0.43481445,-2.0,-0.16534424,-51.765625,-49.46875,44.609375
163,163,1727219625447,-1.0205078,-1.204895,0.031677246,38.421875,-71.078125,-62.953125
164,164,1727219625487,-0.1809082,-1.3706665,0.32537842,-105.984375,-24.890625,-69.4375
165,165,1727219625527,0.12573242,1.564148,-0.41583252,13.15625,-19.78125,-4.546875
166,166,1727219625567,0.22167969,-0.33721924,-0.19439697,-11.546875,15.015625,5.53125
167,167,1727219625607,-0.14697266,-0.030822754,0.30877686,33.96875,-9.796875,1.53125
168,168,1727219625647,-0.47875977,-0.6358032,-0.85601807,1.953125,59.265625,-15.65625
169,169,1727219625687,-0.9621582,-2.0,1.1659546,156.4375,-32.515625,23.59375
170,170,1727219625727,-1.3762207,-1.4067993,0.39837646,-2.71875,60.09375,13.328125
171,171,1727219625767,0.41870117,-1.923645,-0.081604004,54.5625,122.71875,13.8125
172,172,1727219625807,0.0390625,-0.2774048,0.1329956,2.640625,53.1875,43.84375
173,173,1727219625847,0.3215332,0.65960693,-0.7608032,-29.015625,4.578125,9.75
174,174,1727219625887,0.3269043,0.055114746,-0.07720947,-2.078125,-10.375,1.5625
175,175,1727219625927,-0.11010742,-0.09527588,0.078063965,3.59375,-12.96875,-4.1875
176,176,1727219625967,0.2331543,-0.4915161,-1.2122192,44.328125,-16.21875,-15.171875
177,177,1727219626007,0.25146484,-2.0,1.3578491,-8.984375,-196.54688,12.5625
178,178,1727219626047,-0.93969727,-1.8059692,-0.5791626,-88.140625,-72.078125,20.515625
179,179,1727219626087,-1.0512695,-1.3074341,0.038269043,23.46875,-39.15625,-74.703125
180,180,1727219626127,0.005126953,-1.0462036,0.3012085,-85.4375,-18.671875,-60.0625
181,181,1727219626167,0.4128418,1.4718628,-0.20855713,3.09375,-32.453125,15.625
182,182,1727219626207,0.2800293,-0.47540283,-0.17047119,5.265625,10.90625,11.40625
183,183,1727219626247,-0.55981445,0.1774292,0.20477295,25.671875,-23.25,-6.53125
184,184,1727219626287,0.43408203,-1.9968872,-1.0994263,-77.625,-24.703125,-19.671875
185,185,1727219626327,-1.6999512,-2.0,0.16448975,45.90625,29.171875,8.84375
186,186,1727219626367,0.39746094,-1.7388306,0.27825928,37.5,140.95312,29.234375
187,187,1727219626407,0.34545898,-1.7888794,0.31414795,45.125,107.90625,65.578125
188,188,1727219626447,-0.6816406,0.26556396,-0.28863525,-20.03125,31.359375,22.3125
189,189,1727219626487,0.576416,0.23675537,-0.77471924,-36.828125,24.65625,-10.609375
190,190,1727219626527,0.54541016,0.03778076,0.036071777,16.234375,-13.1875,3.0
191,191,1727219626567,-0.2902832,-0.02178955,-0.33673096,19.8125,-37.40625,6.9375
192,192,1727219626607,0.9238281,-2.0,-0.37774658,45.234375,5.1875,-60.25
193,193,1727219626647,-0.28979492,-2.0,0.5795288,24.625,-16.96875,82.21875
194,194,1727219626687,-0.33203125,-0.9246216,-0.30718994,-9.953125,-175.01562,-92.078125
195,195,1727219626727,-0.33984375,-1.9956665,0.63983154,-73.359375,-54.515625,-49.078125
196,196,1727219626767,-0.5253906,0.71209717,-0.4985962,-28.296875,4.390625,-27.765625
197,197,1727219626807,0.5397949,0.262146,-0.00079345703,-69.375,-10.875,10.53125
198,198,1727219626847,-0.0029296875,-0.26812744,-0.14263916,22.109375,-25.15625,3.84375
199,199,1727219626887,-0.5852051,0.03265381,0.28826904,9.25,-1.140625,-11.5625
200,200,1727219626927,0.6687012,-2.0,-0.96221924,-41.90625,-20.96875,-4.71875
201,201,1727219626967,-1.0253906,-2.0,0.4779663,13.53125,134.07812,56.078125
202,202,1727219627007,0.10058594,-1.8347778,-0.31451416,64.21875,120.515625,21.46875
203,203,1727219627047,0.6953125,-1.6853638,0.47479248,17.78125,74.65625,69.15625
204,204,1727219627087,-0.94750977,0.039001465,-0.3760376,-32.53125,27.75,11.984375
205,205,1727219627127,0.6311035,0.3937378,-0.67755127,-37.75,2.515625,-0.453125
206,206,1727219627167,0.39697266,-0.015930176,0.1227417,4.8125,-24.453125,-7.125
207,207,1727219627207,-0.20410156,-0.0005493164,-0.04498291,2.78125,-46.59375,0.890625
208,208,1727219627247,0.5097656,-0.56500244,-1.0310669,26.296875,-30.0625,-14.5
209,209,1727219627287,-0.07836914,-2.0,0.35638428,-14.609375,-95.90625,8.078125
210,210,1727219627327,-0.576416,-1.984436,-0.16680908,-20.84375,-50.765625,3.265625
211,211,1727219627367,-0.9321289,-1.1738892,0.20501709,25.140625,-53.78125,-53.125
212,212,1727219627407,0.17260742,-1.187561,0.042175293,-87.609375,-7.484375,-72.703125
213,213,1727219627447,0.17333984,1.5526733,-0.3435669,6.96875,-8.75,13.484375
214,214,1727219627487,0.061523438,-0.43658447,-0.24078369,-7.5625,8.90625,-9.15625
215,215,1727219627527,-0.19506836,0.066345215,0.3324585,6.875,-18.265625,-3.703125
216,216,1727219627567,0.15478516,-1.194397,-1.2854614,-32.3125,-22.359375,10.03125
217,217,1727219627607,-1.1416016,-2.0,1.345398,148.85938,135.40625,55.109375
218,218,1727219627647,-0.68725586,-1.5615845,0.4694214,-0.59375,84.234375,22.671875
219,219,1727219627687,0.46679688,-2.0,0.020202637,107.671875,43.0625,24.53125
220,220,1727219627727,-0.21728516,-0.579895,0.54119873,-14.625,64.0,61.640625
221,221,1727219627767,-0.03149414,0.48895264,-0.46221924,-28.6875,52.078125,12.859375
222,222,1727219627807,0.5292969,-0.01763916,-0.24176025,-14.8125,3.234375,-0.421875
223,223,1727219627847,-0.1430664,0.11029053,0.19036865,6.6875,-22.234375,-12.453125
224,224,1727219627887,-0.04638672,-0.11407471,-0.30743408,15.34375,-12.28125,-0.828125
225,225,1727219627927,0.52197266,-2.0,-0.7503052,17.015625,-6.0625,-30.0625
226,226,1727219627967,0.49243164,-2.0,0.7785034,22.953125,-34.328125,29.578125
227,227,1727219628007,-0.3918457,-1.3701782,-0.3423462,15.78125,-137.70312,-49.578125
228,228,1727219628047,-0.4560547,-1.8867798,0.41693115,-48.453125,-17.703125,-63.328125
229,229,1727219628087,-0.3557129,0.40740967,-0.11895752,-36.9375,29.25,-17.03125
230,230,1727219628127,0.34545898,0.7081909,0.17840576,-71.21875,3.515625,18.40625
231,231,1727219628167,-0.0031738281,-0.5388794,-0.24468994,15.578125,-7.125,1.4375
232,232,1727219628207,-0.40673828,0.17181396,0.30682373,-8.65625,-3.8125,-13.65625
233,233,1727219628247,0.20239258,-1.4155884,-1.15094,-39.453125,2.328125,-10.40625
234,234,1727219628287,-1.4733887,-2.0,1.4137573,85.34375,98.703125,33.140625
235,235,1727219628327,-0.1940918,-1.5947876,0.57977295,-28.78125,61.03125,23.515625
236,236,1727219628367,0.43554688,-2.0,0.04071045,128.28125,45.203125,67.453125
237,237,1727219628407,-0.69189453,-0.20367432,0.12908936,-8.609375,31.109375,31.859375
238,238,1727219628447,0.45654297,0.5199585,-1.0054321,-32.046875,34.984375,1.765625
239,239,1727219628487,0.4267578,0.029724121,0.105651855,25.9375,3.359375,2.921875
240,240,1727219628527,-0.3557129,-0.0068969727,-0.06402588,21.125,-15.40625,7.46875
241,241,1727219628567,0.3005371,-1.6704712,-0.45489502,16.03125,10.390625,-22.359375
242,242,1727219628607,1.2075195,-2.0,1.0211792,-62.890625,-84.984375,33.140625
243,243,1727219628647,-0.6772461,-1.3806763,-0.5874634,1.859375,-95.484375,-22.96875
244,244,1727219628687,-0.39672852,-2.0,0.7650757,-31.453125,-34.734375,-73.3125
245,245,1727219628727,-0.33081055,-0.062316895,-0.054016113,-53.25,5.8125,-24.96875
246,246,1727219628767,0.24047852,1.2113647,-0.13897705,-45.765625,-11.828125,8.71875
247,247,1727219628807,0.018310547,-0.48687744,-0.20098877,12.09375,24.5,-4.46875
248,248,1727219628847,0.22021484,0.11102295,0.22479248,23.171875,-7.75,-7.78125
249,249,1727219628887,-0.15234375,-0.7371216,-0.92852783,-13.4375,55.171875,2.125
250,250,1727219628927,-0.23657227,-2.0,1.6876831,154.98438,6.1875,37.015625
251,251,1727219628967,-1.0212402,-1.3301392,0.4743042,15.96875,73.453125,10.59375
252,252,1727219629007,0.045898438,-2.0,-0.02960205,49.4375,83.578125,18.453125
253,253,1727219629047,-0.064697266,-0.4121704,0.13616943,9.578125,49.765625,52.125
254,254,1727219629087,0.018798828,0.6259155,-0.6958618,-15.203125,22.671875,9.609375
255,255,1727219629127,0.6069336,0.16351318,-0.061828613,-16.140625,1.15625,4.296875
256,256,1727219629167,-0.096191406,0.074157715,0.27801514,3.359375,-15.453125,7.828125
257,257,1727219629207,0.29492188,-0.6814575,-1.4309692,22.28125,-8.0,-27.34375
258,258,1727219629247,0.7890625,-2.0,0.18035889,-6.5,-88.921875,-11.890625
259,259,1727219629287,-0.9272461,-2.0,-0.1765747,-37.234375,-6.078125,6.984375
260,260,1727219629327,-0.7729492,-1.3904419,-0.39068604,-4.5625,-121.375,-44.890625
261,261,1727219629367,-0.14624023,-1.4580688,0.24090576,-65.375,-36.40625,-56.40625
262,262,1727219629407,-0.05102539,1.8773804,-0.25665283,-25.578125,-47.84375,-0.328125
263,263,1727219629447,0.023925781,-0.37335205,-0.0017700195,-3.484375,17.109375,7.171875
264,264,1727219629487,-0.00048828125,0.049987793,-0.06817627,17.1875,10.5,-2.6875
265,265,1727219629527,-0.4897461,0.0770874,0.40203857,24.328125,25.421875,-19.34375
266,266,1727219629567,-0.48950195,-2.0,-0.553772,39.5,17.375,-8.21875
267,267,1727219629607,-0.76708984,-2.0,0.73187256,-13.953125,55.375,24.546875
268,268,1727219629647,-0.38305664,-0.927063,0.039978027,35.390625,124.3125,43.21875
269,269,1727219629687,0.19970703,-0.9927368,0.12713623,0.265625,63.734375,40.625
270,270,1727219629727,0.13598633,0.15423584,-0.25811768,-29.8125,3.484375,20.5625
271,271,1727219629767,0.07080078,0.3348999,-0.43267822,-44.875,-0.484375,-2.0625
272,272,1727219629807,0.104003906,-0.019592285,0.3163452,7.90625,-12.71875,-10.125
273,273,1727219629847,0.001953125,-0.24127197,-0.9324341,19.71875,-6.09375,-9.0625
274,274,1727219629887,0.32495117,-2.0,-0.36773682,26.046875,-49.484375,-64.5625
275,275,1727219629927,0.28027344,-2.0,0.697937,-15.96875,24.890625,53.421875
276,276,1727219629967,-0.7458496,-0.9155884,-0.74102783,6.578125,-158.10938,-39.78125
277,277,1727219630007,-0.4633789,-1.9639282,0.77459717,-47.484375,29.484375,-68.0625
278,278,1727219630047,-0.03540039,0.2670288,0.020935059,-65.328125,5.796875,-3.484375
279,279,1727219630087,0.3774414,0.7977905,-0.05303955,-33.71875,18.609375,18.0625
280,280,1727219630127,-0.1394043,-0.44073486,-0.11480713,13.875,12.78125,6.625
281,281,1727219630167,-0.107177734,0.1149292,0.13934326,7.78125,21.375,0.359375
282,282,1727219630207,-0.38452148,-0.69976807,-0.42022705,-4.09375,48.765625,-3.71875
283,283,1727219630247,0.5114746,-2.0,0.5092163,89.6875,-48.53125,-24.765625
284,284,1727219630287,-1.0612793,-1.248352,0.99993896,11.65625,40.0625,-28.40625
285,285,1727219630327,0.28588867,-1.9646606,0.15985107,-6.296875,117.25,25.46875
286,286,1727219630367,0.0859375,-0.97320557,-0.022277832,29.28125,51.734375,60.25
287,287,1727219630407,-0.49804688,0.36956787,-0.02178955,-25.703125,3.78125,0.3125
288,288,1727219630447,0.45532227,0.21160889,-0.39068604,-30.28125,-6.265625,4.5
289,289,1727219630487,0.36523438,0.005554199,0.15765381,19.65625,-25.4375,1.359375
290,290,1727219630527,0.030517578,-0.15997314,-0.9624634,38.765625,-28.40625,0.265625
291,291,1727219630567,0.9482422,-2.0,-0.3098755,43.84375,-77.515625,-56.625
292,292,1727219630607,-0.29858398,-2.0,0.5031128,37.15625,-25.828125,21.703125
293,293,1727219630647,-0.79541016,-0.8970337,0.05340576,-50.84375,-115.109375,-16.96875
294,294,1727219630687,-0.5612793,-2.0,0.62957764,33.90625,-82.3125,-85.515625
295,295,1727219630727,0.40014648,-0.21881104,0.03363037,-52.375,13.34375,-33.78125
296,296,1727219630767,0.31225586,1.0895386,-0.22979736,-50.796875,-13.90625,24.9375
297,297,1727219630807,0.23217773,-0.44683838,-0.22418213,13.640625,-8.078125,13.125
298,298,1727219630847,-0.1105957,0.2711792,0.3842163,13.1875,-18.640625,13.734375
299,299,1727219630887,0.22338867,-0.9517212,-2.0,-8.515625,-33.625,2.703125
300,300,1727219630927,-0.5810547,-2.0,1.999939,245.40625,67.90625,89.15625
301,301,1727219630967,-1.1901855,-0.4265747,0.22235107,-16.765625,17.265625,-28.046875
302,302,1727219631007,0.91186523,-2.0,0.47357178,60.171875,67.8125,48.515625
303,303,1727219631047,-0.8720703,-0.94366455,0.3319702,13.984375,60.375,90.515625
304,304,1727219631087,-0.2602539,0.61395264,-0.269104,-30.578125,65.3125,-15.8125
305,305,1727219631127,0.8444824,-0.16143799,-0.30670166,-20.1875,10.125,9.796875
306,306,1727219631167,-0.06933594,0.1696167,0.24603271,-10.5625,-23.125,11.96875
307,307,1727219631207,-0.18139648,-0.15924072,-0.13092041,-15.34375,-13.3125,-31.828125
308,308,1727219631247,0.6635742,-1.3086548,-0.7905884,49.875,22.234375,-36.28125
309,309,1727219631287,0.4633789,-2.0,1.0343628,-0.890625,-84.9375,13.6875
310,310,1727219631327,-0.3154297,-1.6382446,-0.5105591,-14.5625,-106.984375,-44.59375
311,311,1727219631367,-0.52197266,-2.0,0.746521,-29.5,-11.875,-55.484375
312,312,1727219631407,-0.17871094,-0.6074829,-0.1819458,-59.1875,26.75,-34.796875
313,313,1727219631447,0.55444336,1.3087769,-0.07110596,-42.265625,-14.078125,16.109375
314,314,1727219631487,-0.07495117,-0.49957275,-0.18634033,9.625,-6.03125,1.578125
315,315,1727219631527,0.20239258,0.16375732,0.050964355,8.921875,0.203125,-9.8125
316,316,1727219631567,0.022705078,-1.0112915,-0.583313,-28.015625,-30.1875,16.546875
317,317,1727219631607,-1.1669922,-2.0,0.44989014,74.234375,92.0,55.1875
318,318,1727219631647,0.08862305,-1.7488403,0.355896,25.703125,116.25,30.4375
319,319,1727219631687,0.5070801,-2.0,0.14154053,56.28125,61.53125,49.28125
320,320,1727219631727,-0.5739746,-0.3418579,0.24066162,-2.453125,66.046875,30.015625
321,321,1727219631767,0.2055664,0.416687,-0.46051025,-38.1875,45.03125,2.171875
322,322,1727219631807,0.52978516,0.07293701,-0.284729,-14.90625,1.859375,6.203125
323,323,1727219631847,-0.10644531,0.15887451,0.35614014,-4.625,-9.46875,5.734375
324,324,1727219631887,-0.079589844,-0.37652588,-1.4448853,14.671875,-13.328125,-18.375
325,325,1727219631927,1.168457,-2.0,0.28045654,33.53125,-122.53125,-36.953125
326,326,1727219631967,-1.635498,-2.0,0.3163452,-23.265625,-16.265625,57.484375
327,327,1727219632007,-0.48583984,-0.9898071,-0.72784424,-19.078125,-98.859375,-70.21875
328,328,1727219632047,-0.16259766,-2.0,0.5656128,-26.078125,-51.609375,-67.78125
329,329,1727219632087,0.06982422,0.43328857,0.023620605,-24.234375,10.953125,-40.53125
330,330,1727219632127,0.4255371,0.6769409,-0.07330322,-63.015625,-12.015625,9.328125
331,331,1727219632167,0.03491211,-0.56036377,-0.31158447,20.328125,23.28125,-17.109375
332,332,1727219632207,0.045898438,0.23602295,0.13250732,0.796875,-16.328125,-6.96875
333,333,1727219632247,-0.087646484,-1.0662231,-0.798645,-49.34375,21.359375,4.375
334,334,1727219632287,-0.545166,-2.0,1.4572144,118.359375,-49.765625,36.09375
335,335,1727219632327,-1.3950195,-1.6809692,0.7887573,8.484375,53.3125,1.53125
336,336,1727219632367,0.16870117,-2.0,-0.08795166,82.578125,72.234375,20.890625
337,337,1727219632407,0.11303711,-0.74542236,0.48187256,-9.140625,54.734375,47.484375
338,338,1727219632447,-0.12426758,0.46795654,-0.5120239,-16.671875,36.765625,7.09375
339,339,1727219632487,0.5270996,0.24066162,-0.36383057,-31.015625,4.203125,-8.875
340,340,1727219632527,0.107910156,0.047546387,0.21136475,7.09375,-16.40625,-5.3125
341,341,1727219632567,-0.032470703,-0.101623535,-0.6748657,15.03125,-33.921875,2.421875
342,342,1727219632607,0.5292969,-2.0,0.2970581,40.0625,-30.8125,-27.875
343,343,1727219632647,-0.16113281,-2.0,0.557312,16.34375,-10.984375,48.5625
344,344,1727219632687,-0.4465332,-1.411438,-0.487854,7.78125,-138.09375,-20.40625
345,345,1727219632727,-0.26416016,-2.0,0.6742554,-10.4375,-40.90625,-61.484375
346,346,1727219632767,0.049316406,-0.4373169,-0.073791504,-35.0,6.84375,-29.015625
347,347,1727219632807,0.2319336,1.1220093,-0.0010375977,-42.375,-10.609375,14.171875
348,348,1727219632847,0.061279297,-0.41412354,-0.30499268,0.015625,1.921875,6.234375
349,349,1727219632887,0.07739258,0.2765503,0.35931396,15.0625,-1.5,1.578125
350,350,1727219632927,-0.6188965,-0.57476807,-0.76031494,8.9375,12.21875,-21.78125
351,351,1727219632967,-0.5180664,-2.0,0.4100952,71.875,1.8125,-26.828125
352,352,1727219633007,-1.4160156,-1.9273071,0.23797607,35.03125,27.96875,27.1875
353,353,1727219633047,0.22949219,-1.6311646,-0.050598145,16.828125,101.296875,30.359375
354,354,1727219633087,0.5107422,-0.84820557,0.32904053,0.96875,65.765625,50.59375
355,355,1727219633127,-0.34155273,0.38372803,-0.44244385,-10.515625,19.359375,5.125
356,356,1727219633167,0.4309082,0.09979248,-0.33233643,-16.453125,1.625,3.59375
357,357,1727219633207,-0.01928711,0.08123779,0.27093506,0.8125,-11.328125,-4.859375
358,358,1727219633247,0.030517578,-0.48321533,-0.8279419,6.078125,-8.328125,-12.09375
359,359,1727219633287,0.50927734,-2.0,-0.15631104,5.875,-15.8125,-22.953125
360,360,1727219633327,-0.7949219,-2.0,0.38153076,8.734375,-34.09375,43.921875
361,361,1727219633367,-0.64453125,-1.2427368,0.07244873,22.0,-109.984375,-44.65625
362,362,1727219633407,-0.03173828,-2.0,0.2994995,-33.515625,-51.8125,-69.078125
363,363,1727219633447,-0.07910156,0.5807495,-0.054260254,-26.453125,-12.28125,-24.78125
364,364,1727219633487,0.2614746,0.29608154,-0.097473145,-54.8125,-26.046875,7.25
365,365,1727219633527,0.055908203,-0.35699463,-0.1987915,15.046875,-10.859375,5.828125
366,366,1727219633567,-0.14038086,0.38275146,0.354187,25.546875,-19.15625,9.265625
367,367,1727219633607,-0.041015625,-1.5427856,-0.99664307,-24.109375,-11.0625,-1.9375
368,368,1727219633647,0.034423828,-2.0,1.0761108,26.046875,52.96875,87.828125
369,369,1727219633687,-0.57714844,-1.6380005,0.4779663,43.3125,95.28125,27.640625
370,370,1727219633727,0.3881836,-1.718811,-0.0012817383,11.6875,59.390625,32.046875
371,371,1727219633767,-0.29882812,-0.16143799,-0.12823486,-6.890625,59.875,17.453125
372,372,1727219633807,0.37695312,0.43304443,-0.630188,-51.5,17.46875,-3.109375
373,373,1727219633847,0.31518555,0.09515381,-0.030334473,6.0,-4.703125,-9.125
374,374,1727219633887,0.010498047,0.1876831,0.12176514,-0.265625,-22.953125,-14.65625
375,375,1727219633927,0.43579102,-0.81695557,-0.82525635,-3.828125,-9.640625,-20.75
376,376,1727219633967,0.40063477,-2.0,0.6884155,-61.015625,-101.109375,-9.359375
377,377,1727219634007,-0.43725586,-1.7139282,-0.2876587,30.09375,-8.484375,17.15625
378,378,1727219634047,-1.0969238,-1.628479,-0.05303955,5.640625,-48.828125,-39.5
379,379,1727219634087,-0.1430664,-1.706604,0.057800293,-64.703125,6.21875,-77.171875
380,380,1727219634127,0.2709961,1.2660522,-0.014465332,-14.984375,-43.671875,-3.296875
381,381,1727219634167,0.020263672,-0.085510254,-0.020324707,-28.0625,-11.984375,22.265625
382,382,1727219634207,0.12231445,-0.17755127,-0.09991455,14.578125,-2.484375,-8.6875
383,383,1727219634247,-0.63623047,0.19134521,0.2296753,22.75,23.515625,-25.40625
384,384,1727219634287,0.020507812,-2.0,-0.8045044,23.65625,-38.375,54.3125
385,385,1727219634327,-1.1523438,-2.0,0.42230225,33.953125,-5.296875,16.578125
386,386,1727219634367,-0.21191406,-1.6304321,0.1408081,53.03125,126.84375,13.0625
387,387,1727219634407,-0.060546875,-1.2398071,-0.0095825195,37.21875,68.71875,50.359375
388,388,1727219634447,-0.016845703,0.12054443,-0.30718994,-4.953125,44.4375,17.546875
389,389,1727219634487,0.2890625,0.18011475,-0.7041626,-22.53125,-4.109375,14.75
390,390,1727219634527,0.045410156,0.08856201,0.22161865,11.765625,4.84375,-7.09375
391,391,1727219634567,-0.034179688,-0.16168213,-0.10699463,17.421875,-11.75,-17.890625
392,392,1727219634607,0.38989258,-1.2044067,-0.96173096,57.78125,24.234375,-31.203125
393,393,1727219634647,0.52001953,-2.0,1.132019,-80.46875,-141.5,8.21875
394,394,1727219634687,-0.43237305,-1.5254517,-0.84552,9.25,-74.390625,-14.796875
395,395,1727219634727,-0.39135742,-2.0,0.39764404,-6.3125,-14.890625,-77.765625
396,396,1727219634767,-0.22387695,-0.7649536,0.2008667,-129.92188,-7.890625,-34.4375
397,397,1727219634807,0.2849121,1.3202515,-0.29644775,-6.390625,-14.09375,11.328125
398,398,1727219634847,0.09033203,-0.42193604,-0.1338501,-3.9375,-2.90625,6.3125
399,399,1727219634887,-0.044677734,0.33392334,0.10418701,18.796875,0.109375,-1.3125
400,400,1727219634927,-0.009765625,-0.8977661,-0.90826416,0.203125,38.75,-0.84375
401,401,1727219634967,0.390625,-2.0,0.37835693,139.57812,48.984375,43.703125
402,402,1727219635007,-0.60595703,-1.8779907,0.3114624,54.5625,36.53125,19.90625
403,403,1727219635047,0.36547852,-2.0,-0.12994385,103.875,61.796875,60.875
404,404,1727219635087,-0.31323242,-0.5623169,0.18865967,-24.75,37.890625,33.953125
405,405,1727219635127,0.08105469,0.45843506,-0.6531372,-21.5,7.96875,16.453125
406,406,1727219635167,0.46777344,0.13006592,-0.13848877,-1.5625,-28.65625,16.46875
407,407,1727219635207,-0.026611328,0.11810303,0.24920654,-7.28125,-46.90625,15.9375
408,408,1727219635247,-0.26049805,-0.17266846,-0.5203247,0.171875,-32.078125,-12.5
409,409,1727219635287,0.32836914,-1.3067017,-1.0957642,55.828125,-18.375,-25.984375
410,410,1727219635327,-0.23876953,-2.0,0.977478,-58.546875,-48.140625,41.609375
411,411,1727219635367,0.059814453,-1.0652466,-0.8140259,12.0625,-99.3125,-44.53125
412,412,1727219635407,0.080078125,-2.0,0.34368896,-52.9375,-34.125,-70.078125
413,413,1727219635447,-0.20776367,0.18450928,-0.020568848,-38.5,-18.28125,-28.359375
414,414,1727219635487,0.21264648,0.7706909,-0.22003174,-74.875,-16.6875,-3.34375
415,415,1727219635527,-0.052246094,-0.26715088,-0.0713501,22.0625,28.578125,3.75
416,416,1727219635567,0.21557617,0.33392334,0.1251831,26.328125,7.9375,10.125
417,417,1727219635607,-0.24975586,-1.0227661,-0.7036743,-18.421875,17.890625,-2.453125
418,418,1727219635647,-0.1538086,-2.0,0.16473389,80.125,37.59375,0.21875
419,419,1727219635687,-0.32080078,-2.0,-0.006164551,36.40625,54.59375,1.78125
420,420,1727219635727,0.3083496,-2.0,0.03363037,32.984375,53.203125,45.296875
421,421,1727219635767,-0.5239258,-0.68414307,0.18377686,-25.28125,70.65625,35.84375
422,422,1727219635807,0.23168945,0.49066162,-0.41192627,-16.453125,31.46875,10.53125
423,423,1727219635847,0.203125,-0.12286377,-0.32867432,-21.671875,-1.078125,1.875
424,424,1727219635887,-0.03125,0.13787842,0.22259521,-9.03125,-23.8125,-8.578125
425,425,1727219635927,0.1821289,-0.36236572,-0.90704346,7.65625,-11.40625,-8.015625
426,426,1727219635967,0.40673828,-2.0,-0.79278564,47.84375,-3.65625,-10.15625
427,427,1727219636007,-0.9477539,-2.0,0.85198975,-41.578125,-92.515625,38.875
428,428,1727219636047,-0.11352539,-1.0449829,-0.7163696,25.28125,-110.875,-66.734375
429,429,1727219636087,-0.32226562,-2.0,0.43914795,-26.65625,-23.09375,-67.875
430,430,1727219636127,0.18041992,0.44354248,-0.051086426,-54.546875,-7.421875,-31.78125
431,431,1727219636167,0.20458984,0.5739136,-0.3526001,-41.609375,-29.21875,23.4375
432,432,1727219636207,0.11376953,-0.3789673,-0.051086426,26.078125,-7.25,0.9375
433,433,1727219636247,-0.19018555,0.45306396,0.32977295,11.625,-12.890625,12.4375
434,434,1727219636287,-0.18774414,-1.4915161,-1.0789185,-2.703125,-19.71875,-22.40625
435,435,1727219636327,0.9729004,-2.0,1.2006226,4.015625,61.84375,121.453125
436,436,1727219636367,-0.6442871,-1.5982056,0.18743896,83.65625,94.46875,28.265625
437,437,1727219636407,0.28930664,-1.5591431,0.029968262,-19.015625,84.1875,39.328125
438,438,1727219636447,-0.47607422,-0.21051025,-0.03277588,12.875,71.578125,22.34375
439,439,1727219636487,0.5317383,0.4755249,-0.48345947,-55.171875,17.921875,8.75
440,440,1727219636527,0.27905273,0.113708496,-0.2991333,-13.484375,2.1875,-6.5
441,441,1727219636567,-0.06665039,0.121032715,0.1395874,1.59375,-12.84375,-7.53125
442,442,1727219636607,0.37524414,-0.6223755,-0.81695557,18.796875,-7.484375,-6.859375
443,443,1727219636647,0.22265625,-2.0,-0.003967285,-34.875,-3.375,-13.328125
444,444,1727219636687,-0.79296875,-2.0,-0.24176025,-43.203125,-47.1875,36.5
445,445,1727219636727,-0.7336426,-1.1956177,-0.3399048,18.375,-96.578125,-54.953125
446,446,1727219636767,-0.31811523,-1.8814087,0.27191162,-27.84375,-31.0625,-58.65625
447,447,1727219636807,-0.12915039,1.239685,0.029968262,-25.078125,0.21875,-29.53125
448,448,1727219636847,0.16430664,-0.11114502,-0.11553955,-38.640625,6.40625,6.703125
449,449,1727219636887,0.020996094,-0.11090088,-0.11920166,22.640625,10.03125,11.234375
450,450,1727219636927,-0.18945312,0.387146,0.22894287,26.34375,-3.296875,5.25
451,451,1727219636967,-0.6359863,-1.958313,-1.0105591,-0.046875,4.40625,3.484375
452,452,1727219637007,-0.70947266,-2.0,0.65130615,-38.96875,-11.75,50.234375
453,453,1727219637047,-0.1875,-1.4944458,0.53826904,17.9375,119.890625,33.28125
454,454,1727219637087,0.26733398,-1.5198364,-0.08526611,7.1875,62.09375,31.890625
455,455,1727219637127,-0.46899414,0.08123779,0.028503418,18.703125,60.1875,17.796875
456,456,1727219637167,0.33569336,0.31854248,-0.7058716,-44.859375,12.890625,10.453125
457,457,1727219637207,0.33251953,0.13787842,-0.08062744,12.671875,-2.890625,-3.8125
458,458,1727219637247,-0.06713867,0.098083496,0.113220215,-0.0625,-15.703125,-7.75
459,459,1727219637287,0.115478516,-1.3259888,-1.2046509,-4.046875,-18.59375,-25.875
460,460,1727219637327,1.0524902,-2.0,1.0531616,-51.484375,-78.796875,-2.90625
461,461,1727219637367,-0.65771484,-1.694397,-0.46270752,-5.125,-58.71875,-4.234375
462,462,1727219637407,-1.0012207,-1.8630981,0.3661499,-8.078125,-28.984375,-62.375
463,463,1727219637447,-0.20410156,-0.8880005,0.078308105,-83.296875,16.71875,-71.953125
464,464,1727219637487,0.3269043,1.3683472,-0.05303955,-39.09375,-37.375,11.59375
465,465,1727219637527,-0.09667969,-0.36871338,-0.11505127,3.046875,14.0625,6.515625
466,466,1727219637567,0.018310547,0.19110107,0.184021,16.015625,10.875,-7.5
467,467,1727219637607,-0.2397461,-0.51763916,-0.5137329,-4.0,30.703125,-1.59375
468,468,1727219637647,-0.48510742,-2.0,0.7926636,122.375,3.78125,-25.71875
469,469,1727219637687,-1.3034668,-1.8709106,0.24212646,-8.09375,25.53125,-7.453125
470,470,1727219637727,0.33666992,-2.0,0.697937,17.609375,78.109375,26.1875
471,471,1727219637767,-0.6237793,-0.9907837,0.338562,39.921875,67.0625,50.375
472,472,1727219637807,-0.03466797,0.23895264,-0.20025635,20.890625,48.390625,7.71875
473,473,1727219637847,0.45263672,0.13079834,-0.5984497,-28.921875,8.4375,12.625
474,474,1727219637887,0.2409668,0.14422607,0.11517334,10.25,-18.625,-1.96875
475,475,1727219637927,0.076660156,-0.16680908,-0.89727783,29.765625,-6.0625,14.5625
476,476,1727219637967,0.35668945,-2.0,-0.47784424,67.71875,-9.46875,-27.671875
477,477,1727219638007,-0.041015625,-2.0,0.8751831,8.203125,-37.171875,59.078125
478,478,1727219638047,-0.5541992,-0.90631104,-0.81207275,-9.28125,-139.25,-54.46875
479,479,1727219638087,-0.7080078,-2.0,0.7177124,-16.78125,-31.890625,-66.015625
480,480,1727219638127,0.21362305,-0.18243408,-0.1194458,-63.875,6.125,-34.109375
481,481,1727219638167,0.3305664,0.8932495,0.06048584,-26.71875,-17.59375,26.203125
482,482,1727219638207,-0.10668945,-0.4019165,-0.27130127,15.890625,0.875,12.984375
483,483,1727219638247,-0.022705078,0.41644287,0.20794678,34.328125,14.125,0.578125
484,484,1727219638287,0.015625,-1.1780396,-0.9209595,-18.3125,5.578125,14.9375
485,485,1727219638327,0.047607422,-2.0,0.7682495,84.546875,109.703125,62.0625
486,486,1727219638367,-0.7565918,-1.925354,0.43206787,40.40625,59.484375,18.71875
487,487,1727219638407,0.65844727,-2.0,0.12713623,49.28125,73.28125,38.484375
488,488,1727219638447,-0.48339844,-0.7349243,0.19476318,-12.953125,81.765625,23.0625
489,489,1727219638487,0.09716797,0.5595093,-0.38580322,-35.828125,53.234375,1.625
490,490,1727219638527,0.40942383,0.024353027,-0.37017822,-11.390625,4.75,7.296875
491,491,1727219638567,-0.029052734,0.24627686,0.20404053,11.25,-26.765625,-0.25
492,492,1727219638607,0.13354492,-0.4043579,-0.9468384,12.625,-12.890625,2.875
493,493,1727219638647,0.6311035,-2.0,-0.5112915,34.5625,5.765625,-30.4375
494,494,1727219638687,-0.74780273,-2.0,0.5778198,5.578125,-8.609375,32.796875
495,495,1727219638727,-0.39648438,-1.0969849,-0.49639893,14.296875,-131.875,-63.609375
496,496,1727219638767,-0.265625,-1.9597778,0.4562378,-28.484375,-27.890625,-69.90625
497,497,1727219638807,-0.2397461,1.059021,0.010192871,-47.296875,-24.0625,-23.140625
498,498,1727219638847,0.3149414,0.13250732,-0.01373291,-26.96875,-4.71875,7.0625
499,499,1727219638887,0.09301758,-0.34259033,-0.15777588,17.359375,6.171875,-0.796875
500,500,1727219638927,0.042236328,0.27508545,0.10882568,23.21875,-10.015625,7.75
501,501,1727219638967,-0.11328125,-1.4395142,-0.6885376,19.125,-29.921875,13.546875
502,502,1727219639007,-0.5871582,-2.0,0.51898193,-31.671875,-19.296875,42.3125
503,503,1727219639047,-0.16137695,-2.0,0.101257324,46.984375,130.10938,51.328125
504,504,1727219639087,0.18481445,-1.4026489,-0.22369385,7.03125,62.890625,56.1875
505,505,1727219639127,-0.3017578,-0.08282471,-0.008850098,-31.40625,63.5,23.265625
506,506,1727219639167,0.4038086,0.41815186,-0.5317993,-40.875,21.609375,17.046875
507,507,1727219639207,0.4104004,0.027282715,-0.11065674,-0.25,-27.09375,5.640625
508,508,1727219639247,-0.4013672,0.013122559,0.007019043,-1.578125,-17.8125,0.796875
509,509,1727219639287,0.3720703,-1.4749146,-1.250061,22.203125,-25.609375,-20.0625
510,510,1727219639327,0.99731445,-2.0,0.9135132,-50.03125,-128.75,16.03125
511,511,1727219639367,0.04711914,-1.298645,-0.73101807,-5.875,-111.796875,-47.65625
512,512,1727219639407,-0.51220703,-2.0,0.6498413,-66.21875,-57.171875,-41.65625
513,513,1727219639447,-0.36767578,-0.28741455,-0.11895752,-42.671875,-10.203125,-58.046875
514,514,1727219639487,0.4519043,1.2667847,-0.08135986,-44.984375,-24.703125,10.9375
515,515,1727219639527,0.19189453,-0.456604,-0.22296143,17.078125,-21.359375,4.015625
516,516,1727219639567,-0.044921875,0.3156128,0.14666748,17.109375,-14.53125,15.03125
517,517,1727219639607,-0.07543945,-1.1018677,-0.7371216,25.0625,-14.796875,-0.09375
518,518,1727219639647,-0.6425781,-2.0,1.0136108,42.015625,60.359375,25.484375
519,519,1727219639687,-0.15527344,-1.8328247,-0.1494751,32.8125,117.6875,16.078125
520,520,1727219639727,0.5637207,-1.717102,0.028747559,22.703125,37.296875,26.140625
521,521,1727219639767,-0.32470703,-0.30792236,0.43182373,2.234375,63.546875,43.875
522,522,1727219639807,0.40600586,0.5297241,-0.55133057,-55.375,19.65625,10.328125
523,523,1727219639847,0.2705078,-0.24371338,-0.25543213,-20.828125,5.65625,-3.390625
524,524,1727219639887,-0.22290039,0.10247803,0.055114746,-15.828125,3.546875,-22.25
525,525,1727219639927,0.20092773,-0.07623291,-0.88165283,31.0,0.375,-4.40625
526,526,1727219639967,-0.10058594,-2.0,0.14154053,19.9375,-38.234375,-19.46875
527,527,1727219640007,0.0007324219,-2.0,0.3866577,-4.0,-12.09375,56.59375
528,528,1727219640047,-0.43115234,-1.5003052,-0.04058838,12.5625,-116.53125,-50.140625
529,529,1727219640087,-0.48339844,-1.5879517,0.3847046,-61.1875,-48.890625,-73.21875
530,530,1727219640127,-0.24511719,1.0148315,-0.31988525,-23.265625,-26.265625,-26.859375
531,531,1727219640167,0.1743164,-0.0015258789,0.17303467,-28.015625,-4.859375,0.625
532,532,1727219640207,0.18383789,-0.33258057,-0.049865723,7.328125,4.53125,0.03125
533,533,1727219640247,-0.3708496,0.26922607,0.3632202,36.546875,-0.484375,13.609375
534,534,1727219640287,-0.060058594,-1.8174438,-1.2730103,-38.296875,36.671875,19.28125
535,535,1727219640327,0.16137695,-2.0,1.31781,39.1875,89.984375,84.765625
536,536,1727219640367,-0.6401367,-1.4263306,0.32122803,46.359375,102.265625,25.9375
537,537,1727219640407,0.41625977,-1.786438,0.07635498,16.953125,90.78125,32.328125
538,538,1727219640447,-0.038330078,-0.013244629,-0.18048096,4.59375,74.953125,20.453125
539,539,1727219640487,0.29370117,0.68573,-0.39483643,-44.84375,12.359375,16.453125
540,540,1727219640527,-0.009521484,-0.0491333,-0.2798462,1.5,-21.9375,-14.140625
541,541,1727219640567,0.048095703,-0.0134887695,-0.030578613,17.640625,-7.359375,-9.125
542,542,1727219640607,0.11010742,-1.1550903,-1.2737427,1.515625,-31.171875,-21.578125
543,543,1727219640647,0.5944824,-2.0,1.2772827,-39.328125,-97.71875,-6.390625
544,544,1727219640687,-0.6125488,-1.7942505,-0.6824341,-17.953125,-56.03125,-10.125
545,545,1727219640727,-0.6386719,-1.5925903,0.64959717,8.703125,15.8125,-46.65625
546,546,1727219640767,0.017089844,-0.7131958,0.1486206,-74.296875,-26.09375,-43.59375
547,547,1727219640807,0.04663086,1.4469604,-0.58380127,-8.328125,-15.703125,12.890625
548,548,1727219640847,0.041503906,-0.5523071,-0.018127441,9.671875,-4.96875,-9.671875
549,549,1727219640887,0.1665039,0.08929443,0.20233154,20.546875,-18.390625,2.25
550,550,1727219640927,-0.5776367,-0.20123291,-0.27593994,14.09375,-3.296875,-17.90625
551,551,1727219640967,0.015625,-2.0,-0.1519165,112.46875,-78.5,11.03125
552,552,1727219641007,-1.3547363,-1.8919067,0.4833374,-12.40625,2.4375,15.96875
553,553,1727219641047,-0.02758789,-1.954895,-0.09185791,36.640625,99.875,33.265625
554,554,1727219641087,-0.036865234,-0.46392822,0.2531128,4.75,64.046875,36.609375
555,555,1727219641127,-0.0390625,0.36590576,-0.5581665,-21.03125,21.4375,11.59375
556,556,1727219641167,0.50683594,0.11077881,-0.1038208,-9.375,4.4375,6.796875
557,557,1727219641207,0.051757812,0.08880615,0.32489014,-9.203125,-14.0625,1.875
558,558,1727219641247,-0.05053711,-0.19366455,-0.3267212,-12.046875,-11.484375,-6.984375
559,559,1727219641287,0.27368164,-1.8323364,-1.0432739,-1.046875,-12.6875,-22.6875
560,560,1727219641327,0.63134766,-2.0,1.1796265,-5.78125,-46.765625,-6.078125
561,561,1727219641367,-0.58984375,-1.4497681,-0.48101807,32.90625,-89.015625,-6.375
562,562,1727219641407,-0.23950195,-1.8440552,0.7616577,-46.046875,-6.375,-44.3125
563,563,1727219641447,-0.0024414062,-0.003967285,-0.08673096,-44.03125,-16.0,-19.296875
564,564,1727219641487,0.2541504,0.80096436,-0.08917236,-61.375,-23.03125,12.859375
565,565,1727219641527,0.16577148,-0.41534424,-0.058166504,34.328125,-13.484375,3.015625
566,566,1727219641567,-0.2631836,0.29510498,0.3414917,27.09375,-10.171875,9.0625
567,567,1727219641607,-0.57958984,-1.0354614,-0.90167236,0.25,31.3125,-8.703125
568,568,1727219641647,0.39648438,-2.0,1.4935913,107.640625,18.9375,58.484375
569,569,1727219641687,-0.19091797,-1.4849243,-0.39434814,111.265625,81.53125,52.65625
570,570,1727219641727,0.673584,-1.4089966,0.27850342,-36.359375,57.921875,27.796875
571,571,1727219641767,-0.41308594,-0.055725098,-0.3237915,-6.796875,23.515625,24.984375
572,572,1727219641807,0.19702148,0.2489624,-0.70684814,-26.515625,0.296875,-2.09375
573,573,1727219641847,0.18286133,0.11395264,0.15228271,17.90625,-6.125,8.140625
574,574,1727219641887,-0.13842773,-0.097473145,-0.18023682,-2.734375,5.0625,-3.71875
575,575,1727219641927,0.38427734,-0.98565674,-0.64727783,3.328125,-7.765625,-32.90625
576,576,1727219641967,0.91308594,-2.0,1.3270874,-41.21875,-38.25,-24.8125
577,577,1727219642007,-0.9958496,-1.4194946,-0.23614502,-42.1875,-37.953125,-1.5
578,578,1727219642047,-0.89941406,-1.6758423,0.53240967,-17.65625,-17.046875,-53.859375
579,579,1727219642087,0.004638672,-1.2359009,0.26385498,-82.75,-45.96875,-68.78125
580,580,1727219642127,0.31591797,1.6503296,-0.34088135,19.171875,-22.71875,6.734375
581,581,1727219642167,0.33251953,-0.41851807,-0.14874268,8.453125,-18.984375,-4.34375
582,582,1727219642207,0.06298828,0.17718506,0.19573975,33.671875,-22.046875,10.875
583,583,1727219642247,-0.6765137,-0.18218994,-0.3562622,14.5625,27.546875,-18.5625
584,584,1727219642287,-1.1984863,-2.0,-0.3267212,96.984375,25.578125,-21.859375
585,585,1727219642327,-1.1540527,-2.0,0.3366089,-2.03125,24.421875,54.796875
586,586,1727219642367,0.09643555,-1.6646118,-0.059631348,12.5625,105.671875,14.109375
587,587,1727219642407,-0.0075683594,-0.62384033,0.29071045,-32.09375,56.515625,20.25
588,588,1727219642447,0.09814453,0.36663818,-0.45489502,-20.375,16.46875,13.9375
589,589,1727219642487,0.3305664,0.0836792,-0.3899536,-17.1875,-3.546875,2.234375
590,590,1727219642527,0.06518555,0.019714355,0.23358154,4.90625,-13.40625,-6.859375
591,591,1727219642567,-0.013916016,-0.3045044,-0.7893677,19.78125,2.515625,-6.3125
592,592,1727219642607,0.67529297,-2.0,-0.5408325,52.328125,-21.703125,-13.21875
593,593,1727219642647,-0.7709961,-2.0,0.7699585,-4.65625,-23.546875,72.515625
594,594,1727219642687,-0.41625977,-0.9866333,-0.5952759,13.84375,-100.453125,-39.328125
595,595,1727219642727,-0.20019531,-1.9988403,0.494812,-79.75,-67.75,-80.859375
596,596,1727219642767,-0.07055664,0.8788452,-0.17242432,-25.8125,-26.484375,-3.546875
597,597,1727219642807,0.36669922,0.050231934,-0.069885254,-46.359375,-39.53125,0.515625
598,598,1727219642847,0.2746582,-0.14898682,-0.085510254,16.59375,-32.296875,-1.265625
599,599,1727219642887,-0.6616211,0.13226318,0.5060425,16.0,-10.078125,-2.828125
600,600,1727219642927,-0.30078125,-2.0,-0.8665161,-19.515625,-2.890625,11.21875
601,601,1727219642967,-1.0617676,-2.0,0.7211304,-4.78125,78.484375,64.78125
602,602,1727219643007,-0.30908203,-1.3943481,0.028503418,91.484375,122.65625,22.421875
603,603,1727219643047,0.39916992,-1.0188599,0.3241577,-16.75,87.90625,20.953125
604,604,1727219643087,-0.07714844,0.13275146,-0.43218994,2.0,45.03125,24.640625
605,605,1727219643127,0.22192383,0.21038818,-0.41827393,-27.703125,3.90625,2.625
606,606,1727219643167,-0.011474609,0.00970459,0.19989014,-0.921875,-8.453125,-13.0
607,607,1727219643207,-0.064941406,-0.33013916,-0.942688,8.71875,5.921875,-6.640625
608,608,1727219643247,0.6623535,-2.0,-0.47027588,69.671875,-23.6875,-36.078125
609,609,1727219643287,-0.13769531,-2.0,0.57244873,-35.828125,-6.5,67.578125
610,610,1727219643327,-0.7841797,-0.835022,-1.067688,36.078125,-138.17188,-40.046875
611,611,1727219643367,-0.16210938,-2.0,0.7194214,-56.28125,-50.015625,-65.09375
612,612,1727219643407,0.22924805,0.6029663,0.1906128,-54.34375,-47.71875,-19.28125
613,613,1727219643447,0.16503906,0.41864014,-0.094055176,-65.375,-15.59375,14.53125
614,614,1727219643487,0.17236328,-0.47296143,-0.030090332,37.625,-6.90625,8.109375
615,615,1727219643527,-0.13208008,0.23724365,0.371521,15.359375,-25.78125,9.703125
616,616,1727219643567,-0.56762695,-0.84088135,-0.93414307,-0.1875,39.8125,0.6875
617,617,1727219643607,-0.18920898,-2.0,1.2970581,113.375,-51.046875,-9.5625
618,618,1727219643647,-1.09375,-0.9307251,0.024108887,39.328125,80.640625,19.3125
619,619,1727219643687,0.62768555,-1.7710571,0.07562256,-4.65625,118.6875,19.046875
620,620,1727219643727,-0.025878906,-0.30426025,-0.17608643,-9.53125,56.734375,37.625
621,621,1727219643767,0.08911133,0.5499878,-0.6069946,-15.859375,-9.875,6.703125
622,622,1727219643807,0.34301758,0.10076904,0.028015137,-3.671875,-8.46875,-10.140625
623,623,1727219643847,0.0036621094,-0.047912598,0.03338623,-0.84375,-17.09375,-9.015625
624,624,1727219643887,0.33544922,-0.42755127,-1.083313,29.390625,-27.625,-11.96875
625,625,1727219643927,-0.47265625,-2.0,-0.13189697,-26.671875,-21.40625,-7.71875
626,626,1727219643967,-0.4411621,-2.0,-0.2781372,-30.375,-24.375,22.421875
627,627,1727219644007,-0.96191406,-1.1489868,-0.06060791,-4.9375,-55.421875,-67.125
628,628,1727219644047,0.13671875,-1.6941528,0.63446045,-85.046875,-50.015625,-53.765625
629,629,1727219644087,-0.1459961,1.3908081,-0.9837036,45.53125,21.546875,17.65625
630,630,1727219644127,0.40112305,-0.2588501,0.26531982,2.75,0.984375,-7.765625
631,631,1727219644167,-0.01928711,0.015808105,0.13446045,27.859375,-31.328125,27.484375
632,632,1727219644207,-0.3088379,0.18890381,-0.074035645,30.4375,0.140625,-12.40625
633,633,1727219644247,-1.1208496,-2.0,-0.38555908,96.03125,-15.921875,0.953125
634,634,1727219644287,-1.5187988,-2.0,0.2296753,-9.359375,53.203125,35.703125
635,635,1727219644327,-0.0009765625,-1.4551392,0.22845459,-19.46875,105.34375,44.765625
636,636,1727219644367,0.0715332,-0.48931885,-0.027160645,-14.6875,66.515625,21.21875
637,637,1727219644407,0.28051758,0.20599365,-0.6253052,-24.5,39.984375,3.125
638,638,1727219644447,0.31201172,0.098083496,-0.23077393,-14.578125,2.109375,-1.34375
639,639,1727219644487,0.21044922,0.058532715,0.2255249,-12.484375,-7.6875,-20.59375
640,640,1727219644527,-0.08129883,-0.06036377,-0.25836182,-8.703125,-6.609375,-2.0625
641,641,1727219644567,0.13232422,-1.4116821,-0.57940674,68.6875,-2.984375,-6.15625
642,642,1727219644607,0.95751953,-2.0,1.5167847,-13.859375,-39.734375,-44.1875
643,643,1727219644647,-0.33276367,-1.1712036,-0.7473755,25.46875,-107.671875,6.8125
644,644,1727219644687,-0.69384766,-2.0,0.51239014,-57.609375,-33.015625,-76.1875
645,645,1727219644727,0.09057617,0.6071167,-0.29107666,-50.015625,5.25,-4.109375
646,646,1727219644767,0.32055664,0.21453857,0.14031982,-47.109375,-12.984375,7.859375
647,647,1727219644807,-0.21240234,-0.28863525,-0.1531372,16.625,-21.1875,0.78125
648,648,1727219644847,-0.31323242,0.37298584,0.277771,12.6875,7.21875,-12.28125
649,649,1727219644887,-0.2265625,-1.7866821,-0.40655518,62.703125,-37.78125,5.890625
650,650,1727219644927,-1.9211426,-2.0,0.024353027,-44.640625,63.796875,21.765625
651,651,1727219644967,0.2758789,-2.0,-0.26617432,69.359375,96.3125,50.34375
652,652,1727219645007,0.1484375,-1.0940552,0.32513428,-6.515625,97.921875,55.75
653,653,1727219645047,-0.06713867,0.2177124,-0.37945557,-22.46875,47.125,13.921875
654,654,1727219645087,0.2524414,0.15423584,-0.4060669,-22.875,14.921875,3.828125
655,655,1727219645127,0.15161133,0.1437378,0.0848999,0.359375,-12.296875,-6.703125
656,656,1727219645167,-0.0036621094,0.0014038086,-0.120666504,-3.46875,-15.84375,-8.453125
657,657,1727219645207,-0.07080078,-1.9121704,-1.1572876,21.09375,-11.140625,-25.90625
658,658,1727219645247,0.46557617,-2.0,1.574646,-34.453125,-77.71875,22.21875
659,659,1727219645287,-0.33007812,-1.1321411,-1.0474243,6.640625,-154.78125,-25.734375
660,660,1727219645327,-0.38305664,-2.0,1.078064,-39.265625,14.75,-60.578125
661,661,1727219645367,-0.23364258,0.17889404,-0.34796143,-100.90625,-2.546875,-28.515625
662,662,1727219645407,0.37963867,0.65301514,-0.13531494,-36.5625,-14.5,12.6875
663,663,1727219645447,-0.0031738281,-0.40899658,-0.16949463,14.859375,-24.46875,-7.78125
664,664,1727219645487,-0.1772461,0.37591553,0.5018921,11.015625,-12.328125,4.078125
665,665,1727219645527,-0.10546875,-1.279602,-0.96051025,-17.1875,-3.359375,1.875
666,666,1727219645567,-1.4248047,-2.0,1.999939,98.15625,66.875,74.65625
667,667,1727219645607,-0.38891602,-1.2432251,0.0927124,94.921875,101.390625,36.015625
668,668,1727219645647,0.5102539,-2.0,0.34490967,74.75,51.9375,44.5625
669,669,1727219645687,-0.56030273,-0.20806885,-0.01739502,-29.328125,65.609375,20.390625
670,670,1727219645727,0.23583984,0.5363159,-0.7539673,-35.84375,20.515625,1.078125
671,671,1727219645767,0.45458984,0.11102295,-0.105529785,-9.6875,-11.359375,-4.765625
672,672,1727219645807,-0.20996094,0.11077881,0.062683105,4.4375,-29.3125,-13.5625
673,673,1727219645847,0.31030273,-0.7307739,-1.045227,21.546875,-29.078125,-8.21875
674,674,1727219645887,0.21264648,-2.0,0.7694702,-61.65625,-84.40625,-10.15625
675,675,1727219645927,-0.49365234,-1.822815,-0.62164307,-20.140625,-24.6875,2.65625
676,676,1727219645967,-0.90893555,-1.3731079,0.277771,2.6875,-25.640625,-53.828125
677,677,1727219646007,0.06616211,-0.81500244,0.230896,-107.5,-13.3125,-61.25
678,678,1727219646047,0.53686523,1.6022339,-0.4180298,-19.0,-13.265625,21.125
679,679,1727219646087,0.012451172,-0.36553955,-0.19146729,24.53125,-15.03125,-8.921875
680,680,1727219646127,-0.017822266,0.37982178,0.3024292,3.234375,-21.53125,7.09375
681,681,1727219646167,-0.4880371,-0.10333252,0.15740967,28.09375,-0.296875,-8.640625
682,682,1727219646207,-1.1757812,-2.0,-0.33502197,94.078125,17.484375,0.9375
683,683,1727219646247,-1.0654297,-2.0,0.5487671,-23.578125,51.53125,50.78125
684,684,1727219646287,0.09033203,-1.3262329,0.003112793,26.3125,116.390625,45.3125
685,685,1727219646327,-0.026367188,-0.6917114,0.3678589,-36.8125,51.5,27.578125
686,686,1727219646367,-0.021728516,0.39154053,-0.8569946,-15.359375,22.65625,15.0
687,687,1727219646407,0.56640625,0.14959717,-0.050354004,-15.421875,0.9375,-1.484375
688,688,1727219646447,-0.37817383,0.050231934,0.101501465,-8.859375,-28.5625,-8.71875
689,689,1727219646487,0.04272461,-0.1651001,-0.09576416,-8.1875,-8.921875,-22.75
690,690,1727219646527,0.6594238,-2.0,-1.284729,42.515625,-3.125,-4.6875
691,691,1727219646567,0.29907227,-2.0,1.078064,12.828125,-118.8125,6.9375
692,692,1727219646607,-0.88842773,-1.196106,-0.52789307,21.703125,-77.984375,-47.90625
693,693,1727219646647,-0.09814453,-1.8843384,0.55267334,-86.453125,13.40625,-76.1875
694,694,1727219646687,0.011962891,0.3414917,-0.15826416,-35.890625,-25.359375,-17.09375
695,695,1727219646727,0.40429688,0.29803467,0.0018920898,-49.890625,-17.40625,4.421875
696,696,1727219646767,0.2529297,-0.3953247,-0.062072754,26.21875,-31.1875,21.25
697,697,1727219646807,-0.3647461,0.025817871,-0.11651611,53.609375,-14.84375,20.203125
698,698,1727219646847,-2.0,-2.0,0.607605,92.96875,56.046875,-56.734375
699,699,1727219646887,-1.5100098,-2.0,0.1329956,-30.90625,57.546875,30.46875
700,700,1727219646927,0.46533203,-2.0,0.116882324,83.078125,104.53125,36.484375
701,701,1727219646967,-0.18261719,-0.37701416,0.21331787,-9.609375,75.203125,27.546875
702,702,1727219647007,0.3239746,0.4159546,-0.6375122,-34.8125,37.25,17.640625
703,703,1727219647047,0.46020508,0.028015137,-0.2913208,-3.171875,-10.375,0.453125
704,704,1727219647087,-0.059814453,0.070739746,0.23553467,3.734375,-33.734375,-4.515625
705,705,1727219647127,-0.11401367,-0.04156494,-0.5081177,16.0625,-4.265625,-1.328125
706,706,1727219647167,0.5073242,-2.0,-0.7632446,-12.96875,-27.578125,-51.046875
707,707,1727219647207,0.4506836,-2.0,0.39031982,44.546875,36.28125,27.59375
708,708,1727219647247,-0.7128906,-1.4109497,-0.08502197,13.1875,-94.546875,7.9375
709,709,1727219647287,-0.27441406,-1.673645,0.20526123,-66.515625,-33.078125,-84.53125
710,710,1727219647327,-0.024902344,1.3776245,-0.36065674,-37.765625,-13.859375,-2.765625
711,711,1727219647367,0.0041503906,-0.19293213,0.10662842,-31.125,-7.875,-4.078125
712,712,1727219647407,0.15258789,-0.0015258789,0.027770996,0.265625,-15.0,-1.609375
713,713,1727219647447,-0.34106445,0.26727295,0.5536499,29.390625,12.046875,-1.78125
714,714,1727219647487,-0.75927734,-2.0,-0.8032837,-4.90625,11.84375,0.96875
715,715,1727219647527,-0.81347656,-2.0,1.480896,1.203125,86.625,75.25
716,716,1727219647567,0.1015625,-1.0838013,0.32977295,83.8125,109.640625,34.765625
717,717,1727219647607,0.33276367,-1.2141724,-0.12261963,-14.71875,58.046875,54.1875
718,718,1727219647647,-0.36010742,0.42352295,-0.16583252,-12.84375,48.640625,12.875
719,719,1727219647687,0.20483398,0.05706787,-0.47833252,-25.15625,16.375,-3.9375
720,720,1727219647727,0.08911133,0.014343262,0.13470459,-16.1875,-5.5,-7.609375
721,721,1727219647767,-0.13476562,-0.21368408,-0.8677368,9.8125,1.453125,-17.78125
722,722,1727219647807,0.70703125,-2.0,-0.40045166,43.890625,-45.1875,-26.375
723,723,1727219647847,-0.21508789,-2.0,0.5697632,-21.9375,-14.46875,85.796875
724,724,1727219647887,-0.7390137,-1.1668091,-0.4295044,-1.09375,-152.53125,-60.953125
725,725,1727219647927,-0.15551758,-1.9624634,0.37078857,-49.578125,-36.171875,-66.828125
726,726,1727219647967,-0.16113281,0.744812,0.26434326,-39.765625,-39.015625,-17.15625
727,727,1727219648007,0.09863281,0.24163818,-0.12579346,-39.625,8.15625,7.9375
728,728,1727219648047,0.0146484375,-0.56622314,-0.25274658,19.96875,-14.15625,9.046875
729,729,1727219648087,-0.06933594,0.40618896,0.08001709,35.578125,-21.75,13.515625
730,730,1727219648127,-0.9135742,-2.0,-0.5459595,15.984375,-19.953125,-7.265625
731,731,1727219648167,-1.6352539,-2.0,0.7069702,-26.5,-63.0,14.65625
732,732,1727219648207,0.09667969,-1.694397,-0.30133057,23.203125,155.60938,55.46875
733,733,1727219648247,0.21411133,-1.2905884,0.20648193,-10.03125,72.59375,61.109375
734,734,1727219648287,-0.20410156,0.07171631,-0.1716919,-21.421875,35.96875,19.59375
735,735,1727219648327,0.35058594,0.324646,-0.40216064,-47.3125,10.5625,3.59375
736,736,1727219648367,0.25878906,0.04437256,-0.051330566,-13.109375,-16.9375,-11.453125
737,737,1727219648407,-0.15991211,0.049987793,-0.06549072,-24.25,-1.25,-14.09375
738,738,1727219648447,0.16723633,-0.105285645,-0.6211548,50.453125,-2.234375,-3.0
739,739,1727219648487,0.048095703,-2.0,-0.772522,16.296875,1.890625,-16.625
740,740,1727219648527,-0.46435547,-2.0,0.4442749,-37.78125,-73.1875,33.46875
741,741,1727219648567,-0.77978516,-1.15802,-0.16339111,26.140625,-92.65625,-64.34375
742,742,1727219648607,-0.33398438,-2.0,0.6117554,-81.328125,13.109375,-69.09375
743,743,1727219648647,-0.18359375,1.1112671,-0.4126587,-39.28125,7.890625,-21.390625
744,744,1727219648687,0.58081055,0.070495605,-0.14141846,-24.359375,-7.671875,5.71875
745,745,1727219648727,0.16772461,-0.3555298,-0.1506958,15.1875,-36.625,21.453125
746,746,1727219648767,-0.29492188,0.4262085,0.14276123,51.609375,-33.046875,2.15625
747,747,1727219648807,-0.8652344,-2.0,-0.35821533,39.03125,2.3125,-8.65625
748,748,1727219648847,-2.0,-2.0,0.449646,-52.03125,-37.25,21.921875
749,749,1727219648887,0.44067383,-1.8723755,0.09124756,69.328125,112.703125,45.390625
750,750,1727219648927,0.042236328,-1.4727173,0.2850952,-14.3125,46.59375,50.875
751,751,1727219648967,-0.52612305,0.57855225,-0.5354614,-8.09375,64.921875,4.921875
752,752,1727219649007,0.56225586,-0.030090332,-0.62384033,-36.078125,12.515625,-8.34375
753,753,1727219649047,0.29907227,0.11444092,0.06097412,15.71875,-6.890625,8.109375
754,754,1727219649087,-0.05859375,0.07977295,-0.08721924,15.65625,-14.46875,-2.734375
755,755,1727219649127,0.46289062,-1.1843872,-0.835022,31.546875,-8.265625,-16.71875
756,756,1727219649167,0.8625488,-2.0,0.7189331,-126.703125,-111.671875,-17.359375
757,757,1727219649207,-0.5251465,-1.5730591,-0.90997314,9.484375,-65.34375,-25.78125
758,758,1727219649247,-0.5534668,-2.0,0.72088623,3.515625,17.890625,-64.734375
759,759,1727219649287,-0.3852539,-0.66778564,0.2838745,-107.96875,12.65625,-40.828125
