,timestamp,accel_x,accel_y,accel_z,gyro_x,gyro_y,gyro_z
0,1727103736960,-0.51000977,-2.0,0.39031982,25.734375,6.265625,-13.6875
1,1727103736997,-0.75097656,-1.9746704,0.4381714,9.46875,4.609375,5.328125
2,1727103737035,-0.49951172,-1.5996704,0.36834717,-5.3125,24.84375,-5.109375
3,1727103737072,0.06518555,-1.0081177,0.031921387,10.078125,12.265625,10.046875
4,1727103737109,-0.2241211,-0.78497314,0.010925293,3.171875,1.234375,2.0
5,1727103737147,0.1977539,-0.30767822,0.054138184,5.78125,7.390625,20.875
6,1727103737185,-0.22167969,0.051696777,-0.0049438477,-7.90625,1.8125,6.375
7,1727103737222,-0.041503906,-0.10992432,-0.04107666,-8.3125,3.953125,-3.921875
8,1727103737261,0.111572266,-0.031066895,-0.24615479,-0.8125,-8.59375,10.671875
9,1727103737296,-0.36767578,-2.0,0.86761475,13.390625,6.015625,-47.5
10,1727103737335,-0.0048828125,-1.8545532,0.43060303,12.234375,-2.25,-3.453125
11,1727103737390,-0.25976562,-1.9277954,0.24017334,8.296875,-18.34375,0.296875
12,1727103737428,-0.083984375,-1.47052,0.34124756,-6.234375,-31.171875,6.953125
13,1727103737466,-0.19848633,-0.60406494,0.12640381,-10.03125,-20.015625,5.25
14,1727103737503,-0.18359375,-0.015686035,-0.010803223,-12.046875,-4.890625,1.46875
15,1727103737539,0.041015625,0.1864624,-0.04888916,4.9375,5.890625,-7.5
16,1727103737578,-0.14550781,-0.0335083,0.0289917,5.1875,17.125,-11.9375
17,1727103737615,0.024169922,-0.18609619,-0.35113525,3.890625,19.328125,-2.84375
18,1727103737653,-0.62060547,-2.0,0.31365967,10.203125,4.84375,-53.265625
19,1727103737692,-0.30078125,-2.0,0.47821045,8.3125,1.296875,22.125
20,1727103737822,-0.8339844,-1.6619263,0.36956787,-0.234375,37.75,-4.5625
21,1727103737841,0.40307617,-1.2046509,-0.18096924,7.015625,20.296875,34.71875
22,1727103737859,-0.41479492,-0.5823364,0.036315918,-8.34375,0.5,2.140625
23,1727103737880,0.2290039,-0.09039307,-0.04888916,-7.421875,9.421875,15.6875
24,1727103737900,0.15112305,0.3480835,-0.090148926,-8.984375,-1.046875,18.34375
25,1727103737934,-0.075683594,-0.0115356445,0.028503418,-3.859375,-10.046875,3.140625
26,1727103737974,-0.17456055,-0.8081665,-0.12774658,15.765625,-11.875,-5.640625
27,1727103738009,0.3972168,-2.0,0.32635498,-9.328125,-40.421875,-12.015625
28,1727103738046,-0.5288086,-2.0,0.2531128,-1.28125,-7.40625,34.421875
29,1727103738084,-0.19262695,-1.6965942,0.16278076,-5.59375,-29.171875,-16.25
30,1727103738123,-0.028808594,-1.1160278,0.21429443,-18.25,-28.96875,1.6875
31,1727103738158,-0.19946289,-0.17218018,0.19207764,-14.53125,-20.21875,-0.015625
32,1727103738214,-0.08569336,0.4105835,-0.15216064,-10.734375,-12.484375,-3.125
33,1727103738254,-0.0073242188,0.0446167,-0.1741333,6.078125,-1.453125,-11.078125
34,1727103738290,0.035888672,-0.050354004,0.13690186,12.359375,21.8125,-10.328125
35,1727103738328,-0.40234375,-0.6453247,-0.2642212,23.234375,5.828125,2.359375
36,1727103738365,-0.34936523,-2.0,0.6520386,-0.078125,-14.453125,-23.375
37,1727103738421,-1.3686523,-2.0,0.28997803,10.375,46.1875,19.4375
38,1727103738441,-0.38671875,-1.6687622,0.2838745,-21.59375,35.9375,-13.59375
39,1727103738480,0.15527344,-0.8262329,-0.17681885,3.015625,31.875,16.15625
40,1727103738515,-0.11987305,-0.21124268,0.15130615,-7.53125,12.96875,9.015625
41,1727103738553,0.22314453,0.23626709,-0.21246338,-15.234375,7.828125,10.0
42,1727103738590,0.17407227,0.04901123,-0.19342041,3.640625,2.921875,4.25
43,1727103738647,-0.018554688,-0.01373291,0.2033081,1.765625,-7.703125,10.265625
44,1727103738684,-0.6196289,-2.0,0.38983154,22.765625,20.03125,-28.078125
45,1727103738721,0.5949707,-2.0,0.41082764,-4.46875,-12.421875,12.609375
46,1727103738760,-0.5859375,-2.0,0.24432373,-4.0,-31.1875,22.28125
47,1727103738796,-0.056152344,-1.6553345,0.26898193,-9.09375,-32.609375,-3.125
48,1727103738837,-0.07495117,-0.6572876,0.23236084,-9.0625,-27.609375,-2.140625
49,1727103738871,-0.13500977,-0.034240723,-0.015930176,-13.015625,-12.046875,-1.015625
50,1727103738911,-0.061035156,0.30413818,-0.12872314,1.578125,-3.78125,-2.875
51,1727103738947,-0.04272461,-0.014221191,0.029724121,6.28125,4.0,-17.296875
52,1727103738984,-0.08227539,0.0028686523,0.11126709,11.265625,17.78125,-4.53125
53,1727103739078,-0.5878906,-1.7068481,-0.23614502,20.125,9.453125,-36.953125
54,1727103739097,0.47680664,-2.0,0.4154663,38.015625,12.328125,37.890625
55,1727103739114,-1.364502,-1.6577759,0.31707764,21.296875,26.984375,12.359375
56,1727103739160,0.25268555,-1.6856079,0.031677246,-9.0,20.125,8.296875
57,1727103739210,-0.15771484,-0.6795044,-0.14776611,6.203125,14.03125,20.09375
58,1727103739228,-0.09423828,-0.25982666,0.22796631,-9.828125,9.921875,6.046875
59,1727103739266,0.15527344,0.28485107,-0.3242798,-14.765625,-1.703125,15.859375
60,1727103739302,0.16748047,0.16107178,-0.11968994,3.96875,-1.53125,-2.34375
61,1727103739340,-0.030517578,-0.16534424,-0.016418457,4.25,-13.859375,12.75
62,1727103739414,-0.82714844,-2.0,0.52386475,10.171875,30.484375,-36.671875
63,1727103739434,0.4477539,-2.0,0.4467163,-9.71875,-20.484375,5.296875
64,1727103739471,-0.5136719,-2.0,0.3126831,-3.125,-36.609375,18.390625
65,1727103739508,-0.24291992,-1.6524048,0.37298584,-12.4375,-27.15625,-1.453125
66,1727103739548,-0.0063476562,-0.6380005,0.16400146,-16.921875,-23.53125,-1.640625
67,1727103739584,-0.23120117,0.16741943,-0.023986816,-18.90625,-13.265625,2.21875
68,1727103739622,0.021728516,0.4022827,-0.097961426,2.3125,-8.40625,-6.328125
69,1727103739659,-0.115478516,-0.14605713,-0.038146973,7.640625,4.078125,-14.046875
70,1727103739696,0.1796875,-0.11480713,-0.29351807,13.9375,4.0625,1.171875
71,1727103739734,-1.1789551,-2.0,0.34783936,14.359375,5.0625,-56.203125
72,1727103739789,-0.34155273,-2.0,0.3085327,13.875,38.125,27.96875
73,1727103739809,-0.53222656,-1.9124146,0.31951904,-8.484375,33.65625,-10.4375
74,1727103739865,0.01977539,-1.383606,0.11981201,-5.578125,33.453125,21.59375
75,1727103739905,-0.34960938,-0.2571411,-0.013977051,-9.359375,19.21875,8.0625
76,1727103739958,0.47998047,0.20233154,-0.1609497,-7.953125,9.203125,16.78125
77,1727103739977,-0.09375,0.11004639,-0.2156372,-2.171875,1.859375,6.046875
78,1727103740016,0.2915039,-0.082092285,0.043151855,5.0,-2.765625,2.15625
79,1727103740054,-0.039794922,-0.35333252,-0.4998169,11.328125,-32.40625,7.21875
80,1727103740091,0.42651367,-2.0,0.14984131,-2.921875,-44.875,-10.515625
81,1727103740127,-0.28125,-2.0,0.30999756,-2.21875,-25.53125,15.4375
82,1727103740165,-0.17651367,-1.8938599,0.36932373,-0.5,-42.328125,-6.71875
83,1727103740203,-0.29858398,-1.0613403,0.105407715,-20.84375,-36.578125,2.890625
84,1727103740243,-0.0690918,-0.36065674,0.21551514,-11.625,-15.75,0.96875
85,1727103740297,-0.2109375,0.29510498,-0.11065674,-10.421875,-17.5,0.65625
86,1727103740333,-0.17944336,0.16473389,-0.13702393,8.046875,0.65625,-21.265625
87,1727103740371,0.30126953,-0.19146729,0.1437378,9.703125,14.703125,-4.703125
88,1727103740410,-0.68066406,-1.1775513,-0.13848877,17.875,18.015625,-18.078125
89,1727103740447,-0.14453125,-2.0,0.47821045,22.859375,7.328125,-4.21875
90,1727103740484,-1.3154297,-1.7529907,0.27752686,19.78125,34.453125,25.234375
91,1727103740521,0.16259766,-1.6699829,0.09832764,-17.09375,20.9375,5.203125
92,1727103740559,-0.1496582,-0.7954712,-0.11553955,7.9375,23.859375,23.96875
93,1727103740603,-0.009277344,-0.22930908,0.19256592,-6.796875,10.8125,9.15625
94,1727103740653,0.16870117,0.21453857,-0.2131958,-6.46875,8.546875,14.421875
95,1727103740671,0.04272461,0.05267334,-0.14898682,3.828125,0.734375,4.515625
96,1727103740729,-0.11230469,-0.027160645,0.18206787,6.21875,-3.1875,13.609375
97,1727103740765,-0.32861328,-1.6499634,0.043884277,32.671875,21.59375,-22.75
98,1727103740806,0.4597168,-2.0,0.40374756,-1.84375,-1.484375,20.609375
99,1727103740840,-0.3972168,-1.9463501,0.09490967,0.578125,-22.4375,14.3125
100,1727103740879,0.045898438,-1.7166138,0.26068115,-12.1875,-31.234375,-3.375
101,1727103740934,-0.3166504,-0.6177368,0.08856201,-18.609375,-29.453125,-11.71875
102,1727103740953,-0.038330078,-0.05303955,-0.0647583,-14.703125,-8.953125,-8.6875
103,1727103740989,0.028076172,0.25872803,-0.10845947,-0.890625,-4.828125,-10.84375
104,1727103741029,0.014404297,-0.09869385,0.055114746,9.265625,-0.84375,-10.328125
105,1727103741066,-0.016113281,-0.035705566,-0.13458252,12.703125,14.796875,-0.015625
106,1727103741121,-0.50219727,-2.0,0.022888184,17.140625,5.0,-38.625
107,1727103741160,-0.46435547,-2.0,0.43499756,17.296875,30.75,29.453125
108,1727103741196,-0.65185547,-1.8955688,0.20892334,1.296875,36.140625,-1.40625
109,1727103741233,0.0625,-1.489563,0.030456543,-9.28125,28.546875,17.25
110,1727103741271,0.012451172,-0.7131958,-0.058410645,6.984375,10.109375,16.34375
111,1727103741309,0.026123047,-0.20465088,0.078063965,-13.046875,9.15625,9.53125
112,1727103741346,0.1394043,0.27386475,-0.35064697,-10.609375,0.0,8.453125
113,1727103741384,0.29614258,-0.013977051,0.04510498,6.484375,1.3125,1.359375
114,1727103741421,-0.31176758,-0.22320557,-0.03326416,-5.90625,-14.28125,9.5625
115,1727103741459,0.011474609,-2.0,0.62323,20.90625,28.796875,-35.96875
116,1727103741497,-0.1965332,-1.5630493,0.005065918,-2.84375,-35.390625,0.15625
117,1727103741552,-0.12939453,-2.0,0.68182373,0.578125,-15.109375,4.734375
118,1727103741590,-0.32226562,-1.2788696,0.2662964,-13.296875,-50.625,-5.96875
119,1727103741628,-0.20507812,-0.97857666,0.15667725,-9.921875,-27.21875,7.375
120,1727103741666,-0.10205078,0.010192871,0.17547607,-9.390625,-21.109375,1.96875
121,1727103741702,-0.2084961,0.20452881,-0.20904541,0.671875,-7.203125,-7.890625
122,1727103741740,0.31884766,-0.0017700195,0.094177246,3.515625,-1.421875,-21.140625
123,1727103741777,-0.43408203,0.02532959,0.26361084,11.46875,27.109375,-3.734375
124,1727103741814,-0.2836914,-1.1130981,-0.36968994,25.65625,21.40625,-13.390625
125,1727103741855,-0.5847168,-2.0,0.7514038,21.21875,24.1875,13.828125
126,1727103741891,-0.8796387,-2.0,0.105163574,31.59375,60.890625,19.875
127,1727103741946,-0.047851562,-1.8245239,0.24627686,-11.5,48.203125,11.671875
128,1727103741983,0.032226562,-0.67071533,-0.2810669,7.21875,16.53125,22.953125
129,1727103742022,0.2668457,-0.38897705,0.13275146,1.875,13.671875,-0.140625
130,1727103742059,-0.15136719,0.15887451,-0.2300415,-18.015625,-3.71875,13.3125
131,1727103742097,0.23022461,0.19744873,-0.09259033,3.28125,-1.234375,-0.9375
132,1727103742134,-0.12963867,-0.045715332,0.0119018555,4.5,-10.453125,7.71875
133,1727103742171,-0.43041992,-2.0,0.18353271,39.59375,24.375,-19.78125
134,1727103742209,0.6894531,-2.0,0.5375366,-11.078125,-47.203125,12.5
135,1727103742246,-0.36865234,-2.0,0.42181396,0.15625,-45.875,4.34375
136,1727103742284,-0.32080078,-1.4021606,0.047546387,-6.65625,-50.265625,-3.140625
137,1727103742321,-0.29492188,-0.8250122,0.24749756,-17.6875,-33.109375,-9.21875
138,1727103742377,0.13061523,-0.1663208,0.039978027,-16.515625,-21.15625,-2.09375
139,1727103742414,-0.20703125,0.3192749,-0.12652588,4.625,-9.734375,-0.328125
140,1727103742453,0.20117188,-0.06085205,0.023620605,3.96875,-6.09375,-17.078125
141,1727103742490,-0.20922852,-0.6577759,-0.13873291,14.1875,7.484375,-6.59375
142,1727103742528,-0.5163574,-1.9585571,0.10272217,18.78125,21.140625,-24.953125
143,1727103742565,-0.24243164,-2.0,0.34124756,38.234375,54.125,0.46875
144,1727103742602,-0.44726562,-1.8880005,-0.031311035,3.921875,36.375,14.140625
145,1727103742641,-0.18847656,-1.1004028,0.32073975,0.765625,25.3125,19.515625
146,1727103742678,-0.2553711,-0.08843994,-0.21148682,-1.296875,28.09375,13.28125
147,1727103742715,0.12817383,0.09539795,-0.17510986,-14.453125,21.609375,5.4375
148,1727103742752,0.30615234,0.0836792,-0.23492432,-2.390625,12.71875,7.484375
149,1727103742809,0.35839844,-0.051086426,0.14691162,-4.59375,-9.03125,2.609375
150,1727103742850,-0.23950195,-0.3562622,-0.5977173,-23.65625,-32.796875,8.25
151,1727103742885,0.6899414,-2.0,0.3168335,30.71875,-5.59375,-25.6875
152,1727103742921,0.013671875,-2.0,0.028503418,-4.5,-11.671875,21.203125
153,1727103742958,0.084228516,-1.8005981,0.42840576,5.09375,-47.671875,-10.125
154,1727103742998,-0.34106445,-1.0960083,0.19134521,-20.296875,-44.484375,3.296875
155,1727103743035,-0.092041016,-0.093566895,0.15985107,-16.53125,-18.796875,-4.015625
156,1727103743071,-0.27734375,0.24163818,-0.14971924,-2.328125,-13.609375,-0.40625
157,1727103743108,-0.25756836,0.105895996,-0.112854004,2.015625,11.84375,-27.921875
158,1727103743146,0.22998047,-0.13604736,0.12298584,11.796875,20.15625,-3.5625
159,1727103743203,-0.2602539,-0.46099854,-0.40118408,17.046875,0.0625,1.0
160,1727103743240,-0.6616211,-2.0,0.66033936,1.40625,13.921875,-21.46875
161,1727103743281,-1.4772949,-1.9326782,0.042419434,16.375,90.875,11.078125
162,1727103743315,-0.12939453,-1.6047974,0.08929443,-23.59375,34.3125,-22.71875
163,1727103743353,0.5114746,-0.9656372,-0.026184082,6.5,41.34375,38.78125
164,1727103743390,-0.5744629,0.20697021,0.06732178,-5.8125,17.0625,-0.5625
165,1727103743428,0.44458008,-0.09210205,-0.19854736,-14.234375,4.953125,10.046875
166,1727103743465,0.30493164,0.17596436,-0.16583252,10.4375,9.421875,1.5625
167,1727103743503,-0.28710938,-0.116760254,0.18231201,-3.046875,-8.84375,13.703125
168,1727103743540,-0.7416992,-2.0,0.434021,29.625,58.828125,-51.5
169,1727103743577,0.40966797,-2.0,0.22039795,-2.53125,-4.03125,2.515625
170,1727103743634,-0.32910156,-2.0,0.21038818,2.234375,-26.875,20.40625
171,1727103743671,-0.040283203,-1.4546509,0.21917725,-13.28125,-39.71875,-1.984375
172,1727103743709,-0.15258789,-0.5852661,0.08294678,-12.28125,-34.921875,7.328125
173,1727103743747,-0.1665039,-0.11798096,0.09564209,-15.203125,-24.859375,-0.84375
174,1727103743785,-0.22021484,0.28094482,-0.07550049,-6.75,-7.96875,-16.609375
175,1727103743821,0.07763672,-0.09088135,0.023620605,-2.109375,8.640625,-16.0625
176,1727103743859,0.09082031,-0.0051879883,-0.3032837,2.421875,13.109375,-2.53125
177,1727103743896,-0.2434082,-2.0,0.019958496,17.078125,-5.5,-57.453125
178,1727103743934,-0.4543457,-2.0,0.45819092,13.421875,3.109375,34.203125
179,1727103743972,-0.8273926,-1.562561,0.31781006,-17.28125,25.390625,-11.90625
180,1727103744028,0.42456055,-1.3579712,-0.059387207,6.546875,29.375,23.25
181,1727103744067,-0.14916992,-0.4981079,0.055603027,-9.28125,1.734375,11.40625
182,1727103744102,-0.0012207031,-0.19561768,0.13934326,-18.65625,2.78125,9.8125
183,1727103744140,0.29101562,0.22601318,-0.21661377,-12.71875,-5.46875,9.921875
184,1727103744178,0.16381836,0.10760498,0.0014038086,3.296875,-16.84375,14.625
185,1727103744214,-0.35864258,-0.1350708,-0.49273682,-7.09375,-16.9375,2.796875
186,1727103744252,0.31054688,-2.0,0.070251465,22.046875,-12.171875,-37.375
187,1727103744291,-0.03149414,-2.0,0.43548584,-6.46875,-37.90625,6.859375
188,1727103744329,-0.5222168,-1.7097778,0.4459839,-6.6875,-30.3125,-4.375
189,1727103744369,-0.18603516,-1.0796509,0.40325928,-11.34375,-25.046875,-5.59375
190,1727103744403,-0.21875,-0.45928955,0.19329834,-14.28125,-20.234375,4.015625
191,1727103744459,-0.05517578,0.18084717,-0.18145752,-12.359375,-9.859375,-9.65625
192,1727103744496,-0.03100586,0.13812256,-0.022033691,7.859375,11.25,-7.21875
193,1727103744534,0.0146484375,-0.21368408,0.09710693,3.921875,21.328125,-14.453125
194,1727103744571,-0.27954102,-0.13018799,-0.49249268,19.390625,21.0,5.171875
195,1727103744609,-0.3071289,-2.0,0.3949585,6.140625,16.421875,-41.6875
196,1727103744646,-0.4584961,-2.0,0.63690186,25.140625,18.40625,19.3125
197,1727103744684,-0.86694336,-1.729065,0.3554077,-6.65625,34.421875,-9.40625
198,1727103744721,0.032714844,-0.8831177,-0.06939697,-5.71875,24.859375,7.390625
199,1727103744758,0.016113281,-0.68951416,0.09124756,11.78125,18.15625,7.8125
200,1727103744796,0.15307617,-0.05206299,0.04486084,-4.5625,17.84375,14.15625
201,1727103744833,0.17529297,0.16107178,-0.17218018,-16.234375,-2.796875,6.796875
202,1727103744890,0.013671875,-0.047424316,0.014343262,-7.015625,-6.828125,4.0625
203,1727103744931,-0.23852539,-0.7095337,-0.02154541,30.046875,13.671875,-7.21875
204,1727103744965,0.328125,-2.0,0.28363037,17.53125,4.15625,23.671875
205,1727103745007,-0.42089844,-2.0,0.2868042,-4.640625,-35.640625,24.484375
206,1727103745042,-0.27172852,-1.5632935,0.29315186,-3.1875,-37.40625,-4.046875
207,1727103745077,-0.20239258,-0.97662354,0.3192749,-7.015625,-30.421875,-0.328125
208,1727103745115,0.0053710938,-0.39556885,0.14837646,-13.921875,-20.734375,-3.015625
209,1727103745153,-0.09301758,0.20281982,-0.15948486,-5.109375,-12.421875,-2.25
210,1727103745194,-0.16381836,0.034362793,-0.0068969727,12.0,10.484375,-13.65625
211,1727103745227,-0.012939453,-0.035217285,0.11029053,8.5,33.15625,-13.5
212,1727103745284,-0.38085938,-1.4522095,-0.14459229,33.859375,49.578125,-10.8125
213,1727103745322,-0.29614258,-2.0,0.42694092,10.859375,30.859375,8.234375
214,1727103745360,-1.1572266,-2.0,0.34295654,14.984375,42.625,15.34375
215,1727103745396,-0.30371094,-1.6394653,0.05340576,-13.25,42.90625,13.8125
216,1727103745433,0.38183594,-0.57598877,-0.036193848,5.375,-5.359375,12.203125
217,1727103745472,-0.0012207031,-0.46881104,-0.009338379,0.75,15.125,1.328125
218,1727103745512,0.079833984,0.23065186,-0.17999268,-16.5625,-12.375,13.65625
219,1727103745546,0.1862793,0.08734131,-0.19561768,2.265625,-10.0,7.890625
220,1727103745587,0.021240234,-0.14654541,0.1954956,-2.109375,-3.875,8.203125
221,1727103745621,-0.4309082,-2.0,0.25604248,58.703125,40.84375,-27.65625
222,1727103745660,0.935791,-2.0,0.33685303,-25.046875,-45.484375,-2.28125
223,1727103745715,-0.46801758,-2.0,0.19500732,6.1875,-27.5625,11.375
224,1727103745753,-0.29003906,-1.265686,0.17596436,-14.234375,-38.578125,-9.734375
225,1727103745791,-0.091552734,-0.89508057,0.29241943,-13.9375,-29.1875,1.59375
226,1727103745827,-0.15795898,-0.047912598,0.08831787,-20.46875,-33.0625,-5.875
227,1727103745865,-0.36547852,0.30706787,-0.25299072,-3.03125,13.96875,-8.421875
228,1727103745903,0.17700195,-0.04083252,0.13470459,3.203125,20.484375,-24.421875
229,1727103745941,-0.095214844,-0.12750244,0.015563965,1.453125,31.5625,-14.8125
230,1727103745978,0.1508789,-2.0,-0.24957275,25.0,11.3125,-40.734375
231,1727103746014,-0.36547852,-1.9141235,0.48968506,25.234375,13.84375,23.578125
232,1727103746052,-0.6906738,-2.0,0.46722412,15.515625,46.421875,-7.3125
233,1727103746091,-0.040039062,-1.3411255,-0.08526611,-11.640625,13.1875,12.921875
234,1727103746146,-0.24682617,-0.784729,-0.013244629,12.234375,7.96875,17.78125
235,1727103746185,0.1381836,-0.42486572,-0.038146973,-14.25,5.03125,6.9375
236,1727103746221,0.084228516,0.3287964,-0.16900635,-16.71875,-6.4375,6.84375
237,1727103746259,0.1262207,0.0038452148,-0.16656494,-5.609375,-1.90625,-4.765625
238,1727103746297,-0.13500977,-0.006652832,0.093933105,-2.25,2.46875,6.0
239,1727103746334,-0.009277344,-1.8569946,0.49945068,64.75,51.890625,-18.53125
240,1727103746374,0.44750977,-1.748352,0.14056396,-31.1875,-44.578125,7.046875
241,1727103746409,-0.39233398,-2.0,0.25897217,12.875,-41.46875,14.03125
242,1727103746446,-0.4897461,-1.3543091,0.10296631,-8.453125,-55.5625,-6.46875
243,1727103746484,-0.27929688,-0.81036377,0.18963623,-17.3125,-35.453125,-5.4375
244,1727103746540,0.02758789,-0.20465088,-0.009094238,-14.1875,-26.625,2.03125
245,1727103746577,-0.12866211,0.32073975,-0.13580322,2.25,-7.515625,9.796875
246,1727103746615,-0.1652832,0.05218506,-0.008605957,4.625,14.015625,-17.796875
247,1727103746652,0.21704102,-0.1897583,-0.05255127,4.828125,20.109375,-12.421875
248,1727103746691,-0.10449219,-2.0,0.089538574,27.78125,-10.25,-35.046875
249,1727103746731,-0.5539551,-1.9819946,0.32440186,14.5625,19.0625,36.578125
250,1727103746766,-0.80615234,-1.9067993,0.25872803,-2.40625,37.1875,-9.96875
251,1727103746802,0.080322266,-1.4585571,0.08905029,-7.6875,30.09375,16.703125
252,1727103746842,-0.20141602,-0.63287354,-0.20611572,7.234375,12.6875,13.671875
253,1727103746877,0.22167969,-0.22149658,-0.10089111,2.640625,4.453125,13.625
254,1727103746915,0.05810547,0.22479248,-0.1296997,-4.34375,6.03125,13.75
255,1727103746971,0.115478516,-0.082336426,-0.03277588,3.078125,5.84375,-3.6875
256,1727103747011,0.17333984,-0.066711426,-0.2312622,-2.90625,-15.703125,11.15625
257,1727103747047,-0.39770508,-2.0,0.35125732,17.9375,1.09375,-30.1875
258,1727103747084,0.13452148,-2.0,0.40081787,-11.609375,-47.53125,-15.1875
259,1727103747124,-0.43408203,-2.0,-0.02178955,-7.625,-51.6875,-0.453125
260,1727103747158,-0.31884766,-1.2866821,0.16473389,-9.921875,-45.703125,-1.9375
261,1727103747197,-0.11035156,-0.56256104,0.1317749,-19.25,-9.875,1.71875
262,1727103747234,-0.22094727,0.18060303,-0.05621338,-18.25,-16.40625,1.484375
263,1727103747271,-0.09863281,0.25579834,-0.13043213,6.953125,9.125,-10.921875
264,1727103747309,0.18481445,-0.0647583,0.09637451,4.484375,14.28125,-16.40625
265,1727103747365,0.037841797,-0.1404419,-0.16534424,6.578125,14.96875,-3.359375
266,1727103747403,-0.8466797,-2.0,0.059265137,13.71875,2.171875,-69.90625
267,1727103747440,-0.5593262,-2.0,0.508728,4.578125,30.59375,33.359375
268,1727103747478,-0.6501465,-1.4126587,0.16741943,-4.234375,35.796875,-3.703125
269,1727103747515,0.26611328,-1.4849243,-0.01763916,-12.328125,17.5625,10.703125
270,1727103747552,-0.05883789,-0.2041626,-0.16485596,-2.921875,6.78125,12.734375
271,1727103747591,0.14501953,-0.02520752,-0.008605957,-4.421875,-3.03125,6.25
272,1727103747629,0.21435547,0.045837402,-0.2835083,6.515625,-9.984375,12.796875
273,1727103747665,0.080078125,-0.105773926,0.11932373,3.96875,-13.71875,6.625
274,1727103747702,-0.28295898,-0.2720337,-0.5586548,-0.578125,-24.125,5.28125
275,1727103747740,0.4326172,-2.0,0.17547607,13.484375,-29.59375,-28.59375
276,1727103747797,-0.05419922,-2.0,0.39520264,9.3125,-37.9375,-1.6875
277,1727103747834,-0.4555664,-1.6270142,0.17718506,-5.34375,-57.609375,-6.96875
278,1727103747871,-0.3317871,-1.156311,0.32025146,-15.625,-41.109375,-8.21875
279,1727103747909,-0.06689453,-0.2966919,0.028259277,-12.09375,-22.3125,5.671875
280,1727103747948,-0.050048828,0.15081787,-0.026672363,-8.65625,-26.484375,6.484375
281,1727103747985,-0.14770508,0.082214355,0.01751709,4.65625,-6.671875,-11.28125
282,1727103748022,-0.008056641,-0.16168213,-0.002746582,-0.40625,16.0,-10.390625
283,1727103748059,0.14526367,-0.2456665,-0.53204346,11.921875,-6.453125,3.15625
284,1727103748097,-0.9675293,-2.0,0.40447998,9.4375,8.125,-36.953125
285,1727103748134,-0.8886719,-2.0,0.7560425,5.328125,42.4375,12.5
286,1727103748171,-0.6010742,-1.3950806,0.26409912,-12.703125,31.53125,-13.65625
287,1727103748228,0.2902832,-1.0447388,-0.12872314,-5.46875,22.0,33.453125
288,1727103748266,-0.24169922,-0.25372314,0.11199951,-5.21875,4.921875,1.421875
289,1727103748302,0.34057617,-0.0647583,-0.07354736,-10.078125,3.171875,13.109375
290,1727103748340,0.016113281,0.13421631,-0.17901611,-5.40625,-5.46875,7.078125
291,1727103748377,0.09643555,-0.16241455,0.04168701,-4.109375,-8.578125,7.046875
292,1727103748415,-0.4169922,-2.0,0.06097412,18.53125,14.8125,-42.640625
293,1727103748455,0.39868164,-2.0,0.3024292,-6.5625,0.625,-4.75
294,1727103748490,-0.49243164,-2.0,0.2929077,-6.640625,-34.375,29.890625
295,1727103748528,-0.42651367,-1.4470825,0.18499756,-22.34375,-39.34375,-5.53125
296,1727103748565,0.24487305,-0.9163208,0.27752686,-14.8125,-34.625,7.671875
297,1727103748659,-0.32470703,-0.10821533,0.09124756,-10.34375,-27.640625,14.765625
298,1727103748677,-0.22509766,0.28363037,-0.117492676,-8.921875,-15.21875,-6.21875
299,1727103748696,0.12084961,-0.06695557,0.12835693,7.921875,2.03125,-17.40625
300,1727103748736,-0.13964844,-0.15362549,-0.003479004,1.390625,5.59375,-2.078125
301,1727103748771,-0.17797852,-1.7341919,-0.27398682,24.015625,2.8125,-46.078125
302,1727103748812,-0.24121094,-2.0,0.3390503,18.640625,12.59375,40.109375
303,1727103748846,-1.1079102,-1.5420532,0.14544678,8.984375,30.765625,6.4375
304,1727103748886,0.09008789,-1.8838501,0.06732178,2.375,30.1875,9.953125
305,1727103748922,0.076171875,-0.5935669,0.18597412,17.125,7.09375,24.9375
306,1727103748959,-0.39453125,-0.22149658,0.05316162,-5.796875,7.421875,13.421875
307,1727103748996,0.36889648,0.18255615,-0.21661377,-7.828125,1.515625,3.15625
308,1727103749053,0.10229492,-0.14434814,-0.07598877,-2.203125,-6.59375,-3.0
309,1727103749090,0.028564453,-0.043762207,-0.2810669,-11.1875,-19.28125,5.625
310,1727103749128,-0.3557129,-2.0,0.5006714,14.65625,8.375,-60.734375
311,1727103749165,0.5419922,-2.0,0.29730225,-12.296875,-47.625,1.34375
312,1727103749204,-0.6923828,-1.9546509,0.22650146,8.6875,-51.109375,19.8125
313,1727103749240,-0.3618164,-1.4299927,0.30316162,-2.375,-40.296875,-1.453125
314,1727103749278,-0.10595703,-0.8718872,0.3546753,-8.171875,-34.125,10.765625
315,1727103749314,-0.29589844,0.027282715,-0.00592041,-12.0625,-20.578125,9.859375
316,1727103749354,-0.052001953,0.34539795,-0.10992432,6.984375,-1.875,-0.140625
317,1727103749391,-0.06665039,-0.061584473,0.028503418,6.96875,16.125,-17.5
318,1727103749446,-0.114746094,-0.08111572,-0.14849854,3.0,32.25,-7.921875
319,1727103749484,-0.40307617,-2.0,-0.027648926,13.78125,-8.78125,-85.140625
320,1727103749522,0.66967773,-2.0,0.35858154,26.6875,2.25,53.890625
321,1727103749558,-1.027832,-1.1838989,0.23358154,0.5625,21.640625,-0.265625
322,1727103749596,0.00024414062,-1.3411255,-0.2288208,-16.046875,21.171875,21.5
323,1727103749634,0.0017089844,-0.46002197,-0.020812988,8.5,16.140625,6.203125
324,1727103749675,0.025390625,-0.19415283,0.053649902,-5.203125,15.734375,7.46875
325,1727103749708,0.22070312,0.03314209,-0.21954346,-10.4375,4.65625,5.171875
326,1727103749746,0.21313477,0.08514404,0.03289795,7.5625,5.203125,18.25
327,1727103749785,-0.17016602,-0.3875122,-0.5112915,0.9375,-16.859375,5.90625
328,1727103749821,0.111816406,-2.0,0.18817139,-1.46875,-42.09375,-26.4375
329,1727103749877,-0.17919922,-2.0,0.4105835,-3.90625,-20.515625,18.234375
330,1727103749916,-0.49902344,-1.6104126,0.30267334,-8.234375,-46.625,-17.5
331,1727103749953,-0.31982422,-1.045227,0.309021,-8.296875,-21.5625,-5.1875
332,1727103749991,0.15771484,-0.50860596,0.035827637,-11.640625,-16.09375,2.171875
333,1727103750028,-0.26464844,0.29071045,0.019714355,-7.078125,-12.28125,-0.140625
334,1727103750065,-0.032958984,0.0289917,-0.07867432,2.0625,5.09375,-14.1875
335,1727103750103,-0.12988281,-0.010803223,0.089538574,4.1875,31.484375,-15.6875
336,1727103750140,0.001953125,-0.16973877,-0.77667236,4.390625,13.203125,-2.5
337,1727103750178,-0.86328125,-2.0,0.50164795,0.265625,-5.71875,-76.03125
338,1727103750216,-0.71118164,-2.0,0.5709839,12.796875,41.046875,35.453125
339,1727103750256,-0.8210449,-1.6062622,0.5626831,-13.578125,40.546875,-25.171875
340,1727103750309,0.4230957,-1.1519165,-0.18243408,-5.6875,24.625,34.234375
341,1727103750346,-0.19873047,-0.20172119,-0.144104,-0.796875,7.125,5.53125
342,1727103750384,0.24536133,-0.23565674,-0.003479004,-5.625,9.546875,8.109375
343,1727103750421,0.15307617,0.17669678,-0.15679932,-0.265625,-5.671875,14.5625
344,1727103750459,-0.045898438,-0.05279541,0.030212402,1.921875,-6.21875,7.0625
345,1727103750496,-0.005859375,-0.39190674,-0.46954346,7.953125,-22.015625,3.953125
346,1727103750537,-0.06933594,-2.0,0.37738037,7.328125,-35.5,-5.40625
347,1727103750571,-0.2944336,-2.0,0.21453857,-7.53125,-15.96875,16.890625
348,1727103750609,-0.38427734,-1.7114868,0.4093628,-4.046875,-31.046875,-5.6875
349,1727103750647,-0.25610352,-1.0671997,0.23065186,-22.453125,-29.515625,-4.046875
350,1727103750703,0.055419922,-0.37042236,0.06878662,-11.703125,-12.0,7.390625
351,1727103750741,-0.13793945,0.25531006,-0.15216064,-7.34375,-11.625,6.046875
352,1727103750777,-0.030761719,0.1317749,-0.09234619,7.453125,1.65625,-13.03125
353,1727103750818,0.075927734,-0.109191895,0.039489746,3.921875,10.109375,-9.625
354,1727103750856,-0.22509766,-0.4439087,-0.40875244,16.546875,-11.6875,3.59375
355,1727103750891,-0.5124512,-2.0,0.72088623,4.6875,4.265625,-10.53125
356,1727103750928,-1.3764648,-2.0,0.557312,7.890625,31.40625,15.390625
357,1727103750966,-0.43408203,-1.6443481,0.33099365,-16.734375,45.96875,-15.984375
358,1727103751002,0.38623047,-0.8440552,-0.13067627,0.609375,14.578125,17.65625
359,1727103751041,-0.17871094,-0.41436768,-0.010803223,-0.203125,10.21875,9.40625
360,1727103751077,0.23095703,-0.09625244,0.001159668,-12.859375,2.625,12.375
361,1727103751134,0.03881836,0.08026123,-0.34210205,-6.3125,-6.0,4.328125
362,1727103751173,0.18237305,0.05291748,0.15667725,2.9375,-13.59375,13.765625
363,1727103751209,-0.3630371,-0.60601807,-0.23980713,19.265625,-28.78125,-3.328125
364,1727103751247,0.5305176,-2.0,0.48480225,-4.6875,-46.203125,11.09375
365,1727103751284,-0.72802734,-2.0,0.10736084,-16.3125,-28.3125,22.765625
366,1727103751321,-0.5300293,-1.3948364,0.4118042,0.90625,-30.65625,-13.921875
367,1727103751360,0.10229492,-1.2197876,0.38128662,-19.5625,-33.28125,-0.125
368,1727103751398,-0.2705078,-0.10626221,0.07562256,-14.1875,-9.390625,9.4375
369,1727103751434,0.11425781,0.3468628,-0.11993408,-9.078125,-2.09375,-7.265625
370,1727103751472,-0.19970703,0.012878418,-0.005432129,12.265625,8.1875,-9.34375
371,1727103751528,0.03515625,-0.08111572,0.08465576,2.640625,32.109375,-9.203125
372,1727103751565,-0.66064453,-2.0,-0.12579346,25.421875,26.984375,-46.1875
373,1727103751602,0.052978516,-2.0,0.32611084,31.375,25.734375,32.03125
374,1727103751640,-1.026123,-1.5835571,0.16326904,0.21875,21.21875,3.125
375,1727103751678,0.16699219,-1.6292114,-0.021057129,-12.40625,5.125,17.984375
376,1727103751714,-0.14453125,-0.54644775,0.124694824,8.515625,15.515625,8.90625
377,1727103751753,0.0949707,-0.27667236,0.010681152,-1.265625,11.34375,4.09375
378,1727103751790,0.4970703,0.14154053,-0.15167236,-3.109375,-7.0,20.109375
379,1727103751829,-0.26708984,-0.05255127,-0.022766113,-6.1875,-8.40625,6.046875
380,1727103751867,0.076660156,-0.036193848,0.09661865,-12.046875,-15.328125,2.09375
381,1727103751902,-0.4658203,-2.0,0.45916748,20.453125,7.171875,-73.171875
382,1727103751958,0.5534668,-2.0,0.416687,10.375,-34.578125,2.609375
383,1727103751996,-0.57666016,-1.895813,0.29925537,6.203125,-52.90625,9.25
384,1727103752034,-0.2265625,-1.2835083,0.43988037,-12.703125,-31.53125,-5.484375
385,1727103752072,-0.13867188,-0.5171509,0.19256592,-15.078125,-22.078125,5.171875
386,1727103752110,-0.21459961,0.055358887,0.03289795,-11.0625,-6.96875,3.484375
387,1727103752147,-0.03564453,0.27923584,-0.12286377,-3.328125,-0.03125,-8.734375
388,1727103752185,-0.088134766,-0.073791504,0.16571045,8.09375,19.328125,-15.71875
389,1727103752221,0.21459961,-0.018127441,-0.29986572,1.671875,14.0625,-8.015625
390,1727103752262,-0.6269531,-2.0,0.4315796,16.046875,-17.953125,-87.296875
391,1727103752296,-0.296875,-2.0,0.98553467,22.421875,14.5,33.78125
392,1727103752336,-0.7897949,-1.4002075,0.33416748,-18.515625,20.5,-23.953125
393,1727103752390,0.22607422,-1.508606,-0.117492676,-14.21875,25.375,37.390625
394,1727103752428,-0.09765625,-0.18927002,-0.050842285,2.765625,12.921875,3.5
395,1727103752465,-0.042236328,-0.26812744,0.005554199,-6.328125,13.015625,10.109375
396,1727103752502,0.35791016,0.15863037,-0.22125244,0.703125,2.859375,14.453125
397,1727103752540,0.018554688,-0.039367676,0.058776855,5.078125,-3.984375,8.109375
398,1727103752577,0.030273438,-0.097473145,-0.47296143,4.09375,-29.0,1.46875
399,1727103752616,0.025390625,-2.0,0.463562,15.375,-41.078125,-33.765625
400,1727103752653,-0.2866211,-2.0,0.45281982,-6.640625,-26.5,19.53125
401,1727103752692,-0.34985352,-1.7532349,0.3517456,2.3125,-36.9375,-9.828125
402,1727103752728,-0.29125977,-1.2180786,0.30511475,-17.078125,-27.15625,-2.9375
403,1727103752822,-0.12646484,-0.2769165,0.2164917,-19.71875,-14.25,-0.0625
404,1727103752841,-0.07543945,0.3312378,-0.253479,-9.375,-1.171875,-1.171875
405,1727103752860,0.2006836,0.16473389,-0.16558838,13.265625,4.15625,-10.140625
406,1727103752897,-0.059326172,-0.07110596,0.13153076,16.796875,14.765625,-8.109375
407,1727103752934,-0.4177246,-1.2080688,-0.031555176,26.296875,10.234375,-21.234375
408,1727103752971,-0.05102539,-2.0,0.47869873,24.53125,17.953125,19.140625
409,1727103753009,-1.237793,-1.9719849,0.27313232,3.921875,28.796875,7.25
410,1727103753048,-0.034423828,-1.5769653,0.1293335,-5.21875,38.53125,4.3125
411,1727103753084,0.022705078,-0.51519775,-0.10455322,6.0625,8.203125,23.625
412,1727103753123,-0.123046875,-0.24859619,0.015319824,-6.15625,3.0,6.546875
413,1727103753158,0.33666992,0.05316162,-0.24786377,-7.546875,-10.390625,10.421875
414,1727103753214,0.12768555,0.027038574,-0.09112549,2.578125,-17.296875,6.8125
415,1727103753253,-0.1574707,-0.028625488,0.07977295,-1.078125,-21.71875,11.953125
416,1727103753290,-0.6953125,-2.0,0.18963623,10.9375,11.296875,-63.3125
417,1727103753328,0.62939453,-2.0,0.4303589,-15.1875,-35.15625,16.03125
418,1727103753365,-0.85253906,-1.8672485,0.17572021,2.109375,-40.171875,19.40625
419,1727103753404,-0.33398438,-1.380188,0.36297607,-17.5,-27.796875,-14.375
420,1727103753440,0.11010742,-0.5071411,0.16741943,-15.828125,-13.96875,7.640625
421,1727103753477,-0.23022461,0.1762085,-0.11090088,-9.640625,-5.984375,7.984375
422,1727103753515,-0.091308594,0.18548584,-0.15045166,7.140625,2.359375,-10.640625
423,1727103753553,0.111816406,-0.06768799,0.06121826,9.25,13.515625,-10.609375
424,1727103753592,-0.075927734,-0.18658447,-0.3201294,7.84375,10.015625,7.84375
425,1727103753646,-1.0761719,-2.0,0.6481323,10.515625,1.671875,-93.15625
426,1727103753686,-0.5505371,-2.0,0.70306396,10.875,39.1875,35.5625
427,1727103753721,-0.5673828,-1.2861938,0.32733154,-6.9375,31.265625,-10.421875
428,1727103753758,0.17333984,-1.1680298,-0.21490479,-4.046875,24.515625,25.03125
429,1727103753799,0.016113281,-0.04156494,-0.04156494,1.0,8.453125,10.046875
430,1727103753833,0.11254883,-0.023742676,-0.05255127,-4.921875,4.484375,12.265625
431,1727103753872,0.059570312,0.0680542,-0.28570557,-0.65625,-3.46875,1.078125
432,1727103753910,0.17163086,-0.18463135,0.18695068,5.609375,-9.75,5.234375
433,1727103753948,-0.18945312,-0.9492798,-0.13140869,17.9375,-20.296875,-4.3125
434,1727103753984,0.4272461,-2.0,0.10296631,-27.78125,-53.90625,-0.03125
435,1727103754041,-0.4777832,-2.0,0.28485107,-3.90625,-31.921875,27.75
436,1727103754078,-0.60839844,-1.4517212,0.24407959,-8.078125,-39.671875,-10.328125
437,1727103754115,0.1015625,-0.92266846,0.18841553,-16.390625,-24.0625,1.53125
438,1727103754153,-0.23999023,0.08807373,0.02166748,-10.796875,-16.75,9.625
439,1727103754190,-0.13330078,0.11395264,-0.08013916,-1.796875,-3.140625,-10.515625
440,1727103754230,0.040771484,0.043640137,-0.04498291,6.640625,8.171875,-12.671875
441,1727103754265,0.091308594,-0.06329346,0.109802246,5.296875,19.390625,-6.578125
442,1727103754304,-0.44848633,-1.2827759,-0.08770752,16.90625,19.234375,-16.65625
443,1727103754340,-0.21826172,-2.0,0.4039917,13.25,-1.296875,25.609375
444,1727103754379,-1.5290527,-1.7153931,0.41864014,-2.859375,25.640625,-0.171875
445,1727103754415,-0.009033203,-1.5982056,0.24993896,-15.59375,28.453125,-1.578125
446,1727103754472,0.22705078,-0.5159302,-0.1819458,2.515625,6.296875,22.765625
447,1727103754510,-0.19238281,-0.3069458,0.0004272461,1.75,4.34375,11.65625
448,1727103754549,0.35864258,0.058776855,0.00970459,-0.609375,-1.265625,15.96875
449,1727103754586,-0.2668457,0.101989746,-0.14556885,1.84375,-0.640625,-0.765625
450,1727103754622,0.15307617,-0.10699463,-0.07159424,-0.953125,-15.78125,7.703125
451,1727103754659,-0.50390625,-2.0,0.46185303,15.171875,12.390625,-62.921875
452,1727103754697,0.61376953,-2.0,0.45428467,-18.65625,-43.03125,8.546875
453,1727103754736,-0.6960449,-1.7488403,0.16766357,6.109375,-47.328125,12.1875
454,1727103754771,-0.09765625,-1.4338989,0.47161865,-11.71875,-32.40625,-4.171875
455,1727103754809,-0.02319336,-0.3189087,0.08099365,-19.65625,-25.25,12.09375
456,1727103754866,-0.10961914,0.20404053,-0.0635376,-6.0625,-10.953125,0.75
457,1727103754902,0.02319336,-0.03326416,-0.13214111,5.890625,-4.03125,-5.359375
458,1727103754940,-0.05078125,-0.031555176,0.10101318,2.859375,9.515625,-14.78125
459,1727103754977,-0.14331055,-0.32403564,-0.5689087,7.421875,-4.734375,1.984375
460,1727103755015,-0.5812988,-2.0,0.5368042,4.0625,-3.5625,-57.046875
461,1727103755052,-0.9926758,-1.8960571,0.65960693,4.796875,30.03125,18.578125
462,1727103755090,-0.21850586,-1.6272583,0.3168335,-11.25,26.3125,-13.078125
463,1727103755127,0.111816406,-0.97003174,-0.105773926,-3.859375,5.59375,24.96875
464,1727103755166,-0.2055664,-0.3069458,0.035339355,1.375,6.28125,5.5625
465,1727103755203,0.27978516,-0.13116455,-0.06695557,1.03125,-2.234375,10.546875
466,1727103755241,0.14111328,0.12786865,-0.23858643,-1.21875,-14.65625,12.984375
467,1727103755299,0.033203125,-0.17462158,0.11077881,-2.109375,-14.796875,3.4375
468,1727103755334,-0.20703125,-0.4685669,-0.36968994,9.5625,-13.640625,2.34375
469,1727103755376,0.43188477,-2.0,0.44232178,5.296875,-36.8125,-1.125
470,1727103755409,-0.3400879,-2.0,0.34344482,-11.875,-38.6875,15.0625
471,1727103755447,-0.27905273,-1.592102,0.31610107,-4.6875,-42.96875,-3.609375
472,1727103755484,-0.2512207,-1.003479,0.324646,-19.25,-32.421875,0.484375
473,1727103755523,0.032714844,-0.41119385,0.020690918,-23.0625,-29.53125,2.96875
474,1727103755559,-0.068603516,0.070251465,-0.040100098,-9.53125,-15.484375,-1.3125
475,1727103755599,-0.08300781,0.018737793,-0.08453369,1.671875,-7.421875,-1.921875
476,1727103755634,0.029785156,-0.13482666,0.050720215,3.09375,-0.015625,-11.640625
477,1727103755673,-0.111816406,-0.3555298,-0.39508057,5.890625,-9.71875,5.46875
478,1727103755728,-0.9836426,-2.0,0.6325073,8.515625,-10.421875,-39.25
479,1727103755765,-0.6311035,-1.8067017,0.5739136,6.65625,20.65625,7.515625
480,1727103755807,-0.5288086,-1.7463989,0.35784912,-7.203125,32.546875,-0.46875
481,1727103755840,0.1665039,-0.94732666,-0.062561035,-7.140625,16.4375,20.0625
482,1727103755877,-0.21069336,-0.40216064,-0.019104004,0.953125,11.46875,5.21875
483,1727103755916,0.3713379,-0.31134033,0.00091552734,1.265625,2.375,10.09375
484,1727103755955,-0.016601562,0.15667725,-0.18511963,-6.65625,-12.25,13.625
485,1727103755990,0.016357422,-0.08843994,0.14447021,-7.078125,-12.484375,-2.078125
486,1727103756027,-0.030761719,-0.3789673,-0.7197876,4.78125,-28.265625,1.84375
487,1727103756065,0.4621582,-2.0,0.78460693,9.5,-39.5,-3.546875
488,1727103756122,-0.7949219,-2.0,0.15692139,-6.578125,-7.203125,17.265625
489,1727103756160,-0.15332031,-1.5491333,0.3505249,4.390625,-22.6875,-15.53125
490,1727103756196,0.02734375,-1.1211548,0.34173584,-17.109375,-26.890625,4.34375
491,1727103756234,-0.1472168,-0.23980713,0.051696777,-7.640625,-7.28125,8.796875
492,1727103756274,-0.024902344,-0.043518066,-0.008117676,-7.46875,-5.546875,0.71875
493,1727103756309,-0.2705078,0.13983154,-0.04937744,-1.96875,13.390625,-11.296875
494,1727103756346,0.13745117,-0.06573486,0.022644043,0.640625,26.4375,-14.1875
495,1727103756387,-0.31591797,-1.2214966,-0.08917236,24.15625,9.21875,-12.796875
496,1727103756421,-0.43798828,-2.0,0.46014404,9.765625,26.734375,6.796875
497,1727103756459,-0.9440918,-1.9463501,0.5219116,1.9375,30.9375,6.53125
498,1727103756499,-0.24438477,-0.9690552,0.054626465,-0.59375,21.296875,10.4375
499,1727103756553,-0.12133789,-0.7839966,-0.066467285,13.59375,19.578125,-1.0625
500,1727103756593,0.103515625,-0.44708252,-0.038391113,8.78125,16.578125,18.640625
501,1727103756628,0.12524414,0.09295654,-0.023742676,-3.671875,7.0,11.921875
502,1727103756665,-0.037841797,-0.07354736,-0.02545166,-6.515625,0.59375,3.09375
503,1727103756703,0.029296875,0.03314209,0.054138184,-16.96875,-12.15625,5.0625
504,1727103756740,-0.5461426,-2.0,0.7926636,21.8125,21.9375,-97.625
505,1727103756777,0.11816406,-1.7732544,-0.005432129,-13.421875,-36.328125,25.734375
506,1727103756815,-0.71118164,-1.5640259,0.20111084,7.671875,-21.46875,5.640625
507,1727103756853,0.17651367,-1.5545044,0.5385132,-13.140625,-26.5,3.640625
508,1727103756891,-0.15600586,-0.0256958,0.015563965,-14.28125,-14.453125,10.203125
509,1727103756946,-0.021484375,0.14007568,-0.008117676,-6.296875,-3.828125,5.765625
510,1727103756985,-0.28100586,0.078063965,-0.04058838,-3.203125,10.9375,-11.703125
511,1727103757022,0.028076172,0.062194824,-0.026184082,-2.5,29.6875,-12.296875
512,1727103757060,0.09716797,-0.07305908,-0.47296143,7.15625,10.609375,-0.859375
513,1727103757096,-0.37548828,-2.0,0.7369995,-2.484375,-14.296875,-70.765625
514,1727103757134,-0.545166,-2.0,0.77752686,-3.375,10.84375,32.984375
515,1727103757175,-0.89208984,-1.3787231,0.4772339,-13.25,32.90625,-22.0
516,1727103757209,0.5673828,-0.8677368,-0.23052979,0.1875,32.25,25.296875
517,1727103757247,-0.40112305,-0.37286377,-0.05596924,14.1875,12.578125,11.53125
518,1727103757284,0.19604492,-0.35577393,0.10858154,-4.609375,6.703125,3.65625
519,1727103757322,0.23022461,0.1149292,-0.09869385,-7.5625,6.296875,8.640625
520,1727103757381,-0.05834961,0.035583496,0.03265381,-1.234375,-4.328125,8.109375
521,1727103757416,-0.009277344,-0.5654907,-0.1260376,30.375,-11.46875,2.15625
522,1727103757454,-0.15185547,-2.0,0.31488037,6.015625,-27.53125,-3.25
523,1727103757490,-0.07543945,-2.0,0.54315186,-7.96875,-16.09375,8.8125
524,1727103757529,-0.34057617,-1.4880981,0.3776245,-1.359375,-28.46875,-7.6875
525,1727103757565,-0.16088867,-0.8386841,0.25775146,-15.828125,-24.8125,0.453125
526,1727103757604,-0.080078125,-0.2625122,-0.0064086914,-5.953125,-1.234375,2.53125
527,1727103757639,-0.12182617,0.055114746,-0.18682861,1.640625,-2.046875,-1.6875
528,1727103757678,-0.053710938,0.117614746,0.024108887,6.484375,15.15625,-13.421875
529,1727103757715,0.072265625,-0.07891846,0.093688965,3.546875,24.125,-12.671875
530,1727103757753,-0.21826172,-1.173645,-0.22833252,23.3125,8.5625,-18.703125
531,1727103757809,-0.50878906,-2.0,0.711853,20.859375,15.484375,21.46875
532,1727103757846,-1.3688965,-1.9238892,0.6022339,0.375,30.078125,-3.234375
533,1727103757886,0.17114258,-1.1843872,0.124694824,-29.171875,24.078125,5.484375
534,1727103757922,-0.048095703,-0.79815674,-0.07940674,5.328125,9.28125,10.015625
535,1727103757963,0.06591797,-0.4336548,0.12957764,0.6875,6.375,19.6875
536,1727103757995,0.078125,0.09539795,-0.08746338,-0.359375,0.921875,12.515625
537,1727103758035,0.014404297,0.13690186,-0.15533447,1.328125,-9.0625,13.984375
538,1727103758071,0.068115234,-0.004211426,0.15716553,6.671875,-19.359375,7.734375
539,1727103758110,-0.5551758,-2.0,0.37078857,24.546875,10.578125,-55.578125
540,1727103758146,0.30004883,-1.9690552,0.24188232,-17.25,-10.78125,12.734375
541,1727103758203,-0.7302246,-2.0,0.35687256,-1.9375,-22.46875,21.484375
542,1727103758240,-0.16552734,-1.4495239,0.38812256,-15.34375,-22.609375,-7.03125
543,1727103758278,0.1159668,-0.45587158,0.14178467,-22.90625,-17.0,-1.84375
544,1727103758315,-0.20629883,-0.02960205,-0.069885254,-6.484375,-10.359375,13.859375
545,1727103758352,-0.076416016,0.19500732,-0.08282471,4.0,-4.75,-8.03125
546,1727103758392,-0.063964844,-0.008850098,-0.012268066,8.625,7.8125,-12.4375
547,1727103758427,0.049316406,0.04119873,0.16229248,13.953125,17.90625,-3.171875
548,1727103758466,-0.8688965,-2.0,-0.12506104,22.734375,12.3125,-71.609375
549,1727103758503,-0.047607422,-2.0,0.23016357,4.828125,17.09375,51.21875
550,1727103758540,-0.9140625,-1.5462036,0.43621826,6.265625,7.859375,13.75
551,1727103758578,-0.25390625,-1.3865356,-0.12652588,-9.1875,25.640625,13.375
552,1727103758634,0.19458008,-0.39093018,-0.02130127,8.796875,12.75,6.046875
553,1727103758672,0.20874023,-0.06744385,0.07733154,8.390625,10.265625,17.25
554,1727103758710,0.041259766,0.06121826,-0.13360596,-6.71875,-2.859375,5.34375
555,1727103758746,0.05517578,-0.043762207,-0.014953613,-1.15625,-2.75,3.40625
556,1727103758784,0.0014648438,0.04534912,-0.11383057,1.109375,-14.03125,12.203125
557,1727103758821,-0.6765137,-2.0,0.7938843,9.859375,14.578125,-89.015625
558,1727103758859,0.35424805,-2.0,0.3937378,-16.296875,-18.109375,2.0
559,1727103758897,-0.49487305,-2.0,0.4039917,5.359375,-28.125,14.921875
560,1727103758934,-0.35205078,-1.288147,0.4562378,-21.40625,-27.59375,-2.34375
561,1727103758971,0.057373047,-0.4126587,0.16448975,-8.75,-15.546875,9.0
562,1727103759028,-0.087890625,0.061462402,-0.08453369,-9.625,-16.234375,9.078125
563,1727103759065,-0.17358398,0.23724365,-0.0178833,5.375,-2.1875,-3.03125
564,1727103759102,0.078125,-0.034484863,-0.0015258789,4.484375,7.203125,-13.609375
565,1727103759139,0.18017578,0.024597168,0.2387085,8.140625,15.5625,-2.859375
566,1727103759178,-1.1745605,-2.0,-0.041809082,24.40625,8.515625,-83.953125
567,1727103759214,-0.084228516,-2.0,0.15228271,3.625,9.59375,45.609375
568,1727103759252,-0.671875,-1.4024048,0.5018921,14.0,6.625,16.890625
569,1727103759291,-0.2590332,-1.579895,0.0033569336,-15.8125,19.046875,11.09375
570,1727103759329,0.040039062,-0.5281372,0.0016479492,3.796875,7.15625,10.265625
571,1727103759366,-0.004638672,-0.19146729,0.12200928,5.015625,7.171875,15.421875
572,1727103759403,0.19970703,0.10247803,-0.14654541,-7.9375,-11.71875,15.234375
573,1727103759458,0.07910156,-0.046203613,0.010681152,-4.09375,-11.203125,3.046875
574,1727103759496,-0.0859375,-0.13726807,-0.18707275,-9.1875,-26.640625,0.859375
575,1727103759534,-0.3388672,-2.0,0.41888428,18.546875,-1.5,-55.296875
576,1727103759573,0.5336914,-2.0,0.7223511,-12.203125,-44.453125,2.734375
577,1727103759609,-0.77246094,-1.8220825,0.26849365,0.546875,-40.734375,14.75
578,1727103759647,-0.095703125,-1.274231,0.4989624,-9.0,-27.078125,0.296875
579,1727103759684,-0.122558594,-0.47369385,0.08123779,-22.515625,-24.203125,7.375
580,1727103759721,-0.078125,0.20477295,0.046081543,-3.21875,-16.5625,13.71875
581,1727103759758,-0.28637695,0.17962646,-0.16436768,8.234375,-2.09375,-6.796875
582,1727103759797,0.028076172,-0.06549072,0.0119018555,5.265625,20.78125,-23.140625
583,1727103759835,0.09399414,0.0006713867,0.25897217,10.8125,17.859375,-2.640625
584,1727103759891,-0.8010254,-2.0,0.11419678,15.078125,1.546875,-82.625
585,1727103759929,-0.041259766,-2.0,0.44940186,18.171875,10.875,42.09375
586,1727103759965,-0.6948242,-1.5864868,0.43621826,4.453125,34.25,3.140625
587,1727103760002,0.10888672,-1.2612915,-0.19390869,-14.8125,20.9375,19.171875
588,1727103760041,-0.21044922,-0.25982666,-0.077697754,10.71875,3.53125,14.1875
589,1727103760078,0.13183594,-0.12554932,0.1539917,3.828125,10.09375,12.0
590,1727103760119,0.064697266,0.2736206,-0.22467041,-7.75,1.53125,13.28125
591,1727103760171,0.053222656,-0.16607666,0.09197998,-2.59375,-4.65625,1.203125
592,1727103760190,0.0690918,-0.2144165,-0.55303955,-9.671875,-22.375,8.390625
593,1727103760321,-0.25610352,-2.0,0.61053467,24.4375,-2.40625,-49.765625
594,1727103760340,0.49047852,-2.0,0.40911865,3.4375,-27.046875,-10.109375
595,1727103760358,-0.58032227,-1.6192017,0.28631592,5.765625,-27.96875,6.046875
596,1727103760377,-0.07104492,-1.3530884,0.31781006,-20.90625,-18.3125,-13.1875
597,1727103760396,-0.0847168,-0.44317627,0.054138184,-17.25,-8.65625,15.421875
598,1727103760434,-0.14135742,0.29144287,-0.016418457,-4.96875,-4.78125,2.3125
599,1727103760471,-0.1496582,0.08929443,-0.0413208,1.84375,8.84375,-13.125
600,1727103760509,-0.039794922,-0.03765869,0.026062012,2.625,22.421875,-14.84375
601,1727103760546,0.12475586,-0.09210205,-0.38531494,8.953125,6.59375,-5.71875
602,1727103760585,-0.79541016,-2.0,0.7914429,4.21875,-4.890625,-69.21875
603,1727103760622,-1.0690918,-1.925354,0.5932007,1.765625,37.921875,19.5625
604,1727103760659,-0.38793945,-1.173645,0.31072998,-10.40625,39.59375,-26.046875
605,1727103760715,0.44873047,-1.2788696,-0.12554932,1.78125,29.59375,33.78125
606,1727103760754,-0.52441406,-0.062072754,-0.06085205,8.0625,16.984375,13.4375
607,1727103760790,0.31811523,0.043395996,-0.12579346,-2.34375,11.40625,4.890625
608,1727103760829,0.06665039,-0.06036377,-0.03668213,0.4375,3.734375,5.5
609,1727103760866,0.045410156,-0.12799072,0.09075928,-4.484375,-5.578125,3.25
610,1727103760902,0.1586914,-1.111145,0.14691162,15.140625,-16.859375,-17.15625
611,1727103760941,-0.21118164,-2.0,0.23016357,-1.875,-27.421875,4.484375
612,1727103760978,-0.328125,-2.0,0.14935303,-14.03125,-24.25,32.078125
613,1727103761016,-0.5078125,-1.5662231,0.3937378,-5.6875,-33.21875,-18.765625
614,1727103761053,0.10571289,-1.2178345,0.30926514,-13.703125,-29.3125,6.921875
615,1727103761090,-0.23413086,-0.22491455,0.28753662,-10.28125,-16.28125,11.828125
616,1727103761146,-0.16455078,0.27044678,-0.28497314,-10.578125,-6.40625,6.390625
617,1727103761186,-0.0925293,0.16937256,0.022155762,7.0625,10.5,-14.609375
618,1727103761221,-0.15014648,-0.07623291,0.085632324,9.140625,27.265625,-12.609375
619,1727103761259,0.009521484,-0.26690674,-0.4282837,14.1875,9.015625,-9.046875
620,1727103761296,-0.34716797,-2.0,0.81414795,6.828125,2.734375,-34.953125
621,1727103761334,-1.092041,-1.9487915,0.7235718,7.140625,39.125,10.5625
622,1727103761371,-0.38012695,-1.2756958,0.39569092,-15.875,38.5625,-24.921875
623,1727103761409,0.24609375,-0.83795166,-0.23077393,-5.34375,26.03125,22.375
624,1727103761446,-0.32666016,-0.17633057,-0.13165283,11.671875,20.140625,8.4375
625,1727103761484,0.35253906,-0.013977051,-0.0413208,8.453125,18.59375,2.703125
626,1727103761577,0.025146484,-0.004699707,-0.10601807,10.375,5.625,7.84375
627,1727103761599,0.08959961,-0.16412354,0.20379639,2.4375,2.484375,5.328125
628,1727103761617,-0.21679688,-1.7883911,0.23358154,26.359375,17.859375,-26.4375
629,1727103761653,0.084228516,-2.0,0.20697021,-15.625,-23.140625,17.546875
630,1727103761692,-0.657959,-2.0,0.25286865,-11.734375,-31.6875,27.59375
631,1727103761727,-0.34204102,-1.3953247,0.37176514,-2.984375,-30.796875,-11.109375
632,1727103761765,-0.021972656,-0.9265747,0.25115967,-20.328125,-33.03125,4.109375
633,1727103761803,-0.14746094,-0.04815674,0.11273193,-10.71875,-20.359375,12.75
634,1727103761841,0.0017089844,0.25457764,-0.12677002,-3.96875,-15.859375,1.546875
635,1727103761879,-0.28051758,0.062194824,-0.06329346,5.828125,7.53125,-10.4375
636,1727103761916,0.103515625,-0.13018799,0.014343262,2.765625,27.15625,-12.25
637,1727103761972,-0.45581055,-2.0,-0.06304932,16.96875,6.640625,-60.328125
638,1727103762009,-0.36791992,-2.0,0.2975464,22.375,31.875,33.421875
639,1727103762045,-0.7475586,-1.5747681,0.23602295,-2.984375,33.859375,-5.59375
640,1727103762083,0.38061523,-1.6411743,-0.036193848,-13.421875,12.265625,20.109375
641,1727103762122,-0.35351562,-0.18756104,0.22772217,8.0,8.203125,17.09375
642,1727103762163,-0.09277344,0.0038452148,0.026306152,-13.234375,13.0625,2.734375
643,1727103762215,0.2775879,0.22113037,-0.2695923,-4.40625,-0.453125,1.078125
644,1727103762233,0.25561523,-0.20465088,0.0072631836,5.390625,-9.65625,5.765625
645,1727103762309,-0.17456055,-0.06427002,-0.3406372,-3.765625,-24.828125,14.28125
646,1727103762328,-0.33422852,-2.0,0.8842163,11.515625,-8.59375,-63.53125
647,1727103762364,0.25585938,-2.0,0.4093628,-6.328125,-37.453125,-7.484375
648,1727103762404,-0.4699707,-1.7405396,0.2526245,4.828125,-38.6875,14.96875
649,1727103762440,-0.23632812,-1.3189087,0.41033936,-22.71875,-36.9375,-9.25
650,1727103762478,-0.118896484,-0.33721924,0.10687256,-19.59375,-11.84375,10.140625
651,1727103762516,-0.031982422,0.23797607,-0.1687622,-9.84375,-12.6875,8.4375
652,1727103762553,-0.12597656,0.18792725,-0.035949707,4.859375,-4.546875,-8.625
653,1727103762591,-0.041748047,-0.12896729,0.05291748,8.140625,11.90625,-11.09375
654,1727103762629,0.1574707,-0.007385254,-0.36627197,9.09375,6.484375,-1.359375
655,1727103762666,-1.1162109,-2.0,0.5961304,15.75,-9.296875,-87.109375
656,1727103762703,-0.44189453,-2.0,0.84832764,3.78125,26.671875,29.46875
657,1727103762740,-0.4885254,-1.1709595,0.3444214,-3.96875,27.546875,-16.0625
658,1727103762796,0.23535156,-1.319397,-0.21612549,-0.859375,14.625,36.453125
659,1727103762834,-0.21972656,-0.032043457,0.0524292,8.546875,10.640625,18.203125
660,1727103762870,0.004638672,-0.004211426,0.0026245117,-3.828125,12.796875,1.125
661,1727103762908,0.1928711,-0.006652832,-0.17047119,-8.421875,-1.4375,-1.8125
662,1727103762953,0.11254883,-0.1194458,0.11053467,-2.90625,-3.453125,11.03125
663,1727103762984,-0.02368164,-0.050109863,-0.5195923,-7.078125,-29.1875,4.21875
664,1727103763021,0.080566406,-2.0,0.41278076,17.640625,-25.875,-28.09375
665,1727103763061,0.13134766,-2.0,0.42181396,-5.59375,-26.46875,1.3125
666,1727103763097,-0.41870117,-1.6929321,0.46429443,7.21875,-39.46875,-3.515625
667,1727103763134,-0.10424805,-1.1817017,0.37860107,-25.90625,-35.5,-3.140625
668,1727103763172,-0.2097168,-0.15679932,0.09320068,-9.765625,-11.078125,11.453125
669,1727103763227,-0.080566406,0.20233154,-0.18804932,-8.125,-9.5625,4.03125
670,1727103763266,-0.11816406,0.18157959,-0.07989502,8.84375,9.265625,-11.4375
671,1727103763303,-0.020751953,-0.14678955,0.10614014,6.140625,24.640625,-17.390625
672,1727103763340,0.079833984,-0.008850098,0.024353027,4.5,23.9375,-2.75
673,1727103763377,-1.1210938,-2.0,0.43255615,14.09375,-34.875,-114.21875
674,1727103763414,0.064453125,-1.7617798,0.96746826,6.59375,1.234375,16.4375
675,1727103763454,-0.45947266,-1.1331177,0.39886475,-0.578125,17.90625,3.546875
676,1727103763490,0.037353516,-1.0994263,-0.13800049,-15.6875,30.8125,12.5
677,1727103763527,-0.05444336,-0.010803223,-0.077941895,11.578125,17.078125,13.09375
678,1727103763565,0.2043457,-0.016418457,-0.054504395,4.1875,2.578125,4.796875
679,1727103763621,0.084472656,-0.030822754,-0.053771973,-0.34375,-10.625,7.203125
680,1727103763658,-0.030273438,-0.13189697,0.12738037,-4.625,-4.09375,7.546875
681,1727103763697,0.10986328,-0.1375122,-0.3591919,2.25,-28.6875,5.171875
682,1727103763734,-0.3178711,-2.0,0.35882568,32.53125,-21.15625,0.109375
683,1727103763772,0.06591797,-2.0,0.5975952,-12.375,-20.953125,-2.046875
684,1727103763810,-0.45361328,-1.4876099,0.33929443,-0.15625,-31.390625,4.921875
685,1727103763849,-0.13916016,-1.0586548,0.30316162,-22.46875,-22.171875,-6.46875
686,1727103763884,0.03881836,-0.32330322,0.1239624,-14.0625,-11.421875,8.609375
687,1727103763924,-0.18945312,0.28900146,-0.18609619,-6.515625,-10.234375,3.125
688,1727103763959,-0.08105469,0.14031982,-0.022766113,10.515625,5.015625,-14.890625
689,1727103763996,-0.0056152344,-0.12652588,0.09637451,6.765625,22.21875,-14.359375
690,1727103764053,-0.095947266,-0.23809814,-0.4414673,24.15625,3.078125,-3.859375
691,1727103764090,-0.55566406,-2.0,0.67230225,6.9375,6.703125,-19.296875
692,1727103764128,-1.0881348,-2.0,0.5968628,4.34375,29.484375,-4.375
693,1727103764165,-0.3857422,-1.5615845,0.3007202,-16.53125,38.328125,-12.59375
694,1727103764204,0.119628906,-0.8284302,-0.1453247,-4.328125,17.03125,16.3125
695,1727103764240,-0.25,-0.042785645,0.059753418,2.90625,6.875,19.59375
696,1727103764279,0.25317383,0.1329956,-0.09527588,-6.671875,2.984375,-2.4375
697,1727103764315,0.07397461,-0.09844971,-0.09942627,-0.171875,-7.5,3.515625
698,1727103764352,-0.03540039,-0.010070801,0.15252686,-3.109375,-5.390625,10.015625
699,1727103764390,0.020263672,-0.7835083,-0.031799316,30.25,-29.53125,-8.09375
700,1727103764446,0.02319336,-2.0,0.2975464,19.3125,-26.015625,23.796875
701,1727103764484,-0.27026367,-2.0,0.19622803,-10.921875,-23.78125,24.6875
702,1727103764521,-0.54956055,-1.5401001,0.44818115,-1.3125,-34.34375,-6.625
703,1727103764558,-0.17871094,-0.97003174,0.20770264,-20.265625,-28.890625,1.421875
704,1727103764596,0.010253906,-0.26812744,0.18450928,-13.21875,-10.21875,5.28125
705,1727103764634,-0.21728516,0.416687,-0.20489502,-4.078125,0.6875,2.125
706,1727103764675,-0.07446289,0.047302246,-0.038146973,10.984375,12.328125,-17.453125
707,1727103764709,0.109375,-0.13677979,0.21453857,12.609375,16.53125,-14.046875
708,1727103764748,-0.46411133,-0.5664673,-0.53131104,22.84375,-12.703125,-4.390625
709,1727103764788,-0.3791504,-2.0,0.8192749,17.6875,9.453125,-9.578125
710,1727103764821,-0.9890137,-1.967102,0.47235107,8.96875,26.53125,11.71875
711,1727103764877,-0.32666016,-1.4397583,0.23626709,-9.28125,33.3125,-16.90625
712,1727103764933,-0.013671875,-0.8279419,-0.069885254,-6.765625,4.9375,26.328125
713,1727103764952,-0.14648438,-0.12359619,-0.097961426,4.359375,-2.921875,18.0625
714,1727103764990,0.25097656,-0.024963379,-0.016906738,-4.8125,-6.1875,9.96875
715,1727103765028,0.07446289,-0.038391113,-0.047912598,-4.671875,-11.625,5.09375
716,1727103765065,-0.1159668,-0.027404785,0.09124756,-4.875,-14.828125,16.703125
717,1727103765102,-0.030029297,-1.1587524,0.30999756,23.828125,-32.046875,-13.515625
718,1727103765140,-0.36816406,-2.0,0.3649292,-5.765625,-17.875,29.203125
719,1727103765177,-0.42211914,-2.0,0.27044678,-14.328125,-24.109375,13.0625
720,1727103765214,-0.5,-1.4319458,0.4262085,-7.625,-30.78125,-7.0
721,1727103765253,0.10620117,-1.039856,0.3295288,-14.90625,-21.03125,5.796875
722,1727103765308,-0.13500977,-0.0029907227,0.14569092,-11.046875,-10.796875,16.765625
723,1727103765347,-0.23168945,0.35736084,-0.25372314,0.5,-3.90625,2.875
724,1727103765384,0.0009765625,-0.032043457,-0.027893066,9.6875,10.28125,-21.421875
725,1727103765421,0.052246094,-0.15655518,0.23724365,6.328125,21.921875,-10.234375
726,1727103765461,-0.58032227,-0.9446411,-0.30255127,20.15625,2.265625,-18.25
727,1727103765496,-0.39233398,-2.0,0.47650146,9.046875,50.546875,36.625
728,1727103765545,-1.2724609,-1.8643188,0.28704834,5.34375,18.828125,0.671875
729,1727103765574,-0.026855469,-1.6829224,0.2243042,-10.546875,23.484375,-7.96875
730,1727103765608,0.09106445,-0.6333618,0.15594482,8.34375,15.734375,18.90625
731,1727103765646,-0.26904297,-0.05621338,-0.03277588,-4.0,5.140625,31.40625
732,1727103765703,0.11694336,0.17352295,-0.12872314,-12.484375,-5.828125,-9.484375
733,1727103765741,0.17626953,-0.18682861,-0.0049438477,-0.546875,-6.40625,2.34375
734,1727103765777,-0.115234375,-0.022033691,0.05682373,-13.78125,-13.8125,11.546875
735,1727103765815,-0.20336914,-2.0,0.6390991,28.09375,15.3125,-47.0625
736,1727103765852,0.026367188,-2.0,0.4257202,-18.453125,-10.921875,39.046875
737,1727103765894,-0.6713867,-1.9729614,0.082214355,-12.84375,-26.625,16.453125
738,1727103765928,-0.26879883,-1.3804321,0.46429443,-9.3125,-16.40625,-4.125
739,1727103765967,0.0625,-0.5671997,0.26239014,-13.953125,-15.75,6.515625
740,1727103766005,-0.099853516,0.09197998,0.035095215,-12.671875,-13.3125,9.875
741,1727103766043,-0.009033203,0.21453857,-0.1975708,0.15625,-0.0625,-4.40625
742,1727103766082,-0.12426758,-0.093811035,0.14178467,4.71875,11.015625,-20.140625
743,1727103766134,0.018310547,-0.10308838,-0.24786377,0.28125,-1.515625,-8.09375
744,1727103766173,-0.2980957,-2.0,0.40374756,4.296875,-0.296875,-63.546875
745,1727103766208,-0.5727539,-1.7739868,0.8161011,5.28125,22.84375,16.109375
746,1727103766248,-0.4958496,-1.5994263,0.5438843,-8.109375,24.03125,-22.734375
747,1727103766284,0.2890625,-1.3247681,0.055114746,-23.25,-1.96875,27.46875
748,1727103766321,-0.34448242,-0.22857666,0.026794434,14.15625,-5.90625,14.65625
749,1727103766361,-0.125,-0.53448486,0.2074585,-1.296875,0.4375,11.46875
750,1727103766397,0.20727539,0.20721436,-0.1897583,-1.421875,-1.625,12.375
751,1727103766434,0.06689453,-0.17144775,-0.01739502,2.828125,-15.09375,2.609375
