,Unnamed: 0,timestamp,accel_x,accel_y,accel_z,gyro_x,gyro_y,gyro_z
0,0,1727987403804,0.1796875,0.9658203,0.12207031,0.0625,-0.25,-0.1875
1,1,1727987403844,0.17382812,0.9658203,0.12402344,0.1875,0.71875,-0.0625
2,2,1727987403884,0.17285156,0.9628906,0.119140625,0.0,0.34375,0.0
3,3,1727987403924,0.17382812,0.96777344,0.12988281,0.0,-0.09375,-0.0625
4,4,1727987403964,0.18066406,0.9638672,0.12792969,0.0625,-0.09375,-0.1875
5,5,1727987404004,0.17675781,0.9609375,0.13085938,0.0625,0.34375,-0.25
6,6,1727987404044,0.171875,0.9589844,0.123046875,0.0,-0.09375,-0.0625
7,7,1727987404084,0.17382812,0.96777344,0.107421875,-0.28125,-0.03125,0.0625
8,8,1727987404124,0.18066406,0.9638672,0.12695312,0.0,-0.03125,-0.125
9,9,1727987404164,0.17773438,0.9609375,0.123046875,0.0625,0.09375,-0.1875
10,10,1727987404204,0.17285156,0.9589844,0.125,0.0,-0.09375,-0.125
11,11,1727987404244,0.17480469,0.9511719,0.12011719,-0.1875,-0.3125,-0.0625
12,12,1727987404284,0.17382812,0.9638672,0.1328125,-0.40625,-0.25,-0.375
13,13,1727987404324,0.17773438,0.96777344,0.12207031,-0.1875,0.28125,0.0625
14,14,1727987404364,0.17675781,0.96191406,0.125,-0.40625,-0.03125,0.0625
15,15,1727987404404,0.18457031,0.95996094,0.13183594,-0.0625,-0.1875,-0.0625
16,16,1727987404444,0.18847656,0.9580078,0.12988281,-0.21875,-0.1875,-0.125
17,17,1727987404484,0.17578125,0.95996094,0.123046875,-0.0625,-0.125,-0.125
18,18,1727987404524,0.16796875,0.9658203,0.12011719,0.0,-0.125,-0.125
19,19,1727987404564,0.17480469,0.96777344,0.13085938,-0.40625,-0.4375,-0.0625
20,20,1727987404604,0.17089844,0.9638672,0.13769531,-0.46875,-0.03125,0.0
21,21,1727987404644,0.17480469,0.95703125,0.125,-0.40625,0.15625,0.0
22,22,1727987404684,0.17871094,0.9589844,0.12011719,-0.34375,-0.09375,-0.125
23,23,1727987404724,0.17285156,0.9638672,0.13671875,-0.28125,-0.375,-0.1875
24,24,1727987404764,0.1796875,0.95410156,0.1171875,0.25,-0.1875,-0.1875
25,25,1727987404804,0.17285156,0.96191406,0.115234375,-0.28125,0.03125,0.0625
26,26,1727987404844,0.17480469,0.95703125,0.12695312,-0.1875,-0.09375,-0.0625
27,27,1727987404884,0.17285156,0.9658203,0.12597656,-0.0625,-0.25,0.0
28,28,1727987404924,0.16992188,0.96875,0.12792969,0.125,-0.09375,-0.1875
29,29,1727987404964,0.17871094,0.96972656,0.12890625,0.0625,-0.125,-0.0625
30,30,1727987405004,0.1796875,0.9658203,0.1328125,0.1875,-0.1875,-0.0625
31,31,1727987405044,0.17089844,0.96191406,0.123046875,0.3125,-0.1875,-0.375
32,32,1727987405084,0.16601562,0.9746094,0.13183594,0.0,0.03125,-0.0625
33,33,1727987405124,0.17285156,0.953125,0.12011719,-0.125,0.03125,0.0
34,34,1727987405164,0.17578125,0.96875,0.12695312,-0.1875,-0.09375,0.0625
35,35,1727987405204,0.17871094,0.95410156,0.125,-0.1875,-0.09375,-0.125
36,36,1727987405244,0.18066406,0.96875,0.12988281,0.0,-0.09375,-0.1875
37,37,1727987405284,0.17578125,0.9667969,0.12597656,0.3125,-0.25,-0.0625
38,38,1727987405324,0.17089844,0.9638672,0.1171875,-0.0625,-0.09375,-0.125
39,39,1727987405364,0.16992188,0.95410156,0.13085938,0.0,0.03125,0.0
40,40,1727987405404,0.18652344,0.9638672,0.13183594,-0.0625,-0.1875,-0.1875
41,41,1727987405444,0.16503906,0.9560547,0.13183594,-0.28125,0.21875,-0.1875
42,42,1727987405484,0.17480469,0.9628906,0.1171875,-0.21875,0.15625,-0.1875
43,43,1727987405524,0.18164062,0.9560547,0.12988281,-0.0625,0.03125,0.0
44,44,1727987405564,0.18261719,0.9550781,0.12890625,0.0625,-0.3125,-0.125
45,45,1727987405604,0.18066406,0.96191406,0.12792969,0.125,-0.09375,-0.125
46,46,1727987405644,0.17871094,0.96777344,0.1328125,0.0,0.03125,-0.1875
47,47,1727987405684,0.17871094,0.96191406,0.123046875,-0.0625,-0.03125,0.0625
48,48,1727987405724,0.17675781,0.9609375,0.123046875,-0.28125,-0.03125,0.0
49,49,1727987405764,0.16894531,0.96191406,0.11816406,0.1875,-0.125,-0.125
50,50,1727987405804,0.17871094,0.96777344,0.12011719,0.0,0.15625,-0.0625
51,51,1727987405844,0.15917969,0.9638672,0.12109375,0.4375,-0.1875,-0.0625
52,52,1727987405884,0.17871094,0.96484375,0.13476562,0.125,-0.3125,-0.125
53,53,1727987405924,0.18457031,0.9628906,0.12792969,0.0625,-0.03125,-0.3125
54,54,1727987405964,0.17089844,0.9667969,0.12695312,-0.28125,-0.03125,-0.125
55,55,1727987406004,0.17285156,0.96484375,0.13476562,-0.21875,-0.03125,0.0
56,56,1727987406044,0.1796875,0.9658203,0.119140625,0.0,0.03125,-0.0625
57,57,1727987406084,0.16992188,0.96191406,0.11621094,0.125,-0.03125,-0.3125
58,58,1727987406124,0.18261719,0.9609375,0.1171875,0.3125,-0.1875,-0.25
59,59,1727987406164,0.17675781,0.96972656,0.12695312,0.1875,-0.1875,-0.25
60,60,1727987406204,0.17578125,0.9638672,0.12988281,-0.1875,0.03125,-0.0625
61,61,1727987406244,0.17773438,0.96875,0.11425781,0.0,0.03125,-0.25
62,62,1727987406284,0.1796875,0.95996094,0.11425781,-0.0625,-0.25,-0.125
63,63,1727987406324,0.171875,0.95996094,0.13574219,-0.28125,0.15625,-0.0625
64,64,1727987406364,0.18261719,0.9667969,0.12792969,0.1875,0.03125,-0.25
65,65,1727987406404,0.17773438,0.9589844,0.1328125,-0.0625,0.09375,0.0
66,66,1727987406444,0.17285156,0.9609375,0.12695312,-0.0625,-0.3125,-0.1875
67,67,1727987406484,0.17382812,0.9628906,0.11816406,0.25,-0.4375,-0.1875
68,68,1727987406524,0.17675781,0.96875,0.1328125,-0.21875,0.15625,-0.125
69,69,1727987406564,0.17089844,0.9580078,0.12207031,-0.34375,-0.03125,0.0625
70,70,1727987406604,0.17871094,0.96484375,0.13085938,0.0,0.09375,-0.1875
71,71,1727987406644,0.17089844,0.9658203,0.1328125,0.25,-0.125,-0.25
72,72,1727987406684,0.17480469,0.9589844,0.123046875,0.125,-0.09375,-0.125
73,73,1727987406724,0.16894531,0.96484375,0.13183594,0.5,-0.125,-0.0625
74,74,1727987406764,0.17578125,0.9589844,0.12011719,-0.0625,-0.3125,-0.1875
75,75,1727987406804,0.17480469,0.96191406,0.12402344,0.0,0.15625,-0.125
76,76,1727987406844,0.17089844,0.9628906,0.13085938,-0.0625,-0.125,0.0
77,77,1727987406884,0.18066406,0.9638672,0.13476562,-0.1875,0.09375,-0.125
78,78,1727987406924,0.1796875,0.9580078,0.125,0.1875,-0.125,0.0
79,79,1727987406964,0.18066406,0.9638672,0.107421875,0.1875,-0.09375,-0.125
80,80,1727987407004,0.17089844,0.96875,0.13476562,0.125,-0.03125,0.0
81,81,1727987407044,0.1796875,0.9580078,0.12597656,0.1875,-0.09375,-0.125
82,82,1727987407084,0.16894531,0.95996094,0.12792969,-0.0625,-0.1875,-0.125
83,83,1727987407124,0.17480469,0.96191406,0.125,-0.28125,0.03125,-0.125
84,84,1727987407164,0.17285156,0.9628906,0.12988281,-0.0625,0.28125,0.0
85,85,1727987407204,0.17578125,0.95703125,0.12792969,0.0,-0.125,-0.125
86,86,1727987407244,0.16699219,0.96777344,0.123046875,-0.1875,-0.09375,0.0
87,87,1727987407284,0.17480469,0.9609375,0.13085938,0.0,0.03125,-0.0625
88,88,1727987407324,0.17675781,0.9550781,0.11230469,0.25,0.09375,-0.0625
89,89,1727987407364,0.17382812,0.9589844,0.1171875,0.0625,-0.25,-0.1875
90,90,1727987407404,0.17871094,0.95996094,0.12109375,0.0,-0.1875,0.0
91,91,1727987407444,0.17480469,0.9580078,0.12890625,0.25,-0.1875,-0.375
92,92,1727987407484,0.17578125,0.9638672,0.115234375,0.3125,-0.03125,-0.25
93,93,1727987407524,0.17871094,0.9589844,0.12109375,0.0,0.09375,-0.0625
94,94,1727987407564,0.17578125,0.9628906,0.119140625,-0.125,0.09375,0.0625
95,95,1727987407604,0.17382812,0.9609375,0.12011719,-0.125,-0.1875,-0.0625
96,96,1727987407644,0.18164062,0.9638672,0.11816406,0.0,-0.03125,-0.1875
97,97,1727987407684,0.17382812,0.9658203,0.12695312,0.125,-0.09375,-0.0625
98,98,1727987407724,0.17285156,0.96972656,0.12597656,0.375,-0.3125,-0.0625
99,99,1727987407764,0.1875,0.96777344,0.11035156,0.0,-0.1875,-0.1875
100,100,1727987407804,0.17773438,0.9658203,0.12695312,0.0625,0.15625,-0.1875
101,101,1727987407844,0.17578125,0.96191406,0.13183594,-0.0625,0.03125,0.0
102,102,1727987407884,0.17871094,0.9589844,0.1328125,-0.1875,-0.125,-0.0625
103,103,1727987407924,0.16894531,0.9638672,0.11035156,-0.0625,-0.25,-0.1875
104,104,1727987407964,0.1796875,0.95996094,0.12890625,0.0625,0.09375,-0.1875
105,105,1727987408004,0.17773438,0.9658203,0.11035156,-0.0625,-0.3125,-0.1875
106,106,1727987408044,0.18359375,0.9658203,0.12695312,-0.21875,-0.03125,0.0625
107,107,1727987408084,0.17578125,0.9589844,0.11621094,-0.0625,-0.03125,-0.0625
108,108,1727987408124,0.18359375,0.9550781,0.12207031,-0.125,-0.3125,-0.125
109,109,1727987408164,0.17089844,0.9658203,0.11621094,-0.40625,0.40625,0.0
110,110,1727987408204,0.17285156,0.9658203,0.13085938,0.25,0.09375,-0.0625
111,111,1727987408244,0.18066406,0.96191406,0.125,0.0,-0.1875,-0.0625
112,112,1727987408284,0.17480469,0.9628906,0.123046875,0.25,-0.375,-0.3125
113,113,1727987408324,0.17578125,0.9638672,0.13476562,0.0,-0.125,0.0
114,114,1727987408364,0.16601562,0.96191406,0.11328125,-0.40625,0.15625,-0.0625
115,115,1727987408404,0.17578125,0.95996094,0.13671875,-0.1875,-0.25,0.0625
116,116,1727987408444,0.17285156,0.9560547,0.12988281,-0.34375,-0.3125,-0.125
117,117,1727987408484,0.17871094,0.95703125,0.123046875,0.125,-0.09375,-0.125
118,118,1727987408524,0.17578125,0.9638672,0.13671875,-0.125,-0.03125,-0.25
119,119,1727987408564,0.17480469,0.96191406,0.12207031,-0.0625,-0.25,0.0
120,120,1727987408604,0.17675781,0.96972656,0.12109375,-0.0625,-0.25,-0.0625
121,121,1727987408644,0.16601562,0.9638672,0.14355469,-0.21875,0.15625,-0.3125
122,122,1727987408684,0.171875,0.9667969,0.12792969,-0.34375,-0.125,-0.0625
123,123,1727987408724,0.15625,0.95410156,0.13183594,-0.1875,-0.1875,0.125
124,124,1727987408764,0.17578125,0.9638672,0.12011719,-0.0625,-0.1875,-0.25
125,125,1727987408804,0.17773438,0.9638672,0.123046875,0.0,0.09375,-0.3125
126,126,1727987408844,0.17675781,0.95996094,0.12890625,-0.1875,-0.09375,-0.0625
127,127,1727987408884,0.171875,0.9580078,0.12402344,-0.21875,-0.125,-0.0625
128,128,1727987408924,0.17285156,0.96484375,0.12109375,-0.21875,-0.09375,-0.125
129,129,1727987408964,0.171875,0.9638672,0.11621094,-0.0625,-0.09375,-0.0625
130,130,1727987409004,0.18066406,0.96777344,0.125,-0.28125,-0.03125,-0.125
131,131,1727987409044,0.17773438,0.9658203,0.12792969,-0.1875,-0.09375,-0.1875
132,132,1727987409084,0.17871094,0.96972656,0.11621094,-0.28125,0.21875,0.0
133,133,1727987409124,0.1796875,0.95996094,0.119140625,0.0,0.09375,-0.1875
134,134,1727987409164,0.17089844,0.96875,0.12890625,0.125,-0.25,-0.25
135,135,1727987409204,0.171875,0.96484375,0.13476562,0.25,0.03125,-0.3125
136,136,1727987409244,0.17578125,0.9658203,0.12988281,-0.21875,0.03125,0.0
137,137,1727987409284,0.17480469,0.9560547,0.13574219,0.125,0.03125,0.0625
138,138,1727987409324,0.18261719,0.9658203,0.12890625,0.0,-0.125,-0.3125
139,139,1727987409364,0.17773438,0.95996094,0.11816406,-0.0625,0.03125,-0.0625
140,140,1727987409404,0.17578125,0.9609375,0.13085938,0.375,0.09375,-0.1875
141,141,1727987409444,0.1796875,0.95996094,0.119140625,0.1875,-0.3125,-0.125
142,142,1727987409484,0.17578125,0.9609375,0.12890625,0.0625,-0.03125,-0.3125
143,143,1727987409524,0.171875,0.9658203,0.12695312,0.375,-0.09375,-0.25
144,144,1727987409564,0.17675781,0.96777344,0.13574219,-0.1875,0.03125,0.0625
145,145,1727987409604,0.17773438,0.9580078,0.12792969,0.0,0.03125,-0.125
146,146,1727987409644,0.18164062,0.96484375,0.11328125,-0.0625,-0.1875,-0.0625
147,147,1727987409684,0.16992188,0.9609375,0.13183594,-0.0625,0.09375,-0.1875
148,148,1727987409724,0.17578125,0.9628906,0.13671875,0.125,-0.125,-0.3125
149,149,1727987409764,0.17871094,0.9658203,0.13085938,-0.125,-0.25,-0.125
150,150,1727987409804,0.16894531,0.9609375,0.13085938,-0.1875,0.09375,-0.125
151,151,1727987409844,0.16894531,0.96777344,0.111328125,0.0,0.09375,-0.125
152,152,1727987409884,0.1796875,0.9589844,0.12011719,0.0625,-0.09375,-0.1875
153,153,1727987409924,0.17578125,0.9609375,0.12011719,-0.21875,-0.09375,0.0625
154,154,1727987409964,0.17382812,0.96972656,0.13085938,-0.0625,0.15625,-0.3125
155,155,1727987410004,0.18066406,0.9638672,0.13964844,0.0,0.03125,-0.0625
156,156,1727987410044,0.17382812,0.9667969,0.119140625,0.0,-0.1875,-0.1875
157,157,1727987410084,0.171875,0.9628906,0.12695312,0.1875,-0.25,-0.125
158,158,1727987410124,0.16894531,0.9628906,0.13085938,-0.0625,0.09375,-0.125
159,159,1727987410164,0.17578125,0.95996094,0.13183594,-0.125,-0.03125,-0.0625
160,160,1727987410204,0.1796875,0.9580078,0.13183594,-0.0625,-0.09375,-0.0625
161,161,1727987410244,0.1796875,0.96191406,0.12402344,0.4375,-0.125,-0.25
162,162,1727987410284,0.17285156,0.9589844,0.13183594,0.0625,-0.03125,-0.0625
163,163,1727987410324,0.16992188,0.9589844,0.13183594,0.375,0.125,0.0
164,164,1727987410364,0.16796875,0.9707031,0.13183594,-0.09375,-0.0625,-0.0625
165,165,1727987410404,0.17578125,0.95996094,0.119140625,-0.03125,0.0625,0.0625
166,166,1727987410444,0.17285156,0.9638672,0.115234375,-0.09375,0.125,0.0625
167,167,1727987410484,0.1796875,0.9628906,0.115234375,-0.34375,0.0,0.125
168,168,1727987410524,0.171875,0.9589844,0.115234375,-0.09375,0.0,0.0
169,169,1727987410564,0.18066406,0.9589844,0.13085938,0.125,0.0625,0.0625
170,170,1727987410604,0.17089844,0.9609375,0.13085938,0.0,0.0,-0.0625
171,171,1727987410644,0.18261719,0.9628906,0.12988281,0.125,-0.25,0.0625
172,172,1727987410684,0.1796875,0.96972656,0.12402344,-0.21875,0.1875,0.0625
173,173,1727987410724,0.15917969,0.9628906,0.13183594,-0.21875,0.125,0.0625
174,174,1727987410764,0.18652344,0.95996094,0.12597656,0.0625,-0.1875,0.0
175,175,1727987410804,0.17871094,0.9667969,0.13476562,-0.21875,0.0,0.125
176,176,1727987410844,0.17578125,0.9658203,0.13085938,-0.03125,0.0625,-0.0625
177,177,1727987410884,0.17578125,0.9628906,0.12695312,-0.28125,0.0,0.1875
178,178,1727987410924,0.18164062,0.96875,0.12597656,0.0,-0.0625,-0.3125
179,179,1727987410964,0.171875,0.96191406,0.13183594,0.0,-0.125,0.0
180,180,1727987411004,0.1796875,0.9580078,0.12109375,-0.21875,0.3125,0.125
181,181,1727987411044,0.1796875,0.9580078,0.12011719,-0.09375,0.0625,0.125
182,182,1727987411084,0.1796875,0.9501953,0.119140625,-0.15625,-0.125,0.0625
183,183,1727987411124,0.17480469,0.95703125,0.12890625,0.125,0.125,-0.1875
184,184,1727987411164,0.17285156,0.9716797,0.12695312,-0.03125,0.1875,0.0
185,185,1727987411204,0.17871094,0.9580078,0.12597656,0.125,-0.1875,0.0625
186,186,1727987411244,0.17480469,0.9580078,0.12011719,0.0,0.0,-0.0625
187,187,1727987411284,0.171875,0.96972656,0.12109375,0.0,0.1875,-0.125
188,188,1727987411324,0.17578125,0.9658203,0.12695312,-0.15625,-0.125,0.0625
189,189,1727987411364,0.16601562,0.9580078,0.12792969,-0.09375,0.1875,0.1875
190,190,1727987411404,0.17578125,0.96777344,0.12597656,-0.15625,0.0,-0.0625
191,191,1727987411444,0.18066406,0.953125,0.11816406,0.4375,-0.0625,-0.0625
192,192,1727987411484,0.16796875,0.9609375,0.10253906,0.25,0.125,-0.0625
193,193,1727987411524,0.16992188,0.96972656,0.12109375,-0.09375,0.0,0.0
194,194,1727987411564,0.17480469,0.95996094,0.13378906,-0.09375,-0.0625,0.0
195,195,1727987411604,0.17480469,0.96191406,0.12207031,-0.21875,0.0,-0.1875
196,196,1727987411644,0.17480469,0.9589844,0.12792969,-0.28125,-0.0625,-0.0625
197,197,1727987411684,0.16796875,0.96191406,0.125,-0.21875,0.1875,0.25
198,198,1727987411724,0.17578125,0.9609375,0.12695312,-0.28125,0.1875,-0.0625
199,199,1727987411764,0.18261719,0.96484375,0.12597656,-0.15625,-0.125,0.0625
200,200,1727987411804,0.16601562,0.9609375,0.12792969,0.1875,-0.125,-0.125
201,201,1727987411844,0.17871094,0.9580078,0.11816406,-0.03125,0.125,-0.0625
202,202,1727987411884,0.18164062,0.96972656,0.12988281,-0.21875,0.125,0.0625
203,203,1727987411924,0.17675781,0.95703125,0.12109375,-0.21875,0.0625,0.0
204,204,1727987411964,0.17773438,0.9638672,0.12402344,-0.28125,0.0,0.0
205,205,1727987412004,0.171875,0.9589844,0.13867188,0.125,-0.1875,0.0
206,206,1727987412044,0.18066406,0.96191406,0.12207031,0.0,0.1875,0.0625
207,207,1727987412084,0.16894531,0.95703125,0.12695312,0.0,0.0,-0.125
208,208,1727987412124,0.16796875,0.96777344,0.12695312,-0.03125,0.0625,-0.0625
209,209,1727987412164,0.16992188,0.95996094,0.11816406,0.0625,0.0625,0.0
210,210,1727987412204,0.17773438,0.95996094,0.1328125,-0.28125,-0.0625,0.0
211,211,1727987412244,0.16894531,0.9589844,0.1171875,-0.03125,0.0625,0.0625
212,212,1727987412284,0.17675781,0.95703125,0.11230469,-0.03125,0.125,-0.0625
213,213,1727987412324,0.17089844,0.95214844,0.12890625,0.0,0.3125,0.0625
214,214,1727987412364,0.18164062,0.9667969,0.12890625,0.0625,-0.0625,0.0
215,215,1727987412404,0.17285156,0.96875,0.12597656,0.3125,0.125,0.0625
216,216,1727987412444,0.17285156,0.9609375,0.12792969,0.0625,-0.125,-0.0625
217,217,1727987412484,0.17578125,0.9707031,0.12109375,0.0625,-0.0625,0.0
218,218,1727987412524,0.1640625,0.96777344,0.125,-0.21875,0.40625,0.125
219,219,1727987412564,0.16601562,0.96191406,0.12695312,-0.40625,0.375,0.0625
220,220,1727987412604,0.17089844,0.9580078,0.11621094,-0.03125,0.25,0.1875
221,221,1727987412644,0.16894531,0.9628906,0.12011719,0.0,-0.3125,-0.1875
222,222,1727987412684,0.17382812,0.95996094,0.1171875,0.125,-0.0625,0.0
223,223,1727987412724,0.16992188,0.96875,0.123046875,-0.03125,0.3125,0.125
224,224,1727987412764,0.18066406,0.9550781,0.12695312,-0.15625,0.0,0.0625
225,225,1727987412804,0.17871094,0.9589844,0.12695312,-0.40625,-0.125,0.0625
226,226,1727987412844,0.171875,0.9638672,0.13671875,0.125,0.0,0.0
227,227,1727987412884,0.1796875,0.9667969,0.125,0.0625,0.3125,0.125
228,228,1727987412924,0.18457031,0.9638672,0.123046875,0.3125,-0.1875,-0.0625
229,229,1727987412964,0.16894531,0.9658203,0.12402344,0.3125,-0.1875,-0.0625
230,230,1727987413004,0.16894531,0.96875,0.13183594,0.0,0.1875,-0.25
231,231,1727987413044,0.17578125,0.9609375,0.12207031,0.0625,0.0,-0.125
232,232,1727987413084,0.171875,0.9628906,0.11816406,0.0625,0.25,0.125
233,233,1727987413124,0.17773438,0.96972656,0.119140625,-0.09375,0.0,0.0
234,234,1727987413164,0.1796875,0.9580078,0.123046875,0.125,0.1875,-0.1875
235,235,1727987413204,0.16699219,0.9501953,0.12011719,0.25,0.0,-0.0625
236,236,1727987413244,0.17578125,0.9638672,0.11230469,0.6875,-0.4375,-0.125
237,237,1727987413284,0.171875,0.9638672,0.12109375,-0.09375,0.1875,0.0625
238,238,1727987413324,0.17773438,0.9550781,0.123046875,0.125,0.3125,-0.1875
239,239,1727987413364,0.17871094,0.96875,0.123046875,0.25,0.25,0.0625
240,240,1727987413404,0.1796875,0.9580078,0.12695312,0.375,-0.125,-0.125
241,241,1727987413444,0.17871094,0.96191406,0.10839844,0.5,-0.125,0.0625
242,242,1727987413484,0.17285156,0.9589844,0.11621094,0.1875,0.0,-0.0625
243,243,1727987413524,0.1640625,0.9628906,0.12988281,0.125,-0.125,-0.125
244,244,1727987413564,0.16992188,0.9667969,0.11816406,-0.03125,-0.0625,0.0625
245,245,1727987413604,0.17285156,0.9638672,0.13183594,0.1875,-0.0625,0.0
246,246,1727987413644,0.17089844,0.9560547,0.11816406,0.5,0.25,-0.0625
247,247,1727987413684,0.17285156,0.9589844,0.12011719,0.5,-0.125,-0.125
248,248,1727987413724,0.18261719,0.9667969,0.12988281,0.3125,-0.0625,-0.25
249,249,1727987413764,0.18164062,0.96191406,0.11816406,0.25,0.0,-0.125
250,250,1727987413804,0.17578125,0.96875,0.11035156,0.0625,0.0,0.0
251,251,1727987413844,0.17773438,0.95996094,0.12890625,0.125,0.0625,0.125
252,252,1727987413884,0.18066406,0.9667969,0.107421875,-0.03125,0.0625,0.125
253,253,1727987413924,0.1640625,0.95410156,0.12695312,-0.03125,0.0625,-0.125
254,254,1727987413964,0.1796875,0.9550781,0.12402344,0.1875,0.0625,0.0
255,255,1727987414004,0.17285156,0.9658203,0.12207031,0.3125,-0.25,-0.1875
256,256,1727987414044,0.16894531,0.96777344,0.11230469,-0.03125,0.1875,0.0
257,257,1727987414084,0.17773438,0.95214844,0.11621094,0.0,0.125,0.0
258,258,1727987414124,0.17382812,0.9638672,0.115234375,0.0625,0.25,0.1875
259,259,1727987414164,0.17871094,0.96777344,0.12597656,-0.09375,0.0,-0.125
260,260,1727987414204,0.17285156,0.9667969,0.11230469,0.125,-0.125,-0.0625
261,261,1727987414244,0.17285156,0.9609375,0.11621094,0.0,0.375,-0.1875
262,262,1727987414284,0.16992188,0.9638672,0.123046875,-0.09375,0.0,0.0625
263,263,1727987414324,0.18164062,0.9658203,0.12597656,-0.03125,-0.25,0.0
264,264,1727987414364,0.17773438,0.9716797,0.12988281,0.25,-0.0625,0.0625
265,265,1727987414404,0.17773438,0.953125,0.12402344,0.125,0.0625,0.0
266,266,1727987414444,0.17578125,0.96191406,0.12207031,0.8125,-0.0625,0.0
267,267,1727987414484,0.17285156,0.9628906,0.111328125,0.3125,-0.1875,-0.25
268,268,1727987414524,0.171875,0.9707031,0.1171875,0.0625,-0.1875,-0.1875
269,269,1727987414564,0.171875,0.96777344,0.11425781,0.1875,0.0,-0.0625
270,270,1727987414604,0.16992188,0.9658203,0.11230469,-0.28125,0.0,0.1875
271,271,1727987414644,0.17675781,0.9638672,0.11621094,-0.09375,0.125,-0.125
272,272,1727987414684,0.17871094,0.95410156,0.13183594,-0.21875,-0.25,0.1875
273,273,1727987414724,0.16992188,0.9707031,0.11621094,-0.03125,0.125,0.0625
274,274,1727987414764,0.16992188,0.9628906,0.12988281,-0.03125,-0.125,-0.0625
275,275,1727987414804,0.17871094,0.96777344,0.11230469,-0.09375,-0.375,0.0
276,276,1727987414844,0.16894531,0.96191406,0.12109375,-0.03125,0.40625,0.0625
277,277,1727987414884,0.17480469,0.97265625,0.1171875,0.0,0.1875,0.0
278,278,1727987414924,0.18066406,0.9667969,0.1171875,-0.28125,-0.3125,0.0625
279,279,1727987414964,0.18457031,0.9560547,0.123046875,-0.15625,-0.25,0.0
280,280,1727987415004,0.16699219,0.9667969,0.11425781,-0.09375,0.0625,-0.0625
281,281,1727987415044,0.171875,0.9609375,0.11816406,-0.28125,0.25,0.0
282,282,1727987415084,0.17382812,0.9638672,0.12207031,-0.21875,0.0625,0.1875
283,283,1727987415124,0.17382812,0.95996094,0.12988281,-0.09375,-0.125,0.0
284,284,1727987415164,0.17285156,0.9638672,0.12109375,0.375,-0.0625,0.0
285,285,1727987415204,0.16796875,0.95703125,0.12402344,-0.03125,0.0625,-0.125
286,286,1727987415244,0.17675781,0.9580078,0.11035156,-0.09375,-0.3125,0.0625
287,287,1727987415284,0.17285156,0.96875,0.11425781,-0.21875,-0.125,0.0
288,288,1727987415324,0.17480469,0.9609375,0.12109375,-0.03125,0.375,-0.0625
289,289,1727987415364,0.171875,0.9765625,0.12695312,-0.09375,-0.125,0.0
290,290,1727987415404,0.18066406,0.9628906,0.11328125,-0.09375,-0.125,-0.0625
291,291,1727987415444,0.17089844,0.9638672,0.11425781,0.25,-0.25,-0.3125
292,292,1727987415484,0.17382812,0.96972656,0.10058594,0.1875,-0.125,-0.125
293,293,1727987415524,0.17675781,0.96191406,0.12402344,0.375,0.125,-0.1875
294,294,1727987415564,0.17285156,0.96484375,0.10449219,0.0625,0.0625,-0.1875
295,295,1727987415604,0.171875,0.97265625,0.107421875,-0.09375,0.0,0.0
296,296,1727987415644,0.171875,0.96875,0.111328125,0.125,-0.3125,-0.125
297,297,1727987415684,0.17285156,0.9589844,0.119140625,-0.28125,0.125,0.0625
298,298,1727987415724,0.17871094,0.96484375,0.111328125,-0.03125,0.25,-0.0625
299,299,1727987415764,0.1796875,0.9628906,0.12402344,-0.21875,-0.125,0.0
300,300,1727987415804,0.17675781,0.96875,0.12109375,-0.21875,-0.125,-0.125
301,301,1727987415844,0.17285156,0.9628906,0.11621094,0.1875,0.0625,-0.0625
302,302,1727987415884,0.17675781,0.96191406,0.10839844,0.0625,0.0625,-0.1875
303,303,1727987415924,0.16796875,0.9609375,0.111328125,-0.09375,-0.0625,-0.0625
304,304,1727987415964,0.17480469,0.9609375,0.10449219,0.0,-0.25,0.0625
305,305,1727987416004,0.17285156,0.95996094,0.11425781,0.4375,0.0625,0.0
306,306,1727987416044,0.17285156,0.9658203,0.12109375,-0.03125,0.3125,-0.1875
307,307,1727987416084,0.18261719,0.96777344,0.12011719,0.0625,-0.25,0.0625
308,308,1727987416124,0.1640625,0.9589844,0.12109375,-0.03125,0.0,-0.0625
309,309,1727987416164,0.17382812,0.9628906,0.1171875,-0.03125,0.1875,-0.1875
310,310,1727987416204,0.16992188,0.9589844,0.11230469,-0.15625,0.0,-0.0625
311,311,1727987416244,0.17578125,0.9550781,0.10644531,-0.09375,-0.0625,-0.0625
312,312,1727987416284,0.171875,0.95996094,0.11816406,-0.09375,0.0,-0.0625
313,313,1727987416324,0.171875,0.9667969,0.10253906,-0.15625,0.0,0.0625
314,314,1727987416364,0.171875,0.96484375,0.115234375,-0.09375,0.0,-0.0625
315,315,1727987416404,0.17285156,0.95996094,0.115234375,-0.09375,0.0,0.0
316,316,1727987416444,0.17089844,0.9628906,0.11035156,0.0625,0.0625,-0.125
317,317,1727987416484,0.17480469,0.9550781,0.119140625,0.0625,-0.25,-0.0625
318,318,1727987416524,0.16308594,0.96972656,0.11328125,-0.09375,0.125,0.125
319,319,1727987416564,0.17382812,0.9609375,0.1015625,-0.28125,0.0,0.0625
320,320,1727987416604,0.17675781,0.96875,0.107421875,-0.59375,0.0,0.0
321,321,1727987416644,0.17578125,0.953125,0.12207031,-0.21875,0.0625,-0.125
322,322,1727987416684,0.17285156,0.9667969,0.12695312,-0.09375,-0.1875,0.0
323,323,1727987416724,0.18066406,0.9628906,0.12792969,-0.09375,0.0625,0.0625
324,324,1727987416764,0.16308594,0.9638672,0.12207031,-0.34375,-0.0625,0.125
325,325,1727987416804,0.17480469,0.9589844,0.10839844,-0.09375,-0.1875,0.0625
326,326,1727987416844,0.17089844,0.96777344,0.12207031,0.1875,0.0625,-0.125
327,327,1727987416884,0.17089844,0.95214844,0.11425781,-0.03125,0.0625,0.0
328,328,1727987416924,0.17773438,0.9609375,0.11621094,0.1875,0.0625,0.1875
329,329,1727987416964,0.18066406,0.95996094,0.119140625,0.0625,-0.25,-0.0625
330,330,1727987417004,0.16992188,0.96972656,0.1015625,0.375,-0.125,0.0625
331,331,1727987417044,0.16601562,0.9658203,0.107421875,-0.09375,0.1875,0.0625
332,332,1727987417084,0.17382812,0.9609375,0.1171875,-0.34375,0.0625,0.3125
333,333,1727987417124,0.17089844,0.9550781,0.11816406,-0.59375,0.1875,0.125
334,334,1727987417164,0.17480469,0.9638672,0.11328125,-0.34375,-0.1875,0.0625
335,335,1727987417204,0.17382812,0.9550781,0.109375,-0.15625,-0.0625,0.0625
336,336,1727987417244,0.171875,0.9580078,0.1328125,0.3125,0.25,-0.125
337,337,1727987417284,0.17285156,0.9580078,0.12207031,0.25,-0.1875,-0.125
338,338,1727987417324,0.17578125,0.96972656,0.10644531,0.0625,-0.125,0.0625
339,339,1727987417364,0.16503906,0.96191406,0.11328125,0.0,0.0625,-0.1875
340,340,1727987417404,0.17480469,0.9580078,0.1171875,-0.09375,0.0625,0.0625
341,341,1727987417444,0.16601562,0.96777344,0.10644531,0.0,0.125,-0.0625
342,342,1727987417484,0.16992188,0.9658203,0.10839844,-0.28125,0.125,0.0625
343,343,1727987417524,0.17089844,0.9589844,0.111328125,-0.21875,-0.0625,0.125
344,344,1727987417564,0.16308594,0.9560547,0.10546875,-0.03125,0.1875,0.1875
345,345,1727987417604,0.16601562,0.95410156,0.1171875,0.0625,0.25,0.0625
346,346,1727987417644,0.17089844,0.9658203,0.10839844,-0.15625,-0.3125,0.0625
347,347,1727987417684,0.17285156,0.9638672,0.123046875,-0.03125,0.1875,-0.1875
348,348,1727987417724,0.17382812,0.95996094,0.115234375,-0.15625,-0.1875,0.0625
349,349,1727987417764,0.16601562,0.96777344,0.115234375,-0.09375,0.0625,0.1875
350,350,1727987417804,0.16894531,0.9580078,0.12207031,0.0,-0.125,0.1875
351,351,1727987417844,0.17480469,0.96191406,0.111328125,-0.09375,-0.0625,0.0625
352,352,1727987417884,0.17871094,0.95996094,0.12207031,-0.03125,0.0625,0.25
353,353,1727987417924,0.17089844,0.9667969,0.109375,0.0625,-0.25,0.0625
354,354,1727987417964,0.17382812,0.9707031,0.111328125,-0.21875,-0.0625,0.1875
355,355,1727987418004,0.17089844,0.9638672,0.12011719,-0.09375,0.25,0.125
356,356,1727987418044,0.16601562,0.9658203,0.11328125,-0.15625,-0.1875,0.125
357,357,1727987418084,0.18261719,0.9628906,0.115234375,-0.125,0.03125,0.0
358,358,1727987418124,0.171875,0.96191406,0.111328125,-0.25,-0.1875,0.0
359,359,1727987418164,0.16699219,0.9609375,0.109375,0.1875,-0.15625,0.09375
360,360,1727987418204,0.171875,0.95703125,0.11816406,0.125,0.03125,-0.125
361,361,1727987418244,0.18261719,0.96875,0.11425781,-0.0625,-0.1875,-0.0625
362,362,1727987418284,0.16894531,0.96191406,0.10449219,-0.0625,-0.09375,0.0625
363,363,1727987418324,0.17382812,0.96191406,0.115234375,-0.25,0.03125,0.0
364,364,1727987418364,0.17089844,0.96972656,0.11328125,-0.0625,0.15625,0.0625
365,365,1727987418404,0.17285156,0.9628906,0.103515625,0.0,-0.15625,-0.0625
366,366,1727987418444,0.17578125,0.9638672,0.091796875,-0.0625,-0.1875,0.0
367,367,1727987418484,0.17480469,0.9638672,0.107421875,-0.5625,0.03125,0.09375
368,368,1727987418524,0.17480469,0.96777344,0.1171875,-0.6875,0.53125,0.0625
369,369,1727987418564,0.17773438,0.9589844,0.12207031,-0.3125,0.03125,0.21875
370,370,1727987418604,0.17578125,0.9589844,0.11621094,-0.125,-0.03125,0.09375
371,371,1727987418644,0.17773438,0.9628906,0.109375,-0.0625,-0.03125,0.0
372,372,1727987418684,0.16992188,0.9716797,0.10839844,-0.0625,-0.03125,0.0
373,373,1727987418724,0.16796875,0.9589844,0.12207031,-0.125,-0.09375,0.0
374,374,1727987418764,0.16894531,0.9707031,0.1171875,0.0,-0.15625,0.15625
375,375,1727987418804,0.17675781,0.9667969,0.13476562,-0.25,-0.09375,0.09375
376,376,1727987418844,0.16992188,0.9609375,0.12109375,-0.375,0.21875,0.34375
377,377,1727987418884,0.1796875,0.9560547,0.109375,-0.0625,-0.03125,0.09375
378,378,1727987418924,0.16894531,0.96484375,0.111328125,-0.6875,-0.03125,0.09375
379,379,1727987418964,0.17578125,0.96484375,0.109375,0.0,0.28125,-0.0625
380,380,1727987419004,0.17480469,0.95703125,0.12109375,0.0,-0.03125,0.0
381,381,1727987419044,0.16992188,0.9580078,0.11230469,-0.0625,-0.1875,0.0625
382,382,1727987419084,0.171875,0.9736328,0.10546875,-0.0625,-0.15625,0.0625
383,383,1727987419124,0.17285156,0.96191406,0.12011719,-0.5625,0.03125,0.21875
384,384,1727987419164,0.17089844,0.9609375,0.10253906,0.0,0.46875,0.09375
385,385,1727987419204,0.17089844,0.9609375,0.125,-0.125,-0.15625,-0.0625
386,386,1727987419244,0.16210938,0.9746094,0.13378906,-0.0625,-0.25,0.0625
387,387,1727987419284,0.171875,0.96777344,0.12207031,-0.0625,-0.15625,0.0
388,388,1727987419324,0.18261719,0.95996094,0.12011719,-0.375,0.28125,0.0
389,389,1727987419364,0.17285156,0.9707031,0.10449219,-0.25,-0.03125,0.0625
390,390,1727987419404,0.16992188,0.96191406,0.115234375,-0.78125,-0.03125,0.09375
391,391,1727987419444,0.17089844,0.96484375,0.123046875,-0.25,0.71875,0.0625
392,392,1727987419484,0.16699219,0.9560547,0.109375,-0.1875,0.15625,0.09375
393,393,1727987419524,0.1640625,0.9345703,0.12109375,-0.125,0.28125,0.59375
394,394,1727987419564,0.16992188,0.9609375,0.12402344,-0.4375,1.125,-0.1875
395,395,1727987419604,0.17773438,0.96972656,0.103515625,0.1875,-0.03125,-0.0625
396,396,1727987419644,0.16992188,0.96875,0.1171875,-0.25,0.15625,0.09375
397,397,1727987419684,0.17480469,0.9580078,0.109375,-0.5625,-0.03125,0.21875
398,398,1727987419724,0.17285156,0.9638672,0.115234375,-0.25,-0.09375,0.0625
399,399,1727987419764,0.16894531,0.9580078,0.12597656,0.0,-0.03125,0.0
400,400,1727987419804,0.17382812,0.9658203,0.119140625,0.4375,0.09375,0.0625
401,401,1727987419844,0.17382812,0.9658203,0.09472656,0.4375,-0.25,-0.125
402,402,1727987419884,0.17382812,0.96777344,0.11425781,0.3125,-0.1875,-0.125
403,403,1727987419924,0.17871094,0.9589844,0.109375,0.0625,0.15625,0.0625
404,404,1727987419964,0.16601562,0.95996094,0.11328125,-0.5,0.28125,0.21875
405,405,1727987420004,0.17382812,0.95703125,0.115234375,-0.25,0.03125,0.0625
406,406,1727987420044,0.17578125,0.96484375,0.10644531,-0.0625,-0.09375,0.09375
407,407,1727987420084,0.1796875,0.9736328,0.107421875,-0.3125,-0.03125,0.21875
408,408,1727987420124,0.17578125,0.95703125,0.12207031,-0.0625,-0.1875,0.09375
409,409,1727987420164,0.17089844,0.9667969,0.12597656,0.0,0.34375,0.0625
410,410,1727987420204,0.18261719,0.9638672,0.10546875,0.0625,0.15625,0.0
411,411,1727987420244,0.17089844,0.9667969,0.12109375,0.5625,-0.09375,0.0
412,412,1727987420284,0.17480469,0.9638672,0.115234375,-0.0625,-0.3125,-0.0625
413,413,1727987420324,0.16894531,0.95996094,0.12402344,-0.375,0.46875,0.0
414,414,1727987420364,0.171875,0.9667969,0.109375,-0.375,0.34375,0.28125
415,415,1727987420404,0.17480469,0.9638672,0.12207031,-0.78125,0.09375,0.15625
416,416,1727987420444,0.1640625,0.9560547,0.109375,0.0625,0.03125,0.15625
417,417,1727987420484,0.16796875,0.9580078,0.12597656,0.0,0.15625,0.0625
418,418,1727987420524,0.16894531,0.95996094,0.12011719,0.3125,0.21875,-0.125
419,419,1727987420564,0.171875,0.9667969,0.11035156,0.1875,-0.4375,0.0
420,420,1727987420604,0.17480469,0.9658203,0.11621094,0.25,-0.25,-0.0625
421,421,1727987420644,0.16992188,0.9658203,0.10644531,0.0,0.03125,0.09375
422,422,1727987420684,0.17285156,0.9667969,0.119140625,-0.125,0.34375,0.09375
423,423,1727987420724,0.18066406,0.9560547,0.10839844,-0.1875,-0.03125,0.0
424,424,1727987420764,0.17089844,0.9667969,0.12695312,-0.125,-0.15625,-0.125
425,425,1727987420804,0.18261719,0.9658203,0.10839844,0.3125,0.15625,-0.0625
426,426,1727987420844,0.17578125,0.9707031,0.11816406,0.0,-0.09375,0.09375
427,427,1727987420884,0.18457031,0.9667969,0.115234375,0.3125,0.15625,-0.1875
428,428,1727987420924,0.17773438,0.95996094,0.10839844,-0.0625,-0.09375,0.15625
429,429,1727987420964,0.17382812,0.96777344,0.11425781,-0.1875,-0.1875,0.0
430,430,1727987421004,0.17089844,0.9609375,0.11328125,-0.0625,-0.1875,-0.125
431,431,1727987421044,0.16796875,0.9609375,0.125,-0.5,-0.1875,0.09375
432,432,1727987421084,0.16601562,0.95703125,0.1171875,-0.125,0.21875,0.21875
433,433,1727987421124,0.171875,0.9589844,0.115234375,-0.375,0.28125,0.0
434,434,1727987421164,0.17675781,0.9716797,0.123046875,-0.125,-0.25,0.0625
435,435,1727987421204,0.17675781,0.9638672,0.115234375,0.125,-0.09375,-0.125
436,436,1727987421244,0.17089844,0.9667969,0.1171875,-0.125,-0.09375,-0.0625
437,437,1727987421284,0.16601562,0.95703125,0.107421875,-0.5,-0.03125,-0.0625
438,438,1727987421324,0.17285156,0.9628906,0.11816406,-0.4375,-0.03125,0.09375
439,439,1727987421364,0.16601562,0.9638672,0.109375,0.0,-0.1875,0.0625
440,440,1727987421404,0.17871094,0.9638672,0.11035156,-0.0625,-0.5,-0.125
441,441,1727987421444,0.17773438,0.96875,0.10644531,-0.1875,-0.09375,0.0
442,442,1727987421484,0.17285156,0.96777344,0.1171875,-0.125,0.15625,-0.0625
443,443,1727987421524,0.16992188,0.96191406,0.12109375,-0.0625,-0.1875,0.0625
444,444,1727987421564,0.17089844,0.9658203,0.10253906,-0.1875,-0.03125,-0.125
445,445,1727987421604,0.17773438,0.9638672,0.11328125,-0.125,-0.15625,0.0
446,446,1727987421644,0.171875,0.96777344,0.11425781,-0.0625,-0.03125,-0.0625
447,447,1727987421684,0.17285156,0.95410156,0.10839844,-0.0625,-0.09375,0.0625
448,448,1727987421724,0.17773438,0.953125,0.10546875,-0.0625,-0.1875,0.0
449,449,1727987421764,0.16699219,0.9736328,0.10839844,-0.1875,-0.09375,0.0
450,450,1727987421804,0.16210938,0.9589844,0.11425781,-0.3125,0.03125,0.0625
451,451,1727987421844,0.16503906,0.9638672,0.11816406,0.0,-0.09375,-0.25
452,452,1727987421884,0.17480469,0.97265625,0.11035156,-0.0625,-0.03125,0.0625
453,453,1727987421924,0.16992188,0.9658203,0.125,0.0,0.09375,0.0625
454,454,1727987421964,0.17285156,0.96777344,0.1171875,0.0,0.28125,0.0
455,455,1727987422004,0.17871094,0.96875,0.11621094,0.25,-0.09375,-0.125
456,456,1727987422044,0.17382812,0.9609375,0.115234375,0.3125,-0.15625,-0.1875
457,457,1727987422084,0.16992188,0.96875,0.11230469,0.25,0.25,-0.0625
458,458,1727987422124,0.17089844,0.9667969,0.115234375,-0.09375,0.09375,0.0625
459,459,1727987422164,0.17285156,0.96972656,0.12988281,-0.28125,0.03125,0.25
460,460,1727987422204,0.17480469,0.9658203,0.11425781,0.03125,-0.03125,-0.125
461,461,1727987422244,0.17382812,0.9667969,0.11035156,0.25,-0.03125,-0.125
462,462,1727987422284,0.17089844,0.9658203,0.10449219,0.3125,0.09375,0.0
463,463,1727987422324,0.17089844,0.96875,0.10253906,0.09375,-0.21875,-0.0625
464,464,1727987422364,0.16796875,0.96777344,0.1171875,-0.03125,-0.09375,-0.1875
465,465,1727987422404,0.16113281,0.9638672,0.11328125,-0.03125,0.1875,0.0625
466,466,1727987422444,0.17480469,0.9667969,0.10644531,-0.28125,0.25,0.25
467,467,1727987422484,0.18261719,0.95996094,0.11816406,-0.21875,0.03125,0.125
468,468,1727987422524,0.18164062,0.9638672,0.111328125,0.03125,0.03125,0.0
469,469,1727987422564,0.17480469,0.9667969,0.10839844,0.15625,0.09375,-0.125
470,470,1727987422604,0.16992188,0.9716797,0.10839844,0.375,-0.09375,-0.0625
471,471,1727987422644,0.17382812,0.96191406,0.12109375,0.21875,-0.15625,0.0
472,472,1727987422684,0.17382812,0.9658203,0.11035156,-0.15625,-0.03125,0.0
473,473,1727987422724,0.17871094,0.96777344,0.12695312,-0.15625,0.15625,0.125
474,474,1727987422764,0.17480469,0.96777344,0.12207031,-0.15625,-0.03125,-0.125
475,475,1727987422804,0.17871094,0.9589844,0.109375,-0.09375,0.1875,0.125
476,476,1727987422844,0.17773438,0.95996094,0.12109375,-0.15625,0.03125,-0.0625
477,477,1727987422884,0.17382812,0.96777344,0.119140625,-0.15625,0.09375,0.0625
478,478,1727987422924,0.16308594,0.95703125,0.119140625,0.3125,-0.21875,-0.25
479,479,1727987422964,0.16796875,0.9638672,0.1171875,0.03125,-0.28125,-0.125
480,480,1727987423004,0.171875,0.9746094,0.11328125,0.09375,0.1875,0.0
481,481,1727987423044,0.16894531,0.95703125,0.119140625,-0.15625,0.15625,0.0625
482,482,1727987423084,0.17871094,0.9716797,0.11230469,-0.15625,0.09375,0.0
483,483,1727987423124,0.16894531,0.9658203,0.119140625,0.25,-0.15625,-0.125
484,484,1727987423164,0.17675781,0.96484375,0.11816406,0.21875,0.09375,0.0
485,485,1727987423204,0.16699219,0.96875,0.10253906,0.15625,0.09375,0.125
486,486,1727987423244,0.17773438,0.9667969,0.107421875,0.15625,-0.09375,-0.1875
487,487,1727987423284,0.16894531,0.96484375,0.115234375,0.09375,-0.03125,-0.0625
488,488,1727987423324,0.17285156,0.9628906,0.11816406,-0.03125,0.15625,-0.125
489,489,1727987423364,0.171875,0.96191406,0.115234375,-0.15625,-0.03125,-0.0625
490,490,1727987423404,0.17382812,0.9638672,0.123046875,-0.03125,0.09375,0.0625
491,491,1727987423444,0.1640625,0.9638672,0.12011719,0.03125,0.09375,-0.0625
492,492,1727987423484,0.16601562,0.9628906,0.11328125,0.15625,0.09375,0.0625
493,493,1727987423524,0.17285156,0.9550781,0.123046875,0.03125,-0.03125,-0.0625
494,494,1727987423564,0.17578125,0.9628906,0.115234375,0.21875,-0.21875,0.1875
495,495,1727987423604,0.17773438,0.9638672,0.111328125,-0.09375,0.15625,0.0
496,496,1727987423644,0.17675781,0.96875,0.09667969,-0.09375,0.15625,-0.0625
497,497,1727987423684,0.16503906,0.9658203,0.12207031,0.03125,-0.03125,-0.0625
498,498,1727987423724,0.17480469,0.9628906,0.111328125,-0.09375,-0.03125,0.0
499,499,1727987423764,0.17285156,0.95703125,0.12011719,-0.34375,-0.09375,0.125
500,500,1727987423804,0.17285156,0.96191406,0.10839844,-0.15625,0.15625,0.0625
501,501,1727987423844,0.16894531,0.9628906,0.11230469,-0.15625,0.03125,-0.0625
502,502,1727987423884,0.171875,0.9628906,0.11621094,0.03125,-0.21875,0.0
503,503,1727987423924,0.16699219,0.9667969,0.11328125,0.09375,0.09375,-0.0625
504,504,1727987423964,0.171875,0.9589844,0.11328125,-0.03125,0.09375,0.0
505,505,1727987424004,0.17480469,0.9658203,0.119140625,-0.03125,0.09375,0.125
506,506,1727987424044,0.16601562,0.9628906,0.12109375,0.21875,-0.28125,0.0625
507,507,1727987424084,0.17382812,0.96484375,0.11328125,0.03125,-0.03125,0.0
508,508,1727987424124,0.17675781,0.9628906,0.10449219,0.3125,0.09375,-0.125
509,509,1727987424164,0.1796875,0.9638672,0.11816406,0.375,-0.15625,-0.125
510,510,1727987424204,0.16601562,0.9628906,0.10839844,0.15625,0.09375,-0.125
511,511,1727987424244,0.16796875,0.96191406,0.10644531,0.21875,0.03125,0.0
512,512,1727987424284,0.16796875,0.9628906,0.10839844,-0.21875,0.03125,0.0625
513,513,1727987424324,0.171875,0.9638672,0.12402344,-0.28125,0.03125,0.0625
514,514,1727987424364,0.1796875,0.95703125,0.10839844,0.09375,0.1875,-0.0625
515,515,1727987424404,0.17089844,0.9550781,0.111328125,0.03125,0.03125,0.0
516,516,1727987424444,0.16992188,0.96191406,0.11035156,0.4375,-0.09375,-0.0625
517,517,1727987424484,0.16796875,0.9628906,0.111328125,0.3125,-0.21875,0.0
518,518,1727987424524,0.171875,0.9628906,0.12207031,0.21875,-0.15625,-0.0625
519,519,1727987424564,0.17285156,0.9658203,0.1171875,-0.21875,0.375,0.0625
520,520,1727987424604,0.16503906,0.9707031,0.1171875,-0.15625,0.1875,0.25
521,521,1727987424644,0.16308594,0.96972656,0.115234375,-0.09375,-0.21875,0.0
522,522,1727987424684,0.17773438,0.95996094,0.10839844,-0.09375,0.15625,0.0625
523,523,1727987424724,0.17089844,0.96191406,0.111328125,0.03125,0.15625,0.0
524,524,1727987424764,0.16796875,0.9667969,0.11425781,0.09375,0.09375,0.125
525,525,1727987424804,0.17480469,0.96191406,0.09082031,-0.09375,-0.15625,-0.125
526,526,1727987424844,0.17675781,0.9658203,0.10058594,0.21875,-0.21875,-0.1875
527,527,1727987424884,0.16503906,0.9609375,0.12207031,0.03125,0.25,0.0
528,528,1727987424924,0.17285156,0.9638672,0.11230469,-0.03125,0.09375,0.0
529,529,1727987424964,0.17578125,0.9638672,0.09765625,0.09375,-0.09375,0.0625
530,530,1727987425004,0.16992188,0.9628906,0.11035156,0.3125,-0.21875,-0.0625
531,531,1727987425044,0.17089844,0.9658203,0.11425781,0.09375,0.03125,0.0
532,532,1727987425084,0.16992188,0.96875,0.11328125,0.21875,0.03125,0.0625
533,533,1727987425124,0.1796875,0.96191406,0.11328125,0.21875,0.03125,-0.0625
534,534,1727987425164,0.17285156,0.9716797,0.1171875,0.21875,0.15625,-0.125
535,535,1727987425204,0.171875,0.9609375,0.109375,0.09375,0.03125,-0.0625
536,536,1727987425244,0.17675781,0.96191406,0.111328125,-0.09375,0.09375,0.0
537,537,1727987425284,0.1640625,0.9736328,0.099609375,-0.09375,0.09375,0.0625
538,538,1727987425324,0.17480469,0.96972656,0.11230469,-0.09375,0.09375,-0.0625
539,539,1727987425364,0.16699219,0.9628906,0.10644531,0.25,0.15625,0.0625
540,540,1727987425404,0.17285156,0.9658203,0.107421875,0.4375,-0.15625,-0.1875
541,541,1727987425444,0.171875,0.9707031,0.111328125,1.0625,0.09375,-0.125
542,542,1727987425484,0.16503906,0.9658203,0.115234375,0.03125,0.4375,-0.125
543,543,1727987425524,0.16992188,0.96972656,0.11621094,0.03125,0.09375,0.0625
544,544,1727987425564,0.16796875,0.953125,0.109375,0.15625,0.25,-0.0625
545,545,1727987425604,0.17285156,0.9658203,0.11328125,-0.21875,-0.09375,0.0
546,546,1727987425644,0.1796875,0.96484375,0.12011719,-0.34375,0.4375,0.125
547,547,1727987425684,0.16992188,0.96484375,0.11816406,-0.34375,0.3125,0.25
548,548,1727987425724,0.171875,0.9628906,0.12011719,-0.21875,0.15625,0.125
549,549,1727987425764,0.17578125,0.9628906,0.11328125,0.21875,0.09375,-0.0625
550,550,1727987425804,0.16699219,0.9589844,0.12109375,0.21875,0.1875,0.0
551,551,1727987425844,0.171875,0.9638672,0.10449219,0.03125,0.03125,-0.0625
552,552,1727987425884,0.18261719,0.9638672,0.11816406,-0.03125,-0.03125,0.0625
553,553,1727987425924,0.171875,0.9638672,0.111328125,0.21875,-0.09375,0.0625
554,554,1727987425964,0.17480469,0.9658203,0.109375,0.03125,-0.03125,0.125
555,555,1727987426004,0.17675781,0.96191406,0.11328125,0.03125,0.3125,0.0
556,556,1727987426044,0.171875,0.9609375,0.10546875,0.15625,0.03125,0.125
557,557,1727987426084,0.17480469,0.96777344,0.11621094,0.25,0.09375,-0.125
558,558,1727987426124,0.17089844,0.9667969,0.09375,0.375,0.09375,-0.125
559,559,1727987426164,0.16601562,0.9667969,0.11425781,0.09375,-0.03125,0.0625
560,560,1727987426204,0.16601562,0.96875,0.12109375,0.03125,0.03125,0.0625
561,561,1727987426244,0.17871094,0.9589844,0.10449219,0.03125,-0.03125,0.125
562,562,1727987426284,0.17285156,0.96777344,0.10644531,0.21875,0.25,-0.125
563,563,1727987426324,0.16796875,0.97753906,0.10839844,0.03125,0.03125,-0.0625
564,564,1727987426364,0.171875,0.96484375,0.111328125,0.03125,0.03125,-0.0625
565,565,1727987426404,0.17089844,0.95410156,0.095703125,0.3125,-0.03125,0.0
566,566,1727987426444,0.17382812,0.9628906,0.10058594,0.15625,-0.34375,-0.25
567,567,1727987426484,0.16796875,0.96972656,0.119140625,-0.40625,0.09375,0.0
568,568,1727987426524,0.171875,0.96191406,0.10644531,0.09375,0.1875,0.0
569,569,1727987426564,0.17675781,0.9628906,0.10839844,-0.28125,-0.03125,0.125
570,570,1727987426604,0.17089844,0.9589844,0.11328125,0.03125,-0.09375,-0.1875
571,571,1727987426644,0.16796875,0.97265625,0.09082031,0.15625,-0.09375,-0.0625
572,572,1727987426684,0.16992188,0.9609375,0.103515625,-0.09375,0.375,-0.1875
573,573,1727987426724,0.16992188,0.9707031,0.109375,-0.09375,-0.15625,0.0625
574,574,1727987426764,0.17480469,0.9667969,0.10253906,-0.09375,-0.09375,0.125
575,575,1727987426804,0.17285156,0.9628906,0.12109375,0.3125,-0.03125,0.0625
576,576,1727987426844,0.17578125,0.9609375,0.111328125,-0.15625,-0.03125,0.125
577,577,1727987426884,0.18457031,0.9638672,0.11035156,0.03125,0.03125,0.125
578,578,1727987426924,0.171875,0.96191406,0.115234375,-0.21875,-0.21875,0.0
579,579,1727987426964,0.17578125,0.96191406,0.111328125,-0.03125,-0.03125,-0.125
580,580,1727987427004,0.16796875,0.9638672,0.10449219,-0.21875,0.09375,0.0625
581,581,1727987427044,0.16992188,0.9609375,0.11035156,-0.21875,0.03125,0.0
582,582,1727987427084,0.17382812,0.9638672,0.11328125,-0.03125,0.09375,0.0625
583,583,1727987427124,0.16992188,0.96777344,0.09472656,-0.03125,-0.03125,0.0
584,584,1727987427164,0.17578125,0.9638672,0.12109375,-0.09375,0.03125,0.0
585,585,1727987427204,0.16894531,0.9667969,0.10058594,0.0,-0.1875,0.0
586,586,1727987427244,0.17285156,0.96972656,0.107421875,0.125,-0.3125,0.0
587,587,1727987427284,0.16601562,0.9667969,0.107421875,-0.5625,0.0625,-0.0625
588,588,1727987427324,0.171875,0.9628906,0.11816406,-0.3125,0.25,0.0625
589,589,1727987427364,0.16601562,0.96191406,0.10058594,-0.1875,0.125,0.15625
590,590,1727987427404,0.17675781,0.97265625,0.09765625,-0.0625,-0.25,-0.125
591,591,1727987427444,0.18066406,0.97265625,0.10546875,0.125,-0.1875,-0.0625
592,592,1727987427484,0.16601562,0.9658203,0.11328125,0.0625,0.1875,-0.0625
593,593,1727987427524,0.16210938,0.9628906,0.10839844,-0.3125,-0.0625,0.0625
594,594,1727987427564,0.17285156,0.9628906,0.10839844,-0.0625,-0.125,0.0625
595,595,1727987427604,0.16796875,0.9638672,0.10449219,0.1875,-0.25,0.0625
596,596,1727987427644,0.17773438,0.9560547,0.109375,0.125,0.0625,-0.125
597,597,1727987427684,0.171875,0.9638672,0.109375,0.1875,0.0,-0.0625
598,598,1727987427724,0.17089844,0.9667969,0.111328125,-0.0625,-0.3125,-0.125
599,599,1727987427764,0.16992188,0.9580078,0.107421875,0.1875,-0.125,-0.0625
600,600,1727987427804,0.17578125,0.9628906,0.109375,0.0625,0.0625,-0.125
601,601,1727987427844,0.17089844,0.9609375,0.099609375,-0.3125,0.125,0.0625
602,602,1727987427884,0.16796875,0.96191406,0.109375,-0.25,0.0,0.0
603,603,1727987427924,0.17480469,0.96972656,0.115234375,0.0625,0.0625,-0.1875
604,604,1727987427964,0.16796875,0.9667969,0.10839844,0.0,0.0,-0.1875
605,605,1727987428004,0.16894531,0.9658203,0.107421875,0.1875,-0.25,-0.0625
606,606,1727987428044,0.18164062,0.9707031,0.10839844,0.0,-0.125,0.0
607,607,1727987428084,0.17089844,0.97265625,0.10449219,-0.1875,0.0625,0.0
608,608,1727987428124,0.16894531,0.9589844,0.12792969,-0.125,-0.0625,-0.1875
609,609,1727987428164,0.17285156,0.96875,0.09667969,-0.125,-0.25,0.0625
610,610,1727987428204,0.17285156,0.95996094,0.11621094,-0.0625,0.0625,0.0
611,611,1727987428244,0.17773438,0.9628906,0.1015625,-0.25,0.25,-0.0625
612,612,1727987428284,0.17285156,0.9638672,0.115234375,-0.1875,0.0625,-0.0625
613,613,1727987428324,0.17480469,0.9628906,0.11621094,0.0,-0.1875,-0.125
614,614,1727987428364,0.16308594,0.9667969,0.10546875,0.0625,0.125,-0.0625
615,615,1727987428404,0.17480469,0.95996094,0.11425781,-0.125,0.0625,0.0
616,616,1727987428444,0.16699219,0.9580078,0.12011719,-0.3125,-0.125,-0.0625
617,617,1727987428484,0.16601562,0.96191406,0.109375,0.0,-0.125,0.0625
618,618,1727987428524,0.17382812,0.9707031,0.12011719,0.125,-0.125,0.09375
619,619,1727987428564,0.17382812,0.96484375,0.1171875,0.0625,0.0625,-0.125
620,620,1727987428604,0.17382812,0.9628906,0.11328125,0.1875,-0.1875,-0.0625
621,621,1727987428644,0.17578125,0.9667969,0.107421875,0.0,-0.0625,-0.125
622,622,1727987428684,0.16992188,0.9609375,0.11230469,0.0,0.0625,-0.0625
623,623,1727987428724,0.17382812,0.9638672,0.10644531,-0.125,0.0,-0.125
624,624,1727987428764,0.17578125,0.95996094,0.10839844,-0.1875,-0.0625,-0.125
625,625,1727987428804,0.16992188,0.97265625,0.109375,-0.125,0.0625,-0.0625
626,626,1727987428844,0.17675781,0.96191406,0.11230469,0.0625,0.0625,-0.1875
627,627,1727987428884,0.16894531,0.9638672,0.099609375,0.0,-0.1875,0.09375
628,628,1727987428924,0.17578125,0.95703125,0.115234375,-0.1875,0.0,0.0
629,629,1727987428964,0.17675781,0.96875,0.111328125,-0.1875,-0.0625,-0.0625
630,630,1727987429004,0.17480469,0.9609375,0.11230469,-0.0625,-0.125,-0.125
631,631,1727987429044,0.16503906,0.9707031,0.11035156,-0.1875,0.125,-0.1875
632,632,1727987429084,0.16308594,0.9482422,0.10839844,-0.25,0.125,-0.0625
633,633,1727987429124,0.16699219,0.95410156,0.11035156,-0.1875,0.125,0.09375
634,634,1727987429164,0.17578125,0.9638672,0.103515625,0.0,-0.125,-0.25
635,635,1727987429204,0.16699219,0.96484375,0.10449219,0.0,-0.125,-0.125
636,636,1727987429244,0.16699219,0.97265625,0.10644531,0.125,0.375,-0.0625
637,637,1727987429284,0.16796875,0.96875,0.1171875,-0.125,-0.125,0.0625
638,638,1727987429324,0.16503906,0.9589844,0.11816406,-0.1875,-0.0625,0.0
639,639,1727987429364,0.16503906,0.9628906,0.11035156,0.0625,0.0625,-0.0625
640,640,1727987429404,0.16992188,0.96191406,0.10839844,0.0,0.0,0.0
641,641,1727987429444,0.16503906,0.96972656,0.12109375,0.375,0.125,0.0625
642,642,1727987429484,0.16601562,0.96191406,0.111328125,0.1875,-0.25,0.0
643,643,1727987429524,0.17089844,0.9667969,0.10449219,0.1875,-0.0625,-0.1875
644,644,1727987429564,0.16601562,0.9707031,0.115234375,0.1875,0.0,-0.125
645,645,1727987429604,0.17773438,0.9707031,0.11230469,-0.1875,-0.0625,-0.0625
646,646,1727987429644,0.18652344,0.9628906,0.119140625,-0.125,0.0,-0.0625
647,647,1727987429684,0.17089844,0.96191406,0.107421875,0.0,0.0,0.0
648,648,1727987429724,0.17480469,0.95410156,0.11035156,0.0,0.0625,0.0
649,649,1727987429764,0.171875,0.9667969,0.115234375,0.25,-0.125,-0.125
650,650,1727987429804,0.17871094,0.9628906,0.10058594,-0.1875,-0.1875,-0.0625
651,651,1727987429844,0.16796875,0.96875,0.111328125,0.0625,0.25,0.0
652,652,1727987429884,0.16796875,0.9667969,0.12109375,0.0625,-0.0625,0.0
653,653,1727987429924,0.17089844,0.97265625,0.11035156,-0.3125,0.25,0.09375
654,654,1727987429964,0.17382812,0.9667969,0.11035156,0.125,0.0625,0.0
655,655,1727987430004,0.17285156,0.9746094,0.10644531,-0.0625,-0.0625,0.15625
656,656,1727987430044,0.16894531,0.9609375,0.103515625,0.0,0.0,-0.0625
657,657,1727987430084,0.16894531,0.9628906,0.1015625,-0.25,-0.1875,0.03125
658,658,1727987430124,0.16796875,0.9609375,0.09863281,-0.0625,0.1875,-0.0625
659,659,1727987430164,0.17480469,0.9580078,0.1171875,-0.1875,0.125,0.03125
660,660,1727987430204,0.17480469,0.96972656,0.11035156,-0.125,-0.125,0.03125
661,661,1727987430244,0.16699219,0.96875,0.10839844,0.25,-0.125,-0.0625
662,662,1727987430284,0.16796875,0.96972656,0.09765625,0.3125,0.0,0.09375
663,663,1727987430324,0.171875,0.96875,0.107421875,0.1875,0.0,0.03125
664,664,1727987430364,0.1796875,0.96777344,0.11035156,-0.0625,-0.0625,0.0
665,665,1727987430404,0.171875,0.96875,0.1171875,0.25,0.1875,0.0
666,666,1727987430444,0.171875,0.96484375,0.10449219,0.0625,0.125,0.15625
667,667,1727987430484,0.17578125,0.9658203,0.10449219,-0.1875,0.0,0.0
668,668,1727987430524,0.17285156,0.9609375,0.125,-0.125,0.0,0.03125
669,669,1727987430564,0.17089844,0.9667969,0.11328125,0.125,0.0625,-0.125
670,670,1727987430604,0.16894531,0.96777344,0.109375,0.25,0.1875,0.0
671,671,1727987430644,0.17480469,0.96875,0.107421875,0.1875,-0.0625,0.09375
672,672,1727987430684,0.17089844,0.96972656,0.111328125,0.0,-0.0625,-0.0625
673,673,1727987430724,0.17480469,0.95703125,0.10839844,0.125,0.125,0.0
674,674,1727987430764,0.17480469,0.95996094,0.10839844,0.125,-0.125,0.03125
675,675,1727987430804,0.16503906,0.96777344,0.10644531,-0.25,0.0625,0.03125
676,676,1727987430844,0.17382812,0.9501953,0.10839844,0.0625,0.375,0.0
677,677,1727987430884,0.17480469,0.96777344,0.111328125,-0.1875,0.125,0.09375
678,678,1727987430924,0.17382812,0.9638672,0.119140625,0.0625,0.0625,-0.0625
679,679,1727987430964,0.18359375,0.9736328,0.10058594,0.0,-0.0625,-0.125
680,680,1727987431004,0.17089844,0.96191406,0.107421875,0.125,0.1875,-0.125
681,681,1727987431044,0.16601562,0.9667969,0.12011719,-0.0625,0.0,0.0
682,682,1727987431084,0.17480469,0.9628906,0.119140625,-0.1875,-0.0625,0.0
683,683,1727987431124,0.16894531,0.9638672,0.12792969,0.125,-0.125,0.03125
684,684,1727987431164,0.17578125,0.97558594,0.11035156,0.0625,0.0,0.0
685,685,1727987431204,0.16894531,0.9658203,0.11230469,0.25,0.0625,0.0
686,686,1727987431244,0.16992188,0.9609375,0.11035156,0.5,-0.25,0.0
687,687,1727987431284,0.17382812,0.9638672,0.11035156,0.5625,0.125,-0.375
688,688,1727987431324,0.16699219,0.9707031,0.11230469,0.125,0.3125,-0.1875
689,689,1727987431364,0.171875,0.9628906,0.1015625,-0.25,-0.125,0.15625
690,690,1727987431404,0.17480469,0.9628906,0.1015625,-0.125,-0.0625,0.09375
691,691,1727987431444,0.16894531,0.9589844,0.107421875,0.0625,0.0625,0.03125
692,692,1727987431484,0.16894531,0.96875,0.11621094,-0.1875,-0.0625,-0.0625
693,693,1727987431524,0.16308594,0.9746094,0.11621094,-0.1875,0.0625,-0.0625
694,694,1727987431564,0.16992188,0.9707031,0.11621094,-0.125,-0.1875,0.03125
695,695,1727987431604,0.17089844,0.9589844,0.1015625,0.0,-0.125,-0.125
696,696,1727987431644,0.17480469,0.96875,0.10058594,-0.25,0.0,0.0
697,697,1727987431684,0.16601562,0.95703125,0.10449219,0.0,0.46875,0.03125
698,698,1727987431724,0.17089844,0.9707031,0.099609375,-0.1875,0.0,0.03125
699,699,1727987431764,0.17089844,0.97265625,0.103515625,-0.0625,-0.125,0.0
700,700,1727987431804,0.17773438,0.9667969,0.10644531,-0.0625,-0.1875,0.03125
701,701,1727987431844,0.16308594,0.9628906,0.111328125,0.0625,0.1875,-0.125
702,702,1727987431884,0.16699219,0.9667969,0.10546875,-0.3125,0.1875,0.15625
703,703,1727987431924,0.16894531,0.9609375,0.10253906,-0.375,-0.125,0.03125
704,704,1727987431964,0.17285156,0.9716797,0.12207031,0.1875,-0.0625,0.0
705,705,1727987432004,0.17773438,0.95996094,0.11328125,0.0625,-0.0625,-0.0625
706,706,1727987432044,0.17285156,0.95410156,0.10449219,0.125,0.0,-0.125
707,707,1727987432084,0.171875,0.9638672,0.10546875,0.3125,-0.125,-0.0625
708,708,1727987432124,0.17675781,0.96484375,0.125,0.0,-0.125,-0.0625
709,709,1727987432164,0.16601562,0.9609375,0.10253906,-0.0625,0.25,0.03125
710,710,1727987432204,0.1796875,0.96972656,0.091796875,-0.375,0.1875,0.09375
711,711,1727987432244,0.17285156,0.9580078,0.107421875,-0.125,0.0625,0.03125
712,712,1727987432284,0.17382812,0.96875,0.09863281,0.0,0.0,0.0
713,713,1727987432324,0.17382812,0.9658203,0.10253906,0.25,0.0625,0.03125
714,714,1727987432364,0.16894531,0.9638672,0.111328125,0.0625,-0.1875,-0.0625
715,715,1727987432404,0.17382812,0.96972656,0.11621094,-0.1875,0.0,0.0
716,716,1727987432444,0.17382812,0.9667969,0.10253906,0.0,0.125,0.0
717,717,1727987432484,0.16210938,0.9628906,0.107421875,-0.0625,-0.1875,0.0625
718,718,1727987432524,0.16503906,0.96191406,0.10253906,-0.4375,0.15625,0.09375
719,719,1727987432564,0.17382812,0.96875,0.10644531,0.0625,0.03125,0.0625
720,720,1727987432604,0.17871094,0.9589844,0.103515625,-0.375,-0.09375,0.09375
721,721,1727987432644,0.16992188,0.96191406,0.10839844,0.0,-0.1875,-0.125
722,722,1727987432684,0.16796875,0.9667969,0.11425781,0.0625,-0.09375,-0.125
723,723,1727987432724,0.17773438,0.96777344,0.11035156,-0.1875,0.21875,-0.0625
724,724,1727987432764,0.17285156,0.97558594,0.09667969,-0.25,-0.03125,0.09375
725,725,1727987432804,0.171875,0.96972656,0.10449219,-0.25,-0.09375,0.09375
726,726,1727987432844,0.17675781,0.96191406,0.11328125,0.375,-0.09375,-0.0625
727,727,1727987432884,0.1796875,0.9609375,0.09863281,-0.0625,-0.03125,0.0625
728,728,1727987432924,0.1796875,0.9609375,0.11328125,0.1875,-0.09375,0.0
729,729,1727987432964,0.17871094,0.96191406,0.119140625,0.125,-0.25,-0.1875
730,730,1727987433004,0.17773438,0.96191406,0.103515625,0.0625,0.03125,0.0
731,731,1727987433044,0.16992188,0.97265625,0.11035156,-0.0625,-0.09375,0.0
732,732,1727987433084,0.17578125,0.9609375,0.103515625,-0.375,-0.09375,0.15625
733,733,1727987433124,0.17480469,0.96484375,0.10839844,-0.25,-0.03125,0.0625
734,734,1727987433164,0.17480469,0.9609375,0.109375,0.0625,0.03125,-0.0625
735,735,1727987433204,0.17382812,0.96972656,0.10253906,0.1875,-0.03125,-0.0625
736,736,1727987433244,0.17089844,0.9667969,0.10253906,0.1875,-0.1875,-0.125
737,737,1727987433284,0.17382812,0.9628906,0.115234375,0.0,-0.03125,0.0
738,738,1727987433324,0.17382812,0.96777344,0.10644531,0.1875,0.09375,0.0625
739,739,1727987433364,0.16894531,0.96875,0.11035156,0.0,-0.09375,0.0
740,740,1727987433404,0.17382812,0.9628906,0.10839844,-0.1875,-0.09375,0.0
741,741,1727987433444,0.16992188,0.9628906,0.10644531,-0.1875,0.15625,0.09375
742,742,1727987433484,0.16796875,0.96777344,0.1015625,-0.125,0.03125,0.0625
743,743,1727987433524,0.17382812,0.9589844,0.11328125,-0.125,0.09375,0.0
744,744,1727987433564,0.16894531,0.9638672,0.10546875,0.0,-0.1875,0.0625
745,745,1727987433604,0.17382812,0.9628906,0.11035156,0.0625,0.09375,-0.0625
746,746,1727987433644,0.16992188,0.9628906,0.12792969,-0.1875,-0.09375,0.0625
747,747,1727987433684,0.17382812,0.953125,0.111328125,-0.1875,-0.15625,0.09375
748,748,1727987433724,0.17285156,0.96875,0.103515625,0.0625,-0.15625,0.0
749,749,1727987433764,0.17480469,0.96777344,0.1015625,0.0,-0.15625,-0.0625
