,timestamp,accel_x,accel_y,accel_z,gyro_x,gyro_y,gyro_z
0,1727268348641,-1.0517578,0.14453125,0.28027344,6.28125,39.46875,27.375
1,1727268348671,-1.2333984,-0.0625,-0.27929688,1.8125,-14.125,26.46875
2,1727268348701,-1.2714844,-0.23730469,-0.25878906,38.125,10.25,25.875
3,1727268348761,-1.0566406,-0.12792969,-0.053710938,-6.53125,30.6875,15.625
4,1727268348792,-0.9394531,0.083984375,0.06933594,10.1875,30.6875,20.84375
5,1727268348826,-0.953125,-0.0107421875,0.13671875,-12.71875,7.96875,17.75
6,1727268348881,-0.80371094,0.13183594,0.42578125,-40.78125,0.21875,-13.25
7,1727268348912,-1.0244141,0.020507812,0.2734375,14.21875,-69.46875,-41.59375
8,1727268348947,-1.359375,0.3125,-0.072265625,-25.46875,-61.59375,-52.03125
9,1727268349002,-1.3222656,0.21777344,0.068359375,-24.4375,-61.84375,-46.09375
10,1727268349031,-1.3369141,0.27929688,0.059570312,42.90625,-63.84375,-30.21875
11,1727268349061,-1.0527344,-0.01171875,0.08984375,-72.9375,-74.1875,-26.5625
12,1727268349124,-1.0341797,0.23632812,-0.02734375,-1.34375,-32.5625,-46.53125
13,1727268349152,-0.7998047,0.21972656,-0.068359375,76.71875,-18.09375,-37.5
14,1727268349181,-0.6074219,0.16796875,-0.07324219,28.25,10.84375,-30.21875
15,1727268349241,-0.24609375,0.30859375,0.061523438,26.65625,42.46875,-6.84375
16,1727268349273,-0.34765625,0.3251953,0.15234375,75.4375,53.5,30.125
17,1727268349303,-2.0,-0.55078125,0.3154297,-104.09375,-69.65625,21.59375
18,1727268349361,-1.3916016,0.3232422,-0.5292969,105.8125,-16.1875,-8.125
19,1727268349392,-0.8017578,0.5683594,-0.10058594,-103.65625,69.3125,2.125
20,1727268349427,-1.2128906,0.3701172,-0.38085938,-158.09375,3.28125,12.1875
21,1727268349481,-1.3447266,0.057617188,-0.40527344,41.625,20.375,46.25
22,1727268349511,-1.1796875,-0.41503906,-0.07128906,49.125,62.53125,50.53125
23,1727268349542,-1.0419922,0.020507812,0.099609375,-194.03125,58.03125,11.9375
24,1727268349601,-1.0341797,0.14746094,0.22753906,-97.0625,32.03125,40.875
25,1727268349632,-0.8691406,-0.22167969,-0.030273438,36.59375,-30.46875,53.4375
26,1727268349668,-0.74609375,-0.22167969,-0.083984375,6.34375,5.90625,24.28125
27,1727268349721,-0.75683594,-0.24414062,0.13378906,-63.0625,5.1875,2.375
28,1727268349752,-0.88671875,-0.28710938,-0.0068359375,2.65625,-33.28125,-28.40625
29,1727268349812,-1.4208984,0.3935547,0.44628906,26.53125,8.34375,-62.9375
30,1727268349842,-1.4765625,0.5205078,0.22851562,58.28125,-67.53125,-58.5
31,1727268349873,-1.3564453,0.34277344,-0.19433594,39.28125,-69.40625,-34.25
32,1727268349903,-1.3056641,-0.20605469,-0.13183594,-12.15625,-29.25,-33.9375
33,1727268349961,-1.2871094,-0.053710938,0.22070312,-110.1875,-10.34375,-59.03125
34,1727268349991,-1.0371094,0.32226562,0.21777344,66.75,-20.28125,-30.71875
35,1727268350027,-0.7167969,0.49609375,-0.115234375,141.40625,-50.0625,-21.6875
36,1727268350081,-0.6015625,0.34179688,-0.109375,57.125,-5.8125,-5.4375
37,1727268350142,-0.4921875,0.234375,-0.08105469,-24.75,26.65625,-2.40625
38,1727268350176,-0.63378906,0.15332031,-0.115234375,-32.84375,43.625,13.40625
39,1727268350203,-1.0253906,0.111328125,0.19238281,37.53125,62.53125,25.875
40,1727268350232,-1.2294922,-0.32421875,-0.63183594,-65.5,-9.15625,-54.46875
41,1727268350292,-1.1533203,0.7558594,-0.31152344,59.5,40.03125,-6.375
42,1727268350321,-0.8544922,0.45703125,0.057617188,-227.5625,35.3125,30.0625
43,1727268350351,-1.1279297,0.1328125,-0.2734375,71.03125,-6.53125,53.28125
44,1727268350382,-1.2988281,-0.28515625,-0.4404297,77.5625,-17.96875,54.84375
45,1727268350442,-1.25,-0.46972656,-0.29101562,2.84375,46.8125,41.125
46,1727268350472,-1.0986328,0.11621094,0.07519531,-97.5625,102.59375,8.59375
47,1727268350506,-1.0908203,0.24414062,0.20507812,-209.375,33.4375,10.375
48,1727268350562,-0.8886719,-0.09082031,0.021484375,10.65625,-27.0,53.5
49,1727268350592,-0.85058594,-0.23925781,-0.10546875,47.90625,-16.0,39.28125
50,1727268350681,-0.7714844,-0.125,-0.005859375,-14.34375,12.9375,21.96875
51,1727268350712,-1.1484375,-0.119140625,0.0126953125,-64.59375,-20.53125,-16.375
52,1727268350743,-0.9482422,0.03125,0.47558594,-62.75,-44.4375,-55.5
53,1727268350780,-1.3945312,0.3876953,0.35058594,55.21875,-71.5625,-91.03125
54,1727268350802,-1.2548828,0.30566406,-0.07910156,92.21875,-110.96875,-69.84375
55,1727268350831,-1.1708984,0.06640625,-0.19824219,91.96875,-76.0625,-41.8125
56,1727268350891,-1.1660156,-0.23730469,-0.030273438,-15.8125,0.59375,-55.0625
57,1727268350922,-1.2109375,0.17285156,0.36914062,-124.15625,0.03125,-56.71875
58,1727268350951,-0.9160156,0.3203125,0.06542969,180.03125,-29.96875,-8.4375
59,1727268350983,-0.6982422,0.3330078,-0.25390625,131.46875,-22.46875,-4.15625
60,1727268351041,-0.5488281,0.30859375,-0.13769531,44.71875,33.4375,2.71875
61,1727268351071,-0.46484375,0.25195312,-0.14160156,-33.9375,71.75,13.84375
62,1727268351101,-0.9560547,0.23242188,0.40820312,-64.71875,104.96875,26.09375
63,1727268351161,-1.5058594,-0.25097656,-0.7236328,116.75,14.5,15.3125
64,1727268351191,-1.2470703,0.4560547,-0.33496094,80.6875,32.9375,12.1875
65,1727268351221,-1.0986328,0.49023438,-0.013671875,-90.59375,-19.84375,33.25
66,1727268351281,-1.1503906,0.049804688,-0.39257812,52.90625,13.40625,48.4375
67,1727268351312,-1.2744141,-0.33007812,-0.3642578,28.0625,7.5,38.5
68,1727268351372,-1.1289062,-0.23925781,-0.20410156,-55.0,52.28125,20.4375
69,1727268351401,-1.1054688,0.22949219,0.072265625,-111.28125,88.53125,15.1875
70,1727268351432,-0.9707031,0.12890625,0.2529297,-29.5625,5.28125,49.53125
71,1727268351492,-0.82714844,-0.16210938,-0.1171875,18.28125,-18.9375,52.0625
72,1727268351521,-0.6748047,-0.13769531,-0.06933594,-3.96875,13.09375,38.8125
73,1727268351552,-0.6279297,-0.14941406,0.23242188,-67.09375,9.09375,13.84375
74,1727268351616,-1.1425781,-0.33691406,-0.05078125,-25.84375,-46.9375,-39.0625
75,1727268351645,-1.3486328,0.15234375,0.3310547,27.03125,-15.875,-94.75
76,1727268351671,-1.6064453,0.65722656,0.2607422,90.25,-78.3125,-93.9375
77,1727268351731,-1.3378906,0.64453125,-0.15527344,45.9375,-70.5,-37.4375
78,1727268351767,-0.9326172,0.00390625,-0.13964844,13.09375,-43.96875,-10.5
79,1727268351791,-1.1337891,-0.30664062,0.078125,-80.8125,-15.40625,-40.40625
80,1727268351856,-1.2363281,-0.015625,0.21875,-15.6875,-11.4375,-37.125
81,1727268351883,-0.8808594,0.4345703,-0.0087890625,158.4375,-42.125,-18.4375
82,1727268351911,-0.6064453,0.47460938,-0.18066406,48.03125,-11.25,-9.59375
83,1727268351977,-0.5986328,0.33691406,-0.09863281,-20.46875,39.46875,3.09375
84,1727268352009,-0.52246094,0.19921875,-0.08691406,-37.4375,67.4375,28.96875
85,1727268352032,-0.99902344,0.2578125,0.7285156,-58.3125,95.0625,29.65625
86,1727268352096,-1.0410156,-0.21582031,-0.7558594,119.375,-26.875,-10.875
87,1727268352128,-1.15625,0.3466797,-0.20898438,189.5,38.625,29.21875
88,1727268352152,-0.9814453,0.30566406,-0.15429688,-146.9375,-12.40625,16.34375
89,1727268352218,-1.1132812,0.12695312,-0.17773438,-30.09375,30.5625,36.375
90,1727268352242,-1.1279297,-0.14257812,-0.20507812,-6.90625,8.09375,33.84375
91,1727268352273,-1.0966797,-0.28222656,-0.23046875,19.5625,26.53125,22.25
92,1727268352331,-1.1435547,0.18945312,-0.045898438,-35.15625,64.6875,15.84375
93,1727268352364,-1.0556641,0.24609375,0.15527344,-56.28125,14.4375,33.5625
94,1727268352421,-0.93652344,-0.12988281,-0.13574219,37.03125,-28.21875,53.5625
95,1727268352452,-0.8388672,-0.16601562,0.037109375,-8.9375,-1.25,32.34375
96,1727268352481,-0.7060547,-0.10449219,0.13867188,-16.125,-12.90625,16.84375
97,1727268352512,-0.96777344,-0.13769531,0.020507812,-8.625,-39.75,-22.15625
98,1727268352571,-1.3134766,0.34277344,0.43164062,26.90625,-33.59375,-65.75
99,1727268352602,-1.4970703,0.45214844,0.18261719,46.96875,-84.0,-66.375
100,1727268352632,-1.3261719,0.21191406,-0.15429688,73.34375,-75.28125,-42.3125
101,1727268352691,-1.0566406,-0.10253906,-0.15332031,29.28125,-23.15625,-35.40625
102,1727268352725,-1.1035156,-0.016601562,0.15917969,-116.28125,-6.4375,-62.6875
103,1727268352752,-1.0585938,0.20214844,0.3046875,-14.34375,-0.25,-40.65625
104,1727268352812,-0.8222656,0.2919922,-0.001953125,146.40625,-35.71875,-11.78125
105,1727268352847,-0.6855469,0.2548828,-0.18261719,66.21875,-15.46875,-19.1875
106,1727268352872,-0.5449219,0.18261719,-0.08886719,3.59375,31.96875,-17.34375
107,1727268352965,-0.4970703,0.22460938,-0.0390625,-3.125,65.0625,6.9375
108,1727268352992,-0.72753906,0.2783203,0.1875,4.375,84.53125,42.46875
109,1727268353021,-2.0,-1.0039062,0.29882812,-58.84375,-58.3125,17.0
110,1727268353082,-1.265625,0.140625,-0.625,89.875,-48.28125,-9.71875
111,1727268353112,-0.7753906,0.5263672,-0.06347656,-144.25,96.65625,0.40625
112,1727268353171,-1.0048828,0.12890625,-0.20214844,-59.84375,-2.34375,39.40625
113,1727268353202,-1.1904297,-0.10058594,-0.23632812,101.5,2.3125,53.75
114,1727268353232,-1.0273438,-0.265625,-0.20800781,12.625,24.71875,29.84375
115,1727268353263,-1.1494141,0.076171875,-0.09277344,-47.75,61.3125,14.5
116,1727268353291,-1.0986328,0.28808594,0.055664062,-60.75,37.59375,25.5625
117,1727268353327,-0.9892578,-0.0126953125,-0.11230469,29.90625,1.21875,50.875
118,1727268353352,-0.92089844,-0.09277344,-0.16308594,19.5625,18.90625,42.15625
119,1727268353412,-0.82910156,0.061523438,-0.059570312,9.9375,35.5,37.28125
120,1727268353447,-0.68847656,0.21289062,0.061523438,41.0625,19.53125,51.6875
121,1727268353472,-1.2460938,0.0,-0.029296875,61.03125,-9.21875,33.84375
122,1727268353532,-1.2832031,0.15917969,0.14160156,11.53125,-7.8125,-23.875
123,1727268353566,-1.421875,0.09472656,0.07421875,-41.6875,-52.6875,-67.46875
124,1727268353596,-1.2587891,0.49316406,0.3310547,-42.75,-90.84375,-82.28125
125,1727268353652,-1.0039062,0.4873047,-0.013671875,7.96875,-81.1875,-56.96875
126,1727268353686,-1.1982422,0.125,-0.107421875,-10.40625,-68.875,-36.5625
127,1727268353712,-1.1162109,-0.15332031,0.21484375,-70.625,-63.4375,-39.1875
128,1727268353772,-1.0146484,0.032226562,0.03125,102.28125,-59.21875,-45.4375
129,1727268353803,-0.83984375,0.38085938,-0.046875,49.0625,-47.625,-49.75
130,1727268353840,-0.70996094,0.2421875,-0.06640625,31.0625,-12.28125,-42.5625
131,1727268353892,-0.50683594,0.15234375,0.024414062,-22.65625,32.21875,-27.25
132,1727268353922,-0.4033203,0.27539062,0.12011719,-26.1875,73.03125,4.6875
133,1727268353952,-0.71875,0.3154297,0.37109375,-56.34375,90.8125,38.125
134,1727268354041,-2.0,-0.59765625,-0.8330078,78.28125,-8.6875,37.875
135,1727268354079,-0.8925781,0.4970703,0.20214844,41.4375,-24.1875,-9.59375
136,1727268354101,-1.0087891,0.41601562,-0.15722656,-97.25,23.90625,50.34375
137,1727268354134,-1.1914062,0.23925781,-0.4560547,12.625,4.0,54.5
138,1727268354163,-1.2568359,-0.2919922,-0.5449219,84.15625,21.59375,48.6875
139,1727268354192,-1.1464844,-0.35839844,-0.09765625,-54.65625,87.15625,31.40625
140,1727268354251,-1.046875,0.18847656,0.20996094,-241.65625,85.8125,14.09375
141,1727268354284,-0.9824219,0.08300781,0.22070312,-27.78125,3.15625,53.09375
142,1727268354318,-0.89453125,-0.119140625,-0.13085938,32.09375,-0.5,48.25
143,1727268354371,-0.79589844,-0.11230469,-0.046875,11.28125,19.21875,36.90625
144,1727268354401,-0.74316406,-0.01953125,0.17480469,-27.65625,31.96875,34.59375
145,1727268354432,-0.88378906,-0.43554688,0.06933594,-67.03125,-44.875,18.125
146,1727268354492,-1.1835938,0.034179688,-0.017578125,59.96875,-12.28125,-68.1875
147,1727268354521,-1.5087891,0.6972656,0.6972656,0.03125,-72.59375,-98.09375
148,1727268354556,-1.5175781,0.46191406,0.064453125,64.0,-112.6875,-81.4375
149,1727268354611,-1.2783203,0.2841797,-0.3173828,69.6875,-95.28125,-37.5
150,1727268354642,-1.0634766,-0.033203125,-0.09667969,19.5625,-46.03125,-35.96875
151,1727268354703,-1.3154297,0.020507812,0.32714844,-188.125,-32.375,-64.78125
152,1727268354732,-0.8955078,0.3076172,0.091796875,86.46875,-48.125,-22.59375
153,1727268354762,-0.54003906,0.33398438,-0.15820312,104.40625,-52.125,-23.9375
154,1727268354796,-0.6035156,0.001953125,-0.12695312,-30.96875,14.03125,-34.75
155,1727268354852,-0.5205078,0.036132812,-0.04296875,-16.625,35.9375,-18.8125
156,1727268354916,-0.3955078,0.26171875,-0.051757812,29.71875,63.21875,11.03125
157,1727268354942,-1.0810547,0.21777344,0.56640625,4.0,104.40625,44.71875
158,1727268354972,-1.8339844,0.041015625,-1.1884766,190.90625,9.5625,-7.65625
159,1727268355036,-0.6298828,1.4863281,1.6113281,15.1875,54.1875,6.9375
160,1727268355062,-1.0175781,0.30664062,-0.40527344,-41.65625,9.09375,66.28125
161,1727268355091,-1.1474609,-0.032226562,-0.5185547,13.15625,16.28125,53.4375
162,1727268355123,-1.0449219,-0.35742188,-0.37109375,112.15625,30.3125,55.65625
163,1727268355152,-1.0068359,-0.1796875,0.022460938,-104.625,105.5,6.6875
164,1727268355212,-1.0810547,0.22363281,0.08496094,-96.8125,57.28125,5.34375
165,1727268355241,-0.99609375,0.1640625,0.017578125,-0.9375,18.0625,39.34375
166,1727268355302,-0.9482422,-0.024414062,-0.15332031,-18.09375,13.34375,40.375
167,1727268355332,-0.89453125,-0.041015625,-0.109375,-4.15625,27.9375,45.5625
168,1727268355362,-0.9667969,-0.07421875,0.01953125,14.3125,25.375,50.71875
169,1727268355392,-0.9658203,-0.12695312,0.095703125,25.1875,0.28125,50.65625
170,1727268355459,-1.3886719,-0.20996094,-0.059570312,45.5625,-3.5625,15.0625
171,1727268355512,-1.359375,0.20703125,0.24609375,32.03125,-8.0625,-28.46875
172,1727268355542,-1.2578125,0.17382812,0.296875,-0.25,-91.3125,-59.28125
173,1727268355571,-1.2089844,0.5673828,0.24707031,39.15625,-130.3125,-74.34375
174,1727268355601,-1.1074219,0.3359375,-0.2626953,74.03125,-119.21875,-44.3125
175,1727268355631,-1.0322266,0.08984375,-0.18261719,31.125,-64.21875,-43.46875
176,1727268355692,-1.2431641,0.028320312,0.16894531,-142.21875,-43.21875,-64.84375
177,1727268355722,-1.0029297,0.060546875,0.14941406,10.3125,-42.5625,-50.1875
178,1727268355752,-0.7060547,0.18457031,-0.14746094,42.59375,-59.90625,-58.0625
179,1727268355812,-0.6298828,0.10253906,-0.059570312,18.78125,-5.09375,-40.53125
180,1727268355841,-0.42382812,0.11035156,0.0126953125,21.28125,29.34375,-23.03125
181,1727268355872,-0.31933594,0.31640625,0.10449219,36.53125,66.8125,9.9375
182,1727268355932,-2.0,-0.3828125,2.0,-59.28125,-20.40625,21.53125
183,1727268355962,-0.95703125,0.49414062,-0.9248047,104.28125,-20.21875,24.9375
184,1727268355992,-1.1357422,1.1289062,0.5488281,-108.78125,13.09375,61.75
185,1727268356052,-1.1503906,0.12695312,-0.34570312,-34.5625,49.4375,65.65625
186,1727268356082,-1.2246094,-0.26660156,-0.25097656,34.34375,37.28125,72.96875
187,1727268356113,-1.265625,-0.47558594,-0.16601562,-109.6875,42.71875,37.09375
188,1727268356172,-1.1113281,0.09863281,0.05078125,-8.8125,68.59375,31.0
189,1727268356202,-1.0576172,0.2578125,0.14746094,30.875,35.9375,47.84375
190,1727268356231,-0.8691406,-0.030273438,-0.029296875,16.90625,22.09375,47.84375
191,1727268356292,-0.81933594,-0.078125,0.052734375,-25.71875,35.3125,42.65625
192,1727268356322,-0.7919922,-0.17285156,0.13476562,-26.9375,23.96875,45.8125
193,1727268356354,-0.69140625,-0.421875,0.22363281,-51.28125,2.25,39.71875
194,1727268356412,-0.9560547,-0.045898438,0.19628906,16.59375,-24.125,-38.78125
195,1727268356442,-1.3652344,0.57421875,0.2890625,109.375,-34.375,-78.03125
196,1727268356473,-1.7460938,0.6044922,0.080078125,87.9375,-96.03125,-75.46875
197,1727268356532,-1.5927734,0.50878906,-0.33789062,68.21875,-93.59375,-37.5
198,1727268356563,-1.1630859,0.14550781,-0.22167969,2.125,-54.59375,-28.8125
199,1727268356592,-1.3544922,-0.021484375,0.265625,-204.90625,-31.4375,-63.375
200,1727268356657,-1.1142578,0.29589844,0.14941406,-3.90625,-41.6875,-56.03125
201,1727268356713,-0.60253906,0.33496094,0.0029296875,78.0625,-57.5,-56.0
202,1727268356746,-0.5019531,0.09667969,-0.123046875,-47.9375,-0.375,-39.75
203,1727268356776,-0.4609375,-0.053710938,-0.015625,-30.84375,24.03125,-28.59375
204,1727268356802,-0.46972656,-0.16015625,0.14453125,18.40625,33.75,-5.21875
205,1727268356831,-0.7392578,-0.3720703,0.27246094,65.34375,30.0625,17.4375
206,1727268356897,-1.4287109,0.12792969,0.49121094,-17.46875,-41.6875,-27.0625
207,1727268356922,-1.4208984,0.9609375,-0.37597656,-113.40625,33.84375,0.34375
208,1727268356982,-1.3173828,0.32128906,-0.6513672,-49.5,-29.5625,70.96875
209,1727268357011,-1.2070312,-0.15234375,-0.53808594,-8.375,13.90625,59.90625
210,1727268357042,-1.4736328,-0.6328125,0.047851562,14.75,112.09375,83.125
211,1727268357072,-1.0693359,-0.26367188,-0.08691406,-135.6875,69.5625,40.375
212,1727268357139,-1.0478516,0.08691406,0.045898438,-35.71875,46.5625,39.59375
213,1727268357162,-0.9814453,0.095703125,0.06933594,8.15625,24.21875,48.5625
214,1727268357191,-0.87402344,-0.0126953125,-0.0625,8.84375,17.0625,44.34375
215,1727268357252,-0.86816406,-0.0546875,-0.032226562,9.03125,22.875,38.5
216,1727268357281,-0.8623047,-0.0078125,0.08105469,-6.0625,33.4375,39.84375
217,1727268357311,-0.78125,-0.123046875,0.11230469,-13.0625,15.0,47.15625
218,1727268357372,-1.2050781,-0.15820312,0.078125,21.96875,-23.8125,5.40625
219,1727268357401,-1.3134766,0.3251953,0.45898438,51.5625,-59.71875,-45.375
220,1727268357432,-1.4589844,0.44726562,0.234375,77.875,-119.03125,-58.90625
221,1727268357496,-1.53125,0.30078125,-0.18945312,57.25,-128.90625,-59.65625
222,1727268357522,-1.2412109,0.080078125,-0.2578125,47.78125,-84.78125,-50.0625
223,1727268357551,-1.0986328,-0.07421875,-0.056640625,-23.5625,-47.375,-63.3125
224,1727268357612,-1.1445312,0.1171875,0.17773438,-110.4375,-22.0,-69.34375
225,1727268357641,-0.89453125,0.17675781,0.20019531,6.625,-25.65625,-56.84375
226,1727268357672,-0.64453125,0.27246094,-0.15917969,117.28125,-29.875,-55.75
227,1727268357732,-0.5,0.09667969,-0.12988281,59.25,10.375,-37.90625
228,1727268357761,-0.3984375,0.10253906,-0.015625,12.1875,42.59375,-26.375
229,1727268357794,-0.55566406,0.09863281,0.3408203,32.875,45.6875,2.71875
230,1727268357852,-0.82421875,-0.06542969,0.2861328,50.40625,50.8125,24.15625
231,1727268357882,-2.0,-0.9941406,-0.2783203,-91.03125,-13.03125,-48.65625
232,1727268357911,-1.2099609,0.5810547,-0.1328125,-53.0625,14.875,-20.40625
233,1727268357972,-1.2949219,0.49121094,-0.32128906,-8.6875,4.5,45.6875
234,1727268358032,-1.1601562,0.3359375,-0.38671875,-76.125,47.09375,66.75
235,1727268358062,-1.0527344,0.08496094,-0.32910156,43.125,44.46875,73.71875
236,1727268358092,-1.1484375,-0.2626953,-0.056640625,-5.9375,93.96875,49.65625
237,1727268358127,-1.0,-0.14746094,-0.047851562,-133.125,59.1875,35.3125
238,1727268358152,-0.9736328,0.171875,0.04296875,-109.6875,41.1875,38.625
239,1727268358215,-0.9238281,-0.026367188,-0.07910156,-43.09375,19.8125,55.46875
240,1727268358272,-0.95996094,-0.22070312,-0.125,-5.03125,13.78125,57.96875
241,1727268358301,-0.9082031,-0.19140625,-0.068359375,-27.90625,31.34375,47.46875
242,1727268358332,-0.7685547,-0.08496094,0.13671875,-43.15625,40.4375,40.28125
243,1727268358362,-0.8691406,-0.07714844,0.23925781,-18.3125,-27.1875,17.5
244,1727268358392,-1.3398438,0.056640625,0.045898438,41.375,-15.09375,-30.21875
245,1727268358452,-1.4853516,0.2685547,0.5546875,-21.25,-98.46875,-74.1875
246,1727268358481,-1.4384766,0.3720703,0.1875,105.9375,-148.09375,-67.75
247,1727268358512,-1.2978516,0.234375,-0.14941406,100.875,-125.5625,-57.28125
248,1727268358578,-1.2841797,0.14941406,-0.203125,106.0625,-89.96875,-49.6875
249,1727268358602,-1.3652344,0.8984375,-0.85546875,-26.1875,-58.96875,-47.875
250,1727268358669,-1.2734375,-0.45996094,1.2519531,-61.71875,125.09375,-45.59375
251,1727268358692,-0.86816406,0.5078125,-0.296875,315.90625,-39.4375,-13.875
252,1727268358725,-0.6435547,0.28808594,-0.01171875,72.5625,-44.03125,-31.21875
253,1727268358752,-0.46679688,0.07421875,-0.2548828,4.125,42.21875,-22.65625
254,1727268358811,-0.53515625,-0.037109375,0.15820312,-57.875,73.90625,-20.15625
255,1727268358847,-0.62890625,-0.17089844,0.51464844,16.53125,45.5625,10.59375
256,1727268358872,-0.81347656,-0.37890625,0.20410156,86.84375,59.0625,13.71875
257,1727268358932,-2.0,-0.3125,0.9794922,-67.03125,6.875,-46.40625
258,1727268358992,-0.78222656,0.48046875,-0.4921875,-73.3125,-45.0625,-43.96875
259,1727268359022,-1.2636719,0.98046875,-0.0126953125,-40.59375,6.625,31.90625
260,1727268359052,-1.0791016,0.3046875,-0.48242188,-80.65625,28.5,77.8125
261,1727268359084,-1.0683594,0.07421875,-0.38183594,88.25,13.15625,80.1875
262,1727268359112,-1.1269531,-0.15820312,-0.27734375,132.1875,51.25,63.34375
263,1727268359171,-1.0722656,-0.3671875,-0.08496094,-201.84375,91.34375,25.9375
264,1727268359202,-1.0771484,0.109375,0.078125,-160.15625,75.78125,21.65625
265,1727268359262,-0.95410156,0.078125,0.07421875,-57.875,26.84375,36.90625
266,1727268359296,-0.8828125,-0.059570312,-0.05078125,-9.53125,6.28125,43.0
267,1727268359322,-0.9238281,-0.115234375,-0.07714844,6.8125,10.375,45.03125
268,1727268359352,-0.8701172,-0.1328125,-0.029296875,-5.03125,34.28125,37.09375
269,1727268359413,-1.2236328,-0.037109375,0.111328125,-51.71875,10.65625,4.5625
270,1727268359442,-1.09375,0.35839844,0.45117188,-10.875,-20.46875,-21.4375
271,1727268359474,-1.4501953,0.15820312,0.16796875,4.5,-79.90625,-54.28125
272,1727268359532,-1.2880859,0.43652344,0.16699219,30.25,-106.09375,-59.9375
273,1727268359567,-1.1601562,0.203125,-0.091796875,55.09375,-95.34375,-45.1875
274,1727268359592,-1.03125,-0.12011719,-0.203125,85.0625,-73.3125,-44.28125
275,1727268359652,-1.0859375,-0.06542969,0.015625,5.84375,-40.53125,-62.46875
276,1727268359682,-0.7011719,0.3984375,-0.06933594,-342.78125,-161.875,-79.46875
277,1727268359712,-1.0117188,0.16699219,0.140625,184.6875,-10.21875,-37.375
278,1727268359776,-0.7402344,0.060546875,-0.19433594,229.90625,-49.75,-29.5
279,1727268359803,-0.60058594,0.09277344,-0.15527344,7.125,7.125,-43.28125
280,1727268359835,-0.47265625,0.20214844,0.12402344,2.96875,46.75,-22.28125
281,1727268359897,-0.50097656,0.16113281,0.35253906,48.3125,46.4375,14.8125
282,1727268359922,-1.4794922,-0.123046875,1.5859375,-26.375,8.40625,24.9375
283,1727268359952,-1.5039062,0.3408203,-0.96777344,41.1875,-35.0,-40.96875
284,1727268360014,-0.99902344,1.0888672,0.5830078,-147.0,57.84375,13.28125
285,1727268360053,-1.1367188,0.2998047,-0.39160156,-101.625,25.0,64.875
286,1727268360076,-1.1630859,0.057617188,-0.31054688,33.0,17.375,67.84375
287,1727268360165,-1.0869141,-0.21289062,-0.3232422,152.28125,26.40625,68.65625
288,1727268360192,-1.0380859,-0.13671875,0.041015625,-141.5625,84.6875,23.375
289,1727268360222,-0.8828125,0.2705078,0.123046875,-129.53125,63.09375,18.40625
290,1727268360255,-0.9189453,0.13574219,-0.064453125,-44.09375,23.46875,37.875
291,1727268360283,-0.89160156,-0.10253906,-0.11425781,-22.15625,14.5625,49.1875
292,1727268360316,-0.9355469,-0.16894531,-0.10839844,-8.6875,22.8125,49.96875
293,1727268360372,-0.8330078,-0.09667969,0.029296875,-15.03125,44.34375,43.0
294,1727268360410,-0.890625,-0.025390625,0.20019531,-23.75,28.4375,36.78125
295,1727268360432,-1.2597656,-0.09375,-0.057617188,20.125,-14.71875,10.46875
296,1727268360492,-1.2216797,0.3544922,0.421875,26.71875,-19.125,-33.40625
297,1727268360555,-1.4052734,0.26953125,0.15136719,22.9375,-90.34375,-51.21875
298,1727268360581,-1.3398438,0.31640625,0.0009765625,74.5625,-100.53125,-44.375
299,1727268360612,-1.2304688,0.30664062,-0.08886719,52.71875,-93.53125,-29.0625
300,1727268360672,-1.0527344,0.015625,-0.17382812,34.78125,-66.71875,-35.84375
301,1727268360732,-1.2382812,0.091796875,0.09863281,-66.3125,-45.96875,-54.40625
302,1727268360792,-1.1337891,0.64746094,0.1171875,-139.0,-69.59375,-74.125
303,1727268360822,-0.91015625,0.26171875,0.10449219,118.6875,-20.78125,-60.8125
304,1727268360852,-0.66796875,0.31640625,-0.16992188,20.0,-39.1875,-40.90625
305,1727268360883,-0.61816406,-0.13476562,0.01953125,-25.46875,6.5,-30.34375
306,1727268360917,-0.5810547,-0.15234375,0.11328125,11.59375,24.59375,-20.84375
307,1727268360941,-0.42578125,0.0009765625,0.140625,44.46875,36.0625,1.6875
308,1727268360972,-0.8613281,-0.18261719,0.38671875,85.875,36.0,25.625
309,1727268361002,-1.5996094,0.6826172,-0.6738281,61.875,-7.9375,-14.53125
310,1727268361036,-0.88183594,0.9921875,0.5419922,-117.625,96.1875,6.34375
311,1727268361092,-1.0888672,0.47753906,-0.36132812,-118.0625,32.9375,77.6875
312,1727268361125,-1.2666016,0.109375,-0.41210938,-30.15625,12.875,76.78125
313,1727268361152,-1.1923828,-0.18652344,-0.33984375,160.5,28.90625,87.25
314,1727268361212,-1.1074219,-0.5644531,-0.045898438,-166.53125,69.9375,40.9375
315,1727268361243,-0.96972656,0.23632812,0.3046875,-104.9375,66.03125,37.65625
316,1727268361303,-0.8847656,-0.037109375,-0.068359375,29.40625,-3.625,49.375
317,1727268361332,-0.83203125,-0.12011719,-0.0859375,37.71875,20.84375,45.6875
318,1727268361362,-0.9472656,-0.08691406,0.032226562,17.5625,34.46875,32.875
319,1727268361392,-0.828125,-0.05859375,0.28125,-1.0,17.3125,36.125
320,1727268361452,-1.1044922,-0.2109375,0.0234375,14.21875,-21.4375,12.375
321,1727268361486,-1.2744141,0.3671875,0.29492188,39.59375,15.84375,-39.875
322,1727268361547,-1.3886719,0.52734375,0.3486328,58.21875,-87.28125,-48.96875
323,1727268361572,-1.4091797,0.515625,-0.038085938,68.09375,-101.75,-43.90625
324,1727268361602,-1.1679688,0.2685547,-0.21875,56.0,-80.8125,-32.84375
325,1727268361632,-1.0478516,-0.029296875,-0.15527344,11.21875,-33.28125,-39.1875
326,1727268361692,-1.1728516,0.0703125,0.3154297,-168.21875,-29.6875,-72.15625
327,1727268361728,-0.9814453,0.30664062,0.25390625,40.4375,-50.0625,-65.625
328,1727268361782,-0.66796875,0.3251953,-0.053710938,119.5625,-49.15625,-70.625
329,1727268361811,-0.5439453,0.16796875,-0.08203125,-59.34375,10.65625,-64.09375
330,1727268361844,-0.5283203,-0.16210938,-0.0029296875,-12.46875,22.625,-41.9375
331,1727268361872,-0.45996094,-0.046875,0.21679688,49.125,26.28125,-12.71875
332,1727268361937,-0.68652344,-0.18457031,0.14160156,100.21875,30.6875,16.15625
333,1727268361961,-2.0,-0.7011719,1.4179688,-18.25,-44.875,-24.96875
334,1727268361994,-1.5234375,0.8359375,-0.515625,-76.1875,-19.0,-22.21875
335,1727268362056,-1.2275391,0.8720703,0.109375,-10.9375,10.40625,43.1875
336,1727268362082,-1.1992188,0.3046875,-0.44628906,-90.28125,11.21875,72.375
337,1727268362112,-1.140625,0.12402344,-0.40820312,17.0625,53.75,62.0625
338,1727268362172,-1.1835938,-0.040039062,-0.33691406,51.0,52.65625,71.625
339,1727268362203,-1.1396484,-0.41796875,0.08496094,-254.65625,147.1875,55.71875
340,1727268362232,-0.87109375,0.123046875,0.2607422,-144.78125,42.28125,42.09375
341,1727268362292,-0.92285156,-0.1171875,-0.11328125,25.4375,8.15625,47.90625
342,1727268362321,-0.89746094,-0.12402344,-0.11230469,6.03125,26.28125,44.53125
343,1727268362352,-0.8359375,-0.13085938,0.0068359375,-13.9375,29.59375,42.65625
344,1727268362412,-0.9003906,-0.10546875,0.032226562,18.78125,36.78125,40.21875
345,1727268362442,-0.8925781,-0.037109375,0.13378906,-1.65625,37.21875,35.5
346,1727268362472,-1.2861328,0.060546875,0.18359375,-3.6875,-8.25,-5.5625
347,1727268362562,-1.3320312,0.31640625,0.38183594,-34.125,-53.84375,-76.1875
348,1727268362592,-1.5546875,0.5214844,0.28027344,20.0625,-102.4375,-85.9375
349,1727268362622,-1.5283203,0.36523438,-0.037109375,64.9375,-119.875,-57.15625
350,1727268362652,-1.3417969,0.14550781,-0.30273438,143.46875,-99.8125,-26.25
351,1727268362682,-1.2255859,0.0703125,-0.0859375,20.6875,-65.5,-32.25
352,1727268362712,-1.0957031,0.28515625,0.3330078,-164.8125,-34.8125,-52.1875
353,1727268362774,-0.7011719,0.50390625,0.11816406,59.8125,-63.90625,-55.6875
354,1727268362802,-0.63964844,0.12597656,-0.2109375,66.21875,-7.21875,-50.3125
355,1727268362832,-0.5830078,-0.16601562,-0.07128906,-51.90625,26.59375,-40.1875
356,1727268362892,-0.5449219,-0.09472656,0.14355469,14.75,15.625,-4.40625
357,1727268362922,-0.39160156,0.0625,0.25,96.46875,31.84375,23.4375
358,1727268362952,-0.99902344,-0.34765625,0.94921875,12.5,39.90625,11.9375
359,1727268363012,-1.3935547,0.81640625,-0.89746094,104.90625,-43.53125,-2.75
360,1727268363042,-0.85839844,1.1455078,0.39160156,-139.71875,106.0,-14.40625
361,1727268363072,-1.2109375,0.37109375,-0.35839844,-85.28125,26.78125,71.875
362,1727268363132,-1.3759766,0.13671875,-0.49121094,43.25,4.375,70.3125
363,1727268363161,-1.1923828,-0.087890625,-0.2265625,117.125,55.40625,77.1875
364,1727268363196,-1.1005859,-0.23046875,0.03125,-202.59375,30.0625,28.3125
365,1727268363252,-0.9277344,0.1640625,0.23925781,-18.6875,24.8125,47.84375
366,1727268363283,-0.88671875,-0.045898438,-0.076171875,31.125,10.0625,49.53125
367,1727268363312,-0.86035156,-0.14550781,-0.08496094,-1.0625,28.625,44.0
368,1727268363402,-0.8095703,-0.1640625,0.0390625,-13.5,35.3125,42.34375
369,1727268363432,-0.8798828,-0.2265625,0.072265625,15.0,29.15625,39.53125
370,1727268363465,-0.8671875,-0.24902344,0.17773438,2.96875,21.34375,33.375
371,1727268363492,-1.4238281,0.10058594,0.08496094,50.34375,19.21875,-29.5
372,1727268363523,-1.3457031,0.5957031,0.53808594,42.53125,-32.84375,-55.1875
373,1727268363552,-1.4785156,0.46679688,0.1875,74.9375,-110.125,-57.03125
374,1727268363612,-1.3867188,0.33398438,-0.13964844,60.53125,-114.75,-41.09375
375,1727268363671,-1.0751953,0.17871094,-0.31933594,78.125,-81.9375,-28.53125
376,1727268363703,-1.1894531,-0.060546875,0.00390625,-23.75,-33.21875,-48.0625
377,1727268363732,-0.92871094,0.024414062,0.57714844,-353.46875,-5.15625,-62.5625
378,1727268363762,-0.90527344,0.22460938,-0.0087890625,222.46875,-60.25,-45.0
379,1727268363821,-0.5908203,0.20996094,-0.23046875,139.5625,-31.375,-40.125
380,1727268363853,-0.4453125,0.11035156,-0.0009765625,-68.5625,29.53125,-47.625
381,1727268363882,-0.4296875,0.07910156,0.18066406,-2.8125,29.40625,-15.9375
382,1727268363919,-0.48632812,0.02734375,0.31445312,52.09375,52.0625,15.5
383,1727268363972,-1.6474609,-0.62597656,1.9853516,-51.84375,-8.1875,-2.53125
384,1727268364002,-1.421875,0.72753906,-0.71777344,26.46875,-60.0,-17.40625
385,1727268364032,-0.9355469,1.1513672,0.15722656,-107.875,93.625,3.03125
386,1727268364095,-1.2480469,0.17089844,-0.42089844,-63.0,-9.59375,69.1875
387,1727268364152,-1.2080078,0.05078125,-0.52734375,119.4375,28.5,76.34375
388,1727268364182,-1.3173828,-0.57910156,0.12011719,21.78125,111.3125,69.5625
389,1727268364212,-1.0966797,0.095703125,0.37109375,-252.03125,81.96875,23.375
390,1727268364242,-0.9511719,0.043945312,0.16503906,-38.21875,-7.15625,54.71875
391,1727268364302,-0.8779297,-0.15917969,-0.07714844,37.15625,8.90625,46.25
392,1727268364332,-0.85058594,-0.13476562,-0.045898438,12.0625,19.15625,38.8125
393,1727268364370,-0.76464844,-0.16113281,0.005859375,-14.84375,17.5,30.9375
394,1727268364422,-0.7529297,-0.12207031,0.16113281,-19.25,15.25,24.40625
395,1727268364452,-1.1943359,-0.21875,0.08105469,2.0,-15.15625,-6.71875
396,1727268364482,-1.2070312,0.5644531,0.5253906,-12.03125,-14.65625,-47.875
397,1727268364572,-1.6933594,0.47070312,0.24414062,54.375,-72.21875,-56.96875
398,1727268364602,-1.4677734,0.49316406,0.12597656,40.875,-80.65625,-34.25
399,1727268364632,-1.1630859,0.19824219,-0.103515625,98.875,-85.34375,-12.71875
400,1727268364662,-1.0439453,-0.048828125,-0.1015625,52.21875,-27.90625,-30.90625
401,1727268364692,-1.0175781,0.24707031,0.29492188,-127.8125,-25.96875,-51.53125
402,1727268364722,-0.72558594,-0.14746094,1.0820312,-203.4375,163.5,-12.15625
403,1727268364782,-0.6972656,-0.19140625,0.021484375,220.03125,0.46875,-0.4375
404,1727268364812,-0.7314453,0.14648438,-0.10546875,147.4375,-13.75,-22.71875
405,1727268364842,-0.5566406,0.09472656,-0.056640625,-7.53125,18.21875,-31.5
406,1727268364902,-0.57128906,0.109375,0.2861328,-16.0625,37.71875,-11.96875
407,1727268364932,-0.6328125,-0.091796875,0.3017578,35.1875,30.0625,10.71875
408,1727268364962,-1.2578125,-0.6582031,0.7167969,10.1875,33.375,-3.8125
409,1727268365022,-1.8720703,0.055664062,-0.4873047,61.75,-35.84375,-95.53125
410,1727268365052,-0.95703125,0.984375,-0.37109375,-148.75,26.09375,-33.21875
411,1727268365084,-1.2148438,0.85253906,0.064453125,-13.625,36.0625,65.34375
412,1727268365202,-1.3671875,0.016601562,-0.3720703,-19.1875,2.1875,75.1875
413,1727268365262,-1.2207031,-0.119140625,-0.3642578,213.65625,11.71875,93.90625
414,1727268365295,-1.2070312,-0.29785156,-0.2607422,-132.09375,56.0,32.40625
415,1727268365322,-1.1210938,0.07910156,0.29003906,-228.84375,86.90625,18.28125
416,1727268365352,-0.92871094,0.24316406,0.38378906,-65.375,11.53125,47.21875
417,1727268365382,-0.8173828,-0.1171875,-0.13085938,36.4375,-6.25,56.25
418,1727268365416,-0.8701172,-0.24316406,-0.1796875,24.15625,1.75,45.5625
419,1727268365442,-0.74316406,-0.25878906,-0.20214844,21.46875,7.8125,33.25
420,1727268365474,-0.7871094,-0.11621094,-0.038085938,40.03125,57.125,20.75
421,1727268365507,-1.0839844,0.15429688,0.375,-84.0625,45.8125,-0.4375
422,1727268365532,-1.1767578,0.14550781,0.087890625,60.90625,-25.28125,-16.1875
423,1727268365571,-1.4335938,0.3359375,0.44335938,-7.53125,-80.65625,-51.78125
424,1727268365626,-1.4570312,0.28027344,0.09765625,55.90625,-97.96875,-62.625
425,1727268365652,-1.3632812,0.24609375,0.013671875,68.46875,-97.71875,-56.59375
426,1727268365682,-1.2285156,0.0625,-0.13867188,115.40625,-72.84375,-48.78125
427,1727268365746,-1.1240234,0.1328125,-0.03125,36.125,-47.5,-51.90625
428,1727268365773,-0.9667969,0.33496094,0.26660156,-57.6875,-41.8125,-48.1875
429,1727268365801,-0.7089844,0.3623047,0.13867188,67.125,-58.78125,-44.8125
430,1727268365862,-0.5830078,0.22265625,-0.2705078,7.0625,-9.28125,-44.625
431,1727268365892,-0.58691406,-0.033203125,0.053710938,-37.0625,25.1875,-36.625
432,1727268365922,-0.6230469,-0.038085938,0.30859375,8.59375,22.375,-19.3125
433,1727268366016,-0.6611328,-0.2607422,0.13769531,19.75,23.59375,-10.75
434,1727268366043,-0.71875,-0.061523438,0.13085938,62.90625,33.5,-7.9375
435,1727268366102,-2.0,-0.47851562,1.7167969,-32.125,-18.03125,-47.8125
436,1727268366134,-1.2519531,0.9921875,-0.4111328,-91.75,18.1875,13.53125
437,1727268366162,-1.2119141,0.45117188,-0.40429688,-32.1875,-8.375,84.59375
438,1727268366192,-1.2597656,-0.11816406,-0.5908203,-34.1875,42.71875,75.59375
439,1727268366252,-1.0898438,-0.26953125,-0.44140625,82.625,67.125,79.34375
440,1727268366289,-1.0585938,-0.44140625,-0.053710938,-247.15625,50.34375,-3.625
441,1727268366315,-1.1142578,0.15917969,0.32910156,-85.90625,71.6875,21.28125
442,1727268366342,-0.9951172,0.19335938,0.018554688,61.3125,25.125,39.40625
443,1727268366373,-0.95996094,0.068359375,-0.09375,39.59375,19.40625,38.8125
444,1727268366402,-0.8769531,0.021484375,-0.103515625,-13.5,25.625,31.65625
445,1727268366462,-0.8779297,0.10839844,-0.08105469,-11.3125,40.5,33.90625
446,1727268366492,-0.9121094,-0.049804688,0.04296875,9.25,16.84375,52.15625
447,1727268366522,-0.93359375,-0.34179688,-0.0068359375,-10.28125,23.96875,48.15625
448,1727268366582,-0.95996094,-0.24414062,0.20410156,-8.9375,19.15625,19.21875
449,1727268366613,-1.5488281,0.26953125,-0.057617188,105.46875,-1.59375,-32.5
450,1727268366641,-1.4892578,0.6669922,0.5136719,-5.8125,-86.8125,-61.96875
451,1727268366734,-1.3505859,0.37695312,0.08300781,88.65625,-149.6875,-46.71875
452,1727268366766,-1.1845703,0.2841797,-0.19140625,76.28125,-128.5625,-35.28125
453,1727268366793,-1.0419922,0.041992188,-0.21972656,69.3125,-89.5,-30.90625
454,1727268366852,-1.1679688,0.17578125,-0.10449219,-6.5,-65.5625,-31.25
455,1727268366882,-1.0214844,0.083984375,0.18066406,-86.0,-75.21875,-40.46875
456,1727268366912,-0.87109375,0.3671875,0.11230469,46.5625,-71.1875,-55.5
457,1727268366942,-0.65234375,0.33691406,0.07714844,-11.4375,-41.34375,-56.53125
458,1727268366973,-0.48828125,0.06738281,-0.043945312,-59.78125,8.15625,-40.53125
459,1727268367002,-0.49902344,-0.0390625,0.14550781,2.5,31.90625,-19.0
460,1727268367062,-0.57714844,-0.2265625,0.32617188,31.34375,45.75,3.90625
461,1727268367096,-0.9980469,-0.3623047,0.4111328,9.25,54.1875,4.0
462,1727268367124,-1.9765625,0.47070312,-0.8544922,91.46875,12.625,-13.5625
463,1727268367182,-0.89941406,1.4765625,1.2207031,6.21875,103.0625,8.46875
464,1727268367212,-1.1240234,0.31347656,-0.4404297,-71.1875,77.125,62.78125
465,1727268367243,-1.1464844,-0.056640625,-0.3779297,-15.09375,52.40625,68.03125
466,1727268367302,-0.9980469,-0.49902344,-0.07128906,-155.78125,55.40625,48.8125
467,1727268367332,-0.9511719,-0.14648438,-0.028320312,-51.40625,65.96875,24.53125
468,1727268367362,-0.99609375,0.09765625,0.060546875,-34.6875,57.25,26.53125
469,1727268367422,-0.98046875,0.091796875,0.005859375,26.09375,27.15625,41.78125
470,1727268367516,-0.9863281,0.00390625,-0.09667969,6.15625,24.75,47.46875
471,1727268367545,-1.0107422,-0.032226562,-0.09863281,-14.59375,31.0625,45.40625
472,1727268367572,-0.9453125,-0.111328125,-0.040039062,-0.75,31.1875,45.34375
473,1727268367602,-0.92089844,-0.15527344,0.0009765625,3.78125,29.9375,48.4375
474,1727268367637,-0.9609375,-0.18945312,0.15917969,-7.9375,26.03125,38.5625
475,1727268367664,-1.2470703,0.2705078,0.20117188,48.625,11.9375,-10.75
476,1727268367696,-1.3691406,0.4736328,0.3330078,16.09375,-64.09375,-36.34375
477,1727268367722,-1.3613281,0.30859375,0.1953125,15.25,-125.625,-39.125
478,1727268367786,-1.28125,0.29296875,-0.061523438,67.1875,-132.15625,-32.96875
479,1727268367812,-1.1230469,0.12695312,-0.2734375,81.65625,-90.59375,-33.71875
480,1727268367876,-1.1123047,0.09667969,-0.16503906,25.125,-53.90625,-41.9375
481,1727268367902,-1.0361328,0.091796875,0.19433594,-144.375,-57.03125,-54.9375
482,1727268367932,-0.91015625,0.19042969,0.23828125,28.375,-66.0,-65.75
483,1727268367962,-0.59472656,0.25976562,-0.11328125,31.40625,-49.03125,-63.8125
484,1727268368023,-0.55078125,0.038085938,-0.015625,-14.25,-10.6875,-52.875
485,1727268368053,-0.4248047,0.01953125,0.044921875,12.75,10.375,-29.625
486,1727268368083,-0.43847656,0.061523438,0.2529297,25.6875,30.375,-13.0625
487,1727268368142,-0.58984375,-0.2783203,0.41601562,40.9375,47.34375,4.0625
488,1727268368172,-1.6777344,-0.26660156,1.7226562,32.6875,0.53125,-10.8125
489,1727268368203,-2.0,0.5595703,-0.9394531,-112.5,1.15625,-36.03125
490,1727268368262,-0.80566406,0.7998047,-0.025390625,-13.0625,-33.34375,36.375
491,1727268368322,-1.2763672,0.23828125,-0.37695312,-10.75,38.375,77.8125
492,1727268368383,-1.2138672,-0.0126953125,-0.4453125,118.34375,36.375,59.8125
493,1727268368443,-1.0625,-0.33691406,-0.05078125,-198.0625,60.90625,16.78125
494,1727268368472,-1.0029297,0.07714844,0.18066406,-27.84375,51.125,23.0
495,1727268368507,-0.8691406,0.23632812,0.015625,9.03125,36.4375,43.5
496,1727268368538,-0.84472656,-0.009765625,-0.07519531,-35.59375,32.09375,56.6875
497,1727268368564,-0.9482422,-0.24414062,-0.12011719,-9.125,36.71875,62.375
498,1727268368627,-0.9375,-0.24804688,-0.16503906,12.375,43.125,58.875
499,1727268368657,-0.87402344,-0.04296875,0.064453125,-4.21875,89.59375,41.71875
500,1727268368684,-0.94140625,0.18359375,0.44628906,18.53125,13.03125,51.1875
501,1727268368713,-1.4169922,-0.12207031,-0.27441406,76.59375,-17.78125,28.4375
502,1727268368747,-1.4746094,0.43847656,0.13085938,-15.75,20.25,-40.25
503,1727268368772,-1.3574219,-0.07421875,0.53125,-121.53125,-78.375,-75.875
504,1727268368803,-1.1201172,0.2421875,0.390625,11.34375,-140.75,-69.21875
505,1727268368862,-1.0273438,0.38378906,-0.22363281,103.875,-131.96875,-33.84375
506,1727268368892,-0.99121094,0.046875,-0.24511719,94.46875,-101.875,-31.8125
507,1727268368927,-1.1289062,-0.022460938,-0.013671875,-38.59375,-56.53125,-52.375
508,1727268368982,-1.1650391,-0.08300781,0.3173828,-63.4375,-30.59375,-49.875
509,1727268369012,-0.8232422,0.32714844,0.01171875,104.90625,-81.0,-45.65625
510,1727268369042,-0.61621094,0.22265625,-0.08691406,-37.5625,-23.875,-59.65625
511,1727268369163,-0.5371094,-0.047851562,0.041015625,-13.25,25.8125,-40.125
512,1727268369193,-0.328125,0.06738281,0.0029296875,37.09375,41.84375,-12.03125
513,1727268369226,-0.23730469,0.3701172,0.013671875,23.0,88.4375,15.0625
514,1727268369257,-1.8720703,0.064453125,2.0,-88.53125,120.09375,55.34375
515,1727268369281,-1.8046875,-0.52441406,-1.3808594,196.46875,-30.40625,-40.3125
516,1727268369312,-0.6035156,1.1894531,0.49902344,-135.5,-45.84375,-2.59375
517,1727268369347,-1.2148438,0.51464844,-0.6074219,-75.875,33.4375,65.90625
518,1727268369375,-1.0849609,0.060546875,-0.54296875,36.96875,35.15625,63.40625
519,1727268369402,-1.0976562,-0.4267578,0.119140625,63.875,73.28125,51.875
520,1727268369462,-1.1503906,-0.54296875,0.005859375,-228.40625,56.9375,30.375
521,1727268369499,-1.0,0.25585938,0.3955078,-110.90625,73.34375,29.34375
522,1727268369522,-0.9375,0.08496094,-0.0546875,52.15625,8.84375,54.96875
523,1727268369586,-0.89941406,-0.10058594,-0.08984375,-1.0625,21.84375,50.09375
524,1727268369642,-0.8955078,-0.125,-0.12695312,-25.21875,30.4375,44.53125
525,1727268369673,-0.88378906,-0.043945312,-0.032226562,-34.25,43.25,45.5625
526,1727268369706,-0.9550781,-0.19140625,0.18457031,-34.5,19.03125,46.90625
527,1727268369742,-1.4560547,-0.2607422,-0.12597656,45.75,-8.5625,-1.25
528,1727268369769,-1.75,0.46289062,0.41992188,37.28125,31.71875,-56.15625
529,1727268369853,-1.5253906,0.19042969,0.5185547,-60.5625,-115.4375,-79.71875
530,1727268369882,-1.1318359,0.35351562,0.24023438,37.03125,-155.03125,-78.09375
531,1727268369912,-1.0693359,0.22265625,-0.15234375,65.28125,-125.25,-48.125
532,1727268369942,-1.0791016,0.044921875,-0.28808594,25.4375,-94.5,-51.40625
533,1727268369977,-1.0498047,-0.080078125,0.00390625,-17.59375,-36.75,-64.21875
534,1727268370002,-1.0458984,-0.048828125,0.15722656,59.96875,-40.78125,-45.4375
535,1727268370092,-0.78808594,0.3828125,-0.13867188,119.0625,-73.5625,-56.78125
536,1727268370122,-0.6015625,0.46191406,0.029296875,23.96875,-22.15625,-53.59375
537,1727268370157,-0.58203125,-0.11425781,0.045898438,-3.375,29.28125,-41.875
538,1727268370185,-0.5566406,-0.18652344,0.060546875,28.78125,54.3125,-20.71875
539,1727268370212,-0.43847656,0.00390625,0.09472656,14.28125,88.4375,1.375
540,1727268370242,-0.8642578,0.068359375,0.49023438,35.4375,89.65625,33.625
541,1727268370362,-2.0,-0.06933594,-0.7783203,67.3125,28.0625,-59.9375
542,1727268370392,-0.16210938,1.1738281,0.8955078,-67.59375,28.5625,-9.125
543,1727268370422,-1.0761719,0.5048828,-0.27148438,-30.46875,18.0625,87.5
544,1727268370456,-1.2548828,0.076171875,-0.58984375,73.59375,-8.1875,82.875
545,1727268370512,-1.0146484,-0.0087890625,-0.34765625,81.28125,56.125,71.46875
546,1727268370548,-1.2714844,-0.32226562,0.087890625,-35.46875,100.25,42.78125
547,1727268370572,-0.9746094,0.043945312,0.23828125,-292.375,82.5625,29.21875
548,1727268370609,-1.0205078,0.041992188,0.20800781,-42.0,12.125,53.28125
549,1727268370662,-0.8388672,-0.095703125,-0.078125,56.5,3.21875,50.28125
550,1727268370697,-0.8515625,-0.11035156,-0.16113281,16.65625,18.125,38.1875
551,1727268370726,-0.82421875,-0.08886719,-0.07910156,-0.3125,44.0625,38.9375
552,1727268370753,-0.8808594,-0.06542969,0.17480469,-22.53125,48.1875,46.375
553,1727268370782,-1.6855469,-0.038085938,-0.040039062,62.5,14.09375,0.65625
554,1727268370813,-1.5634766,0.6953125,0.46972656,14.9375,-22.65625,-56.03125
555,1727268370846,-1.2460938,0.34472656,0.42871094,-12.21875,-154.4375,-74.34375
556,1727268370901,-1.2988281,0.43164062,-0.0234375,61.5,-138.5625,-58.59375
557,1727268370932,-1.0839844,0.10253906,-0.359375,-49.46875,-102.3125,-35.59375
558,1727268370965,-0.94433594,-0.06738281,0.109375,-76.375,-53.40625,-48.40625
559,1727268371022,-1.0185547,-0.13574219,0.16992188,42.15625,-58.125,-57.5
560,1727268371052,-1.0185547,0.14746094,-0.033203125,212.03125,-75.09375,-28.15625
561,1727268371082,-0.72753906,0.47265625,-0.005859375,56.1875,-63.96875,-41.03125
562,1727268371146,-0.54003906,0.4580078,0.0703125,-97.4375,-11.4375,-55.5625
563,1727268371172,-0.62109375,-0.13378906,0.11035156,-61.71875,36.0,-49.875
564,1727268371209,-0.6972656,-0.265625,0.20898438,16.53125,32.46875,-30.78125
565,1727268371263,-0.55859375,-0.038085938,0.18457031,55.28125,28.5625,-6.96875
566,1727268371292,-0.59765625,0.059570312,0.103515625,43.5625,69.8125,2.90625
567,1727268371327,-2.0,-0.75390625,1.28125,-30.53125,36.1875,15.71875
568,1727268371412,-1.2744141,0.43066406,-0.51464844,-128.6875,24.75,-14.1875
569,1727268371447,-1.0419922,0.56152344,-0.009765625,-40.0625,20.84375,39.34375
570,1727268371472,-1.0039062,0.1328125,-0.44335938,-38.96875,33.125,73.03125
571,1727268371502,-1.0947266,0.06933594,-0.4111328,33.75,34.15625,70.25
572,1727268371533,-1.0810547,-0.06347656,-0.26757812,66.34375,58.46875,57.1875
573,1727268371562,-1.1904297,-0.32910156,-0.0078125,-162.5625,131.6875,45.75
574,1727268371626,-0.9941406,0.10058594,0.24902344,-233.09375,86.34375,25.5625
575,1727268371652,-0.8955078,-0.0078125,0.061523438,-9.53125,8.65625,45.75
576,1727268371685,-0.93652344,-0.080078125,-0.12988281,40.75,11.03125,41.625
577,1727268371742,-0.86035156,-0.072265625,-0.13964844,13.15625,24.75,38.1875
578,1727268371775,-0.8046875,-0.029296875,-0.024414062,13.28125,50.8125,44.90625
579,1727268371803,-0.8886719,-0.0078125,0.34277344,5.21875,5.125,47.09375
580,1727268371865,-1.6220703,0.0009765625,-0.10253906,67.3125,-1.53125,-3.3125
581,1727268371893,-1.4765625,0.53222656,0.3095703,-15.46875,-28.59375,-64.40625
582,1727268371922,-1.5712891,0.3515625,0.28320312,-55.1875,-121.09375,-87.71875
583,1727268371982,-1.2392578,0.38476562,-0.036132812,35.9375,-133.6875,-64.34375
584,1727268372012,-1.0888672,0.06347656,-0.2578125,85.4375,-87.78125,-40.84375
585,1727268372046,-1.0791016,-0.06738281,-0.103515625,30.0625,-37.4375,-43.53125
586,1727268372107,-1.1650391,-0.23730469,0.018554688,30.9375,-53.25,-50.625
587,1727268372132,-0.75683594,0.27734375,0.0029296875,165.4375,-101.15625,-64.53125
588,1727268372162,-0.4765625,0.4970703,-0.2578125,20.3125,-42.96875,-68.5
589,1727268372222,-0.40820312,0.2421875,0.01171875,2.0,24.15625,-48.65625
590,1727268372252,-0.41601562,0.15429688,-0.018554688,33.25,45.46875,-14.53125
591,1727268372282,-0.49121094,0.2548828,0.44335938,19.75,63.9375,14.375
592,1727268372346,-0.8652344,-0.20996094,0.44921875,27.4375,74.03125,37.21875
593,1727268372372,-2.0,-0.77441406,0.4111328,-199.1875,39.09375,-80.21875
594,1727268372402,-0.68847656,0.5390625,-0.32226562,-82.34375,-26.8125,-33.21875
595,1727268372462,-1.1699219,0.7158203,-0.123046875,-94.0625,38.3125,51.625
596,1727268372492,-1.1289062,0.16503906,-0.45703125,29.59375,-19.25,94.09375
597,1727268372522,-0.9628906,-0.14746094,-0.55371094,-9.125,49.0,46.96875
598,1727268372582,-1.1425781,-0.08496094,-0.29882812,55.34375,52.71875,62.0
599,1727268372613,-0.98339844,-0.020507812,-0.083984375,-19.53125,83.90625,41.4375
600,1727268372644,-1.0683594,0.25,0.13964844,-249.09375,163.9375,13.40625
601,1727268372701,-0.89453125,0.046875,0.14746094,-126.78125,29.34375,32.8125
602,1727268372732,-0.8701172,-0.14453125,-0.083984375,66.40625,-17.46875,50.65625
603,1727268372766,-0.90234375,-0.19140625,-0.12402344,82.875,-14.53125,45.75
604,1727268372822,-0.8925781,-0.14941406,-0.12792969,19.15625,36.4375,30.375
605,1727268372853,-1.21875,0.095703125,0.052734375,-107.625,72.5,1.375
606,1727268372943,-1.3779297,0.32421875,0.09375,19.9375,-1.78125,-20.21875
607,1727268373003,-1.7041016,0.25878906,0.3720703,-67.59375,-51.78125,-69.65625
608,1727268373032,-1.1435547,0.10253906,0.23632812,-38.96875,-142.46875,-84.4375
609,1727268373063,-1.2470703,0.34179688,-0.068359375,95.25,-110.71875,-78.625
610,1727268373092,-1.0859375,0.07421875,-0.15625,120.09375,-118.3125,-52.3125
611,1727268373122,-1.0087891,0.032226562,-0.10644531,77.3125,-71.84375,-50.90625
612,1727268373157,-0.98046875,0.16894531,-0.18164062,-46.34375,-71.0,-46.59375
613,1727268373182,-0.9316406,0.047851562,0.2919922,-39.03125,-57.4375,-56.53125
614,1727268373246,-0.6064453,0.38085938,-0.203125,87.09375,-50.90625,-50.5625
615,1727268373272,-0.57421875,0.18164062,-0.01171875,3.90625,13.28125,-44.875
616,1727268373302,-0.39648438,0.099609375,0.0146484375,40.34375,40.28125,-11.90625
617,1727268373332,-0.45703125,0.18945312,0.3310547,26.90625,68.03125,18.78125
618,1727268373362,-1.9560547,-1.0029297,1.8710938,-138.375,61.8125,18.40625
619,1727268373422,-1.2255859,0.45507812,-0.75878906,72.25,-56.15625,-7.71875
620,1727268373452,-1.1513672,0.8066406,-0.4013672,45.03125,-54.34375,68.65625
621,1727268373482,-1.2265625,0.21972656,-0.4033203,-96.15625,52.78125,69.875
622,1727268373542,-0.9941406,-0.08691406,-0.3779297,125.90625,50.78125,76.46875
623,1727268373572,-1.0361328,-0.50097656,-0.05078125,-153.40625,116.8125,38.0625
624,1727268373602,-1.0205078,0.08984375,0.3466797,-114.9375,80.6875,19.21875
625,1727268373726,-0.9785156,0.11035156,0.0078125,29.40625,10.46875,39.90625
626,1727268373755,-0.91308594,-0.034179688,-0.20214844,46.125,10.59375,39.15625
627,1727268373783,-0.92578125,0.036132812,-0.10839844,8.59375,46.375,30.8125
628,1727268373812,-0.95410156,0.0859375,-0.0068359375,-4.46875,38.9375,31.1875
629,1727268373842,-0.87109375,-0.06347656,-0.07421875,23.84375,20.90625,37.21875
630,1727268373872,-0.9121094,-0.078125,0.09082031,15.0625,38.125,48.4375
631,1727268373903,-0.90234375,-0.30273438,0.19140625,-26.25,14.3125,24.46875
632,1727268373936,-1.6738281,0.3720703,-0.059570312,59.96875,1.8125,-35.46875
633,1727268373962,-1.5986328,0.6191406,0.4560547,-6.90625,-79.25,-56.78125
634,1727268374022,-1.3427734,0.4658203,0.11621094,21.21875,-150.71875,-66.40625
635,1727268374052,-1.1318359,0.2548828,-0.328125,13.90625,-132.875,-49.75
636,1727268374082,-0.93652344,-0.00390625,-0.09277344,-19.4375,-80.09375,-48.0625
637,1727268374147,-1.0800781,-0.047851562,0.10058594,-37.6875,-68.0625,-58.125
638,1727268374173,-1.1386719,0.021484375,0.0625,96.34375,-69.09375,-43.34375
639,1727268374206,-0.7871094,0.24902344,-0.2763672,35.75,-73.875,-41.8125
640,1727268374263,-0.6894531,0.28515625,0.038085938,-46.40625,-26.375,-64.46875
641,1727268374294,-0.5576172,0.09472656,0.0234375,-39.875,16.59375,-51.28125
642,1727268374321,-0.39257812,0.0,0.17773438,33.75,30.0625,-21.375
643,1727268374383,-0.5234375,-0.09375,0.3125,40.375,43.875,1.6875
644,1727268374412,-0.76171875,-0.103515625,0.037109375,31.78125,81.40625,12.5
645,1727268374442,-1.8896484,-0.15527344,1.6923828,-6.84375,40.03125,23.59375
646,1727268374562,-1.6933594,-0.21191406,-0.4326172,-101.28125,30.5,-33.09375
647,1727268374592,-0.9863281,0.8613281,0.37109375,-1.71875,27.09375,22.75
648,1727268374623,-0.8623047,0.3125,-0.29589844,-31.625,20.125,68.09375
649,1727268374653,-0.92089844,0.10839844,-0.33789062,1.21875,35.6875,60.21875
650,1727268374681,-0.94921875,0.0009765625,-0.24707031,20.375,54.4375,48.375
651,1727268374712,-1.0107422,-0.103515625,-0.23144531,62.96875,53.5625,47.65625
652,1727268374742,-1.1386719,0.08984375,0.032226562,-207.71875,202.0625,29.15625
653,1727268374774,-1.0439453,0.0126953125,0.107421875,-182.875,17.4375,34.84375
654,1727268374806,-0.9013672,-0.12597656,-0.15625,40.09375,-10.75,54.625
655,1727268374868,-0.89453125,-0.07324219,-0.18554688,42.84375,17.75,40.15625
656,1727268374892,-0.83496094,0.009765625,-0.15332031,47.90625,40.21875,35.09375
657,1727268374922,-1.1357422,0.40527344,0.44335938,-27.0,88.96875,28.0625
658,1727268374982,-1.3369141,-0.09082031,-0.3251953,2.78125,-19.65625,15.84375
659,1727268375012,-1.5517578,0.42285156,0.13183594,-40.96875,30.0625,-32.1875
660,1727268375043,-1.2763672,0.099609375,0.15722656,-76.90625,-61.59375,-47.4375
661,1727268375102,-1.078125,-0.119140625,0.22753906,-75.15625,-117.375,-72.46875
662,1727268375132,-1.0224609,0.4248047,0.453125,-8.625,-129.46875,-71.84375
663,1727268375162,-0.9326172,0.24023438,-0.17089844,149.8125,-124.59375,-32.78125
664,1727268375222,-1.0693359,0.033203125,-0.31445312,167.03125,-110.84375,-19.125
665,1727268375257,-1.3583984,-0.07324219,-0.0703125,-10.9375,-52.09375,-39.9375
666,1727268375316,-0.9326172,0.23339844,0.34960938,-242.03125,-21.875,-50.0
667,1727268375344,-0.71875,0.265625,0.046875,72.375,-40.25,-62.40625
668,1727268375406,-0.76660156,-0.08984375,-0.08496094,-17.90625,3.59375,-57.4375
669,1727268375437,-0.6357422,-0.10449219,0.048828125,5.46875,13.71875,-38.46875
670,1727268375462,-0.43554688,0.06640625,0.06933594,67.4375,16.90625,-12.28125
671,1727268375522,-0.56347656,-0.032226562,0.45410156,63.53125,35.75,1.4375
672,1727268375552,-1.0449219,-0.36523438,0.3544922,53.15625,65.34375,6.03125
673,1727268375582,-1.7626953,0.20410156,-0.5332031,-9.90625,-2.625,-28.21875
674,1727268375616,-1.2822266,0.7792969,0.41992188,-117.1875,88.65625,9.5
675,1727268375642,-1.09375,0.16015625,-0.24023438,11.59375,47.84375,69.75
676,1727268375762,-1.2695312,-0.017578125,-0.28515625,77.9375,9.25,67.96875
677,1727268375792,-0.9355469,-0.3173828,-0.27734375,59.1875,49.46875,61.375
678,1727268375830,-1.0898438,-0.1328125,-0.099609375,-91.03125,77.3125,5.65625
679,1727268375852,-1.0419922,0.4033203,0.25585938,-63.84375,53.8125,27.4375
680,1727268375882,-0.9238281,0.123046875,-0.06738281,-13.4375,17.0,43.125
681,1727268375913,-0.85546875,0.021484375,-0.087890625,-34.3125,33.25,45.03125
682,1727268375972,-0.9433594,-0.0859375,0.044921875,-40.53125,39.96875,44.125
683,1727268376002,-0.8417969,-0.26464844,-0.16894531,4.875,-15.8125,41.78125
684,1727268376032,-0.921875,-0.08203125,-0.0048828125,25.5625,61.1875,31.25
685,1727268376062,-1.0966797,0.1953125,0.3486328,-36.5,43.25,21.46875
686,1727268376097,-1.5361328,0.1484375,-0.10253906,20.0,-21.0,10.71875
687,1727268376122,-1.3916016,0.21484375,0.5625,-93.09375,-76.84375,-39.0625
688,1727268376212,-1.3632812,0.19628906,0.16601562,31.59375,-137.34375,-61.28125
689,1727268376273,-1.2529297,0.23828125,-0.009765625,4.5,-113.59375,-67.65625
690,1727268376302,-1.15625,0.0048828125,-0.0859375,57.53125,-93.65625,-59.34375
691,1727268376336,-1.0634766,0.037109375,-0.03125,67.5625,-53.65625,-66.65625
692,1727268376362,-1.1494141,0.25585938,0.21972656,0.40625,-45.0625,-58.0
693,1727268376394,-0.80566406,0.41210938,-0.03515625,45.09375,-81.875,-44.8125
694,1727268376421,-0.58984375,0.28027344,0.041992188,-91.4375,-25.09375,-50.5
695,1727268376452,-0.68652344,-0.09667969,-0.0107421875,-13.125,0.78125,-42.375
696,1727268376542,-0.67089844,-0.16894531,0.041992188,34.96875,14.09375,-36.875
697,1727268376572,-0.5498047,-0.15722656,0.22558594,43.6875,21.65625,-24.0625
698,1727268376602,-0.65234375,-0.27441406,0.3544922,85.875,26.09375,-9.59375
699,1727268376632,-1.0625,-0.09375,0.7841797,76.9375,35.5,-14.0625
700,1727268376662,-2.0,0.73046875,-0.2265625,-6.84375,4.625,-3.96875
701,1727268376699,-0.68066406,0.8798828,0.44921875,-0.875,56.875,28.65625
702,1727268376752,-1.2363281,0.2705078,-0.31445312,-66.40625,63.8125,74.75
703,1727268376782,-0.9951172,0.09375,-0.32617188,51.6875,29.84375,80.625
704,1727268376814,-0.9814453,-0.4765625,-0.038085938,-21.4375,119.125,68.46875
705,1727268376843,-1.1445312,-0.28027344,0.040039062,-152.0,94.21875,18.53125
706,1727268376902,-1.0175781,0.15820312,0.1328125,-9.40625,45.8125,30.75
707,1727268376932,-0.9589844,0.11425781,-0.024414062,22.5625,21.90625,42.71875
708,1727268376992,-0.98046875,-0.024414062,-0.08886719,8.34375,27.75,55.59375
709,1727268377052,-0.8720703,-0.043945312,-0.10253906,-18.09375,33.90625,47.03125
710,1727268377112,-0.9658203,-0.103515625,-0.1015625,7.25,30.3125,45.40625
711,1727268377143,-0.9501953,-0.17675781,-0.05078125,13.71875,36.90625,34.71875
712,1727268377202,-0.92089844,-0.056640625,0.16015625,-0.625,59.96875,28.4375
713,1727268377233,-1.4316406,0.045898438,0.119140625,46.375,-6.71875,13.28125
714,1727268377262,-1.421875,0.3671875,0.055664062,39.28125,-22.28125,-34.0
715,1727268377294,-1.4257812,0.17382812,0.18066406,-86.9375,-93.21875,-83.5625
716,1727268377326,-1.3291016,0.2939453,0.2861328,-88.53125,-131.125,-85.46875
717,1727268377352,-1.2509766,0.35546875,-0.026367188,96.71875,-136.3125,-44.5625
718,1727268377381,-1.0908203,-0.0068359375,-0.2763672,94.40625,-106.875,-27.71875
719,1727268377412,-1.0634766,-0.14648438,-0.10449219,86.03125,-51.71875,-36.625
720,1727268377562,-1.1308594,-0.14746094,0.1484375,39.46875,-78.9375,-55.5625
721,1727268377592,-0.69628906,0.6425781,-0.091796875,-2.75,-78.125,-47.875
722,1727268377626,-0.5419922,0.49316406,0.0546875,-54.65625,-18.09375,-56.84375
723,1727268377654,-0.71875,-0.140625,-0.00390625,-0.3125,21.03125,-45.25
724,1727268377712,-0.5283203,-0.0703125,0.15332031,25.6875,19.5625,-20.65625
725,1727268377742,-0.5654297,-0.047851562,0.29589844,65.09375,23.4375,2.125
726,1727268377802,-0.7451172,-0.265625,0.3203125,96.125,48.1875,16.40625
727,1727268377862,-0.6035156,0.20410156,0.25390625,-24.84375,77.25,-3.0625
728,1727268377892,-2.0,0.24023438,0.6357422,-23.625,50.21875,7.125
729,1727268377922,-0.45214844,-0.0087890625,-0.25097656,15.25,-3.5625,-6.4375
730,1727268377952,-1.3066406,0.5263672,-0.15625,-26.8125,32.875,53.5
731,1727268377982,-1.0214844,0.15136719,-0.33007812,76.71875,9.6875,61.875
732,1727268378012,-0.8886719,0.14746094,-0.41308594,50.40625,45.40625,41.71875
733,1727268378042,-1.0244141,0.053710938,-0.25683594,-30.40625,82.125,29.71875
734,1727268378072,-1.1035156,-0.06738281,0.21582031,-284.625,143.28125,29.46875
735,1727268378102,-1.0439453,0.047851562,0.12597656,-79.1875,24.59375,47.03125
736,1727268378133,-0.98046875,-0.15527344,-0.20605469,4.3125,4.8125,49.0
737,1727268378167,-0.9375,-0.1796875,-0.20214844,-1.59375,24.9375,45.09375
738,1727268378192,-0.8769531,-0.07714844,-0.15234375,22.25,44.96875,42.40625
739,1727268378252,-0.8457031,0.115234375,0.052734375,38.3125,77.1875,45.75
740,1727268378282,-1.1445312,0.18457031,0.23925781,48.1875,2.0625,33.96875
741,1727268378312,-1.4287109,0.18164062,-0.15039062,-14.0625,-16.9375,-11.0625
742,1727268378342,-1.4824219,0.15136719,0.0546875,-68.75,-13.5,-45.4375
743,1727268378372,-1.2314453,-0.22167969,0.41308594,-88.8125,-85.21875,-75.6875
744,1727268378433,-1.1044922,0.15527344,0.31835938,29.90625,-154.25,-79.78125
745,1727268378463,-1.0966797,0.50683594,-0.16308594,144.21875,-100.28125,-59.28125
746,1727268378493,-1.1386719,0.16992188,-0.40722656,217.9375,-121.46875,-15.46875
747,1727268378612,-1.1728516,-0.39257812,-0.036132812,13.21875,-70.09375,-38.65625
748,1727268378672,-0.93359375,0.5292969,0.17382812,-101.28125,-86.875,-50.625
749,1727268378765,-0.58691406,0.56640625,0.078125,33.125,-65.6875,-32.0
750,1727268378794,-0.4189453,0.20898438,-0.15527344,-53.96875,9.625,-22.90625
751,1727268378919,-0.5175781,0.041015625,0.025390625,-18.03125,46.96875,-11.6875
752,1727268378948,-0.35742188,0.055664062,0.15136719,24.53125,59.75,22.8125
753,1727268378973,-0.94433594,-0.34570312,0.6845703,-3.125,84.59375,32.875
754,1727268379002,-2.0,-0.13085938,-0.8046875,-53.40625,83.90625,-49.03125
755,1727268379032,-1.3427734,1.3642578,1.3525391,-128.5,88.78125,-23.09375
756,1727268379062,-0.89160156,0.41796875,-0.23730469,1.21875,21.78125,46.75
757,1727268379092,-1.0761719,0.09277344,-0.40429688,22.5625,4.0,66.03125
758,1727268379151,-0.953125,-0.1171875,-0.4873047,91.78125,53.6875,57.71875
759,1727268379181,-1.0019531,-0.11230469,-0.24902344,-3.5,64.8125,39.71875
760,1727268379212,-1.0458984,-0.021484375,0.11816406,-212.1875,177.90625,17.1875
761,1727268379246,-1.0351562,0.15332031,0.41503906,-176.96875,42.53125,20.625
762,1727268379272,-0.9609375,-0.1015625,-0.16601562,53.5625,-8.625,44.59375
763,1727268379306,-0.9736328,-0.047851562,-0.20410156,-4.40625,20.125,32.8125
764,1727268379336,-0.87890625,-0.045898438,-0.18164062,18.34375,27.5625,39.53125
765,1727268379362,-0.9589844,0.009765625,-0.015625,59.3125,61.625,53.5625
766,1727268379395,-1.0244141,-0.051757812,0.32421875,68.65625,45.03125,49.1875
767,1727268379426,-1.4892578,0.2109375,-0.08496094,5.0,1.75,-16.75
