,Unnamed: 0,timestamp,accel_x,accel_y,accel_z,gyro_x,gyro_y,gyro_z
0,0,1727374593226,-0.9453125,0.056640625,-0.009765625,19.71875,-25.53125,1.28125
1,1,1727374593266,-0.9921875,-0.02734375,-0.016601562,15.5625,-10.8125,-2.4375
2,2,1727374593306,-1.0644531,-0.057617188,-0.0048828125,5.0,-3.1875,-16.78125
3,3,1727374593346,-0.9716797,0.1171875,0.0390625,24.65625,-21.125,-2.75
4,4,1727374593386,-0.96484375,0.08886719,0.0859375,16.4375,-32.0,9.875
5,5,1727374593426,-0.9433594,-0.017578125,0.060546875,10.6875,-33.9375,15.5
6,6,1727374593466,-0.9794922,-0.044921875,0.11621094,19.40625,-32.65625,13.0
7,7,1727374593506,-0.9160156,0.06738281,0.1171875,22.34375,-27.1875,11.34375
8,8,1727374593546,-0.9238281,0.0625,0.13769531,23.8125,-21.375,11.09375
9,9,1727374593586,-0.90625,0.078125,0.125,13.5,-11.5,4.09375
10,10,1727374593626,-0.8671875,0.07128906,0.14160156,7.375,-0.375,-1.84375
11,11,1727374593666,-0.84765625,0.061523438,0.15722656,-5.5625,15.84375,-11.25
12,12,1727374593706,-0.9785156,0.11230469,0.13671875,-18.25,38.4375,-19.71875
13,13,1727374593746,-1.1025391,0.041992188,0.109375,-25.4375,33.6875,-8.96875
14,14,1727374593786,-0.9794922,-0.06347656,0.13476562,-3.90625,11.875,-10.125
15,15,1727374593826,-0.94921875,-0.029296875,0.09667969,7.28125,8.65625,-21.0625
16,16,1727374593866,-0.9667969,0.06347656,-0.0107421875,8.4375,10.65625,-12.8125
17,17,1727374593906,-1.0058594,-0.02734375,0.06640625,10.875,11.09375,-3.5
18,18,1727374593946,-0.95996094,-0.13867188,-0.0009765625,18.5,9.0625,-7.9375
19,19,1727374593986,-0.9609375,-0.119140625,0.021484375,-0.4375,5.34375,-8.25
20,20,1727374594026,-0.99121094,-0.07128906,0.029296875,7.28125,9.0625,-4.84375
21,21,1727374594066,-1.0039062,-0.0625,0.026367188,12.625,12.875,-4.59375
22,22,1727374594106,-1.0058594,-0.060546875,0.025390625,-9.28125,14.3125,-3.84375
23,23,1727374594146,-1.0039062,-0.099609375,-0.01171875,-14.875,12.1875,-4.59375
24,24,1727374594186,-0.96972656,-0.12207031,-0.0390625,-17.5,13.34375,-5.625
25,25,1727374594226,-0.9394531,-0.02734375,-0.04296875,-25.4375,17.5,-0.625
26,26,1727374594266,-0.98339844,-0.005859375,0.05859375,-20.0625,21.53125,-0.375
27,27,1727374594306,-1.0087891,-0.13085938,0.016601562,-26.59375,19.8125,-2.21875
28,28,1727374594346,-0.984375,-0.13574219,-0.060546875,-14.28125,8.34375,-3.5625
29,29,1727374594386,-0.9873047,-0.12890625,-0.060546875,0.0,5.53125,-4.03125
30,30,1727374594426,-0.99121094,-0.099609375,-0.057617188,-7.8125,6.09375,-8.1875
31,31,1727374594466,-0.97753906,-0.046875,-0.057617188,-9.625,8.46875,-9.78125
32,32,1727374594506,-0.98535156,-0.0546875,-0.11816406,-7.75,7.71875,-5.5625
33,33,1727374594546,-0.9736328,-0.025390625,-0.0048828125,-1.71875,9.5625,-2.9375
34,34,1727374594586,-0.96191406,-0.09472656,-0.06542969,-11.15625,7.84375,1.9375
35,35,1727374594626,-0.9980469,-0.12109375,-0.14453125,-11.84375,13.71875,0.0625
36,36,1727374594666,-0.96875,-0.123046875,-0.076171875,-8.125,11.6875,-2.28125
37,37,1727374594706,-0.9560547,-0.18652344,-0.030273438,-3.34375,3.8125,-0.125
38,38,1727374594746,-0.9902344,-0.09765625,-0.10546875,-13.84375,6.8125,-3.375
39,39,1727374594786,-0.9267578,-0.0087890625,-0.11816406,-13.53125,7.5,0.25
40,40,1727374594826,-0.9824219,-0.11230469,-0.07910156,3.0625,5.46875,5.375
41,41,1727374594866,-1.0048828,-0.115234375,-0.047851562,-0.25,-0.625,4.25
42,42,1727374594906,-0.95996094,-0.026367188,-0.08105469,-4.5625,-6.3125,5.25
43,43,1727374594946,-0.9550781,-0.036132812,-0.14550781,-11.59375,-5.8125,7.5
44,44,1727374594986,-1.0019531,-0.06640625,-0.12988281,-5.4375,-2.09375,6.21875
45,45,1727374595026,-0.97753906,-0.041992188,-0.140625,-1.8125,-4.34375,4.9375
46,46,1727374595066,-0.9794922,-0.018554688,-0.123046875,1.90625,-2.6875,1.875
47,47,1727374595106,-1.0214844,-0.037109375,-0.14453125,-2.6875,-7.15625,5.5
48,48,1727374595146,-1.0107422,-0.037109375,-0.045898438,8.78125,-8.5625,2.75
49,49,1727374595186,-1.0742188,-0.033203125,-0.05078125,17.46875,-6.0,-0.8125
50,50,1727374595226,-1.0263672,0.06542969,-0.055664062,11.40625,-33.71875,8.28125
51,51,1727374595266,-0.9628906,0.08886719,-0.001953125,-0.90625,-42.375,23.3125
52,52,1727374595306,-1.0146484,-0.072265625,-0.033203125,6.40625,-47.375,21.46875
53,53,1727374595346,-0.9824219,-0.018554688,0.026367188,24.78125,-47.5,11.71875
54,54,1727374595386,-1.0029297,-0.001953125,-0.036132812,20.34375,-30.0,1.59375
55,55,1727374595426,-0.96484375,0.033203125,0.08496094,31.75,-39.875,8.0
56,56,1727374595466,-0.953125,0.052734375,0.06640625,33.75,-31.28125,9.75
57,57,1727374595506,-0.9609375,0.041015625,0.10449219,27.71875,-27.375,6.03125
58,58,1727374595546,-0.93847656,0.05859375,0.0703125,25.34375,-21.5,5.53125
59,59,1727374595586,-0.88964844,0.09277344,0.109375,19.71875,-14.78125,9.09375
60,60,1727374595626,-0.91308594,0.10449219,0.119140625,10.25,-9.59375,9.625
61,61,1727374595666,-0.9472656,0.06347656,0.13964844,5.25,-4.03125,7.3125
62,62,1727374595706,-0.9345703,0.053710938,0.13574219,2.09375,2.25,-0.5
63,63,1727374595746,-0.92285156,0.0859375,0.19140625,-5.0,9.25,-6.53125
64,64,1727374595786,-0.9560547,0.08203125,0.17480469,-1.53125,10.1875,-8.5
65,65,1727374595826,-0.95214844,0.0546875,0.08984375,-5.125,8.53125,-10.5625
66,66,1727374595866,-0.890625,0.11621094,0.12597656,-14.34375,16.875,-10.4375
67,67,1727374595906,-0.94628906,0.07421875,0.15722656,-15.0,15.1875,-7.875
68,68,1727374595946,-0.9892578,0.041992188,0.099609375,-11.65625,17.625,-8.8125
69,69,1727374595986,-0.98339844,0.03515625,0.14746094,-9.8125,20.75,-8.8125
70,70,1727374596026,-1.0537109,-0.040039062,0.16699219,-5.96875,18.0625,-11.90625
71,71,1727374596066,-0.93066406,0.025390625,0.06738281,1.34375,6.8125,-18.375
72,72,1727374596106,-0.953125,0.03125,0.0546875,4.34375,15.78125,-14.09375
73,73,1727374596146,-1.0,-0.026367188,0.06542969,-1.09375,26.59375,-16.84375
74,74,1727374596186,-0.9482422,0.009765625,-0.029296875,-22.6875,23.40625,-14.0
75,75,1727374596226,-0.9707031,-0.06738281,-0.05078125,-10.5625,23.40625,-1.46875
76,76,1727374596266,-1.0166016,-0.2109375,0.018554688,-6.03125,25.1875,-5.4375
77,77,1727374596306,-0.9951172,-0.10449219,-0.034179688,-9.53125,12.0625,-8.125
78,78,1727374596346,-0.9921875,-0.087890625,-0.0078125,3.0625,7.625,-6.78125
79,79,1727374596386,-0.9892578,-0.19628906,-0.064453125,2.1875,10.0,-8.75
80,80,1727374596426,-0.98046875,-0.14453125,-0.08496094,-2.4375,11.34375,-4.40625
81,81,1727374596466,-0.96191406,-0.016601562,-0.06347656,-3.46875,9.0625,-1.09375
82,82,1727374596506,-0.9814453,0.0009765625,0.0009765625,-15.1875,10.25,-3.125
83,83,1727374596546,-0.98828125,-0.119140625,-0.048828125,-13.78125,5.96875,-0.125
84,84,1727374596586,-0.9902344,-0.14160156,-0.024414062,-3.09375,3.8125,-4.40625
85,85,1727374596626,-0.99121094,-0.08691406,-0.03125,2.1875,4.1875,-6.90625
86,86,1727374596666,-1.0068359,-0.13867188,-0.083984375,-1.65625,5.0625,-7.75
87,87,1727374596706,-0.9589844,-0.056640625,-0.0390625,-4.5625,6.34375,-6.34375
88,88,1727374596746,-0.9794922,-0.10546875,-0.057617188,-7.0,7.71875,-4.40625
89,89,1727374596786,-0.9482422,-0.083984375,-0.029296875,-1.46875,12.5,-4.46875
90,90,1727374596826,-0.94921875,-0.080078125,-0.07128906,-3.0,13.84375,-0.125
91,91,1727374596866,-0.9746094,-0.08691406,-0.038085938,-3.46875,18.21875,1.21875
92,92,1727374596906,-1.0146484,-0.15820312,-0.11621094,-7.375,14.875,3.40625
93,93,1727374596946,-0.98046875,-0.16503906,-0.13476562,-20.0625,7.78125,0.46875
94,94,1727374596986,-0.9277344,-0.13671875,-0.080078125,-10.125,5.78125,2.4375
95,95,1727374597026,-0.9736328,-0.12597656,-0.14355469,-15.6875,3.46875,-0.8125
96,96,1727374597066,-0.96191406,-0.025390625,-0.1875,-13.84375,8.21875,-1.03125
97,97,1727374597106,-0.9580078,-0.10546875,-0.11328125,-1.59375,3.03125,6.09375
98,98,1727374597146,-0.9785156,-0.10644531,-0.1640625,-6.59375,3.28125,3.34375
99,99,1727374597186,-0.94433594,0.0009765625,-0.14160156,-6.15625,3.03125,1.75
100,100,1727374597226,-0.98339844,-0.047851562,-0.16210938,-6.21875,-2.9375,8.40625
101,101,1727374597266,-0.9980469,-0.06542969,-0.15625,-15.375,-2.28125,8.15625
102,102,1727374597306,-0.99121094,-0.038085938,-0.14550781,-12.4375,-0.25,8.34375
103,103,1727374597346,-1.0048828,0.0048828125,-0.15527344,-16.15625,-2.03125,10.625
104,104,1727374597386,-1.0078125,0.013671875,-0.091796875,-4.40625,-4.59375,11.21875
105,105,1727374597426,-1.03125,-0.038085938,-0.060546875,-7.8125,-14.0,12.625
106,106,1727374597466,-1.0341797,0.01953125,-0.049804688,-5.78125,-24.5,10.625
107,107,1727374597506,-1.0517578,0.03515625,-0.00390625,11.0625,-45.5,13.3125
108,108,1727374597546,-1.0742188,0.01171875,-0.14160156,11.34375,-71.1875,24.96875
109,109,1727374597586,-0.99609375,-0.028320312,0.037109375,48.71875,-56.34375,8.0
110,110,1727374597626,-0.96484375,0.080078125,-0.0068359375,34.84375,-46.84375,10.5625
111,111,1727374597666,-0.94433594,0.08105469,0.015625,45.28125,-43.28125,12.8125
112,112,1727374597706,-0.9550781,0.01953125,0.016601562,39.5625,-36.46875,16.46875
113,113,1727374597746,-0.9238281,0.0546875,0.038085938,25.875,-28.34375,11.59375
114,114,1727374597786,-0.9169922,0.076171875,0.083984375,24.59375,-22.71875,11.40625
115,115,1727374597826,-0.9267578,0.061523438,0.1015625,18.0,-20.03125,10.96875
116,116,1727374597866,-0.9482422,0.12402344,0.12792969,9.21875,-16.875,8.59375
117,117,1727374597906,-0.9482422,0.09472656,0.1328125,5.3125,-17.78125,7.75
118,118,1727374597946,-0.8857422,0.08984375,0.16796875,4.875,-13.4375,3.96875
119,119,1727374597986,-0.87109375,0.083984375,0.18652344,-4.6875,-1.96875,-5.875
120,120,1727374598026,-0.9248047,0.07519531,0.20214844,0.4375,0.46875,-9.78125
121,121,1727374598066,-0.9667969,0.0703125,0.18066406,2.03125,11.9375,-17.40625
122,122,1727374598106,-1.0039062,0.16503906,0.07910156,-5.25,20.125,-15.375
123,123,1727374598146,-0.9814453,0.16796875,0.11816406,-4.625,15.375,-6.21875
124,124,1727374598186,-0.9785156,0.05078125,0.14355469,0.125,7.4375,-7.34375
125,125,1727374598226,-0.98339844,0.032226562,0.16699219,3.25,7.375,-10.625
126,126,1727374598266,-0.9482422,0.044921875,0.16796875,-2.0,8.28125,-12.15625
127,127,1727374598306,-1.0322266,0.043945312,0.16308594,-2.5625,6.6875,-11.71875
128,128,1727374598346,-0.9345703,0.01171875,0.08105469,-2.875,9.0625,-16.125
129,129,1727374598386,-0.9296875,0.029296875,0.08203125,-9.03125,14.9375,-11.96875
130,130,1727374598426,-0.9902344,-0.0107421875,0.048828125,-10.75,21.59375,-7.6875
131,131,1727374598466,-0.9746094,-0.09082031,0.016601562,-1.875,22.75,-8.8125
132,132,1727374598506,-0.9951172,-0.07714844,0.024414062,-4.28125,18.78125,-7.46875
133,133,1727374598546,-1.0078125,-0.07910156,0.087890625,3.3125,12.75,-9.46875
134,134,1727374598586,-0.9785156,-0.119140625,0.028320312,7.6875,10.34375,-12.09375
135,135,1727374598626,-0.9794922,-0.09472656,-0.0087890625,12.46875,9.3125,-8.75
136,136,1727374598666,-0.98339844,-0.08496094,0.0126953125,8.25,15.65625,-5.625
137,137,1727374598706,-0.96875,0.017578125,-0.0048828125,-12.625,13.84375,-4.53125
138,138,1727374598746,-0.96777344,0.09472656,0.0126953125,-19.59375,13.71875,-2.03125
139,139,1727374598786,-1.0,-0.059570312,0.0068359375,-20.625,13.90625,-2.21875
140,140,1727374598826,-0.9873047,-0.14160156,0.01953125,-15.0625,11.40625,-3.71875
141,141,1727374598866,-0.9707031,-0.08886719,0.015625,-17.9375,8.90625,-6.78125
142,142,1727374598906,-0.95996094,-0.025390625,-0.016601562,-18.125,9.9375,-6.59375
143,143,1727374598946,-0.98535156,-0.083984375,-0.0234375,-7.4375,7.625,-0.0625
144,144,1727374598986,-0.9892578,-0.11035156,-0.0078125,-3.78125,7.6875,-1.21875
145,145,1727374599026,-0.9892578,-0.09082031,0.01171875,-2.1875,7.5,-4.28125
146,146,1727374599066,-0.9394531,-0.047851562,-0.0078125,-1.40625,10.96875,-6.96875
147,147,1727374599106,-0.9863281,-0.087890625,-0.041992188,-2.875,6.8125,1.9375
148,148,1727374599146,-0.99316406,-0.04296875,-0.080078125,-15.4375,12.9375,-1.03125
149,149,1727374599186,-0.953125,-0.00390625,-0.0546875,-11.90625,23.34375,-4.03125
150,150,1727374599226,-1.0195312,-0.14257812,0.0390625,-11.65625,15.0625,-0.375
151,151,1727374599266,-1.0009766,-0.22167969,-0.13085938,-30.03125,3.15625,-5.0
152,152,1727374599306,-0.9169922,-0.10644531,-0.1484375,-9.9375,3.34375,-3.3125
153,153,1727374599346,-0.94140625,-0.0029296875,-0.11425781,-15.0,4.3125,-1.46875
154,154,1727374599386,-0.98339844,-0.046875,-0.16699219,-20.875,5.40625,2.25
155,155,1727374599426,-0.9746094,-0.059570312,-0.11230469,-17.28125,3.15625,2.90625
156,156,1727374599466,-0.96484375,-0.07421875,-0.13574219,-11.53125,2.25,3.59375
157,157,1727374599506,-0.9638672,-0.057617188,-0.12207031,-7.875,0.15625,3.53125
158,158,1727374599546,-1.0009766,-0.040039062,-0.14941406,-12.6875,-3.0625,6.46875
159,159,1727374599586,-1.0087891,-0.0068359375,-0.10449219,-10.5625,-5.5625,7.0625
160,160,1727374599626,-1.0117188,0.0126953125,-0.051757812,-4.75,-12.03125,8.125
161,161,1727374599666,-1.0292969,-0.0048828125,-0.08300781,-13.71875,-17.65625,10.84375
162,162,1727374599706,-1.015625,-0.020507812,-0.05078125,3.40625,-18.3125,8.59375
163,163,1727374599746,-1.0332031,0.025390625,-0.05859375,6.28125,-29.625,11.65625
164,164,1727374599786,-1.0048828,0.08691406,0.032226562,15.03125,-56.84375,23.375
165,165,1727374599826,-1.0595703,-0.041992188,0.064453125,41.15625,-62.8125,12.625
166,166,1727374599866,-0.99609375,-0.056640625,0.005859375,44.8125,-59.03125,7.625
167,167,1727374599906,-0.93652344,-0.036132812,0.0087890625,48.46875,-48.0,-0.875
168,168,1727374599946,-0.92285156,0.09082031,0.0625,49.6875,-34.9375,7.25
169,169,1727374599986,-0.9453125,0.072265625,0.099609375,46.6875,-33.46875,13.59375
170,170,1727374600026,-0.8935547,0.045898438,0.09472656,37.78125,-26.09375,11.90625
171,171,1727374600066,-0.89941406,0.11621094,0.13476562,27.28125,-22.0625,14.28125
172,172,1727374600106,-0.91015625,0.07910156,0.1484375,19.03125,-14.71875,15.0625
173,173,1727374600146,-0.8984375,0.08886719,0.16503906,9.40625,-10.875,7.625
174,174,1727374600186,-0.90722656,0.095703125,0.15136719,0.3125,-5.8125,-2.15625
175,175,1727374600226,-0.87597656,0.09863281,0.1875,1.71875,0.84375,-8.0
176,176,1727374600266,-0.8378906,0.08105469,0.20019531,-5.0,14.15625,-17.90625
177,177,1727374600306,-0.96875,0.034179688,0.14648438,-9.625,31.125,-25.40625
178,178,1727374600346,-1.1103516,0.18359375,0.07128906,-28.5625,22.9375,-7.8125
179,179,1727374600386,-0.984375,0.13671875,0.19433594,-1.78125,11.09375,0.25
180,180,1727374600426,-0.97265625,-0.040039062,0.18457031,12.46875,3.40625,-8.625
181,181,1727374600466,-0.9501953,-0.021484375,0.15039062,4.46875,5.78125,-14.90625
182,182,1727374600506,-0.9765625,0.06542969,0.13574219,15.5625,9.125,-12.59375
183,183,1727374600546,-0.9609375,0.0068359375,0.087890625,7.4375,14.15625,-9.34375
184,184,1727374600586,-0.96191406,-0.024414062,0.10253906,0.1875,8.71875,-7.46875
185,185,1727374600626,-1.0,-0.06542969,0.11621094,6.34375,6.03125,-8.6875
186,186,1727374600666,-0.96484375,-0.04296875,0.08691406,15.125,3.71875,-10.9375
187,187,1727374600706,-0.9736328,0.01171875,0.091796875,10.25,12.75,-8.96875
188,188,1727374600746,-1.0146484,-0.044921875,0.061523438,-3.96875,18.0625,-10.375
189,189,1727374600786,-0.97265625,-0.07714844,0.02734375,-5.4375,14.875,-9.53125
190,190,1727374600826,-0.96972656,-0.087890625,0.056640625,-11.40625,17.625,-6.1875
191,191,1727374600866,-0.94921875,0.038085938,0.0625,-29.125,17.3125,-6.0625
192,192,1727374600906,-0.9785156,-0.024414062,0.08496094,-13.84375,12.9375,-0.4375
193,193,1727374600946,-0.99902344,-0.12597656,0.107421875,-12.15625,14.03125,-3.84375
194,194,1727374600986,-0.98535156,-0.0625,0.029296875,-22.9375,14.03125,-7.09375
195,195,1727374601026,-0.9863281,-0.005859375,0.016601562,-9.59375,14.09375,-5.375
196,196,1727374601066,-0.99609375,-0.06347656,0.040039062,-14.78125,13.96875,-6.53125
197,197,1727374601106,-0.9873047,-0.09375,-0.026367188,-19.59375,11.75,-8.84375
198,198,1727374601146,-0.9501953,-0.057617188,-0.016601562,-14.15625,7.4375,-8.25
199,199,1727374601186,-1.015625,-0.08496094,-0.068359375,-13.0,6.34375,-4.03125
200,200,1727374601226,-0.99902344,-0.06542969,-0.01171875,-11.65625,10.71875,-3.25
201,201,1727374601266,-0.9951172,-0.08886719,-0.0068359375,-14.15625,8.59375,-4.78125
202,202,1727374601306,-0.93652344,-0.0048828125,-0.01171875,-20.6875,13.15625,-8.84375
203,203,1727374601346,-0.94628906,-0.040039062,-0.026367188,-13.25,16.65625,-2.5
204,204,1727374601386,-1.0263672,-0.17675781,-0.043945312,-11.03125,14.9375,0.71875
205,205,1727374601426,-1.0087891,-0.25976562,-0.06933594,-16.96875,13.15625,-8.25
206,206,1727374601466,-0.9326172,-0.12011719,-0.08300781,-19.71875,6.5,-6.53125
207,207,1727374601506,-0.9316406,-0.068359375,-0.12402344,-13.53125,7.3125,-4.28125
208,208,1727374601546,-0.9814453,-0.083984375,-0.08886719,-18.96875,8.65625,-1.28125
209,209,1727374601586,-0.9970703,-0.07421875,-0.10253906,-19.21875,5.125,4.5
210,210,1727374601626,-0.9873047,-0.08691406,-0.1171875,-22.40625,4.375,2.625
211,211,1727374601666,-0.9433594,-0.0546875,-0.14941406,-17.09375,3.78125,3.28125
212,212,1727374601706,-0.9736328,-0.06347656,-0.12207031,-17.8125,-0.875,6.34375
213,213,1727374601746,-1.0097656,-0.078125,-0.0859375,-15.1875,-5.4375,7.3125
214,214,1727374601786,-1.0224609,-0.01953125,-0.02734375,-5.6875,-15.875,9.9375
215,215,1727374601826,-1.0234375,-0.018554688,-0.0029296875,-8.90625,-30.0,14.9375
216,216,1727374601866,-1.0039062,-0.041992188,-0.034179688,0.5625,-33.34375,12.375
217,217,1727374601906,-1.0292969,-0.034179688,-0.14648438,2.09375,-27.125,13.40625
218,218,1727374601946,-1.0585938,-0.08105469,-0.13085938,33.875,-27.4375,9.5625
219,219,1727374601986,-1.0449219,0.046875,0.0146484375,45.34375,-45.5,12.1875
220,220,1727374602026,-1.0703125,0.045898438,0.109375,58.90625,-57.875,11.34375
221,221,1727374602066,-0.9560547,0.07714844,0.30664062,74.71875,-64.46875,8.71875
222,222,1727374602106,-0.8935547,-0.029296875,-0.0087890625,54.09375,-41.9375,12.4375
223,223,1727374602146,-0.9316406,0.09667969,0.013671875,35.71875,-25.03125,13.84375
224,224,1727374602186,-0.94140625,0.11035156,0.10449219,45.65625,-25.21875,14.34375
225,225,1727374602226,-0.9296875,0.1015625,0.10449219,21.78125,-21.875,11.09375
226,226,1727374602266,-0.9013672,0.053710938,0.12597656,18.4375,-13.875,10.6875
227,227,1727374602306,-0.9091797,0.08496094,0.13574219,5.625,-8.875,5.71875
228,228,1727374602346,-0.8935547,0.09472656,0.20800781,3.40625,0.28125,-0.0625
229,229,1727374602386,-0.88964844,0.076171875,0.17871094,-7.375,6.5625,-7.34375
230,230,1727374602426,-0.8779297,0.049804688,0.17675781,-10.96875,13.46875,-14.59375
231,231,1727374602466,-0.91503906,0.1328125,0.16601562,-29.15625,30.0,-22.15625
232,232,1727374602506,-1.0732422,0.14648438,0.21875,-23.3125,25.5,-13.875
233,233,1727374602546,-0.984375,0.059570312,0.17089844,-17.21875,15.3125,-9.28125
234,234,1727374602586,-0.98828125,-0.0390625,0.22265625,-10.125,18.0625,-13.0625
235,235,1727374602626,-0.9345703,-0.06542969,0.10449219,4.03125,15.1875,-20.75
236,236,1727374602666,-0.94628906,0.052734375,0.0703125,-14.03125,26.09375,-16.125
237,237,1727374602706,-1.0087891,-0.00390625,0.037109375,-4.9375,23.40625,-6.0
238,238,1727374602746,-0.9921875,-0.11621094,0.080078125,-6.15625,18.0625,-6.28125
239,239,1727374602786,-0.9814453,-0.19921875,-0.0234375,-13.0,22.0625,-11.0625
240,240,1727374602826,-0.98535156,-0.123046875,-0.057617188,-1.53125,24.40625,-9.84375
241,241,1727374602866,-0.97265625,-0.09863281,-0.038085938,8.125,22.4375,-7.09375
242,242,1727374602906,-0.98046875,-0.1171875,0.015625,5.0625,20.96875,-4.9375
243,243,1727374602946,-0.99609375,-0.099609375,0.0126953125,10.0625,10.59375,-2.5625
244,244,1727374602986,-0.9980469,-0.046875,0.041992188,-4.03125,10.84375,-0.75
245,245,1727374603026,-0.9863281,0.029296875,-0.055664062,-21.71875,11.53125,-2.625
246,246,1727374603066,-0.9794922,-0.0048828125,-0.076171875,-18.3125,6.9375,-5.1875
247,247,1727374603106,-0.96875,-0.1640625,-0.080078125,-12.6875,6.9375,-2.4375
248,248,1727374603146,-0.95996094,-0.14160156,-0.030273438,-11.84375,8.59375,-4.40625
249,249,1727374603186,-0.9785156,-0.09082031,-0.037109375,-4.4375,5.46875,-1.21875
250,250,1727374603226,-0.9707031,-0.0859375,-0.024414062,1.65625,4.5,-0.6875
251,251,1727374603266,-0.9765625,-0.1171875,-0.03125,3.96875,2.375,2.4375
252,252,1727374603306,-0.9785156,-0.10839844,-0.030273438,1.03125,3.78125,-2.9375
253,253,1727374603346,-0.9765625,-0.078125,-0.041015625,4.53125,5.65625,-4.9375
254,254,1727374603386,-0.96777344,-0.064453125,-0.025390625,-0.59375,6.4375,-2.375
255,255,1727374603426,-0.9433594,-0.041992188,-0.0078125,-3.15625,8.53125,-0.8125
256,256,1727374603466,-0.9707031,-0.07324219,0.0009765625,-4.4375,9.625,1.03125
257,257,1727374603506,-0.9736328,-0.11230469,-0.0087890625,-5.0,15.78125,2.75
258,258,1727374603546,-1.0449219,-0.1484375,-0.052734375,-5.90625,15.25,2.1875
259,259,1727374603586,-0.9863281,-0.10839844,-0.08105469,-14.03125,13.84375,-7.28125
260,260,1727374603626,-0.9042969,-0.07519531,-0.14160156,-2.3125,7.1875,-1.90625
261,261,1727374603666,-0.984375,-0.06347656,-0.21484375,-16.21875,2.0,2.1875
262,262,1727374603706,-0.9892578,0.0078125,-0.16601562,-27.78125,5.59375,0.0625
263,263,1727374603746,-0.9863281,-0.029296875,-0.13769531,-17.8125,-5.3125,9.625
264,264,1727374603786,-1.0058594,-0.015625,-0.14160156,-27.34375,-6.84375,9.28125
265,265,1727374603826,-0.97753906,-0.046875,-0.12402344,-14.21875,-7.03125,6.78125
266,266,1727374603866,-1.0039062,-0.022460938,-0.12402344,-12.875,-11.625,10.6875
267,267,1727374603906,-1.0458984,0.024414062,-0.080078125,-4.5625,-19.375,12.0625
268,268,1727374603946,-1.0458984,-0.021484375,0.032226562,6.65625,-26.5,9.5625
269,269,1727374603986,-1.0097656,-0.06640625,-0.09082031,12.09375,-42.9375,2.25
270,270,1727374604026,-0.9501953,0.08886719,0.080078125,44.875,-73.25,21.96875
271,271,1727374604066,-1.015625,0.04296875,-0.06933594,36.375,-73.5,42.53125
272,272,1727374604106,-1.0175781,0.0107421875,0.047851562,42.0625,-56.09375,31.3125
273,273,1727374604146,-0.9589844,0.02734375,0.0625,39.6875,-48.96875,10.25
274,274,1727374604186,-0.9199219,0.07910156,0.05859375,40.34375,-39.3125,10.125
275,275,1727374604226,-0.9042969,0.15820312,0.119140625,23.375,-31.09375,14.8125
276,276,1727374604266,-0.91503906,0.10546875,0.13574219,15.1875,-22.78125,13.0625
277,277,1727374604306,-0.9326172,0.115234375,0.16015625,5.5625,-19.65625,5.78125
278,278,1727374604346,-0.89746094,0.1015625,0.21191406,7.4375,-13.4375,2.4375
279,279,1727374604386,-0.8544922,0.08886719,0.24804688,-1.53125,-9.40625,-2.03125
280,280,1727374604426,-0.88964844,0.09765625,0.20898438,0.96875,-1.90625,-7.46875
281,281,1727374604466,-0.8964844,0.10546875,0.23144531,-0.25,7.25,-15.4375
282,282,1727374604506,-0.9716797,0.091796875,0.1640625,1.15625,25.375,-22.78125
283,283,1727374604546,-0.9863281,0.20800781,0.115234375,-3.59375,27.6875,-14.71875
284,284,1727374604586,-0.96191406,0.17675781,0.20019531,0.0,16.15625,-5.875
285,285,1727374604626,-0.96875,0.09863281,0.24609375,8.96875,6.5625,-6.90625
286,286,1727374604666,-0.9785156,0.0087890625,0.24414062,8.96875,4.4375,-10.3125
287,287,1727374604706,-0.9472656,0.10058594,0.20996094,4.65625,4.5,-11.375
288,288,1727374604746,-0.9902344,0.10546875,0.1875,0.0625,7.0625,-8.5
289,289,1727374604786,-0.9628906,0.051757812,0.11328125,-7.0,18.21875,-11.90625
290,290,1727374604826,-0.9580078,-0.043945312,0.064453125,-12.09375,18.125,-11.25
291,291,1727374604866,-0.9746094,-0.041015625,0.068359375,-17.15625,22.5625,-12.15625
292,292,1727374604906,-0.984375,-0.028320312,0.12695312,-10.375,24.875,-9.46875
293,293,1727374604946,-0.9863281,-0.13867188,0.046875,-16.28125,29.15625,-14.40625
294,294,1727374604986,-0.9951172,-0.119140625,0.061523438,-12.875,20.25,-12.8125
295,295,1727374605026,-0.9707031,-0.057617188,0.038085938,-14.53125,19.5,-9.40625
296,296,1727374605066,-0.98339844,-0.005859375,0.01171875,-22.9375,17.1875,-7.5
297,297,1727374605106,-0.9746094,0.07714844,0.052734375,-29.71875,7.1875,-8.5625
298,298,1727374605146,-0.9580078,-0.033203125,0.045898438,-32.96875,7.1875,-7.5
299,299,1727374605186,-0.99902344,-0.13085938,-0.033203125,-27.59375,14.09375,-5.25
300,300,1727374605226,-0.9736328,-0.14453125,0.00390625,-15.5,15.0625,-6.0625
301,301,1727374605266,-0.98046875,-0.09863281,0.013671875,-6.90625,10.125,-6.40625
302,302,1727374605306,-0.9716797,-0.111328125,-0.0087890625,-5.25,4.25,-4.21875
303,303,1727374605346,-0.9638672,-0.078125,0.01953125,-2.75,-0.375,-4.40625
304,304,1727374605386,-0.9814453,-0.1015625,-0.036132812,-4.40625,-0.875,-4.78125
305,305,1727374605426,-0.96777344,-0.06542969,-0.06640625,-0.59375,5.15625,-4.84375
306,306,1727374605466,-0.9482422,-0.038085938,-0.0078125,5.8125,11.59375,-4.15625
307,307,1727374605506,-0.98339844,-0.115234375,-0.013671875,1.21875,13.40625,1.09375
308,308,1727374605546,-0.984375,-0.13085938,0.022460938,-0.65625,13.96875,-1.71875
309,309,1727374605586,-0.95410156,-0.08496094,-0.0078125,-5.6875,13.78125,-1.34375
310,310,1727374605626,-0.9638672,-0.045898438,-0.005859375,-4.40625,15.78125,0.65625
311,311,1727374605666,-0.97265625,-0.11035156,-0.040039062,-4.40625,17.0625,2.625
312,312,1727374605706,-1.0302734,-0.19921875,-0.015625,-1.53125,12.4375,3.78125
313,313,1727374605746,-1.0175781,-0.14160156,-0.10644531,-9.59375,8.96875,-2.8125
314,314,1727374605786,-0.91796875,0.06738281,-0.09667969,-18.0,9.5625,-4.28125
315,315,1727374605826,-0.9580078,-0.0126953125,-0.12011719,-17.5,3.65625,8.0
316,316,1727374605866,-1.0195312,-0.057617188,-0.08886719,-19.90625,-1.375,8.125
317,317,1727374605906,-1.0244141,0.005859375,-0.09375,-27.09375,-4.21875,6.875
318,318,1727374605946,-0.95996094,0.0146484375,-0.09667969,-20.5625,-10.875,10.6875
319,319,1727374605986,-1.0244141,-0.033203125,-0.061523438,-10.375,-12.90625,11.59375
320,320,1727374606026,-1.0292969,0.018554688,-0.10644531,-21.84375,-15.34375,10.6875
321,321,1727374606066,-1.0380859,0.030273438,-0.022460938,-2.0,-25.96875,9.6875
322,322,1727374606106,-1.0908203,-0.060546875,0.049804688,4.03125,-48.53125,5.96875
323,323,1727374606146,-1.0546875,-0.08496094,0.04296875,13.125,-64.34375,10.625
324,324,1727374606186,-0.94140625,-0.017578125,-0.0009765625,29.0625,-48.71875,6.8125
325,325,1727374606226,-0.96875,0.0009765625,-0.05078125,37.28125,-27.84375,3.71875
326,326,1727374606266,-0.9824219,0.044921875,0.06347656,51.28125,-38.28125,8.78125
327,327,1727374606306,-0.9375,0.103515625,0.046875,38.625,-33.46875,7.25
328,328,1727374606346,-0.9511719,0.072265625,0.07519531,29.59375,-28.21875,6.46875
329,329,1727374606386,-0.94433594,0.103515625,0.07324219,24.0625,-25.21875,9.9375
330,330,1727374606426,-0.9111328,0.083984375,0.15917969,18.25,-20.9375,7.4375
331,331,1727374606466,-0.94628906,0.1015625,0.14941406,11.34375,-21.9375,9.5
332,332,1727374606506,-0.92285156,0.08984375,0.20703125,17.75,-19.4375,11.96875
333,333,1727374606546,-0.8808594,0.08496094,0.171875,10.6875,-7.59375,6.34375
334,334,1727374606586,-0.8544922,0.08203125,0.19726562,11.28125,6.75,-1.40625
335,335,1727374606626,-0.8125,0.056640625,0.17773438,4.28125,21.40625,-15.15625
336,336,1727374606666,-0.9326172,0.099609375,0.13476562,-14.875,44.1875,-30.90625
337,337,1727374606706,-1.2236328,0.12695312,0.14550781,-24.46875,42.15625,-21.5
338,338,1727374606746,-0.96972656,0.06738281,0.17089844,13.125,17.5,-9.40625
339,339,1727374606786,-0.89746094,-0.18847656,0.22265625,27.84375,14.5625,-22.84375
340,340,1727374606826,-1.0126953,-0.10839844,0.0234375,-4.5625,13.65625,-21.90625
341,341,1727374606866,-0.9892578,0.18164062,0.033203125,1.34375,22.5625,-16.71875
342,342,1727374606906,-0.953125,0.020507812,0.051757812,-9.15625,24.40625,-7.6875
343,343,1727374606946,-1.0,-0.21777344,0.013671875,-12.8125,22.03125,-7.5625
344,344,1727374606986,-0.99316406,-0.048828125,0.0625,-13.125,15.375,-13.5
345,345,1727374607026,-0.9345703,0.0078125,0.0087890625,-18.78125,20.78125,-5.0
346,346,1727374607066,-1.046875,-0.1875,0.03515625,-20.375,25.9375,-3.5625
347,347,1727374607106,-1.0117188,-0.18554688,0.0078125,-19.59375,19.28125,-4.78125
348,348,1727374607146,-0.9433594,-0.0126953125,0.0029296875,-22.40625,16.34375,-7.9375
349,349,1727374607186,-1.0029297,0.061523438,-0.032226562,-33.6875,21.34375,-7.09375
350,350,1727374607226,-1.0166016,-0.07714844,-0.029296875,-38.5,9.1875,-5.8125
351,351,1727374607266,-0.98535156,-0.15917969,-0.029296875,-19.78125,-0.3125,-9.96875
352,352,1727374607306,-0.9638672,-0.11328125,0.00390625,-22.6875,-0.9375,-10.1875
353,353,1727374607346,-0.9580078,-0.11425781,-0.12402344,-14.40625,2.96875,-4.53125
354,354,1727374607386,-0.99316406,-0.12597656,-0.047851562,-4.875,3.34375,-3.90625
355,355,1727374607426,-0.9658203,-0.11425781,-0.032226562,-5.375,3.46875,-4.40625
356,356,1727374607466,-0.9667969,-0.10449219,-0.053710938,-0.125,6.5625,-6.78125
357,357,1727374607506,-0.9941406,-0.09472656,-0.020507812,7.75,8.90625,-5.0
358,358,1727374607546,-0.96875,-0.09765625,-0.018554688,-2.0625,8.59375,-4.59375
359,359,1727374607586,-0.9355469,-0.09375,-0.038085938,-3.15625,7.90625,-2.8125
360,360,1727374607626,-0.9765625,-0.10546875,-0.05859375,-4.34375,12.5625,-1.34375
361,361,1727374607666,-0.9404297,-0.14550781,-0.10644531,-3.59375,15.1875,0.1875
362,362,1727374607706,-1.0009766,-0.1484375,-0.083984375,5.0,14.875,1.40625
363,363,1727374607746,-0.9511719,-0.18847656,-0.0546875,-2.1875,16.09375,-2.09375
364,364,1727374607786,-0.9609375,-0.13378906,-0.028320312,-2.6875,12.5625,0.59375
365,365,1727374607826,-1.0058594,-0.10839844,-0.0009765625,-5.625,10.84375,1.9375
366,366,1727374607866,-0.953125,-0.1171875,-0.08300781,0.625,1.25,3.34375
367,367,1727374607906,-0.95410156,-0.1171875,-0.047851562,4.03125,-8.5625,5.59375
368,368,1727374607946,-1.015625,-0.09667969,-0.15527344,-14.03125,-16.3125,6.40625
369,369,1727374607986,-0.9824219,0.015625,-0.18847656,-12.5625,-14.59375,5.4375
370,370,1727374608026,-1.0410156,0.0009765625,-0.20019531,-6.21875,-9.71875,8.0625
371,371,1727374608066,-1.0400391,-0.052734375,-0.15039062,-9.9375,-6.78125,9.5
372,372,1727374608106,-1.0253906,0.0078125,-0.10253906,-0.65625,-13.125,11.90625
373,373,1727374608146,-1.0634766,0.015625,0.059570312,18.0625,-38.78125,21.59375
374,374,1727374608186,-0.9941406,-0.09765625,0.064453125,19.15625,-52.1875,21.34375
375,375,1727374608226,-0.9316406,-0.038085938,-0.087890625,-2.3125,-60.125,30.8125
376,376,1727374608266,-1.0224609,0.0048828125,0.03125,50.84375,-61.96875,34.125
377,377,1727374608306,-1.0039062,0.029296875,0.103515625,40.03125,-53.1875,14.625
378,378,1727374608346,-1.0078125,0.06738281,0.11035156,47.5625,-49.8125,9.6875
379,379,1727374608386,-0.94140625,0.01171875,0.0859375,37.25,-35.46875,4.6875
380,380,1727374608426,-0.9111328,0.111328125,0.123046875,36.125,-32.78125,12.1875
381,381,1727374608466,-0.94433594,0.09277344,0.16992188,31.1875,-30.59375,12.125
382,382,1727374608506,-0.9238281,0.09277344,0.15136719,25.46875,-24.84375,4.875
383,383,1727374608546,-0.9111328,0.11035156,0.19726562,24.46875,-26.4375,14.09375
384,384,1727374608586,-0.8720703,0.09863281,0.18164062,16.90625,-16.0,9.75
385,385,1727374608626,-0.84375,0.107421875,0.21972656,6.53125,-8.5,6.53125
386,386,1727374608666,-0.8828125,0.11230469,0.24511719,1.78125,-0.75,-2.15625
387,387,1727374608706,-0.9111328,0.11035156,0.25585938,1.96875,7.3125,-11.59375
388,388,1727374608746,-0.8876953,0.08691406,0.2265625,4.09375,16.34375,-21.625
389,389,1727374608786,-0.97265625,0.1171875,0.14648438,-0.125,29.78125,-25.8125
390,390,1727374608826,-1.1113281,0.18652344,0.22753906,-9.875,22.5,-16.96875
391,391,1727374608866,-0.875,0.09082031,0.2265625,13.625,11.9375,-14.0
392,392,1727374608906,-0.9501953,0.057617188,0.23925781,-0.78125,13.96875,-12.03125
393,393,1727374608946,-0.99609375,0.015625,0.19042969,13.8125,12.8125,-11.25
394,394,1727374608986,-0.9501953,0.032226562,0.13476562,-3.65625,14.9375,-14.09375
395,395,1727374609026,-1.0058594,0.044921875,0.10839844,-12.625,12.96875,-13.9375
396,396,1727374609066,-0.94140625,0.041992188,0.08496094,-18.1875,8.65625,-8.84375
397,397,1727374609106,-1.0117188,-0.06738281,0.07128906,-16.78125,10.71875,-3.90625
398,398,1727374609146,-0.9765625,-0.16210938,0.099609375,-9.59375,19.15625,-8.5625
399,399,1727374609186,-1.0097656,-0.07910156,0.12890625,-16.46875,19.03125,-17.40625
400,400,1727374609226,-0.95214844,-0.0390625,0.087890625,-11.90625,12.375,-9.53125
401,401,1727374609266,-0.9638672,-0.07910156,0.123046875,-9.46875,11.75,-5.0625
402,402,1727374609306,-0.98339844,-0.046875,0.06640625,-21.71875,19.4375,-7.09375
403,403,1727374609346,-0.9433594,0.07324219,0.0703125,-36.3125,25.125,-7.75
404,404,1727374609386,-0.9736328,-0.017578125,0.07519531,-36.4375,27.15625,-1.96875
405,405,1727374609426,-1.0,-0.18652344,0.049804688,-34.34375,23.65625,-4.34375
406,406,1727374609466,-0.99609375,-0.13867188,0.016601562,-20.75,15.96875,-10.03125
407,407,1727374609506,-0.94921875,-0.026367188,0.01953125,-13.96875,13.28125,-8.125
408,408,1727374609546,-0.9980469,-0.0859375,-0.015625,-13.0625,14.75,-1.59375
409,409,1727374609586,-0.9794922,-0.123046875,0.015625,-8.0,9.4375,-4.03125
410,410,1727374609626,-0.97265625,-0.099609375,0.0146484375,-11.40625,4.25,-4.84375
411,411,1727374609666,-0.9785156,-0.111328125,-0.015625,-7.125,3.09375,-3.84375
412,412,1727374609706,-0.97753906,-0.080078125,-0.029296875,-8.90625,3.71875,-4.65625
413,413,1727374609746,-0.98046875,-0.115234375,-0.021484375,-10.90625,5.65625,-3.5
414,414,1727374609786,-0.96875,-0.119140625,-0.017578125,-10.4375,9.625,-4.15625
415,415,1727374609826,-0.9355469,-0.07910156,-0.052734375,0.0625,11.875,-5.3125
416,416,1727374609866,-0.9824219,-0.14941406,-0.064453125,4.75,12.875,0.34375
417,417,1727374609906,-0.97753906,-0.10546875,-0.07324219,-1.53125,19.28125,-2.6875
418,418,1727374609946,-0.96972656,-0.11230469,-0.040039062,0.5,18.34375,-2.21875
419,419,1727374609986,-1.0039062,-0.18164062,-0.09082031,-3.90625,11.46875,0.46875
420,420,1727374610026,-0.9482422,-0.041992188,-0.09472656,-4.03125,8.65625,-1.03125
421,421,1727374610066,-0.98046875,-0.078125,-0.08203125,-2.9375,5.59375,2.25
422,422,1727374610106,-0.9824219,-0.057617188,-0.13574219,-10.3125,2.53125,2.25
423,423,1727374610146,-0.99609375,0.0126953125,-0.12402344,-14.09375,-2.875,5.84375
424,424,1727374610186,-0.9746094,-0.0146484375,-0.095703125,-19.15625,-10.5625,10.0
425,425,1727374610226,-0.99316406,-0.07324219,-0.08691406,-20.4375,-16.625,12.4375
426,426,1727374610266,-1.0166016,-0.056640625,-0.09082031,-18.125,-15.09375,10.625
427,427,1727374610306,-0.9873047,-0.06347656,-0.091796875,-6.09375,-6.0625,4.6875
428,428,1727374610346,-0.9736328,-0.059570312,-0.14648438,-8.90625,0.71875,-0.6875
429,429,1727374610386,-1.0458984,0.03125,-0.09863281,0.8125,-9.59375,0.59375
430,430,1727374610426,-1.0791016,0.048828125,0.0703125,6.78125,-34.625,8.59375
431,431,1727374610466,-0.9707031,-0.060546875,0.14453125,15.4375,-47.25,9.28125
432,432,1727374610506,-0.95703125,-0.091796875,-0.12988281,-14.40625,-40.59375,18.1875
433,433,1727374610546,-0.9941406,-0.0146484375,0.038085938,45.0625,-41.75,19.09375
434,434,1727374610586,-0.9941406,0.0234375,0.053710938,43.28125,-45.375,11.96875
435,435,1727374610626,-0.9941406,0.06347656,-0.034179688,25.8125,-29.4375,3.46875
436,436,1727374610666,-0.9453125,0.0,0.119140625,38.625,-40.96875,4.375
437,437,1727374610706,-0.93652344,0.11816406,0.1328125,34.96875,-37.90625,13.90625
438,438,1727374610746,-0.9716797,0.07519531,0.19140625,30.71875,-33.15625,13.34375
439,439,1727374610786,-0.9482422,0.041015625,0.1953125,31.875,-32.84375,9.09375
440,440,1727374610826,-0.88671875,0.083984375,0.19726562,36.1875,-26.375,7.375
441,441,1727374610866,-0.859375,0.11621094,0.19628906,28.15625,-16.625,6.875
442,442,1727374610906,-0.8691406,0.09863281,0.23144531,23.6875,-2.34375,3.15625
443,443,1727374610946,-0.796875,0.068359375,0.1953125,8.90625,11.40625,-9.53125
444,444,1727374610986,-0.8154297,0.12890625,0.18554688,-18.5625,36.125,-28.34375
445,445,1727374611026,-1.328125,0.11328125,0.2109375,-19.71875,57.21875,-33.875
446,446,1727374611066,-0.90527344,0.10644531,0.1484375,-5.71875,32.21875,-15.15625
447,447,1727374611106,-0.7998047,0.0087890625,0.15136719,-5.3125,25.5625,-2.21875
448,448,1727374611146,-1.0810547,-0.14746094,0.123046875,-1.53125,27.375,-9.59375
449,449,1727374611186,-1.0771484,-0.115234375,0.099609375,-15.3125,15.5,-20.28125
450,450,1727374611226,-0.9326172,0.051757812,0.0859375,2.4375,9.5625,-9.90625
451,451,1727374611266,-0.9609375,-0.020507812,0.12109375,-10.75,15.25,-8.75
452,452,1727374611306,-1.0019531,-0.21777344,0.036132812,-13.0625,10.0,-13.8125
453,453,1727374611346,-0.95410156,-0.09082031,0.043945312,-13.4375,17.625,-14.71875
454,454,1727374611386,-0.9707031,-0.01171875,0.026367188,-23.5625,28.71875,-9.71875
455,455,1727374611426,-0.98535156,-0.028320312,-0.0078125,-26.25,30.5,-5.375
456,456,1727374611466,-0.9951172,-0.046875,0.00390625,-30.28125,22.5,-1.09375
457,457,1727374611506,-1.0166016,-0.10644531,0.01171875,-37.03125,13.46875,-2.625
458,458,1727374611546,-0.9589844,-0.1875,-0.07421875,-24.15625,8.34375,-6.21875
459,459,1727374611586,-0.9628906,-0.17285156,-0.024414062,-5.96875,6.34375,-5.4375
460,460,1727374611626,-0.97265625,-0.12207031,-0.056640625,-5.5625,8.78125,-7.28125
461,461,1727374611666,-0.9560547,-0.08496094,-0.072265625,-2.5625,9.5,-5.3125
462,462,1727374611706,-0.9736328,-0.10839844,-0.07714844,-3.59375,9.25,-1.78125
463,463,1727374611746,-0.9560547,-0.09667969,-0.025390625,6.03125,9.125,-3.5
464,464,1727374611786,-0.97265625,-0.10546875,-0.036132812,0.96875,10.34375,-1.34375
465,465,1727374611826,-0.97265625,-0.083984375,-0.032226562,-2.9375,12.8125,-1.03125
466,466,1727374611866,-0.9326172,-0.08105469,-0.05078125,-3.15625,16.65625,0.96875
467,467,1727374611906,-1.0078125,-0.15039062,-0.0390625,-3.65625,13.71875,3.28125
468,468,1727374611946,-1.0117188,-0.18652344,-0.06933594,-2.75,11.40625,2.1875
469,469,1727374611986,-0.94433594,-0.09082031,-0.09375,-3.0,11.15625,-0.625
470,470,1727374612026,-0.9794922,-0.047851562,-0.087890625,-2.8125,11.53125,0.59375
471,471,1727374612066,-0.9560547,-0.068359375,-0.107421875,-11.71875,8.90625,1.28125
472,472,1727374612106,-0.9863281,-0.03515625,-0.09082031,-12.5625,0.40625,3.28125
473,473,1727374612146,-0.99902344,-0.047851562,-0.11816406,-17.28125,-3.9375,5.90625
474,474,1727374612186,-0.98046875,-0.057617188,-0.111328125,-23.3125,-4.90625,9.9375
475,475,1727374612226,-0.9873047,-0.0107421875,-0.0703125,-16.59375,-7.65625,8.71875
476,476,1727374612266,-1.0087891,-0.0087890625,-0.10644531,-8.40625,-13.375,10.0625
477,477,1727374612306,-0.9941406,-0.016601562,-0.1171875,0.8125,-11.625,10.0
478,478,1727374612346,-0.96875,-0.036132812,-0.15917969,-1.8125,-8.4375,9.625
479,479,1727374612386,-0.9814453,0.001953125,-0.123046875,5.625,-4.28125,6.46875
480,480,1727374612426,-1.0244141,0.020507812,-0.0625,15.625,-19.96875,9.625
481,481,1727374612466,-1.0605469,0.0546875,0.048828125,22.78125,-39.25,13.96875
482,482,1727374612506,-1.0234375,-0.043945312,0.0078125,14.84375,-72.09375,32.59375
483,483,1727374612546,-0.9892578,-0.15136719,0.024414062,61.96875,-53.90625,11.09375
484,484,1727374612586,-0.9482422,0.032226562,-0.08300781,48.53125,-39.1875,6.28125
485,485,1727374612626,-1.0068359,0.14257812,0.07421875,67.375,-44.34375,9.40625
486,486,1727374612666,-0.99316406,0.14746094,-0.0078125,22.53125,-28.53125,1.75
487,487,1727374612706,-0.91308594,0.06347656,0.091796875,25.40625,-35.71875,10.0625
488,488,1727374612746,-0.9267578,0.07421875,0.107421875,27.90625,-30.28125,13.40625
489,489,1727374612786,-0.97558594,0.09277344,0.15527344,24.1875,-22.78125,6.8125
490,490,1727374612826,-0.9121094,0.10058594,0.13671875,20.03125,-22.78125,5.53125
491,491,1727374612866,-0.8876953,0.11328125,0.14648438,17.53125,-15.59375,4.375
492,492,1727374612906,-0.85253906,0.08496094,0.14453125,12.9375,-2.75,-0.5
493,493,1727374612946,-0.87109375,0.09667969,0.17871094,2.09375,10.1875,-7.8125
494,494,1727374612986,-0.9296875,0.13378906,0.14941406,-6.15625,19.5625,-17.78125
495,495,1727374613026,-1.0654297,0.12597656,0.12207031,-6.71875,36.53125,-23.09375
496,496,1727374613066,-1.0566406,0.07128906,0.2265625,-10.90625,32.15625,-24.4375
497,497,1727374613106,-0.91308594,0.022460938,0.091796875,-6.21875,20.90625,-28.5
498,498,1727374613146,-0.93359375,0.046875,0.022460938,-27.40625,32.8125,-15.6875
499,499,1727374613186,-1.0205078,-0.01171875,-0.020507812,-19.09375,31.78125,-8.1875
500,500,1727374613226,-0.96777344,-0.06542969,0.043945312,-24.65625,46.75,-11.40625
501,501,1727374613266,-0.94433594,-0.061523438,-0.016601562,-29.0625,45.03125,-9.34375
502,502,1727374613306,-1.0371094,-0.103515625,0.061523438,-19.78125,32.6875,-5.5
503,503,1727374613346,-1.0507812,-0.14160156,0.00390625,-24.03125,18.125,-12.75
504,504,1727374613386,-0.99121094,-0.115234375,-0.013671875,-6.09375,2.4375,-9.96875
505,505,1727374613426,-0.9453125,-0.107421875,-0.07324219,-2.25,-1.125,-6.59375
506,506,1727374613466,-0.9667969,-0.0029296875,-0.0703125,-10.1875,7.6875,-10.09375
507,507,1727374613506,-0.9902344,-0.01953125,-0.053710938,-14.03125,11.21875,-7.5
508,508,1727374613546,-1.015625,-0.051757812,0.016601562,-16.15625,7.25,-10.8125
509,509,1727374613586,-0.9794922,-0.09765625,-0.028320312,-25.8125,1.15625,-13.375
510,510,1727374613626,-0.9472656,-0.12890625,-0.032226562,-12.21875,-2.46875,-9.34375
511,511,1727374613666,-0.9716797,-0.18457031,-0.047851562,-13.5,0.59375,-8.25
512,512,1727374613706,-0.96484375,-0.11328125,-0.020507812,-4.8125,1.8125,-8.75
513,513,1727374613746,-0.9501953,-0.1015625,-0.038085938,-5.90625,3.28125,-6.0625
514,514,1727374613786,-0.9482422,-0.10839844,-0.0703125,-5.84375,5.40625,-3.375
515,515,1727374613826,-0.96972656,-0.095703125,-0.061523438,-4.15625,9.1875,-2.5625
516,516,1727374613866,-0.94921875,-0.10644531,-0.055664062,-7.1875,10.40625,-2.03125
517,517,1727374613906,-0.9609375,-0.12695312,-0.09765625,-4.21875,9.8125,1.875
518,518,1727374613946,-0.9667969,-0.171875,-0.1015625,-2.75,12.9375,1.09375
519,519,1727374613986,-0.94921875,-0.171875,-0.072265625,4.03125,13.09375,2.1875
520,520,1727374614026,-0.9794922,-0.16308594,-0.09277344,7.21875,14.8125,2.90625
521,521,1727374614066,-0.9746094,-0.13085938,-0.10449219,0.75,16.59375,1.03125
522,522,1727374614106,-0.98046875,-0.099609375,-0.12792969,-0.53125,16.03125,0.65625
523,523,1727374614146,-1.0185547,-0.072265625,-0.07910156,4.09375,8.59375,2.875
524,524,1727374614186,-0.99316406,-0.034179688,-0.045898438,-5.6875,-5.5,3.65625
525,525,1727374614226,-0.96972656,-0.0078125,-0.12207031,-17.8125,-16.4375,7.0
526,526,1727374614266,-0.9785156,-0.040039062,-0.11425781,-17.21875,-24.96875,12.3125
527,527,1727374614306,-0.9941406,-0.040039062,-0.13769531,-24.15625,-27.0625,14.875
528,528,1727374614346,-1.015625,-0.045898438,-0.17773438,-9.53125,-13.125,11.53125
529,529,1727374614386,-1.0068359,-0.017578125,-0.08691406,-5.71875,-10.875,11.09375
530,530,1727374614426,-1.0507812,0.020507812,-0.051757812,0.96875,-20.28125,15.375
531,531,1727374614466,-1.125,0.0390625,0.12792969,24.125,-52.75,26.40625
532,532,1727374614506,-0.93066406,-0.017578125,0.22265625,20.21875,-86.75,27.53125
533,533,1727374614546,-0.9453125,0.0068359375,0.036132812,37.96875,-69.0,17.5625
534,534,1727374614586,-0.99609375,0.021484375,0.11816406,50.84375,-67.65625,30.03125
535,535,1727374614626,-0.95410156,0.0009765625,0.08105469,45.71875,-43.90625,5.25
536,536,1727374614666,-0.92089844,0.0703125,0.12890625,46.5,-42.8125,6.78125
537,537,1727374614706,-0.9199219,0.11621094,0.17675781,39.0625,-37.75,5.4375
538,538,1727374614746,-0.82128906,0.13183594,0.15527344,38.53125,-26.875,12.6875
539,539,1727374614786,-0.8496094,0.103515625,0.21582031,15.375,-11.125,6.21875
540,540,1727374614826,-0.8876953,0.10058594,0.21777344,12.9375,-1.3125,-0.625
541,541,1727374614866,-0.84375,0.11816406,0.23242188,4.09375,14.3125,-10.75
542,542,1727374614906,-0.8457031,0.10546875,0.18847656,3.84375,25.125,-20.46875
543,543,1727374614946,-0.9892578,0.06640625,0.140625,-2.6875,50.34375,-31.1875
544,544,1727374614986,-1.1181641,0.19628906,0.0859375,-21.3125,41.125,-18.0
545,545,1727374615026,-0.96875,0.11328125,0.17285156,2.3125,25.75,-7.09375
546,546,1727374615066,-0.9658203,0.053710938,0.203125,8.0,15.0625,-12.34375
547,547,1727374615106,-1.0136719,-0.07910156,0.10644531,7.9375,10.25,-14.96875
548,548,1727374615146,-1.0107422,0.01953125,0.12207031,-1.875,6.5625,-16.25
549,549,1727374615186,-0.9033203,0.0625,0.015625,0.5,7.3125,-9.71875
550,550,1727374615226,-0.9667969,-0.030273438,0.0126953125,-13.96875,21.84375,-6.28125
551,551,1727374615266,-1.0214844,-0.15332031,0.033203125,-14.875,24.21875,-6.78125
552,552,1727374615306,-0.9980469,-0.052734375,0.06347656,-22.625,23.59375,-14.90625
553,553,1727374615346,-0.94433594,-0.03125,0.049804688,-21.34375,18.84375,-12.09375
554,554,1727374615386,-0.99316406,-0.14257812,0.021484375,-15.3125,19.4375,-6.84375
555,555,1727374615426,-1.0224609,-0.14453125,-0.0029296875,-15.125,19.15625,-8.625
556,556,1727374615466,-0.9589844,0.034179688,-0.001953125,-27.78125,19.6875,-11.125
557,557,1727374615506,-0.9580078,0.024414062,-0.0029296875,-25.4375,20.625,-4.9375
558,558,1727374615546,-0.9941406,-0.06738281,0.01171875,-33.3125,11.09375,-4.65625
559,559,1727374615586,-1.0019531,-0.17480469,-0.016601562,-27.15625,5.28125,-5.375
560,560,1727374615626,-0.9785156,-0.16601562,-0.07910156,-14.71875,8.65625,-8.90625
561,561,1727374615666,-0.95410156,-0.083984375,-0.053710938,-5.1875,10.1875,-9.15625
562,562,1727374615706,-0.9707031,-0.060546875,-0.03515625,-4.8125,7.78125,-7.21875
563,563,1727374615746,-0.9472656,-0.09375,-0.064453125,-14.21875,7.1875,-4.90625
564,564,1727374615786,-0.9560547,-0.09472656,-0.06933594,-6.40625,6.6875,-1.90625
565,565,1727374615826,-0.9667969,-0.09667969,-0.040039062,-10.125,11.34375,0.0625
566,566,1727374615866,-0.97265625,-0.15917969,-0.064453125,-7.8125,12.0625,1.40625
567,567,1727374615906,-0.9892578,-0.12402344,-0.0546875,-4.625,13.65625,1.9375
568,568,1727374615946,-0.9980469,-0.17382812,-0.044921875,-3.96875,12.5,1.59375
569,569,1727374615986,-0.97265625,-0.13476562,-0.07910156,-4.40625,9.03125,0.71875
570,570,1727374616026,-0.953125,-0.072265625,-0.072265625,-3.78125,6.4375,2.0625
571,571,1727374616066,-0.9892578,-0.034179688,-0.12890625,-11.90625,4.0625,0.65625
572,572,1727374616106,-0.9824219,-0.03125,-0.12890625,-9.40625,1.9375,2.875
573,573,1727374616146,-0.94628906,-0.06347656,-0.107421875,-3.40625,-6.0625,6.9375
574,574,1727374616186,-0.96777344,-0.047851562,-0.07128906,-17.625,-9.96875,7.75
575,575,1727374616226,-0.9736328,-0.060546875,-0.13378906,-13.90625,-5.875,5.375
576,576,1727374616266,-1.0166016,-0.052734375,-0.123046875,-3.53125,-5.9375,4.6875
577,577,1727374616306,-1.0126953,-0.001953125,-0.06933594,-3.28125,-7.53125,3.78125
578,578,1727374616346,-1.0410156,0.032226562,-0.055664062,-7.4375,-14.65625,7.5
579,579,1727374616386,-1.0419922,0.0048828125,-0.024414062,11.65625,-31.375,13.90625
580,580,1727374616426,-0.99902344,0.01953125,0.11035156,13.125,-57.5625,26.71875
581,581,1727374616466,-1.0283203,-0.0390625,0.05859375,48.34375,-75.9375,25.3125
582,582,1727374616506,-1.015625,-0.06933594,0.10253906,55.1875,-65.1875,17.09375
583,583,1727374616546,-0.9765625,-0.032226562,0.005859375,71.40625,-59.96875,5.53125
584,584,1727374616586,-0.9453125,0.06738281,0.10449219,57.8125,-46.21875,1.59375
585,585,1727374616626,-0.9267578,0.14648438,0.13769531,60.1875,-48.0625,9.6875
586,586,1727374616666,-0.9091797,0.080078125,0.15136719,49.4375,-40.96875,14.15625
587,587,1727374616706,-0.8857422,0.11328125,0.16308594,39.90625,-33.34375,15.1875
588,588,1727374616746,-0.88964844,0.0859375,0.17773438,35.84375,-23.34375,13.71875
589,589,1727374616786,-0.8623047,0.10058594,0.20214844,25.09375,-11.125,4.6875
590,590,1727374616826,-0.85253906,0.1015625,0.20898438,14.40625,2.5,-5.125
591,591,1727374616866,-0.89160156,0.111328125,0.22753906,10.875,13.28125,-13.3125
592,592,1727374616906,-0.93066406,0.10546875,0.16894531,7.15625,27.875,-27.53125
593,593,1727374616946,-1.0683594,0.140625,0.12109375,-21.40625,44.53125,-28.34375
594,594,1727374616986,-1.0556641,0.13085938,0.22851562,-14.46875,27.75,-14.28125
595,595,1727374617026,-0.8339844,0.07910156,0.15722656,4.71875,12.75,-10.9375
596,596,1727374617066,-1.0029297,-0.052734375,0.1796875,7.4375,17.4375,-14.34375
597,597,1727374617106,-1.0693359,-0.034179688,0.14648438,8.0,6.75,-18.9375
598,598,1727374617146,-0.91503906,0.08984375,0.059570312,8.375,8.59375,-14.0
599,599,1727374617186,-0.97753906,0.0029296875,0.08496094,0.96875,17.1875,-10.5625
600,600,1727374617226,-0.9824219,-0.055664062,0.041992188,-13.53125,16.53125,-9.96875
601,601,1727374617266,-0.96484375,-0.0234375,0.06542969,-3.90625,11.03125,-8.8125
602,602,1727374617306,-0.9970703,-0.087890625,0.087890625,-1.46875,8.78125,-10.5625
603,603,1727374617346,-0.98535156,-0.00390625,0.08105469,-16.125,10.1875,-10.75
604,604,1727374617386,-0.9628906,-0.10058594,0.06640625,-11.71875,12.625,-7.5
605,605,1727374617426,-1.0009766,-0.21289062,0.051757812,-14.34375,18.28125,-8.5625
606,606,1727374617466,-0.9794922,-0.045898438,0.040039062,-25.8125,24.03125,-8.6875
607,607,1727374617506,-0.9394531,0.08984375,-0.0068359375,-39.3125,28.5625,-3.84375
608,608,1727374617546,-0.97753906,0.0107421875,0.021484375,-40.875,26.71875,-0.3125
609,609,1727374617586,-1.0175781,-0.21386719,-0.00390625,-40.34375,25.4375,-1.78125
610,610,1727374617626,-0.9716797,-0.14453125,0.033203125,-17.34375,18.53125,-6.21875
611,611,1727374617666,-0.9716797,-0.072265625,-0.005859375,-11.34375,14.9375,-2.375
612,612,1727374617706,-0.9892578,-0.10058594,-0.034179688,-14.34375,10.53125,-2.5
613,613,1727374617746,-0.9628906,-0.1015625,-0.064453125,-15.8125,3.03125,-2.5625
614,614,1727374617786,-0.9580078,-0.10644531,-0.06933594,-9.15625,3.09375,-0.0625
615,615,1727374617826,-0.9824219,-0.115234375,-0.041015625,-3.21875,4.625,0.0
616,616,1727374617866,-0.9628906,-0.09082031,-0.044921875,-1.15625,6.21875,-1.09375
617,617,1727374617906,-0.98046875,-0.08105469,-0.032226562,0.0,6.5625,-0.5
618,618,1727374617946,-0.96484375,-0.076171875,-0.046875,-4.21875,7.1875,-1.15625
619,619,1727374617986,-0.9746094,-0.08984375,-0.052734375,-2.9375,8.40625,0.0625
620,620,1727374618026,-0.9765625,-0.076171875,-0.049804688,-3.96875,11.09375,-1.71875
621,621,1727374618066,-0.9824219,-0.125,-0.072265625,0.0,13.90625,-2.4375
622,622,1727374618106,-0.9658203,-0.09765625,-0.10449219,-5.84375,15.59375,-4.34375
623,623,1727374618146,-0.97558594,-0.095703125,-0.048828125,7.21875,13.84375,-2.28125
624,624,1727374618186,-1.0302734,-0.171875,-0.022460938,2.25,8.59375,-1.28125
625,625,1727374618226,-0.96875,-0.107421875,-0.09863281,-6.40625,8.34375,-5.1875
626,626,1727374618266,-0.9326172,-0.0146484375,-0.08691406,-4.9375,3.28125,0.46875
627,627,1727374618306,-0.9892578,-0.064453125,-0.04296875,-4.9375,-3.875,5.0
628,628,1727374618346,-1.0136719,-0.078125,-0.09277344,-17.5,-7.40625,3.96875
629,629,1727374618386,-0.9736328,-0.064453125,-0.14941406,-13.1875,-16.5625,6.8125
630,630,1727374618426,-0.96191406,-0.06738281,-0.111328125,1.96875,-17.78125,9.28125
631,631,1727374618466,-1.0175781,-0.03125,-0.11621094,7.5,-12.40625,11.03125
632,632,1727374618506,-1.0146484,-0.060546875,-0.15136719,6.65625,-11.1875,11.40625
633,633,1727374618546,-0.98339844,-0.020507812,-0.10644531,13.3125,-7.34375,8.53125
634,634,1727374618586,-1.015625,0.0107421875,-0.09472656,20.15625,-4.65625,7.25
635,635,1727374618626,-1.1064453,0.03125,0.02734375,30.53125,-35.0625,14.8125
636,636,1727374618666,-0.99316406,0.025390625,0.18359375,34.0625,-72.59375,22.75
637,637,1727374618706,-0.9394531,-0.045898438,-0.0068359375,36.0625,-62.21875,21.53125
638,638,1727374618746,-0.98046875,-0.053710938,-0.033203125,45.96875,-43.53125,18.90625
639,639,1727374618786,-1.0273438,0.025390625,0.087890625,59.21875,-46.84375,14.46875
640,640,1727374618826,-0.9482422,0.10449219,0.095703125,47.96875,-41.15625,3.78125
641,641,1727374618866,-0.9609375,0.07519531,0.080078125,30.15625,-37.1875,0.53125
642,642,1727374618906,-0.9199219,0.026367188,0.12695312,43.09375,-36.15625,5.4375
643,643,1727374618946,-0.8925781,0.059570312,0.109375,38.03125,-21.875,-0.25
644,644,1727374618986,-0.94433594,0.08105469,0.15820312,27.09375,-14.3125,-5.4375
645,645,1727374619026,-0.9355469,0.087890625,0.203125,32.96875,-14.25,-6.21875
646,646,1727374619066,-0.83496094,0.13378906,0.19726562,29.78125,-5.875,-9.03125
647,647,1727374619106,-0.8261719,0.07324219,0.20605469,11.78125,11.8125,-15.21875
648,648,1727374619146,-0.8417969,0.060546875,0.22167969,16.1875,20.25,-22.15625
649,649,1727374619186,-0.92871094,0.08105469,0.078125,1.40625,44.40625,-27.46875
650,650,1727374619226,-1.2705078,0.14355469,0.07910156,-30.40625,44.84375,-6.65625
651,651,1727374619266,-0.96972656,0.068359375,0.20019531,17.9375,26.21875,-2.875
652,652,1727374619306,-0.8359375,-0.020507812,0.1171875,-0.59375,20.1875,-13.625
653,653,1727374619346,-1.0419922,-0.07714844,0.0625,-5.84375,19.9375,-8.5625
654,654,1727374619386,-1.0078125,-0.0048828125,0.08691406,7.75,13.65625,-4.09375
655,655,1727374619426,-0.9785156,-0.087890625,0.08691406,0.5625,15.375,-12.09375
656,656,1727374619466,-0.97265625,-0.07324219,0.018554688,-11.71875,9.125,-9.53125
657,657,1727374619506,-0.9980469,-0.044921875,0.048828125,-3.90625,11.9375,-7.34375
658,658,1727374619546,-0.9746094,-0.064453125,0.0859375,-7.5625,13.09375,-13.3125
659,659,1727374619586,-0.96191406,-0.09277344,0.048828125,-0.3125,8.59375,-8.84375
660,660,1727374619626,-0.9921875,-0.12597656,0.044921875,11.21875,7.125,-6.40625
661,661,1727374619666,-0.98046875,-0.103515625,-0.00390625,6.46875,12.6875,-5.0625
662,662,1727374619706,-0.984375,-0.0048828125,0.009765625,-12.15625,20.4375,-4.21875
663,663,1727374619746,-0.97265625,0.041992188,-0.052734375,-19.90625,22.9375,-2.6875
664,664,1727374619786,-1.0273438,-0.064453125,-0.0087890625,-25.8125,17.125,-3.0625
665,665,1727374619826,-0.98535156,-0.115234375,-0.049804688,-18.0625,10.25,-8.375
666,666,1727374619866,-0.984375,-0.12890625,-0.06347656,-8.1875,8.15625,-7.46875
667,667,1727374619906,-1.0019531,-0.07519531,-0.030273438,-3.71875,7.125,-4.9375
668,668,1727374619946,-0.9746094,-0.0859375,-0.056640625,-2.1875,11.21875,-8.8125
669,669,1727374619986,-0.9580078,-0.046875,-0.00390625,2.3125,8.21875,-7.9375
670,670,1727374620026,-0.96875,-0.099609375,-0.043945312,-2.0,6.34375,-2.4375
671,671,1727374620066,-0.9482422,-0.08984375,-0.045898438,-3.28125,5.53125,-1.28125
672,672,1727374620106,-0.9589844,-0.115234375,-0.107421875,0.75,5.0,3.46875
673,673,1727374620146,-0.9951172,-0.16601562,-0.055664062,5.8125,7.5625,3.53125
674,674,1727374620186,-0.98339844,-0.09375,-0.040039062,3.0625,12.3125,-0.6875
675,675,1727374620226,-0.95703125,-0.08691406,-0.038085938,3.25,8.46875,3.15625
676,676,1727374620266,-0.9765625,-0.13964844,-0.09375,3.59375,8.90625,4.5625
677,677,1727374620306,-0.98046875,-0.12792969,-0.06738281,1.28125,13.34375,0.53125
678,678,1727374620346,-1.0166016,-0.10253906,-0.08984375,-3.96875,9.875,1.625
679,679,1727374620386,-0.9638672,0.0,-0.091796875,-5.375,5.40625,1.09375
680,680,1727374620426,-0.94433594,-0.052734375,-0.038085938,-9.34375,0.21875,3.15625
681,681,1727374620466,-0.99609375,-0.12402344,-0.091796875,-6.03125,-3.6875,7.8125
682,682,1727374620506,-0.9765625,-0.07421875,-0.15527344,-8.71875,-3.875,6.40625
683,683,1727374620546,-0.9316406,-0.0126953125,-0.107421875,1.21875,-8.9375,6.78125
684,684,1727374620586,-0.9980469,-0.0146484375,-0.11035156,1.46875,-14.0,10.375
685,685,1727374620626,-1.0185547,-0.033203125,-0.12109375,2.25,-10.21875,6.34375
686,686,1727374620666,-1.0136719,-0.057617188,-0.14648438,9.34375,-0.6875,2.125
687,687,1727374620706,-1.0908203,-0.017578125,-0.06542969,26.6875,-15.53125,5.59375
688,688,1727374620746,-1.0185547,0.018554688,0.10058594,52.1875,-53.78125,11.65625
689,689,1727374620786,-0.9316406,0.021484375,-0.0068359375,27.71875,-47.0625,13.3125
690,690,1727374620826,-0.99121094,-0.026367188,-0.03515625,49.0,-45.1875,24.21875
691,691,1727374620866,-1.0390625,-0.025390625,0.0703125,60.3125,-53.375,15.1875
692,692,1727374620906,-0.984375,0.099609375,0.08300781,49.4375,-52.5625,15.75
693,693,1727374620946,-0.97265625,0.060546875,0.125,49.3125,-46.84375,10.6875
694,694,1727374620986,-0.8876953,0.034179688,0.11328125,39.8125,-35.78125,4.15625
695,695,1727374621026,-0.9423828,0.057617188,0.16699219,45.28125,-38.96875,11.96875
696,696,1727374621066,-0.93066406,0.06542969,0.18652344,42.0,-35.0,7.875
697,697,1727374621106,-0.90234375,0.08984375,0.19628906,38.9375,-28.53125,4.15625
698,698,1727374621146,-0.8828125,0.08691406,0.19628906,37.65625,-18.21875,-0.875
699,699,1727374621186,-0.828125,0.09082031,0.20996094,29.4375,-0.5625,-9.28125
700,700,1727374621226,-0.82910156,0.08691406,0.22167969,17.59375,14.375,-15.875
701,701,1727374621266,-0.8828125,0.12402344,0.171875,15.1875,28.78125,-24.84375
702,702,1727374621306,-1.1142578,0.13183594,0.14746094,6.0,42.84375,-24.90625
703,703,1727374621346,-1.0039062,0.12988281,0.111328125,-7.875,30.9375,-15.625
704,704,1727374621386,-0.9941406,0.0859375,0.25195312,16.78125,15.5,-9.71875
705,705,1727374621426,-0.98046875,-0.06640625,0.15527344,25.21875,15.0,-16.90625
706,706,1727374621466,-0.95214844,-0.048828125,0.0234375,9.71875,17.375,-17.59375
707,707,1727374621506,-0.9902344,0.060546875,0.046875,13.5625,14.4375,-9.65625
708,708,1727374621546,-0.94628906,-0.0048828125,0.08886719,13.75,11.59375,-10.5
709,709,1727374621586,-1.0224609,-0.041992188,0.05859375,-5.0625,6.40625,-11.40625
710,710,1727374621626,-0.9902344,-0.034179688,0.06738281,-0.65625,8.28125,-11.84375
711,711,1727374621666,-0.95996094,0.00390625,0.056640625,-3.65625,7.90625,-11.0
712,712,1727374621706,-0.98535156,-0.08984375,0.053710938,-11.84375,7.125,-7.03125
713,713,1727374621746,-0.9892578,-0.14257812,0.07421875,-4.09375,8.34375,-7.46875
714,714,1727374621786,-0.9746094,-0.09667969,0.076171875,-7.0625,13.21875,-5.75
715,715,1727374621826,-0.9658203,0.013671875,0.028320312,-20.25,22.3125,-3.84375
716,716,1727374621866,-0.97265625,0.06640625,0.059570312,-31.84375,21.46875,-4.34375
717,717,1727374621906,-0.96777344,-0.09375,0.0107421875,-30.75,24.8125,-0.875
718,718,1727374621946,-1.0,-0.17675781,0.04296875,-14.65625,17.25,1.21875
719,719,1727374621986,-0.9824219,-0.03515625,0.048828125,-15.0,14.03125,-1.21875
720,720,1727374622026,-0.9746094,-0.10546875,0.005859375,-9.15625,11.9375,-0.9375
721,721,1727374622066,-0.9873047,-0.078125,0.02734375,-7.6875,12.125,-7.40625
722,722,1727374622106,-0.9628906,-0.05859375,-0.026367188,-3.40625,8.65625,-3.78125
723,723,1727374622146,-0.99121094,-0.087890625,-0.0029296875,0.125,8.59375,-2.875
724,724,1727374622186,-0.9550781,-0.052734375,-0.009765625,3.46875,11.15625,-8.90625
725,725,1727374622226,-0.9580078,-0.057617188,-0.049804688,-0.96875,11.34375,-2.8125
726,726,1727374622266,-0.9863281,-0.1015625,-0.043945312,3.53125,15.25,-1.34375
727,727,1727374622306,-0.9863281,-0.09667969,-0.032226562,-3.15625,17.9375,-5.5625
728,728,1727374622346,-0.9921875,-0.15722656,-0.0703125,-4.09375,10.34375,-0.5625
729,729,1727374622386,-0.97265625,-0.1640625,-0.08496094,0.5,7.78125,-1.09375
730,730,1727374622426,-0.94433594,-0.045898438,-0.09375,-3.21875,10.0,-3.3125
731,731,1727374622466,-0.9814453,-0.059570312,-0.06933594,-7.1875,6.4375,1.34375
732,732,1727374622506,-0.9814453,-0.083984375,-0.103515625,-10.375,3.53125,3.09375
733,733,1727374622546,-0.9814453,-0.08691406,-0.07519531,-2.75,-1.1875,4.3125
734,734,1727374622586,-0.9873047,-0.015625,-0.072265625,-13.0,-10.15625,6.15625
735,735,1727374622626,-0.99316406,0.00390625,-0.05859375,-6.84375,-22.125,11.34375
736,736,1727374622666,-1.0126953,-0.0068359375,-0.10449219,-0.59375,-26.625,16.03125
737,737,1727374622706,-1.015625,-0.051757812,-0.04296875,11.0625,-26.875,15.5
738,738,1727374622746,-1.0214844,-0.043945312,-0.068359375,1.65625,-14.3125,9.8125
739,739,1727374622786,-1.0419922,-0.025390625,-0.07519531,24.0625,-12.71875,6.71875
740,740,1727374622826,-1.1015625,0.015625,0.11230469,45.0,-49.875,6.71875
741,741,1727374622866,-0.9111328,0.028320312,0.15039062,52.5625,-57.5625,2.96875
742,742,1727374622906,-0.9345703,-0.001953125,-0.0068359375,42.59375,-44.8125,12.6875
743,743,1727374622946,-0.98339844,0.009765625,0.052734375,50.125,-35.71875,11.71875
744,744,1727374622986,-1.0068359,0.0146484375,0.14746094,55.96875,-36.46875,5.3125
745,745,1727374623026,-0.9814453,0.032226562,0.10449219,47.90625,-37.1875,2.125
746,746,1727374623066,-0.9482422,0.040039062,0.16699219,43.9375,-30.15625,1.21875
747,747,1727374623106,-0.8964844,0.08984375,0.13769531,43.65625,-29.375,5.84375
748,748,1727374623146,-0.9482422,0.036132812,0.17480469,40.78125,-25.40625,6.59375
749,749,1727374623186,-0.9091797,0.060546875,0.15332031,36.0,-17.28125,1.15625
750,750,1727374623226,-0.8847656,0.095703125,0.15722656,27.65625,-9.53125,-0.1875
751,751,1727374623266,-0.9111328,0.06640625,0.18164062,22.46875,-1.3125,-3.4375
752,752,1727374623306,-0.86328125,0.10546875,0.20410156,15.09375,7.125,-8.25
753,753,1727374623346,-0.83984375,0.07324219,0.171875,6.46875,20.625,-15.4375
754,754,1727374623386,-0.98535156,0.072265625,0.125,-0.96875,38.0,-20.46875
755,755,1727374623426,-1.1386719,0.12695312,0.12207031,-10.0625,32.6875,-9.21875
756,756,1727374623466,-0.98535156,0.06738281,0.19726562,15.3125,16.21875,-6.46875
757,757,1727374623506,-0.9482422,-0.025390625,0.19824219,14.34375,11.03125,-13.125
758,758,1727374623546,-0.9580078,-0.05078125,0.15234375,9.71875,10.53125,-15.6875
759,759,1727374623586,-1.0205078,0.016601562,0.09667969,11.40625,10.3125,-16.125
