,Unnamed: 0,timestamp,accel_x,accel_y,accel_z,gyro_x,gyro_y,gyro_z
0,0,1727974901373,-0.98828125,0.1171875,-0.040039062,8.28125,0.78125,2.0625
1,1,1727974901413,-0.9873047,0.14355469,-0.05859375,1.84375,2.25,5.59375
2,2,1727974901453,-0.9941406,0.09667969,-0.052734375,-1.3125,2.4375,5.65625
3,3,1727974901493,-1.0117188,0.11621094,-0.036132812,0.28125,2.3125,4.8125
4,4,1727974901533,-1.0048828,0.12109375,-0.02734375,2.34375,1.4375,4.8125
5,5,1727974901573,-0.9951172,0.111328125,-0.034179688,-1.0625,0.65625,3.09375
6,6,1727974901613,-1.0185547,0.107421875,-0.036132812,-0.71875,-0.625,2.59375
7,7,1727974901653,-0.98535156,0.09667969,0.005859375,2.96875,-0.5,4.1875
8,8,1727974901693,-1.0224609,0.09277344,-0.024414062,3.9375,-4.90625,2.4375
9,9,1727974901733,-1.0146484,0.09277344,0.0068359375,19.8125,-10.6875,-0.625
10,10,1727974901773,-0.98535156,0.03515625,0.01953125,28.65625,-20.15625,-7.46875
11,11,1727974901813,-1.0839844,0.024414062,0.024414062,29.15625,-32.0,-18.625
12,12,1727974901853,-1.1845703,-0.0087890625,0.15234375,40.375,-49.53125,-26.9375
13,13,1727974901893,-1.21875,0.030273438,-0.053710938,50.125,-99.5,-51.90625
14,14,1727974901933,-1.0087891,0.23632812,0.13476562,44.46875,-113.78125,-38.96875
15,15,1727974901973,-0.8535156,0.24707031,0.21777344,36.34375,-100.3125,-14.40625
16,16,1727974902013,-1.0810547,0.08203125,0.25585938,8.34375,-56.78125,2.5
17,17,1727974902053,-0.9863281,-0.015625,0.3251953,-12.25,-38.34375,-15.40625
18,18,1727974902093,-0.9589844,0.013671875,0.30859375,2.59375,-43.21875,-16.875
19,19,1727974902133,-0.9765625,0.06640625,0.43164062,15.71875,-62.8125,-12.71875
20,20,1727974902173,-0.89160156,-0.0146484375,0.37597656,3.5625,-63.3125,-4.34375
21,21,1727974902213,-0.95214844,-0.14550781,0.4345703,29.875,-63.25,-1.78125
22,22,1727974902253,-0.8105469,0.0234375,0.33984375,13.75,-53.125,-7.03125
23,23,1727974902293,-0.6386719,0.08984375,0.4140625,9.71875,-32.0,-6.5
24,24,1727974902333,-0.6660156,0.076171875,0.43554688,15.21875,-13.5625,4.75
25,25,1727974902373,-0.7207031,0.041015625,0.45703125,17.96875,-0.25,8.53125
26,26,1727974902413,-0.7783203,0.043945312,0.5234375,8.03125,14.75,5.90625
27,27,1727974902453,-0.8691406,0.1015625,0.5673828,-3.21875,22.125,4.9375
28,28,1727974902493,-1.0537109,-0.016601562,0.6435547,21.09375,23.34375,7.5625
29,29,1727974902533,-0.8730469,-0.11035156,0.3076172,-8.09375,-7.46875,-15.9375
30,30,1727974902573,-0.45410156,0.1875,0.28222656,-43.1875,65.09375,-21.75
31,31,1727974902613,-0.66503906,0.42773438,0.3076172,-14.875,92.28125,22.3125
32,32,1727974902653,-1.0585938,0.26171875,0.22558594,-23.03125,133.46875,47.34375
33,33,1727974902693,-1.5429688,-0.016601562,0.33203125,-53.25,133.59375,28.71875
34,34,1727974902733,-1.6777344,-0.5527344,0.7480469,-24.9375,32.28125,-10.5
35,35,1727974902773,-0.35742188,0.37402344,0.07714844,-54.34375,20.96875,-1.3125
36,36,1727974902813,-1.0087891,-0.11230469,0.1953125,27.0,50.40625,34.03125
37,37,1727974902853,-1.2441406,-0.07519531,-0.140625,20.65625,54.0625,-9.78125
38,38,1727974902893,-0.7792969,0.41992188,0.11035156,-55.21875,46.5625,-10.40625
39,39,1727974902933,-1.4306641,-0.09375,-0.061523438,23.28125,16.9375,31.0
40,40,1727974902973,-0.921875,0.13574219,0.02734375,-46.84375,31.34375,-4.09375
41,41,1727974903013,-0.9433594,0.12792969,-0.055664062,-32.8125,38.625,6.875
42,42,1727974903053,-0.9824219,0.1796875,-0.016601562,-42.875,28.78125,-1.59375
43,43,1727974903093,-1.0703125,0.0126953125,-0.033203125,-73.09375,22.625,-8.4375
44,44,1727974903133,-1.0048828,-0.07421875,-0.12011719,-34.15625,25.1875,-3.125
45,45,1727974903173,-1.0537109,-0.095703125,0.06347656,-18.21875,28.96875,-9.0625
46,46,1727974903213,-1.0341797,-0.10644531,-0.0068359375,-8.34375,15.25,-2.59375
47,47,1727974903253,-1.0029297,-0.0068359375,0.005859375,-7.40625,9.8125,-3.0
48,48,1727974903293,-1.0126953,-0.034179688,-0.11621094,-7.78125,7.4375,4.5
49,49,1727974903333,-0.9746094,0.046875,-0.038085938,-0.28125,10.65625,4.3125
50,50,1727974903373,-1.0029297,0.04296875,-0.08203125,-7.53125,10.59375,-1.25
51,51,1727974903413,-1.0175781,0.060546875,-0.140625,-4.84375,6.75,2.5
52,52,1727974903453,-0.99316406,0.07910156,-0.07519531,-10.71875,8.21875,5.53125
53,53,1727974903493,-1.0166016,0.072265625,-0.083984375,-15.09375,4.5,7.625
54,54,1727974903533,-1.0097656,0.041992188,-0.107421875,-19.9375,-1.59375,10.40625
55,55,1727974903573,-0.96972656,0.022460938,-0.111328125,-7.46875,-2.8125,14.375
56,56,1727974903613,-0.9765625,0.10253906,-0.13378906,-6.3125,4.5625,15.90625
57,57,1727974903653,-0.96777344,0.078125,-0.08691406,0.8125,7.3125,20.90625
58,58,1727974903693,-1.0097656,0.021484375,-0.15039062,7.96875,12.0625,21.09375
59,59,1727974903733,-1.0849609,-0.01953125,-0.09082031,30.375,2.65625,19.03125
60,60,1727974903773,-1.1787109,0.021484375,-0.0234375,28.78125,-12.84375,7.5
61,61,1727974903813,-1.0644531,0.111328125,-0.0126953125,15.59375,-17.40625,0.90625
62,62,1727974903853,-0.8955078,0.15429688,-0.001953125,42.875,-33.71875,0.34375
63,63,1727974903893,-1.1142578,0.328125,0.18945312,55.03125,-101.40625,-34.3125
64,64,1727974903933,-1.0683594,0.25976562,-0.22460938,33.34375,-141.1875,-23.03125
65,65,1727974903973,-1.515625,-0.35351562,-0.029296875,68.5,-100.71875,-24.96875
66,66,1727974904013,-0.91308594,0.43359375,0.053710938,38.40625,-52.4375,-20.28125
67,67,1727974904053,-0.86035156,0.07324219,0.07421875,-10.03125,-32.3125,-13.25
68,68,1727974904093,-1.0517578,0.00390625,0.18945312,9.65625,-35.25,-26.3125
69,69,1727974904133,-0.8779297,0.20507812,0.16113281,63.4375,-48.53125,-28.8125
70,70,1727974904173,-0.8964844,0.13476562,0.15039062,10.40625,-34.8125,-9.84375
71,71,1727974904213,-0.9501953,0.056640625,0.38085938,-21.9375,-42.5625,8.78125
72,72,1727974904253,-0.9511719,0.022460938,0.421875,8.09375,-38.09375,9.4375
73,73,1727974904293,-0.9277344,-0.021484375,0.3017578,16.6875,-42.4375,4.375
74,74,1727974904333,-0.9433594,-0.056640625,0.37402344,-3.4375,-28.8125,-11.4375
75,75,1727974904373,-0.85058594,0.0009765625,0.41015625,3.8125,-30.90625,-10.625
76,76,1727974904413,-0.79785156,0.13085938,0.3232422,10.96875,-15.71875,-2.21875
77,77,1727974904453,-0.85546875,0.1953125,0.25097656,11.25,9.5625,3.09375
78,78,1727974904493,-0.84472656,0.11230469,0.32128906,-5.84375,20.96875,4.75
79,79,1727974904533,-0.9013672,0.06738281,0.3154297,-4.84375,35.03125,2.96875
80,80,1727974904573,-0.9423828,0.051757812,0.3388672,-0.9375,39.09375,0.15625
81,81,1727974904613,-0.9941406,-0.001953125,0.4248047,-10.71875,35.03125,-1.53125
82,82,1727974904653,-0.9199219,0.038085938,0.2763672,-21.15625,31.96875,-3.0625
83,83,1727974904693,-0.828125,0.037109375,0.21875,-20.59375,42.21875,-1.90625
84,84,1727974904733,-0.8955078,0.0625,0.14453125,-12.53125,90.75,12.875
85,85,1727974904773,-1.1806641,0.072265625,0.18457031,-23.90625,104.15625,18.84375
86,86,1727974904813,-1.2871094,0.051757812,0.3935547,-22.125,51.9375,-4.53125
87,87,1727974904853,-0.78222656,0.21777344,0.12890625,-22.6875,12.75,2.4375
88,88,1727974904893,-0.9267578,-0.0009765625,-0.1484375,-12.71875,44.40625,11.03125
89,89,1727974904933,-0.9091797,-0.033203125,0.0087890625,-11.625,42.28125,1.5
90,90,1727974904973,-1.0917969,0.18359375,-0.028320312,-30.25,30.75,0.71875
91,91,1727974905013,-0.93652344,0.19628906,-0.01953125,-9.75,16.34375,21.59375
92,92,1727974905053,-1.2548828,-0.048828125,-0.17480469,0.40625,13.71875,17.25
93,93,1727974905093,-1.0712891,0.13378906,0.037109375,-44.21875,24.40625,-18.03125
94,94,1727974905133,-0.92089844,0.04296875,-0.16503906,-48.5,10.3125,-12.96875
95,95,1727974905173,-1.0078125,-0.045898438,-0.19726562,-4.625,5.53125,-0.6875
96,96,1727974905213,-1.0185547,0.0625,-0.12109375,-6.5,21.28125,-0.875
97,97,1727974905253,-0.9707031,0.046875,-0.08105469,14.25,16.40625,-3.4375
98,98,1727974905293,-1.0224609,0.119140625,0.047851562,11.375,7.125,-10.46875
99,99,1727974905333,-1.0048828,0.017578125,0.0078125,1.84375,-4.40625,-7.46875
100,100,1727974905373,-1.0429688,0.0126953125,-0.0087890625,-6.25,1.03125,-5.5
101,101,1727974905413,-1.0078125,-0.0126953125,-0.09472656,4.1875,3.59375,2.84375
102,102,1727974905453,-0.99902344,0.01953125,-0.08496094,5.15625,4.4375,-0.125
103,103,1727974905493,-0.9824219,0.13183594,-0.07324219,-9.8125,8.84375,-2.53125
104,104,1727974905533,-0.95410156,0.043945312,-0.08105469,-17.125,9.375,5.0
105,105,1727974905573,-1.0087891,-0.052734375,-0.07324219,-15.21875,10.1875,9.875
106,106,1727974905613,-0.9814453,-0.060546875,-0.06347656,-10.34375,13.96875,15.71875
107,107,1727974905653,-1.0126953,-0.0146484375,-0.022460938,-7.46875,19.28125,15.4375
108,108,1727974905693,-0.9980469,0.07519531,-0.06542969,-13.875,15.5,14.875
109,109,1727974905733,-1.0244141,-0.025390625,-0.048828125,-20.0625,11.34375,18.71875
110,110,1727974905773,-1.0722656,0.022460938,-0.14746094,-13.28125,16.875,20.4375
111,111,1727974905813,-1.0087891,0.041992188,-0.15332031,13.40625,13.09375,19.6875
112,112,1727974905853,-1.1962891,-0.08984375,-0.16699219,19.5,-0.625,12.4375
113,113,1727974905893,-1.0195312,0.27441406,-0.08203125,15.53125,-15.46875,-1.53125
114,114,1727974905933,-1.0410156,0.25097656,0.095703125,11.6875,-17.71875,0.46875
115,115,1727974905973,-1.0791016,0.026367188,0.078125,20.84375,-70.6875,-18.03125
116,116,1727974906013,-1.0800781,0.060546875,-0.33496094,33.59375,-97.4375,-45.125
117,117,1727974906053,-1.1806641,0.2421875,0.043945312,59.96875,-68.25,-15.59375
118,118,1727974906093,-0.93847656,0.3046875,-0.10449219,14.5625,-48.65625,4.625
119,119,1727974906133,-0.9873047,-0.05078125,-0.030273438,-25.4375,-35.46875,-8.875
120,120,1727974906173,-1.109375,-0.005859375,0.0390625,36.28125,-55.125,-23.21875
121,121,1727974906213,-1.0585938,0.07519531,0.15527344,53.625,-73.6875,-14.96875
122,122,1727974906253,-0.95410156,0.18359375,0.030273438,1.90625,-87.84375,-7.59375
123,123,1727974906293,-0.9560547,0.10644531,0.28027344,-10.28125,-68.6875,-6.71875
124,124,1727974906333,-0.921875,0.0,0.19433594,10.96875,-62.28125,-6.4375
125,125,1727974906373,-0.859375,0.0146484375,0.19824219,28.71875,-58.1875,-3.8125
126,126,1727974906413,-0.8173828,0.111328125,0.3095703,21.375,-49.6875,0.03125
127,127,1727974906453,-0.8154297,0.056640625,0.37304688,14.4375,-42.375,5.53125
128,128,1727974906493,-0.8339844,0.08105469,0.3642578,9.96875,-23.8125,4.5
129,129,1727974906533,-0.8388672,0.12011719,0.3876953,1.75,1.09375,2.96875
130,130,1727974906573,-0.8076172,0.07128906,0.3671875,0.53125,11.21875,6.625
131,131,1727974906613,-0.9082031,0.07910156,0.40722656,-1.8125,20.5,8.53125
132,132,1727974906653,-0.9707031,0.12011719,0.42773438,-3.28125,24.9375,0.09375
133,133,1727974906693,-0.98828125,0.08496094,0.4091797,-4.78125,17.5625,-11.96875
134,134,1727974906733,-0.8330078,0.0048828125,0.375,-31.40625,19.34375,-25.90625
135,135,1727974906773,-0.7050781,0.20996094,0.20117188,-11.875,54.71875,5.28125
136,136,1727974906813,-0.81152344,0.16210938,0.22167969,-9.6875,83.40625,22.75
137,137,1727974906853,-1.1425781,0.22167969,0.29296875,-29.6875,108.8125,22.0625
138,138,1727974906893,-1.3701172,-0.07421875,0.3330078,-28.96875,56.625,5.53125
139,139,1727974906933,-1.2197266,0.016601562,0.75097656,-17.125,8.46875,-18.6875
140,140,1727974906973,-0.6171875,0.14355469,0.033203125,-49.21875,14.75,-1.125
141,141,1727974907013,-1.1445312,-0.10839844,0.11621094,17.1875,31.65625,12.0625
142,142,1727974907053,-1.0478516,-0.015625,0.0009765625,-11.8125,32.15625,-9.90625
143,143,1727974907093,-0.9746094,0.14550781,0.06347656,-46.78125,43.75,-12.15625
144,144,1727974907133,-0.9785156,0.21386719,0.005859375,-23.53125,27.9375,15.1875
145,145,1727974907173,-1.0722656,-0.13085938,-0.20214844,-37.625,43.5625,14.75
146,146,1727974907213,-1.0048828,0.06640625,0.05078125,-41.46875,25.96875,1.21875
147,147,1727974907253,-1.0673828,0.13085938,0.021484375,-34.9375,24.46875,13.90625
148,148,1727974907293,-1.0439453,-0.09863281,-0.15039062,-41.28125,24.75,7.71875
149,149,1727974907333,-0.96972656,-0.0859375,-0.15039062,-22.1875,19.6875,-0.9375
150,150,1727974907373,-1.0185547,0.119140625,-0.12695312,-12.71875,24.46875,-2.46875
151,151,1727974907413,-1.015625,0.048828125,-0.1328125,7.28125,11.6875,0.96875
152,152,1727974907453,-0.89941406,0.0146484375,-0.03515625,19.6875,10.25,-13.375
153,153,1727974907493,-1.0595703,0.055664062,-0.001953125,22.4375,4.6875,-19.625
154,154,1727974907533,-1.0556641,0.22851562,0.03125,0.09375,-4.40625,-14.375
155,155,1727974907573,-1.0185547,0.029296875,-0.068359375,-4.5625,-1.78125,4.25
156,156,1727974907613,-0.97265625,-0.029296875,-0.11816406,0.9375,9.375,0.65625
157,157,1727974907653,-0.9794922,0.055664062,-0.07519531,-0.59375,13.28125,-2.03125
158,158,1727974907693,-1.0253906,0.06347656,-0.0625,-11.4375,8.03125,3.875
159,159,1727974907733,-1.0117188,-0.016601562,-0.087890625,-16.5625,10.53125,5.28125
160,160,1727974907773,-1.0117188,0.0068359375,-0.09863281,-21.34375,12.625,10.125
161,161,1727974907813,-0.96972656,0.0234375,-0.09277344,-18.28125,11.59375,11.9375
162,162,1727974907853,-0.98339844,0.028320312,-0.10058594,-20.1875,10.25,11.34375
163,163,1727974907893,-1.0302734,0.044921875,-0.07324219,-24.6875,5.84375,12.6875
164,164,1727974907933,-1.0009766,-0.001953125,-0.11425781,-17.78125,1.4375,17.6875
165,165,1727974907973,-1.0371094,0.029296875,-0.15527344,-2.78125,6.625,19.4375
166,166,1727974908013,-1.0566406,-0.04296875,-0.23730469,27.3125,11.46875,18.71875
167,167,1727974908053,-1.0507812,0.091796875,-0.14550781,31.03125,2.96875,10.34375
168,168,1727974908093,-0.9785156,0.20800781,-0.060546875,31.53125,-14.53125,3.78125
169,169,1727974908133,-0.95214844,0.015625,0.15625,12.96875,-29.0,-0.9375
170,170,1727974908173,-1.1337891,-0.07519531,-0.09375,48.5625,-46.46875,-25.65625
171,171,1727974908213,-1.1298828,0.115234375,0.051757812,53.0625,-92.0625,-32.78125
172,172,1727974908253,-1.0908203,0.08886719,0.07714844,28.71875,-94.1875,-26.9375
173,173,1727974908293,-1.1142578,0.12695312,-0.12792969,65.21875,-110.0,-26.875
174,174,1727974908333,-1.0244141,0.12207031,0.07714844,70.21875,-83.15625,-21.25
175,175,1727974908373,-0.9892578,0.18652344,0.18359375,46.15625,-69.46875,-2.8125
176,176,1727974908413,-0.9580078,0.20117188,0.10449219,18.8125,-58.0625,-5.375
177,177,1727974908453,-0.9433594,0.12792969,0.16699219,11.8125,-55.6875,-13.4375
178,178,1727974908493,-0.8955078,0.06347656,0.23242188,16.09375,-56.40625,-7.21875
179,179,1727974908533,-0.8828125,0.032226562,0.26367188,10.53125,-56.21875,7.90625
180,180,1727974908573,-0.8251953,0.06738281,0.41210938,-11.75,-40.65625,10.71875
181,181,1727974908613,-0.78222656,-0.06640625,0.42871094,-3.03125,-25.59375,17.0625
182,182,1727974908653,-0.921875,0.022460938,0.43847656,1.96875,-7.59375,10.78125
183,183,1727974908693,-0.9707031,0.060546875,0.484375,-2.59375,-1.96875,1.3125
184,184,1727974908733,-0.9267578,0.029296875,0.5078125,-0.75,-15.9375,1.09375
185,185,1727974908773,-0.8408203,0.08496094,0.44628906,8.09375,-8.8125,-3.625
186,186,1727974908813,-0.86328125,0.15234375,0.3828125,13.5625,-5.5625,-3.5
187,187,1727974908853,-0.8408203,0.17871094,0.37109375,8.15625,2.1875,1.625
188,188,1727974908893,-0.8769531,0.099609375,0.47753906,6.8125,15.1875,-1.375
189,189,1727974908933,-0.85058594,0.0390625,0.43945312,-8.875,18.59375,-4.90625
190,190,1727974908973,-0.7714844,-0.00390625,0.31347656,-29.21875,40.5,-14.53125
191,191,1727974909013,-0.76171875,0.045898438,0.3876953,-33.40625,62.59375,-0.03125
192,192,1727974909053,-0.69433594,0.39746094,-0.041015625,-32.0,102.78125,27.375
193,193,1727974909093,-1.3193359,0.10058594,0.23242188,-25.3125,159.71875,39.21875
194,194,1727974909133,-1.7851562,-0.48828125,0.6689453,-31.65625,77.1875,-15.34375
195,195,1727974909173,-0.578125,0.43554688,0.0068359375,-85.0625,28.1875,-16.1875
196,196,1727974909213,-0.82128906,0.0009765625,-0.0009765625,69.125,38.3125,34.84375
197,197,1727974909253,-1.1542969,-0.06347656,-0.17285156,-9.0,45.5,21.59375
198,198,1727974909293,-1.0664062,0.15820312,0.095703125,-20.40625,22.75,-2.8125
199,199,1727974909333,-1.0576172,0.06640625,0.001953125,4.4375,14.21875,11.09375
200,200,1727974909373,-1.0722656,0.0146484375,-0.1015625,-12.84375,11.875,-2.46875
201,201,1727974909413,-1.0019531,0.043945312,-0.020507812,-16.5,13.21875,-9.71875
202,202,1727974909453,-0.98339844,0.049804688,-0.07714844,-8.9375,14.75,-5.75
203,203,1727974909493,-1.0390625,0.0068359375,-0.057617188,-2.59375,9.3125,-3.375
204,204,1727974909533,-1.0322266,0.06933594,-0.0390625,-6.25,14.25,-5.09375
205,205,1727974909573,-1.0019531,0.07324219,-0.046875,-4.25,12.125,-3.6875
206,206,1727974909613,-1.015625,0.0068359375,-0.021484375,1.125,7.0625,-4.21875
207,207,1727974909653,-1.0302734,0.033203125,-0.009765625,-5.46875,5.53125,-6.65625
208,208,1727974909693,-1.0087891,-0.020507812,-0.036132812,-5.65625,4.8125,-2.6875
209,209,1727974909733,-1.0117188,-0.028320312,-0.028320312,-5.71875,6.34375,-3.8125
210,210,1727974909773,-1.0019531,0.016601562,-0.034179688,-6.0,6.15625,-0.5625
211,211,1727974909813,-0.96875,-0.0009765625,-0.06347656,-3.8125,7.6875,3.40625
212,212,1727974909853,-0.99316406,0.028320312,-0.02734375,-2.15625,10.125,5.28125
213,213,1727974909893,-0.9794922,0.047851562,-0.048828125,-7.90625,9.3125,8.53125
214,214,1727974909933,-1.0068359,0.021484375,-0.083984375,-9.4375,9.375,11.21875
215,215,1727974909973,-1.015625,0.043945312,-0.099609375,-8.03125,11.28125,13.34375
216,216,1727974910013,-1.0195312,0.029296875,-0.07421875,-7.0625,12.375,14.09375
217,217,1727974910053,-1.0078125,0.0029296875,-0.08886719,-10.15625,11.875,13.46875
218,218,1727974910093,-0.96777344,0.095703125,-0.052734375,-11.875,12.125,12.0
219,219,1727974910133,-1.0048828,0.059570312,-0.0546875,-13.78125,13.71875,15.5
220,220,1727974910173,-1.0771484,0.0048828125,-0.119140625,-5.46875,11.625,17.0625
221,221,1727974910213,-1.1591797,-0.0546875,-0.25390625,11.875,-2.53125,13.71875
222,222,1727974910253,-1.0195312,0.2705078,-0.08300781,28.53125,-12.84375,2.0
223,223,1727974910293,-0.9482422,0.28515625,0.028320312,-10.15625,-17.90625,7.96875
224,224,1727974910333,-0.95996094,0.026367188,-0.03125,11.5625,-36.8125,-5.21875
225,225,1727974910373,-1.0888672,0.09667969,-0.07128906,41.90625,-68.8125,-42.5
226,226,1727974910413,-1.125,0.22753906,-0.13085938,50.25,-92.90625,-39.15625
227,227,1727974910453,-1.1181641,0.28320312,0.07910156,33.71875,-77.09375,-18.375
228,228,1727974910493,-1.0175781,0.11425781,0.021484375,5.65625,-72.03125,-5.5
229,229,1727974910533,-1.0068359,0.0,0.06933594,14.4375,-68.8125,-8.4375
230,230,1727974910573,-1.0371094,0.095703125,0.13671875,17.59375,-71.1875,-13.75
231,231,1727974910613,-0.94921875,0.13964844,0.18945312,15.96875,-70.09375,-15.875
232,232,1727974910653,-0.9501953,0.032226562,0.22753906,10.78125,-68.9375,-3.6875
233,233,1727974910693,-0.98828125,0.059570312,0.29101562,7.84375,-60.375,-3.8125
234,234,1727974910733,-0.8935547,0.072265625,0.36914062,9.25,-49.75,-8.1875
235,235,1727974910773,-0.83691406,0.03515625,0.3154297,7.90625,-41.03125,-8.1875
236,236,1727974910813,-0.8623047,0.051757812,0.36621094,7.96875,-28.9375,-4.71875
237,237,1727974910853,-0.81933594,0.07519531,0.44140625,12.40625,-16.9375,0.28125
238,238,1727974910893,-0.78027344,0.05078125,0.4267578,16.09375,-5.8125,2.3125
239,239,1727974910933,-0.8642578,0.07519531,0.4501953,14.0625,8.96875,0.96875
240,240,1727974910973,-0.79296875,0.083984375,0.4345703,9.4375,11.34375,-2.28125
241,241,1727974911013,-0.85839844,0.09277344,0.453125,2.28125,20.1875,-3.5
242,242,1727974911053,-0.9658203,0.07128906,0.4326172,9.1875,-3.25,-12.28125
243,243,1727974911093,-0.6464844,0.041992188,0.44921875,-19.875,26.53125,-14.375
244,244,1727974911133,-0.60253906,0.024414062,0.20214844,-13.34375,65.65625,4.5
245,245,1727974911173,-0.85253906,0.43847656,0.12011719,-24.3125,117.71875,21.28125
246,246,1727974911213,-1.9443359,-0.28710938,0.57714844,-10.90625,121.8125,30.0625
247,247,1727974911253,-0.9345703,-0.13574219,0.2998047,-66.875,4.375,-53.375
248,248,1727974911293,-0.5078125,0.37304688,0.19726562,48.0625,19.4375,14.6875
249,249,1727974911333,-1.0458984,-0.06347656,-0.01953125,4.65625,29.34375,23.3125
250,250,1727974911373,-1.1904297,-0.17480469,-0.05078125,6.8125,55.28125,4.25
251,251,1727974911413,-0.98828125,0.16210938,0.11425781,-30.84375,22.625,-10.625
252,252,1727974911453,-0.94140625,0.044921875,-0.041015625,3.9375,18.28125,0.46875
253,253,1727974911493,-1.0585938,0.0859375,-0.0625,-21.09375,30.3125,3.40625
254,254,1727974911533,-1.0917969,-0.028320312,0.03515625,-19.125,24.09375,7.96875
255,255,1727974911573,-0.96875,0.045898438,0.0009765625,-28.90625,33.3125,8.28125
256,256,1727974911613,-1.0283203,-0.024414062,-0.045898438,-23.21875,18.0,1.6875
257,257,1727974911653,-0.9951172,0.0087890625,0.001953125,-12.71875,10.46875,-6.65625
258,258,1727974911693,-1.0449219,0.07519531,-0.041992188,-18.96875,16.65625,-5.21875
259,259,1727974911733,-1.015625,0.020507812,0.026367188,-4.0625,12.5,-1.71875
260,260,1727974911773,-0.9902344,0.0068359375,0.043945312,7.96875,4.875,-8.25
261,261,1727974911813,-0.9824219,0.068359375,0.0009765625,1.625,4.6875,-7.40625
262,262,1727974911853,-1.0058594,-0.030273438,-0.053710938,0.53125,5.53125,0.21875
263,263,1727974911893,-0.9921875,-0.01953125,-0.0078125,11.875,6.40625,-2.21875
264,264,1727974911933,-1.0029297,0.038085938,0.0009765625,-1.3125,6.75,-1.46875
265,265,1727974911973,-1.0019531,0.0078125,-0.013671875,-7.25,7.625,2.59375
266,266,1727974912013,-0.9941406,-0.024414062,-0.055664062,-12.25,9.8125,7.375
267,267,1727974912053,-1.0009766,-0.0009765625,-0.059570312,-11.5,12.0625,10.78125
268,268,1727974912093,-0.97558594,0.013671875,-0.060546875,-8.28125,12.9375,13.09375
269,269,1727974912133,-1.0253906,0.078125,-0.060546875,-9.0,8.59375,15.4375
270,270,1727974912173,-0.9863281,0.05078125,-0.046875,-6.0,7.0625,17.625
271,271,1727974912213,-0.9824219,0.0,-0.056640625,-8.03125,12.3125,16.09375
272,272,1727974912253,-1.0185547,-0.0126953125,-0.049804688,-5.28125,7.90625,16.84375
273,273,1727974912293,-1.0673828,-0.043945312,-0.14355469,2.78125,10.90625,17.375
274,274,1727974912333,-1.0429688,0.053710938,-0.107421875,17.71875,5.59375,17.5625
275,275,1727974912373,-1.0429688,0.1953125,-0.07519531,3.875,-1.1875,10.96875
276,276,1727974912413,-1.0244141,0.20019531,0.07421875,-11.6875,-4.21875,8.15625
277,277,1727974912453,-1.0830078,0.044921875,0.005859375,2.40625,-13.9375,6.875
278,278,1727974912493,-1.1210938,0.17480469,-0.0107421875,12.78125,-31.9375,-8.3125
279,279,1727974912533,-1.0537109,0.12207031,0.0234375,35.84375,-63.75,-23.5625
280,280,1727974912573,-1.0449219,0.24902344,-0.02734375,43.375,-87.34375,-32.625
281,281,1727974912613,-1.0908203,0.24023438,0.06933594,26.21875,-72.65625,-18.03125
282,282,1727974912653,-0.94433594,0.09472656,-0.01171875,12.90625,-59.09375,-3.75
283,283,1727974912693,-0.9658203,0.068359375,0.07128906,4.125,-52.09375,-11.75
284,284,1727974912733,-0.97753906,0.15332031,0.14746094,15.96875,-47.625,-11.125
285,285,1727974912773,-0.9550781,0.07421875,0.15429688,33.34375,-50.375,-13.25
286,286,1727974912813,-1.0253906,0.068359375,0.27539062,5.03125,-55.375,-20.09375
287,287,1727974912853,-0.95214844,0.11621094,0.22851562,-8.09375,-59.65625,-15.59375
288,288,1727974912893,-0.92578125,0.026367188,0.2685547,10.78125,-62.03125,-1.0625
289,289,1727974912933,-0.8515625,0.0,0.34375,24.3125,-53.3125,-1.59375
290,290,1727974912973,-0.8466797,0.015625,0.40722656,20.90625,-39.15625,-1.46875
291,291,1727974913013,-0.85253906,0.12792969,0.3642578,13.46875,-27.78125,-5.5625
292,292,1727974913053,-0.8408203,0.115234375,0.38964844,15.28125,-12.28125,-5.5625
293,293,1727974913093,-0.8203125,0.12988281,0.3779297,6.0625,2.3125,0.21875
294,294,1727974913133,-0.83691406,0.12695312,0.3720703,7.59375,15.25,5.15625
295,295,1727974913173,-0.8623047,0.103515625,0.36328125,-0.9375,21.90625,6.09375
296,296,1727974913213,-0.90625,0.060546875,0.41601562,-9.8125,32.75,3.59375
297,297,1727974913253,-0.9394531,0.01171875,0.31445312,-11.6875,31.78125,-3.9375
298,298,1727974913293,-0.83691406,0.078125,0.3466797,-16.9375,45.5,-4.84375
299,299,1727974913333,-0.94628906,0.076171875,0.33398438,-7.84375,63.53125,10.1875
300,300,1727974913373,-1.0058594,0.060546875,0.29492188,-3.625,71.09375,13.03125
301,301,1727974913413,-1.1894531,0.07128906,0.390625,-9.0625,61.03125,8.84375
302,302,1727974913453,-1.0361328,0.043945312,0.3564453,4.4375,15.84375,-1.65625
303,303,1727974913493,-0.89746094,0.047851562,0.26171875,15.59375,9.3125,2.65625
304,304,1727974913533,-0.95214844,0.059570312,0.15527344,22.5,18.40625,-1.96875
305,305,1727974913573,-0.99316406,0.13671875,0.20410156,18.9375,13.03125,-3.25
306,306,1727974913613,-0.9589844,0.10253906,0.059570312,-37.25,30.625,-1.59375
307,307,1727974913653,-1.0791016,0.080078125,0.1328125,-9.5625,35.4375,7.375
308,308,1727974913693,-1.0332031,0.0009765625,-0.055664062,-10.78125,28.1875,2.96875
309,309,1727974913733,-1.0087891,0.07324219,-0.051757812,-11.625,22.5625,-5.75
310,310,1727974913773,-0.96875,0.12890625,0.044921875,-4.625,24.9375,5.59375
311,311,1727974913813,-1.1210938,0.09082031,-0.02734375,9.96875,21.40625,13.09375
312,312,1727974913853,-1.015625,-0.044921875,0.0068359375,-21.53125,33.84375,-6.1875
313,313,1727974913893,-1.0527344,-0.08691406,0.00390625,-14.0,14.25,-15.28125
314,314,1727974913933,-0.99121094,0.064453125,0.033203125,13.625,-1.0625,-11.3125
315,315,1727974913973,-1.0175781,0.087890625,-0.036132812,-0.71875,2.0,-12.78125
316,316,1727974914013,-1.0078125,0.12207031,-0.0126953125,-6.25,-0.03125,-7.71875
317,317,1727974914053,-0.9941406,0.064453125,-0.033203125,3.1875,2.96875,-0.75
318,318,1727974914093,-1.0175781,0.055664062,0.04296875,4.375,6.09375,-0.09375
319,319,1727974914133,-1.0009766,0.01171875,0.032226562,1.3125,9.6875,1.6875
320,320,1727974914173,-1.0039062,0.0,0.030273438,-3.875,14.09375,1.21875
321,321,1727974914213,-0.9824219,-0.009765625,0.02734375,-9.90625,11.8125,2.90625
322,322,1727974914253,-0.9892578,-0.0048828125,0.017578125,-9.5625,13.09375,8.21875
323,323,1727974914293,-0.97753906,0.0126953125,0.0009765625,-11.9375,12.0,11.625
324,324,1727974914333,-1.0244141,-0.06933594,-0.032226562,-4.71875,13.40625,15.0
325,325,1727974914373,-1.0136719,0.029296875,-0.020507812,-9.5625,17.9375,15.25
326,326,1727974914413,-0.97753906,0.041992188,-0.0068359375,-15.53125,16.03125,19.09375
327,327,1727974914453,-0.98046875,0.036132812,-0.0029296875,-18.84375,20.1875,21.09375
328,328,1727974914493,-1.125,-0.0390625,-0.14355469,-20.0,16.40625,20.4375
329,329,1727974914533,-1.0458984,0.12109375,-0.13085938,-5.71875,4.8125,4.4375
330,330,1727974914573,-0.95410156,0.30664062,-0.18945312,2.84375,-0.375,3.03125
331,331,1727974914613,-1.0185547,0.24707031,-0.017578125,-32.625,-1.59375,11.15625
332,332,1727974914653,-1.1103516,0.015625,0.026367188,-16.15625,-10.6875,10.96875
333,333,1727974914693,-1.0791016,0.21289062,0.07324219,2.03125,-23.6875,-7.59375
334,334,1727974914733,-1.0966797,0.0029296875,0.15234375,20.40625,-53.1875,-17.03125
335,335,1727974914773,-1.0722656,0.13769531,-0.09765625,24.6875,-103.96875,-38.59375
336,336,1727974914813,-1.0917969,0.26367188,0.0,34.28125,-82.34375,-27.96875
337,337,1727974914853,-1.0371094,0.080078125,0.05859375,39.75,-66.375,-21.1875
338,338,1727974914893,-1.03125,0.115234375,0.07128906,45.5,-68.5,-30.34375
339,339,1727974914933,-1.0566406,0.14648438,0.17382812,32.9375,-73.8125,-19.0625
340,340,1727974914973,-1.0253906,0.115234375,0.28125,-0.46875,-81.9375,-31.28125
341,341,1727974915013,-0.9121094,0.083984375,0.26660156,-3.75,-84.25,-24.96875
342,342,1727974915053,-0.81640625,-0.046875,0.21875,35.6875,-75.40625,-7.34375
343,343,1727974915093,-0.8183594,-0.038085938,0.34472656,31.71875,-48.90625,-1.90625
344,344,1727974915133,-0.8486328,0.0126953125,0.41601562,23.59375,-39.25,0.53125
345,345,1727974915173,-0.78808594,0.0625,0.42871094,18.65625,-24.96875,-5.15625
346,346,1727974915213,-0.8066406,0.07128906,0.40625,16.625,-1.96875,-9.84375
347,347,1727974915253,-0.8251953,0.076171875,0.41308594,11.3125,7.625,-2.75
348,348,1727974915293,-0.8613281,0.07519531,0.45703125,10.65625,14.09375,-0.375
349,349,1727974915333,-0.84765625,0.119140625,0.4404297,2.96875,19.5,-1.40625
350,350,1727974915373,-0.8964844,0.111328125,0.4375,1.375,23.3125,-0.5
351,351,1727974915413,-0.8847656,0.0546875,0.44628906,0.21875,27.3125,-0.625
352,352,1727974915453,-0.87109375,0.0029296875,0.4580078,-17.3125,33.96875,-5.03125
353,353,1727974915493,-0.78027344,0.09667969,0.2783203,-27.8125,48.03125,-3.8125
354,354,1727974915533,-0.71777344,0.24902344,0.15429688,-22.625,87.4375,16.34375
355,355,1727974915573,-1.5039062,0.12792969,0.28808594,-37.21875,125.40625,32.15625
356,356,1727974915613,-1.4179688,-0.2734375,0.43652344,-25.1875,52.46875,-7.71875
357,357,1727974915653,-0.8154297,0.09277344,0.13769531,-26.46875,-8.3125,-12.15625
358,358,1727974915693,-0.70410156,0.26953125,0.11816406,42.3125,32.40625,31.125
359,359,1727974915733,-1.1572266,-0.2626953,0.03515625,-12.53125,35.4375,13.53125
360,360,1727974915773,-1.0546875,0.078125,-0.025390625,2.84375,37.8125,-10.625
361,361,1727974915813,-0.93359375,0.3466797,0.21582031,-45.25,22.875,-9.46875
362,362,1727974915853,-1.0761719,-0.10546875,-0.08105469,-22.1875,23.40625,12.875
363,363,1727974915893,-1.0068359,-0.026367188,-0.028320312,-31.15625,25.0,-2.15625
364,364,1727974915933,-1.0644531,0.032226562,-0.0126953125,-8.8125,22.25,9.9375
365,365,1727974915973,-0.9814453,0.12890625,-0.013671875,-22.625,22.875,11.875
366,366,1727974916013,-1.0390625,-0.048828125,-0.13183594,-39.65625,23.125,4.4375
367,367,1727974916053,-0.9794922,-0.048828125,-0.06738281,-23.96875,18.96875,-0.625
368,368,1727974916093,-1.0126953,0.0234375,-0.06347656,-10.09375,18.28125,-3.6875
369,369,1727974916133,-1.0488281,0.08203125,0.034179688,-8.6875,10.0625,-1.53125
370,370,1727974916173,-1.0078125,0.04296875,-0.0107421875,-11.25,7.96875,-3.6875
371,371,1727974916213,-1.0126953,-0.024414062,-0.044921875,-9.0,8.90625,-4.71875
372,372,1727974916253,-1.0087891,0.025390625,-0.0087890625,1.5,10.53125,-2.75
373,373,1727974916293,-0.97265625,0.01953125,-0.018554688,4.4375,8.03125,-3.1875
374,374,1727974916333,-1.0556641,-0.0126953125,-0.01953125,4.46875,10.84375,-3.25
375,375,1727974916373,-1.0048828,0.06738281,-0.055664062,-11.8125,8.84375,-1.59375
376,376,1727974916413,-0.98828125,0.016601562,-0.057617188,-16.4375,9.625,1.5
377,377,1727974916453,-0.99609375,-0.01171875,-0.051757812,-18.53125,12.3125,4.25
378,378,1727974916493,-0.9736328,0.0,-0.061523438,-17.125,11.875,8.46875
379,379,1727974916533,-1.0039062,-0.03125,-0.10644531,-5.78125,11.53125,13.90625
380,380,1727974916573,-1.0048828,0.013671875,-0.07714844,-6.4375,15.375,13.15625
381,381,1727974916613,-1.0068359,0.051757812,-0.087890625,-13.875,13.28125,12.25
382,382,1727974916653,-1.0205078,0.041992188,-0.087890625,-15.65625,11.625,17.3125
383,383,1727974916693,-1.0058594,0.0,-0.044921875,-15.28125,11.9375,19.9375
384,384,1727974916733,-1.0507812,0.01953125,-0.08203125,-6.1875,8.40625,18.84375
385,385,1727974916773,-1.1484375,0.0087890625,-0.14160156,-2.65625,3.875,12.8125
386,386,1727974916813,-1.1171875,0.115234375,-0.16796875,15.53125,-8.3125,6.15625
387,387,1727974916853,-1.0263672,0.2890625,0.03515625,10.28125,-19.78125,3.15625
388,388,1727974916893,-0.9267578,0.07128906,0.09667969,8.15625,-42.4375,1.75
389,389,1727974916933,-0.9746094,0.15625,-0.11425781,27.90625,-86.3125,-27.3125
390,390,1727974916973,-1.0800781,0.13183594,-0.35058594,51.46875,-100.0,-29.625
391,391,1727974917013,-1.2666016,0.052734375,0.22265625,74.5625,-79.53125,-28.65625
392,392,1727974917053,-0.9980469,0.2734375,-0.0068359375,28.03125,-63.375,-9.1875
393,393,1727974917093,-0.9316406,0.022460938,0.0625,15.28125,-46.34375,-14.84375
394,394,1727974917133,-1.0820312,0.032226562,0.08105469,38.3125,-52.3125,-28.28125
395,395,1727974917173,-1.0839844,0.15429688,0.19726562,42.5,-73.4375,-37.375
396,396,1727974917213,-1.1835938,0.06640625,0.27441406,4.71875,-109.46875,-40.25
397,397,1727974917253,-0.75,0.17382812,0.19628906,7.09375,-76.5625,-16.375
398,398,1727974917293,-0.86621094,-0.051757812,0.27929688,11.1875,-41.46875,-7.40625
399,399,1727974917333,-0.8691406,-0.08300781,0.359375,15.09375,-33.59375,-12.65625
400,400,1727974917373,-0.94921875,-0.017578125,0.44921875,25.46875,-42.1875,-13.3125
401,401,1727974917413,-0.8095703,0.028320312,0.4892578,24.0,-41.46875,-9.40625
402,402,1727974917453,-0.7441406,0.06542969,0.39257812,13.875,-30.71875,-3.0
403,403,1727974917493,-0.7753906,0.034179688,0.38183594,16.5,-5.4375,2.375
404,404,1727974917533,-0.76660156,0.057617188,0.39746094,16.9375,11.8125,5.90625
405,405,1727974917573,-0.8144531,0.044921875,0.43847656,-0.875,26.28125,5.0
406,406,1727974917613,-0.8261719,0.07519531,0.41210938,-11.8125,34.34375,3.15625
407,407,1727974917653,-0.81640625,0.08496094,0.40527344,-15.46875,39.34375,5.71875
408,408,1727974917693,-0.96972656,0.07128906,0.43847656,-14.0625,42.59375,11.15625
409,409,1727974917733,-0.9199219,0.0,0.39257812,-15.0,43.5,8.90625
410,410,1727974917773,-0.8183594,0.001953125,0.29785156,-24.03125,69.75,13.15625
411,411,1727974917813,-1.0664062,0.055664062,0.3076172,-15.15625,110.9375,24.875
412,412,1727974917853,-1.3740234,-0.0146484375,0.42773438,-4.96875,77.25,15.25
413,413,1727974917893,-1.2285156,-0.38867188,0.52441406,-18.09375,27.8125,-31.15625
414,414,1727974917933,-0.5361328,0.27734375,-0.01171875,-57.59375,27.09375,0.09375
415,415,1727974917973,-1.1660156,0.18847656,0.3095703,23.53125,37.875,22.4375
416,416,1727974918013,-1.0117188,0.015625,-0.06347656,-17.71875,38.9375,7.96875
417,417,1727974918053,-0.9980469,0.103515625,-0.015625,-59.65625,34.09375,-17.34375
418,418,1727974918093,-0.97265625,0.31445312,-0.021484375,-35.90625,32.03125,8.96875
419,419,1727974918133,-1.1035156,-0.0146484375,-0.21289062,-41.65625,26.53125,17.6875
420,420,1727974918173,-0.95214844,0.030273438,-0.034179688,-19.25,24.03125,5.71875
421,421,1727974918213,-1.1582031,-0.059570312,-0.06640625,-10.96875,18.90625,4.5
422,422,1727974918253,-1.0107422,0.06640625,0.0068359375,-27.5,20.125,-2.875
423,423,1727974918293,-1.0351562,0.068359375,-0.053710938,-23.84375,16.9375,9.75
424,424,1727974918333,-1.0292969,-0.009765625,-0.05078125,-15.84375,4.5,7.625
425,425,1727974918373,-0.9863281,-0.056640625,-0.05859375,-7.90625,7.5625,3.65625
426,426,1727974918413,-0.9609375,0.015625,-0.076171875,13.28125,8.71875,-0.8125
427,427,1727974918453,-1.0048828,0.12695312,0.0,5.09375,3.46875,-4.0
428,428,1727974918493,-1.0458984,0.064453125,-0.055664062,-14.3125,-4.40625,-2.21875
429,429,1727974918533,-0.99316406,-0.01953125,-0.045898438,-3.09375,-5.3125,-1.59375
430,430,1727974918573,-0.9794922,0.01953125,-0.038085938,-0.9375,4.6875,-2.15625
431,431,1727974918613,-1.0263672,0.028320312,-0.064453125,-2.59375,13.90625,0.84375
432,432,1727974918653,-1.0205078,0.10253906,-0.0048828125,-6.3125,14.09375,4.25
433,433,1727974918693,-0.9980469,-0.0126953125,0.0,-15.96875,10.90625,10.65625
434,434,1727974918733,-1.0136719,0.0029296875,-0.10546875,-15.0,13.65625,10.78125
435,435,1727974918773,-0.9658203,0.032226562,-0.068359375,-2.15625,10.25,10.3125
436,436,1727974918813,-0.96191406,0.08203125,-0.07714844,-13.40625,20.0,12.25
437,437,1727974918853,-1.0039062,0.07128906,-0.09082031,-19.125,22.8125,15.65625
438,438,1727974918893,-1.0087891,0.078125,-0.036132812,-15.90625,17.5,15.59375
439,439,1727974918933,-0.9824219,0.022460938,-0.14941406,-8.09375,16.15625,15.84375
440,440,1727974918973,-1.1162109,-0.005859375,-0.21875,7.96875,11.75,13.71875
441,441,1727974919013,-1.0605469,0.17382812,-0.15917969,10.21875,0.90625,6.875
442,442,1727974919053,-0.9658203,0.24902344,-0.038085938,-6.1875,-7.09375,6.09375
443,443,1727974919093,-0.9785156,0.07324219,-0.033203125,-20.0625,-5.3125,8.90625
444,444,1727974919133,-1.0263672,-0.08496094,-0.09375,-2.28125,-10.625,9.5
445,445,1727974919173,-1.0791016,0.029296875,-0.02734375,25.71875,-15.15625,0.90625
446,446,1727974919213,-1.0947266,0.28320312,-0.09765625,18.09375,-21.25,-5.03125
447,447,1727974919253,-1.0683594,0.16015625,-0.0078125,41.09375,-39.5,4.0625
448,448,1727974919293,-0.9902344,0.06933594,0.0,32.75,-73.0625,-5.21875
449,449,1727974919333,-1.0224609,0.12988281,0.060546875,37.0,-101.46875,-36.46875
450,450,1727974919373,-1.0771484,0.23046875,-0.25097656,89.8125,-133.0,-46.78125
451,451,1727974919413,-1.2910156,0.046875,0.119140625,92.625,-109.40625,-23.875
452,452,1727974919453,-0.9169922,0.32421875,0.14746094,32.0,-92.0625,-20.90625
453,453,1727974919493,-0.8261719,0.17773438,0.15039062,-4.84375,-56.34375,-8.5
454,454,1727974919533,-0.87402344,0.0087890625,0.09667969,1.3125,-35.34375,-11.0625
455,455,1727974919573,-0.8515625,0.09277344,0.19824219,16.375,-28.9375,-4.78125
456,456,1727974919613,-0.9121094,0.046875,0.33007812,8.03125,-13.6875,-4.28125
457,457,1727974919653,-1.1630859,0.016601562,0.5029297,-3.21875,-13.5,-5.6875
458,458,1727974919693,-0.9169922,0.0087890625,0.4091797,-7.40625,-50.0625,-10.34375
459,459,1727974919733,-0.8300781,-0.005859375,0.4189453,-0.28125,-35.0625,-13.125
460,460,1727974919773,-0.8339844,-0.022460938,0.40527344,8.34375,-32.625,-15.09375
461,461,1727974919813,-0.77441406,-0.0078125,0.46679688,14.75,-18.8125,-13.5625
462,462,1727974919853,-0.85253906,0.0859375,0.46875,25.46875,-13.9375,-4.40625
463,463,1727974919893,-0.8515625,0.12890625,0.41601562,24.125,-2.75,-6.71875
464,464,1727974919933,-0.81933594,0.10253906,0.4609375,5.40625,12.3125,-7.21875
465,465,1727974919973,-0.8144531,0.041992188,0.3876953,-6.375,13.71875,-2.46875
466,466,1727974920013,-0.78515625,0.12207031,0.36914062,-14.875,33.3125,0.53125
467,467,1727974920053,-0.8876953,0.09277344,0.41015625,-19.4375,49.1875,-1.125
468,468,1727974920093,-0.8623047,0.055664062,0.3486328,-12.3125,48.625,7.1875
469,469,1727974920133,-0.9609375,-0.025390625,0.3408203,-22.625,79.4375,9.6875
470,470,1727974920173,-1.1923828,-0.038085938,0.3251953,-29.21875,82.5,14.6875
471,471,1727974920213,-1.4326172,-0.21582031,0.48046875,-9.8125,40.625,-9.59375
472,472,1727974920253,-0.7050781,0.18359375,0.13671875,-26.46875,6.5,-3.5
473,473,1727974920293,-0.8671875,0.13769531,0.12402344,37.6875,40.6875,20.25
474,474,1727974920333,-1.0283203,-0.060546875,0.051757812,-11.25,46.5,14.21875
475,475,1727974920373,-1.0957031,0.057617188,0.005859375,-30.25,47.78125,0.71875
476,476,1727974920413,-0.9951172,0.13378906,0.103515625,-19.8125,39.34375,13.65625
477,477,1727974920453,-1.0068359,-0.06738281,-0.11035156,-3.875,36.40625,12.5625
478,478,1727974920493,-1.0361328,0.0859375,0.07324219,-2.78125,27.21875,0.78125
479,479,1727974920533,-1.09375,0.09472656,0.028320312,-23.59375,21.84375,-4.0
480,480,1727974920573,-1.0292969,-0.009765625,-0.030273438,-42.34375,7.0625,-16.0625
481,481,1727974920613,-0.9355469,-0.06347656,-0.16015625,-15.59375,12.875,0.78125
482,482,1727974920653,-1.0800781,-0.05859375,-0.13476562,17.0625,12.625,7.0
483,483,1727974920693,-1.0029297,0.1015625,0.02734375,-2.53125,13.28125,1.4375
484,484,1727974920733,-0.9863281,0.12597656,0.0,-16.09375,20.90625,0.65625
485,485,1727974920773,-1.0292969,-0.033203125,-0.115234375,-8.625,6.21875,3.15625
486,486,1727974920813,-0.9707031,0.17382812,0.017578125,-7.34375,16.21875,-2.28125
487,487,1727974920853,-1.0253906,0.06933594,-0.0009765625,-2.28125,12.0,12.5625
488,488,1727974920893,-0.97558594,-0.061523438,0.024414062,-16.5,13.78125,6.15625
489,489,1727974920933,-0.9589844,-0.00390625,0.02734375,-17.3125,12.375,1.9375
490,490,1727974920973,-0.9736328,-0.049804688,-0.053710938,-14.375,13.96875,9.5
491,491,1727974921013,-1.0175781,-0.0126953125,-0.038085938,-9.0,21.03125,12.625
492,492,1727974921053,-0.9863281,0.013671875,-0.0078125,-8.6875,17.125,19.21875
493,493,1727974921093,-0.9628906,0.001953125,-0.057617188,-7.125,20.90625,24.09375
494,494,1727974921133,-1.03125,-0.037109375,-0.020507812,-6.75,23.40625,23.3125
495,495,1727974921173,-1.1220703,-0.10253906,-0.2919922,-11.5625,16.71875,9.8125
496,496,1727974921213,-0.93652344,0.37304688,-0.15136719,-13.9375,11.875,-1.96875
497,497,1727974921253,-1.0458984,0.4013672,-0.03125,-24.9375,7.71875,2.0625
498,498,1727974921293,-1.109375,-0.051757812,-0.0048828125,-26.875,-20.9375,2.1875
499,499,1727974921333,-1.0878906,0.13378906,-0.0087890625,14.5,-31.875,-17.53125
500,500,1727974921373,-1.0205078,0.24902344,0.08300781,37.5,-49.28125,-19.4375
501,501,1727974921413,-1.1826172,0.15136719,-0.05078125,45.4375,-75.9375,-25.71875
502,502,1727974921453,-1.1181641,0.29589844,0.034179688,49.03125,-87.0625,-7.53125
503,503,1727974921493,-1.0576172,0.11230469,-0.017578125,21.09375,-65.9375,5.34375
504,504,1727974921533,-1.0292969,0.125,-0.07128906,34.03125,-64.34375,-8.4375
505,505,1727974921573,-0.9873047,0.11230469,0.076171875,31.21875,-55.4375,-8.8125
506,506,1727974921613,-0.9628906,0.078125,0.12402344,30.96875,-60.875,-14.1875
507,507,1727974921653,-1.0234375,0.087890625,0.064453125,14.3125,-58.84375,-19.375
508,508,1727974921693,-0.99316406,0.17578125,0.18554688,11.875,-57.34375,-15.75
509,509,1727974921733,-0.83984375,0.08984375,0.21484375,8.75,-46.71875,-14.90625
510,510,1727974921773,-0.8779297,-0.013671875,0.24023438,13.6875,-40.125,-0.9375
511,511,1727974921813,-0.9404297,0.01171875,0.2998047,3.03125,-32.125,-9.34375
512,512,1727974921853,-0.90234375,0.15527344,0.34375,-6.0625,-28.21875,-14.25
513,513,1727974921893,-0.8613281,-0.053710938,0.34765625,7.96875,-27.90625,-7.90625
514,514,1727974921933,-0.8564453,0.01953125,0.3232422,5.59375,-25.71875,-4.40625
515,515,1727974921973,-0.8388672,0.09472656,0.53515625,-2.59375,-14.46875,-5.75
516,516,1727974922013,-0.84472656,-0.057617188,0.5048828,-13.59375,-3.875,-2.59375
517,517,1727974922053,-0.8613281,0.07128906,0.34277344,-9.96875,3.28125,1.3125
518,518,1727974922093,-0.8876953,0.06738281,0.48632812,7.46875,17.9375,-3.25
519,519,1727974922133,-0.9248047,-0.005859375,0.4404297,-2.28125,19.8125,-8.5625
520,520,1727974922173,-0.94140625,-0.029296875,0.28125,0.8125,15.65625,-28.09375
521,521,1727974922213,-0.57910156,0.06640625,0.30371094,-17.1875,46.96875,-0.5
522,522,1727974922253,-0.7294922,0.14746094,0.16894531,-5.53125,77.9375,25.5
523,523,1727974922293,-1.2431641,0.029296875,0.33984375,-20.71875,120.53125,28.125
524,524,1727974922333,-1.5390625,-0.27734375,0.4794922,-11.1875,49.78125,10.1875
525,525,1727974922373,-0.7626953,0.10644531,0.171875,-58.375,26.65625,-24.4375
526,526,1727974922413,-0.80566406,0.030273438,0.087890625,40.125,27.25,23.78125
527,527,1727974922453,-1.0390625,0.018554688,-0.087890625,-8.53125,30.4375,15.96875
528,528,1727974922493,-1.0791016,0.046875,0.068359375,-11.1875,26.59375,-3.0625
529,529,1727974922533,-1.03125,0.076171875,0.0107421875,-24.5625,20.0625,-5.8125
530,530,1727974922573,-0.9658203,0.119140625,0.0,-7.71875,21.03125,-2.59375
531,531,1727974922613,-1.09375,0.0029296875,-0.037109375,-8.625,27.21875,6.40625
532,532,1727974922653,-0.96972656,0.08105469,0.08886719,-32.6875,21.46875,0.90625
533,533,1727974922693,-1.0097656,-0.025390625,-0.015625,-19.1875,16.15625,6.875
534,534,1727974922733,-1.0068359,0.013671875,-0.015625,-30.3125,20.0625,14.3125
535,535,1727974922773,-0.9951172,-0.02734375,-0.01953125,-17.4375,24.21875,13.53125
536,536,1727974922813,-1.0185547,-0.11035156,-0.040039062,-0.09375,16.71875,-3.0
537,537,1727974922853,-0.98339844,-0.0126953125,-0.0009765625,6.125,21.78125,-12.09375
538,538,1727974922893,-1.1318359,0.076171875,0.08300781,-6.125,12.375,-11.5625
539,539,1727974922933,-0.93847656,0.040039062,-0.025390625,-7.59375,0.15625,-0.03125
540,540,1727974922973,-1.0380859,-0.08203125,-0.0625,-3.625,13.59375,2.1875
541,541,1727974923013,-0.96777344,0.12890625,-0.017578125,-2.21875,18.125,6.34375
542,542,1727974923053,-1.0,-0.009765625,-0.041992188,-5.90625,15.375,12.25
543,543,1727974923093,-0.984375,-0.0029296875,-0.055664062,-13.875,19.8125,9.0625
544,544,1727974923133,-0.9873047,0.032226562,-0.047851562,-16.75,17.5625,14.21875
545,545,1727974923173,-0.9941406,-0.01953125,-0.0546875,-19.625,20.6875,18.78125
546,546,1727974923213,-0.9580078,0.038085938,-0.0703125,-24.5625,21.21875,19.21875
547,547,1727974923253,-1.0244141,0.1015625,-0.0625,-15.78125,16.9375,22.75
548,548,1727974923293,-1.0439453,0.022460938,-0.1328125,-11.6875,18.21875,27.375
549,549,1727974923333,-1.1699219,-0.068359375,-0.2705078,2.59375,6.625,18.71875
550,550,1727974923373,-1.0898438,0.2919922,-0.13085938,13.28125,-2.21875,2.0
551,551,1727974923413,-0.97753906,0.29101562,0.0068359375,-3.03125,-14.90625,9.625
552,552,1727974923453,-1.0722656,-0.028320312,0.03515625,-20.28125,-10.46875,13.46875
553,553,1727974923493,-1.0244141,0.020507812,0.0546875,11.125,-23.34375,0.59375
554,554,1727974923533,-0.9814453,0.06933594,-0.064453125,40.5,-50.5625,-32.0625
555,555,1727974923573,-1.1445312,0.10839844,-0.18164062,73.9375,-97.96875,-51.71875
556,556,1727974923613,-1.0888672,0.30078125,-0.03125,73.40625,-97.5625,-36.9375
557,557,1727974923653,-1.1289062,0.09667969,-0.036132812,61.5625,-101.40625,-19.3125
558,558,1727974923693,-0.9560547,0.20117188,0.068359375,36.65625,-98.28125,-7.03125
559,559,1727974923733,-1.0615234,0.11621094,0.14257812,3.25,-88.09375,-13.25
560,560,1727974923773,-0.96972656,0.08886719,0.12402344,33.84375,-82.71875,-16.9375
561,561,1727974923813,-0.88964844,0.17578125,0.23242188,20.40625,-67.34375,-13.9375
562,562,1727974923853,-0.93847656,0.06738281,0.28222656,3.375,-53.90625,-4.46875
563,563,1727974923893,-0.8486328,0.025390625,0.32910156,8.9375,-47.1875,-3.25
564,564,1727974923933,-0.7402344,0.022460938,0.38085938,10.03125,-29.1875,-7.71875
565,565,1727974923973,-0.9267578,-0.056640625,0.43359375,16.4375,-15.65625,-4.21875
566,566,1727974924013,-0.99609375,0.107421875,0.37597656,10.65625,-18.9375,-5.625
567,567,1727974924053,-0.7861328,0.10449219,0.4453125,5.21875,-21.875,-7.28125
568,568,1727974924093,-0.7714844,0.043945312,0.40527344,6.5625,-2.46875,-2.6875
569,569,1727974924133,-0.8027344,0.07421875,0.35058594,8.28125,16.28125,0.65625
570,570,1727974924173,-0.88964844,0.11035156,0.38671875,10.21875,17.25,6.34375
571,571,1727974924213,-0.8496094,0.06640625,0.45117188,3.625,22.75,7.4375
572,572,1727974924253,-0.9296875,-0.033203125,0.44335938,0.875,30.375,1.25
573,573,1727974924293,-0.8310547,0.10253906,0.2998047,-18.78125,26.21875,-10.8125
574,574,1727974924333,-0.6640625,0.15429688,0.18554688,-28.90625,50.65625,1.5
575,575,1727974924373,-0.61816406,0.2998047,-0.02734375,-6.1875,118.03125,46.125
576,576,1727974924413,-1.3896484,0.20703125,0.27734375,-75.09375,170.34375,43.1875
577,577,1727974924453,-1.6728516,-0.3173828,0.45214844,-72.71875,94.34375,-13.8125
578,578,1727974924493,-0.89746094,-0.018554688,0.20898438,-63.3125,14.4375,-48.40625
579,579,1727974924533,-0.6269531,0.4951172,0.19628906,-2.15625,15.65625,22.75
580,580,1727974924573,-1.1669922,-0.15136719,0.041015625,-6.875,40.09375,43.875
581,581,1727974924613,-1.2207031,-0.119140625,-0.091796875,-23.21875,45.09375,3.15625
582,582,1727974924653,-0.8955078,0.27246094,0.07519531,-35.75,30.8125,-11.0
583,583,1727974924693,-1.015625,0.099609375,-0.13378906,-17.71875,25.875,31.28125
584,584,1727974924733,-1.0244141,-0.1875,-0.068359375,-5.40625,17.25,1.09375
585,585,1727974924773,-1.1201172,0.14550781,0.01953125,3.8125,20.6875,-6.90625
586,586,1727974924813,-1.0175781,0.034179688,-0.044921875,-2.90625,10.125,-16.5625
587,587,1727974924853,-0.96875,-0.022460938,-0.040039062,-36.84375,4.3125,-26.4375
588,588,1727974924893,-0.9785156,-0.03125,-0.13476562,-13.28125,2.96875,-10.6875
589,589,1727974924933,-1.0195312,0.016601562,-0.033203125,7.65625,4.9375,-11.4375
590,590,1727974924973,-1.0136719,0.0625,-0.08105469,13.46875,8.78125,-4.21875
591,591,1727974925013,-1.0224609,0.083984375,-0.041015625,8.6875,0.40625,-1.96875
592,592,1727974925053,-1.0039062,0.09667969,-0.044921875,12.125,2.3125,-1.40625
593,593,1727974925093,-1.0244141,0.060546875,-0.018554688,1.5,6.03125,4.4375
594,594,1727974925133,-1.0224609,0.005859375,0.01171875,-12.4375,6.21875,6.15625
595,595,1727974925173,-0.96972656,-0.06347656,-0.072265625,-14.5,7.96875,6.21875
596,596,1727974925213,-0.9863281,-0.06640625,-0.043945312,-8.40625,17.625,8.15625
597,597,1727974925253,-1.0380859,-0.0146484375,-0.026367188,-5.78125,15.84375,11.8125
598,598,1727974925293,-1.0341797,-0.018554688,-0.041992188,-15.46875,16.53125,13.09375
599,599,1727974925333,-0.9560547,-0.013671875,-0.095703125,-10.53125,13.65625,13.96875
600,600,1727974925373,-1.0175781,0.053710938,-0.10449219,-8.46875,16.46875,15.78125
601,601,1727974925413,-0.98339844,0.09667969,-0.07910156,-15.15625,16.59375,18.84375
602,602,1727974925453,-0.9580078,0.07519531,-0.0625,-21.53125,13.59375,20.1875
603,603,1727974925493,-1.0927734,-0.036132812,-0.21191406,-16.15625,8.21875,18.84375
604,604,1727974925533,-1.1044922,-0.0078125,-0.23535156,11.3125,3.03125,12.1875
605,605,1727974925573,-1.0019531,0.21386719,-0.14453125,23.71875,-4.09375,8.65625
606,606,1727974925613,-0.9824219,0.234375,0.03515625,-2.78125,-9.96875,10.53125
607,607,1727974925653,-1.0576172,-0.016601562,-0.0126953125,-11.375,-19.84375,14.75
608,608,1727974925693,-1.0791016,0.0078125,-0.107421875,33.90625,-22.34375,2.53125
609,609,1727974925733,-1.1191406,0.18164062,-0.0029296875,35.0,-28.03125,-11.5625
610,610,1727974925773,-0.96777344,0.15136719,-0.07421875,46.21875,-63.25,-20.15625
611,611,1727974925813,-1.0605469,0.14648438,-0.055664062,49.59375,-100.1875,-38.84375
612,612,1727974925853,-1.2333984,0.16894531,-0.013671875,57.40625,-103.90625,-35.65625
613,613,1727974925893,-1.0341797,0.22949219,0.04296875,71.1875,-90.15625,-19.0625
614,614,1727974925933,-0.89160156,0.20117188,-0.0029296875,32.0625,-79.125,-13.09375
615,615,1727974925973,-0.9667969,0.17578125,0.099609375,-1.5625,-61.0,-15.9375
616,616,1727974926013,-0.96191406,0.095703125,0.107421875,22.84375,-55.6875,-18.625
617,617,1727974926053,-0.91796875,0.09277344,0.20410156,13.875,-52.5,-12.65625
618,618,1727974926093,-0.94140625,0.076171875,0.28320312,0.40625,-48.0,-3.375
619,619,1727974926133,-1.0107422,-0.029296875,0.33691406,5.28125,-45.125,2.5
620,620,1727974926173,-0.93847656,0.0029296875,0.4111328,14.375,-51.21875,-6.1875
621,621,1727974926213,-0.8847656,-0.017578125,0.42285156,17.0,-41.03125,-10.40625
622,622,1727974926253,-0.8857422,0.0087890625,0.44335938,14.6875,-38.28125,-7.78125
623,623,1727974926293,-0.7597656,0.1015625,0.41601562,25.96875,-29.25,-6.84375
624,624,1727974926333,-0.69921875,0.09277344,0.3828125,21.34375,-2.15625,-4.34375
625,625,1727974926373,-0.8388672,0.17578125,0.41601562,8.8125,12.375,-2.40625
626,626,1727974926413,-0.83984375,0.16796875,0.45410156,2.59375,16.28125,-0.9375
627,627,1727974926453,-0.82421875,0.036132812,0.5019531,4.1875,20.75,5.90625
628,628,1727974926493,-0.88183594,-0.021484375,0.42285156,2.65625,28.375,0.71875
629,629,1727974926533,-0.7363281,-0.064453125,0.390625,-30.84375,36.3125,-15.75
630,630,1727974926573,-0.6923828,0.17480469,0.2529297,-33.25,84.40625,-4.09375
631,631,1727974926613,-0.9472656,0.20800781,0.20996094,-23.59375,130.84375,21.96875
632,632,1727974926653,-1.7597656,-0.115234375,0.35742188,-25.25,112.71875,10.59375
633,633,1727974926693,-1.1171875,-0.19140625,0.40820312,-26.53125,5.0625,-37.25
634,634,1727974926733,-0.49023438,0.5253906,0.1796875,22.78125,34.59375,26.15625
635,635,1727974926773,-1.2939453,-0.38183594,-0.18554688,-42.03125,51.1875,37.8125
636,636,1727974926813,-1.1806641,0.045898438,-0.046875,-0.8125,48.09375,-10.03125
637,637,1727974926853,-0.87109375,0.2421875,0.119140625,-44.34375,37.875,2.65625
638,638,1727974926893,-1.0488281,-0.020507812,-0.15429688,-16.8125,36.0,12.5625
639,639,1727974926933,-0.99902344,0.0390625,-0.030273438,-42.5625,39.65625,-9.59375
640,640,1727974926973,-1.0664062,0.0048828125,-0.08105469,-33.25,41.25,-7.28125
641,641,1727974927013,-1.0898438,0.107421875,-0.01171875,-36.53125,18.84375,-4.09375
642,642,1727974927053,-1.0019531,0.026367188,-0.16992188,-16.34375,10.96875,10.25
643,643,1727974927093,-0.9951172,-0.045898438,-0.13574219,-18.21875,13.34375,6.28125
644,644,1727974927133,-1.0517578,0.026367188,-0.07910156,-11.875,10.65625,-1.84375
645,645,1727974927173,-0.9716797,0.080078125,-0.059570312,-7.0625,3.8125,-7.40625
646,646,1727974927213,-1.0068359,-0.0048828125,-0.10839844,0.6875,2.53125,-5.4375
647,647,1727974927253,-1.0546875,0.10644531,-0.064453125,-9.875,4.4375,-6.0625
648,648,1727974927293,-0.98046875,0.07714844,-0.052734375,-12.375,0.09375,3.875
649,649,1727974927333,-1.0234375,-0.036132812,-0.119140625,-15.78125,0.71875,5.90625
650,650,1727974927373,-0.99121094,-0.0029296875,-0.03125,-14.25,-2.09375,4.875
651,651,1727974927413,-0.95214844,-0.04296875,-0.06640625,-13.15625,0.65625,6.03125
652,652,1727974927453,-0.9824219,0.009765625,-0.11230469,-8.625,4.3125,7.125
653,653,1727974927493,-0.9736328,0.0625,-0.11230469,-9.5,9.4375,10.125
654,654,1727974927533,-1.0205078,0.060546875,-0.09375,-10.03125,14.15625,15.84375
655,655,1727974927573,-1.0380859,0.053710938,-0.0234375,-12.59375,13.15625,17.1875
656,656,1727974927613,-1.0224609,-0.0107421875,-0.04296875,-17.1875,8.21875,16.03125
657,657,1727974927653,-1.0488281,0.0029296875,-0.06347656,-12.1875,2.53125,17.4375
658,658,1727974927693,-1.0458984,0.024414062,-0.09277344,7.28125,0.84375,15.0
659,659,1727974927733,-1.0068359,-0.07421875,-0.20410156,28.46875,-5.03125,9.5625
660,660,1727974927773,-1.0859375,0.049804688,-0.16699219,53.8125,-16.1875,-2.75
661,661,1727974927813,-1.0576172,0.28125,0.032226562,23.40625,-25.96875,-6.25
662,662,1727974927853,-1.0253906,0.037109375,-0.02734375,10.78125,-34.75,0.78125
663,663,1727974927893,-0.95214844,0.10644531,0.0146484375,49.59375,-62.6875,-20.15625
664,664,1727974927933,-1.0009766,0.25195312,0.19238281,61.84375,-112.03125,-25.71875
665,665,1727974927973,-1.1621094,0.17675781,-0.115234375,34.875,-133.0,-21.9375
666,666,1727974928013,-1.2910156,0.109375,0.1484375,73.5625,-107.9375,-21.5625
667,667,1727974928053,-0.9394531,0.234375,0.25097656,39.15625,-85.65625,-11.84375
668,668,1727974928093,-0.83984375,0.12109375,0.14257812,21.9375,-64.96875,-0.09375
669,669,1727974928133,-0.86816406,0.1484375,0.14257812,14.96875,-44.9375,-12.84375
670,670,1727974928173,-0.859375,0.15429688,0.24121094,12.53125,-37.8125,-11.6875
671,671,1727974928213,-0.9824219,0.08203125,0.39746094,4.3125,-36.34375,-7.09375
672,672,1727974928253,-0.89941406,0.0048828125,0.40625,3.1875,-28.46875,-5.5625
673,673,1727974928293,-0.93066406,-0.055664062,0.44726562,-9.25,-22.84375,-12.71875
674,674,1727974928333,-0.87402344,0.0,0.46777344,11.5625,-24.90625,-8.375
675,675,1727974928373,-0.8251953,0.064453125,0.38378906,16.25,-20.09375,-8.8125
676,676,1727974928413,-0.765625,0.061523438,0.38964844,15.46875,-10.6875,-6.4375
677,677,1727974928453,-0.828125,0.041015625,0.4013672,19.9375,3.21875,-1.46875
678,678,1727974928493,-0.8154297,0.115234375,0.5019531,9.96875,5.96875,-1.65625
679,679,1727974928533,-0.83984375,0.171875,0.46289062,4.53125,12.125,2.0
680,680,1727974928573,-0.8925781,0.099609375,0.41308594,-0.09375,18.125,2.375
681,681,1727974928613,-0.88378906,0.048828125,0.49023438,-6.375,31.0625,-1.125
682,682,1727974928653,-0.8544922,0.0146484375,0.453125,-8.875,36.46875,-6.375
683,683,1727974928693,-0.7128906,0.018554688,0.28125,-34.09375,64.25,-10.625
684,684,1727974928733,-0.8378906,0.14550781,0.19335938,-47.21875,102.28125,4.3125
685,685,1727974928773,-1.4150391,0.22265625,0.30664062,-43.5,129.125,21.65625
686,686,1727974928813,-1.4677734,-0.2685547,0.32617188,-3.21875,64.3125,-7.59375
687,687,1727974928853,-0.81640625,0.22167969,0.36132812,-37.4375,-19.1875,-44.9375
688,688,1727974928893,-0.56152344,0.46289062,0.057617188,-12.1875,3.15625,33.375
689,689,1727974928933,-1.1210938,-0.48828125,-0.13085938,-6.0625,61.6875,15.59375
690,690,1727974928973,-1.0947266,0.18261719,0.024414062,-35.5625,52.71875,-3.3125
691,691,1727974929013,-1.0078125,0.2578125,0.09375,-74.3125,60.53125,16.28125
692,692,1727974929053,-1.0751953,-0.091796875,-0.18261719,-9.0,31.90625,26.90625
693,693,1727974929093,-1.1337891,-0.07519531,-0.0546875,-19.875,13.59375,7.5625
694,694,1727974929133,-1.0576172,0.083984375,-0.025390625,-27.25,17.1875,-7.03125
695,695,1727974929173,-1.015625,0.030273438,-0.095703125,-29.5625,8.46875,-1.0
696,696,1727974929213,-0.88671875,-0.06640625,-0.19335938,-9.375,2.0,1.6875
697,697,1727974929253,-0.9716797,-0.0009765625,-0.119140625,-2.65625,17.4375,-4.84375
698,698,1727974929293,-1.0136719,0.107421875,-0.01953125,2.03125,17.3125,-2.34375
699,699,1727974929333,-1.0507812,0.07421875,-0.055664062,15.65625,7.125,1.8125
700,700,1727974929373,-1.0410156,0.056640625,-0.028320312,1.375,0.65625,-2.09375
701,701,1727974929413,-1.0224609,-0.022460938,-0.045898438,8.6875,-1.125,2.0
702,702,1727974929453,-1.0449219,0.037109375,-0.02734375,12.84375,6.5625,-2.53125
703,703,1727974929493,-0.9902344,0.09863281,-0.01953125,9.0625,9.6875,-1.40625
704,704,1727974929533,-0.9824219,0.10644531,-0.06640625,-11.09375,11.625,1.75
705,705,1727974929573,-1.03125,0.0625,-0.009765625,-19.1875,7.25,4.0625
706,706,1727974929613,-1.0195312,-0.0234375,-0.026367188,-33.78125,5.125,6.34375
707,707,1727974929653,-0.98535156,-0.0087890625,-0.064453125,-23.59375,-3.625,11.59375
708,708,1727974929693,-0.95996094,-0.04296875,-0.15234375,-11.5625,1.875,14.03125
709,709,1727974929733,-1.0166016,0.049804688,-0.078125,-1.25,11.03125,13.21875
710,710,1727974929773,-0.98828125,0.091796875,-0.055664062,-0.28125,7.96875,20.90625
711,711,1727974929813,-0.98535156,-0.0087890625,-0.087890625,-7.90625,10.65625,21.34375
712,712,1727974929853,-1.0527344,-0.04296875,-0.14746094,8.34375,5.78125,15.59375
713,713,1727974929893,-1.0615234,0.055664062,-0.09863281,26.34375,0.21875,9.03125
714,714,1727974929933,-0.9667969,0.13476562,-0.015625,28.46875,-19.3125,-1.0
715,715,1727974929973,-1.1376953,0.13085938,0.13378906,18.03125,-39.75,-15.09375
716,716,1727974930013,-1.1044922,-0.17089844,0.11425781,44.09375,-64.65625,-26.4375
717,717,1727974930053,-1.1347656,0.31152344,0.06347656,46.0625,-119.84375,-40.90625
718,718,1727974930093,-1.1123047,0.21875,-0.041992188,64.0,-131.1875,-25.96875
719,719,1727974930133,-1.2041016,0.14257812,0.24804688,44.875,-96.625,-29.5625
720,720,1727974930173,-0.9609375,0.076171875,0.14355469,44.875,-94.875,-24.1875
721,721,1727974930213,-0.89941406,0.12011719,0.22949219,0.03125,-71.4375,-27.59375
722,722,1727974930253,-0.8496094,0.09082031,0.20996094,13.53125,-57.6875,-22.53125
723,723,1727974930293,-0.7939453,0.064453125,0.24121094,21.75,-52.5,-8.875
724,724,1727974930333,-0.81933594,0.0390625,0.30859375,14.0,-28.8125,7.3125
725,725,1727974930373,-0.98535156,-0.038085938,0.5048828,7.71875,-11.25,1.625
726,726,1727974930413,-0.9482422,0.0048828125,0.53515625,9.90625,-26.625,-5.21875
727,727,1727974930453,-0.80078125,0.020507812,0.50878906,0.6875,-30.0,-8.9375
728,728,1727974930493,-0.93359375,-0.064453125,0.46679688,11.125,-25.59375,-5.5625
729,729,1727974930533,-0.7871094,0.09667969,0.42871094,2.59375,-25.21875,-12.21875
730,730,1727974930573,-0.7138672,0.045898438,0.4658203,8.5,-9.0,-9.46875
731,731,1727974930613,-0.83496094,-0.059570312,0.4716797,18.21875,-7.03125,0.84375
732,732,1727974930653,-0.80078125,0.07324219,0.5546875,9.78125,0.71875,1.6875
733,733,1727974930693,-0.8574219,0.07519531,0.53222656,-1.5625,17.0,-0.03125
734,734,1727974930733,-0.8388672,-0.018554688,0.46484375,1.25,16.15625,0.53125
735,735,1727974930773,-0.78125,-0.0029296875,0.421875,-18.90625,28.3125,-7.53125
736,736,1727974930813,-0.7314453,0.034179688,0.32421875,-35.25,71.28125,-11.0
737,737,1727974930853,-0.9091797,0.17773438,0.22949219,-41.53125,102.40625,9.5
738,738,1727974930893,-1.0800781,0.22167969,0.15722656,-47.21875,143.71875,21.96875
739,739,1727974930933,-1.4482422,-0.08496094,0.29785156,-30.0,81.40625,23.65625
740,740,1727974930973,-0.9970703,0.0546875,0.30664062,-15.71875,8.78125,10.46875
741,741,1727974931013,-0.7832031,0.18457031,0.01953125,-43.0,40.4375,24.65625
742,742,1727974931053,-0.9248047,-0.3330078,-0.08691406,-29.15625,55.65625,8.40625
743,743,1727974931093,-1.0634766,0.041015625,0.06347656,-12.78125,57.96875,-3.3125
744,744,1727974931133,-0.98046875,0.17773438,0.047851562,-33.78125,45.8125,20.0625
745,745,1727974931173,-1.1679688,-0.12011719,-0.034179688,3.25,25.9375,24.09375
746,746,1727974931213,-1.1054688,0.0126953125,-0.053710938,-23.78125,20.5,0.34375
747,747,1727974931253,-1.0390625,0.057617188,-0.034179688,-25.0625,13.34375,2.53125
748,748,1727974931293,-1.0673828,0.05859375,-0.10058594,-32.75,6.9375,0.65625
749,749,1727974931333,-0.9609375,0.020507812,-0.140625,-12.53125,10.0,12.875
750,750,1727974931373,-0.9765625,-0.0546875,-0.11230469,-1.0625,17.9375,16.875
751,751,1727974931413,-1.0078125,0.0029296875,-0.053710938,-0.34375,13.03125,10.71875
752,752,1727974931453,-0.9794922,-0.015625,-0.028320312,7.96875,12.96875,2.3125
753,753,1727974931493,-0.9951172,0.03515625,-0.005859375,8.21875,12.4375,-2.40625
754,754,1727974931533,-0.99121094,0.052734375,-0.11425781,16.75,13.28125,-5.4375
755,755,1727974931573,-1.0263672,0.11425781,-0.0009765625,17.84375,14.375,-10.09375
756,756,1727974931613,-1.0244141,0.1328125,-0.02734375,5.65625,6.21875,-4.84375
757,757,1727974931653,-1.0390625,0.015625,-0.045898438,-2.71875,0.34375,-1.96875
758,758,1727974931693,-0.97753906,0.036132812,-0.052734375,-5.71875,1.9375,-4.71875
759,759,1727974931733,-1.0029297,0.045898438,-0.036132812,-11.5,4.625,0.09375
