,Unnamed: 0,timestamp,accel_x,accel_y,accel_z,gyro_x,gyro_y,gyro_z
0,0,1727990296220,-0.6982422,-0.4111328,0.06933594,15.0625,18.0625,17.75
1,1,1727990296260,-0.65722656,-0.27148438,0.025390625,33.0,36.53125,33.8125
2,2,1727990296300,-0.9140625,-0.11621094,0.14355469,19.53125,41.84375,41.78125
3,3,1727990296340,-1.34375,-0.17480469,-0.06738281,-11.1875,97.59375,41.5
4,4,1727990296380,-1.2080078,-0.9873047,-0.18847656,-106.21875,19.15625,22.75
5,5,1727990296420,-0.73339844,-0.28027344,0.22558594,-43.03125,-12.53125,22.75
6,6,1727990296460,-0.86621094,-0.0625,-0.42773438,111.3125,81.78125,39.46875
7,7,1727990296500,-1.1103516,-0.6064453,-0.0048828125,5.34375,11.40625,11.28125
8,8,1727990296540,-0.9589844,-0.4111328,-0.08984375,4.6875,22.125,6.6875
9,9,1727990296580,-0.9814453,-0.23339844,-0.14648438,6.15625,16.28125,4.3125
10,10,1727990296620,-0.90722656,-0.15722656,-0.055664062,-31.5,18.71875,14.5
11,11,1727990296660,-0.8935547,-0.37597656,-0.080078125,-2.8125,8.09375,25.6875
12,12,1727990296700,-0.8017578,-0.5292969,0.038085938,7.8125,2.1875,15.0625
13,13,1727990296740,-0.8359375,-0.4716797,0.2529297,0.71875,-32.4375,-12.53125
14,14,1727990296780,-0.8828125,-0.48242188,0.21484375,2.59375,-53.125,-26.6875
15,15,1727990296820,-0.8066406,-0.34179688,0.7167969,-7.78125,-105.3125,-41.15625
16,16,1727990296860,-0.45410156,0.033203125,-0.828125,93.78125,-55.3125,5.21875
17,17,1727990296900,-0.28515625,-0.23144531,-0.10449219,-34.4375,-67.59375,20.8125
18,18,1727990296940,-0.38671875,-0.5810547,0.11816406,-7.8125,-50.90625,8.84375
19,19,1727990296980,-0.99121094,-1.0078125,0.2578125,-56.46875,-85.15625,-78.09375
20,20,1727990297020,-1.7177734,-0.58691406,0.5390625,-113.0,-107.0625,-153.40625
21,21,1727990297060,-2.0,-1.1220703,0.5625,67.3125,-0.6875,-144.0625
22,22,1727990297100,-1.2617188,-0.47070312,0.27246094,-49.5,53.5625,-48.0625
23,23,1727990297140,-1.3359375,-0.7050781,0.5175781,-7.875,72.125,-37.3125
24,24,1727990297180,-1.1884766,-0.59375,0.40625,112.28125,48.9375,-33.65625
25,25,1727990297220,-0.8222656,0.19433594,0.4560547,99.65625,23.25,1.03125
26,26,1727990297260,-0.47070312,0.25,0.23242188,42.46875,16.15625,36.1875
27,27,1727990297300,-0.091796875,0.14941406,0.076171875,-34.5,30.0625,70.71875
28,28,1727990297340,-0.19628906,0.13378906,0.022460938,-45.3125,26.59375,96.90625
29,29,1727990297380,-0.4892578,-0.23339844,0.0546875,-30.15625,58.8125,89.71875
30,30,1727990297420,-0.7861328,-0.6425781,0.16015625,72.75,58.9375,62.65625
31,31,1727990297460,-0.5625,-0.7714844,0.036132812,42.96875,70.59375,58.9375
32,32,1727990297500,-0.15136719,-0.42773438,-0.09863281,24.875,90.0625,25.1875
33,33,1727990297540,-2.0,-0.109375,1.828125,-129.03125,-16.125,-51.96875
34,34,1727990297580,-2.0,0.19921875,-0.2607422,105.75,203.21875,-37.5
35,35,1727990297620,-2.0,-2.0,1.1533203,-420.90625,-108.40625,-119.875
36,36,1727990297660,-1.3095703,-0.55566406,-1.0146484,191.5,-60.8125,-51.84375
37,37,1727990297700,-0.7109375,0.2109375,-0.484375,-108.90625,14.28125,-19.1875
38,38,1727990297740,-0.9902344,-0.4189453,-0.36132812,-120.3125,0.59375,28.71875
39,39,1727990297780,-0.7910156,-0.6015625,0.26367188,-100.25,7.4375,50.40625
40,40,1727990297820,-0.78027344,-0.51953125,0.32128906,18.84375,19.15625,52.71875
41,41,1727990297860,-0.54589844,-0.6220703,0.3076172,46.1875,1.5625,37.65625
42,42,1727990297900,-0.39453125,-0.5419922,0.38671875,8.53125,-63.375,-4.40625
43,43,1727990297940,-0.27441406,-0.31445312,-0.046875,8.84375,-52.4375,-22.34375
44,44,1727990297980,-0.25585938,-0.11621094,0.17871094,9.1875,-102.625,-32.4375
45,45,1727990298020,-0.5097656,-0.69628906,-0.32226562,13.90625,-54.9375,-52.5
46,46,1727990298060,-1.2460938,-1.4013672,0.29296875,-75.03125,-70.03125,-132.78125
47,47,1727990298100,-2.0,-1.109375,0.7324219,158.0,27.09375,-113.78125
48,48,1727990298140,-1.3798828,-0.2919922,0.390625,70.1875,45.8125,-60.5
49,49,1727990298180,-1.2412109,-0.390625,0.43652344,18.71875,56.25,-32.25
50,50,1727990298220,-0.9707031,-0.31640625,0.37890625,28.0,53.03125,-9.15625
51,51,1727990298260,-0.7060547,0.03515625,0.41015625,49.3125,30.6875,13.65625
52,52,1727990298300,-0.43359375,0.038085938,0.18066406,37.15625,30.375,48.15625
53,53,1727990298340,-0.16992188,0.103515625,0.09667969,9.125,29.40625,73.40625
54,54,1727990298380,-0.21777344,0.1953125,-0.045898438,-3.90625,45.34375,89.28125
55,55,1727990298420,-0.78125,-0.14453125,-0.30273438,-21.0625,69.6875,63.875
56,56,1727990298460,-1.1738281,-0.6386719,0.21875,10.46875,82.4375,67.0
57,57,1727990298500,-0.2109375,-0.8808594,0.2783203,-34.75,86.65625,72.5625
58,58,1727990298540,-0.17382812,-0.18261719,-0.3408203,36.125,38.5,13.40625
59,59,1727990298580,-0.70214844,-0.5058594,-0.5136719,-203.1875,-84.25,-86.0
60,60,1727990298620,-2.0,-0.3544922,-1.1933594,246.3125,20.125,-85.59375
61,61,1727990298660,-1.4589844,-0.9199219,1.5859375,-357.375,-256.84375,-1.71875
62,62,1727990298700,-0.44433594,-0.038085938,-1.2783203,182.65625,48.625,-10.6875
63,63,1727990298740,-1.3105469,0.12597656,0.0029296875,-260.28125,-9.40625,25.125
64,64,1727990298780,-1.1054688,-0.61621094,0.30273438,-77.90625,-13.75,49.53125
65,65,1727990298820,-0.82128906,-0.47558594,0.12792969,17.5,22.5625,70.46875
66,66,1727990298860,-0.38183594,-0.3984375,0.08496094,12.9375,-5.9375,54.84375
67,67,1727990298900,-0.18457031,-0.61035156,-0.14550781,-36.03125,-37.3125,13.84375
68,68,1727990298940,0.05859375,-0.5605469,0.087890625,-43.15625,-64.21875,-15.625
69,69,1727990298980,-0.25,-0.46289062,0.21777344,-87.65625,-65.5,-64.09375
70,70,1727990299020,-0.60546875,-0.20800781,-0.123046875,18.78125,-21.625,-59.46875
71,71,1727990299060,-0.7988281,-0.6142578,0.0078125,38.9375,-45.84375,-52.09375
72,72,1727990299100,-2.0,-1.4833984,0.041992188,0.09375,-56.03125,-154.6875
73,73,1727990299140,-2.0,-0.8027344,0.4970703,61.6875,20.90625,-95.84375
74,74,1727990299180,-1.3857422,-0.6044922,0.5488281,41.3125,43.125,-56.34375
75,75,1727990299220,-1.0703125,-0.30078125,0.57421875,36.1875,12.75,7.625
76,76,1727990299260,-0.77246094,-0.15332031,0.26660156,35.625,10.46875,45.75
77,77,1727990299300,-0.625,-0.140625,0.20507812,-5.6875,-4.15625,66.75
78,78,1727990299340,-0.38476562,-0.037109375,0.033203125,40.9375,20.375,82.03125
79,79,1727990299380,-0.40820312,-0.044921875,0.12695312,50.53125,57.25,68.09375
80,80,1727990299420,-0.40820312,-0.23925781,-0.06738281,81.40625,100.6875,78.0625
81,81,1727990299460,-0.4345703,-0.2607422,0.12207031,59.1875,64.5,44.46875
82,82,1727990299500,-0.6269531,-0.22460938,0.3623047,42.15625,76.59375,33.125
83,83,1727990299540,-0.71191406,-0.515625,0.47460938,-40.53125,43.5,-20.84375
84,84,1727990299580,-1.4003906,-0.171875,0.83984375,-139.90625,-16.875,-68.0
85,85,1727990299620,-0.9277344,-0.24609375,-2.0,-168.15625,-48.40625,-76.8125
86,86,1727990299660,-2.0,0.47265625,-0.5419922,-303.25,17.125,-19.4375
87,87,1727990299700,-0.625,-0.4560547,-0.31445312,-182.75,-58.96875,49.125
88,88,1727990299740,-0.4892578,-0.41601562,-1.2460938,141.34375,79.75,23.375
89,89,1727990299780,-1.2324219,-0.7998047,-0.6611328,-220.59375,79.34375,-23.75
90,90,1727990299820,-1.0683594,-0.3017578,-0.01953125,-337.125,-36.6875,0.65625
91,91,1727990299860,-0.8466797,-0.14941406,-0.07519531,-274.5,-36.5,-9.28125
92,92,1727990299900,-0.58691406,-0.4716797,-0.24511719,-151.1875,-38.03125,11.03125
93,93,1727990299940,-0.484375,-0.7714844,-0.43847656,-122.9375,-56.03125,8.90625
94,94,1727990299980,-0.6201172,-0.6904297,-0.0048828125,-173.21875,-54.6875,19.6875
95,95,1727990300020,-0.88964844,-0.6875,-0.051757812,12.6875,-20.59375,20.4375
96,96,1727990300060,-0.6904297,-0.7373047,-0.2265625,32.34375,-42.9375,13.15625
97,97,1727990300100,-0.95214844,-0.70996094,0.33203125,-4.90625,-47.6875,-45.5625
98,98,1727990300140,-2.0,-0.24707031,0.45703125,6.875,-110.96875,-145.9375
99,99,1727990300180,-1.9472656,0.6503906,0.8808594,-134.0,-156.09375,-171.15625
100,100,1727990300220,-1.1503906,0.10546875,-0.203125,-188.3125,-100.59375,-143.15625
101,101,1727990300260,-1.2353516,-0.43359375,-0.068359375,-183.90625,-96.75,-49.9375
102,102,1727990300300,-0.75,-1.28125,0.24609375,-28.59375,-37.625,-105.53125
103,103,1727990300340,-0.77246094,-0.16992188,0.0078125,92.875,-30.40625,-63.5
104,104,1727990300380,-0.48046875,0.09765625,-0.20996094,66.6875,-50.90625,-31.25
105,105,1727990300420,-0.17578125,0.15820312,0.001953125,26.53125,-18.5,8.59375
106,106,1727990300460,-0.2919922,-0.095703125,-0.0009765625,-10.5625,49.4375,39.40625
107,107,1727990300500,-0.59277344,-0.33398438,0.06738281,-23.5,82.625,88.71875
108,108,1727990300540,-0.61328125,-0.625,-0.14257812,11.59375,107.34375,110.15625
109,109,1727990300580,-0.78222656,-0.4248047,0.2919922,83.46875,99.96875,87.4375
110,110,1727990300620,-0.6660156,-0.09472656,0.20019531,87.75,93.78125,61.25
111,111,1727990300660,-0.77246094,-0.22265625,0.12011719,-10.875,55.28125,35.15625
112,112,1727990300700,-1.6884766,0.08496094,1.4033203,-90.03125,-12.03125,16.40625
113,113,1727990300740,-1.5458984,-0.25585938,-1.0898438,18.65625,81.96875,-14.40625
114,114,1727990300780,-2.0,-2.0,1.1582031,-325.6875,-383.5625,-163.09375
115,115,1727990300820,-1.0791016,0.265625,-1.6367188,646.40625,61.875,11.03125
116,116,1727990300860,-0.375,-0.051757812,-1.2958984,-23.15625,60.28125,-29.96875
117,117,1727990300900,-1.4003906,-1.1035156,0.83691406,-449.59375,-166.03125,-47.125
118,118,1727990300940,-1.1054688,-0.50878906,-0.061523438,124.5,36.46875,55.65625
119,119,1727990300980,-0.671875,-0.053710938,0.21191406,62.5,22.5,14.625
120,120,1727990301020,-0.34277344,-0.57714844,0.15527344,0.59375,-28.34375,21.15625
121,121,1727990301060,-0.45898438,-0.6894531,0.42285156,-75.46875,-64.59375,-26.1875
122,122,1727990301100,-0.25683594,-0.03125,-0.4921875,65.84375,-23.625,9.03125
123,123,1727990301140,-0.07128906,-0.6435547,-0.1015625,17.25,-28.875,-1.59375
124,124,1727990301180,-0.77734375,-1.0810547,0.34179688,-60.875,-87.28125,-87.40625
125,125,1727990301220,-1.9121094,-0.8876953,0.39160156,-7.15625,-55.0625,-132.28125
126,126,1727990301260,-2.0,-0.6972656,0.33496094,108.9375,-0.75,-98.46875
127,127,1727990301300,-1.3427734,-0.6386719,0.50390625,5.21875,5.40625,-61.34375
128,128,1727990301340,-0.91308594,-0.123046875,0.2578125,-12.21875,8.65625,11.15625
129,129,1727990301380,-0.87597656,-0.36132812,0.25195312,17.0625,8.84375,41.3125
130,130,1727990301420,-0.58496094,-0.26757812,0.31445312,20.125,22.5625,69.125
131,131,1727990301460,-0.46679688,0.09375,0.07714844,71.875,34.15625,85.75
132,132,1727990301500,-0.33984375,0.053710938,0.01171875,40.34375,64.3125,98.5
133,133,1727990301540,-0.41503906,-0.15136719,-0.10058594,57.125,106.5625,92.34375
134,134,1727990301580,-0.75683594,-0.6591797,0.31054688,3.78125,58.15625,81.46875
135,135,1727990301620,-0.390625,-0.9785156,0.40625,86.34375,71.6875,26.0
136,136,1727990301660,-0.3828125,-0.057617188,-0.25097656,-20.65625,0.65625,-26.9375
137,137,1727990301700,-1.3994141,1.0224609,2.0,-11.0,-90.03125,-1.1875
138,138,1727990301740,-1.2519531,-0.76953125,-1.8242188,224.53125,85.875,-37.375
139,139,1727990301780,-2.0,-2.0,-0.41992188,-1024.0,-193.1875,-180.4375
140,140,1727990301820,-1.7236328,-0.109375,-1.1865234,373.40625,5.59375,-39.125
141,141,1727990301860,-0.6386719,-0.15625,-0.46777344,4.0625,13.28125,4.0625
142,142,1727990301900,-1.0898438,-0.4638672,-0.421875,-190.09375,18.34375,27.28125
143,143,1727990301940,-1.0859375,-0.9003906,0.2861328,-132.21875,7.4375,72.5625
144,144,1727990301980,-0.22558594,-0.49121094,0.13476562,43.875,52.90625,72.8125
145,145,1727990302020,-0.58496094,-0.21191406,0.026367188,25.3125,20.8125,-0.6875
146,146,1727990302060,-0.36035156,-0.40625,0.09472656,-9.28125,-29.5,-19.84375
147,147,1727990302100,-0.12109375,-0.48046875,0.23046875,-24.5625,-52.9375,-45.5
148,148,1727990302140,-0.5263672,-0.26757812,0.060546875,-74.0625,-67.21875,-99.9375
149,149,1727990302180,-0.5048828,-0.5576172,0.33984375,-130.15625,-84.1875,-116.78125
150,150,1727990302220,-1.5732422,-1.1826172,-0.001953125,61.5,-66.65625,-186.59375
151,151,1727990302260,-1.8847656,-0.72753906,0.48046875,65.90625,4.0,-103.59375
152,152,1727990302300,-1.3662109,-1.1923828,0.7753906,15.5,44.53125,-65.6875
153,153,1727990302340,-1.1025391,-0.3486328,0.5136719,-3.375,15.65625,20.4375
154,154,1727990302380,-0.8457031,-0.24511719,0.4560547,43.5625,18.0625,73.28125
155,155,1727990302420,-0.3671875,-0.15039062,0.16503906,52.53125,20.75,94.03125
156,156,1727990302460,-0.34960938,-0.07519531,-0.051757812,48.6875,48.5625,111.25
157,157,1727990302500,-0.27734375,-0.10546875,-0.0068359375,80.90625,76.40625,107.21875
158,158,1727990302540,-0.42382812,-0.28515625,0.1015625,118.21875,99.21875,77.1875
159,159,1727990302580,-0.59472656,-0.33789062,0.37597656,94.78125,82.1875,49.4375
160,160,1727990302620,-0.34570312,-0.5878906,0.3359375,88.125,73.53125,14.5
161,161,1727990302660,-1.4023438,-0.34570312,1.5292969,-80.71875,-26.9375,-67.15625
162,162,1727990302700,-0.7265625,0.091796875,-2.0,169.34375,149.28125,-5.75
163,163,1727990302740,-2.0,0.625,-0.9277344,-350.0625,18.34375,-33.46875
164,164,1727990302780,-1.3671875,-0.14648438,-0.42871094,-201.84375,-23.75,2.3125
165,165,1727990302820,-0.9189453,-0.053710938,-1.2148438,-57.375,6.03125,4.75
166,166,1727990302860,-1.1025391,-0.51660156,-0.7011719,-101.34375,94.71875,25.0
167,167,1727990302900,-0.9980469,-0.73046875,-0.3017578,-306.46875,11.34375,12.75
168,168,1727990302940,-0.9589844,-0.453125,0.044921875,-256.3125,-27.96875,13.71875
169,169,1727990302980,-0.6015625,-0.41308594,-0.08203125,-180.125,-17.09375,31.125
170,170,1727990303020,-0.5,-0.45410156,-0.34570312,-115.625,-18.15625,18.53125
171,171,1727990303060,-0.640625,-0.7392578,-0.42871094,-97.0625,-11.6875,10.71875
172,172,1727990303100,-0.7216797,-0.9746094,-0.1484375,-194.15625,-44.75,6.21875
173,173,1727990303140,-0.97558594,-0.6640625,0.23046875,-48.1875,17.6875,13.71875
174,174,1727990303180,-0.9707031,-0.2626953,0.0390625,6.75,-32.96875,3.03125
175,175,1727990303220,-1.7626953,-0.09765625,0.42089844,-54.46875,-110.0625,-50.96875
176,176,1727990303260,-1.9140625,0.31347656,0.31640625,-45.5,-136.90625,-116.84375
177,177,1727990303300,-1.2958984,0.123046875,0.041992188,-119.8125,-143.15625,-124.28125
178,178,1727990303340,-1.3056641,-0.091796875,-0.30566406,-94.4375,-102.1875,-113.125
179,179,1727990303380,-1.0683594,-0.28027344,0.16992188,-176.53125,-132.15625,-56.65625
180,180,1727990303420,-0.7871094,-0.6875,0.032226562,46.0,-11.4375,-55.0625
181,181,1727990303460,-0.54785156,-0.20410156,-0.20410156,42.03125,-6.71875,-34.1875
182,182,1727990303500,-0.17675781,0.14355469,-0.22070312,59.8125,10.46875,11.28125
183,183,1727990303540,0.026367188,0.46484375,-0.022460938,-6.375,35.9375,32.46875
184,184,1727990303580,-0.17675781,0.17285156,0.10058594,-30.65625,58.40625,74.375
185,185,1727990303620,-0.40722656,-0.4248047,-0.037109375,-29.25,59.0,84.03125
186,186,1727990303660,-0.6542969,-1.1259766,0.16796875,2.78125,64.1875,45.28125
187,187,1727990303700,-0.57128906,-0.36328125,0.072265625,22.875,53.28125,-13.75
188,188,1727990303740,-2.0,0.08984375,2.0,-113.90625,-34.0,-54.65625
189,189,1727990303780,-2.0,0.08984375,-0.58496094,37.03125,49.90625,-29.5625
190,190,1727990303820,-1.3105469,-2.0,2.0,-893.5625,-319.71875,-60.0
191,191,1727990303860,-0.47558594,-0.043945312,-1.2294922,417.96875,-52.5625,-5.5625
192,192,1727990303900,-1.1015625,-0.061523438,-1.7070312,-213.09375,154.03125,1.4375
193,193,1727990303940,-1.21875,-1.1943359,2.0,-465.84375,-220.71875,-34.3125
194,194,1727990303980,-0.9189453,-0.27246094,0.08105469,50.09375,43.8125,56.4375
195,195,1727990304020,-0.5029297,-0.3623047,0.09082031,40.09375,5.0,58.03125
196,196,1727990304060,-0.2998047,-0.5654297,-0.21386719,-31.875,6.5,44.34375
197,197,1727990304100,-0.18945312,-0.7470703,-0.07421875,-50.78125,-12.46875,5.78125
198,198,1727990304140,-0.59277344,-1.1464844,0.33203125,-58.375,-67.34375,-36.34375
199,199,1727990304180,-0.35351562,-0.8183594,0.41015625,33.0625,-116.53125,-109.5
200,200,1727990304220,-0.515625,-0.032226562,-0.8564453,302.0625,45.34375,-23.34375
201,201,1727990304260,-0.57128906,-0.18457031,-0.25097656,75.0625,-6.0,-10.9375
202,202,1727990304300,-1.2675781,-0.7138672,0.45410156,-48.0,-6.5,-96.75
203,203,1727990304340,-2.0,-0.93066406,0.23925781,9.1875,-18.5,-162.78125
204,204,1727990304380,-2.0,-0.73828125,0.6357422,-23.09375,16.84375,-96.625
205,205,1727990304420,-1.2050781,-0.796875,0.24511719,33.96875,30.0625,-28.59375
206,206,1727990304460,-0.671875,-0.44140625,0.37695312,47.90625,20.84375,34.03125
207,207,1727990304500,-0.6298828,-0.083984375,0.203125,107.21875,29.28125,52.34375
208,208,1727990304540,-0.4814453,0.22167969,0.08886719,89.78125,54.90625,67.375
209,209,1727990304580,-0.37304688,0.19042969,-0.060546875,64.5625,83.0625,92.8125
210,210,1727990304620,-0.5048828,-0.0078125,0.0107421875,47.78125,102.46875,92.625
211,211,1727990304660,-0.7050781,-0.20800781,-0.057617188,-21.375,101.84375,61.625
212,212,1727990304700,-0.33984375,-0.35253906,0.52734375,21.40625,64.0625,69.0625
213,213,1727990304740,-0.2265625,-0.7871094,-0.10839844,67.25,83.125,20.75
214,214,1727990304780,-0.9658203,-0.34179688,1.21875,-112.125,-65.625,-61.21875
215,215,1727990304820,-1.2363281,0.046875,-1.7705078,140.78125,165.9375,-33.875
216,216,1727990304860,-2.0,-0.7529297,-1.0712891,56.6875,-55.75,-11.5
217,217,1727990304900,-1.2324219,-0.9375,0.4345703,-28.28125,-88.5625,-58.90625
218,218,1727990304940,-0.5029297,-0.12207031,-0.9902344,96.53125,9.5,-42.5625
219,219,1727990304980,-1.1201172,0.10058594,-0.31445312,-297.625,1.625,14.625
220,220,1727990305020,-1.0976562,-0.55078125,0.24414062,-71.0625,15.125,48.09375
221,221,1727990305060,-0.7998047,-0.42089844,0.1796875,12.375,28.375,65.71875
222,222,1727990305100,-0.58984375,-0.46191406,0.14648438,46.5,2.0,57.46875
223,223,1727990305140,-0.35839844,-0.6621094,0.0390625,18.46875,-25.09375,22.5
224,224,1727990305180,-0.12792969,-0.66015625,0.27441406,-18.21875,-73.6875,-16.6875
225,225,1727990305220,-0.39453125,0.048828125,-0.26660156,-6.4375,-15.09375,-45.0
226,226,1727990305260,-0.16015625,-0.3232422,0.0068359375,26.28125,-56.96875,-36.5
227,227,1727990305300,-0.78808594,-0.9511719,0.2763672,-69.90625,-75.46875,-105.71875
228,228,1727990305340,-2.0,-1.1513672,-0.125,67.3125,-32.90625,-147.65625
229,229,1727990305380,-2.0,-0.9121094,0.3564453,35.8125,29.59375,-80.71875
230,230,1727990305420,-1.4794922,-0.74121094,0.4892578,-0.875,85.625,-47.5625
231,231,1727990305460,-1.2744141,-0.5214844,0.5253906,52.78125,62.78125,15.84375
232,232,1727990305500,-0.67089844,-0.12109375,0.3046875,106.0,42.65625,38.625
233,233,1727990305540,-0.6923828,0.12011719,0.17773438,49.53125,14.3125,58.28125
234,234,1727990305580,-0.4345703,0.16503906,0.051757812,51.4375,26.40625,81.59375
235,235,1727990305620,-0.18066406,0.23535156,0.052734375,39.59375,36.4375,77.125
236,236,1727990305660,-0.31835938,0.1640625,0.1640625,8.28125,60.53125,57.59375
237,237,1727990305700,-0.26367188,-0.31933594,-0.12792969,2.78125,72.75,67.6875
238,238,1727990305740,-0.1875,-1.0175781,0.29101562,6.6875,42.40625,54.71875
239,239,1727990305780,-0.43359375,-0.7861328,-0.125,73.84375,56.75,-24.625
240,240,1727990305820,-1.5224609,-0.2529297,0.24902344,-261.25,-38.15625,-112.5
241,241,1727990305860,-2.0,0.25390625,-0.97265625,191.21875,-8.6875,-74.0625
242,242,1727990305900,-1.5195312,-0.31640625,-0.39746094,13.09375,-163.09375,-9.53125
243,243,1727990305940,-0.7783203,-0.6064453,-0.58203125,110.15625,-14.125,10.375
244,244,1727990305980,-1.0966797,-0.8623047,-0.7246094,-85.03125,77.8125,41.4375
245,245,1727990306020,-1.0048828,-0.9277344,0.23632812,-312.9375,-22.34375,7.125
246,246,1727990306060,-0.8623047,-0.265625,0.26464844,71.28125,34.59375,32.625
247,247,1727990306100,-0.44433594,0.12792969,-0.10644531,71.6875,38.375,75.1875
248,248,1727990306140,-0.34179688,-0.27246094,-0.20996094,-26.875,-16.0625,46.125
249,249,1727990306180,-0.06640625,-0.5527344,0.140625,-29.1875,-32.4375,14.3125
250,250,1727990306220,-0.10839844,-0.40625,0.30566406,-50.4375,-46.21875,-16.5625
251,251,1727990306260,-0.5371094,-0.58203125,0.046875,28.125,-39.6875,-71.25
252,252,1727990306300,-0.6982422,-0.4345703,0.09863281,-18.21875,-51.46875,-90.09375
253,253,1727990306340,-1.3476562,-0.7294922,0.11425781,-110.6875,-74.1875,-130.375
254,254,1727990306380,-2.0,-1.7744141,0.2705078,20.25,-33.46875,-154.0
255,255,1727990306420,-2.0,-0.8779297,0.11816406,75.84375,17.0625,-64.53125
256,256,1727990306460,-1.2558594,-0.7402344,0.2734375,35.6875,33.0,9.03125
257,257,1727990306500,-0.9277344,-0.32421875,0.4951172,60.90625,36.25,53.21875
258,258,1727990306540,-0.55078125,0.02734375,0.3232422,109.375,29.71875,77.9375
259,259,1727990306580,-0.35839844,-0.0859375,0.051757812,122.53125,38.25,91.59375
260,260,1727990306620,-0.14355469,-0.026367188,0.020507812,92.28125,64.625,82.75
261,261,1727990306660,-0.2685547,-0.15820312,-0.02734375,101.1875,72.0625,49.65625
262,262,1727990306700,-0.5449219,-0.15820312,0.32617188,87.03125,37.21875,17.4375
263,263,1727990306740,-0.6123047,-0.35742188,0.3408203,64.125,27.875,11.28125
264,264,1727990306780,-0.5341797,-0.45898438,0.50878906,21.15625,12.75,-37.90625
265,265,1727990306820,-0.9316406,0.22460938,0.7050781,-148.21875,-65.5,-43.59375
266,266,1727990306860,-0.75683594,-0.5673828,-2.0,146.84375,96.0625,-4.28125
267,267,1727990306900,-2.0,-0.18066406,-0.96191406,-248.96875,-4.59375,-77.21875
268,268,1727990306940,-1.4414062,0.79296875,-0.9140625,38.25,8.90625,2.0
269,269,1727990306980,-0.47070312,-0.0234375,-1.0253906,28.375,25.25,43.3125
270,270,1727990307020,-1.2958984,-0.6933594,-0.9423828,-41.28125,138.46875,26.90625
271,271,1727990307060,-1.2470703,-0.6220703,-0.58984375,-230.125,104.65625,2.3125
272,272,1727990307100,-1.0908203,-0.5605469,0.083984375,-435.6875,-95.46875,10.46875
273,273,1727990307140,-0.43847656,-0.58203125,0.091796875,-271.9375,-44.8125,16.21875
274,274,1727990307180,-0.34765625,-0.40039062,-0.5126953,-38.71875,-25.28125,28.71875
275,275,1727990307220,-0.5283203,-0.63964844,-0.12109375,-226.53125,-76.84375,44.46875
276,276,1727990307260,-0.71191406,-0.9980469,-0.265625,22.1875,18.84375,3.40625
277,277,1727990307300,-1.1455078,-0.34765625,0.17089844,-20.53125,10.65625,-19.4375
278,278,1727990307340,-1.1806641,-0.36132812,0.08984375,-38.28125,-90.40625,-34.75
279,279,1727990307380,-1.9677734,-0.13867188,0.7714844,-100.78125,-147.78125,-140.53125
280,280,1727990307420,-1.6582031,0.36523438,0.60839844,-186.59375,-189.96875,-190.3125
281,281,1727990307460,-1.2705078,-0.16992188,-0.28710938,-126.0625,-40.59375,-145.71875
282,282,1727990307500,-1.5810547,-0.6611328,0.08496094,-159.75,-134.125,-64.59375
283,283,1727990307540,-0.8769531,-0.60058594,0.17285156,104.53125,-41.9375,-83.625
284,284,1727990307580,-0.71484375,-0.0107421875,-0.0546875,99.65625,-16.25,-60.875
285,285,1727990307620,-0.31835938,-0.18554688,-0.34960938,97.28125,-23.5625,-14.90625
286,286,1727990307660,-0.18261719,0.2919922,-0.0087890625,39.84375,5.90625,12.625
287,287,1727990307700,-0.171875,0.25976562,0.10546875,-12.84375,71.28125,36.0
288,288,1727990307740,-0.765625,-0.23535156,0.23730469,0.46875,131.34375,95.875
289,289,1727990307780,-1.1074219,-1.2011719,-0.12402344,-109.8125,115.59375,110.34375
290,290,1727990307820,-0.7519531,-1.7763672,0.4111328,-61.40625,99.96875,46.5625
291,291,1727990307860,-1.1943359,0.22558594,-0.76464844,252.65625,85.3125,25.8125
292,292,1727990307900,-2.0,0.23828125,0.119140625,57.34375,167.09375,-56.78125
293,293,1727990307940,-0.8222656,0.7861328,-0.38378906,-17.53125,90.9375,129.4375
294,294,1727990307980,-0.22265625,0.044921875,-0.9189453,-87.65625,-53.71875,61.5
295,295,1727990308020,-1.09375,-0.9355469,-0.8222656,193.03125,54.71875,41.65625
296,296,1727990308060,-0.98828125,-0.87890625,-0.048828125,-263.5625,77.0625,-42.375
297,297,1727990308100,-1.1015625,-0.17089844,0.4560547,-267.21875,-56.34375,-75.53125
298,298,1727990308140,-0.8408203,-0.038085938,-0.51464844,29.28125,24.46875,-17.28125
299,299,1727990308180,-0.90234375,-0.14550781,-0.20800781,-141.3125,-34.1875,-21.6875
300,300,1727990308220,-0.78808594,-0.5986328,-0.19628906,-78.875,-23.34375,-15.625
301,301,1727990308260,-0.86621094,-0.21777344,-0.11621094,-85.78125,-21.8125,-1.1875
302,302,1727990308300,-0.82128906,-0.4716797,-0.15429688,-57.75,-16.5,26.15625
303,303,1727990308340,-0.86621094,-0.6015625,-0.11816406,-65.6875,-30.59375,5.90625
304,304,1727990308380,-0.9667969,-0.6640625,-0.19921875,-25.15625,-27.84375,-22.40625
305,305,1727990308420,-1.0742188,-0.41503906,0.09472656,-39.3125,-79.125,-45.125
306,306,1727990308460,-1.8154297,-0.5410156,0.63671875,-31.25,-101.15625,-129.15625
307,307,1727990308500,-1.7832031,0.26464844,0.6738281,13.46875,-130.9375,-135.6875
308,308,1727990308540,-1.3964844,0.23339844,-0.16210938,-101.09375,-142.46875,-84.1875
309,309,1727990308580,-0.9638672,-0.4248047,-0.18261719,-140.21875,-139.59375,-38.34375
310,310,1727990308620,-0.78027344,-0.60058594,0.18945312,-18.875,-80.46875,-54.59375
311,311,1727990308660,-0.4375,-0.828125,0.6689453,-263.8125,-157.0,-119.46875
312,312,1727990308700,-0.7792969,-0.265625,-0.2841797,130.59375,-61.28125,-25.90625
313,313,1727990308740,-0.49023438,0.051757812,0.0087890625,36.0625,-42.0,-28.28125
314,314,1727990308780,-0.44726562,0.087890625,0.12109375,-10.875,13.59375,4.25
315,315,1727990308820,-0.3876953,-0.2861328,0.11425781,-18.25,86.71875,59.875
316,316,1727990308860,-0.2998047,-0.16113281,0.30371094,4.6875,175.78125,109.0625
317,317,1727990308900,-1.3251953,-0.7597656,0.18164062,-77.84375,191.09375,75.1875
318,318,1727990308940,-1.1484375,-2.0,-0.001953125,-171.09375,26.09375,37.59375
319,319,1727990308980,-1.5761719,-0.23339844,-0.6533203,171.96875,137.4375,23.59375
320,320,1727990309020,-1.6953125,1.4101562,1.1455078,-213.8125,43.875,-6.59375
321,321,1727990309060,-0.6875,0.73828125,-0.31640625,-47.1875,2.25,60.65625
322,322,1727990309100,-0.828125,-0.50390625,-0.6669922,-4.09375,-18.9375,54.375
323,323,1727990309140,-0.90722656,-0.8310547,-0.5449219,88.0,91.59375,25.9375
324,324,1727990309180,-0.9921875,-0.48535156,-0.44921875,-258.375,3.84375,-65.09375
325,325,1727990309220,-1.1835938,-0.23828125,0.40820312,-259.0,-41.65625,-45.1875
326,326,1727990309260,-0.85839844,-0.15234375,-0.45214844,-53.59375,-11.6875,-22.96875
327,327,1727990309300,-0.86621094,-0.21484375,-0.20214844,-160.71875,-52.5,-27.1875
328,328,1727990309340,-0.6953125,-0.6699219,-0.2861328,-131.3125,-43.71875,-24.4375
329,329,1727990309380,-0.77734375,-0.5683594,-0.12695312,-111.84375,-39.3125,-14.40625
330,330,1727990309420,-0.7470703,-0.46289062,-0.25,-33.875,-5.03125,14.5
331,331,1727990309460,-0.88964844,-0.4736328,-0.16796875,-35.21875,-28.09375,20.3125
332,332,1727990309500,-1.1269531,-0.51953125,-0.10839844,-1.46875,-25.03125,0.34375
333,333,1727990309540,-1.1914062,-0.7001953,0.38964844,-33.09375,-75.34375,-2.28125
334,334,1727990309580,-0.91308594,-0.7607422,0.4296875,-31.15625,-150.71875,-52.5
335,335,1727990309620,-2.0,-0.29882812,0.3642578,-37.96875,-171.71875,-143.375
336,336,1727990309660,-1.5917969,0.171875,-0.07714844,18.46875,-88.875,-157.59375
337,337,1727990309700,-1.2578125,-0.3828125,-0.21875,-61.1875,-94.375,-144.90625
338,338,1727990309740,-1.2939453,-0.54589844,0.20605469,-101.6875,-59.84375,-66.125
339,339,1727990309780,-0.54785156,-0.49414062,0.052734375,63.53125,-33.28125,-94.25
340,340,1727990309820,-0.6972656,-0.047851562,-0.0009765625,149.53125,-15.15625,-73.4375
341,341,1727990309860,-0.484375,0.034179688,-0.20117188,129.125,-9.28125,-31.8125
342,342,1727990309900,-0.17578125,0.39160156,0.0390625,12.625,36.0,8.03125
343,343,1727990309940,-0.26367188,0.24804688,0.072265625,-70.21875,54.0625,47.96875
344,344,1727990309980,-0.7470703,-0.3935547,0.021484375,-55.8125,81.84375,87.03125
345,345,1727990310020,-1.0224609,-0.9199219,0.2421875,20.125,90.0625,67.90625
346,346,1727990310060,-0.5625,-0.27148438,0.58496094,45.9375,64.4375,57.46875
347,347,1727990310100,-0.5048828,-0.47851562,0.08105469,-9.125,64.9375,35.4375
348,348,1727990310140,-0.78222656,-0.34277344,0.35351562,-60.375,21.96875,9.125
349,349,1727990310180,-0.85546875,-0.13769531,0.57714844,-117.09375,-5.21875,-5.09375
350,350,1727990310220,-1.4384766,-0.24609375,-1.4306641,11.28125,54.25,-2.75
351,351,1727990310260,-2.0,-1.8867188,1.5507812,-257.21875,-313.84375,-38.71875
352,352,1727990310300,-0.9111328,0.5751953,-2.0,585.4375,54.4375,54.5625
353,353,1727990310340,-0.0107421875,0.024414062,-0.4794922,145.375,59.0625,11.40625
354,354,1727990310380,-1.2666016,-0.66308594,-0.34375,-275.65625,33.90625,-19.53125
355,355,1727990310420,-1.3925781,-0.859375,0.72558594,-437.9375,-86.0,-14.90625
356,356,1727990310460,-0.7236328,-0.28320312,-0.07421875,146.21875,66.8125,60.40625
357,357,1727990310500,-0.6357422,-0.2841797,-0.3828125,11.8125,41.375,52.65625
358,358,1727990310540,-0.6953125,-0.5996094,-0.11816406,-128.5,2.375,26.71875
359,359,1727990310580,-0.59277344,-0.68847656,0.39453125,-184.03125,-65.6875,13.28125
360,360,1727990310620,-0.36914062,-0.8222656,0.3408203,-8.625,-90.40625,-26.3125
361,361,1727990310660,-0.21972656,-0.71875,0.27246094,0.78125,-119.875,-79.78125
362,362,1727990310700,-0.69921875,0.19042969,-0.35742188,236.5,-8.375,-25.59375
363,363,1727990310740,-0.6113281,-0.53027344,-0.19628906,32.46875,-85.34375,-52.375
364,364,1727990310780,-1.2236328,-0.9140625,0.2529297,-178.25,-186.84375,-132.46875
365,365,1727990310820,-2.0,-1.9306641,0.36621094,-77.21875,-56.78125,-151.6875
366,366,1727990310860,-1.7080078,-0.7861328,0.18066406,118.5625,37.65625,-72.90625
367,367,1727990310900,-1.1171875,-0.36328125,0.34375,9.6875,20.375,-17.65625
368,368,1727990310940,-0.91015625,-0.31640625,0.36035156,13.71875,31.53125,30.125
369,369,1727990310980,-0.6611328,-0.44140625,0.15039062,93.375,41.0625,43.375
370,370,1727990311020,-0.421875,-0.032226562,0.06933594,105.03125,56.6875,68.65625
371,371,1727990311060,-0.31054688,0.10253906,-0.02734375,90.375,83.125,90.0
372,372,1727990311100,-0.35546875,0.103515625,0.119140625,111.25,92.625,86.71875
373,373,1727990311140,-0.7783203,-0.28320312,0.013671875,122.375,120.71875,56.3125
374,374,1727990311180,-0.56933594,0.0390625,0.6347656,45.53125,105.34375,70.84375
375,375,1727990311220,-0.28320312,-0.40234375,0.32421875,82.375,67.625,26.96875
376,376,1727990311260,-0.48242188,-0.1953125,0.08300781,-101.8125,-30.15625,-30.15625
377,377,1727990311300,-2.0,0.546875,1.9287109,-39.5625,-48.34375,-23.6875
378,378,1727990311340,-2.0,-0.21582031,-1.8613281,82.375,-28.40625,-5.625
379,379,1727990311380,-2.0,-2.0,0.0048828125,-551.59375,-63.0,-34.0
380,380,1727990311420,-1.3085938,-0.10546875,-0.5214844,403.4375,29.28125,-68.25
381,381,1727990311460,-0.265625,-0.07324219,-0.7783203,32.6875,-14.96875,-21.875
382,382,1727990311500,-1.2392578,-0.27246094,-0.80566406,-273.875,18.71875,2.25
383,383,1727990311540,-0.8574219,-0.9169922,0.4091797,-278.875,-130.75,30.125
384,384,1727990311580,-0.65527344,-0.53808594,0.06933594,116.9375,50.03125,59.625
385,385,1727990311620,-0.48046875,-0.7578125,0.21875,16.9375,-18.375,31.0625
386,386,1727990311660,-0.359375,-0.453125,0.5185547,-6.78125,-45.59375,-13.5
387,387,1727990311700,-0.44433594,0.026367188,-0.25,42.53125,-61.53125,-36.03125
388,388,1727990311740,-0.20996094,-0.3310547,-0.171875,-48.1875,-63.25,-39.125
389,389,1727990311780,-0.8339844,-1.2753906,0.32421875,-205.8125,-78.5625,-118.25
390,390,1727990311820,-1.6748047,-1.0341797,-0.11230469,129.9375,-36.15625,-132.09375
391,391,1727990311860,-2.0,-0.7529297,0.21777344,77.25,23.65625,-101.53125
392,392,1727990311900,-1.3505859,-1.0244141,0.4892578,-46.84375,52.40625,-57.5625
393,393,1727990311940,-0.91796875,-0.3310547,0.35546875,26.0,29.9375,30.4375
394,394,1727990311980,-0.5390625,-0.14453125,0.31347656,69.3125,17.875,46.96875
395,395,1727990312020,-0.57910156,-0.16796875,0.06738281,70.0625,20.5,60.46875
396,396,1727990312060,-0.2841797,0.083984375,0.09375,83.0,33.5,84.09375
397,397,1727990312100,-0.107421875,0.16699219,0.06347656,41.65625,49.1875,81.28125
398,398,1727990312140,-0.6660156,0.047851562,-0.040039062,12.9375,62.125,61.75
399,399,1727990312180,-0.6279297,-0.2841797,0.01171875,-20.46875,48.15625,63.21875
400,400,1727990312220,-0.49316406,-0.375,0.31347656,-43.84375,61.25,74.6875
401,401,1727990312260,-1.1699219,-0.7089844,0.96191406,32.8125,85.875,16.15625
402,402,1727990312300,-1.7861328,0.0625,0.94628906,-138.9375,-170.1875,-54.65625
403,403,1727990312340,-1.7177734,0.44335938,-1.3388672,-73.5,45.625,26.84375
404,404,1727990312380,-2.0,-0.5644531,-0.5966797,-103.59375,63.65625,-18.75
405,405,1727990312420,-1.0029297,-1.4208984,0.30566406,-331.875,-132.59375,23.25
406,406,1727990312460,-0.7324219,0.07324219,-0.7441406,77.0625,58.8125,-10.15625
407,407,1727990312500,-0.8623047,0.08691406,-0.5390625,-310.0625,-52.8125,-29.625
408,408,1727990312540,-0.81347656,-0.3310547,-0.0546875,-177.9375,-58.1875,6.875
409,409,1727990312580,-0.5488281,-0.4716797,-0.3017578,-120.1875,-50.6875,21.96875
410,410,1727990312620,-0.23828125,-0.6308594,-0.107421875,-78.625,-48.90625,28.78125
411,411,1727990312660,-0.20996094,-0.63964844,-0.15039062,-31.03125,-32.5625,15.0625
412,412,1727990312700,-0.65527344,-0.97558594,-0.021484375,-26.625,-41.65625,-23.75
413,413,1727990312740,-0.5078125,-0.5732422,0.23730469,-28.65625,-104.875,-45.84375
414,414,1727990312780,-1.0166016,-0.091796875,-0.32910156,110.59375,-56.65625,2.375
415,415,1727990312820,-0.6533203,-1.2089844,0.62890625,-96.21875,-160.15625,-16.4375
416,416,1727990312860,-1.7568359,-0.6640625,0.00390625,120.03125,-18.375,-118.84375
417,417,1727990312900,-2.0,0.091796875,0.9980469,-96.5,-6.53125,-155.96875
418,418,1727990312940,-1.3544922,-0.48339844,0.55371094,-107.4375,-22.59375,-108.96875
419,419,1727990312980,-1.1933594,-0.3154297,0.48046875,15.5,-0.4375,-27.96875
420,420,1727990313020,-0.9580078,-0.38183594,0.5439453,31.34375,-10.8125,-29.3125
421,421,1727990313060,-0.7470703,0.17773438,0.29296875,71.8125,-30.28125,-17.71875
422,422,1727990313100,-0.1640625,0.36035156,-0.091796875,49.65625,-29.125,25.25
423,423,1727990313140,-0.13574219,0.1953125,-0.08105469,31.34375,17.0625,45.8125
424,424,1727990313180,-0.20117188,-0.12402344,-0.09667969,-6.71875,65.34375,61.3125
425,425,1727990313220,-0.8486328,-0.41503906,-0.18457031,-40.125,64.5625,51.1875
426,426,1727990313260,-1.1191406,-0.6611328,0.23535156,-58.90625,119.3125,83.0
427,427,1727990313300,-0.7392578,-0.71484375,0.24804688,46.25,111.125,25.25
428,428,1727990313340,-0.58984375,-0.26953125,0.2998047,-144.53125,30.9375,6.03125
429,429,1727990313380,-0.5214844,-0.36816406,0.5966797,-117.9375,40.9375,5.0625
430,430,1727990313420,-0.8017578,0.16308594,1.0898438,8.09375,-51.78125,12.1875
431,431,1727990313460,-1.2519531,-0.78808594,-1.6806641,70.34375,56.5625,26.84375
432,432,1727990313500,-2.0,-0.82910156,-1.2128906,71.59375,83.1875,-5.8125
433,433,1727990313540,-0.42773438,-1.3183594,2.0,-1024.0,-227.8125,12.625
434,434,1727990313580,-0.13867188,0.2109375,-0.8544922,406.84375,9.375,-8.5
435,435,1727990313620,-0.83203125,0.06933594,-1.9345703,-340.03125,70.96875,-31.625
436,436,1727990313660,-1.2646484,-1.5615234,2.0,-456.6875,-291.75,-21.4375
437,437,1727990313700,-1.0175781,-0.3623047,-0.22265625,77.6875,14.15625,-0.9375
438,438,1727990313740,-0.19726562,-0.47753906,-0.076171875,-49.34375,-30.15625,33.3125
439,439,1727990313780,-0.4345703,-0.75683594,0.12988281,-48.1875,-28.9375,11.9375
440,440,1727990313820,-0.37304688,-0.98046875,0.55566406,-49.03125,-70.375,-22.21875
441,441,1727990313860,-0.38183594,0.0625,-0.37695312,103.75,-55.1875,-21.625
442,442,1727990313900,-0.19824219,-0.25097656,0.07714844,74.6875,-74.71875,-8.8125
443,443,1727990313940,-0.5859375,-1.0283203,0.061523438,-81.8125,-87.84375,-84.0
444,444,1727990313980,-1.6845703,-0.92871094,-0.0546875,-79.84375,-61.78125,-143.15625
445,445,1727990314020,-2.0,-1.4384766,0.32128906,48.625,26.53125,-129.65625
446,446,1727990314060,-1.4746094,-0.41601562,0.4013672,41.4375,72.25,-54.53125
447,447,1727990314100,-0.8779297,-0.24609375,0.34179688,44.1875,60.46875,10.84375
448,448,1727990314140,-0.6972656,-0.0146484375,0.27441406,49.71875,47.40625,38.125
449,449,1727990314180,-0.578125,0.20605469,0.059570312,25.9375,41.78125,72.625
450,450,1727990314220,-0.40039062,0.11230469,0.072265625,5.65625,64.125,113.28125
451,451,1727990314260,-0.38183594,0.047851562,0.22460938,83.53125,85.4375,120.84375
452,452,1727990314300,-0.7548828,-0.23925781,0.3232422,-45.78125,50.65625,99.84375
453,453,1727990314340,-0.22070312,-1.2949219,-0.026367188,48.4375,11.8125,93.90625
454,454,1727990314380,-0.13476562,-0.7871094,-0.33691406,130.65625,76.65625,-8.5
455,455,1727990314420,-1.3535156,0.3935547,0.64941406,-213.6875,-69.15625,-115.3125
456,456,1727990314460,-2.0,-0.029296875,-0.765625,254.75,56.6875,-49.6875
457,457,1727990314500,-2.0,-0.13378906,-0.29882812,-138.6875,-65.75,-17.78125
458,458,1727990314540,-1.2880859,-0.55859375,-0.4111328,3.28125,-15.03125,35.75
459,459,1727990314580,-0.99316406,-1.2695312,-0.171875,-102.90625,-5.09375,36.4375
460,460,1727990314620,-0.6591797,-0.97753906,0.41308594,-263.5,-71.0,-25.78125
461,461,1727990314660,-0.5527344,-0.43652344,0.7001953,50.65625,-101.46875,-63.25
462,462,1727990314700,-0.4794922,-0.05078125,0.07421875,-42.25,-133.4375,-80.09375
463,463,1727990314740,-0.0126953125,-0.051757812,-0.25976562,36.71875,-124.65625,-91.1875
464,464,1727990314780,-0.26171875,-0.19921875,-0.059570312,13.34375,-98.21875,-89.5
465,465,1727990314820,-1.9130859,-1.4482422,-0.2705078,-44.03125,15.25,-150.90625
466,466,1727990314860,-0.7714844,-0.61035156,0.4736328,69.75,21.90625,-41.8125
467,467,1727990314900,-0.68652344,-0.6279297,0.22070312,95.8125,99.96875,63.875
468,468,1727990314940,-0.734375,-0.052734375,0.25976562,16.9375,161.46875,116.375
469,469,1727990314980,-0.6855469,0.14550781,0.5673828,-7.03125,136.65625,121.625
470,470,1727990315020,-0.60058594,-0.6074219,0.9746094,109.71875,90.75,122.375
471,471,1727990315060,-0.5361328,-1.5800781,0.46972656,-66.40625,-25.46875,5.59375
472,472,1727990315100,-0.48339844,-0.20800781,0.92871094,-73.6875,-149.5625,-65.6875
473,473,1727990315140,-1.6884766,-0.2763672,-2.0,462.875,166.84375,-47.1875
474,474,1727990315180,-2.0,-0.11425781,2.0,-452.21875,64.6875,98.3125
475,475,1727990315220,-0.5019531,1.0810547,-1.6064453,350.15625,135.0625,119.1875
476,476,1727990315260,-0.46972656,0.13964844,-0.8613281,81.59375,53.15625,2.78125
477,477,1727990315300,-1.0898438,-0.087890625,-0.47558594,-271.0,36.3125,-23.28125
478,478,1727990315340,-1.0839844,-0.3955078,-0.38183594,-221.875,6.21875,-12.59375
479,479,1727990315380,-0.49804688,-0.6347656,-0.36816406,-201.0,-2.8125,13.59375
480,480,1727990315420,-0.5283203,-0.95410156,-0.44921875,-118.96875,7.4375,-16.625
481,481,1727990315460,-1.0986328,-0.6640625,-0.109375,-258.5625,-28.28125,-59.84375
482,482,1727990315500,-0.87597656,-0.63671875,0.06542969,-325.625,-118.84375,-58.96875
483,483,1727990315540,-0.8330078,-0.87890625,-0.18164062,17.0,-25.34375,-6.53125
484,484,1727990315580,-0.7451172,-0.73535156,-0.095703125,-16.875,-44.09375,-8.375
485,485,1727990315620,-0.8691406,-0.16503906,-0.11621094,-58.125,-43.65625,-12.15625
486,486,1727990315660,-1.0400391,0.0703125,-0.08203125,-66.40625,-45.0,49.96875
487,487,1727990315700,-0.44433594,-0.6904297,0.33007812,-48.71875,-73.25,27.09375
488,488,1727990315740,-1.328125,-0.58984375,0.5185547,-63.84375,-147.46875,-60.3125
489,489,1727990315780,-2.0,-0.029296875,0.20410156,25.1875,-111.21875,-169.625
490,490,1727990315820,-1.7861328,0.24121094,-0.0390625,-204.3125,-139.90625,-162.90625
491,491,1727990315860,-0.78125,-0.6923828,0.109375,-128.4375,-60.6875,-59.53125
492,492,1727990315900,-1.1132812,-0.7246094,0.42871094,45.34375,-50.75,-57.8125
493,493,1727990315940,-0.8046875,-0.07421875,0.3935547,181.6875,-81.5625,-84.78125
494,494,1727990315980,-0.76464844,0.23339844,-0.6035156,213.78125,-51.96875,-27.3125
495,495,1727990316020,-0.12109375,0.32421875,0.11035156,-11.78125,-83.5,26.46875
496,496,1727990316060,-0.48828125,0.11425781,0.20507812,-113.40625,-38.21875,37.65625
497,497,1727990316100,-0.6591797,-0.68066406,-0.08105469,-138.1875,29.71875,54.125
498,498,1727990316140,-0.77441406,-0.79785156,0.31152344,-168.21875,80.3125,104.15625
499,499,1727990316180,-0.2109375,-0.90625,0.17578125,-9.0625,53.75,73.59375
500,500,1727990316220,-0.55371094,-0.23144531,0.07421875,15.625,57.78125,60.59375
501,501,1727990316260,-0.55371094,-0.3203125,0.25976562,70.0625,68.71875,49.71875
502,502,1727990316300,-0.6972656,-0.41210938,0.36328125,62.375,78.78125,33.625
503,503,1727990316340,-0.85253906,0.12597656,0.9189453,-50.5625,-43.15625,10.375
504,504,1727990316380,-1.0712891,-0.3017578,-1.8203125,134.3125,110.28125,17.875
505,505,1727990316420,-2.0,-1.2177734,-1.2089844,47.78125,-55.8125,-36.5625
506,506,1727990316460,-1.3466797,-0.59375,0.051757812,-155.59375,-78.03125,-40.71875
507,507,1727990316500,-0.34375,0.26464844,-1.1494141,322.8125,154.34375,26.96875
508,508,1727990316540,-1.0234375,-0.4111328,0.061523438,-488.59375,-9.34375,-18.03125
509,509,1727990316580,-1.0273438,-0.028320312,-0.119140625,-4.15625,48.5,15.0625
510,510,1727990316620,-0.5097656,-0.37402344,0.0859375,-22.21875,-28.75,39.96875
511,511,1727990316660,0.013671875,-0.5185547,-0.015625,42.78125,-14.3125,44.1875
512,512,1727990316700,-0.07128906,-0.61621094,0.3251953,-61.59375,-73.3125,-0.25
513,513,1727990316740,-0.42089844,0.22851562,-0.19726562,-6.53125,-63.6875,-12.65625
514,514,1727990316780,-0.62597656,-0.953125,0.11328125,10.1875,-104.25,-69.0
515,515,1727990316820,-0.69921875,-1.4345703,0.69921875,-412.90625,-135.875,-114.09375
516,516,1727990316860,-1.5419922,-0.3017578,0.08984375,62.78125,-80.59375,-184.28125
517,517,1727990316900,-2.0,-2.0,0.41601562,54.6875,-28.875,-178.25
518,518,1727990316940,-1.2617188,-0.43359375,0.32226562,50.09375,29.21875,-60.5
519,519,1727990316980,-0.89746094,-0.32910156,0.061523438,-0.1875,44.90625,19.09375
520,520,1727990317020,-0.9375,-0.17285156,0.27148438,5.0,57.125,73.65625
521,521,1727990317060,-0.3466797,-0.109375,0.13671875,24.40625,109.25,110.46875
522,522,1727990317100,-0.14941406,-0.16796875,0.3955078,28.25,103.25,150.625
523,523,1727990317140,-0.51171875,-0.26953125,0.07324219,12.5,91.21875,124.75
524,524,1727990317180,-0.4140625,-0.9658203,0.26953125,41.71875,24.34375,70.59375
525,525,1727990317220,-0.6748047,-0.7236328,-0.32910156,73.84375,-17.03125,-22.53125
526,526,1727990317260,-1.2460938,0.11816406,-0.9824219,9.25,96.53125,10.1875
527,527,1727990317300,-2.0,-2.0,0.18359375,-634.46875,-278.6875,-192.03125
528,528,1727990317340,-1.1035156,0.046875,-1.2578125,386.59375,53.8125,-5.9375
529,529,1727990317380,-0.00390625,-0.10253906,-0.31347656,10.84375,-2.40625,55.96875
530,530,1727990317420,-0.9169922,-0.45410156,0.0048828125,-95.90625,-33.28125,-15.9375
531,531,1727990317460,-0.63671875,-0.71484375,0.45898438,-194.03125,-72.15625,-1.1875
532,532,1727990317500,-0.41210938,-0.45898438,0.28320312,39.21875,-53.90625,-36.875
533,533,1727990317540,0.0009765625,-0.38183594,-0.041015625,35.25,-89.5,-54.59375
534,534,1727990317580,-0.36132812,-0.34570312,0.19140625,-0.25,-63.25,-89.1875
535,535,1727990317620,-1.4970703,-0.9140625,-0.026367188,11.53125,-11.84375,-131.59375
536,536,1727990317660,-1.8789062,-1.5283203,0.5410156,-5.09375,5.28125,-122.6875
537,537,1727990317700,-1.5517578,-0.7949219,0.39648438,62.78125,44.96875,-59.40625
538,538,1727990317740,-0.9042969,-0.31640625,0.54296875,-2.625,55.96875,13.84375
539,539,1727990317780,-0.6748047,-0.26367188,0.32226562,27.6875,17.875,47.15625
540,540,1727990317820,-0.4921875,-0.15234375,0.20410156,39.53125,8.21875,48.09375
541,541,1727990317860,-0.4033203,-0.09082031,0.2109375,35.3125,32.28125,71.40625
542,542,1727990317900,-0.3876953,-0.15527344,0.15527344,49.78125,58.6875,94.65625
543,543,1727990317940,-0.5185547,-0.27929688,0.16796875,85.75,91.90625,106.625
544,544,1727990317980,-0.83496094,-0.53027344,0.14550781,98.1875,89.65625,73.34375
545,545,1727990318020,-0.2998047,-0.33984375,0.66308594,90.5,74.75,65.84375
546,546,1727990318060,-0.7373047,-0.3359375,1.0322266,-94.875,-35.15625,-1.1875
547,547,1727990318100,-1.2373047,-0.8486328,-2.0,241.1875,179.4375,75.84375
548,548,1727990318140,-1.6308594,-1.1601562,0.10644531,-319.15625,-170.1875,-101.5625
549,549,1727990318180,-2.0,-0.19335938,-0.8808594,49.3125,-26.25,-117.625
550,550,1727990318220,-1.7119141,0.31640625,-0.14550781,-18.03125,122.3125,47.90625
551,551,1727990318260,-1.1816406,-0.9248047,-0.1640625,-139.96875,3.65625,15.3125
552,552,1727990318300,-0.78808594,-0.6933594,0.52441406,-188.0,-40.53125,9.5625
553,553,1727990318340,-0.8017578,0.05859375,-0.13183594,56.0625,56.9375,42.09375
554,554,1727990318380,-0.43847656,-0.35742188,-0.19335938,-68.5625,15.625,40.8125
555,555,1727990318420,-0.6386719,-0.6796875,-0.076171875,-63.75,7.75,18.40625
556,556,1727990318460,-0.58691406,-0.95703125,0.37109375,-49.9375,-36.75,-11.5625
557,557,1727990318500,-0.5439453,-0.62597656,-0.021484375,63.21875,-36.15625,-30.78125
558,558,1727990318540,-0.5810547,-0.51953125,0.18164062,44.40625,-70.5625,-39.1875
559,559,1727990318580,-0.6767578,-0.25097656,-0.5732422,159.90625,41.96875,11.9375
560,560,1727990318620,-0.3251953,-0.75683594,0.28027344,2.1875,-93.75,-15.75
561,561,1727990318660,-1.15625,-0.22070312,0.26464844,71.21875,-50.625,-95.84375
562,562,1727990318700,-1.125,-0.5986328,0.16601562,-27.96875,-51.09375,-82.90625
563,563,1727990318740,-1.6992188,-0.765625,0.15527344,19.28125,-14.25,-109.5
564,564,1727990318780,-2.0,-1.0898438,0.65722656,-109.09375,-0.4375,-115.3125
565,565,1727990318820,-1.2265625,-0.5527344,0.35058594,62.0625,25.5625,-20.875
566,566,1727990318860,-0.78222656,-0.13378906,0.47460938,56.875,-10.5625,20.4375
567,567,1727990318900,-0.5810547,-0.16210938,0.359375,53.03125,-37.3125,23.59375
568,568,1727990318940,-0.63183594,-0.14160156,0.20410156,34.21875,-36.21875,28.5625
569,569,1727990318980,-0.4423828,-0.115234375,-0.017578125,35.9375,-27.40625,40.9375
570,570,1727990319020,-0.40722656,-0.030273438,-0.037109375,51.9375,-23.03125,54.3125
571,571,1727990319060,-0.33496094,-0.047851562,0.0029296875,17.6875,11.71875,59.8125
572,572,1727990319100,-0.5673828,-0.32714844,0.123046875,-29.375,85.3125,77.8125
573,573,1727990319140,-0.7763672,-0.49902344,0.3984375,-82.0,151.53125,109.0
574,574,1727990319180,-1.0595703,-0.5595703,1.1230469,28.125,188.21875,103.9375
575,575,1727990319220,-0.5517578,-1.8291016,0.2783203,-51.90625,52.90625,-9.65625
576,576,1727990319260,-1.2646484,-0.5126953,1.4072266,-158.9375,-37.375,-71.0
577,577,1727990319300,-1.6279297,0.7705078,-1.1611328,75.4375,128.34375,5.78125
578,578,1727990319340,-2.0,0.5810547,-1.2646484,-101.34375,-63.0,-8.375
579,579,1727990319380,-0.47460938,-0.6904297,0.1015625,-319.34375,-163.71875,-20.15625
580,580,1727990319420,-0.9189453,-0.2919922,-0.5419922,42.59375,41.3125,-11.3125
581,581,1727990319460,-1.0664062,0.16015625,-0.49414062,-100.34375,45.09375,3.09375
582,582,1727990319500,-0.9472656,-0.24804688,-0.62109375,-225.46875,13.34375,26.59375
583,583,1727990319540,-0.76171875,-0.54296875,-0.06542969,-287.78125,-68.25,37.03125
584,584,1727990319580,-0.3251953,-0.48535156,-0.171875,-198.4375,-13.125,50.28125
585,585,1727990319620,-0.76660156,-0.31347656,-0.0703125,-151.75,-6.4375,61.03125
586,586,1727990319660,-0.6513672,-1.0839844,-0.06542969,-126.96875,-81.5,48.15625
587,587,1727990319700,-0.6982422,-1.0205078,-0.2939453,36.0,-12.03125,-9.40625
588,588,1727990319740,-2.0,-1.1162109,0.23925781,18.0625,-71.375,-86.8125
589,589,1727990319780,-1.7900391,0.26171875,-0.0048828125,-73.75,-104.09375,-165.40625
590,590,1727990319820,-1.4472656,-0.07519531,0.20800781,-181.15625,-115.625,-160.34375
591,591,1727990319860,-0.96972656,-0.36914062,-0.01171875,-98.03125,-27.34375,-110.0
592,592,1727990319900,-1.2060547,-0.5917969,0.45703125,-21.5625,15.0,-61.125
593,593,1727990319940,-1.1708984,-0.3251953,0.043945312,99.59375,9.8125,-53.0625
594,594,1727990319980,-0.5253906,-0.064453125,-0.10449219,86.84375,-1.46875,-55.25
595,595,1727990320020,-0.15527344,0.15136719,-0.32128906,76.65625,-4.21875,-29.0
596,596,1727990320060,-0.234375,0.125,0.033203125,7.90625,37.46875,-0.8125
597,597,1727990320100,-0.52734375,-0.037109375,0.123046875,-6.53125,106.25,31.71875
598,598,1727990320140,-0.6357422,-0.12792969,0.19433594,79.6875,149.53125,81.21875
599,599,1727990320180,-1.328125,-1.8535156,0.12695312,-114.75,36.46875,55.78125
600,600,1727990320220,-2.0,-1.6757812,0.41210938,-24.125,-18.75,-99.125
601,601,1727990320260,-1.3046875,2.0,0.4296875,402.875,20.90625,82.03125
602,602,1727990320300,0.22460938,0.6826172,-1.1357422,-241.90625,30.375,67.375
603,603,1727990320340,-0.6699219,-0.36328125,-0.73339844,-111.59375,7.3125,2.65625
604,604,1727990320380,-2.0,-1.1367188,-0.58691406,119.375,67.71875,4.6875
605,605,1727990320420,-0.84765625,-0.36816406,-0.15917969,-316.59375,6.625,-13.4375
606,606,1727990320460,-0.9316406,0.0107421875,0.017578125,-136.78125,14.4375,2.71875
607,607,1727990320500,-0.82128906,-0.15625,-0.25097656,-46.40625,28.625,25.125
608,608,1727990320540,-0.9560547,-0.44726562,-0.625,-165.78125,-11.84375,11.71875
609,609,1727990320580,-0.7998047,-0.6689453,-0.36132812,-166.46875,-32.1875,15.5
610,610,1727990320620,-0.6035156,-0.71191406,0.047851562,-199.0625,-68.75,18.53125
611,611,1727990320660,-0.8535156,-0.76660156,-0.029296875,-17.03125,-7.78125,20.625
612,612,1727990320700,-0.86816406,-0.6123047,-0.31835938,76.34375,15.84375,9.5
613,613,1727990320740,-1.1669922,-0.1484375,0.42382812,-88.5625,-58.125,-23.40625
614,614,1727990320780,-1.8173828,-0.5253906,0.0703125,1.6875,-98.53125,-71.71875
615,615,1727990320820,-1.8095703,0.2548828,0.59277344,-86.1875,-153.28125,-146.625
616,616,1727990320860,-1.4296875,0.15332031,0.24609375,-110.96875,-172.25,-142.28125
617,617,1727990320900,-1.1748047,-0.032226562,-0.17285156,-137.59375,-117.25,-94.5
618,618,1727990320940,-0.8769531,-0.7089844,0.15136719,-170.84375,-159.375,-88.28125
619,619,1727990320980,-0.8359375,-0.3251953,0.1015625,22.5,-66.3125,-74.90625
620,620,1727990321020,-0.7480469,-0.35742188,-0.061523438,41.1875,-66.0,-48.125
621,621,1727990321060,-0.4736328,-0.20507812,-0.087890625,34.15625,-53.0,-33.09375
622,622,1727990321100,-0.33203125,0.2783203,0.072265625,28.78125,-14.65625,1.8125
623,623,1727990321140,-0.30566406,-0.015625,0.16796875,-4.96875,58.875,52.21875
624,624,1727990321180,-0.5136719,-0.38183594,0.37695312,12.625,159.53125,121.09375
625,625,1727990321220,-0.875,-0.57421875,0.28320312,-14.1875,188.34375,99.78125
626,626,1727990321260,-1.4121094,-1.3603516,-0.30566406,-154.75,126.03125,8.90625
627,627,1727990321300,-2.0,-0.50390625,0.09863281,-18.21875,26.46875,-11.84375
628,628,1727990321340,-1.1191406,1.5117188,0.39160156,-27.71875,-17.59375,7.5
629,629,1727990321380,-0.19433594,0.66796875,-0.8378906,-230.0,20.5,49.0625
630,630,1727990321420,-0.93359375,-0.4423828,-0.5546875,-43.96875,4.625,7.625
631,631,1727990321460,-1.3955078,-1.5185547,0.20800781,40.34375,14.09375,40.5
632,632,1727990321500,-0.8652344,-0.29492188,-0.19335938,-134.65625,17.625,-31.6875
633,633,1727990321540,-0.99316406,-0.034179688,-0.30566406,-56.90625,28.96875,-21.5625
634,634,1727990321580,-0.98339844,-0.30078125,-0.31933594,-119.28125,8.96875,9.375
635,635,1727990321620,-0.9394531,-0.44140625,-0.24902344,-148.4375,-10.28125,26.21875
636,636,1727990321660,-0.7158203,-0.51171875,-0.08691406,-129.21875,-42.3125,35.5
637,637,1727990321700,-0.74902344,-1.0703125,-0.140625,-66.78125,-63.90625,30.0625
638,638,1727990321740,-0.6689453,-0.9892578,-0.15625,2.5,-22.65625,-30.03125
639,639,1727990321780,-1.2070312,-0.123046875,0.18945312,-12.53125,-18.4375,-57.3125
640,640,1727990321820,-1.3408203,-0.09863281,0.046875,-4.46875,-104.6875,-36.34375
641,641,1727990321860,-1.4228516,-0.9892578,0.3359375,-46.71875,-154.5,-102.0
642,642,1727990321900,-1.4521484,-0.36132812,0.43554688,54.0,-107.875,-171.21875
643,643,1727990321940,-1.5595703,0.23632812,-0.21679688,0.46875,-117.15625,-91.25
644,644,1727990321980,-0.82910156,-0.2890625,-0.1015625,-110.1875,-135.21875,-53.0
645,645,1727990322020,-0.8173828,-0.68359375,0.08496094,49.4375,-26.3125,-70.9375
646,646,1727990322060,-0.7080078,-0.36914062,-0.061523438,109.84375,-4.59375,-50.0
647,647,1727990322100,-0.59375,-0.034179688,-0.23046875,156.71875,25.25,-21.0
648,648,1727990322140,-0.33984375,0.3388672,-0.11230469,93.375,48.4375,-9.78125
649,649,1727990322180,-0.30273438,0.22753906,0.044921875,-8.125,82.125,31.25
650,650,1727990322220,-0.4423828,-0.060546875,0.14257812,-29.0625,109.375,61.75
651,651,1727990322260,-0.5449219,-0.54296875,0.21386719,-26.6875,139.5625,74.03125
652,652,1727990322300,-0.7265625,-0.6113281,0.41796875,4.375,85.96875,35.5625
653,653,1727990322340,-0.6660156,-0.21386719,-0.08886719,24.8125,58.15625,1.15625
654,654,1727990322380,-1.7675781,0.3798828,1.3115234,-12.78125,-5.25,-8.25
655,655,1727990322420,-1.8945312,-0.17382812,-1.0361328,54.0625,94.96875,15.96875
656,656,1727990322460,-2.0,-2.0,2.0,-969.5625,-324.46875,-204.96875
657,657,1727990322500,-0.86621094,0.1875,-1.6533203,373.875,-74.46875,-4.46875
658,658,1727990322540,-1.2216797,-0.15039062,-0.5683594,-369.78125,40.9375,18.0
659,659,1727990322580,-0.859375,-1.0478516,0.5292969,-182.625,-25.46875,33.90625
660,660,1727990322620,-0.8544922,-0.06933594,-0.0068359375,39.84375,55.21875,51.1875
661,661,1727990322660,-0.6435547,-0.21191406,0.032226562,75.375,13.59375,57.0
662,662,1727990322700,-0.3173828,-0.64941406,0.12011719,-46.78125,-46.34375,20.84375
663,663,1727990322740,-0.22949219,-0.54003906,0.203125,-50.25,-74.78125,-37.0625
664,664,1727990322780,-0.19140625,-0.21484375,-0.18457031,-2.625,-35.40625,-19.53125
665,665,1727990322820,-0.46484375,-0.5595703,-0.11230469,-34.0625,-43.09375,-55.625
666,666,1727990322860,-0.8027344,-0.9121094,0.17871094,-12.71875,-79.375,-63.5
667,667,1727990322900,-1.8076172,-1.3671875,0.37890625,-38.53125,-91.03125,-159.9375
668,668,1727990322940,-2.0,-1.0458984,0.3466797,118.21875,-21.8125,-118.375
669,669,1727990322980,-1.4052734,-0.6875,0.4375,52.90625,4.0625,-84.90625
670,670,1727990323020,-0.83984375,-0.20898438,0.16210938,64.125,31.0,10.0625
671,671,1727990323060,-0.6035156,-0.28710938,0.21289062,34.78125,27.5625,34.40625
672,672,1727990323100,-0.5214844,-0.0546875,0.14257812,58.625,48.8125,52.90625
673,673,1727990323140,-0.3671875,0.123046875,0.12597656,64.5,63.28125,82.6875
674,674,1727990323180,-0.25976562,0.15625,0.16601562,48.09375,105.6875,104.96875
675,675,1727990323220,-0.60058594,-0.05859375,0.099609375,49.25,130.90625,93.4375
676,676,1727990323260,-1.1269531,-0.54589844,0.32128906,158.625,73.09375,77.25
677,677,1727990323300,-0.09765625,-0.6455078,0.37695312,28.125,68.28125,45.40625
678,678,1727990323340,-0.20703125,-0.53515625,0.017578125,-78.4375,-13.3125,-18.875
679,679,1727990323380,-0.81347656,0.25,-1.2568359,-44.03125,87.375,-50.4375
680,680,1727990323420,-2.0,-0.56640625,-1.3457031,44.71875,-50.125,-66.96875
681,681,1727990323460,-1.5214844,-0.7753906,0.21484375,22.625,-64.59375,4.9375
682,682,1727990323500,-0.10839844,0.0107421875,-0.89453125,124.8125,5.65625,-42.8125
683,683,1727990323540,-1.4511719,0.40527344,-0.107421875,-219.4375,-2.21875,14.9375
684,684,1727990323580,-1.1972656,-0.8466797,0.0048828125,-127.8125,-8.1875,42.15625
685,685,1727990323620,-0.7480469,-0.98828125,0.23144531,-23.34375,8.96875,53.625
686,686,1727990323660,-0.5683594,-0.44433594,0.13574219,80.90625,37.59375,56.875
687,687,1727990323700,-0.44335938,-0.53808594,0.1328125,27.75,-15.59375,29.84375
688,688,1727990323740,-0.1328125,-0.66796875,0.28027344,-13.6875,-64.15625,-19.78125
689,689,1727990323780,-0.41992188,-0.072265625,-0.2578125,18.46875,-30.34375,-44.4375
690,690,1727990323820,-0.62109375,-0.1484375,0.13867188,-48.78125,-80.65625,-48.78125
691,691,1727990323860,-0.7392578,-1.0009766,-0.03515625,-24.375,-38.28125,-69.09375
692,692,1727990323900,-1.6855469,-1.6855469,0.71191406,-50.0,-57.875,-166.21875
693,693,1727990323940,-2.0,-0.42089844,0.20410156,144.75,9.6875,-116.34375
694,694,1727990323980,-1.2753906,-0.4814453,0.88378906,1.4375,32.09375,-69.78125
695,695,1727990324020,-1.109375,-0.33984375,0.6230469,15.0,1.21875,-12.03125
696,696,1727990324060,-0.7607422,-0.21582031,0.3779297,32.5625,-20.65625,32.625
697,697,1727990324100,-0.6777344,-0.05859375,0.18652344,20.5625,-22.28125,31.28125
698,698,1727990324140,-0.53027344,0.041015625,0.16503906,14.8125,-22.28125,46.25
699,699,1727990324180,-0.375,-0.0126953125,0.19433594,9.125,0.21875,61.15625
700,700,1727990324220,-0.4482422,0.049804688,-0.0390625,-26.4375,55.09375,86.90625
701,701,1727990324260,-0.6201172,-0.32128906,0.017578125,-32.71875,62.5,102.65625
702,702,1727990324300,-0.4423828,-0.4736328,0.041992188,-57.875,76.59375,84.15625
703,703,1727990324340,-0.37109375,-0.30078125,0.072265625,-92.0,104.125,59.25
704,704,1727990324380,-1.7070312,-1.2929688,0.22558594,-217.25,-2.28125,1.6875
705,705,1727990324420,-2.0,-0.107421875,-0.7763672,9.03125,109.1875,-32.59375
706,706,1727990324460,-2.0,-0.4140625,0.99609375,-475.34375,-79.65625,-16.9375
707,707,1727990324500,-1.2519531,-0.44335938,-0.609375,-50.0,-61.71875,17.625
708,708,1727990324540,-0.6142578,-0.74609375,-0.97753906,71.9375,67.96875,47.09375
709,709,1727990324580,-1.0107422,-0.4873047,-0.859375,-276.875,18.34375,-29.0625
710,710,1727990324620,-1.3056641,0.11230469,0.70214844,-461.4375,-83.9375,-19.5
711,711,1727990324660,-0.5683594,-0.55371094,-0.16601562,-28.28125,-28.28125,26.46875
712,712,1727990324700,-0.29101562,-0.52441406,-0.47851562,-117.3125,-41.6875,8.46875
713,713,1727990324740,-0.28027344,-0.484375,-0.053710938,-184.46875,-96.9375,-23.9375
714,714,1727990324780,-0.32617188,-0.484375,-0.13085938,-106.40625,-62.9375,-21.75
715,715,1727990324820,-0.59472656,-0.4609375,0.12109375,-122.03125,-124.78125,-11.1875
716,716,1727990324860,-0.61816406,-0.9316406,0.051757812,14.3125,-97.65625,-20.34375
717,717,1727990324900,-0.75390625,-0.5576172,0.043945312,45.46875,-58.65625,-13.1875
718,718,1727990324940,-1.9101562,-0.77441406,0.0078125,98.25,-47.0,-58.125
719,719,1727990324980,-2.0,-0.33984375,0.7109375,-17.90625,1.03125,-210.84375
720,720,1727990325020,-1.9560547,-0.36035156,0.10839844,79.15625,36.125,-196.96875
721,721,1727990325060,-1.5390625,0.10058594,0.6191406,-132.40625,-118.96875,-52.75
722,722,1727990325100,-1.0761719,-0.2763672,0.4892578,90.8125,34.78125,-80.15625
723,723,1727990325140,-0.7792969,0.11816406,0.2626953,67.96875,-55.75,-65.375
724,724,1727990325180,-0.22949219,0.58691406,-0.07128906,-10.15625,-29.8125,-15.21875
725,725,1727990325220,-0.18652344,0.034179688,-0.12597656,-12.03125,1.28125,35.5
726,726,1727990325260,-0.087890625,0.0625,-0.22265625,-24.25,37.71875,82.5
727,727,1727990325300,-0.31054688,-0.08203125,-0.041992188,-36.46875,63.09375,113.75
728,728,1727990325340,-0.9501953,-0.42285156,0.3798828,41.5625,29.34375,98.125
729,729,1727990325380,-0.43652344,-1.2490234,-0.3359375,3.46875,71.03125,41.0625
730,730,1727990325420,-0.5097656,-0.57714844,-0.051757812,69.1875,99.59375,2.90625
731,731,1727990325460,-2.0,-0.0234375,2.0,-198.75,-73.4375,-30.53125
732,732,1727990325500,-2.0,-0.5810547,-1.4287109,61.25,54.84375,-25.15625
733,733,1727990325540,-0.5722656,-2.0,2.0,-812.28125,-283.15625,-27.3125
734,734,1727990325580,-0.5546875,0.009765625,-1.7763672,457.5625,-53.125,-26.5625
735,735,1727990325620,-0.8339844,-0.14648438,-1.375,-397.90625,124.375,11.9375
736,736,1727990325660,-1.0107422,-0.5332031,-0.0087890625,-80.8125,52.09375,34.46875
737,737,1727990325700,-1.1630859,-0.5605469,0.31152344,-65.8125,9.09375,46.75
738,738,1727990325740,-0.50878906,-0.48046875,0.3076172,49.84375,-10.6875,44.90625
739,739,1727990325780,-0.46191406,-0.38964844,0.27441406,-30.71875,-61.53125,-0.125
740,740,1727990325820,-0.3203125,-0.22753906,-0.111328125,-14.40625,-74.78125,-22.125
741,741,1727990325860,-0.19140625,-0.028320312,-0.2783203,-14.0,-64.53125,-13.9375
742,742,1727990325900,-0.040039062,-0.31054688,-0.3623047,-34.8125,-0.1875,4.5625
743,743,1727990325940,-0.9326172,-1.2763672,0.11328125,-242.625,-88.6875,-82.28125
744,744,1727990325980,-1.3349609,-1.2910156,0.20019531,33.25,-14.65625,-137.46875
745,745,1727990326020,-2.0,-1.3222656,-0.051757812,75.53125,-53.40625,-160.53125
746,746,1727990326060,-1.9287109,-0.7558594,0.23632812,39.90625,18.53125,-76.90625
747,747,1727990326100,-1.0556641,-0.36914062,0.3310547,12.75,49.84375,-29.5625
748,748,1727990326140,-0.66503906,-0.109375,0.13085938,59.4375,52.84375,61.15625
749,749,1727990326180,-0.2939453,-0.026367188,0.029296875,39.09375,52.40625,82.5625
750,750,1727990326220,-0.5830078,0.05078125,0.14160156,16.21875,69.1875,128.90625
751,751,1727990326260,-0.62597656,-0.10644531,0.045898438,102.78125,100.75,120.34375
752,752,1727990326300,-1.0644531,-0.059570312,0.49316406,65.09375,99.09375,58.15625
753,753,1727990326340,-0.45507812,-0.5986328,0.021484375,70.3125,49.84375,96.59375
754,754,1727990326380,-0.42285156,-0.80078125,-0.0625,4.0,53.5,24.9375
755,755,1727990326420,-1.3339844,0.390625,1.9013672,-293.53125,-126.90625,-49.875
756,756,1727990326460,-1.21875,-0.18066406,-1.2548828,286.65625,118.75,-4.46875
757,757,1727990326500,-2.0,-0.85058594,-0.15527344,214.71875,17.3125,17.0625
758,758,1727990326540,-1.7421875,-0.024414062,1.2548828,-216.375,-104.3125,-79.53125
759,759,1727990326580,-0.7080078,-0.29003906,-0.21191406,143.65625,-29.875,-17.28125
