,Unnamed: 0,timestamp,accel_x,accel_y,accel_z,gyro_x,gyro_y,gyro_z
0,0,1727113488448,0.18579102,-0.1182251,-0.9512329,0.390625,0.453125,0.015625
1,1,1727113488488,0.18286133,-0.12579346,-0.9522095,0.53125,0.25,0.140625
2,2,1727113488528,0.18286133,-0.1260376,-0.9573364,0.65625,0.296875,0.171875
3,3,1727113488568,0.1862793,-0.12628174,-0.96881104,0.65625,0.296875,0.140625
4,4,1727113488608,0.18481445,-0.12628174,-0.96051025,0.9375,0.25,0.21875
5,5,1727113488648,0.19360352,-0.1194458,-0.96343994,0.578125,0.484375,0.1875
6,6,1727113488688,0.1821289,-0.121154785,-0.9697876,0.546875,0.734375,0.15625
7,7,1727113488728,0.1887207,-0.12774658,-0.9663696,0.359375,0.4375,0.09375
8,8,1727113488768,0.18457031,-0.12408447,-0.9639282,0.03125,0.4375,0.1875
9,9,1727113488808,0.18554688,-0.11968994,-0.9522095,0.34375,0.671875,0.03125
10,10,1727113488848,0.18139648,-0.12359619,-0.9595337,-0.015625,0.640625,0.0625
11,11,1727113488888,0.18041992,-0.12579346,-0.95269775,0.078125,0.6875,0.03125
12,12,1727113488928,0.18286133,-0.11993408,-0.9561157,0.171875,0.5,0.15625
13,13,1727113488968,0.18554688,-0.12286377,-0.9678345,-0.3125,0.328125,0.203125
14,14,1727113489008,0.1850586,-0.12652588,-0.9678345,-0.1875,0.140625,0.03125
15,15,1727113489048,0.18383789,-0.124572754,-0.9636841,0.8125,0.890625,0.109375
16,16,1727113489088,0.18115234,-0.12530518,-0.95928955,0.5625,0.484375,0.234375
17,17,1727113489128,0.18310547,-0.12310791,-0.96417236,0.53125,0.59375,0.140625
18,18,1727113489168,0.18334961,-0.11431885,-0.9541626,0.328125,0.609375,0.203125
19,19,1727113489208,0.18164062,-0.120910645,-0.9536743,0.171875,0.34375,0.109375
20,20,1727113489248,0.18066406,-0.120910645,-0.9614868,-0.15625,0.171875,0.09375
21,21,1727113489288,0.19116211,-0.13458252,-0.9578247,0.0625,0.515625,0.171875
22,22,1727113489328,0.18432617,-0.11846924,-0.9614868,0.03125,0.421875,0.015625
23,23,1727113489368,0.18017578,-0.12310791,-0.95880127,-0.09375,0.515625,0.15625
24,24,1727113489408,0.17871094,-0.12017822,-0.9702759,0.046875,-0.046875,0.265625
25,25,1727113489448,0.18457031,-0.13043213,-0.956604,0.921875,0.21875,0.234375
26,26,1727113489488,0.18798828,-0.11846924,-0.97052,1.078125,-0.015625,0.5
27,27,1727113489528,0.19335938,-0.12017822,-0.9553833,1.140625,0.5,0.328125
28,28,1727113489568,0.18383789,-0.12335205,-0.9534302,0.390625,0.484375,0.078125
29,29,1727113489608,0.19140625,-0.117492676,-0.9578247,-0.046875,0.265625,0.15625
30,30,1727113489648,0.17919922,-0.12237549,-0.95758057,-0.578125,0.359375,-0.0625
31,31,1727113489688,0.18017578,-0.11968994,-0.9458618,-0.078125,0.421875,-0.0625
32,32,1727113489728,0.1862793,-0.11456299,-0.95758057,-0.09375,0.6875,-0.0625
33,33,1727113489768,0.18334961,-0.12213135,-0.9631958,0.25,0.421875,-0.03125
34,34,1727113489808,0.19067383,-0.12286377,-0.96954346,0.328125,0.625,-0.140625
35,35,1727113489848,0.18334961,-0.12432861,-0.96466064,0.265625,0.1875,0.0
36,36,1727113489888,0.1899414,-0.1194458,-0.9585571,0.40625,0.359375,-0.265625
37,37,1727113489928,0.18457031,-0.12335205,-0.9607544,0.40625,0.546875,-0.109375
38,38,1727113489968,0.18823242,-0.117004395,-0.9639282,0.34375,0.234375,-0.046875
39,39,1727113490008,0.1809082,-0.1194458,-0.9602661,0.421875,0.359375,0.0625
40,40,1727113490048,0.1887207,-0.120666504,-0.9529419,-0.296875,0.0625,0.203125
41,41,1727113490088,0.18896484,-0.12286377,-0.9636841,-0.109375,-0.265625,0.21875
42,42,1727113490128,0.18383789,-0.11920166,-0.95635986,-0.5,-0.25,0.03125
43,43,1727113490168,0.19091797,-0.12261963,-0.9717407,-1.125,-0.703125,0.046875
44,44,1727113490208,0.19311523,-0.12408447,-0.96881104,-0.84375,-0.375,0.0625
45,45,1727113490248,0.1977539,-0.12628174,-0.96295166,-0.234375,-0.203125,0.09375
46,46,1727113490288,0.19897461,-0.12042236,-0.954895,0.140625,0.03125,0.234375
47,47,1727113490328,0.1940918,-0.12872314,-0.95684814,-0.1875,0.296875,0.109375
48,48,1727113490368,0.19628906,-0.12530518,-0.95147705,-0.03125,0.203125,0.21875
49,49,1727113490408,0.18920898,-0.12774658,-0.9553833,0.0,0.03125,0.234375
50,50,1727113490448,0.1899414,-0.12310791,-0.95977783,0.25,0.28125,0.265625
51,51,1727113490488,0.19311523,-0.12628174,-0.958313,0.546875,0.21875,0.03125
52,52,1727113490528,0.20214844,-0.11846924,-0.96295166,0.578125,0.21875,0.171875
53,53,1727113490568,0.19799805,-0.12628174,-0.96099854,0.453125,0.140625,0.234375
54,54,1727113490608,0.19482422,-0.113586426,-0.96099854,0.359375,0.28125,0.265625
55,55,1727113490648,0.19116211,-0.124816895,-0.9627075,0.15625,0.484375,-0.03125
56,56,1727113490688,0.19555664,-0.1272583,-0.95806885,0.25,0.75,0.0625
57,57,1727113490728,0.19555664,-0.12823486,-0.95880127,0.1875,0.75,0.109375
58,58,1727113490768,0.20214844,-0.12359619,-0.9475708,0.40625,0.453125,0.03125
59,59,1727113490808,0.1940918,-0.120910645,-0.9446411,0.453125,0.53125,0.25
60,60,1727113490848,0.1953125,-0.124816895,-0.958313,0.03125,0.296875,0.125
61,61,1727113490888,0.19921875,-0.12237549,-0.95684814,0.171875,0.265625,0.0625
62,62,1727113490928,0.19604492,-0.12384033,-0.94976807,0.828125,0.4375,0.125
63,63,1727113490968,0.19433594,-0.12506104,-0.95928955,0.28125,-0.3125,0.328125
64,64,1727113491008,0.19897461,-0.11480713,-0.96954346,-0.265625,-0.328125,0.203125
65,65,1727113491048,0.19726562,-0.12652588,-0.96099854,-0.1875,0.0625,0.03125
66,66,1727113491088,0.19873047,-0.12506104,-0.95806885,0.0625,0.203125,-0.015625
67,67,1727113491128,0.20019531,-0.12506104,-0.95928955,0.21875,0.65625,0.1875
68,68,1727113491168,0.1953125,-0.12530518,-0.95513916,0.3125,0.6875,0.015625
69,69,1727113491208,0.19970703,-0.12188721,-0.9624634,0.328125,0.53125,0.25
70,70,1727113491248,0.20239258,-0.120666504,-0.960022,0.46875,0.65625,0.125
71,71,1727113491288,0.19555664,-0.121398926,-0.95880127,0.4375,0.546875,0.078125
72,72,1727113491328,0.19750977,-0.12164307,-0.9607544,0.609375,0.75,0.15625
73,73,1727113491368,0.20385742,-0.12359619,-0.9624634,0.453125,0.71875,0.28125
74,74,1727113491408,0.19970703,-0.117004395,-0.95635986,0.59375,0.578125,0.15625
75,75,1727113491448,0.19360352,-0.120910645,-0.9578247,0.5,0.65625,0.109375
76,76,1727113491488,0.19897461,-0.12164307,-0.9536743,0.265625,0.34375,0.140625
77,77,1727113491528,0.20288086,-0.11871338,-0.95977783,-0.046875,0.4375,0.15625
78,78,1727113491568,0.20385742,-0.11993408,-0.9585571,0.0,0.359375,0.109375
79,79,1727113491608,0.19311523,-0.12579346,-0.9517212,0.65625,0.703125,0.28125
80,80,1727113491648,0.20166016,-0.11431885,-0.9612427,0.15625,0.3125,0.15625
81,81,1727113491688,0.19580078,-0.1260376,-0.9673462,-0.21875,0.703125,0.140625
82,82,1727113491728,0.19824219,-0.12017822,-0.95513916,0.6875,0.921875,0.171875
83,83,1727113491768,0.19360352,-0.11260986,-0.95758057,0.21875,0.5625,0.171875
84,84,1727113491808,0.20117188,-0.117492676,-0.95269775,0.1875,0.546875,0.234375
85,85,1727113491848,0.20043945,-0.117492676,-0.9561157,0.046875,0.171875,0.125
86,86,1727113491888,0.19506836,-0.11065674,-0.9607544,0.03125,0.15625,0.21875
87,87,1727113491928,0.20141602,-0.113342285,-0.9590454,0.15625,0.09375,0.21875
88,88,1727113491968,0.1977539,-0.12408447,-0.96221924,0.078125,0.421875,0.0625
89,89,1727113492008,0.19458008,-0.12017822,-0.9558716,0.46875,0.546875,0.265625
90,90,1727113492048,0.19799805,-0.12164307,-0.96173096,0.328125,0.359375,0.1875
91,91,1727113492088,0.19189453,-0.11212158,-0.94976807,0.28125,0.3125,0.203125
92,92,1727113492128,0.19311523,-0.120910645,-0.9553833,0.265625,0.375,0.25
93,93,1727113492168,0.19799805,-0.11846924,-0.95977783,0.265625,0.5,0.140625
94,94,1727113492208,0.19677734,-0.10992432,-0.96099854,0.15625,0.578125,0.09375
95,95,1727113492248,0.19580078,-0.117248535,-0.9595337,0.1875,0.484375,0.0625
96,96,1727113492288,0.19604492,-0.11260986,-0.95318604,0.1875,0.421875,0.15625
97,97,1727113492328,0.19213867,-0.11968994,-0.95977783,0.078125,0.6875,0.109375
98,98,1727113492368,0.1965332,-0.11456299,-0.9570923,-0.0625,0.671875,-0.03125
99,99,1727113492408,0.19702148,-0.11383057,-0.95758057,0.03125,0.453125,0.15625
100,100,1727113492448,0.203125,-0.11846924,-0.9619751,-0.03125,0.421875,0.234375
101,101,1727113492488,0.19262695,-0.12530518,-0.96099854,-0.09375,0.859375,0.140625
102,102,1727113492528,0.20019531,-0.12628174,-0.9727173,-0.46875,0.953125,0.03125
103,103,1727113492568,0.1928711,-0.11968994,-0.9558716,0.375,1.109375,-0.03125
104,104,1727113492608,0.19506836,-0.113342285,-0.95196533,0.109375,0.9375,-0.046875
105,105,1727113492648,0.1887207,-0.117492676,-0.958313,-0.625,0.609375,0.234375
106,106,1727113492688,0.1965332,-0.12042236,-0.95684814,-0.28125,0.359375,0.125
107,107,1727113492728,0.1928711,-0.11993408,-0.96295166,-0.109375,0.390625,0.234375
108,108,1727113492768,0.19458008,-0.117492676,-0.9627075,0.015625,0.734375,0.140625
109,109,1727113492808,0.19165039,-0.120666504,-0.9668579,0.296875,0.390625,0.15625
110,110,1727113492848,0.20336914,-0.12945557,-0.95684814,0.109375,0.328125,0.203125
111,111,1727113492888,0.19555664,-0.121154785,-0.9649048,0.109375,0.375,0.140625
112,112,1727113492928,0.1977539,-0.1182251,-0.96173096,0.203125,0.484375,0.109375
113,113,1727113492968,0.19067383,-0.12701416,-0.9500122,0.421875,0.453125,0.078125
114,114,1727113493008,0.19018555,-0.11456299,-0.95758057,0.265625,0.0625,0.203125
115,115,1727113493048,0.19482422,-0.11578369,-0.9570923,0.03125,0.46875,0.1875
116,116,1727113493088,0.1928711,-0.120910645,-0.95758057,0.015625,0.0625,0.078125
117,117,1727113493128,0.19750977,-0.1194458,-0.95635986,-0.359375,0.03125,0.140625
118,118,1727113493168,0.19921875,-0.12799072,-0.96173096,-0.078125,0.203125,0.015625
119,119,1727113493208,0.19848633,-0.1182251,-0.9612427,-0.140625,0.0625,0.203125
120,120,1727113493248,0.2006836,-0.11651611,-0.9595337,0.21875,0.4375,0.15625
121,121,1727113493288,0.19848633,-0.12799072,-0.9561157,0.140625,0.484375,0.078125
122,122,1727113493328,0.20239258,-0.12750244,-0.9529419,0.109375,0.34375,0.15625
123,123,1727113493368,0.20581055,-0.11993408,-0.96051025,-0.015625,0.640625,0.0625
124,124,1727113493408,0.20239258,-0.12335205,-0.95806885,-0.203125,0.34375,-0.125
125,125,1727113493448,0.19921875,-0.12774658,-0.9573364,0.515625,0.671875,0.0
126,126,1727113493488,0.19970703,-0.11968994,-0.9500122,0.1875,0.3125,0.265625
127,127,1727113493528,0.19799805,-0.11798096,-0.95806885,0.046875,0.34375,0.125
128,128,1727113493568,0.19628906,-0.128479,-0.95635986,0.140625,0.4375,0.171875
129,129,1727113493608,0.20507812,-0.12384033,-0.9651489,0.078125,0.171875,0.0625
130,130,1727113493648,0.19970703,-0.12554932,-0.9627075,-0.046875,0.234375,0.125
131,131,1727113493688,0.2019043,-0.12896729,-0.9573364,0.015625,0.34375,0.15625
132,132,1727113493728,0.19873047,-0.12701416,-0.94732666,0.296875,0.671875,0.09375
133,133,1727113493768,0.19262695,-0.12628174,-0.95562744,0.421875,0.609375,0.046875
134,134,1727113493808,0.1940918,-0.1272583,-0.9546509,0.6875,0.828125,0.1875
135,135,1727113493848,0.20214844,-0.11578369,-0.95806885,0.734375,0.640625,0.28125
136,136,1727113493888,0.1977539,-0.113586426,-0.9612427,0.828125,0.65625,0.15625
137,137,1727113493928,0.20019531,-0.117492676,-0.960022,0.5625,0.421875,0.15625
138,138,1727113493968,0.20166016,-0.11602783,-0.9619751,0.296875,0.59375,0.0
139,139,1727113494008,0.19726562,-0.11431885,-0.96099854,0.15625,0.375,0.03125
140,140,1727113494048,0.19824219,-0.11846924,-0.95318604,0.03125,0.171875,0.09375
141,141,1727113494088,0.19604492,-0.11553955,-0.9607544,0.03125,0.296875,0.140625
142,142,1727113494128,0.19726562,-0.11651611,-0.95318604,0.46875,0.15625,0.21875
143,143,1727113494168,0.19970703,-0.11871338,-0.95562744,0.609375,-0.015625,0.375
144,144,1727113494208,0.19750977,-0.11431885,-0.9663696,0.609375,0.53125,0.328125
145,145,1727113494248,0.203125,-0.124816895,-0.9680786,0.265625,0.15625,0.125
146,146,1727113494288,0.20410156,-0.11627197,-0.95928955,1.140625,0.625,0.234375
147,147,1727113494328,0.19726562,-0.11773682,-0.96051025,0.90625,0.671875,0.4375
148,148,1727113494368,0.19750977,-0.108947754,-0.9585571,0.40625,0.71875,0.21875
149,149,1727113494408,0.20166016,-0.11651611,-0.9536743,0.203125,0.8125,0.15625
150,150,1727113494448,0.1928711,-0.10626221,-0.954895,0.015625,0.515625,0.0625
151,151,1727113494488,0.19946289,-0.11578369,-0.9524536,-0.09375,0.625,0.046875
152,152,1727113494528,0.19995117,-0.11529541,-0.9561157,0.125,0.59375,0.109375
153,153,1727113494568,0.20263672,-0.109436035,-0.95440674,0.1875,0.515625,0.109375
154,154,1727113494608,0.19970703,-0.11651611,-0.9534302,0.109375,0.4375,0.09375
155,155,1727113494648,0.20336914,-0.11480713,-0.96173096,0.390625,0.59375,0.078125
156,156,1727113494688,0.19702148,-0.11480713,-0.95928955,0.390625,0.796875,0.09375
157,157,1727113494728,0.20166016,-0.11383057,-0.9651489,0.625,0.875,0.265625
158,158,1727113494768,0.19921875,-0.11846924,-0.9590454,0.5625,0.703125,0.109375
159,159,1727113494808,0.20263672,-0.11114502,-0.95758057,0.28125,0.484375,0.140625
160,160,1727113494848,0.19384766,-0.113342285,-0.9536743,0.296875,0.578125,0.078125
161,161,1727113494888,0.20019531,-0.11456299,-0.9553833,0.265625,0.578125,0.203125
162,162,1727113494928,0.19677734,-0.11651611,-0.95391846,-0.015625,0.296875,0.109375
163,163,1727113494968,0.19384766,-0.1104126,-0.95758057,0.0625,0.3125,0.21875
164,164,1727113495008,0.19482422,-0.11383057,-0.9595337,-0.09375,0.34375,0.265625
165,165,1727113495048,0.2055664,-0.11212158,-0.9595337,0.265625,0.53125,0.0
166,166,1727113495088,0.19946289,-0.11480713,-0.954895,0.390625,0.421875,0.140625
167,167,1727113495128,0.20507812,-0.1182251,-0.96173096,0.375,0.234375,0.28125
168,168,1727113495168,0.20043945,-0.11260986,-0.9602661,0.4375,0.453125,0.09375
169,169,1727113495208,0.20263672,-0.11578369,-0.9612427,0.09375,0.3125,0.140625
170,170,1727113495248,0.19628906,-0.11846924,-0.9631958,0.703125,0.828125,0.1875
171,171,1727113495288,0.20239258,-0.11260986,-0.94781494,0.3125,0.8125,0.15625
172,172,1727113495328,0.19921875,-0.10821533,-0.95391846,0.15625,0.515625,0.109375
173,173,1727113495368,0.19750977,-0.11090088,-0.960022,-0.015625,0.28125,0.109375
174,174,1727113495408,0.20410156,-0.113098145,-0.95635986,-0.234375,0.328125,0.0625
175,175,1727113495448,0.1965332,-0.1116333,-0.96173096,-0.140625,0.234375,0.203125
176,176,1727113495488,0.20214844,-0.11773682,-0.96173096,0.203125,0.46875,0.109375
177,177,1727113495528,0.19848633,-0.10845947,-0.96099854,0.28125,0.609375,0.15625
178,178,1727113495568,0.19677734,-0.117492676,-0.9590454,0.328125,0.28125,0.078125
179,179,1727113495608,0.20507812,-0.10845947,-0.96221924,0.203125,0.59375,0.09375
180,180,1727113495648,0.19970703,-0.11016846,-0.9561157,0.328125,0.609375,0.25
181,181,1727113495688,0.20092773,-0.11407471,-0.95562744,0.375,0.203125,0.203125
182,182,1727113495728,0.1965332,-0.10479736,-0.96417236,0.421875,0.453125,0.125
183,183,1727113495768,0.20263672,-0.1116333,-0.96417236,-0.078125,0.125,0.15625
184,184,1727113495808,0.20043945,-0.113098145,-0.95806885,-0.09375,0.078125,0.03125
185,185,1727113495848,0.20117188,-0.1194458,-0.9553833,-0.0625,0.09375,0.234375
186,186,1727113495888,0.20507812,-0.1104126,-0.9553833,-0.125,0.125,0.265625
187,187,1727113495928,0.20117188,-0.10772705,-0.95684814,-0.125,-0.0625,0.09375
188,188,1727113495968,0.19897461,-0.10992432,-0.9463501,0.15625,0.25,-0.03125
189,189,1727113496008,0.20214844,-0.11236572,-0.95440674,0.203125,0.046875,0.234375
190,190,1727113496048,0.19433594,-0.112854004,-0.9578247,0.34375,0.203125,0.140625
191,191,1727113496088,0.20825195,-0.1104126,-0.96099854,0.34375,0.0,0.203125
192,192,1727113496128,0.20605469,-0.1116333,-0.9663696,0.09375,0.40625,0.234375
193,193,1727113496168,0.20678711,-0.112854004,-0.9717407,-0.078125,0.078125,0.171875
194,194,1727113496208,0.20361328,-0.10675049,-0.9590454,0.46875,0.546875,0.140625
195,195,1727113496248,0.20458984,-0.1116333,-0.9573364,0.09375,0.40625,0.03125
196,196,1727113496288,0.20141602,-0.11114502,-0.95025635,0.0625,0.40625,0.125
197,197,1727113496328,0.20288086,-0.1104126,-0.9541626,-0.1875,0.265625,0.046875
198,198,1727113496368,0.20776367,-0.11138916,-0.9590454,-0.515625,0.078125,0.125
199,199,1727113496408,0.21044922,-0.11187744,-0.9619751,-0.515625,0.296875,0.078125
200,200,1727113496448,0.2084961,-0.11480713,-0.9570923,0.015625,0.578125,0.15625
201,201,1727113496488,0.20605469,-0.121398926,-0.95806885,0.203125,0.703125,0.015625
202,202,1727113496528,0.2055664,-0.117004395,-0.95391846,0.078125,0.5625,0.28125
203,203,1727113496568,0.20800781,-0.12042236,-0.9624634,-0.09375,0.515625,0.03125
204,204,1727113496608,0.20727539,-0.113098145,-0.95880127,0.0625,0.421875,0.09375
205,205,1727113496648,0.20385742,-0.1182251,-0.95806885,0.578125,0.5625,0.0625
206,206,1727113496688,0.20678711,-0.11773682,-0.95196533,0.375,0.34375,0.3125
207,207,1727113496728,0.20605469,-0.11212158,-0.9487915,0.421875,0.46875,0.0
208,208,1727113496768,0.20629883,-0.11773682,-0.9536743,0.109375,0.359375,0.078125
209,209,1727113496808,0.20581055,-0.117004395,-0.95806885,0.140625,0.34375,0.265625
210,210,1727113496848,0.21020508,-0.11407471,-0.96343994,0.328125,0.28125,0.171875
211,211,1727113496888,0.20239258,-0.11212158,-0.95098877,0.734375,0.46875,0.234375
212,212,1727113496928,0.20605469,-0.113586426,-0.95318604,0.703125,0.359375,0.296875
213,213,1727113496968,0.2109375,-0.11627197,-0.9639282,0.125,0.515625,0.234375
214,214,1727113497008,0.20361328,-0.11553955,-0.9624634,0.03125,0.5625,0.09375
215,215,1727113497048,0.21044922,-0.116760254,-0.95977783,0.71875,0.71875,0.21875
216,216,1727113497088,0.20385742,-0.10675049,-0.9619751,0.421875,0.671875,0.265625
217,217,1727113497128,0.20117188,-0.11065674,-0.95635986,0.296875,0.671875,0.21875
218,218,1727113497168,0.2084961,-0.109191895,-0.94854736,0.21875,0.59375,0.078125
219,219,1727113497208,0.20654297,-0.10235596,-0.9517212,0.0625,0.46875,0.03125
220,220,1727113497248,0.20581055,-0.11065674,-0.9590454,0.046875,0.296875,0.109375
221,221,1727113497288,0.2055664,-0.11090088,-0.9553833,0.4375,0.5625,0.171875
222,222,1727113497328,0.2055664,-0.112854004,-0.9612427,0.375,0.59375,0.140625
223,223,1727113497368,0.20507812,-0.11187744,-0.9619751,0.765625,0.671875,0.234375
224,224,1727113497408,0.20629883,-0.10675049,-0.9570923,0.6875,0.765625,0.109375
225,225,1727113497448,0.20629883,-0.10626221,-0.96173096,0.53125,0.65625,0.109375
226,226,1727113497488,0.20483398,-0.10870361,-0.9649048,0.546875,0.5,0.28125
227,227,1727113497528,0.20410156,-0.10430908,-0.95928955,0.484375,0.671875,0.234375
228,228,1727113497568,0.20117188,-0.10748291,-0.95269775,0.265625,0.421875,0.1875
229,229,1727113497608,0.20092773,-0.1104126,-0.95928955,0.125,0.5,0.109375
230,230,1727113497648,0.2043457,-0.109191895,-0.95758057,0.09375,0.46875,0.109375
231,231,1727113497688,0.20532227,-0.10772705,-0.9578247,0.125,0.453125,0.171875
232,232,1727113497728,0.20532227,-0.10723877,-0.9558716,0.203125,0.484375,0.125
233,233,1727113497768,0.20214844,-0.101135254,-0.9553833,0.1875,0.609375,0.03125
234,234,1727113497808,0.20336914,-0.105529785,-0.9558716,0.21875,0.65625,0.203125
235,235,1727113497848,0.20336914,-0.11016846,-0.9512329,0.40625,0.46875,0.28125
236,236,1727113497888,0.20385742,-0.10650635,-0.9651489,0.046875,0.59375,0.203125
237,237,1727113497928,0.2084961,-0.11138916,-0.96832275,-0.015625,0.703125,0.234375
238,238,1727113497968,0.19873047,-0.105285645,-0.96099854,0.75,0.8125,0.0625
239,239,1727113498008,0.20361328,-0.10406494,-0.9507446,0.46875,0.875,0.1875
240,240,1727113498048,0.20263672,-0.10601807,-0.9602661,0.03125,0.578125,-0.03125
241,241,1727113498088,0.20166016,-0.105529785,-0.9661255,-0.03125,0.59375,0.1875
242,242,1727113498128,0.203125,-0.09893799,-0.95513916,-0.078125,0.484375,0.1875
243,243,1727113498168,0.20483398,-0.108947754,-0.9644165,0.1875,0.296875,0.25
244,244,1727113498208,0.19824219,-0.1026001,-0.9607544,-0.03125,-0.140625,-0.046875
245,245,1727113498248,0.2055664,-0.09454346,-0.96295166,0.296875,-0.109375,0.03125
246,246,1727113498288,0.20507812,-0.09649658,-0.95147705,0.203125,0.0625,0.03125
247,247,1727113498328,0.2006836,-0.0960083,-0.9553833,-0.046875,-0.140625,0.15625
248,248,1727113498368,0.20605469,-0.09918213,-0.9595337,-0.203125,-0.140625,0.125
249,249,1727113498408,0.2055664,-0.0960083,-0.95928955,0.015625,0.109375,0.078125
250,250,1727113498448,0.20214844,-0.10064697,-0.9673462,-0.28125,0.4375,0.15625
251,251,1727113498488,0.20361328,-0.105041504,-0.9627075,-0.34375,0.484375,0.046875
252,252,1727113498528,0.203125,-0.10064697,-0.956604,0.109375,0.8125,0.109375
253,253,1727113498568,0.20483398,-0.1026001,-0.956604,-0.265625,0.484375,0.15625
254,254,1727113498608,0.2019043,-0.10015869,-0.95269775,-0.21875,0.484375,0.0625
255,255,1727113498648,0.19970703,-0.10284424,-0.9553833,-0.0625,0.171875,0.109375
256,256,1727113498688,0.2019043,-0.09991455,-0.95928955,-0.234375,0.046875,0.015625
257,257,1727113498728,0.20507812,-0.101623535,-0.954895,-0.09375,0.1875,0.03125
258,258,1727113498768,0.20654297,-0.109191895,-0.95880127,0.078125,0.171875,0.140625
259,259,1727113498808,0.20678711,-0.105529785,-0.9602661,0.140625,0.1875,0.296875
260,260,1727113498848,0.2097168,-0.105285645,-0.9673462,0.09375,0.28125,0.171875
261,261,1727113498888,0.20117188,-0.09991455,-0.9558716,0.15625,0.359375,0.15625
262,262,1727113498928,0.20825195,-0.09625244,-0.958313,0.328125,0.53125,0.078125
263,263,1727113498968,0.2055664,-0.09967041,-0.95758057,0.203125,0.578125,0.21875
264,264,1727113499008,0.20898438,-0.10650635,-0.9529419,0.015625,0.34375,-0.0625
265,265,1727113499048,0.20092773,-0.10015869,-0.95880127,-0.15625,0.171875,0.109375
266,266,1727113499088,0.21020508,-0.09869385,-0.9534302,-0.234375,-0.03125,0.078125
267,267,1727113499128,0.20288086,-0.10650635,-0.9590454,-0.171875,0.125,0.015625
268,268,1727113499168,0.21191406,-0.10870361,-0.95562744,-0.09375,0.078125,-0.0625
269,269,1727113499208,0.2084961,-0.11138916,-0.9668579,-0.078125,0.40625,-0.015625
270,270,1727113499248,0.2084961,-0.10211182,-0.96173096,0.140625,0.125,0.0625
271,271,1727113499288,0.20996094,-0.10821533,-0.9558716,0.3125,0.40625,0.125
272,272,1727113499328,0.20703125,-0.11138916,-0.9558716,0.125,0.578125,0.109375
273,273,1727113499368,0.21264648,-0.10821533,-0.9639282,0.046875,0.40625,0.203125
274,274,1727113499408,0.2109375,-0.10089111,-0.9570923,0.421875,0.75,0.171875
275,275,1727113499448,0.21069336,-0.10406494,-0.95196533,0.015625,0.328125,0.1875
276,276,1727113499488,0.21142578,-0.10748291,-0.95684814,-0.046875,0.328125,0.015625
277,277,1727113499528,0.21362305,-0.10479736,-0.95440674,0.0625,0.40625,-0.03125
278,278,1727113499568,0.21459961,-0.11114502,-0.95928955,0.0625,0.171875,0.25
279,279,1727113499608,0.21386719,-0.109191895,-0.96221924,0.015625,0.390625,0.0625
280,280,1727113499648,0.21118164,-0.10772705,-0.9631958,0.53125,0.703125,0.234375
281,281,1727113499688,0.20410156,-0.10992432,-0.95562744,0.4375,0.828125,0.15625
282,282,1727113499728,0.20898438,-0.108947754,-0.956604,0.578125,0.765625,0.1875
283,283,1727113499768,0.21069336,-0.101867676,-0.9500122,0.40625,1.03125,0.0
284,284,1727113499808,0.2109375,-0.105041504,-0.95269775,0.296875,0.921875,0.171875
285,285,1727113499848,0.21020508,-0.097961426,-0.954895,0.1875,0.59375,0.03125
286,286,1727113499888,0.20532227,-0.101867676,-0.96466064,0.078125,0.609375,-0.015625
287,287,1727113499928,0.20751953,-0.11065674,-0.9627075,0.0,0.421875,0.015625
288,288,1727113499968,0.20898438,-0.10601807,-0.96466064,-0.078125,0.625,-0.109375
289,289,1727113500008,0.20800781,-0.113098145,-0.95977783,0.390625,0.65625,0.09375
290,290,1727113500048,0.20361328,-0.105041504,-0.9590454,-0.046875,0.703125,0.09375
291,291,1727113500088,0.20629883,-0.10479736,-0.9553833,0.0,0.484375,0.140625
292,292,1727113500128,0.21069336,-0.10211182,-0.9595337,-0.078125,0.359375,0.015625
293,293,1727113500168,0.19873047,-0.10479736,-0.96173096,0.078125,0.6875,0.046875
294,294,1727113500208,0.21264648,-0.121398926,-0.9456177,1.6875,1.515625,0.234375
295,295,1727113500248,0.20629883,-0.109680176,-0.99053955,-0.21875,0.125,0.375
296,296,1727113500288,0.21557617,-0.10308838,-0.95806885,0.8125,0.734375,0.21875
297,297,1727113500328,0.20166016,-0.10333252,-0.97052,0.828125,0.796875,0.140625
298,298,1727113500368,0.2055664,-0.10626221,-0.9595337,0.75,1.125,0.171875
299,299,1727113500408,0.20507812,-0.1038208,-0.956604,0.40625,0.828125,0.171875
300,300,1727113500448,0.20483398,-0.09869385,-0.94122314,-0.03125,0.453125,0.09375
301,301,1727113500488,0.1965332,-0.09088135,-0.92681885,0.4375,1.0,0.234375
302,302,1727113500528,0.21459961,-0.10626221,-0.9483032,0.125,-0.375,0.171875
303,303,1727113500568,0.19897461,-0.10430908,-0.95318604,0.125,0.296875,0.203125
304,304,1727113500608,0.20214844,-0.10845947,-0.9656372,-0.140625,0.25,0.234375
305,305,1727113500648,0.20825195,-0.10699463,-0.9727173,0.421875,0.609375,0.265625
306,306,1727113500688,0.21069336,-0.113098145,-0.95928955,0.5625,0.765625,0.203125
307,307,1727113500728,0.21020508,-0.105529785,-0.9614868,0.46875,0.640625,0.109375
308,308,1727113500768,0.20825195,-0.10992432,-0.95196533,0.03125,0.359375,0.046875
309,309,1727113500808,0.20239258,-0.09259033,-0.9434204,-0.203125,0.734375,-0.015625
310,310,1727113500848,0.20019531,-0.10821533,-0.9456177,0.328125,0.65625,0.15625
311,311,1727113500888,0.20239258,-0.10357666,-0.9578247,0.484375,1.078125,-0.03125
312,312,1727113500928,0.20043945,-0.11431885,-0.9529419,0.8125,1.15625,-0.03125
313,313,1727113500968,0.20361328,-0.1104126,-0.96295166,0.4375,1.21875,0.015625
314,314,1727113501008,0.20678711,-0.10479736,-0.96661377,-0.125,0.515625,-0.171875
315,315,1727113501048,0.20874023,-0.10455322,-0.9710083,-0.34375,0.25,-0.109375
316,316,1727113501088,0.20385742,-0.09844971,-0.9651489,-0.0625,-0.046875,-0.03125
317,317,1727113501128,0.1965332,-0.10723877,-0.9585571,0.609375,0.734375,0.203125
318,318,1727113501168,0.20947266,-0.11138916,-0.95635986,0.625,0.65625,0.28125
319,319,1727113501208,0.19921875,-0.10064697,-0.9585571,0.328125,0.609375,0.0625
320,320,1727113501248,0.2019043,-0.109680176,-0.9446411,0.40625,0.53125,0.1875
321,321,1727113501288,0.20532227,-0.10333252,-0.96539307,0.25,0.34375,0.140625
322,322,1727113501328,0.2019043,-0.09991455,-0.9573364,-0.15625,-0.25,0.171875
323,323,1727113501368,0.203125,-0.10333252,-0.96051025,-0.0625,-0.28125,0.265625
324,324,1727113501408,0.20678711,-0.09820557,-0.9595337,0.046875,-0.078125,0.21875
325,325,1727113501448,0.20092773,-0.101379395,-0.9636841,-0.15625,0.046875,0.21875
326,326,1727113501488,0.21166992,-0.10626221,-0.9624634,0.203125,0.09375,0.21875
327,327,1727113501528,0.2097168,-0.10211182,-0.9529419,0.1875,0.328125,0.328125
328,328,1727113501568,0.20141602,-0.10675049,-0.9536743,-0.234375,-0.078125,0.171875
329,329,1727113501608,0.20019531,-0.11016846,-0.95513916,-0.28125,0.03125,0.15625
330,330,1727113501648,0.2084961,-0.10308838,-0.94537354,-0.015625,0.125,0.078125
331,331,1727113501688,0.2133789,-0.109191895,-0.9627075,-0.0625,0.4375,0.046875
332,332,1727113501728,0.20898438,-0.11065674,-0.9595337,0.0625,0.671875,0.09375
333,333,1727113501768,0.21289062,-0.109436035,-0.96417236,0.296875,0.796875,-0.015625
334,334,1727113501808,0.20947266,-0.11016846,-0.9631958,0.234375,0.359375,0.15625
335,335,1727113501848,0.20458984,-0.10479736,-0.95806885,0.296875,0.734375,-0.140625
336,336,1727113501888,0.20703125,-0.10723877,-0.9553833,0.390625,0.765625,-0.078125
337,337,1727113501928,0.2055664,-0.10675049,-0.9573364,0.421875,0.6875,-0.125
338,338,1727113501968,0.20727539,-0.10357666,-0.956604,0.4375,0.71875,-0.328125
339,339,1727113502008,0.2055664,-0.09893799,-0.9690552,-0.15625,0.171875,-0.25
340,340,1727113502048,0.20605469,-0.105285645,-0.9529419,-0.125,0.203125,-0.140625
341,341,1727113502088,0.20874023,-0.10675049,-0.95806885,0.0625,0.109375,0.078125
342,342,1727113502128,0.20507812,-0.11212158,-0.9590454,0.15625,0.09375,0.21875
343,343,1727113502168,0.21118164,-0.105285645,-0.9619751,0.328125,0.125,0.328125
344,344,1727113502208,0.21044922,-0.10870361,-0.9614868,-0.390625,-0.5,0.1875
345,345,1727113502248,0.20947266,-0.10748291,-0.9644165,0.0,0.078125,0.296875
346,346,1727113502288,0.21166992,-0.10821533,-0.9631958,0.34375,0.453125,0.265625
347,347,1727113502328,0.20727539,-0.105773926,-0.9524536,1.296875,0.9375,0.265625
348,348,1727113502368,0.21069336,-0.10308838,-0.954895,0.65625,0.390625,0.328125
349,349,1727113502408,0.20361328,-0.10015869,-0.9524536,0.46875,0.796875,0.34375
350,350,1727113502448,0.21411133,-0.10064697,-0.95635986,0.125,0.765625,0.171875
351,351,1727113502488,0.21264648,-0.10626221,-0.95977783,0.15625,0.640625,0.15625
352,352,1727113502528,0.20898438,-0.10211182,-0.9558716,0.15625,0.6875,0.203125
353,353,1727113502568,0.20996094,-0.105529785,-0.9631958,0.296875,0.578125,0.078125
354,354,1727113502608,0.20922852,-0.10992432,-0.958313,0.375,1.015625,0.15625
355,355,1727113502648,0.20336914,-0.11236572,-0.9631958,0.4375,0.8125,0.1875
356,356,1727113502688,0.2109375,-0.105285645,-0.95758057,0.5,0.921875,0.125
357,357,1727113502728,0.20776367,-0.105529785,-0.954895,0.5625,0.796875,0.109375
358,358,1727113502768,0.2055664,-0.09844971,-0.9578247,0.40625,0.53125,0.203125
359,359,1727113502808,0.19921875,-0.09844971,-0.9590454,0.46875,0.640625,0.234375
360,360,1727113502848,0.2043457,-0.1038208,-0.95880127,0.21875,0.40625,0.125
361,361,1727113502888,0.2055664,-0.10357666,-0.95880127,0.34375,0.4375,-0.046875
362,362,1727113502928,0.21020508,-0.097717285,-0.954895,0.34375,0.5625,0.15625
363,363,1727113502968,0.20507812,-0.10455322,-0.958313,0.09375,0.625,0.078125
364,364,1727113503008,0.20825195,-0.09991455,-0.9570923,0.15625,0.421875,0.09375
365,365,1727113503048,0.20263672,-0.101135254,-0.9536743,0.328125,0.6875,0.234375
366,366,1727113503088,0.2109375,-0.10772705,-0.96173096,0.15625,0.5,0.203125
367,367,1727113503128,0.20043945,-0.1038208,-0.96099854,0.21875,0.671875,0.125
368,368,1727113503168,0.20703125,-0.097961426,-0.95880127,0.53125,0.5,0.171875
369,369,1727113503208,0.20727539,-0.09942627,-0.9631958,-0.078125,0.6875,0.078125
370,370,1727113503248,0.20800781,-0.10089111,-0.96710205,-0.34375,0.640625,0.078125
371,371,1727113503288,0.2055664,-0.101379395,-0.96051025,0.578125,0.796875,0.09375
372,372,1727113503328,0.20385742,-0.10064697,-0.95977783,0.28125,0.796875,0.140625
373,373,1727113503368,0.20410156,-0.10479736,-0.95977783,0.21875,0.65625,0.09375
374,374,1727113503408,0.20581055,-0.09527588,-0.9602661,0.15625,0.640625,0.0625
375,375,1727113503448,0.2043457,-0.101867676,-0.9578247,0.265625,0.484375,0.234375
376,376,1727113503488,0.19750977,-0.10308838,-0.9631958,0.21875,0.484375,0.125
377,377,1727113503528,0.19433594,-0.105773926,-0.9614868,0.140625,0.453125,0.21875
378,378,1727113503568,0.20336914,-0.101379395,-0.95806885,0.171875,0.484375,0.21875
379,379,1727113503608,0.2019043,-0.10308838,-0.9561157,0.265625,0.515625,0.21875
380,380,1727113503648,0.20361328,-0.10040283,-0.96173096,0.03125,0.609375,0.03125
381,381,1727113503688,0.20458984,-0.09503174,-0.960022,0.078125,0.625,0.15625
382,382,1727113503728,0.20166016,-0.10211182,-0.95758057,0.0625,0.546875,0.15625
383,383,1727113503768,0.20019531,-0.09991455,-0.9612427,0.21875,0.59375,0.171875
384,384,1727113503808,0.19628906,-0.10455322,-0.9595337,0.25,0.46875,0.0625
385,385,1727113503848,0.20922852,-0.09844971,-0.95880127,0.109375,0.21875,0.015625
386,386,1727113503888,0.20605469,-0.10089111,-0.9561157,-0.015625,0.4375,0.125
387,387,1727113503928,0.19848633,-0.09918213,-0.95758057,0.140625,0.53125,-0.015625
388,388,1727113503968,0.2043457,-0.10357666,-0.958313,0.140625,0.40625,0.171875
389,389,1727113504008,0.20458984,-0.10040283,-0.954895,0.375,0.171875,0.109375
390,390,1727113504048,0.20581055,-0.09698486,-0.95391846,0.6875,0.21875,0.171875
391,391,1727113504088,0.203125,-0.09210205,-0.9522095,0.875,-0.0625,0.3125
392,392,1727113504128,0.20605469,-0.097473145,-0.9727173,0.078125,0.515625,0.171875
393,393,1727113504168,0.20776367,-0.10479736,-0.97369385,-0.359375,0.671875,-0.046875
394,394,1727113504208,0.20483398,-0.1038208,-0.9585571,0.453125,0.96875,0.109375
395,395,1727113504248,0.20361328,-0.101379395,-0.9451294,0.0,0.40625,0.15625
396,396,1727113504288,0.20727539,-0.101623535,-0.95977783,-0.375,0.296875,0.296875
397,397,1727113504328,0.20605469,-0.09893799,-0.95684814,-0.09375,0.40625,0.21875
398,398,1727113504368,0.19897461,-0.09942627,-0.95025635,0.703125,0.25,0.1875
399,399,1727113504408,0.20532227,-0.09991455,-0.9627075,0.96875,0.046875,0.25
400,400,1727113504448,0.2043457,-0.09893799,-0.9663696,0.46875,0.359375,0.234375
401,401,1727113504488,0.20825195,-0.09625244,-0.95880127,0.1875,0.265625,0.15625
402,402,1727113504528,0.20776367,-0.101623535,-0.960022,0.0,-0.03125,0.078125
403,403,1727113504568,0.20605469,-0.09820557,-0.96221924,0.3125,0.640625,0.15625
404,404,1727113504608,0.20678711,-0.097229004,-0.95806885,0.015625,0.3125,0.171875
405,405,1727113504648,0.20898438,-0.09039307,-0.9627075,0.125,0.3125,0.015625
406,406,1727113504688,0.21142578,-0.101135254,-0.9546509,0.15625,0.265625,0.171875
407,407,1727113504728,0.20922852,-0.097717285,-0.9524536,0.046875,0.21875,0.171875
408,408,1727113504768,0.20751953,-0.10040283,-0.95318604,-0.109375,0.234375,0.09375
409,409,1727113504808,0.20214844,-0.101867676,-0.95147705,-0.09375,0.15625,0.125
410,410,1727113504848,0.2097168,-0.10308838,-0.95440674,-0.25,0.03125,-0.03125
411,411,1727113504888,0.20800781,-0.09625244,-0.9595337,0.171875,0.21875,0.109375
412,412,1727113504928,0.20874023,-0.10699463,-0.9636841,-0.015625,0.421875,0.09375
413,413,1727113504968,0.21484375,-0.09991455,-0.96295166,0.546875,0.3125,0.078125
414,414,1727113505008,0.20483398,-0.09820557,-0.9602661,0.296875,0.453125,0.015625
415,415,1727113505048,0.20800781,-0.101379395,-0.9644165,0.09375,0.296875,0.0625
416,416,1727113505088,0.2055664,-0.09649658,-0.9495239,0.046875,0.3125,0.078125
417,417,1727113505128,0.2055664,-0.10015869,-0.9522095,-0.03125,0.484375,0.25
418,418,1727113505168,0.2097168,-0.097961426,-0.95684814,0.015625,0.28125,0.046875
419,419,1727113505208,0.21435547,-0.10235596,-0.95196533,-0.25,0.15625,0.1875
420,420,1727113505248,0.21166992,-0.10235596,-0.96173096,0.1875,0.625,-0.046875
421,421,1727113505288,0.20751953,-0.105285645,-0.9668579,0.21875,0.625,0.09375
422,422,1727113505328,0.2121582,-0.101867676,-0.958313,0.328125,0.765625,0.078125
423,423,1727113505368,0.2121582,-0.093566895,-0.9649048,0.296875,0.859375,0.296875
424,424,1727113505408,0.20922852,-0.097717285,-0.96051025,0.203125,0.875,0.09375
425,425,1727113505448,0.21386719,-0.097961426,-0.95562744,-0.28125,0.328125,0.125
426,426,1727113505488,0.20581055,-0.10357666,-0.9483032,0.03125,0.1875,0.109375
427,427,1727113505528,0.2109375,-0.09820557,-0.9536743,0.140625,0.59375,0.234375
428,428,1727113505568,0.20996094,-0.09869385,-0.96099854,-0.09375,0.5,0.1875
429,429,1727113505608,0.20629883,-0.0960083,-0.96221924,0.03125,0.34375,0.21875
430,430,1727113505648,0.20800781,-0.10479736,-0.9561157,0.375,0.453125,0.1875
431,431,1727113505688,0.2097168,-0.097229004,-0.9631958,0.3125,0.671875,0.03125
432,432,1727113505728,0.2133789,-0.109680176,-0.9680786,0.140625,0.5625,0.1875
433,433,1727113505768,0.20458984,-0.097473145,-0.9534302,0.71875,0.90625,0.234375
434,434,1727113505808,0.20874023,-0.09698486,-0.95928955,0.515625,0.703125,0.21875
435,435,1727113505848,0.20629883,-0.09820557,-0.9541626,0.28125,0.515625,0.28125
436,436,1727113505888,0.20410156,-0.10235596,-0.9570923,0.21875,0.640625,0.15625
437,437,1727113505928,0.2109375,-0.09893799,-0.9595337,0.3125,0.296875,0.234375
438,438,1727113505968,0.20825195,-0.097473145,-0.9644165,0.0,0.515625,0.15625
439,439,1727113506008,0.20605469,-0.101135254,-0.954895,0.28125,0.515625,0.09375
440,440,1727113506048,0.20996094,-0.10235596,-0.9639282,0.203125,0.625,0.1875
441,441,1727113506088,0.20727539,-0.101623535,-0.9649048,0.1875,0.609375,0.171875
442,442,1727113506128,0.21484375,-0.09649658,-0.9614868,0.359375,0.671875,0.296875
443,443,1727113506168,0.20654297,-0.09234619,-0.95684814,0.359375,0.609375,0.171875
444,444,1727113506208,0.20288086,-0.10040283,-0.96173096,0.28125,0.59375,0.203125
445,445,1727113506248,0.21240234,-0.09136963,-0.95513916,0.484375,0.53125,0.15625
446,446,1727113506288,0.20288086,-0.09674072,-0.95806885,0.140625,0.5,0.046875
447,447,1727113506328,0.20825195,-0.094055176,-0.95684814,0.21875,0.484375,0.078125
448,448,1727113506368,0.21435547,-0.09991455,-0.9624634,0.234375,0.515625,0.25
449,449,1727113506408,0.21020508,-0.089660645,-0.96417236,0.078125,0.484375,0.109375
450,450,1727113506448,0.20239258,-0.09649658,-0.9607544,0.1875,0.65625,0.046875
451,451,1727113506488,0.21118164,-0.0960083,-0.95928955,0.125,0.53125,0.03125
452,452,1727113506528,0.20581055,-0.09649658,-0.9573364,0.40625,0.59375,0.15625
453,453,1727113506568,0.20605469,-0.09454346,-0.9541626,0.484375,0.515625,0.21875
454,454,1727113506608,0.20703125,-0.09625244,-0.96466064,-0.015625,0.5,0.140625
455,455,1727113506648,0.21606445,-0.097229004,-0.96417236,-0.0625,0.5625,0.140625
456,456,1727113506688,0.21264648,-0.09307861,-0.9590454,0.65625,1.1875,0.078125
457,457,1727113506728,0.20507812,-0.089904785,-0.9607544,0.140625,0.671875,0.25
458,458,1727113506768,0.20898438,-0.09649658,-0.9590454,0.3125,0.71875,0.046875
459,459,1727113506808,0.20605469,-0.09576416,-0.96051025,0.25,0.578125,0.03125
460,460,1727113506848,0.20092773,-0.09820557,-0.95562744,0.078125,0.390625,0.109375
461,461,1727113506888,0.20361328,-0.09429932,-0.95684814,0.0625,0.3125,0.171875
462,462,1727113506928,0.20727539,-0.10284424,-0.96221924,0.40625,0.578125,0.203125
463,463,1727113506968,0.20458984,-0.09967041,-0.9619751,0.171875,0.359375,0.171875
464,464,1727113507008,0.2097168,-0.09820557,-0.9661255,0.234375,0.515625,0.03125
465,465,1727113507048,0.20629883,-0.09527588,-0.958313,0.140625,0.625,0.21875
466,466,1727113507088,0.20532227,-0.097473145,-0.9614868,0.25,0.640625,0.09375
467,467,1727113507128,0.20605469,-0.097473145,-0.95562744,-0.03125,0.5,0.1875
468,468,1727113507168,0.20751953,-0.09039307,-0.96099854,0.046875,0.515625,0.171875
469,469,1727113507208,0.20532227,-0.093566895,-0.9614868,0.0,0.671875,0.3125
470,470,1727113507248,0.20605469,-0.0960083,-0.9595337,0.21875,0.484375,0.078125
471,471,1727113507288,0.20800781,-0.09576416,-0.96099854,0.28125,0.296875,0.109375
472,472,1727113507328,0.20141602,-0.09210205,-0.9614868,0.265625,0.421875,0.046875
473,473,1727113507368,0.20263672,-0.097961426,-0.9595337,0.328125,0.546875,0.109375
474,474,1727113507408,0.2055664,-0.0960083,-0.9573364,0.203125,0.5,0.265625
475,475,1727113507448,0.20629883,-0.09649658,-0.9590454,0.28125,0.65625,0.03125
476,476,1727113507488,0.20800781,-0.09698486,-0.9614868,0.046875,0.34375,0.203125
477,477,1727113507528,0.20898438,-0.09234619,-0.956604,0.0,0.234375,0.046875
478,478,1727113507568,0.20214844,-0.0947876,-0.9639282,-0.296875,0.296875,0.203125
479,479,1727113507608,0.20629883,-0.09698486,-0.9717407,0.25,0.84375,0.296875
480,480,1727113507648,0.20703125,-0.09039307,-0.954895,0.34375,0.484375,0.078125
481,481,1727113507688,0.20654297,-0.09844971,-0.96588135,-0.234375,0.203125,0.203125
482,482,1727113507728,0.20092773,-0.09429932,-0.9558716,-0.21875,0.046875,0.046875
483,483,1727113507768,0.20629883,-0.09869385,-0.9507446,-0.21875,0.078125,0.21875
484,484,1727113507808,0.20507812,-0.09283447,-0.9561157,0.046875,0.109375,0.234375
485,485,1727113507848,0.21142578,-0.09869385,-0.9512329,0.015625,-0.125,0.1875
486,486,1727113507888,0.20898438,-0.10748291,-0.9607544,0.078125,0.125,0.28125
487,487,1727113507928,0.21142578,-0.1026001,-0.95758057,0.03125,-0.265625,0.21875
488,488,1727113507968,0.20996094,-0.09918213,-0.96051025,0.234375,0.109375,0.125
489,489,1727113508008,0.2097168,-0.097229004,-0.96417236,0.3125,0.34375,0.203125
490,490,1727113508048,0.21020508,-0.10089111,-0.9639282,0.203125,0.359375,0.078125
491,491,1727113508088,0.20898438,-0.097717285,-0.96173096,0.0625,0.578125,0.234375
492,492,1727113508128,0.20898438,-0.10040283,-0.95635986,0.078125,0.6875,0.046875
493,493,1727113508168,0.21020508,-0.09527588,-0.9529419,-0.0625,0.46875,-0.03125
494,494,1727113508208,0.20263672,-0.097717285,-0.95269775,-0.09375,0.578125,-0.015625
495,495,1727113508248,0.20874023,-0.097961426,-0.9524536,-0.125,0.484375,0.09375
496,496,1727113508288,0.21386719,-0.09454346,-0.9619751,0.015625,0.359375,-0.125
497,497,1727113508328,0.20507812,-0.09552002,-0.96295166,0.3125,0.390625,0.015625
498,498,1727113508368,0.20776367,-0.09967041,-0.95977783,0.4375,0.203125,0.0625
499,499,1727113508408,0.21655273,-0.10211182,-0.97125244,0.09375,0.359375,0.265625
500,500,1727113508448,0.20874023,-0.09991455,-0.95928955,0.046875,0.1875,0.15625
501,501,1727113508488,0.21533203,-0.097961426,-0.9607544,0.53125,0.546875,0.328125
502,502,1727113508528,0.20874023,-0.097717285,-0.95196533,0.359375,0.484375,0.125
503,503,1727113508568,0.21264648,-0.09259033,-0.95440674,-0.03125,0.703125,0.1875
504,504,1727113508608,0.20776367,-0.097717285,-0.9529419,0.21875,0.609375,0.125
505,505,1727113508648,0.20678711,-0.093566895,-0.95635986,0.375,0.796875,0.171875
506,506,1727113508688,0.20825195,-0.09429932,-0.958313,0.25,0.703125,0.15625
507,507,1727113508728,0.20922852,-0.09552002,-0.96343994,0.015625,0.71875,0.09375
508,508,1727113508768,0.21044922,-0.09527588,-0.96051025,0.1875,0.546875,0.046875
509,509,1727113508808,0.21679688,-0.0947876,-0.96295166,0.390625,0.90625,0.1875
510,510,1727113508848,0.20361328,-0.097229004,-0.96295166,0.546875,0.96875,0.234375
511,511,1727113508888,0.20776367,-0.09942627,-0.9631958,0.359375,1.140625,0.203125
512,512,1727113508928,0.203125,-0.101135254,-0.95928955,0.453125,0.703125,0.140625
513,513,1727113508968,0.20019531,-0.10040283,-0.9534302,0.234375,0.703125,0.109375
514,514,1727113509008,0.20239258,-0.09307861,-0.95977783,0.109375,0.6875,0.1875
515,515,1727113509048,0.20385742,-0.09454346,-0.9614868,0.171875,0.78125,0.1875
516,516,1727113509088,0.20703125,-0.093322754,-0.96173096,0.4375,0.796875,0.03125
517,517,1727113509128,0.20166016,-0.09698486,-0.956604,0.53125,0.65625,0.265625
518,518,1727113509168,0.2121582,-0.097229004,-0.9529419,0.375,0.578125,0.140625
519,519,1727113509208,0.20214844,-0.093566895,-0.9663696,0.0,0.53125,0.15625
520,520,1727113509248,0.20458984,-0.09674072,-0.9680786,0.0,0.5625,0.28125
521,521,1727113509288,0.20532227,-0.09429932,-0.9602661,0.890625,1.03125,0.171875
522,522,1727113509328,0.20751953,-0.09576416,-0.954895,0.671875,0.875,0.109375
523,523,1727113509368,0.20483398,-0.09234619,-0.96173096,0.203125,0.765625,0.109375
524,524,1727113509408,0.20776367,-0.08868408,-0.9585571,0.125,0.96875,0.15625
525,525,1727113509448,0.19897461,-0.093811035,-0.9517212,0.171875,1.15625,0.0
526,526,1727113509488,0.2043457,-0.0869751,-0.9678345,-0.109375,0.515625,-0.125
527,527,1727113509528,0.20581055,-0.09869385,-0.9624634,-0.03125,0.578125,0.171875
528,528,1727113509568,0.20727539,-0.09576416,-0.96173096,0.265625,0.484375,0.015625
529,529,1727113509608,0.20239258,-0.09283447,-0.9529419,0.40625,0.28125,0.265625
530,530,1727113509648,0.20605469,-0.09210205,-0.95758057,0.3125,0.484375,0.1875
531,531,1727113509688,0.20166016,-0.09429932,-0.9614868,0.28125,0.453125,0.0625
532,532,1727113509728,0.20214844,-0.086242676,-0.96417236,0.21875,0.546875,0.28125
533,533,1727113509768,0.20581055,-0.09210205,-0.95513916,0.421875,0.65625,0.21875
534,534,1727113509808,0.19799805,-0.08917236,-0.9729614,0.265625,0.4375,0.28125
535,535,1727113509848,0.203125,-0.09552002,-0.9649048,0.125,0.515625,0.21875
536,536,1727113509888,0.20019531,-0.09625244,-0.97369385,-0.015625,0.546875,0.09375
537,537,1727113509928,0.20410156,-0.08795166,-0.9570923,0.0625,0.328125,0.1875
538,538,1727113509968,0.20629883,-0.09136963,-0.9636841,0.125,0.3125,0.09375
539,539,1727113510008,0.19848633,-0.093566895,-0.9578247,-0.03125,0.15625,0.09375
540,540,1727113510048,0.19433594,-0.08917236,-0.9451294,0.359375,0.15625,0.21875
541,541,1727113510088,0.20654297,-0.090148926,-0.9685669,0.078125,0.453125,0.203125
542,542,1727113510128,0.20166016,-0.09674072,-0.96539307,0.03125,0.390625,0.046875
543,543,1727113510168,0.20214844,-0.08868408,-0.9627075,0.640625,0.671875,0.0625
544,544,1727113510208,0.19799805,-0.09063721,-0.97076416,0.25,0.46875,0.234375
545,545,1727113510248,0.20141602,-0.09552002,-0.95806885,-0.203125,0.625,0.25
546,546,1727113510288,0.20532227,-0.08673096,-0.96417236,-0.25,0.296875,-0.09375
547,547,1727113510328,0.20629883,-0.09088135,-0.9595337,-0.34375,0.234375,-0.09375
548,548,1727113510368,0.20214844,-0.08892822,-0.96343994,-0.28125,0.296875,-0.046875
549,549,1727113510408,0.20092773,-0.09234619,-0.95318604,0.109375,0.40625,0.125
550,550,1727113510448,0.2055664,-0.09527588,-0.96099854,0.15625,0.375,0.140625
551,551,1727113510488,0.19995117,-0.10015869,-0.954895,0.203125,0.21875,0.1875
552,552,1727113510528,0.20263672,-0.08526611,-0.956604,0.296875,0.234375,0.0625
553,553,1727113510568,0.20019531,-0.0960083,-0.9614868,0.34375,0.203125,0.203125
554,554,1727113510608,0.20092773,-0.0869751,-0.9685669,0.1875,0.46875,0.109375
555,555,1727113510648,0.20507812,-0.09088135,-0.96539307,0.203125,0.09375,0.109375
556,556,1727113510688,0.20166016,-0.09454346,-0.95635986,0.34375,0.046875,0.21875
557,557,1727113510728,0.20800781,-0.093566895,-0.9631958,0.15625,0.421875,0.140625
558,558,1727113510768,0.21118164,-0.09283447,-0.9524536,0.21875,0.421875,-0.09375
559,559,1727113510808,0.20458984,-0.094055176,-0.9639282,-0.09375,0.109375,-0.109375
560,560,1727113510848,0.20288086,-0.09429932,-0.9578247,0.015625,0.65625,-0.1875
561,561,1727113510888,0.2109375,-0.09161377,-0.95684814,0.171875,0.265625,-0.109375
562,562,1727113510928,0.20410156,-0.09259033,-0.97076416,-0.234375,0.625,-0.046875
563,563,1727113510968,0.20776367,-0.09844971,-0.9602661,-0.078125,0.21875,-0.015625
564,564,1727113511008,0.20825195,-0.09112549,-0.9651489,0.328125,0.4375,0.21875
565,565,1727113511048,0.20361328,-0.09283447,-0.96417236,0.0625,0.21875,0.171875
566,566,1727113511088,0.20361328,-0.097229004,-0.96051025,0.0,0.28125,0.125
567,567,1727113511128,0.20776367,-0.09625244,-0.9651489,-0.09375,0.296875,0.15625
568,568,1727113511168,0.20605469,-0.0869751,-0.95880127,-0.25,0.375,0.203125
569,569,1727113511208,0.20410156,-0.097229004,-0.958313,-0.328125,0.5,0.125
570,570,1727113511248,0.20336914,-0.101379395,-0.95928955,-0.09375,0.390625,0.140625
571,571,1727113511288,0.20678711,-0.1026001,-0.96051025,0.125,0.46875,0.015625
572,572,1727113511328,0.21069336,-0.09161377,-0.96099854,0.015625,0.265625,0.203125
573,573,1727113511368,0.2055664,-0.09552002,-0.9607544,0.0,0.546875,0.046875
574,574,1727113511408,0.20532227,-0.09063721,-0.95880127,0.375,0.515625,0.140625
575,575,1727113511448,0.20800781,-0.0881958,-0.9644165,0.421875,0.875,0.0625
576,576,1727113511488,0.20776367,-0.089660645,-0.9570923,0.453125,0.734375,0.234375
577,577,1727113511528,0.20605469,-0.093322754,-0.9614868,0.34375,0.578125,0.125
578,578,1727113511568,0.2019043,-0.09869385,-0.9570923,0.1875,0.671875,0.1875
579,579,1727113511608,0.20751953,-0.09429932,-0.9602661,0.15625,0.78125,0.109375
580,580,1727113511648,0.20996094,-0.0947876,-0.95806885,0.25,0.578125,0.09375
581,581,1727113511688,0.20751953,-0.08868408,-0.96710205,0.34375,0.640625,0.078125
582,582,1727113511728,0.20507812,-0.09234619,-0.9624634,0.25,0.734375,0.203125
583,583,1727113511768,0.20703125,-0.093566895,-0.9546509,0.265625,0.640625,0.359375
584,584,1727113511808,0.2006836,-0.101867676,-0.95977783,0.4375,0.53125,-0.015625
585,585,1727113511848,0.20703125,-0.09625244,-0.95562744,0.359375,0.34375,0.125
586,586,1727113511888,0.20922852,-0.09112549,-0.96173096,-0.046875,-0.0625,0.21875
587,587,1727113511928,0.20874023,-0.089416504,-0.9561157,-0.109375,0.90625,0.03125
588,588,1727113511968,0.20581055,-0.09674072,-0.9553833,-0.046875,1.078125,0.0625
589,589,1727113512008,0.20483398,-0.09259033,-0.96051025,-0.203125,0.59375,-0.0625
590,590,1727113512048,0.20629883,-0.097229004,-0.96221924,-0.328125,0.40625,0.109375
591,591,1727113512088,0.19604492,-0.09454346,-0.95025635,-0.015625,0.8125,0.046875
592,592,1727113512128,0.2055664,-0.09063721,-0.9649048,0.125,0.625,0.125
593,593,1727113512168,0.20361328,-0.09991455,-0.9685669,0.125,0.65625,0.03125
594,594,1727113512208,0.2055664,-0.093566895,-0.9631958,0.21875,0.625,0.15625
595,595,1727113512248,0.20751953,-0.09185791,-0.9573364,0.453125,0.359375,0.25
596,596,1727113512288,0.20239258,-0.09234619,-0.9590454,0.421875,0.609375,0.109375
597,597,1727113512328,0.20166016,-0.09234619,-0.9661255,0.203125,0.578125,0.171875
598,598,1727113512368,0.20019531,-0.09844971,-0.9607544,0.140625,0.546875,0.125
599,599,1727113512408,0.20166016,-0.0947876,-0.9614868,-0.046875,0.109375,0.15625
600,600,1727113512448,0.20385742,-0.0947876,-0.96417236,0.015625,0.09375,0.109375
601,601,1727113512488,0.19873047,-0.09234619,-0.95806885,0.140625,0.21875,0.1875
602,602,1727113512528,0.20288086,-0.09307861,-0.9590454,0.4375,0.5625,0.15625
603,603,1727113512568,0.20654297,-0.09429932,-0.95806885,0.40625,0.515625,0.078125
604,604,1727113512608,0.20800781,-0.094055176,-0.9627075,0.484375,0.515625,0.375
605,605,1727113512648,0.2055664,-0.08795166,-0.95318604,0.46875,0.4375,0.171875
606,606,1727113512688,0.20239258,-0.089416504,-0.95977783,-0.125,0.421875,0.28125
607,607,1727113512728,0.20092773,-0.093566895,-0.96661377,-0.03125,0.59375,0.15625
608,608,1727113512768,0.19799805,-0.08306885,-0.9522095,0.203125,0.546875,0.078125
609,609,1727113512808,0.20629883,-0.094055176,-0.9553833,0.015625,0.3125,0.03125
610,610,1727113512848,0.2084961,-0.09088135,-0.96051025,-0.203125,0.046875,0.0625
611,611,1727113512888,0.21020508,-0.08673096,-0.96295166,-0.703125,-0.046875,0.1875
612,612,1727113512928,0.21166992,-0.09136963,-0.9644165,-0.375,-0.171875,0.21875
613,613,1727113512968,0.21166992,-0.09625244,-0.96051025,-0.328125,-0.109375,0.125
614,614,1727113513008,0.20605469,-0.09918213,-0.96295166,-0.03125,0.390625,0.125
615,615,1727113513048,0.2109375,-0.09844971,-0.95147705,-0.03125,0.21875,0.171875
616,616,1727113513088,0.20751953,-0.09527588,-0.95758057,0.203125,0.453125,0.125
617,617,1727113513128,0.20605469,-0.0960083,-0.9614868,0.078125,0.375,0.1875
618,618,1727113513168,0.20825195,-0.09869385,-0.95977783,0.078125,0.375,0.140625
619,619,1727113513208,0.21508789,-0.09625244,-0.9614868,0.046875,0.359375,0.125
620,620,1727113513248,0.20751953,-0.093322754,-0.95928955,0.0625,0.09375,0.15625
621,621,1727113513288,0.20800781,-0.09967041,-0.95880127,0.015625,0.1875,0.234375
622,622,1727113513328,0.2109375,-0.10015869,-0.9649048,-0.171875,0.0625,0.015625
623,623,1727113513368,0.2163086,-0.09259033,-0.96221924,-0.234375,0.296875,0.078125
624,624,1727113513408,0.21411133,-0.09649658,-0.95391846,-0.09375,0.125,0.265625
625,625,1727113513448,0.21582031,-0.09112549,-0.95928955,-0.21875,0.40625,0.03125
626,626,1727113513488,0.20458984,-0.09674072,-0.9578247,-0.03125,0.1875,0.09375
627,627,1727113513528,0.2121582,-0.09429932,-0.95635986,-0.046875,0.234375,0.15625
628,628,1727113513568,0.21801758,-0.09674072,-0.97247314,-0.0625,0.484375,0.109375
629,629,1727113513608,0.21411133,-0.09869385,-0.95880127,0.109375,0.21875,0.171875
630,630,1727113513648,0.21069336,-0.10235596,-0.96832275,0.3125,0.375,0.125
631,631,1727113513688,0.20581055,-0.09307861,-0.9578247,-0.015625,0.28125,0.0625
632,632,1727113513728,0.20898438,-0.097473145,-0.9627075,0.078125,0.109375,0.15625
633,633,1727113513768,0.21118164,-0.09967041,-0.9553833,0.203125,0.25,0.125
634,634,1727113513808,0.21362305,-0.09674072,-0.9541626,-0.03125,-0.046875,0.15625
635,635,1727113513848,0.2175293,-0.09503174,-0.96539307,-0.828125,0.140625,0.078125
636,636,1727113513888,0.21777344,-0.10455322,-0.95928955,-0.125,0.28125,0.03125
637,637,1727113513928,0.21240234,-0.101379395,-0.9612427,0.1875,0.484375,0.1875
638,638,1727113513968,0.21166992,-0.101135254,-0.9614868,0.1875,0.25,0.140625
639,639,1727113514008,0.2175293,-0.10040283,-0.9627075,0.3125,0.796875,0.171875
640,640,1727113514048,0.21142578,-0.101623535,-0.9536743,0.296875,0.609375,0.21875
641,641,1727113514088,0.21533203,-0.09967041,-0.95391846,0.125,0.5,0.0625
642,642,1727113514128,0.21044922,-0.09918213,-0.9612427,0.078125,0.671875,0.140625
643,643,1727113514168,0.21386719,-0.09991455,-0.9624634,0.34375,0.703125,0.125
644,644,1727113514208,0.20996094,-0.1026001,-0.95880127,0.359375,0.953125,0.125
645,645,1727113514248,0.21166992,-0.09991455,-0.9505005,0.71875,1.046875,0.296875
646,646,1727113514288,0.21313477,-0.09625244,-0.9627075,0.125,0.71875,0.21875
647,647,1727113514328,0.20703125,-0.09625244,-0.9573364,0.125,0.75,0.0625
648,648,1727113514368,0.21166992,-0.09234619,-0.954895,0.390625,0.546875,0.046875
649,649,1727113514408,0.20947266,-0.09698486,-0.9663696,0.390625,0.78125,0.078125
650,650,1727113514448,0.20874023,-0.09649658,-0.9553833,0.625,0.703125,0.234375
651,651,1727113514488,0.21508789,-0.101135254,-0.9627075,0.703125,0.9375,0.125
652,652,1727113514528,0.2097168,-0.0947876,-0.9578247,0.671875,0.859375,0.09375
653,653,1727113514568,0.20947266,-0.093566895,-0.9573364,0.25,0.703125,0.078125
654,654,1727113514608,0.20947266,-0.09210205,-0.95513916,0.421875,0.71875,0.234375
655,655,1727113514648,0.20239258,-0.093566895,-0.9607544,0.234375,0.46875,0.03125
656,656,1727113514688,0.20874023,-0.09307861,-0.9639282,0.109375,0.8125,0.09375
657,657,1727113514728,0.20703125,-0.097961426,-0.95440674,0.1875,0.78125,0.140625
658,658,1727113514768,0.21020508,-0.09234619,-0.96099854,0.328125,0.921875,0.125
659,659,1727113514808,0.20727539,-0.09552002,-0.9651489,0.40625,0.765625,0.09375
660,660,1727113514848,0.20898438,-0.09234619,-0.95684814,0.359375,0.8125,0.203125
661,661,1727113514888,0.2055664,-0.09625244,-0.9614868,0.34375,0.796875,0.15625
662,662,1727113514928,0.20605469,-0.09552002,-0.958313,0.53125,0.609375,0.1875
663,663,1727113514968,0.20581055,-0.089904785,-0.95684814,0.328125,0.65625,0.1875
664,664,1727113515008,0.20141602,-0.09063721,-0.9627075,0.296875,0.421875,0.3125
665,665,1727113515048,0.20239258,-0.097229004,-0.95977783,0.171875,0.65625,0.296875
666,666,1727113515088,0.20776367,-0.09527588,-0.96099854,0.046875,0.46875,0.109375
667,667,1727113515128,0.20581055,-0.09161377,-0.9697876,-0.046875,0.734375,-0.046875
668,668,1727113515168,0.20922852,-0.08892822,-0.96051025,0.25,0.28125,0.265625
669,669,1727113515208,0.20532227,-0.093811035,-0.9631958,0.03125,0.5,0.109375
670,670,1727113515248,0.2097168,-0.09429932,-0.9558716,0.328125,0.59375,0.078125
671,671,1727113515288,0.2006836,-0.09185791,-0.9505005,0.578125,0.546875,0.109375
672,672,1727113515328,0.20629883,-0.090148926,-0.9673462,0.015625,0.671875,0.125
673,673,1727113515368,0.20166016,-0.097961426,-0.9612427,-0.078125,0.578125,0.1875
674,674,1727113515408,0.2055664,-0.08746338,-0.9612427,0.515625,0.640625,0.0625
675,675,1727113515448,0.2055664,-0.093322754,-0.9619751,0.15625,0.75,0.171875
676,676,1727113515488,0.20239258,-0.089660645,-0.9553833,0.203125,0.5625,0.140625
677,677,1727113515528,0.20214844,-0.0869751,-0.9595337,0.046875,0.65625,0.140625
678,678,1727113515568,0.19995117,-0.089416504,-0.9561157,0.015625,0.21875,0.15625
679,679,1727113515608,0.2043457,-0.0881958,-0.96173096,0.140625,0.3125,0.015625
680,680,1727113515648,0.20410156,-0.0947876,-0.958313,0.046875,0.328125,0.015625
681,681,1727113515688,0.19970703,-0.086242676,-0.96661377,0.078125,0.203125,0.21875
682,682,1727113515728,0.20410156,-0.09527588,-0.95684814,0.046875,0.296875,0.171875
683,683,1727113515768,0.2006836,-0.09136963,-0.954895,-0.140625,0.359375,0.03125
684,684,1727113515808,0.2084961,-0.089660645,-0.9595337,-0.140625,0.21875,0.171875
685,685,1727113515848,0.20507812,-0.08917236,-0.960022,-0.0625,0.421875,0.09375
686,686,1727113515888,0.2043457,-0.0960083,-0.9619751,-0.03125,-0.015625,0.234375
687,687,1727113515928,0.20483398,-0.09283447,-0.96417236,0.0,0.109375,0.203125
688,688,1727113515968,0.20605469,-0.09869385,-0.96759033,-0.046875,-0.078125,0.09375
689,689,1727113516008,0.21142578,-0.090148926,-0.9627075,-0.296875,0.0,0.015625
690,690,1727113516048,0.21411133,-0.09234619,-0.9614868,-0.25,0.0625,0.125
691,691,1727113516088,0.2121582,-0.09136963,-0.9558716,-0.171875,0.015625,0.15625
692,692,1727113516128,0.20605469,-0.09869385,-0.958313,0.0,0.21875,0.109375
693,693,1727113516168,0.21069336,-0.10015869,-0.9612427,0.0625,0.28125,-0.03125
694,694,1727113516208,0.21557617,-0.09625244,-0.9573364,0.0625,-0.1875,0.140625
695,695,1727113516248,0.2121582,-0.09283447,-0.9644165,-0.03125,0.078125,0.21875
696,696,1727113516288,0.2109375,-0.09429932,-0.9663696,0.03125,0.421875,0.1875
697,697,1727113516328,0.21362305,-0.09576416,-0.9590454,0.078125,0.21875,0.203125
698,698,1727113516368,0.21240234,-0.09625244,-0.9585571,0.125,0.5,0.171875
699,699,1727113516408,0.21020508,-0.08746338,-0.95758057,-0.3125,0.21875,0.015625
700,700,1727113516448,0.20874023,-0.09552002,-0.96051025,-0.125,0.40625,0.171875
701,701,1727113516488,0.21166992,-0.09503174,-0.9612427,-0.015625,0.375,0.140625
702,702,1727113516528,0.21191406,-0.09088135,-0.96051025,0.109375,0.203125,-0.015625
703,703,1727113516568,0.21679688,-0.10284424,-0.95880127,-0.09375,0.296875,0.21875
704,704,1727113516608,0.21020508,-0.09649658,-0.9612427,0.25,0.5625,0.15625
705,705,1727113516648,0.2133789,-0.101135254,-0.9602661,0.390625,0.6875,0.265625
706,706,1727113516688,0.21264648,-0.09674072,-0.95977783,0.578125,0.734375,0.203125
707,707,1727113516728,0.21411133,-0.09259033,-0.9595337,0.265625,0.78125,0.09375
708,708,1727113516768,0.2163086,-0.09112549,-0.95098877,0.078125,0.765625,0.078125
709,709,1727113516808,0.203125,-0.093322754,-0.95196533,0.09375,0.796875,0.046875
710,710,1727113516848,0.21069336,-0.09283447,-0.95880127,0.15625,0.546875,0.03125
711,711,1727113516888,0.20996094,-0.09893799,-0.9561157,-0.046875,0.71875,0.0625
712,712,1727113516928,0.21386719,-0.093322754,-0.95928955,-0.03125,0.765625,0.03125
713,713,1727113516968,0.20629883,-0.09918213,-0.9651489,0.109375,0.671875,0.09375
714,714,1727113517008,0.2121582,-0.10015869,-0.9624634,-0.015625,0.828125,-0.03125
715,715,1727113517048,0.20532227,-0.09552002,-0.956604,0.390625,0.640625,0.15625
716,716,1727113517088,0.20825195,-0.0947876,-0.95684814,0.5625,0.484375,0.3125
717,717,1727113517128,0.21191406,-0.09625244,-0.9639282,0.5625,0.78125,0.40625
718,718,1727113517168,0.20996094,-0.09674072,-0.94976807,0.328125,0.34375,0.359375
719,719,1727113517208,0.21508789,-0.093811035,-0.96051025,0.40625,0.359375,0.15625
720,720,1727113517248,0.2084961,-0.09283447,-0.958313,0.15625,0.375,0.078125
721,721,1727113517288,0.20629883,-0.08917236,-0.9627075,-0.03125,0.375,0.296875
722,722,1727113517328,0.2084961,-0.08795166,-0.9644165,0.265625,0.46875,0.109375
723,723,1727113517368,0.20996094,-0.09918213,-0.9595337,-0.015625,0.59375,0.203125
724,724,1727113517408,0.20825195,-0.09039307,-0.96295166,0.234375,0.4375,0.171875
725,725,1727113517448,0.2084961,-0.10211182,-0.96221924,0.0625,0.5625,0.203125
726,726,1727113517488,0.20776367,-0.09820557,-0.9639282,0.34375,0.828125,-0.015625
727,727,1727113517528,0.2084961,-0.0947876,-0.96051025,0.390625,0.625,0.1875
728,728,1727113517568,0.19824219,-0.094055176,-0.95758057,0.4375,0.8125,0.328125
729,729,1727113517608,0.20581055,-0.0881958,-0.9614868,0.40625,0.703125,0.0625
730,730,1727113517648,0.20458984,-0.09161377,-0.95684814,0.234375,0.65625,0.15625
731,731,1727113517688,0.20922852,-0.09136963,-0.9624634,0.21875,0.578125,0.203125
732,732,1727113517728,0.20874023,-0.097229004,-0.9590454,0.21875,0.421875,0.171875
733,733,1727113517768,0.20922852,-0.09112549,-0.96221924,-0.109375,0.328125,0.171875
734,734,1727113517808,0.20288086,-0.09552002,-0.9612427,0.09375,0.390625,0.078125
735,735,1727113517848,0.20922852,-0.09942627,-0.9661255,0.140625,0.359375,0.21875
736,736,1727113517888,0.20483398,-0.09527588,-0.96343994,0.3125,0.59375,0.109375
