,Unnamed: 0,timestamp,accel_x,accel_y,accel_z,gyro_x,gyro_y,gyro_z
0,0,1727202378527,0.13549805,-0.0569458,-0.9714966,0.890625,-0.203125,-0.21875
1,1,1727202378567,0.13769531,-0.054992676,-0.9727173,0.875,-0.09375,-0.21875
2,2,1727202378607,0.13989258,-0.059631348,-0.97198486,0.703125,-0.078125,-0.296875
3,3,1727202378647,0.13623047,-0.05645752,-0.97857666,0.71875,0.234375,-0.171875
4,4,1727202378687,0.14038086,-0.053771973,-0.9768677,0.734375,0.0,-0.1875
5,5,1727202378727,0.13671875,-0.054260254,-0.9758911,0.828125,0.328125,-0.328125
6,6,1727202378767,0.1328125,-0.058166504,-0.9788208,0.75,0.171875,-0.28125
7,7,1727202378807,0.13500977,-0.05621338,-0.9807739,0.859375,-0.0625,-0.171875
8,8,1727202378847,0.13867188,-0.058166504,-0.98028564,0.8125,0.046875,-0.1875
9,9,1727202378887,0.1340332,-0.054992676,-0.9758911,0.828125,0.078125,-0.328125
10,10,1727202378927,0.13647461,-0.053527832,-0.9714966,0.890625,-0.140625,-0.171875
11,11,1727202378967,0.13671875,-0.055480957,-0.9783325,0.796875,0.015625,-0.25
12,12,1727202379007,0.13183594,-0.054748535,-0.9751587,0.90625,-0.015625,-0.3125
13,13,1727202379047,0.13623047,-0.057678223,-0.97906494,0.828125,0.296875,-0.234375
14,14,1727202379087,0.13476562,-0.055480957,-0.9783325,0.8125,0.171875,-0.203125
15,15,1727202379127,0.14038086,-0.057922363,-0.97125244,0.875,0.3125,-0.3125
16,16,1727202379167,0.13989258,-0.059631348,-0.9727173,0.921875,0.1875,-0.21875
17,17,1727202379207,0.13232422,-0.06011963,-0.97247314,0.765625,-0.125,-0.171875
18,18,1727202379247,0.13793945,-0.057922363,-0.9763794,0.75,-0.015625,-0.203125
19,19,1727202379287,0.1340332,-0.05987549,-0.9734497,0.984375,-0.078125,-0.203125
20,20,1727202379327,0.13256836,-0.054992676,-0.97784424,0.640625,-0.171875,-0.21875
21,21,1727202379367,0.13305664,-0.04888916,-0.9734497,0.8125,0.046875,-0.171875
22,22,1727202379407,0.13330078,-0.054504395,-0.97076416,0.828125,-0.078125,-0.140625
23,23,1727202379447,0.13256836,-0.05645752,-0.9717407,0.84375,-0.03125,-0.25
24,24,1727202379487,0.13452148,-0.059631348,-0.97369385,0.890625,-0.0625,-0.296875
25,25,1727202379527,0.13842773,-0.050842285,-0.97662354,0.796875,-0.109375,-0.21875
26,26,1727202379567,0.13647461,-0.055236816,-0.97540283,0.71875,-0.1875,-0.1875
27,27,1727202379607,0.13671875,-0.057922363,-0.97491455,0.78125,0.0,-0.28125
28,28,1727202379647,0.13720703,-0.05596924,-0.9834595,0.9375,0.1875,-0.1875
29,29,1727202379687,0.13305664,-0.058410645,-0.9780884,0.875,0.203125,-0.265625
30,30,1727202379727,0.1340332,-0.05645752,-0.97442627,0.90625,0.328125,-0.296875
31,31,1727202379767,0.12548828,-0.059387207,-0.98223877,0.921875,0.171875,-0.078125
32,32,1727202379807,0.13232422,-0.05621338,-0.9734497,0.765625,0.21875,-0.4375
33,33,1727202379847,0.13720703,-0.055480957,-0.9751587,0.8125,0.078125,-0.28125
34,34,1727202379887,0.13500977,-0.058654785,-0.97662354,0.875,-0.21875,-0.140625
35,35,1727202379927,0.13745117,-0.0569458,-0.9763794,0.859375,-0.09375,-0.234375
36,36,1727202379967,0.1328125,-0.058410645,-0.97662354,0.9375,-0.015625,-0.3125
37,37,1727202380007,0.13012695,-0.058166504,-0.9795532,0.8125,-0.046875,-0.234375
38,38,1727202380047,0.1303711,-0.0569458,-0.96881104,0.859375,0.0,-0.171875
39,39,1727202380087,0.12963867,-0.054016113,-0.97662354,0.828125,-0.078125,-0.28125
40,40,1727202380127,0.14331055,-0.051330566,-0.97906494,0.78125,0.015625,-0.25
41,41,1727202380167,0.13354492,-0.055236816,-0.97442627,0.8125,0.0625,-0.34375
42,42,1727202380207,0.13647461,-0.05645752,-0.973938,0.84375,0.046875,-0.3125
43,43,1727202380247,0.14013672,-0.05621338,-0.97662354,0.703125,-0.078125,-0.25
44,44,1727202380287,0.13671875,-0.055480957,-0.9758911,0.828125,0.125,-0.25
45,45,1727202380327,0.13549805,-0.054992676,-0.9800415,0.875,-0.15625,-0.28125
46,46,1727202380367,0.12939453,-0.059143066,-0.9717407,0.859375,-0.078125,-0.234375
47,47,1727202380407,0.13500977,-0.057922363,-0.9783325,0.8125,-0.09375,-0.390625
48,48,1727202380447,0.13500977,-0.05718994,-0.98272705,0.765625,0.09375,-0.21875
49,49,1727202380487,0.13769531,-0.05303955,-0.9780884,0.75,0.125,-0.234375
50,50,1727202380527,0.12866211,-0.062316895,-0.97857666,0.46875,0.171875,-0.1875
51,51,1727202380567,0.13061523,-0.055725098,-0.97735596,0.40625,0.453125,-0.21875
52,52,1727202380607,0.13208008,-0.05279541,-0.9751587,0.5,0.359375,-0.140625
53,53,1727202380647,0.13574219,-0.057678223,-0.97784424,0.78125,0.171875,-0.28125
54,54,1727202380687,0.13061523,-0.059143066,-0.9768677,0.75,0.09375,-0.3125
55,55,1727202380727,0.13500977,-0.057434082,-0.9771118,0.90625,-0.046875,-0.296875
56,56,1727202380767,0.13012695,-0.059631348,-0.9741821,0.90625,-0.140625,-0.21875
57,57,1727202380807,0.13452148,-0.057678223,-0.9741821,0.75,-0.015625,-0.265625
58,58,1727202380847,0.13012695,-0.057922363,-0.9729614,0.90625,-0.09375,-0.125
59,59,1727202380887,0.12963867,-0.06060791,-0.9768677,0.859375,-0.0625,-0.171875
60,60,1727202380927,0.13061523,-0.05645752,-0.9793091,0.90625,-0.265625,-0.34375
61,61,1727202380967,0.13012695,-0.05645752,-0.97979736,1.078125,-0.25,-0.171875
62,62,1727202381007,0.13305664,-0.058654785,-0.97857666,0.96875,-0.171875,-0.1875
63,63,1727202381047,0.13793945,-0.061340332,-0.9741821,1.046875,-0.015625,-0.3125
64,64,1727202381087,0.13598633,-0.059387207,-0.97540283,0.984375,-0.078125,-0.078125
65,65,1727202381127,0.13134766,-0.054992676,-0.975647,0.984375,-0.03125,-0.28125
66,66,1727202381167,0.13085938,-0.06060791,-0.973938,0.953125,0.0625,-0.265625
67,67,1727202381207,0.13867188,-0.05279541,-0.9793091,0.703125,0.0,-0.296875
68,68,1727202381247,0.1381836,-0.05621338,-0.9793091,0.78125,0.03125,-0.234375
69,69,1727202381287,0.1340332,-0.05621338,-0.9758911,0.859375,-0.078125,-0.140625
70,70,1727202381327,0.1328125,-0.06378174,-0.9783325,0.828125,-0.171875,-0.1875
71,71,1727202381367,0.1328125,-0.05621338,-0.97979736,0.890625,0.09375,-0.21875
72,72,1727202381407,0.13061523,-0.059631348,-0.98223877,1.0,0.15625,-0.234375
73,73,1727202381447,0.1328125,-0.05596924,-0.97540283,0.96875,-0.09375,-0.125
74,74,1727202381487,0.13647461,-0.051086426,-0.96954346,0.9375,-0.09375,-0.171875
75,75,1727202381527,0.12890625,-0.058898926,-0.9793091,0.859375,0.125,-0.359375
76,76,1727202381567,0.13574219,-0.05279541,-0.97540283,0.90625,-0.09375,-0.1875
77,77,1727202381607,0.12988281,-0.05645752,-0.9734497,0.96875,0.109375,-0.171875
78,78,1727202381647,0.1340332,-0.055236816,-0.97491455,0.90625,-0.015625,-0.25
79,79,1727202381687,0.13378906,-0.058654785,-0.9727173,0.875,-0.03125,-0.296875
80,80,1727202381727,0.13256836,-0.051818848,-0.97662354,0.640625,-0.03125,-0.125
81,81,1727202381767,0.13623047,-0.057678223,-0.97735596,0.78125,0.015625,-0.140625
82,82,1727202381807,0.13793945,-0.05279541,-0.97491455,0.828125,-0.1875,-0.25
83,83,1727202381847,0.13623047,-0.06060791,-0.9768677,0.90625,-0.140625,-0.203125
84,84,1727202381887,0.12524414,-0.05621338,-0.97906494,0.859375,0.046875,-0.21875
85,85,1727202381927,0.13500977,-0.058166504,-0.9771118,0.875,-0.09375,-0.046875
86,86,1727202381967,0.13305664,-0.06109619,-0.98101807,0.890625,-0.09375,-0.375
87,87,1727202382007,0.12792969,-0.054260254,-0.9758911,0.84375,-0.109375,-0.25
88,88,1727202382047,0.13208008,-0.061828613,-0.9763794,0.953125,-0.09375,-0.140625
89,89,1727202382087,0.12695312,-0.05206299,-0.97198486,0.8125,-0.078125,-0.21875
90,90,1727202382127,0.13012695,-0.05279541,-0.9788208,0.78125,-0.03125,-0.171875
91,91,1727202382167,0.1315918,-0.0491333,-0.97735596,0.875,0.09375,-0.171875
92,92,1727202382207,0.13378906,-0.057434082,-0.97613525,0.78125,0.0,-0.296875
93,93,1727202382247,0.13427734,-0.053771973,-0.97662354,0.796875,0.046875,-0.140625
94,94,1727202382287,0.13452148,-0.059631348,-0.9768677,0.84375,0.109375,-0.28125
95,95,1727202382327,0.13256836,-0.05596924,-0.973938,0.765625,0.09375,-0.15625
96,96,1727202382367,0.12939453,-0.059143066,-0.9758911,0.828125,0.125,-0.34375
97,97,1727202382407,0.13867188,-0.05621338,-0.98321533,0.828125,0.0625,-0.203125
98,98,1727202382447,0.13330078,-0.06060791,-0.98272705,0.84375,-0.078125,-0.109375
99,99,1727202382487,0.13769531,-0.055480957,-0.97613525,0.671875,-0.078125,-0.359375
100,100,1727202382527,0.13256836,-0.059143066,-0.97662354,0.78125,0.0625,-0.296875
101,101,1727202382567,0.13427734,-0.055725098,-0.9710083,0.796875,-0.125,-0.125
102,102,1727202382607,0.1303711,-0.057922363,-0.97784424,0.703125,-0.015625,-0.265625
103,103,1727202382647,0.13452148,-0.055725098,-0.9800415,1.0,0.046875,-0.234375
104,104,1727202382687,0.12792969,-0.05670166,-0.97369385,0.84375,0.140625,-0.34375
105,105,1727202382727,0.13061523,-0.05279541,-0.97662354,0.828125,0.0,-0.171875
106,106,1727202382767,0.13452148,-0.05206299,-0.9746704,0.875,0.09375,-0.375
107,107,1727202382807,0.13012695,-0.05621338,-0.9793091,0.84375,-0.078125,-0.25
108,108,1727202382847,0.1328125,-0.05670166,-0.9776001,0.84375,0.046875,-0.15625
109,109,1727202382887,0.1303711,-0.057678223,-0.97442627,0.734375,-0.109375,-0.234375
110,110,1727202382927,0.13183594,-0.058898926,-0.97906494,0.765625,-0.09375,-0.296875
111,111,1727202382967,0.13305664,-0.06085205,-0.9807739,0.78125,0.015625,-0.28125
112,112,1727202383007,0.13354492,-0.05596924,-0.98028564,0.859375,0.046875,-0.25
113,113,1727202383047,0.12988281,-0.055725098,-0.9783325,0.71875,0.03125,-0.21875
114,114,1727202383087,0.13012695,-0.058654785,-0.97613525,0.671875,0.03125,-0.234375
115,115,1727202383127,0.13891602,-0.053771973,-0.97491455,0.796875,0.0,-0.21875
116,116,1727202383167,0.13623047,-0.053771973,-0.97662354,0.6875,0.0625,-0.171875
117,117,1727202383207,0.1328125,-0.057922363,-0.975647,0.765625,-0.109375,-0.25
118,118,1727202383247,0.13476562,-0.054748535,-0.975647,0.75,0.0625,-0.25
119,119,1727202383287,0.13330078,-0.05645752,-0.9771118,0.8125,-0.0625,-0.25
120,120,1727202383327,0.13183594,-0.059143066,-0.97662354,0.875,-0.09375,-0.25
121,121,1727202383367,0.13427734,-0.05596924,-0.973938,0.6875,-0.125,-0.203125
122,122,1727202383407,0.13623047,-0.05206299,-0.9771118,0.796875,-0.0625,-0.171875
123,123,1727202383447,0.12939453,-0.055236816,-0.9780884,0.921875,0.0625,-0.234375
124,124,1727202383487,0.1303711,-0.05230713,-0.97662354,0.75,0.0625,-0.21875
125,125,1727202383527,0.12939453,-0.05328369,-0.9768677,0.703125,0.140625,-0.265625
126,126,1727202383567,0.1430664,-0.058654785,-0.9771118,0.84375,0.0,-0.1875
127,127,1727202383607,0.13500977,-0.05645752,-0.9751587,0.8125,0.03125,-0.21875
128,128,1727202383647,0.125,-0.05645752,-0.9783325,0.765625,0.015625,-0.21875
129,129,1727202383687,0.1303711,-0.06011963,-0.9746704,0.703125,0.03125,0.0
130,130,1727202383727,0.13330078,-0.055236816,-0.98443604,0.765625,0.0,-0.171875
131,131,1727202383767,0.13305664,-0.06011963,-0.97369385,0.8125,-0.0625,-0.1875
132,132,1727202383807,0.13061523,-0.05230713,-0.97491455,0.78125,-0.125,-0.140625
133,133,1727202383847,0.13256836,-0.058166504,-0.9714966,0.828125,0.109375,-0.140625
134,134,1727202383887,0.1303711,-0.05621338,-0.9788208,0.78125,-0.15625,-0.265625
135,135,1727202383927,0.1340332,-0.06085205,-0.97369385,0.671875,-0.09375,-0.21875
136,136,1727202383967,0.13330078,-0.059387207,-0.9780884,0.78125,-0.03125,-0.203125
137,137,1727202384007,0.1315918,-0.055725098,-0.9702759,0.78125,0.015625,-0.203125
138,138,1727202384047,0.13330078,-0.05718994,-0.9751587,0.8125,0.078125,-0.328125
139,139,1727202384087,0.12866211,-0.057922363,-0.97442627,0.90625,0.125,-0.265625
140,140,1727202384127,0.13256836,-0.055480957,-0.97491455,0.890625,-0.109375,-0.390625
141,141,1727202384167,0.1303711,-0.058654785,-0.973938,0.84375,-0.09375,-0.34375
142,142,1727202384207,0.1352539,-0.055725098,-0.9771118,0.8125,-0.015625,-0.21875
143,143,1727202384247,0.12866211,-0.05670166,-0.9805298,0.8125,0.140625,-0.1875
144,144,1727202384287,0.13354492,-0.06109619,-0.9795532,0.765625,-0.03125,-0.265625
145,145,1727202384327,0.12988281,-0.053771973,-0.9780884,0.8125,-0.15625,-0.140625
146,146,1727202384367,0.13232422,-0.05718994,-0.9771118,0.8125,-0.0625,-0.328125
147,147,1727202384407,0.13720703,-0.05645752,-0.975647,0.75,0.09375,-0.328125
148,148,1727202384447,0.13061523,-0.05670166,-0.97735596,0.625,0.015625,-0.234375
149,149,1727202384487,0.1340332,-0.059143066,-0.97491455,0.75,0.140625,-0.3125
150,150,1727202384527,0.1303711,-0.05718994,-0.9771118,0.59375,0.140625,-0.265625
151,151,1727202384567,0.13500977,-0.055480957,-0.9771118,0.640625,0.25,-0.15625
152,152,1727202384607,0.13354492,-0.058410645,-0.973938,0.671875,0.109375,-0.21875
153,153,1727202384647,0.13867188,-0.06036377,-0.97857666,0.78125,0.1875,-0.34375
154,154,1727202384687,0.1381836,-0.05621338,-0.96759033,0.625,0.140625,-0.21875
155,155,1727202384727,0.13330078,-0.054504395,-0.9763794,0.71875,-0.09375,-0.28125
156,156,1727202384767,0.1303711,-0.051818848,-0.97491455,0.71875,0.015625,-0.046875
157,157,1727202384807,0.1340332,-0.057922363,-0.9717407,0.921875,-0.25,-0.21875
158,158,1727202384847,0.13500977,-0.06109619,-0.97491455,0.6875,-0.234375,-0.21875
159,159,1727202384887,0.14135742,-0.0569458,-0.9763794,0.71875,-0.078125,-0.265625
160,160,1727202384927,0.1381836,-0.05621338,-0.9771118,0.8125,-0.15625,-0.140625
161,161,1727202384967,0.13696289,-0.057678223,-0.9793091,0.71875,-0.078125,-0.140625
162,162,1727202385007,0.13085938,-0.06109619,-0.9751587,0.890625,0.0,-0.25
163,163,1727202385047,0.13305664,-0.057434082,-0.9819946,0.796875,-0.125,-0.1875
164,164,1727202385087,0.13598633,-0.061828613,-0.9788208,1.0,-0.125,-0.140625
165,165,1727202385127,0.1303711,-0.06060791,-0.9788208,1.015625,0.0,-0.25
166,166,1727202385167,0.13647461,-0.057922363,-0.9805298,0.9375,-0.078125,-0.046875
167,167,1727202385207,0.13745117,-0.055725098,-0.9758911,0.96875,0.078125,-0.296875
168,168,1727202385247,0.1328125,-0.0569458,-0.97540283,0.953125,-0.03125,-0.15625
169,169,1727202385287,0.13354492,-0.058166504,-0.9758911,0.890625,-0.140625,-0.328125
170,170,1727202385327,0.1303711,-0.06060791,-0.97662354,0.859375,-0.1875,-0.140625
171,171,1727202385367,0.13110352,-0.055480957,-0.9751587,0.84375,-0.21875,-0.140625
172,172,1727202385407,0.13574219,-0.054504395,-0.9727173,0.859375,0.0,-0.265625
173,173,1727202385447,0.13134766,-0.051574707,-0.97735596,0.828125,-0.09375,0.046875
174,174,1727202385487,0.13574219,-0.057434082,-0.9741821,0.9375,-0.109375,-0.15625
175,175,1727202385527,0.13452148,-0.053527832,-0.9788208,0.875,0.09375,-0.234375
176,176,1727202385567,0.13427734,-0.057922363,-0.9685669,0.78125,-0.046875,-0.265625
177,177,1727202385607,0.13061523,-0.053527832,-0.9768677,0.90625,0.1875,-0.34375
178,178,1727202385647,0.13500977,-0.058410645,-0.97491455,0.859375,-0.078125,-0.25
179,179,1727202385687,0.12866211,-0.058654785,-0.9783325,0.84375,0.015625,-0.21875
180,180,1727202385727,0.12963867,-0.054748535,-0.97735596,0.8125,0.015625,-0.265625
181,181,1727202385767,0.13671875,-0.05645752,-0.9780884,0.875,0.109375,-0.171875
182,182,1727202385807,0.13452148,-0.057434082,-0.9763794,0.84375,-0.078125,-0.234375
183,183,1727202385847,0.1381836,-0.06011963,-0.9768677,0.765625,0.09375,-0.328125
184,184,1727202385887,0.12792969,-0.059631348,-0.9788208,0.875,0.0,-0.25
185,185,1727202385927,0.13305664,-0.058654785,-0.97662354,0.890625,-0.03125,-0.15625
186,186,1727202385967,0.13623047,-0.05718994,-0.9771118,0.8125,-0.046875,-0.296875
187,187,1727202386007,0.13232422,-0.053527832,-0.97735596,0.875,-0.015625,-0.1875
188,188,1727202386047,0.1315918,-0.054260254,-0.9771118,0.796875,0.0,-0.203125
189,189,1727202386087,0.12866211,-0.054260254,-0.9805298,0.921875,-0.125,-0.3125
190,190,1727202386127,0.1262207,-0.05279541,-0.9834595,0.828125,0.015625,-0.28125
191,191,1727202386167,0.12915039,-0.05621338,-0.9768677,0.84375,0.015625,-0.21875
192,192,1727202386207,0.13476562,-0.054504395,-0.97784424,0.875,0.109375,-0.421875
193,193,1727202386247,0.13378906,-0.05987549,-0.97540283,0.703125,-0.09375,-0.4375
194,194,1727202386287,0.13720703,-0.057434082,-0.9763794,0.984375,0.109375,-0.125
195,195,1727202386327,0.13671875,-0.053771973,-0.9741821,0.765625,-0.015625,-0.234375
196,196,1727202386367,0.13427734,-0.0569458,-0.9717407,0.734375,0.15625,-0.140625
197,197,1727202386407,0.13012695,-0.054992676,-0.9776001,0.796875,0.015625,-0.296875
198,198,1727202386447,0.12841797,-0.051818848,-0.97735596,0.890625,0.078125,-0.265625
199,199,1727202386487,0.13452148,-0.06011963,-0.97979736,0.78125,-0.015625,-0.171875
200,200,1727202386527,0.12866211,-0.059387207,-0.975647,0.765625,0.0,-0.28125
201,201,1727202386567,0.1340332,-0.057678223,-0.975647,0.71875,0.125,-0.109375
202,202,1727202386607,0.1352539,-0.05670166,-0.97735596,0.765625,-0.03125,-0.1875
203,203,1727202386647,0.1328125,-0.054260254,-0.973938,0.65625,0.0,-0.296875
204,204,1727202386687,0.12866211,-0.05255127,-0.97906494,0.796875,-0.171875,-0.09375
205,205,1727202386727,0.13745117,-0.058166504,-0.9793091,0.828125,-0.015625,-0.234375
206,206,1727202386767,0.1340332,-0.055725098,-0.9714966,0.953125,-0.078125,-0.09375
207,207,1727202386807,0.13208008,-0.05621338,-0.97979736,0.75,0.109375,-0.25
208,208,1727202386847,0.1340332,-0.059387207,-0.9685669,0.75,0.109375,-0.21875
209,209,1727202386887,0.12939453,-0.057434082,-0.97003174,0.796875,0.171875,-0.203125
210,210,1727202386927,0.13671875,-0.057922363,-0.97906494,0.765625,0.0,-0.203125
211,211,1727202386967,0.13256836,-0.059387207,-0.97906494,0.71875,0.109375,-0.140625
212,212,1727202387007,0.13330078,-0.049621582,-0.97784424,0.734375,-0.109375,-0.3125
213,213,1727202387047,0.13012695,-0.058654785,-0.9727173,0.75,0.171875,-0.3125
214,214,1727202387087,0.13452148,-0.05987549,-0.97979736,0.75,0.0,-0.1875
215,215,1727202387127,0.13183594,-0.05596924,-0.97198486,0.734375,-0.1875,-0.265625
216,216,1727202387167,0.1328125,-0.050598145,-0.97003174,0.84375,0.109375,-0.078125
217,217,1727202387207,0.1328125,-0.051574707,-0.9771118,0.8125,0.140625,-0.171875
218,218,1727202387247,0.1381836,-0.055725098,-0.97320557,1.078125,0.09375,-0.234375
219,219,1727202387287,0.13305664,-0.05596924,-0.9776001,0.78125,-0.015625,-0.15625
220,220,1727202387327,0.13232422,-0.057922363,-0.97442627,0.703125,-0.0625,-0.265625
221,221,1727202387367,0.13208008,-0.057922363,-0.97540283,0.890625,0.1875,-0.203125
222,222,1727202387407,0.12866211,-0.058410645,-0.97784424,0.8125,0.03125,-0.28125
223,223,1727202387447,0.1303711,-0.04937744,-0.9805298,0.75,-0.046875,-0.0625
224,224,1727202387487,0.13452148,-0.055725098,-0.9727173,0.875,0.109375,-0.125
225,225,1727202387527,0.12866211,-0.058410645,-0.9741821,0.734375,-0.125,-0.265625
226,226,1727202387567,0.12890625,-0.054992676,-0.9795532,0.828125,0.0625,-0.359375
227,227,1727202387607,0.13598633,-0.05303955,-0.97613525,0.921875,-0.109375,-0.234375
228,228,1727202387647,0.13110352,-0.05670166,-0.9776001,0.84375,0.046875,-0.265625
229,229,1727202387687,0.1340332,-0.05206299,-0.9758911,0.921875,0.078125,-0.203125
230,230,1727202387727,0.13183594,-0.059631348,-0.97247314,0.84375,0.078125,-0.09375
231,231,1727202387767,0.13452148,-0.05206299,-0.97540283,0.890625,-0.125,-0.328125
232,232,1727202387807,0.13598633,-0.05596924,-0.9793091,0.78125,-0.09375,-0.1875
233,233,1727202387847,0.13769531,-0.05645752,-0.97979736,0.875,0.203125,-0.140625
234,234,1727202387887,0.13745117,-0.054260254,-0.97735596,0.8125,0.0,-0.265625
235,235,1727202387927,0.1328125,-0.054748535,-0.9746704,0.796875,0.09375,-0.140625
236,236,1727202387967,0.13208008,-0.06060791,-0.97442627,0.75,0.125,-0.140625
237,237,1727202388007,0.13671875,-0.06085205,-0.9805298,0.78125,0.0625,-0.203125
238,238,1727202388047,0.12719727,-0.05303955,-0.9758911,0.75,0.109375,-0.34375
239,239,1727202388087,0.13574219,-0.05645752,-0.9819946,0.703125,0.0625,-0.21875
240,240,1727202388127,0.13354492,-0.05670166,-0.9734497,0.5,0.28125,-0.328125
241,241,1727202388167,0.12963867,-0.05670166,-0.9783325,0.609375,0.390625,-0.25
242,242,1727202388207,0.125,-0.058898926,-0.97784424,0.6875,0.234375,-0.25
243,243,1727202388247,0.13085938,-0.053527832,-0.9751587,0.78125,0.125,-0.21875
244,244,1727202388287,0.13012695,-0.05718994,-0.9741821,0.765625,0.0625,-0.125
245,245,1727202388327,0.13378906,-0.061340332,-0.973938,0.796875,0.140625,-0.203125
246,246,1727202388367,0.13671875,-0.059387207,-0.9788208,0.875,0.171875,-0.28125
247,247,1727202388407,0.13354492,-0.05621338,-0.9771118,0.765625,0.015625,-0.25
248,248,1727202388447,0.13061523,-0.05670166,-0.98150635,0.78125,0.171875,-0.328125
249,249,1727202388487,0.1303711,-0.057678223,-0.973938,0.84375,-0.21875,-0.265625
250,250,1727202388527,0.13085938,-0.057434082,-0.97320557,0.828125,-0.140625,-0.28125
251,251,1727202388567,0.13305664,-0.058898926,-0.9800415,0.875,-0.1875,-0.09375
252,252,1727202388607,0.13232422,-0.053527832,-0.9783325,0.921875,-0.203125,-0.1875
253,253,1727202388647,0.13012695,-0.057922363,-0.9795532,0.8125,-0.21875,-0.09375
254,254,1727202388687,0.13378906,-0.053527832,-0.9783325,0.921875,-0.046875,-0.203125
255,255,1727202388727,0.12695312,-0.06011963,-0.9771118,0.96875,0.015625,-0.3125
256,256,1727202388767,0.13354492,-0.05645752,-0.97442627,0.953125,-0.078125,-0.234375
257,257,1727202388807,0.13476562,-0.05621338,-0.97613525,0.75,-0.15625,-0.078125
258,258,1727202388847,0.13769531,-0.05230713,-0.97735596,0.984375,0.0,-0.28125
259,259,1727202388887,0.13134766,-0.054504395,-0.9788208,0.828125,-0.046875,-0.21875
260,260,1727202388927,0.13549805,-0.05621338,-0.9795532,0.921875,0.0,-0.40625
261,261,1727202388967,0.1315918,-0.05596924,-0.9776001,0.9375,0.109375,-0.140625
262,262,1727202389007,0.1315918,-0.05621338,-0.97662354,0.90625,-0.125,-0.171875
263,263,1727202389047,0.13476562,-0.054748535,-0.9758911,0.859375,-0.171875,-0.296875
264,264,1727202389087,0.13330078,-0.058898926,-0.9817505,0.828125,0.015625,-0.203125
265,265,1727202389127,0.13427734,-0.054748535,-0.97003174,0.875,-0.078125,-0.15625
266,266,1727202389167,0.13232422,-0.05596924,-0.97052,0.78125,0.0,-0.34375
267,267,1727202389207,0.12646484,-0.0569458,-0.97076416,0.90625,0.09375,-0.15625
268,268,1727202389247,0.13452148,-0.057678223,-0.9788208,0.8125,0.1875,-0.234375
269,269,1727202389287,0.13208008,-0.05279541,-0.9763794,0.828125,0.0,-0.3125
270,270,1727202389327,0.1340332,-0.05621338,-0.9793091,0.875,0.03125,-0.25
271,271,1727202389367,0.13110352,-0.058410645,-0.98321533,0.921875,-0.109375,-0.28125
272,272,1727202389407,0.13183594,-0.055236816,-0.9783325,0.8125,-0.078125,-0.203125
273,273,1727202389447,0.13598633,-0.04937744,-0.97979736,0.8125,-0.09375,-0.140625
274,274,1727202389487,0.12963867,-0.05987549,-0.97857666,0.734375,-0.078125,-0.296875
275,275,1727202389527,0.1394043,-0.057922363,-0.972229,0.796875,-0.046875,-0.28125
276,276,1727202389567,0.12768555,-0.05279541,-0.97491455,0.765625,-0.0625,-0.234375
277,277,1727202389607,0.13330078,-0.05206299,-0.9734497,0.703125,-0.15625,-0.25
278,278,1727202389647,0.1315918,-0.06011963,-0.973938,0.828125,0.0,-0.140625
279,279,1727202389687,0.13134766,-0.051574707,-0.9741821,0.859375,-0.015625,-0.328125
280,280,1727202389727,0.1315918,-0.057434082,-0.97613525,0.765625,-0.0625,-0.234375
281,281,1727202389767,0.13085938,-0.05645752,-0.9751587,0.8125,0.109375,-0.4375
282,282,1727202389807,0.13232422,-0.05718994,-0.9776001,0.765625,-0.140625,-0.296875
283,283,1727202389847,0.13500977,-0.058166504,-0.9727173,0.9375,0.03125,-0.296875
284,284,1727202389887,0.12817383,-0.05206299,-0.9780884,0.671875,-0.0625,-0.234375
285,285,1727202389927,0.13256836,-0.05670166,-0.975647,0.875,0.15625,-0.203125
286,286,1727202389967,0.13476562,-0.051818848,-0.97906494,0.78125,-0.03125,-0.3125
287,287,1727202390007,0.13061523,-0.05645752,-0.97369385,0.71875,0.1875,-0.15625
288,288,1727202390047,0.1328125,-0.055480957,-0.97906494,0.90625,-0.0625,-0.21875
289,289,1727202390087,0.13671875,-0.058166504,-0.9771118,0.90625,-0.015625,-0.125
290,290,1727202390127,0.13305664,-0.059631348,-0.973938,0.859375,-0.03125,-0.171875
291,291,1727202390167,0.12988281,-0.04840088,-0.98028564,0.890625,-0.0625,-0.21875
292,292,1727202390207,0.13208008,-0.05328369,-0.9793091,0.8125,0.046875,-0.265625
293,293,1727202390247,0.13208008,-0.05718994,-0.9819946,0.921875,0.015625,-0.171875
294,294,1727202390287,0.13208008,-0.054260254,-0.9771118,0.828125,0.09375,-0.28125
295,295,1727202390327,0.12890625,-0.05645752,-0.97198486,0.953125,0.015625,-0.21875
296,296,1727202390367,0.13305664,-0.054748535,-0.9751587,0.828125,-0.15625,-0.203125
297,297,1727202390407,0.12792969,-0.054748535,-0.97613525,0.828125,-0.046875,-0.15625
298,298,1727202390447,0.14160156,-0.058410645,-0.975647,0.765625,0.0625,-0.421875
299,299,1727202390487,0.13378906,-0.053771973,-0.9727173,0.828125,0.125,-0.265625
300,300,1727202390527,0.13305664,-0.057922363,-0.97540283,0.8125,-0.15625,-0.09375
301,301,1727202390567,0.12915039,-0.05718994,-0.9795532,0.890625,0.0,-0.15625
302,302,1727202390607,0.13330078,-0.057434082,-0.9751587,0.734375,-0.125,-0.25
303,303,1727202390647,0.12988281,-0.055480957,-0.97442627,0.921875,0.109375,-0.09375
304,304,1727202390687,0.13842773,-0.059143066,-0.9783325,0.765625,-0.015625,-0.1875
305,305,1727202390727,0.13916016,-0.055236816,-0.96954346,0.765625,-0.1875,-0.15625
306,306,1727202390767,0.13232422,-0.059387207,-0.9763794,0.78125,-0.03125,-0.28125
307,307,1727202390807,0.13452148,-0.05621338,-0.9776001,0.890625,0.09375,-0.21875
308,308,1727202390847,0.13256836,-0.05621338,-0.9783325,0.828125,0.109375,-0.15625
309,309,1727202390887,0.13134766,-0.0569458,-0.9758911,0.90625,-0.125,-0.21875
310,310,1727202390927,0.13085938,-0.054748535,-0.97979736,0.859375,-0.046875,-0.171875
311,311,1727202390967,0.12939453,-0.057922363,-0.9734497,0.921875,-0.03125,-0.296875
312,312,1727202391007,0.13354492,-0.05303955,-0.97125244,0.890625,0.109375,-0.125
313,313,1727202391047,0.13427734,-0.054748535,-0.9741821,0.859375,-0.09375,-0.21875
314,314,1727202391087,0.1262207,-0.055236816,-0.9758911,0.640625,-0.046875,-0.28125
315,315,1727202391127,0.13720703,-0.054992676,-0.9776001,0.828125,-0.140625,-0.15625
316,316,1727202391167,0.13183594,-0.06085205,-0.9727173,0.78125,-0.046875,-0.078125
317,317,1727202391207,0.13305664,-0.054260254,-0.973938,0.796875,0.03125,-0.359375
318,318,1727202391247,0.13549805,-0.058410645,-0.9776001,0.734375,0.0625,-0.1875
319,319,1727202391287,0.14086914,-0.06427002,-0.97784424,0.765625,0.25,-0.28125
320,320,1727202391327,0.13500977,-0.055236816,-0.97613525,0.65625,0.09375,-0.25
321,321,1727202391367,0.13012695,-0.059387207,-0.97613525,0.765625,0.078125,-0.21875
322,322,1727202391407,0.13598633,-0.057434082,-0.9788208,0.71875,0.140625,-0.265625
323,323,1727202391447,0.13500977,-0.05718994,-0.97613525,0.8125,0.0625,-0.109375
324,324,1727202391487,0.13183594,-0.057434082,-0.975647,0.84375,-0.03125,-0.171875
325,325,1727202391527,0.13623047,-0.05206299,-0.975647,0.84375,-0.015625,-0.1875
326,326,1727202391567,0.13208008,-0.055725098,-0.97735596,0.78125,-0.046875,-0.21875
327,327,1727202391607,0.13378906,-0.057922363,-0.98150635,0.671875,0.1875,-0.203125
328,328,1727202391647,0.12988281,-0.053771973,-0.9741821,0.96875,0.0,-0.28125
329,329,1727202391687,0.12890625,-0.054992676,-0.97735596,0.734375,0.234375,-0.3125
330,330,1727202391727,0.13305664,-0.053527832,-0.97491455,0.671875,0.015625,-0.203125
331,331,1727202391767,0.1315918,-0.047912598,-0.9768677,0.765625,-0.0625,-0.234375
332,332,1727202391807,0.13476562,-0.06036377,-0.97613525,0.734375,0.09375,-0.171875
333,333,1727202391847,0.12768555,-0.06451416,-0.9729614,0.890625,0.078125,-0.171875
334,334,1727202391887,0.13208008,-0.058654785,-0.9729614,0.875,-0.1875,-0.265625
335,335,1727202391927,0.13354492,-0.057678223,-0.975647,0.9375,-0.03125,-0.234375
336,336,1727202391967,0.13305664,-0.05718994,-0.9751587,1.03125,-0.046875,-0.109375
337,337,1727202392007,0.1303711,-0.057922363,-0.9800415,0.96875,0.109375,-0.203125
338,338,1727202392047,0.1328125,-0.057678223,-0.97735596,0.875,0.109375,-0.140625
339,339,1727202392087,0.12939453,-0.055480957,-0.9805298,0.96875,-0.140625,-0.234375
340,340,1727202392127,0.13012695,-0.053771973,-0.9807739,0.828125,-0.1875,-0.171875
341,341,1727202392167,0.13183594,-0.058410645,-0.97540283,0.953125,-0.0625,-0.171875
342,342,1727202392207,0.13110352,-0.055725098,-0.9763794,0.921875,-0.09375,-0.25
343,343,1727202392247,0.12792969,-0.051086426,-0.9768677,0.921875,0.015625,-0.140625
344,344,1727202392287,0.12841797,-0.047424316,-0.9746704,0.84375,-0.1875,-0.21875
345,345,1727202392327,0.1352539,-0.06060791,-0.9746704,0.71875,0.015625,-0.296875
346,346,1727202392367,0.12988281,-0.05206299,-0.97662354,0.96875,-0.03125,-0.109375
347,347,1727202392407,0.12817383,-0.054992676,-0.97369385,0.8125,-0.15625,-0.109375
348,348,1727202392447,0.1381836,-0.055236816,-0.97540283,0.84375,0.1875,-0.25
349,349,1727202392487,0.13183594,-0.059143066,-0.9807739,0.828125,-0.078125,-0.296875
350,350,1727202392527,0.13891602,-0.057922363,-0.97613525,0.8125,-0.015625,-0.171875
351,351,1727202392567,0.13012695,-0.055236816,-0.97198486,0.84375,-0.125,-0.453125
352,352,1727202392607,0.13183594,-0.05987549,-0.973938,0.875,-0.171875,-0.140625
353,353,1727202392647,0.13012695,-0.058166504,-0.9768677,0.875,-0.03125,-0.203125
354,354,1727202392687,0.13110352,-0.05670166,-0.97540283,0.828125,0.03125,-0.1875
355,355,1727202392727,0.13110352,-0.055236816,-0.975647,0.921875,-0.09375,-0.25
356,356,1727202392767,0.13427734,-0.057434082,-0.97491455,0.875,0.03125,-0.359375
357,357,1727202392807,0.13232422,-0.051330566,-0.97320557,0.703125,0.0,-0.234375
358,358,1727202392847,0.13354492,-0.06011963,-0.9741821,0.8125,0.03125,-0.15625
359,359,1727202392887,0.123046875,-0.057678223,-0.9771118,0.71875,-0.125,-0.296875
360,360,1727202392927,0.13452148,-0.05670166,-0.9776001,0.78125,-0.0625,-0.171875
361,361,1727202392967,0.1303711,-0.053527832,-0.98028564,0.734375,0.0,-0.375
362,362,1727202393007,0.1274414,-0.057434082,-0.975647,0.71875,-0.015625,-0.171875
363,363,1727202393047,0.13696289,-0.057922363,-0.9751587,0.828125,-0.0625,-0.234375
364,364,1727202393087,0.13867188,-0.06036377,-0.9729614,0.875,-0.046875,-0.28125
365,365,1727202393127,0.1274414,-0.05645752,-0.97784424,0.828125,-0.078125,-0.140625
366,366,1727202393167,0.13452148,-0.055725098,-0.97442627,0.9375,0.046875,-0.109375
367,367,1727202393207,0.1315918,-0.059631348,-0.97613525,0.734375,-0.015625,-0.03125
368,368,1727202393247,0.13476562,-0.053527832,-0.973938,0.921875,0.0,-0.234375
369,369,1727202393287,0.12963867,-0.05670166,-0.9824829,0.765625,0.03125,-0.234375
370,370,1727202393327,0.12890625,-0.059387207,-0.9800415,0.84375,0.046875,-0.25
371,371,1727202393367,0.13256836,-0.054992676,-0.9795532,0.765625,0.015625,-0.25
372,372,1727202393407,0.13549805,-0.0569458,-0.9751587,0.9375,-0.0625,-0.328125
373,373,1727202393447,0.1315918,-0.053771973,-0.9795532,0.875,0.203125,-0.203125
374,374,1727202393487,0.13378906,-0.054748535,-0.97735596,0.703125,-0.046875,-0.1875
375,375,1727202393527,0.13476562,-0.055480957,-0.9776001,0.859375,-0.078125,-0.078125
376,376,1727202393567,0.12915039,-0.054016113,-0.97857666,0.671875,-0.09375,-0.25
377,377,1727202393607,0.1352539,-0.059143066,-0.97613525,0.796875,-0.09375,-0.203125
378,378,1727202393647,0.13208008,-0.05596924,-0.9819946,0.859375,0.046875,-0.140625
379,379,1727202393687,0.13232422,-0.055725098,-0.9783325,0.921875,0.03125,-0.3125
380,380,1727202393727,0.1352539,-0.05303955,-0.9771118,0.890625,0.078125,-0.21875
381,381,1727202393767,0.13134766,-0.05596924,-0.98101807,0.84375,0.0,-0.296875
382,382,1727202393807,0.13354492,-0.053771973,-0.9783325,0.75,-0.0625,-0.25
383,383,1727202393847,0.12939453,-0.0569458,-0.97857666,0.875,0.125,-0.171875
384,384,1727202393887,0.13183594,-0.054504395,-0.97857666,0.796875,0.109375,-0.328125
385,385,1727202393927,0.13232422,-0.054748535,-0.9763794,0.78125,-0.140625,-0.25
386,386,1727202393967,0.13110352,-0.055236816,-0.97857666,0.921875,-0.078125,-0.28125
387,387,1727202394007,0.13208008,-0.058898926,-0.97784424,0.71875,-0.09375,-0.234375
388,388,1727202394047,0.13574219,-0.059387207,-0.97784424,0.875,-0.03125,-0.1875
389,389,1727202394087,0.13085938,-0.05328369,-0.9783325,0.671875,0.0,-0.28125
390,390,1727202394127,0.1328125,-0.055725098,-0.9776001,0.828125,0.046875,-0.15625
391,391,1727202394167,0.13427734,-0.058410645,-0.98028564,0.65625,-0.09375,-0.3125
392,392,1727202394207,0.13427734,-0.05230713,-0.97247314,0.78125,0.09375,-0.171875
393,393,1727202394247,0.12915039,-0.054748535,-0.97906494,0.703125,-0.234375,-0.34375
394,394,1727202394287,0.13745117,-0.058410645,-0.97662354,0.953125,0.078125,-0.15625
395,395,1727202394327,0.13476562,-0.057434082,-0.97247314,0.78125,-0.046875,-0.203125
396,396,1727202394367,0.13256836,-0.058654785,-0.97442627,0.765625,0.015625,-0.234375
397,397,1727202394407,0.13085938,-0.057434082,-0.9741821,0.703125,-0.015625,-0.21875
398,398,1727202394447,0.12695312,-0.055236816,-0.98028564,0.78125,-0.0625,-0.234375
399,399,1727202394487,0.13476562,-0.058410645,-0.97491455,0.734375,-0.0625,-0.203125
400,400,1727202394527,0.13476562,-0.05230713,-0.97735596,0.921875,0.09375,-0.09375
401,401,1727202394567,0.13647461,-0.05596924,-0.9800415,0.71875,0.03125,-0.359375
402,402,1727202394607,0.13183594,-0.062561035,-0.975647,0.8125,0.046875,-0.15625
403,403,1727202394647,0.13427734,-0.053771973,-0.9776001,0.765625,0.09375,-0.203125
404,404,1727202394687,0.13427734,-0.05255127,-0.9780884,0.8125,-0.078125,-0.234375
405,405,1727202394727,0.13720703,-0.05645752,-0.975647,0.921875,-0.078125,-0.203125
406,406,1727202394767,0.13769531,-0.051086426,-0.98028564,0.703125,0.03125,-0.171875
407,407,1727202394807,0.13500977,-0.05718994,-0.97857666,0.859375,-0.015625,-0.265625
408,408,1727202394847,0.13061523,-0.06109619,-0.9824829,0.90625,-0.03125,-0.265625
409,409,1727202394887,0.13208008,-0.054016113,-0.9793091,0.828125,0.046875,-0.328125
410,410,1727202394927,0.1315918,-0.053771973,-0.97052,0.8125,-0.03125,-0.15625
411,411,1727202394967,0.12695312,-0.05230713,-0.9776001,0.8125,-0.078125,-0.21875
412,412,1727202395007,0.1340332,-0.058410645,-0.97979736,0.84375,0.03125,-0.203125
413,413,1727202395047,0.13598633,-0.058898926,-0.9783325,0.734375,-0.015625,-0.296875
414,414,1727202395087,0.13256836,-0.057922363,-0.9783325,0.796875,0.078125,-0.265625
415,415,1727202395127,0.13256836,-0.057678223,-0.97613525,0.890625,-0.140625,-0.203125
416,416,1727202395167,0.13549805,-0.05621338,-0.9780884,0.890625,0.046875,-0.203125
417,417,1727202395207,0.12817383,-0.057678223,-0.9788208,0.859375,0.171875,-0.15625
418,418,1727202395247,0.13208008,-0.058410645,-0.9776001,0.703125,0.109375,-0.21875
419,419,1727202395287,0.13232422,-0.061828613,-0.9793091,0.75,0.015625,-0.296875
420,420,1727202395327,0.13110352,-0.05230713,-0.97906494,0.71875,0.03125,-0.234375
421,421,1727202395367,0.1315918,-0.05645752,-0.97491455,0.8125,0.03125,-0.1875
422,422,1727202395407,0.13208008,-0.05255127,-0.97735596,0.78125,-0.046875,-0.25
423,423,1727202395447,0.12963867,-0.061584473,-0.9771118,0.921875,-0.046875,-0.25
424,424,1727202395487,0.13452148,-0.05645752,-0.9771118,0.875,-0.015625,-0.25
425,425,1727202395527,0.12890625,-0.05279541,-0.9763794,0.75,-0.0625,-0.1875
426,426,1727202395567,0.13085938,-0.050842285,-0.97613525,0.765625,0.09375,-0.328125
427,427,1727202395607,0.13549805,-0.05328369,-0.9751587,0.78125,-0.078125,-0.109375
428,428,1727202395647,0.13256836,-0.05596924,-0.9788208,0.8125,0.09375,-0.21875
429,429,1727202395687,0.13208008,-0.053771973,-0.9734497,0.828125,-0.109375,-0.28125
430,430,1727202395727,0.13500977,-0.06060791,-0.9793091,0.75,0.140625,-0.171875
431,431,1727202395767,0.12426758,-0.05596924,-0.9768677,0.765625,-0.15625,-0.140625
432,432,1727202395807,0.13061523,-0.05987549,-0.9758911,0.734375,0.109375,-0.28125
433,433,1727202395847,0.13110352,-0.058654785,-0.9807739,0.859375,0.09375,-0.125
434,434,1727202395887,0.13378906,-0.054260254,-0.9729614,0.84375,-0.125,-0.140625
435,435,1727202395927,0.12915039,-0.055480957,-0.9795532,0.78125,0.03125,-0.15625
436,436,1727202395967,0.13256836,-0.058166504,-0.9788208,0.671875,0.046875,-0.125
437,437,1727202396007,0.13647461,-0.05596924,-0.9780884,0.765625,0.1875,-0.296875
438,438,1727202396047,0.13623047,-0.05328369,-0.97662354,0.796875,-0.078125,-0.15625
439,439,1727202396087,0.12890625,-0.049621582,-0.9795532,0.828125,-0.09375,-0.15625
440,440,1727202396127,0.13256836,-0.05206299,-0.9817505,0.765625,-0.015625,-0.15625
441,441,1727202396167,0.13110352,-0.061828613,-0.973938,0.90625,-0.046875,-0.125
442,442,1727202396207,0.12841797,-0.05718994,-0.97735596,0.828125,0.046875,-0.25
443,443,1727202396247,0.12939453,-0.051086426,-0.9741821,0.765625,0.03125,-0.375
444,444,1727202396287,0.13110352,-0.057922363,-0.97320557,0.703125,0.03125,-0.25
445,445,1727202396327,0.13134766,-0.05206299,-0.97442627,1.0625,-0.03125,-0.265625
446,446,1727202396367,0.1274414,-0.05645752,-0.9805298,0.703125,0.0,-0.140625
447,447,1727202396407,0.13427734,-0.058654785,-0.9741821,0.8125,0.15625,-0.28125
448,448,1727202396447,0.13476562,-0.05718994,-0.97613525,0.875,-0.03125,-0.1875
449,449,1727202396487,0.13183594,-0.062072754,-0.9680786,0.96875,0.0625,-0.15625
450,450,1727202396527,0.13183594,-0.055480957,-0.9776001,0.8125,0.03125,-0.265625
451,451,1727202396567,0.13061523,-0.05621338,-0.98150635,0.765625,0.0,-0.234375
452,452,1727202396607,0.13232422,-0.05670166,-0.97906494,0.8125,-0.09375,-0.34375
453,453,1727202396647,0.13134766,-0.058166504,-0.9780884,0.9375,-0.015625,-0.25
454,454,1727202396687,0.13574219,-0.059387207,-0.97369385,0.796875,-0.140625,-0.171875
455,455,1727202396727,0.13500977,-0.058898926,-0.98101807,0.8125,0.046875,-0.328125
456,456,1727202396767,0.13549805,-0.054504395,-0.975647,0.90625,0.015625,-0.234375
457,457,1727202396807,0.13623047,-0.057434082,-0.98028564,0.828125,0.015625,-0.3125
458,458,1727202396847,0.13500977,-0.05621338,-0.97613525,0.78125,0.0,-0.234375
459,459,1727202396887,0.12524414,-0.055725098,-0.9783325,0.78125,0.046875,-0.296875
460,460,1727202396927,0.13427734,-0.055236816,-0.97613525,0.84375,0.1875,-0.21875
461,461,1727202396967,0.1315918,-0.059631348,-0.97857666,0.9375,0.015625,-0.25
462,462,1727202397007,0.1303711,-0.055480957,-0.9819946,0.71875,0.015625,-0.1875
463,463,1727202397047,0.13134766,-0.06085205,-0.9780884,0.671875,0.03125,-0.125
464,464,1727202397087,0.13232422,-0.05987549,-0.9727173,0.65625,0.015625,-0.296875
465,465,1727202397127,0.13452148,-0.05987549,-0.97442627,0.984375,0.046875,-0.359375
466,466,1727202397167,0.13110352,-0.05645752,-0.9805298,0.796875,0.171875,-0.28125
467,467,1727202397207,0.1328125,-0.05670166,-0.9793091,0.8125,-0.015625,-0.21875
468,468,1727202397247,0.13623047,-0.054504395,-0.973938,0.765625,0.0,-0.140625
469,469,1727202397287,0.13671875,-0.054016113,-0.9751587,0.78125,0.0,-0.09375
470,470,1727202397327,0.13378906,-0.05596924,-0.9812622,0.765625,-0.03125,-0.203125
471,471,1727202397367,0.13671875,-0.054016113,-0.9819946,0.890625,0.15625,-0.15625
472,472,1727202397407,0.12963867,-0.055236816,-0.97491455,0.828125,0.015625,-0.1875
473,473,1727202397447,0.1340332,-0.057434082,-0.9758911,0.859375,-0.0625,-0.25
474,474,1727202397487,0.12719727,-0.058654785,-0.975647,0.9375,0.078125,-0.03125
475,475,1727202397527,0.13574219,-0.05670166,-0.97613525,0.765625,-0.140625,-0.1875
476,476,1727202397567,0.13330078,-0.053527832,-0.97540283,0.796875,0.078125,-0.109375
477,477,1727202397607,0.13061523,-0.05621338,-0.9710083,0.828125,0.015625,-0.1875
478,478,1727202397647,0.13061523,-0.062561035,-0.98321533,0.78125,0.0625,-0.328125
479,479,1727202397687,0.13671875,-0.05645752,-0.9783325,0.890625,-0.03125,-0.15625
480,480,1727202397727,0.13867188,-0.06085205,-0.97198486,0.84375,0.03125,-0.265625
481,481,1727202397767,0.13012695,-0.05255127,-0.9717407,0.859375,-0.109375,-0.265625
482,482,1727202397807,0.13012695,-0.05206299,-0.9780884,0.859375,-0.046875,-0.21875
483,483,1727202397847,0.12768555,-0.054260254,-0.9780884,0.796875,0.1875,-0.296875
484,484,1727202397887,0.13330078,-0.053527832,-0.972229,0.875,0.046875,-0.1875
485,485,1727202397927,0.13427734,-0.057678223,-0.97540283,0.75,0.046875,-0.15625
486,486,1727202397967,0.13208008,-0.055480957,-0.9771118,0.921875,-0.015625,-0.09375
487,487,1727202398007,0.1340332,-0.057678223,-0.97247314,0.75,-0.046875,-0.28125
488,488,1727202398047,0.13549805,-0.055725098,-0.9727173,0.859375,-0.0625,-0.34375
489,489,1727202398087,0.13623047,-0.057678223,-0.973938,0.796875,0.265625,-0.1875
490,490,1727202398127,0.13061523,-0.053771973,-0.9800415,0.859375,0.0625,-0.1875
491,491,1727202398167,0.13378906,-0.054016113,-0.9829712,0.875,0.03125,-0.09375
492,492,1727202398207,0.13305664,-0.059387207,-0.97613525,0.78125,-0.15625,-0.234375
493,493,1727202398247,0.12573242,-0.053527832,-0.9788208,0.78125,-0.1875,-0.1875
494,494,1727202398287,0.12963867,-0.05279541,-0.98101807,0.765625,-0.015625,-0.296875
495,495,1727202398327,0.13183594,-0.054504395,-0.97369385,0.859375,0.0,-0.28125
496,496,1727202398367,0.13305664,-0.05596924,-0.9768677,0.828125,0.078125,-0.3125
497,497,1727202398407,0.13378906,-0.05279541,-0.9746704,0.796875,-0.03125,-0.125
498,498,1727202398447,0.13134766,-0.057434082,-0.97540283,0.828125,-0.125,-0.1875
499,499,1727202398487,0.13256836,-0.054992676,-0.97540283,0.84375,0.109375,-0.28125
500,500,1727202398527,0.13110352,-0.05303955,-0.975647,0.75,0.0,-0.09375
501,501,1727202398567,0.1315918,-0.053527832,-0.9768677,0.796875,0.09375,-0.375
502,502,1727202398607,0.12866211,-0.05645752,-0.9776001,0.921875,-0.046875,-0.265625
503,503,1727202398647,0.1315918,-0.057678223,-0.98223877,0.8125,-0.09375,-0.25
504,504,1727202398687,0.13427734,-0.058410645,-0.97735596,0.8125,0.15625,-0.296875
505,505,1727202398727,0.13427734,-0.05596924,-0.97491455,0.75,0.109375,-0.28125
506,506,1727202398767,0.1328125,-0.055480957,-0.9776001,0.828125,-0.046875,-0.109375
507,507,1727202398807,0.13134766,-0.05645752,-0.9746704,0.78125,0.078125,-0.234375
508,508,1727202398847,0.13354492,-0.057434082,-0.97247314,0.859375,0.078125,-0.21875
509,509,1727202398887,0.13330078,-0.057434082,-0.97247314,0.5625,0.125,-0.21875
510,510,1727202398927,0.1315918,-0.054992676,-0.9780884,0.640625,0.0625,-0.296875
511,511,1727202398967,0.13085938,-0.05596924,-0.9758911,0.703125,0.15625,-0.375
512,512,1727202399007,0.13134766,-0.055480957,-0.97906494,0.59375,-0.03125,-0.21875
513,513,1727202399047,0.1274414,-0.058654785,-0.9800415,0.703125,0.109375,-0.234375
514,514,1727202399087,0.12402344,-0.057434082,-0.9741821,0.78125,-0.046875,-0.328125
515,515,1727202399127,0.12988281,-0.06109619,-0.97491455,0.78125,0.09375,-0.234375
516,516,1727202399167,0.1315918,-0.05718994,-0.98101807,0.609375,0.1875,-0.21875
517,517,1727202399207,0.12817383,-0.057922363,-0.975647,0.84375,-0.09375,-0.1875
518,518,1727202399247,0.13232422,-0.057678223,-0.97442627,0.828125,-0.015625,-0.234375
519,519,1727202399287,0.1315918,-0.057434082,-0.9780884,0.9375,0.015625,-0.1875
520,520,1727202399327,0.13427734,-0.05230713,-0.975647,0.9375,0.03125,-0.140625
521,521,1727202399367,0.12915039,-0.06060791,-0.9758911,0.8125,-0.046875,-0.234375
522,522,1727202399407,0.13183594,-0.05230713,-0.97735596,0.859375,0.0625,-0.1875
523,523,1727202399447,0.13476562,-0.061584473,-0.9793091,0.78125,-0.140625,-0.171875
524,524,1727202399487,0.13354492,-0.053527832,-0.972229,0.796875,0.0,-0.1875
525,525,1727202399527,0.12939453,-0.053527832,-0.9758911,0.6875,0.09375,-0.328125
526,526,1727202399567,0.13305664,-0.054748535,-0.9795532,0.671875,-0.21875,-0.1875
527,527,1727202399607,0.13012695,-0.059387207,-0.9741821,0.84375,-0.078125,-0.21875
528,528,1727202399647,0.13134766,-0.05230713,-0.975647,0.875,0.03125,-0.125
529,529,1727202399687,0.13232422,-0.05596924,-0.97247314,0.640625,-0.078125,-0.25
530,530,1727202399727,0.1328125,-0.05718994,-0.9805298,0.921875,0.09375,-0.28125
531,531,1727202399767,0.13085938,-0.0569458,-0.9729614,0.859375,-0.203125,-0.28125
532,532,1727202399807,0.13647461,-0.053771973,-0.97369385,0.84375,0.0,-0.234375
533,533,1727202399847,0.13085938,-0.058654785,-0.97906494,0.828125,-0.0625,-0.1875
534,534,1727202399887,0.12963867,-0.05718994,-0.97613525,0.796875,0.015625,-0.171875
535,535,1727202399927,0.12988281,-0.057434082,-0.9768677,0.984375,-0.03125,-0.21875
536,536,1727202399967,0.13476562,-0.051574707,-0.98028564,0.703125,-0.09375,-0.25
537,537,1727202400007,0.13110352,-0.057434082,-0.97662354,0.859375,-0.03125,-0.1875
538,538,1727202400047,0.12670898,-0.053771973,-0.973938,0.828125,-0.21875,-0.328125
539,539,1727202400087,0.13549805,-0.054016113,-0.9741821,0.765625,-0.015625,-0.265625
540,540,1727202400127,0.13061523,-0.05621338,-0.97369385,0.8125,0.03125,-0.234375
541,541,1727202400167,0.1352539,-0.05621338,-0.97735596,0.9375,-0.140625,-0.359375
542,542,1727202400207,0.13305664,-0.059143066,-0.9780884,0.796875,0.046875,-0.28125
543,543,1727202400247,0.13671875,-0.05987549,-0.9846802,0.78125,0.015625,-0.28125
544,544,1727202400287,0.1303711,-0.05718994,-0.97857666,0.78125,-0.125,-0.265625
545,545,1727202400327,0.13256836,-0.057434082,-0.98321533,0.859375,0.03125,-0.28125
546,546,1727202400367,0.1262207,-0.05718994,-0.9751587,0.828125,0.015625,-0.296875
547,547,1727202400407,0.13305664,-0.057678223,-0.9776001,0.8125,-0.140625,-0.234375
548,548,1727202400447,0.1274414,-0.057678223,-0.97979736,0.8125,0.0625,-0.140625
549,549,1727202400487,0.13427734,-0.05303955,-0.9763794,0.8125,-0.046875,-0.296875
550,550,1727202400527,0.13183594,-0.05718994,-0.97735596,0.921875,0.078125,-0.328125
551,551,1727202400567,0.13110352,-0.05621338,-0.9697876,0.765625,-0.109375,-0.234375
552,552,1727202400607,0.12988281,-0.058166504,-0.98272705,0.765625,0.046875,-0.265625
553,553,1727202400647,0.13354492,-0.05255127,-0.97052,0.890625,-0.09375,-0.171875
554,554,1727202400687,0.13256836,-0.057922363,-0.973938,0.796875,0.015625,-0.234375
555,555,1727202400727,0.1262207,-0.05718994,-0.973938,0.890625,-0.046875,-0.203125
556,556,1727202400767,0.13085938,-0.054992676,-0.9727173,0.765625,-0.109375,-0.296875
557,557,1727202400807,0.12792969,-0.05718994,-0.97613525,0.703125,0.03125,-0.171875
558,558,1727202400847,0.13256836,-0.05718994,-0.97442627,0.78125,0.109375,-0.234375
559,559,1727202400887,0.13208008,-0.05621338,-0.97857666,0.890625,-0.0625,-0.078125
560,560,1727202400927,0.13061523,-0.05279541,-0.97857666,0.765625,0.125,-0.1875
561,561,1727202400967,0.13476562,-0.0569458,-0.9780884,0.703125,0.0625,-0.1875
562,562,1727202401007,0.13110352,-0.057922363,-0.9776001,0.890625,0.015625,-0.171875
563,563,1727202401047,0.12988281,-0.05718994,-0.97662354,0.921875,-0.0625,-0.28125
564,564,1727202401087,0.13500977,-0.0569458,-0.9727173,0.71875,-0.046875,-0.203125
565,565,1727202401127,0.13476562,-0.058410645,-0.97906494,0.8125,0.078125,-0.109375
566,566,1727202401167,0.13110352,-0.051086426,-0.97735596,0.890625,0.171875,-0.28125
567,567,1727202401207,0.13452148,-0.054260254,-0.9714966,0.796875,-0.140625,-0.265625
568,568,1727202401247,0.1340332,-0.055725098,-0.97491455,0.875,-0.046875,-0.28125
569,569,1727202401287,0.13061523,-0.051574707,-0.97979736,0.890625,0.015625,-0.265625
570,570,1727202401327,0.12963867,-0.05596924,-0.973938,0.8125,0.109375,-0.25
571,571,1727202401367,0.12670898,-0.055236816,-0.972229,0.796875,0.09375,-0.328125
572,572,1727202401407,0.13305664,-0.05621338,-0.9819946,0.78125,-0.21875,-0.21875
573,573,1727202401447,0.12988281,-0.051330566,-0.9800415,0.859375,0.171875,-0.34375
574,574,1727202401487,0.13256836,-0.062805176,-0.9846802,0.6875,-0.0625,-0.203125
575,575,1727202401527,0.12670898,-0.051330566,-0.97320557,0.765625,-0.03125,-0.078125
576,576,1727202401567,0.13476562,-0.051574707,-0.9763794,0.875,0.078125,-0.203125
577,577,1727202401607,0.13256836,-0.055480957,-0.97125244,0.859375,-0.140625,-0.234375
578,578,1727202401647,0.13183594,-0.054016113,-0.9758911,0.828125,0.078125,-0.234375
579,579,1727202401687,0.13208008,-0.05596924,-0.97784424,0.765625,-0.03125,-0.140625
580,580,1727202401727,0.1315918,-0.057678223,-0.975647,0.765625,0.0,-0.203125
581,581,1727202401767,0.13989258,-0.050598145,-0.98101807,0.734375,0.078125,-0.03125
582,582,1727202401807,0.1328125,-0.06329346,-0.9768677,0.75,0.078125,-0.125
583,583,1727202401847,0.12988281,-0.058166504,-0.9758911,0.859375,0.0625,-0.109375
584,584,1727202401887,0.13208008,-0.05303955,-0.97906494,0.859375,0.015625,-0.4375
585,585,1727202401927,0.13183594,-0.059631348,-0.97613525,0.75,0.078125,-0.28125
586,586,1727202401967,0.1303711,-0.059387207,-0.97735596,0.84375,-0.1875,-0.296875
587,587,1727202402007,0.13232422,-0.057434082,-0.97857666,0.9375,0.0625,-0.28125
588,588,1727202402047,0.13232422,-0.054748535,-0.97784424,0.796875,-0.15625,-0.3125
589,589,1727202402087,0.13427734,-0.05279541,-0.9758911,0.796875,-0.09375,-0.28125
590,590,1727202402127,0.12939453,-0.05670166,-0.972229,0.703125,-0.125,-0.21875
591,591,1727202402167,0.13720703,-0.05645752,-0.97076416,0.859375,-0.015625,-0.296875
592,592,1727202402207,0.13012695,-0.05206299,-0.97613525,0.6875,0.0625,-0.265625
593,593,1727202402247,0.1328125,-0.05621338,-0.97125244,0.828125,-0.140625,-0.15625
594,594,1727202402287,0.13623047,-0.05596924,-0.9780884,0.6875,-0.109375,-0.046875
595,595,1727202402327,0.13745117,-0.054748535,-0.97784424,0.78125,0.1875,-0.265625
596,596,1727202402367,0.13696289,-0.054748535,-0.9741821,0.59375,-0.125,-0.21875
597,597,1727202402407,0.13549805,-0.057434082,-0.97198486,0.859375,0.1875,-0.296875
598,598,1727202402447,0.13208008,-0.05645752,-0.975647,0.859375,0.109375,-0.28125
599,599,1727202402487,0.13574219,-0.051330566,-0.9751587,0.8125,0.03125,-0.078125
600,600,1727202402527,0.1328125,-0.059143066,-0.97784424,0.875,0.03125,-0.390625
601,601,1727202402567,0.13256836,-0.05230713,-0.9795532,0.796875,-0.078125,-0.296875
602,602,1727202402607,0.13012695,-0.05328369,-0.9771118,0.875,-0.125,-0.140625
603,603,1727202402647,0.12939453,-0.062072754,-0.9819946,0.734375,-0.140625,-0.359375
604,604,1727202402687,0.13061523,-0.05303955,-0.9788208,0.96875,-0.046875,-0.203125
605,605,1727202402727,0.1274414,-0.059387207,-0.97491455,0.890625,0.015625,-0.1875
606,606,1727202402767,0.13208008,-0.051330566,-0.9771118,0.8125,-0.125,-0.15625
607,607,1727202402807,0.13256836,-0.05206299,-0.9771118,0.796875,0.0,-0.203125
608,608,1727202402847,0.13232422,-0.059631348,-0.9805298,0.734375,0.015625,-0.328125
609,609,1727202402887,0.13476562,-0.054748535,-0.97662354,0.828125,-0.03125,-0.1875
610,610,1727202402927,0.1315918,-0.057678223,-0.9812622,0.78125,0.0,-0.203125
611,611,1727202402967,0.1352539,-0.061340332,-0.97320557,0.875,-0.109375,-0.1875
612,612,1727202403007,0.1328125,-0.053771973,-0.9780884,0.71875,-0.03125,-0.1875
613,613,1727202403047,0.12915039,-0.057922363,-0.97442627,0.75,-0.015625,-0.171875
614,614,1727202403087,0.1274414,-0.062561035,-0.9751587,0.765625,-0.046875,-0.328125
615,615,1727202403127,0.1274414,-0.053527832,-0.9783325,0.859375,-0.03125,-0.34375
616,616,1727202403167,0.13232422,-0.059143066,-0.9746704,0.796875,-0.21875,-0.25
617,617,1727202403207,0.13378906,-0.054016113,-0.97320557,0.703125,-0.03125,-0.234375
618,618,1727202403247,0.13916016,-0.049865723,-0.9795532,0.859375,0.078125,-0.171875
619,619,1727202403287,0.12963867,-0.057678223,-0.97613525,0.828125,-0.015625,-0.203125
620,620,1727202403327,0.13208008,-0.057434082,-0.9793091,0.8125,-0.140625,-0.265625
621,621,1727202403367,0.13110352,-0.062561035,-0.9793091,0.875,-0.03125,-0.3125
622,622,1727202403407,0.1262207,-0.058166504,-0.9776001,0.859375,-0.03125,-0.15625
623,623,1727202403447,0.1303711,-0.054748535,-0.97784424,0.84375,0.015625,-0.171875
624,624,1727202403487,0.13452148,-0.05303955,-0.97442627,0.8125,-0.03125,-0.125
625,625,1727202403527,0.1315918,-0.057434082,-0.9717407,0.75,0.0,-0.171875
626,626,1727202403567,0.13012695,-0.054748535,-0.986145,0.8125,0.0,-0.140625
627,627,1727202403607,0.13745117,-0.055480957,-0.9776001,0.84375,0.09375,-0.125
628,628,1727202403647,0.1352539,-0.057434082,-0.97857666,0.71875,0.015625,-0.375
629,629,1727202403687,0.12548828,-0.05670166,-0.9819946,0.640625,0.0625,-0.375
630,630,1727202403727,0.13378906,-0.051574707,-0.9768677,0.890625,0.015625,-0.3125
631,631,1727202403767,0.13452148,-0.0569458,-0.9763794,0.90625,0.0625,-0.234375
632,632,1727202403807,0.1352539,-0.054748535,-0.97540283,0.859375,0.109375,-0.140625
633,633,1727202403847,0.13134766,-0.050109863,-0.9768677,0.890625,-0.078125,-0.234375
634,634,1727202403887,0.1328125,-0.059143066,-0.9788208,0.875,0.03125,-0.21875
635,635,1727202403927,0.13085938,-0.05596924,-0.97735596,0.875,0.140625,-0.140625
636,636,1727202403967,0.13500977,-0.057922363,-0.9746704,0.953125,-0.15625,-0.15625
637,637,1727202404007,0.13330078,-0.057922363,-0.9758911,0.828125,-0.015625,-0.296875
638,638,1727202404047,0.12792969,-0.058654785,-0.9805298,0.6875,0.09375,-0.34375
639,639,1727202404087,0.13110352,-0.0569458,-0.9727173,0.8125,-0.046875,-0.234375
640,640,1727202404127,0.12817383,-0.058654785,-0.9780884,0.71875,0.0625,-0.1875
641,641,1727202404167,0.13378906,-0.058898926,-0.9776001,0.8125,-0.125,-0.21875
642,642,1727202404207,0.12670898,-0.059143066,-0.97979736,0.8125,0.28125,-0.203125
643,643,1727202404247,0.13061523,-0.06060791,-0.9751587,0.765625,0.0625,-0.171875
644,644,1727202404287,0.12451172,-0.057922363,-0.9788208,0.5625,0.109375,-0.28125
645,645,1727202404327,0.13012695,-0.0569458,-0.97784424,0.734375,0.015625,-0.109375
646,646,1727202404367,0.13867188,-0.05596924,-0.9751587,0.71875,0.015625,-0.21875
647,647,1727202404407,0.12890625,-0.05718994,-0.97540283,0.796875,0.015625,-0.1875
648,648,1727202404447,0.12866211,-0.049621582,-0.9741821,0.75,-0.046875,-0.265625
649,649,1727202404487,0.13208008,-0.050598145,-0.9771118,0.890625,-0.125,-0.296875
650,650,1727202404527,0.13305664,-0.054016113,-0.97613525,0.796875,-0.03125,-0.375
651,651,1727202404567,0.13793945,-0.05279541,-0.9758911,0.765625,0.046875,-0.203125
652,652,1727202404607,0.1315918,-0.05718994,-0.97979736,0.90625,0.015625,-0.296875
653,653,1727202404647,0.13232422,-0.054260254,-0.97857666,0.9375,-0.046875,-0.28125
654,654,1727202404687,0.12768555,-0.05621338,-0.9800415,0.921875,-0.046875,-0.15625
655,655,1727202404727,0.12963867,-0.054016113,-0.9734497,0.78125,0.046875,-0.375
656,656,1727202404767,0.12695312,-0.05230713,-0.9710083,0.828125,0.125,-0.1875
657,657,1727202404807,0.13305664,-0.059387207,-0.97784424,0.953125,-0.0625,-0.34375
658,658,1727202404847,0.13134766,-0.05987549,-0.9768677,0.84375,-0.203125,-0.109375
659,659,1727202404887,0.13208008,-0.059143066,-0.9800415,0.828125,0.03125,-0.25
660,660,1727202404927,0.12988281,-0.055480957,-0.97247314,0.71875,-0.03125,-0.21875
661,661,1727202404967,0.13183594,-0.055725098,-0.9776001,0.9375,-0.078125,-0.1875
662,662,1727202405007,0.13452148,-0.057678223,-0.9805298,0.890625,0.078125,-0.1875
663,663,1727202405047,0.13134766,-0.058898926,-0.9729614,0.78125,0.015625,-0.3125
664,664,1727202405087,0.13623047,-0.058654785,-0.97003174,0.96875,0.0625,-0.34375
665,665,1727202405127,0.1352539,-0.061828613,-0.9788208,0.75,-0.046875,-0.296875
666,666,1727202405167,0.12890625,-0.051330566,-0.97320557,0.859375,-0.0625,-0.1875
667,667,1727202405207,0.13208008,-0.055480957,-0.973938,0.71875,0.203125,-0.21875
668,668,1727202405247,0.13745117,-0.057434082,-0.97540283,0.78125,0.046875,-0.1875
669,669,1727202405287,0.13598633,-0.058654785,-0.9746704,0.734375,0.171875,-0.203125
670,670,1727202405327,0.13623047,-0.058166504,-0.97735596,0.71875,-0.0625,-0.203125
671,671,1727202405367,0.13085938,-0.05328369,-0.9859009,0.859375,0.109375,-0.25
672,672,1727202405407,0.1328125,-0.05670166,-0.9771118,0.875,0.0625,-0.25
673,673,1727202405447,0.12719727,-0.06500244,-0.9763794,0.8125,0.21875,-0.203125
674,674,1727202405487,0.13623047,-0.059631348,-0.9758911,0.796875,-0.015625,-0.125
675,675,1727202405527,0.1303711,-0.059631348,-0.9795532,0.953125,0.015625,-0.234375
676,676,1727202405567,0.12988281,-0.054748535,-0.97784424,0.859375,-0.015625,-0.25
677,677,1727202405607,0.13427734,-0.054260254,-0.9780884,0.921875,-0.125,-0.21875
678,678,1727202405647,0.12988281,-0.061584473,-0.9771118,0.875,0.046875,-0.203125
679,679,1727202405687,0.13085938,-0.054504395,-0.97857666,0.890625,-0.125,-0.28125
680,680,1727202405727,0.13134766,-0.05718994,-0.9727173,0.796875,0.0625,-0.3125
681,681,1727202405767,0.122802734,-0.055480957,-0.9741821,0.84375,-0.03125,-0.15625
682,682,1727202405807,0.12402344,-0.05645752,-0.972229,0.71875,-0.09375,-0.28125
683,683,1727202405847,0.12939453,-0.05987549,-0.97662354,0.703125,-0.046875,-0.1875
684,684,1727202405887,0.12939453,-0.054260254,-0.97784424,0.78125,0.078125,-0.15625
685,685,1727202405927,0.1303711,-0.05718994,-0.9807739,0.71875,0.015625,-0.25
686,686,1727202405967,0.13085938,-0.051086426,-0.9741821,0.75,0.046875,-0.390625
687,687,1727202406007,0.12573242,-0.051818848,-0.98028564,0.703125,-0.015625,-0.34375
688,688,1727202406047,0.1237793,-0.05718994,-0.97491455,0.8125,0.03125,-0.3125
689,689,1727202406087,0.12841797,-0.055725098,-0.9788208,0.78125,-0.015625,-0.25
690,690,1727202406127,0.13208008,-0.05718994,-0.9841919,0.78125,0.0625,-0.234375
691,691,1727202406167,0.13061523,-0.054260254,-0.9717407,0.765625,-0.234375,-0.21875
692,692,1727202406207,0.12597656,-0.057922363,-0.97491455,0.75,-0.078125,-0.28125
693,693,1727202406247,0.1274414,-0.05596924,-0.9763794,0.765625,-0.140625,-0.234375
694,694,1727202406287,0.1237793,-0.053771973,-0.97735596,0.828125,-0.046875,-0.109375
695,695,1727202406327,0.125,-0.050842285,-0.9763794,0.921875,-0.015625,-0.21875
696,696,1727202406367,0.12866211,-0.055725098,-0.9788208,0.90625,0.09375,-0.125
697,697,1727202406407,0.13232422,-0.06011963,-0.973938,0.953125,-0.078125,-0.28125
698,698,1727202406447,0.13476562,-0.05328369,-0.9710083,0.875,-0.015625,-0.234375
699,699,1727202406487,0.12719727,-0.054016113,-0.9849243,0.875,-0.078125,-0.375
700,700,1727202406527,0.12841797,-0.05645752,-0.9837036,0.9375,0.03125,-0.234375
701,701,1727202406567,0.13012695,-0.057678223,-0.9734497,0.875,0.0625,-0.15625
702,702,1727202406607,0.1328125,-0.057678223,-0.97491455,0.84375,-0.140625,-0.140625
703,703,1727202406647,0.12988281,-0.057922363,-0.97906494,0.828125,-0.234375,-0.21875
704,704,1727202406687,0.12792969,-0.054016113,-0.97906494,0.8125,0.046875,-0.296875
705,705,1727202406727,0.12841797,-0.049865723,-0.97491455,0.625,-0.09375,-0.265625
706,706,1727202406767,0.13378906,-0.054748535,-0.9771118,0.765625,0.03125,-0.203125
707,707,1727202406807,0.13110352,-0.05328369,-0.97662354,0.953125,-0.078125,-0.28125
708,708,1727202406847,0.13330078,-0.058654785,-0.9768677,0.734375,-0.046875,-0.28125
709,709,1727202406887,0.1328125,-0.058654785,-0.9727173,0.734375,-0.109375,-0.171875
710,710,1727202406927,0.12866211,-0.06085205,-0.97540283,0.875,0.078125,-0.234375
711,711,1727202406967,0.13696289,-0.054260254,-0.97784424,0.875,0.109375,-0.234375
712,712,1727202407007,0.12817383,-0.05328369,-0.97857666,0.875,0.078125,-0.1875
713,713,1727202407047,0.13061523,-0.057678223,-0.9746704,0.890625,-0.015625,-0.15625
714,714,1727202407087,0.1303711,-0.054992676,-0.97613525,0.75,-0.125,-0.1875
715,715,1727202407127,0.1328125,-0.05328369,-0.975647,0.78125,-0.0625,-0.21875
716,716,1727202407167,0.12890625,-0.053771973,-0.972229,0.921875,-0.09375,-0.234375
717,717,1727202407207,0.13378906,-0.055480957,-0.9758911,0.8125,-0.03125,-0.328125
718,718,1727202407247,0.12890625,-0.054504395,-0.97320557,0.859375,0.046875,-0.3125
719,719,1727202407287,0.13500977,-0.05206299,-0.97662354,0.78125,0.109375,-0.203125
720,720,1727202407327,0.123291016,-0.05621338,-0.97857666,0.734375,0.0,-0.234375
721,721,1727202407367,0.12963867,-0.06011963,-0.9727173,0.96875,-0.03125,-0.265625
722,722,1727202407407,0.13574219,-0.062072754,-0.9819946,0.828125,-0.1875,-0.109375
723,723,1727202407447,0.12988281,-0.06085205,-0.97784424,0.875,0.0625,-0.359375
724,724,1727202407487,0.13378906,-0.05987549,-0.97442627,0.828125,0.078125,-0.359375
725,725,1727202407527,0.1340332,-0.05328369,-0.972229,0.953125,-0.109375,-0.21875
726,726,1727202407567,0.12988281,-0.051086426,-0.9783325,0.875,0.046875,-0.15625
727,727,1727202407607,0.1303711,-0.04888916,-0.973938,0.8125,-0.109375,-0.140625
728,728,1727202407647,0.13476562,-0.053771973,-0.97540283,0.78125,-0.015625,-0.109375
729,729,1727202407687,0.13110352,-0.059143066,-0.97857666,0.8125,0.140625,-0.203125
730,730,1727202407727,0.13574219,-0.055236816,-0.9697876,0.796875,0.0,-0.265625
731,731,1727202407767,0.12695312,-0.05230713,-0.97247314,0.859375,0.015625,-0.296875
732,732,1727202407807,0.13012695,-0.05670166,-0.97320557,0.859375,0.0625,-0.21875
733,733,1727202407847,0.12670898,-0.061340332,-0.9758911,0.859375,0.140625,-0.25
734,734,1727202407887,0.12866211,-0.058654785,-0.97906494,0.84375,0.09375,-0.234375
735,735,1727202407927,0.13012695,-0.055725098,-0.973938,0.90625,0.140625,-0.140625
736,736,1727202407967,0.1328125,-0.05255127,-0.9741821,0.734375,-0.078125,-0.3125
737,737,1727202408007,0.12915039,-0.058898926,-0.9771118,0.796875,0.109375,-0.296875
738,738,1727202408047,0.12866211,-0.061584473,-0.9783325,0.765625,0.03125,-0.28125
739,739,1727202408087,0.122802734,-0.057922363,-0.9741821,0.78125,0.046875,-0.34375
740,740,1727202408127,0.12866211,-0.054016113,-0.97662354,0.8125,0.203125,-0.140625
741,741,1727202408167,0.13378906,-0.059631348,-0.9758911,0.90625,0.109375,-0.234375
742,742,1727202408207,0.13110352,-0.058166504,-0.9834595,0.953125,0.125,-0.234375
743,743,1727202408247,0.13061523,-0.050109863,-0.9727173,0.828125,0.078125,-0.328125
744,744,1727202408287,0.12988281,-0.05596924,-0.9807739,0.875,0.015625,-0.203125
745,745,1727202408327,0.13452148,-0.055236816,-0.97735596,0.6875,0.0,-0.34375
746,746,1727202408367,0.1315918,-0.054504395,-0.98394775,1.046875,0.0,-0.28125
747,747,1727202408407,0.1315918,-0.05670166,-0.98101807,0.90625,-0.109375,-0.21875
748,748,1727202408447,0.12915039,-0.057678223,-0.975647,0.84375,0.015625,-0.28125
749,749,1727202408487,0.12939453,-0.06060791,-0.97540283,0.796875,0.09375,-0.234375
750,750,1727202408527,0.12841797,-0.054748535,-0.9771118,0.8125,-0.015625,-0.0625
751,751,1727202408567,0.12792969,-0.055236816,-0.9751587,0.796875,0.15625,-0.359375
752,752,1727202408607,0.13061523,-0.058166504,-0.9734497,0.765625,-0.15625,-0.25
753,753,1727202408647,0.12670898,-0.054748535,-0.97491455,0.78125,-0.234375,-0.09375
754,754,1727202408687,0.12915039,-0.058410645,-0.9807739,0.890625,-0.03125,-0.328125
755,755,1727202408727,0.12915039,-0.058166504,-0.9780884,0.75,-0.078125,-0.1875
756,756,1727202408767,0.12817383,-0.057678223,-0.9741821,0.875,0.171875,-0.078125
757,757,1727202408807,0.12792969,-0.053771973,-0.9780884,0.828125,0.078125,-0.390625
758,758,1727202408847,0.12817383,-0.053771973,-0.9793091,0.796875,-0.078125,-0.140625
