,Unnamed: 0,timestamp,accel_x,accel_y,accel_z,gyro_x,gyro_y,gyro_z
0,0,1727346705953,0.0053710938,-0.061584473,-1.0029907,-1.140625,0.65625,-0.359375
1,1,1727346705993,0.0048828125,-0.06085205,-1.0059204,-0.046875,0.71875,-0.359375
2,2,1727346706033,0.0014648438,-0.05279541,-1.0125122,-0.375,0.6875,-0.390625
3,3,1727346706073,0.0012207031,-0.05987549,-1.0054321,-0.484375,0.640625,-0.34375
4,4,1727346706113,0.010498047,-0.057434082,-1.0093384,-0.5625,0.53125,-0.28125
5,5,1727346706153,0.0031738281,-0.058410645,-1.0093384,-0.953125,0.6875,-0.21875
6,6,1727346706193,0.0063476562,-0.04864502,-1.0066528,-0.921875,0.46875,-0.15625
7,7,1727346706233,0.005859375,-0.06036377,-1.0100708,-0.546875,0.5625,-0.265625
8,8,1727346706273,-0.0043945312,-0.06329346,-1.0144653,-0.40625,0.578125,-0.171875
9,9,1727346706313,0.006591797,-0.05670166,-1.0015259,-0.1875,0.75,-0.125
10,10,1727346706353,0.008544922,-0.057434082,-1.0090942,0.046875,0.15625,-0.234375
11,11,1727346706393,0.0053710938,-0.05255127,-1.0147095,-0.015625,0.28125,-0.296875
12,12,1727346706433,0.007080078,-0.058410645,-1.0154419,-0.75,0.46875,-0.09375
13,13,1727346706473,0.0021972656,-0.05645752,-1.0076294,-0.796875,0.453125,-0.140625
14,14,1727346706513,0.0073242188,-0.054016113,-1.0046997,-1.015625,0.5625,-0.25
15,15,1727346706553,0.0053710938,-0.062805176,-1.0064087,-0.609375,0.375,-0.25
16,16,1727346706593,0.0036621094,-0.054992676,-1.0110474,-0.53125,0.59375,-0.140625
17,17,1727346706633,0.008056641,-0.055725098,-1.0105591,-0.78125,0.515625,-0.296875
18,18,1727346706673,0.005859375,-0.054016113,-1.0147095,-0.796875,0.546875,-0.25
19,19,1727346706713,0.0036621094,-0.051574707,-1.0115356,-0.703125,0.5625,-0.109375
20,20,1727346706753,0.006591797,-0.055480957,-1.0073853,-0.703125,0.75,-0.0625
21,21,1727346706793,0.0061035156,-0.05645752,-1.0064087,-0.625,0.9375,-0.3125
22,22,1727346706833,0.00048828125,-0.055236816,-1.0108032,-0.671875,0.828125,-0.203125
23,23,1727346706873,-0.0024414062,-0.055236816,-1.015686,-0.84375,0.9375,-0.28125
24,24,1727346706913,0.0012207031,-0.0569458,-1.010315,-0.765625,0.78125,-0.234375
25,25,1727346706953,0.0017089844,-0.05645752,-1.0120239,-0.875,0.859375,-0.140625
26,26,1727346706993,0.0012207031,-0.058654785,-1.006897,-1.3125,1.171875,-0.171875
27,27,1727346707033,0.00390625,-0.053771973,-1.0042114,-1.5,1.453125,-0.0625
28,28,1727346707073,-0.0014648438,-0.05230713,-1.006897,-1.65625,1.421875,-0.109375
29,29,1727346707113,-0.0017089844,-0.053527832,-1.0100708,-1.640625,1.21875,-0.15625
30,30,1727346707153,-0.009277344,-0.06011963,-1.0015259,-2.109375,1.421875,-0.09375
31,31,1727346707193,-0.008544922,-0.05230713,-1.0108032,-1.625,1.109375,-0.109375
32,32,1727346707233,0.0034179688,-0.058654785,-1.0108032,-1.734375,1.28125,-0.125
33,33,1727346707273,-0.0087890625,-0.05596924,-1.0147095,-1.703125,1.15625,-0.25
34,34,1727346707313,-0.008300781,-0.059387207,-1.0076294,-1.40625,1.015625,-0.15625
35,35,1727346707353,-0.0068359375,-0.058898926,-1.0061646,-0.90625,0.78125,-0.15625
36,36,1727346707393,-0.007080078,-0.06329346,-1.0071411,-1.28125,1.15625,-0.140625
37,37,1727346707433,-0.007080078,-0.05987549,-1.0151978,-1.296875,0.90625,-0.109375
38,38,1727346707473,-0.012207031,-0.06085205,-1.0125122,-1.1875,0.890625,-0.234375
39,39,1727346707513,-0.010253906,-0.06524658,-1.0076294,-1.484375,1.03125,-0.015625
40,40,1727346707553,-0.008544922,-0.06304932,-1.0105591,-1.359375,0.828125,-0.15625
41,41,1727346707593,-0.01171875,-0.0647583,-1.0127563,-1.078125,0.859375,-0.21875
42,42,1727346707633,-0.0026855469,-0.062561035,-1.0112915,-1.15625,0.671875,-0.046875
43,43,1727346707673,-0.010986328,-0.06378174,-1.0059204,-0.875,0.5625,-0.171875
44,44,1727346707713,-0.009033203,-0.06500244,-1.0081177,-1.015625,0.609375,-0.1875
45,45,1727346707753,-0.010498047,-0.06793213,-1.0066528,-1.03125,0.578125,-0.21875
46,46,1727346707793,-0.009765625,-0.06866455,-1.0054321,-0.578125,0.3125,-0.328125
47,47,1727346707833,-0.0075683594,-0.061584473,-1.0090942,-0.640625,0.359375,-0.234375
48,48,1727346707873,-0.012451172,-0.06768799,-1.0088501,-0.546875,0.375,-0.171875
49,49,1727346707913,-0.013427734,-0.06573486,-1.0083618,-0.53125,0.453125,-0.21875
50,50,1727346707953,-0.0087890625,-0.066711426,-1.005188,-0.390625,0.203125,-0.21875
51,51,1727346707993,-0.011962891,-0.062072754,-1.0046997,0.890625,-0.234375,-0.234375
52,52,1727346708033,-0.011230469,-0.057922363,-1.0105591,2.390625,-0.875,-0.4375
53,53,1727346708073,-0.0053710938,-0.055725098,-1.0132446,0.375,-0.234375,-0.21875
54,54,1727346708113,-0.0075683594,-0.054992676,-1.010315,-1.1875,0.484375,-0.28125
55,55,1727346708153,-0.0048828125,-0.058166504,-1.0105591,-1.296875,0.578125,-0.125
56,56,1727346708193,-0.009033203,-0.055725098,-1.0032349,-0.625,0.25,-0.296875
57,57,1727346708233,0.0012207031,-0.054992676,-1.0088501,0.03125,-0.296875,-0.4375
58,58,1727346708273,-0.0021972656,-0.050842285,-1.0115356,-0.03125,-0.140625,-0.21875
59,59,1727346708313,-0.008056641,-0.05206299,-1.0110474,-0.59375,0.203125,-0.265625
60,60,1727346708353,-0.0024414062,-0.05645752,-1.0090942,-0.8125,0.3125,-0.28125
61,61,1727346708393,-0.0036621094,-0.05255127,-1.0134888,-0.46875,0.015625,-0.1875
62,62,1727346708433,-0.00390625,-0.049621582,-1.010315,-0.78125,-0.015625,-0.140625
63,63,1727346708473,-0.006591797,-0.047912598,-1.0134888,-1.078125,0.40625,-0.109375
64,64,1727346708513,-0.0036621094,-0.050354004,-1.0115356,-1.109375,0.375,-0.390625
65,65,1727346708553,-0.0029296875,-0.055236816,-1.0122681,-1.171875,0.421875,-0.140625
66,66,1727346708593,0.00024414062,-0.051574707,-1.008606,-1.015625,0.375,-0.34375
67,67,1727346708633,-0.0007324219,-0.051818848,-1.0134888,-0.984375,0.421875,-0.359375
68,68,1727346708673,0.00048828125,-0.061828613,-1.0071411,-2.046875,0.828125,-0.28125
69,69,1727346708713,-0.00024414062,-0.05328369,-1.0151978,-1.578125,0.21875,-0.28125
70,70,1727346708753,-0.0036621094,-0.054260254,-1.0130005,-1.75,0.4375,-0.25
71,71,1727346708793,-0.00390625,-0.054748535,-1.0183716,-1.84375,0.4375,-0.375
72,72,1727346708833,-0.0063476562,-0.057678223,-1.0056763,-1.515625,0.421875,-0.15625
73,73,1727346708873,-0.00390625,-0.061584473,-1.0083618,-1.234375,0.28125,-0.25
74,74,1727346708913,-0.006591797,-0.05621338,-1.0108032,-1.125,0.4375,-0.296875
75,75,1727346708953,-0.0036621094,-0.059387207,-1.0105591,-1.203125,0.375,-0.25
76,76,1727346708993,0.00024414062,-0.058654785,-1.0073853,-0.828125,0.234375,-0.296875
77,77,1727346709033,-0.0007324219,-0.0569458,-1.008606,-0.921875,0.40625,-0.375
78,78,1727346709073,-0.0034179688,-0.06060791,-1.0093384,-0.734375,0.3125,-0.171875
79,79,1727346709113,0.0029296875,-0.059387207,-1.0108032,-0.9375,0.5625,-0.28125
80,80,1727346709153,0.0012207031,-0.058898926,-1.0147095,-1.140625,0.46875,-0.28125
81,81,1727346709193,-0.0021972656,-0.057922363,-1.0117798,-1.125,0.5,-0.203125
82,82,1727346709233,0.0026855469,-0.06085205,-1.005188,-1.0625,0.5,-0.28125
83,83,1727346709273,-0.0036621094,-0.06500244,-1.0042114,-1.0,0.484375,-0.3125
84,84,1727346709313,-0.009521484,-0.058654785,-1.0098267,-0.609375,0.5625,-0.296875
85,85,1727346709353,0.00048828125,-0.062316895,-1.0154419,-0.9375,0.578125,-0.171875
86,86,1727346709393,0.0024414062,-0.06085205,-1.0078735,-0.484375,0.578125,-0.1875
87,87,1727346709433,0.00048828125,-0.05645752,-1.0161743,-0.109375,0.46875,-0.4375
88,88,1727346709473,-0.0007324219,-0.05328369,-1.0066528,-0.6875,0.765625,-0.125
89,89,1727346709513,-0.0014648438,-0.055725098,-1.0105591,-0.953125,0.765625,-0.15625
90,90,1727346709553,-0.00048828125,-0.05718994,-1.0098267,-1.375,0.6875,-0.265625
91,91,1727346709593,0.005859375,-0.057434082,-1.0095825,-0.984375,0.484375,-0.296875
92,92,1727346709633,-0.00024414062,-0.058166504,-1.0100708,-0.703125,0.203125,-0.296875
93,93,1727346709673,-0.001953125,-0.055480957,-1.0149536,-0.609375,0.15625,-0.328125
94,94,1727346709713,-0.004638672,-0.059387207,-1.0149536,-1.171875,0.53125,-0.1875
95,95,1727346709753,0.0,-0.055725098,-1.0147095,-1.28125,0.765625,-0.125
96,96,1727346709793,-0.0063476562,-0.05645752,-1.0144653,-1.09375,0.671875,-0.328125
97,97,1727346709833,0.00048828125,-0.055480957,-1.0110474,-1.015625,0.578125,-0.171875
98,98,1727346709873,-0.005126953,-0.06085205,-1.0088501,-0.75,0.765625,-0.140625
99,99,1727346709913,-0.01171875,-0.057678223,-1.0098267,-0.84375,0.6875,-0.171875
100,100,1727346709953,-0.0009765625,-0.055480957,-1.0134888,-0.90625,0.78125,-0.296875
101,101,1727346709993,-0.008056641,-0.06304932,-1.0127563,-1.015625,0.828125,-0.234375
102,102,1727346710033,-0.001953125,-0.058410645,-1.0130005,-1.046875,0.765625,-0.234375
103,103,1727346710073,-0.007080078,-0.05987549,-1.0098267,-0.9375,0.71875,-0.3125
104,104,1727346710113,-0.0029296875,-0.061828613,-1.0095825,-0.953125,0.78125,-0.21875
105,105,1727346710153,-0.0041503906,-0.05718994,-1.0081177,-1.203125,0.953125,-0.21875
106,106,1727346710193,-0.0068359375,-0.06573486,-1.0059204,-1.0625,0.765625,-0.109375
107,107,1727346710233,-0.0053710938,-0.05987549,-1.0137329,-1.0625,0.65625,-0.375
108,108,1727346710273,-0.008056641,-0.05621338,-1.006897,-1.265625,0.828125,-0.078125
109,109,1727346710313,-0.009277344,-0.06011963,-1.0134888,-1.21875,0.78125,-0.28125
110,110,1727346710353,-0.008544922,-0.05230713,-1.0120239,-1.171875,0.6875,-0.234375
111,111,1727346710393,-0.0043945312,-0.0635376,-1.0078735,-1.328125,0.5625,-0.234375
112,112,1727346710433,-0.011474609,-0.059631348,-1.0125122,-1.015625,0.671875,-0.34375
113,113,1727346710473,-0.0075683594,-0.062072754,-1.0117798,-0.8125,0.46875,-0.296875
114,114,1727346710513,-0.0061035156,-0.057678223,-1.0095825,-0.75,0.375,-0.375
115,115,1727346710553,-0.009765625,-0.06402588,-1.010315,-0.4375,0.25,-0.265625
116,116,1727346710593,-0.0075683594,-0.058898926,-1.010315,-0.71875,0.1875,-0.25
117,117,1727346710633,-0.0026855469,-0.05718994,-1.0056763,-0.640625,0.28125,-0.109375
118,118,1727346710673,-0.0012207031,-0.058654785,-1.0088501,-0.65625,0.109375,-0.34375
119,119,1727346710713,-0.005126953,-0.06011963,-1.0178833,-0.265625,0.0,-0.28125
120,120,1727346710753,-0.001953125,-0.06304932,-1.0115356,-0.3125,0.171875,-0.328125
121,121,1727346710793,-0.0068359375,-0.055725098,-1.0073853,-0.734375,0.359375,-0.25
122,122,1727346710833,-0.0061035156,-0.06060791,-1.0115356,-0.796875,0.5,-0.3125
123,123,1727346710873,0.0,-0.04937744,-1.0005493,-0.921875,0.65625,-0.21875
124,124,1727346710913,0.0014648438,-0.05645752,-1.0115356,-0.671875,0.46875,-0.421875
125,125,1727346710953,-0.0036621094,-0.054748535,-1.0027466,-0.9375,0.5625,-0.265625
126,126,1727346710993,-0.0061035156,-0.05718994,-1.010315,-0.78125,0.390625,-0.109375
127,127,1727346711033,-0.0021972656,-0.06036377,-1.010315,-0.953125,0.484375,-0.234375
128,128,1727346711073,-0.0031738281,-0.057678223,-1.0100708,-0.71875,0.375,-0.375
129,129,1727346711113,-0.0007324219,-0.05596924,-1.0093384,-0.65625,0.25,-0.234375
130,130,1727346711153,-0.005859375,-0.05303955,-1.013977,-0.859375,0.53125,-0.21875
131,131,1727346711193,-0.0056152344,-0.05987549,-1.0130005,-0.9375,0.46875,-0.234375
132,132,1727346711233,-0.009033203,-0.059387207,-1.0093384,-0.875,0.390625,-0.3125
133,133,1727346711273,-0.0068359375,-0.054992676,-1.0098267,-0.890625,0.484375,-0.3125
134,134,1727346711313,-0.0012207031,-0.061340332,-1.0105591,-0.921875,0.5625,-0.265625
135,135,1727346711353,-0.0043945312,-0.06500244,-1.0098267,-0.875,0.453125,-0.265625
136,136,1727346711393,-0.0029296875,-0.055725098,-1.0125122,-0.84375,0.484375,-0.1875
137,137,1727346711433,-0.00024414062,-0.054016113,-1.0122681,-0.859375,0.46875,-0.203125
138,138,1727346711473,0.00024414062,-0.05670166,-1.0147095,-0.90625,0.390625,-0.203125
139,139,1727346711513,-0.008056641,-0.059143066,-1.0112915,-0.84375,0.296875,-0.203125
140,140,1727346711553,0.0014648438,-0.061340332,-1.0090942,-1.015625,0.6875,-0.3125
141,141,1727346711593,-0.0048828125,-0.05645752,-1.0122681,-0.75,0.640625,-0.21875
142,142,1727346711633,-0.0029296875,-0.061340332,-1.0083618,-0.734375,0.5,-0.171875
143,143,1727346711673,-0.0029296875,-0.054504395,-1.0166626,-0.796875,0.390625,-0.140625
144,144,1727346711713,-0.0041503906,-0.05328369,-1.0125122,-0.796875,0.46875,-0.046875
145,145,1727346711753,-0.0014648438,-0.053527832,-1.010315,-0.78125,0.359375,-0.40625
146,146,1727346711793,-0.0014648438,-0.06036377,-1.0083618,-0.859375,0.625,-0.1875
147,147,1727346711833,0.00024414062,-0.05596924,-1.0095825,-0.921875,0.46875,-0.359375
148,148,1727346711873,0.00390625,-0.057678223,-1.0125122,-0.84375,0.453125,-0.234375
149,149,1727346711913,-0.0068359375,-0.062072754,-1.0120239,-0.84375,0.328125,-0.21875
150,150,1727346711953,-0.001953125,-0.059387207,-1.0151978,-0.921875,0.40625,-0.203125
151,151,1727346711993,-0.004638672,-0.062072754,-1.0112915,-0.921875,0.515625,-0.28125
152,152,1727346712033,-0.009277344,-0.061340332,-1.0066528,-0.8125,0.609375,-0.171875
153,153,1727346712073,-0.0029296875,-0.058898926,-1.0090942,-0.6875,0.46875,-0.1875
154,154,1727346712113,0.00024414062,-0.058410645,-1.0127563,-0.96875,0.578125,-0.25
155,155,1727346712153,-0.0021972656,-0.059143066,-1.0039673,-0.6875,0.390625,-0.375
156,156,1727346712193,-0.004638672,-0.058166504,-1.0120239,-0.71875,0.28125,-0.21875
157,157,1727346712233,-0.0075683594,-0.058654785,-1.0037231,-0.703125,0.296875,-0.34375
158,158,1727346712273,-0.0068359375,-0.053771973,-1.0186157,-0.734375,0.3125,-0.15625
159,159,1727346712313,-0.0009765625,-0.062561035,-1.0112915,-0.96875,0.453125,-0.296875
160,160,1727346712353,-0.0021972656,-0.054992676,-1.0125122,-0.75,0.4375,-0.15625
161,161,1727346712393,-0.0012207031,-0.061584473,-1.0105591,-0.859375,0.421875,-0.234375
162,162,1727346712433,-0.0034179688,-0.06378174,-1.0098267,-1.0625,0.578125,-0.1875
163,163,1727346712473,-0.010498047,-0.054992676,-1.0056763,-1.1875,0.46875,-0.328125
164,164,1727346712513,-0.00390625,-0.057678223,-1.0122681,-0.78125,0.609375,-0.359375
165,165,1727346712553,-0.0031738281,-0.05621338,-1.0125122,-1.078125,0.46875,-0.21875
166,166,1727346712593,-0.0041503906,-0.05645752,-1.0105591,-0.9375,0.453125,-0.140625
167,167,1727346712633,-0.0024414062,-0.055236816,-1.0073853,-0.859375,0.40625,-0.1875
168,168,1727346712673,-0.0043945312,-0.06109619,-1.0122681,-0.84375,0.328125,-0.34375
169,169,1727346712713,0.0009765625,-0.061584473,-1.010315,-1.046875,0.53125,-0.296875
170,170,1727346712753,-0.009521484,-0.051818848,-1.010315,-1.609375,0.421875,-0.3125
171,171,1727346712793,-0.0034179688,-0.05645752,-1.0093384,-1.703125,0.578125,-0.359375
172,172,1727346712833,-0.0031738281,-0.058166504,-1.0112915,-1.96875,0.671875,-0.28125
173,173,1727346712873,0.0036621094,-0.06085205,-1.0020142,-2.96875,0.90625,-0.25
174,174,1727346712913,-0.0073242188,-0.062316895,-1.0108032,-3.1875,0.53125,-0.234375
175,175,1727346712953,-0.0024414062,-0.06793213,-1.0071411,-2.28125,0.625,-0.328125
176,176,1727346712993,-0.00048828125,-0.07086182,-1.0054321,-1.5,0.515625,-0.125
177,177,1727346713033,0.00048828125,-0.0713501,-1.0122681,-1.078125,0.375,-0.390625
178,178,1727346713073,-0.0056152344,-0.06549072,-1.0010376,-0.71875,0.40625,-0.09375
179,179,1727346713113,-0.0056152344,-0.06719971,-1.0090942,-0.75,0.40625,-0.234375
180,180,1727346713153,-0.0026855469,-0.06524658,-1.0137329,-0.453125,0.296875,-0.203125
181,181,1727346713193,-0.0029296875,-0.06915283,-1.0110474,-0.78125,0.421875,-0.234375
182,182,1727346713233,0.00024414062,-0.07745361,-1.0064087,-1.03125,0.53125,-0.21875
183,183,1727346713273,-0.00048828125,-0.06744385,-1.0130005,-0.75,0.78125,-0.484375
184,184,1727346713313,-0.0021972656,-0.07232666,-1.0100708,-1.296875,0.6875,-0.3125
185,185,1727346713353,-0.006591797,-0.066467285,-1.0073853,-1.59375,0.625,-0.234375
186,186,1727346713393,0.0,-0.06939697,-1.0056763,-1.53125,0.640625,-0.171875
187,187,1727346713433,-0.0061035156,-0.07281494,-1.010315,-0.9375,0.53125,-0.1875
188,188,1727346713473,0.0007324219,-0.06451416,-1.0037231,-0.546875,0.578125,-0.1875
189,189,1727346713513,-0.009277344,-0.07623291,-1.0083618,-0.125,0.328125,-0.25
190,190,1727346713553,-0.0021972656,-0.070617676,-1.0130005,-0.015625,0.4375,-0.3125
191,191,1727346713593,-0.001953125,-0.062805176,-1.0100708,-0.015625,0.484375,-0.234375
192,192,1727346713633,-0.0012207031,-0.06695557,-1.0083618,-0.625,0.59375,-0.125
193,193,1727346713673,0.0009765625,-0.061828613,-1.0105591,-1.046875,0.46875,-0.21875
194,194,1727346713713,-0.001953125,-0.0713501,-1.0081177,-0.9375,0.609375,-0.234375
195,195,1727346713753,-0.0024414062,-0.06866455,-1.0105591,-0.734375,0.359375,-0.15625
196,196,1727346713793,-0.0034179688,-0.070373535,-1.0054321,-0.609375,0.625,-0.125
197,197,1727346713833,-0.0031738281,-0.06402588,-1.0073853,-0.0625,0.390625,-0.1875
198,198,1727346713873,-0.0056152344,-0.06109619,-1.0134888,-0.390625,0.609375,-0.34375
199,199,1727346713913,-0.0048828125,-0.0647583,-1.0061646,-0.578125,0.625,-0.171875
200,200,1727346713953,-0.0017089844,-0.066223145,-1.0083618,-0.21875,0.53125,-0.28125
201,201,1727346713993,-0.00048828125,-0.058410645,-1.0108032,-0.390625,0.328125,-0.28125
202,202,1727346714033,-0.004638672,-0.06695557,-1.0110474,-0.578125,0.5625,-0.328125
203,203,1727346714073,0.00024414062,-0.06304932,-1.0095825,-0.734375,0.609375,-0.171875
204,204,1727346714113,-0.0009765625,-0.07159424,-1.0100708,-0.890625,0.484375,-0.328125
205,205,1727346714153,-0.004638672,-0.06915283,-1.0049438,-0.796875,0.609375,-0.203125
206,206,1727346714193,-0.0029296875,-0.0635376,-1.0122681,-1.0,0.703125,-0.140625
207,207,1727346714233,-0.0061035156,-0.06329346,-1.0073853,-1.015625,0.640625,-0.234375
208,208,1727346714273,-0.0041503906,-0.06304932,-1.0154419,-1.0,0.734375,-0.1875
209,209,1727346714313,-0.0017089844,-0.058166504,-1.0120239,-0.890625,0.65625,-0.078125
210,210,1727346714353,-0.0026855469,-0.06500244,-1.0098267,-1.140625,0.890625,-0.125
211,211,1727346714393,-0.0043945312,-0.06060791,-1.0100708,-1.15625,0.78125,-0.0625
212,212,1727346714433,-0.0031738281,-0.06060791,-1.0130005,-1.171875,0.875,-0.328125
213,213,1727346714473,-0.013183594,-0.06915283,-1.0110474,-1.234375,0.625,-0.25
214,214,1727346714513,-0.0075683594,-0.06402588,-1.0088501,-1.34375,0.9375,-0.28125
215,215,1727346714553,-0.004638672,-0.070373535,-1.0088501,-1.078125,0.734375,-0.125
216,216,1727346714593,-0.0063476562,-0.062561035,-1.0108032,-0.90625,0.609375,-0.171875
217,217,1727346714633,-0.008056641,-0.069885254,-1.0083618,-0.9375,0.40625,-0.25
218,218,1727346714673,-0.0036621094,-0.06573486,-1.0110474,-0.671875,0.515625,-0.234375
219,219,1727346714713,-0.004638672,-0.07208252,-1.0142212,-0.984375,0.484375,-0.21875
220,220,1727346714753,-0.004638672,-0.06500244,-1.0064087,-0.53125,0.28125,-0.25
221,221,1727346714793,-0.0043945312,-0.066223145,-1.0098267,-0.65625,0.375,-0.28125
222,222,1727346714833,-0.0075683594,-0.07086182,-1.0110474,-0.703125,0.34375,-0.25
223,223,1727346714873,-0.008056641,-0.06549072,-1.0056763,-0.765625,0.46875,-0.09375
224,224,1727346714913,0.0,-0.06793213,-1.006897,-0.671875,0.390625,-0.25
225,225,1727346714953,-0.0031738281,-0.06719971,-1.0112915,-0.734375,0.328125,-0.328125
226,226,1727346714993,-0.0031738281,-0.062316895,-1.0044556,-0.796875,0.34375,-0.234375
227,227,1727346715033,-0.0061035156,-0.06451416,-1.0061646,-0.734375,0.4375,-0.15625
228,228,1727346715073,-0.0056152344,-0.069885254,-1.0100708,-0.296875,0.34375,-0.25
229,229,1727346715113,-0.0026855469,-0.066711426,-1.0115356,-0.296875,0.265625,-0.296875
230,230,1727346715153,-0.0041503906,-0.06304932,-1.0117798,-0.84375,0.3125,-0.171875
231,231,1727346715193,-0.0041503906,-0.06427002,-1.0059204,-0.3125,0.421875,-0.34375
232,232,1727346715233,-0.0087890625,-0.066467285,-1.0093384,-0.84375,0.4375,-0.296875
233,233,1727346715273,-0.0061035156,-0.057434082,-1.0127563,-0.59375,0.296875,-0.234375
234,234,1727346715313,-0.0063476562,-0.061828613,-1.0095825,-0.984375,0.53125,-0.1875
235,235,1727346715353,0.00024414062,-0.05645752,-1.008606,-0.84375,0.40625,-0.109375
236,236,1727346715393,-0.0007324219,-0.06866455,-1.0090942,-0.78125,0.484375,-0.3125
237,237,1727346715433,-0.00024414062,-0.0635376,-1.0081177,-0.671875,0.328125,-0.3125
238,238,1727346715473,-0.010498047,-0.06842041,-1.010315,-0.75,0.34375,-0.078125
239,239,1727346715513,-0.0031738281,-0.06378174,-1.0120239,-0.828125,0.484375,-0.171875
240,240,1727346715553,-0.0043945312,-0.062316895,-1.0076294,-0.859375,0.515625,-0.171875
241,241,1727346715593,-0.006591797,-0.06378174,-1.0112915,-1.015625,0.4375,-0.15625
242,242,1727346715633,-0.0048828125,-0.06036377,-1.0066528,-1.03125,0.265625,-0.109375
243,243,1727346715673,-0.0073242188,-0.061828613,-1.010315,-0.8125,0.4375,-0.296875
244,244,1727346715713,-0.0075683594,-0.06719971,-1.0059204,-0.8125,0.3125,-0.1875
245,245,1727346715753,-0.001953125,-0.057678223,-1.006897,-0.1875,0.40625,-0.296875
246,246,1727346715793,-0.00024414062,-0.06304932,-1.0100708,-0.640625,0.234375,-0.1875
247,247,1727346715833,0.0,-0.055236816,-1.0108032,-0.453125,0.390625,-0.3125
248,248,1727346715873,0.00024414062,-0.05596924,-1.0122681,-0.546875,0.234375,-0.265625
249,249,1727346715913,-0.0048828125,-0.062072754,-1.0142212,-0.625,0.140625,-0.234375
250,250,1727346715953,0.0029296875,-0.059387207,-1.0088501,-1.015625,0.515625,-0.28125
251,251,1727346715993,0.00048828125,-0.057434082,-1.0095825,-1.359375,0.84375,-0.28125
252,252,1727346716033,-0.0031738281,-0.059631348,-1.013977,-1.0,0.640625,-0.1875
253,253,1727346716073,0.0007324219,-0.057434082,-1.0100708,-0.90625,0.453125,-0.125
254,254,1727346716113,-0.0007324219,-0.05279541,-1.0149536,-0.921875,0.53125,-0.25
255,255,1727346716153,-0.0014648438,-0.059387207,-1.0061646,-0.953125,0.4375,-0.234375
256,256,1727346716193,-0.006591797,-0.06085205,-1.0110474,-0.9375,0.609375,-0.21875
257,257,1727346716233,0.0009765625,-0.06085205,-1.0122681,-1.453125,0.46875,-0.21875
258,258,1727346716273,-0.00390625,-0.06890869,-1.010315,-0.953125,0.4375,-0.234375
259,259,1727346716313,-0.00048828125,-0.06085205,-1.0137329,-0.890625,0.703125,-0.25
260,260,1727346716353,-0.0034179688,-0.062561035,-1.0117798,-1.25,0.671875,-0.15625
261,261,1727346716393,0.0034179688,-0.06695557,-1.0108032,-0.890625,0.4375,-0.265625
262,262,1727346716433,-0.0007324219,-0.061340332,-1.0120239,-0.671875,0.46875,-0.171875
263,263,1727346716473,-0.005859375,-0.0635376,-1.0125122,-0.90625,0.546875,-0.234375
264,264,1727346716513,-0.005126953,-0.06573486,-1.0112915,-1.171875,0.640625,-0.078125
265,265,1727346716553,0.00024414062,-0.062316895,-1.0115356,-1.875,0.796875,-0.1875
266,266,1727346716593,-0.0041503906,-0.066467285,-1.0127563,-1.578125,0.90625,-0.046875
267,267,1727346716633,-0.005859375,-0.06451416,-1.0078735,-1.1875,0.59375,-0.1875
268,268,1727346716673,-0.0017089844,-0.066467285,-1.0066528,-1.171875,0.703125,-0.265625
269,269,1727346716713,-0.007080078,-0.065979004,-1.0064087,-0.984375,0.625,-0.28125
270,270,1727346716753,-0.0026855469,-0.070129395,-1.0059204,-0.640625,0.375,-0.1875
271,271,1727346716793,-0.0036621094,-0.06329346,-1.0098267,-0.953125,0.765625,-0.265625
272,272,1727346716833,-0.005859375,-0.06842041,-1.0066528,-1.203125,0.734375,-0.40625
273,273,1727346716873,-0.0068359375,-0.06451416,-1.0115356,-1.25,0.671875,-0.28125
274,274,1727346716913,-0.0014648438,-0.065979004,-1.0125122,-1.21875,0.578125,-0.09375
275,275,1727346716953,-0.0063476562,-0.06866455,-1.0161743,-0.96875,0.65625,-0.21875
276,276,1727346716993,-0.008056641,-0.059631348,-1.0059204,-1.359375,0.5625,-0.125
277,277,1727346717033,-0.009765625,-0.06744385,-1.0115356,-1.25,0.734375,-0.203125
278,278,1727346717073,-0.0029296875,-0.06549072,-1.008606,-0.96875,0.625,-0.171875
279,279,1727346717113,-0.0087890625,-0.0713501,-1.0095825,-0.921875,0.5625,-0.203125
280,280,1727346717153,-0.0073242188,-0.069885254,-1.0078735,-0.90625,0.734375,-0.28125
281,281,1727346717193,-0.0075683594,-0.06964111,-1.0159302,-0.890625,0.8125,-0.1875
282,282,1727346717233,-0.0068359375,-0.06939697,-1.0056763,-0.734375,0.71875,-0.09375
283,283,1727346717273,-0.011962891,-0.062072754,-1.006897,-1.203125,0.734375,-0.234375
284,284,1727346717313,-0.001953125,-0.06842041,-1.0120239,-1.34375,0.96875,-0.34375
285,285,1727346717353,-0.013916016,-0.07745361,-1.0081177,-1.21875,0.671875,-0.296875
286,286,1727346717393,-0.010498047,-0.0713501,-1.0105591,-1.078125,0.546875,-0.125
287,287,1727346717433,-0.0075683594,-0.07330322,-1.0098267,-0.9375,0.453125,-0.375
288,288,1727346717473,-0.009765625,-0.06793213,-1.0054321,-1.125,0.640625,-0.171875
289,289,1727346717513,-0.009033203,-0.06744385,-1.0071411,-1.34375,0.78125,-0.234375
290,290,1727346717553,-0.0073242188,-0.07110596,-1.0073853,-1.15625,0.765625,-0.265625
291,291,1727346717593,-0.007080078,-0.078186035,-1.0134888,-1.3125,0.703125,-0.21875
292,292,1727346717633,-0.011962891,-0.07501221,-1.010315,-1.21875,0.671875,-0.3125
293,293,1727346717673,-0.013671875,-0.0791626,-1.0073853,-1.03125,0.546875,-0.265625
294,294,1727346717713,-0.009277344,-0.070373535,-1.0076294,-0.9375,0.5625,-0.28125
295,295,1727346717753,-0.013671875,-0.07598877,-1.0105591,-0.859375,0.59375,-0.203125
296,296,1727346717793,-0.012207031,-0.07183838,-1.0081177,-0.9375,0.453125,-0.28125
297,297,1727346717833,-0.008056641,-0.07550049,-1.008606,-0.75,0.640625,-0.203125
298,298,1727346717873,-0.014160156,-0.074523926,-1.0083618,-0.625,0.40625,-0.265625
299,299,1727346717913,-0.0146484375,-0.07672119,-1.010315,-0.578125,0.296875,-0.234375
300,300,1727346717953,-0.011230469,-0.06866455,-1.0066528,-0.59375,0.5,-0.203125
301,301,1727346717993,-0.009033203,-0.074035645,-1.0095825,-0.46875,0.296875,-0.203125
302,302,1727346718033,-0.020751953,-0.0713501,-1.008606,-0.484375,0.453125,-0.21875
303,303,1727346718073,-0.01586914,-0.066467285,-1.0112915,-0.671875,0.390625,-0.203125
304,304,1727346718113,-0.008544922,-0.07330322,-1.0032349,-0.6875,0.234375,-0.28125
305,305,1727346718153,-0.013183594,-0.07183838,-1.0032349,-0.8125,0.421875,-0.171875
306,306,1727346718193,-0.008300781,-0.06768799,-1.0117798,-0.90625,0.46875,-0.328125
307,307,1727346718233,-0.012207031,-0.06842041,-1.0090942,-0.84375,0.359375,-0.296875
308,308,1727346718273,-0.0056152344,-0.070373535,-1.0108032,-0.4375,0.25,-0.171875
309,309,1727346718313,-0.009033203,-0.07110596,-1.0115356,-0.703125,0.3125,-0.375
310,310,1727346718353,-0.012207031,-0.066467285,-1.0100708,-0.5625,0.359375,-0.1875
311,311,1727346718393,-0.010253906,-0.07110596,-1.0122681,-0.6875,0.5,-0.296875
312,312,1727346718433,-0.0007324219,-0.07208252,-1.0073853,-0.765625,0.375,-0.1875
313,313,1727346718473,-0.0043945312,-0.07305908,-1.013977,-0.578125,0.046875,-0.21875
314,314,1727346718513,-0.009277344,-0.07183838,-1.0081177,-1.0625,0.453125,-0.375
315,315,1727346718553,-0.010009766,-0.06524658,-1.0115356,-0.96875,0.515625,-0.25
316,316,1727346718593,-0.011474609,-0.06793213,-1.0076294,-1.09375,0.53125,-0.34375
317,317,1727346718633,-0.01171875,-0.06768799,-1.0071411,-0.578125,0.28125,-0.265625
318,318,1727346718673,-0.0061035156,-0.06793213,-1.0083618,-0.40625,0.234375,-0.171875
319,319,1727346718713,-0.013671875,-0.0647583,-1.005188,-0.828125,0.578125,-0.171875
320,320,1727346718753,-0.0056152344,-0.06378174,-1.0090942,-0.90625,0.484375,-0.3125
321,321,1727346718793,-0.0026855469,-0.062561035,-1.0083618,-0.921875,0.46875,-0.296875
322,322,1727346718833,-0.00390625,-0.06842041,-1.0054321,-0.640625,0.265625,-0.171875
323,323,1727346718873,-0.0021972656,-0.066711426,-1.0093384,-0.828125,0.4375,-0.28125
324,324,1727346718913,-0.009033203,-0.06402588,-1.0117798,-0.75,0.328125,-0.21875
325,325,1727346718953,-0.0034179688,-0.06915283,-1.0081177,-0.59375,0.515625,-0.203125
326,326,1727346718993,-0.0075683594,-0.06011963,-1.0059204,-0.828125,0.28125,-0.234375
327,327,1727346719033,-0.006591797,-0.066467285,-1.0108032,-0.671875,0.5,-0.28125
328,328,1727346719073,-0.0031738281,-0.06524658,-1.0054321,-0.796875,0.40625,-0.203125
329,329,1727346719113,-0.0036621094,-0.070129395,-1.0127563,-0.828125,0.375,-0.34375
330,330,1727346719153,-0.0053710938,-0.06500244,-1.0151978,-0.90625,0.484375,-0.203125
331,331,1727346719193,-0.006591797,-0.06817627,-1.0120239,-0.53125,0.3125,-0.171875
332,332,1727346719233,-0.010986328,-0.06964111,-1.0088501,-0.984375,0.71875,-0.28125
333,333,1727346719273,-0.010009766,-0.06402588,-1.0132446,-0.796875,0.515625,-0.234375
334,334,1727346719313,-0.0043945312,-0.062072754,-1.0122681,-0.765625,0.4375,-0.3125
335,335,1727346719353,-0.0031738281,-0.06329346,-1.006897,-0.890625,0.5,-0.28125
336,336,1727346719393,-0.0043945312,-0.062316895,-1.0115356,-0.9375,0.5,-0.21875
337,337,1727346719433,-0.009765625,-0.06890869,-1.0125122,-0.828125,0.453125,-0.296875
338,338,1727346719473,-0.0014648438,-0.07110596,-1.0078735,-0.84375,0.453125,-0.1875
339,339,1727346719513,-0.0024414062,-0.06402588,-1.0076294,-0.8125,0.5,-0.21875
340,340,1727346719553,-0.0012207031,-0.06402588,-1.0125122,-0.640625,0.390625,-0.1875
341,341,1727346719593,-0.005859375,-0.06402588,-1.0122681,-0.921875,0.40625,-0.21875
342,342,1727346719633,-0.0053710938,-0.0635376,-1.0100708,-0.78125,0.5625,-0.28125
343,343,1727346719673,-0.0026855469,-0.066223145,-1.0073853,-0.6875,0.46875,-0.328125
344,344,1727346719713,-0.001953125,-0.0647583,-1.0090942,-0.875,0.484375,-0.28125
345,345,1727346719753,-0.0048828125,-0.066711426,-1.0056763,-0.890625,0.484375,-0.234375
346,346,1727346719793,-0.0053710938,-0.062805176,-1.0093384,-0.796875,0.640625,-0.34375
347,347,1727346719833,-0.009521484,-0.06451416,-1.0076294,-0.953125,0.5625,-0.296875
348,348,1727346719873,-0.0031738281,-0.066467285,-1.0073853,-0.953125,0.5,-0.296875
349,349,1727346719913,-0.0068359375,-0.06085205,-1.0046997,-0.8125,0.546875,-0.171875
350,350,1727346719953,-0.0024414062,-0.06744385,-1.0073853,-0.875,0.640625,-0.171875
351,351,1727346719993,-0.0031738281,-0.062561035,-1.0088501,-0.9375,0.375,-0.296875
352,352,1727346720033,-0.0031738281,-0.0635376,-1.0105591,-1.0,0.515625,-0.125
353,353,1727346720073,-0.0007324219,-0.07330322,-1.0125122,-0.953125,0.59375,-0.375
354,354,1727346720113,-0.009765625,-0.066223145,-1.0127563,-0.84375,0.53125,-0.203125
355,355,1727346720153,-0.001953125,-0.06329346,-1.0117798,-0.578125,0.234375,-0.3125
356,356,1727346720193,0.0014648438,-0.06402588,-1.0125122,-0.859375,0.734375,-0.234375
357,357,1727346720233,-0.0012207031,-0.066467285,-1.0108032,-0.8125,0.5,-0.34375
358,358,1727346720273,-0.008544922,-0.06304932,-1.0120239,-0.953125,0.53125,-0.015625
359,359,1727346720313,-0.0075683594,-0.06451416,-1.0130005,-0.828125,0.609375,-0.328125
360,360,1727346720353,-0.0014648438,-0.065979004,-1.0130005,-1.015625,0.640625,-0.203125
361,361,1727346720393,-0.0075683594,-0.0647583,-1.0090942,-0.921875,0.375,-0.265625
362,362,1727346720433,-0.008300781,-0.066711426,-1.0090942,-0.6875,0.421875,-0.125
363,363,1727346720473,0.0024414062,-0.066223145,-1.0093384,-0.71875,0.53125,-0.1875
364,364,1727346720513,-0.0075683594,-0.062072754,-1.0122681,-0.953125,0.59375,-0.421875
365,365,1727346720553,-0.0026855469,-0.06329346,-1.0032349,-0.703125,0.46875,-0.1875
366,366,1727346720593,-0.0043945312,-0.06085205,-1.010315,-0.390625,0.46875,-0.234375
367,367,1727346720633,-0.005859375,-0.06500244,-1.0125122,-0.5,0.390625,-0.3125
368,368,1727346720673,-0.012451172,-0.058410645,-1.010315,-0.59375,0.34375,-0.234375
369,369,1727346720713,-0.004638672,-0.066467285,-1.0029907,-0.59375,0.40625,-0.25
370,370,1727346720753,-0.0068359375,-0.05596924,-1.0112915,-0.265625,0.25,-0.328125
371,371,1727346720793,0.0012207031,-0.05328369,-1.0095825,-0.625,0.203125,-0.15625
372,372,1727346720833,-0.0026855469,-0.05718994,-1.0098267,-0.875,0.28125,-0.15625
373,373,1727346720873,-0.0034179688,-0.06695557,-1.0083618,-0.5625,0.390625,-0.203125
374,374,1727346720913,-0.001953125,-0.059631348,-1.0093384,-0.703125,0.28125,-0.125
375,375,1727346720953,-0.0026855469,-0.061584473,-1.0073853,-1.078125,0.546875,-0.09375
376,376,1727346720993,-0.0036621094,-0.058166504,-1.0066528,-0.9375,0.328125,-0.3125
377,377,1727346721033,-0.00390625,-0.0569458,-1.0066528,-1.25,0.609375,-0.234375
378,378,1727346721073,-0.0036621094,-0.06329346,-1.006897,-1.15625,0.484375,-0.234375
379,379,1727346721113,0.0024414062,-0.057678223,-1.0098267,-0.921875,0.40625,-0.125
380,380,1727346721153,0.0,-0.06329346,-1.0144653,-1.03125,0.3125,-0.09375
381,381,1727346721193,-0.0029296875,-0.06036377,-1.0083618,-1.03125,0.640625,-0.203125
382,382,1727346721233,-0.0012207031,-0.066223145,-1.0093384,-1.25,0.46875,-0.3125
383,383,1727346721273,-0.0014648438,-0.06427002,-1.006897,-1.125,0.59375,-0.078125
384,384,1727346721313,-0.0024414062,-0.061828613,-1.0110474,-0.90625,0.484375,-0.171875
385,385,1727346721353,-0.0009765625,-0.06964111,-1.0064087,-0.921875,0.390625,-0.21875
386,386,1727346721393,0.0,-0.06573486,-1.0120239,-1.109375,0.28125,-0.234375
387,387,1727346721433,-0.0026855469,-0.057922363,-1.0164185,-1.328125,0.609375,-0.296875
388,388,1727346721473,0.0017089844,-0.058654785,-1.0112915,-1.21875,0.5,-0.28125
389,389,1727346721513,-0.008544922,-0.0647583,-1.0095825,-1.125,0.5625,-0.25
390,390,1727346721553,-0.0061035156,-0.062072754,-1.0054321,-1.234375,0.25,-0.375
391,391,1727346721593,0.00390625,-0.06842041,-1.0090942,-1.390625,0.46875,-0.34375
392,392,1727346721633,-0.0073242188,-0.06890869,-1.0112915,-1.328125,0.625,-0.1875
393,393,1727346721673,-0.004638672,-0.06573486,-1.0083618,-1.5,0.703125,-0.234375
394,394,1727346721713,-0.0034179688,-0.06915283,-1.0108032,-1.375,0.5,-0.3125
395,395,1727346721753,-0.0036621094,-0.06817627,-1.0090942,-1.125,0.578125,-0.0625
396,396,1727346721793,-0.0021972656,-0.059387207,-1.0061646,-1.15625,0.546875,-0.140625
397,397,1727346721833,-0.0034179688,-0.062072754,-1.0093384,-1.125,0.5,-0.265625
398,398,1727346721873,-0.00024414062,-0.06964111,-1.013977,-1.53125,0.65625,-0.171875
399,399,1727346721913,-0.0017089844,-0.06939697,-1.0115356,-1.421875,0.625,-0.359375
400,400,1727346721953,-0.005126953,-0.06744385,-1.0105591,-1.421875,0.59375,-0.265625
401,401,1727346721993,0.0009765625,-0.07354736,-1.0110474,-0.890625,0.5,-0.234375
402,402,1727346722033,0.0,-0.06842041,-1.0117798,-0.9375,0.375,-0.25
403,403,1727346722073,-0.0043945312,-0.07330322,-1.0125122,-1.046875,0.578125,-0.234375
404,404,1727346722113,0.0,-0.074523926,-1.0081177,-0.890625,0.40625,-0.34375
405,405,1727346722153,-0.0068359375,-0.074523926,-1.0066528,-0.9375,0.484375,-0.078125
406,406,1727346722193,-0.0014648438,-0.07281494,-1.0064087,-0.59375,0.40625,-0.25
407,407,1727346722233,-0.004638672,-0.077941895,-1.0090942,-0.703125,0.296875,-0.3125
408,408,1727346722273,-0.00024414062,-0.06768799,-1.0110474,-0.859375,0.59375,-0.21875
409,409,1727346722313,-0.005859375,-0.070617676,-1.0093384,-0.890625,0.578125,-0.3125
410,410,1727346722353,-0.00024414062,-0.06890869,-1.0088501,-0.890625,0.703125,-0.15625
411,411,1727346722393,0.0017089844,-0.069885254,-1.0083618,-0.796875,0.5625,-0.1875
412,412,1727346722433,0.00048828125,-0.070373535,-1.0049438,-0.65625,0.4375,-0.28125
413,413,1727346722473,-0.0017089844,-0.06719971,-1.010315,-0.421875,0.03125,-0.1875
414,414,1727346722513,-0.0014648438,-0.070373535,-1.0093384,-0.90625,0.5,-0.3125
415,415,1727346722553,0.0029296875,-0.0713501,-1.0134888,-1.171875,0.75,-0.15625
416,416,1727346722593,-0.0017089844,-0.06964111,-1.0100708,-1.171875,0.59375,-0.328125
417,417,1727346722633,-0.0012207031,-0.06890869,-1.0064087,-0.59375,0.3125,-0.15625
418,418,1727346722673,-0.0041503906,-0.077941895,-1.0046997,-0.859375,0.53125,-0.28125
419,419,1727346722713,0.00024414062,-0.07183838,-1.0117798,-0.4375,0.59375,-0.234375
420,420,1727346722753,-0.00390625,-0.070129395,-1.0081177,-0.578125,0.6875,-0.328125
421,421,1727346722793,-0.0014648438,-0.066223145,-1.0073853,-0.546875,0.765625,-0.28125
422,422,1727346722833,0.0009765625,-0.066467285,-1.0137329,-0.953125,0.703125,-0.25
423,423,1727346722873,-0.0009765625,-0.06842041,-1.0071411,-1.234375,0.609375,-0.28125
424,424,1727346722913,-0.005126953,-0.06500244,-1.0098267,-1.015625,0.640625,-0.4375
425,425,1727346722953,-0.005126953,-0.065979004,-1.0071411,-0.703125,0.71875,-0.171875
426,426,1727346722993,-0.0012207031,-0.0725708,-1.0078735,-0.796875,0.625,-0.140625
427,427,1727346723033,-0.0031738281,-0.069885254,-1.0081177,-0.6875,0.859375,-0.140625
428,428,1727346723073,-0.0061035156,-0.066223145,-1.0090942,-0.796875,0.640625,-0.265625
429,429,1727346723113,-0.00390625,-0.06695557,-1.0159302,-0.734375,0.671875,-0.140625
430,430,1727346723153,-0.0029296875,-0.070373535,-1.0112915,-0.796875,0.6875,-0.25
431,431,1727346723193,-0.004638672,-0.070373535,-1.0108032,-0.828125,0.671875,-0.234375
432,432,1727346723233,-0.001953125,-0.066467285,-1.0081177,-0.859375,0.8125,-0.1875
433,433,1727346723273,-0.0075683594,-0.0713501,-1.008606,-1.109375,0.765625,-0.296875
434,434,1727346723313,-0.0029296875,-0.0713501,-1.0105591,-1.25,0.921875,-0.15625
435,435,1727346723353,-0.0063476562,-0.07330322,-1.0125122,-1.25,0.84375,-0.265625
436,436,1727346723393,-0.0034179688,-0.07110596,-1.0134888,-1.15625,0.75,-0.15625
437,437,1727346723433,-0.008056641,-0.06817627,-1.0100708,-1.359375,0.78125,-0.21875
438,438,1727346723473,-0.0087890625,-0.066223145,-1.0090942,-0.9375,0.796875,-0.296875
439,439,1727346723513,-0.011962891,-0.074035645,-1.0076294,-0.984375,0.75,-0.140625
440,440,1727346723553,-0.013671875,-0.06768799,-1.0054321,-1.078125,0.546875,-0.1875
441,441,1727346723593,-0.00390625,-0.07232666,-1.005188,-0.921875,0.546875,-0.125
442,442,1727346723633,-0.009033203,-0.07305908,-1.0098267,-0.828125,0.5,-0.1875
443,443,1727346723673,-0.006591797,-0.06866455,-1.0110474,-0.78125,0.390625,-0.25
444,444,1727346723713,-0.011230469,-0.07208252,-1.0064087,-0.6875,0.296875,-0.03125
445,445,1727346723753,-0.012939453,-0.06524658,-1.0144653,-0.515625,0.296875,-0.265625
446,446,1727346723793,-0.007080078,-0.06719971,-1.0130005,-0.5625,0.328125,-0.15625
447,447,1727346723833,-0.0043945312,-0.066711426,-1.0110474,-0.78125,0.3125,-0.15625
448,448,1727346723873,-0.0034179688,-0.06549072,-1.0066528,-0.625,0.421875,-0.265625
449,449,1727346723913,-0.008056641,-0.06549072,-1.0081177,-0.71875,0.28125,-0.265625
450,450,1727346723953,-0.0061035156,-0.07305908,-1.0078735,-0.828125,0.453125,-0.359375
451,451,1727346723993,-0.012451172,-0.06719971,-1.003479,-0.90625,0.4375,-0.375
452,452,1727346724033,-0.010498047,-0.07232666,-1.013977,-0.65625,0.453125,-0.296875
453,453,1727346724073,-0.0078125,-0.06695557,-1.0117798,-0.53125,0.34375,-0.328125
454,454,1727346724113,-0.0087890625,-0.06427002,-1.0098267,-0.6875,0.453125,-0.125
455,455,1727346724153,-0.006591797,-0.06939697,-1.0122681,-0.546875,0.34375,-0.203125
456,456,1727346724193,-0.006591797,-0.066223145,-1.0083618,-1.0625,0.5,-0.140625
457,457,1727346724233,-0.0075683594,-0.06060791,-1.0078735,-0.796875,0.5,-0.21875
458,458,1727346724273,-0.009277344,-0.06817627,-1.0115356,-0.921875,0.546875,-0.234375
459,459,1727346724313,-0.0068359375,-0.066223145,-1.0071411,-0.96875,0.4375,-0.234375
460,460,1727346724353,0.00024414062,-0.06768799,-1.0039673,-0.859375,0.53125,-0.25
461,461,1727346724393,-0.011230469,-0.06744385,-1.0081177,-0.796875,0.40625,-0.265625
462,462,1727346724433,-0.0068359375,-0.07354736,-1.0071411,-0.90625,0.46875,-0.21875
463,463,1727346724473,-0.0078125,-0.066711426,-1.0076294,-0.765625,0.40625,-0.21875
464,464,1727346724513,-0.0073242188,-0.0635376,-1.008606,-0.84375,0.515625,-0.25
465,465,1727346724553,-0.0017089844,-0.070617676,-1.005188,-0.671875,0.578125,-0.21875
466,466,1727346724593,-0.0041503906,-0.06866455,-1.0059204,-0.96875,0.53125,-0.25
467,467,1727346724633,-0.001953125,-0.07525635,-1.0112915,-0.921875,0.484375,-0.140625
468,468,1727346724673,-0.0031738281,-0.07330322,-1.0144653,-0.953125,0.53125,-0.171875
469,469,1727346724713,-0.004638672,-0.06524658,-1.008606,-1.0,0.453125,-0.21875
470,470,1727346724753,-0.0034179688,-0.06915283,-1.0049438,-0.859375,0.625,-0.265625
471,471,1727346724793,-0.009521484,-0.0635376,-1.0132446,-0.9375,0.484375,-0.203125
472,472,1727346724833,-0.0053710938,-0.06402588,-1.013977,-0.796875,0.609375,-0.21875
473,473,1727346724873,-0.00390625,-0.066711426,-1.0078735,-1.078125,0.515625,-0.15625
474,474,1727346724913,-0.007080078,-0.07086182,-1.0090942,-0.671875,0.34375,-0.140625
475,475,1727346724953,-0.0007324219,-0.066467285,-1.0100708,-1.09375,0.65625,-0.125
476,476,1727346724993,-0.0021972656,-0.06744385,-1.0076294,-0.8125,0.578125,-0.140625
477,477,1727346725033,-0.0056152344,-0.06768799,-1.0132446,-0.859375,0.484375,-0.34375
478,478,1727346725073,-0.0073242188,-0.06573486,-1.0088501,-0.9375,0.390625,-0.328125
479,479,1727346725113,-0.0041503906,-0.074035645,-1.0105591,-0.8125,0.453125,-0.265625
480,480,1727346725153,-0.0068359375,-0.06695557,-1.0088501,-0.90625,0.453125,-0.28125
481,481,1727346725193,-0.005126953,-0.066223145,-1.0083618,-0.984375,0.40625,-0.21875
482,482,1727346725233,-0.0061035156,-0.06768799,-1.0115356,-0.9375,0.53125,-0.21875
483,483,1727346725273,-0.011230469,-0.06866455,-1.0076294,-0.859375,0.53125,-0.296875
484,484,1727346725313,-0.00048828125,-0.06573486,-1.0105591,-0.8125,0.53125,-0.015625
485,485,1727346725353,-0.0041503906,-0.07330322,-1.0098267,-0.96875,0.640625,-0.1875
486,486,1727346725393,-0.0009765625,-0.06842041,-1.0134888,-0.953125,0.40625,-0.25
487,487,1727346725433,-0.0034179688,-0.069885254,-1.0071411,-0.984375,0.640625,-0.359375
488,488,1727346725473,-0.0036621094,-0.06329346,-1.0071411,-0.921875,0.609375,-0.296875
489,489,1727346725513,-0.004638672,-0.065979004,-1.0144653,-1.09375,0.609375,-0.1875
490,490,1727346725553,-0.0048828125,-0.066223145,-1.0098267,-0.9375,0.515625,-0.3125
491,491,1727346725593,-0.0056152344,-0.06842041,-1.0093384,-0.875,0.4375,-0.28125
492,492,1727346725633,-0.010009766,-0.070373535,-1.015686,-0.75,0.640625,-0.265625
493,493,1727346725673,-0.0031738281,-0.058898926,-1.0110474,-0.6875,0.609375,-0.171875
494,494,1727346725713,-0.010009766,-0.06768799,-1.0130005,-0.921875,0.53125,-0.234375
495,495,1727346725753,-0.0048828125,-0.06695557,-1.0090942,-0.828125,0.71875,-0.328125
496,496,1727346725793,-0.004638672,-0.06793213,-1.0117798,-0.9375,0.375,-0.25
497,497,1727346725833,-0.009033203,-0.06866455,-1.0115356,-1.03125,0.484375,-0.234375
498,498,1727346725873,0.0014648438,-0.06524658,-1.0120239,-0.78125,0.375,-0.34375
499,499,1727346725913,-0.00390625,-0.074279785,-1.010315,-0.84375,0.46875,-0.25
500,500,1727346725953,-0.009765625,-0.07086182,-1.0098267,-0.890625,0.4375,-0.203125
501,501,1727346725993,-0.0075683594,-0.07623291,-1.0122681,-0.59375,0.453125,-0.34375
502,502,1727346726033,-0.0034179688,-0.06500244,-1.0142212,-0.75,0.453125,-0.140625
503,503,1727346726073,-0.0056152344,-0.06378174,-1.0127563,-0.921875,0.53125,-0.125
504,504,1727346726113,-0.0063476562,-0.06939697,-1.010315,-0.875,0.421875,-0.3125
505,505,1727346726153,0.0009765625,-0.06573486,-1.0093384,-0.859375,0.375,-0.234375
506,506,1727346726193,-0.0048828125,-0.062561035,-1.0066528,-0.75,0.5625,-0.125
507,507,1727346726233,-0.0031738281,-0.06402588,-1.0112915,-0.828125,0.59375,-0.28125
508,508,1727346726273,-0.0063476562,-0.06451416,-1.008606,-0.96875,0.46875,-0.28125
509,509,1727346726313,0.00024414062,-0.07086182,-1.0098267,-0.9375,0.390625,-0.171875
510,510,1727346726353,0.0007324219,-0.066223145,-1.0149536,-0.828125,0.5,-0.265625
511,511,1727346726393,-0.009277344,-0.066223145,-1.0054321,-0.765625,0.34375,-0.171875
512,512,1727346726433,-0.0061035156,-0.062805176,-1.0137329,-1.109375,0.796875,-0.21875
513,513,1727346726473,-0.0043945312,-0.06402588,-1.0127563,-0.71875,0.5625,-0.25
514,514,1727346726513,-0.0087890625,-0.06915283,-1.0093384,-1.0,0.40625,-0.359375
515,515,1727346726553,-0.010009766,-0.0647583,-1.0149536,-0.75,0.328125,-0.234375
516,516,1727346726593,-0.005126953,-0.06793213,-1.0076294,-0.875,0.609375,-0.1875
517,517,1727346726633,-0.007080078,-0.0647583,-1.0083618,-0.984375,0.546875,-0.296875
518,518,1727346726673,-0.009277344,-0.06842041,-1.0095825,-0.9375,0.515625,-0.1875
519,519,1727346726713,-0.005859375,-0.06890869,-1.0090942,-1.0,0.4375,-0.21875
520,520,1727346726753,-0.007080078,-0.06695557,-1.0090942,-0.859375,0.375,-0.25
521,521,1727346726793,-0.008544922,-0.06939697,-1.0115356,-0.921875,0.515625,-0.25
522,522,1727346726833,-0.005859375,-0.07208252,-1.0132446,-0.78125,0.5625,-0.140625
523,523,1727346726873,-0.010498047,-0.06768799,-1.0117798,-0.796875,0.4375,-0.25
524,524,1727346726913,-0.0034179688,-0.06695557,-1.006897,-0.953125,0.40625,-0.28125
525,525,1727346726953,0.00024414062,-0.0635376,-1.0108032,-0.78125,0.578125,-0.125
526,526,1727346726993,-0.0031738281,-0.06719971,-1.006897,-0.796875,0.390625,-0.359375
527,527,1727346727033,-0.0021972656,-0.0647583,-1.0073853,-0.84375,0.546875,-0.359375
528,528,1727346727073,-0.0087890625,-0.058654785,-1.0142212,-0.8125,0.515625,-0.40625
529,529,1727346727113,-0.005126953,-0.06427002,-1.0095825,-0.734375,0.640625,-0.203125
530,530,1727346727153,-0.0061035156,-0.066223145,-1.0093384,-0.71875,0.59375,-0.296875
531,531,1727346727193,-0.010009766,-0.07086182,-1.0090942,-0.84375,0.53125,-0.234375
532,532,1727346727233,-0.0048828125,-0.07281494,-1.0147095,-0.765625,0.515625,-0.359375
533,533,1727346727273,-0.0026855469,-0.058898926,-1.0098267,-1.015625,0.640625,-0.265625
534,534,1727346727313,-0.0056152344,-0.062805176,-1.0088501,-0.875,0.34375,-0.078125
535,535,1727346727353,-0.004638672,-0.057678223,-1.0056763,-1.078125,0.640625,-0.25
536,536,1727346727393,-0.005859375,-0.06939697,-1.0122681,-0.75,0.5625,-0.421875
537,537,1727346727433,-0.0014648438,-0.06011963,-1.0071411,-0.859375,0.46875,-0.171875
538,538,1727346727473,-0.010253906,-0.06402588,-1.0073853,-0.796875,0.546875,-0.140625
539,539,1727346727513,-0.0007324219,-0.062072754,-1.0049438,-0.765625,0.40625,-0.34375
540,540,1727346727553,-0.009765625,-0.06500244,-1.0081177,-0.859375,0.34375,-0.171875
541,541,1727346727593,-0.0017089844,-0.066467285,-1.0122681,-0.796875,0.609375,-0.28125
542,542,1727346727633,-0.0029296875,-0.06744385,-1.0161743,-0.921875,0.625,-0.1875
543,543,1727346727673,-0.0053710938,-0.06866455,-1.0093384,-0.953125,0.375,-0.21875
544,544,1727346727713,-0.006591797,-0.06549072,-1.0049438,-0.921875,0.5625,-0.15625
545,545,1727346727753,-0.0021972656,-0.06427002,-1.0132446,-0.828125,0.46875,-0.15625
546,546,1727346727793,-0.006591797,-0.066467285,-1.0105591,-0.9375,0.453125,-0.28125
547,547,1727346727833,-0.0063476562,-0.0647583,-1.0122681,-0.78125,0.484375,-0.296875
548,548,1727346727873,-0.008056641,-0.062316895,-1.0081177,-0.875,0.453125,-0.21875
549,549,1727346727913,0.0031738281,-0.06304932,-1.0081177,-0.828125,0.453125,-0.21875
550,550,1727346727953,-0.0017089844,-0.06524658,-1.0100708,-0.734375,0.5,-0.25
551,551,1727346727993,-0.001953125,-0.06842041,-1.0044556,-1.03125,0.484375,-0.3125
552,552,1727346728033,-0.0036621094,-0.06549072,-1.0073853,-0.90625,0.609375,-0.265625
553,553,1727346728073,-0.010253906,-0.06329346,-1.0105591,-0.9375,0.484375,-0.171875
554,554,1727346728113,-0.012207031,-0.062072754,-1.0098267,-0.71875,0.453125,-0.28125
555,555,1727346728153,-0.0036621094,-0.06329346,-1.0127563,-0.9375,0.515625,-0.234375
556,556,1727346728193,-0.0073242188,-0.06768799,-1.0071411,-0.78125,0.546875,-0.25
557,557,1727346728233,-0.007080078,-0.06060791,-1.0078735,-0.609375,0.375,-0.359375
558,558,1727346728273,-0.0043945312,-0.06109619,-1.0117798,-0.765625,0.546875,-0.1875
559,559,1727346728313,-0.005126953,-0.06378174,-1.006897,-0.5625,0.390625,-0.015625
560,560,1727346728353,-0.001953125,-0.06011963,-1.0078735,-0.515625,0.140625,-0.203125
561,561,1727346728393,0.0029296875,-0.06817627,-1.008606,-0.734375,0.203125,-0.21875
562,562,1727346728433,-0.0031738281,-0.0647583,-1.0029907,-0.9375,0.359375,-0.046875
563,563,1727346728473,-0.0043945312,-0.06524658,-1.0108032,-0.921875,0.46875,-0.28125
564,564,1727346728513,-0.005126953,-0.055236816,-1.0100708,-1.015625,0.4375,-0.296875
565,565,1727346728553,-0.0036621094,-0.0635376,-1.0088501,-1.25,0.359375,-0.3125
566,566,1727346728593,-0.0021972656,-0.0713501,-1.0112915,-1.078125,0.421875,-0.140625
567,567,1727346728633,-0.0041503906,-0.06842041,-1.013977,-1.125,0.5,-0.1875
568,568,1727346728673,0.0,-0.06719971,-1.0015259,-1.21875,0.640625,-0.28125
569,569,1727346728713,-0.00390625,-0.06939697,-1.0049438,-1.171875,0.359375,-0.40625
570,570,1727346728753,-0.0056152344,-0.073791504,-1.0134888,-1.15625,0.484375,-0.296875
571,571,1727346728793,-0.0021972656,-0.06817627,-1.0027466,-1.234375,0.359375,-0.234375
572,572,1727346728833,-0.005859375,-0.06573486,-1.0073853,-1.140625,0.59375,-0.28125
573,573,1727346728873,-0.0026855469,-0.06719971,-1.0120239,-1.125,0.5,-0.296875
574,574,1727346728913,-0.0021972656,-0.0713501,-1.0127563,-1.171875,0.421875,-0.5
575,575,1727346728953,0.001953125,-0.06719971,-1.0112915,-0.890625,0.46875,-0.1875
576,576,1727346728993,-0.0061035156,-0.06915283,-1.0112915,-1.28125,0.46875,-0.3125
577,577,1727346729033,-0.0078125,-0.06915283,-1.0088501,-2.203125,0.609375,-0.21875
578,578,1727346729073,-0.00390625,-0.06915283,-1.010315,-2.359375,0.734375,-0.421875
579,579,1727346729113,0.0009765625,-0.0725708,-1.0115356,-2.234375,0.71875,-0.3125
580,580,1727346729153,-0.006591797,-0.07647705,-1.0054321,-2.09375,0.65625,-0.25
581,581,1727346729193,-0.0061035156,-0.07354736,-1.0149536,-1.65625,0.5625,-0.21875
582,582,1727346729233,-0.0036621094,-0.07720947,-1.0037231,-1.375,0.546875,-0.3125
583,583,1727346729273,-0.0068359375,-0.07720947,-1.0115356,-1.140625,0.515625,-0.421875
584,584,1727346729313,-0.0014648438,-0.08380127,-1.0076294,-1.234375,0.421875,-0.28125
585,585,1727346729353,-0.0031738281,-0.07525635,-1.0071411,-0.78125,0.53125,-0.1875
586,586,1727346729393,-0.005859375,-0.07891846,-1.0088501,-1.0,0.515625,-0.234375
587,587,1727346729433,-0.0017089844,-0.078430176,-1.0066528,-0.65625,0.484375,-0.1875
588,588,1727346729473,-0.0053710938,-0.078430176,-1.0100708,-0.53125,0.34375,-0.1875
589,589,1727346729513,-0.005126953,-0.077697754,-1.0090942,-0.734375,0.546875,-0.125
590,590,1727346729553,-0.0009765625,-0.07476807,-1.008606,-1.0,0.546875,-0.28125
591,591,1727346729593,-0.005859375,-0.082336426,-1.0127563,-0.90625,0.71875,-0.296875
592,592,1727346729633,-0.005126953,-0.078186035,-1.0081177,-1.09375,0.53125,-0.21875
593,593,1727346729673,-0.0073242188,-0.078186035,-1.0064087,-1.0625,0.5,-0.203125
594,594,1727346729713,-0.010009766,-0.07745361,-1.0095825,-0.6875,0.671875,-0.25
595,595,1727346729753,-0.00048828125,-0.078430176,-1.010315,-0.859375,0.484375,-0.3125
596,596,1727346729793,-0.004638672,-0.077697754,-1.006897,-0.71875,0.34375,-0.328125
597,597,1727346729833,-0.0073242188,-0.077697754,-1.0010376,-0.875,0.5625,-0.109375
598,598,1727346729873,0.0009765625,-0.07867432,-1.0120239,-0.359375,0.5625,-0.015625
599,599,1727346729913,-0.0068359375,-0.07305908,-1.0134888,-0.40625,0.421875,-0.125
600,600,1727346729953,-0.0043945312,-0.08135986,-1.0054321,-0.71875,0.515625,-0.25
601,601,1727346729993,-0.0053710938,-0.074035645,-1.0164185,-0.890625,0.484375,-0.296875
602,602,1727346730033,-0.0061035156,-0.070617676,-1.0059204,-1.0,0.375,-0.296875
603,603,1727346730073,-0.010986328,-0.077941895,-1.0039673,-0.921875,0.578125,-0.359375
604,604,1727346730113,-0.006591797,-0.0713501,-1.0125122,-0.796875,0.625,-0.234375
605,605,1727346730153,-0.0014648438,-0.07940674,-1.0105591,-0.84375,0.453125,-0.296875
606,606,1727346730193,-0.009521484,-0.07525635,-1.0049438,-0.78125,0.4375,-0.234375
607,607,1727346730233,-0.0061035156,-0.07891846,-1.008606,-0.640625,0.515625,-0.171875
608,608,1727346730273,-0.005859375,-0.07965088,-1.0061646,-0.890625,0.453125,-0.234375
609,609,1727346730313,-0.0061035156,-0.07476807,-1.0098267,-0.828125,0.515625,-0.21875
610,610,1727346730353,-0.010253906,-0.07525635,-1.0115356,-0.859375,0.59375,-0.21875
611,611,1727346730393,-0.00390625,-0.081848145,-1.0046997,-0.84375,0.5,-0.21875
612,612,1727346730433,-0.0073242188,-0.07476807,-1.0098267,-0.828125,0.578125,-0.296875
613,613,1727346730473,-0.006591797,-0.074523926,-1.0098267,-0.671875,0.578125,-0.078125
614,614,1727346730513,-0.008300781,-0.07672119,-1.010315,-0.796875,0.578125,-0.21875
615,615,1727346730553,-0.011230469,-0.07354736,-1.0130005,-0.859375,0.359375,-0.28125
616,616,1727346730593,-0.009765625,-0.06890869,-1.0090942,-0.71875,0.484375,-0.234375
617,617,1727346730633,-0.0078125,-0.066711426,-1.0110474,-0.8125,0.625,-0.265625
618,618,1727346730673,-0.001953125,-0.07183838,-1.0164185,-0.71875,0.390625,-0.1875
619,619,1727346730713,-0.007080078,-0.07672119,-1.0125122,-1.03125,0.578125,-0.125
620,620,1727346730753,-0.004638672,-0.0725708,-1.0073853,-0.84375,0.578125,-0.28125
621,621,1727346730793,-0.005859375,-0.07550049,-1.0098267,-0.921875,0.671875,-0.3125
622,622,1727346730833,-0.005126953,-0.07476807,-1.0042114,-0.859375,0.453125,-0.234375
623,623,1727346730873,-0.0041503906,-0.07501221,-1.0056763,-0.921875,0.296875,-0.1875
624,624,1727346730913,-0.0063476562,-0.07281494,-1.0071411,-0.78125,0.578125,-0.25
625,625,1727346730953,-0.008056641,-0.073791504,-1.0066528,-0.65625,0.390625,-0.3125
626,626,1727346730993,-0.0034179688,-0.07501221,-1.0137329,-0.734375,0.4375,-0.265625
627,627,1727346731033,-0.009033203,-0.06842041,-1.0076294,-0.8125,0.390625,-0.171875
628,628,1727346731073,-0.0034179688,-0.06866455,-1.010315,-0.875,0.546875,-0.28125
629,629,1727346731113,-0.0036621094,-0.07232666,-1.0071411,-0.875,0.453125,-0.296875
630,630,1727346731153,-0.0063476562,-0.077697754,-1.0093384,-0.8125,0.59375,-0.203125
631,631,1727346731193,-0.005859375,-0.069885254,-1.008606,-0.78125,0.5625,-0.1875
632,632,1727346731233,-0.008300781,-0.0725708,-1.0122681,-0.765625,0.453125,-0.1875
633,633,1727346731273,0.0017089844,-0.07550049,-1.0093384,-0.546875,0.453125,-0.203125
634,634,1727346731313,-0.0007324219,-0.070617676,-1.0164185,-0.765625,0.296875,-0.21875
635,635,1727346731353,-0.0068359375,-0.07525635,-1.0098267,-0.84375,0.265625,-0.296875
636,636,1727346731393,0.0009765625,-0.07623291,-1.0117798,-0.96875,0.546875,-0.296875
637,637,1727346731433,-0.011962891,-0.06524658,-1.0120239,-1.546875,0.84375,-0.25
638,638,1727346731473,-0.0078125,-0.07501221,-1.013977,-1.359375,0.578125,-0.265625
639,639,1727346731513,-0.0053710938,-0.07281494,-1.0073853,-1.15625,0.71875,-0.15625
640,640,1727346731553,-0.0029296875,-0.07598877,-1.0149536,-1.25,0.453125,-0.171875
641,641,1727346731593,-0.0063476562,-0.07232666,-1.0108032,-1.171875,0.546875,-0.25
642,642,1727346731633,-0.0029296875,-0.07208252,-1.0088501,-0.90625,0.390625,-0.265625
643,643,1727346731673,-0.00048828125,-0.07208252,-1.0093384,-0.921875,0.453125,-0.015625
644,644,1727346731713,-0.008300781,-0.07647705,-1.0049438,-1.03125,0.5,-0.03125
645,645,1727346731753,-0.0053710938,-0.07647705,-1.0071411,-1.015625,0.578125,-0.21875
646,646,1727346731793,-0.0078125,-0.0791626,-1.0081177,-0.84375,0.671875,-0.265625
647,647,1727346731833,-0.010253906,-0.074279785,-1.0110474,-0.890625,0.578125,-0.203125
648,648,1727346731873,-0.00024414062,-0.07330322,-1.008606,-1.0,0.546875,-0.390625
649,649,1727346731913,-0.001953125,-0.07647705,-1.0039673,-1.140625,0.75,-0.25
650,650,1727346731953,-0.008300781,-0.07867432,-1.008606,-1.328125,0.703125,-0.25
651,651,1727346731993,-0.0061035156,-0.07891846,-1.0100708,-1.25,0.5625,-0.21875
652,652,1727346732033,-0.0041503906,-0.07623291,-1.0073853,-1.484375,0.640625,-0.15625
653,653,1727346732073,-0.0041503906,-0.07598877,-1.005188,-1.84375,0.65625,-0.296875
654,654,1727346732113,-0.014404297,-0.0803833,-1.0105591,-1.921875,0.734375,-0.3125
655,655,1727346732153,0.0007324219,-0.082092285,-1.0095825,-1.15625,0.59375,-0.21875
656,656,1727346732193,-0.011474609,-0.07989502,-1.0100708,-0.890625,0.1875,-0.296875
657,657,1727346732233,-0.0048828125,-0.07501221,-1.0090942,-1.1875,0.609375,-0.296875
658,658,1727346732273,-0.010253906,-0.08282471,-1.0066528,-1.546875,0.5625,-0.1875
659,659,1727346732313,-0.0107421875,-0.08258057,-1.006897,-1.140625,0.640625,-0.25
660,660,1727346732353,-0.0078125,-0.085510254,-1.0088501,-1.046875,0.484375,-0.28125
661,661,1727346732393,-0.010253906,-0.08453369,-1.0115356,-1.0,0.6875,-0.265625
662,662,1727346732433,-0.0048828125,-0.08282471,-1.0164185,-2.171875,1.0,-0.25
663,663,1727346732473,-0.008544922,-0.08282471,-1.00177,-1.703125,0.984375,-0.140625
664,664,1727346732513,-0.013671875,-0.08843994,-1.008606,-1.015625,0.78125,-0.4375
665,665,1727346732553,-0.011230469,-0.08526611,-1.0076294,-0.671875,0.40625,-0.078125
666,666,1727346732593,-0.004638672,-0.08135986,-1.0105591,-0.640625,0.484375,-0.140625
667,667,1727346732633,-0.0075683594,-0.089904785,-1.0112915,-0.828125,0.59375,-0.265625
668,668,1727346732673,-0.006591797,-0.078186035,-1.0071411,-0.71875,0.578125,-0.234375
669,669,1727346732713,-0.008544922,-0.082336426,-1.0098267,-0.46875,0.484375,-0.171875
670,670,1727346732753,-0.0068359375,-0.08380127,-1.0061646,-0.828125,0.65625,-0.234375
671,671,1727346732793,-0.0078125,-0.082336426,-1.0083618,-0.84375,0.46875,-0.296875
672,672,1727346732833,-0.011962891,-0.081848145,-1.0098267,-1.015625,0.625,-0.1875
673,673,1727346732873,-0.005859375,-0.08477783,-1.0134888,-0.9375,0.671875,-0.171875
674,674,1727346732913,-0.0078125,-0.085510254,-1.0093384,-0.984375,0.625,-0.28125
675,675,1727346732953,-0.00024414062,-0.0803833,-1.0076294,-0.96875,0.625,-0.078125
676,676,1727346732993,-0.008544922,-0.08428955,-1.0064087,-0.6875,0.484375,-0.265625
677,677,1727346733033,-0.010253906,-0.07940674,-1.006897,-0.875,0.609375,-0.1875
678,678,1727346733073,-0.011230469,-0.08770752,-1.0064087,-0.78125,0.640625,-0.296875
679,679,1727346733113,-0.0075683594,-0.086242676,-1.0098267,-0.890625,0.546875,-0.265625
680,680,1727346733153,-0.0021972656,-0.082336426,-1.008606,-0.828125,0.34375,-0.3125
681,681,1727346733193,-0.012451172,-0.08502197,-1.0095825,-0.515625,0.4375,-0.0625
682,682,1727346733233,-0.011962891,-0.08404541,-1.0054321,-0.84375,0.515625,-0.171875
683,683,1727346733273,-0.0056152344,-0.086242676,-1.0110474,-0.75,0.484375,-0.328125
684,684,1727346733313,-0.009765625,-0.08135986,-1.0025024,-0.671875,0.609375,-0.21875
685,685,1727346733353,-0.0075683594,-0.081604004,-1.0037231,-0.75,0.71875,-0.265625
686,686,1727346733393,-0.0075683594,-0.0869751,-1.0120239,-0.796875,0.375,-0.390625
687,687,1727346733433,-0.0068359375,-0.08404541,-1.006897,-1.046875,0.71875,-0.171875
688,688,1727346733473,-0.012451172,-0.07965088,-1.0098267,-1.4375,0.671875,-0.125
689,689,1727346733513,-0.009765625,-0.07965088,-1.0059204,-1.265625,0.75,-0.25
690,690,1727346733553,-0.0078125,-0.08648682,-1.0159302,-1.265625,0.484375,-0.359375
691,691,1727346733593,-0.008300781,-0.08428955,-1.0100708,-1.328125,0.578125,-0.4375
692,692,1727346733633,-0.014404297,-0.08258057,-1.0027466,-1.34375,0.75,-0.171875
693,693,1727346733673,-0.012207031,-0.08770752,-1.0064087,-0.96875,0.609375,-0.125
694,694,1727346733713,-0.010253906,-0.08892822,-1.0083618,-0.96875,0.625,-0.359375
695,695,1727346733753,-0.01171875,-0.08306885,-1.0100708,-0.6875,0.40625,-0.28125
696,696,1727346733793,-0.007080078,-0.08477783,-1.0088501,-0.5,0.40625,-0.171875
697,697,1727346733833,-0.0087890625,-0.07989502,-1.0142212,-0.65625,0.359375,-0.21875
698,698,1727346733873,-0.010009766,-0.089416504,-1.0112915,-0.515625,0.15625,-0.3125
699,699,1727346733913,-0.009521484,-0.08404541,-1.0132446,-0.578125,0.296875,-0.296875
700,700,1727346733953,-0.011230469,-0.07867432,-1.0076294,-0.8125,0.421875,-0.265625
701,701,1727346733993,-0.008056641,-0.08453369,-1.0049438,-1.015625,0.59375,-0.296875
702,702,1727346734033,-0.009521484,-0.08648682,-1.0059204,-0.921875,0.515625,-0.28125
703,703,1727346734073,-0.010253906,-0.07965088,-1.0110474,-0.5625,0.359375,-0.078125
704,704,1727346734113,-0.012451172,-0.08135986,-1.006897,-0.984375,0.609375,-0.25
705,705,1727346734153,-0.009277344,-0.08721924,-1.005188,-0.796875,0.5,-0.21875
706,706,1727346734193,-0.016845703,-0.08282471,-1.0125122,-0.6875,0.390625,-0.09375
707,707,1727346734233,-0.011962891,-0.085510254,-1.0105591,-0.75,0.328125,-0.140625
708,708,1727346734273,-0.008056641,-0.07940674,-1.0061646,-0.765625,0.578125,-0.171875
709,709,1727346734313,-0.011474609,-0.0803833,-1.0044556,-0.859375,0.484375,-0.296875
710,710,1727346734353,-0.016357422,-0.08917236,-1.0071411,-0.71875,0.515625,-0.3125
711,711,1727346734393,-0.010253906,-0.077941895,-1.0110474,-0.953125,0.453125,-0.234375
712,712,1727346734433,-0.010009766,-0.08746338,-1.0088501,-0.78125,0.515625,-0.21875
713,713,1727346734473,-0.012939453,-0.0803833,-1.0061646,-0.953125,0.609375,-0.125
714,714,1727346734513,-0.011474609,-0.085754395,-1.0105591,-0.9375,0.484375,-0.203125
715,715,1727346734553,-0.0087890625,-0.08013916,-1.0081177,-1.03125,0.390625,-0.234375
716,716,1727346734593,-0.010253906,-0.07965088,-1.0071411,-0.578125,0.40625,-0.1875
717,717,1727346734633,-0.006591797,-0.08477783,-1.0088501,-1.0,0.421875,-0.234375
718,718,1727346734673,-0.009033203,-0.090148926,-1.003479,-0.890625,0.265625,-0.234375
719,719,1727346734713,-0.0041503906,-0.08477783,-1.0090942,-0.859375,0.65625,-0.28125
720,720,1727346734753,-0.011962891,-0.082336426,-1.0056763,-0.84375,0.546875,-0.15625
721,721,1727346734793,-0.011962891,-0.08795166,-1.0083618,-0.765625,0.40625,-0.25
722,722,1727346734833,-0.008544922,-0.081848145,-1.0059204,-0.8125,0.546875,-0.21875
723,723,1727346734873,-0.0126953125,-0.077697754,-1.008606,-0.765625,0.484375,-0.234375
724,724,1727346734913,-0.005126953,-0.07989502,-1.0122681,-0.6875,0.578125,-0.25
725,725,1727346734953,-0.0061035156,-0.077941895,-1.0066528,-0.75,0.453125,-0.140625
726,726,1727346734993,-0.013183594,-0.08111572,-1.0073853,-1.09375,0.34375,-0.375
727,727,1727346735033,-0.01171875,-0.082092285,-1.0154419,-0.796875,0.390625,-0.25
728,728,1727346735073,-0.0073242188,-0.08502197,-1.0120239,-0.890625,0.59375,-0.328125
729,729,1727346735113,-0.009765625,-0.07891846,-1.008606,-0.84375,0.453125,-0.234375
730,730,1727346735153,-0.006591797,-0.07745361,-1.0108032,-0.734375,0.390625,-0.1875
731,731,1727346735193,-0.010253906,-0.07745361,-1.0012817,-0.84375,0.5,-0.265625
732,732,1727346735233,-0.011474609,-0.08502197,-1.0108032,-0.578125,0.40625,-0.171875
733,733,1727346735273,-0.0073242188,-0.08380127,-1.0059204,-0.859375,0.4375,-0.234375
734,734,1727346735313,-0.008544922,-0.085998535,-1.0125122,-0.796875,0.515625,-0.375
735,735,1727346735353,-0.010009766,-0.085754395,-0.9998169,-0.875,0.421875,-0.203125
736,736,1727346735393,-0.008544922,-0.082092285,-1.0100708,-0.109375,0.234375,-0.125
737,737,1727346735433,-0.005126953,-0.085510254,-1.0108032,-0.734375,0.421875,-0.296875
738,738,1727346735473,-0.011474609,-0.07574463,-1.0149536,-0.609375,0.0625,-0.328125
739,739,1727346735513,-0.008300781,-0.07159424,-1.0073853,-0.75,0.125,0.015625
740,740,1727346735553,-0.0026855469,-0.07965088,-1.0071411,-0.921875,0.34375,-0.25
741,741,1727346735593,-0.0056152344,-0.07965088,-1.0007935,-0.875,0.453125,-0.34375
742,742,1727346735633,-0.005859375,-0.07672119,-1.0066528,-1.203125,0.3125,-0.140625
743,743,1727346735673,-0.0075683594,-0.07598877,-1.0076294,-1.359375,0.515625,-0.359375
744,744,1727346735713,-0.014892578,-0.085998535,-1.0098267,-1.25,0.390625,-0.234375
745,745,1727346735753,-0.005859375,-0.08087158,-1.0110474,-1.078125,0.46875,-0.234375
746,746,1727346735793,-0.0061035156,-0.08135986,-1.0095825,-1.15625,0.46875,-0.234375
747,747,1727346735833,-0.0043945312,-0.0869751,-1.0056763,-1.125,0.359375,-0.390625
748,748,1727346735873,-0.010253906,-0.082092285,-1.0142212,-1.015625,0.4375,-0.28125
749,749,1727346735913,-0.0056152344,-0.08502197,-1.006897,-0.9375,0.015625,-0.3125
750,750,1727346735953,-0.0036621094,-0.08502197,-1.0110474,-1.171875,0.296875,-0.296875
751,751,1727346735993,-0.0068359375,-0.08062744,-1.0044556,-1.03125,0.328125,-0.1875
752,752,1727346736033,-0.011230469,-0.08013916,-1.010315,-1.203125,0.421875,-0.234375
753,753,1727346736073,-0.005126953,-0.081604004,-1.0093384,-1.265625,0.265625,-0.234375
754,754,1727346736113,-0.011230469,-0.0791626,-1.0105591,-1.171875,0.25,-0.25
755,755,1727346736153,-0.006591797,-0.08526611,-1.0061646,-1.265625,0.390625,-0.1875
756,756,1727346736193,-0.0036621094,-0.081848145,-1.0134888,-0.734375,0.34375,-0.09375
757,757,1727346736233,0.00048828125,-0.08453369,-1.0071411,-1.234375,0.53125,-0.21875
758,758,1727346736273,-0.0031738281,-0.082336426,-1.0090942,-1.0625,0.453125,-0.3125
759,759,1727346736313,-0.0031738281,-0.085510254,-1.0073853,-1.03125,0.5,-0.28125
