,Unnamed: 0,timestamp,accel_x,accel_y,accel_z,gyro_x,gyro_y,gyro_z
0,0,1727988473134,0.18359375,0.026550293,-0.975647,0.359375,-0.03125,-0.109375
1,1,1727988473174,0.18383789,0.026550293,-0.9829712,0.34375,0.015625,-0.015625
2,2,1727988473214,0.18188477,0.02508545,-0.9812622,0.21875,0.234375,-0.125
3,3,1727988473254,0.17651367,0.027526855,-0.97906494,0.359375,0.1875,-0.046875
4,4,1727988473294,0.17700195,0.023132324,-0.972229,0.21875,0.3125,-0.203125
5,5,1727988473334,0.17675781,0.018249512,-0.9714966,0.15625,-0.140625,-0.1875
6,6,1727988473374,0.17236328,0.031677246,-0.9771118,0.015625,-0.265625,-0.234375
7,7,1727988473414,0.18139648,0.02508545,-0.98394775,-0.34375,0.078125,-0.21875
8,8,1727988473454,0.17773438,0.024108887,-0.9793091,0.40625,-0.0625,-0.1875
9,9,1727988473494,0.17773438,0.02142334,-0.972229,0.1875,0.046875,-0.171875
10,10,1727988473534,0.18188477,0.032165527,-0.98223877,-0.1875,0.375,-0.203125
11,11,1727988473574,0.17504883,0.022888184,-0.96588135,0.34375,-0.109375,-0.21875
12,12,1727988473614,0.18603516,0.024597168,-0.97662354,-0.234375,0.0625,-0.109375
13,13,1727988473654,0.18237305,0.022644043,-0.97247314,0.140625,0.140625,-0.3125
14,14,1727988473694,0.17700195,0.0211792,-0.97540283,0.0,0.109375,-0.265625
15,15,1727988473734,0.17626953,0.022888184,-0.97735596,0.265625,0.046875,-0.1875
16,16,1727988473774,0.18066406,0.027770996,-0.9783325,0.28125,-0.015625,-0.28125
17,17,1727988473814,0.1821289,0.024841309,-0.98321533,0.28125,0.28125,-0.15625
18,18,1727988473854,0.18286133,0.025817871,-0.97491455,0.546875,0.046875,-0.046875
19,19,1727988473894,0.18164062,0.022888184,-0.9793091,0.609375,0.078125,-0.21875
20,20,1727988473934,0.17822266,0.027282715,-0.9751587,0.359375,-0.140625,-0.03125
21,21,1727988473974,0.17919922,0.02923584,-0.97491455,0.3125,-0.03125,-0.109375
22,22,1727988474014,0.18261719,0.026062012,-0.97906494,0.21875,-0.046875,-0.09375
23,23,1727988474054,0.17993164,0.023376465,-0.96954346,0.609375,0.203125,0.015625
24,24,1727988474094,0.17993164,0.034606934,-0.9849243,-0.0625,0.234375,-0.21875
25,25,1727988474134,0.17578125,0.025817871,-0.9837036,0.390625,0.234375,-0.09375
26,26,1727988474174,0.18164062,0.02508545,-0.9734497,0.796875,0.421875,-0.203125
27,27,1727988474214,0.17529297,0.027770996,-0.9866333,-0.1875,0.203125,-0.21875
28,28,1727988474254,0.17993164,0.022644043,-0.98443604,0.421875,0.078125,-0.25
29,29,1727988474294,0.18823242,0.030456543,-0.97784424,0.28125,0.328125,-0.171875
30,30,1727988474334,0.17919922,0.023620605,-0.98394775,0.5625,0.15625,-0.15625
31,31,1727988474374,0.17871094,0.029968262,-0.97857666,0.625,0.390625,0.015625
32,32,1727988474414,0.1743164,0.024841309,-0.9824829,0.578125,0.1875,-0.0625
33,33,1727988474454,0.17456055,0.029968262,-0.9717407,0.734375,0.1875,-0.078125
34,34,1727988474494,0.1796875,0.024597168,-0.9780884,0.90625,-0.03125,-0.09375
35,35,1727988474534,0.18139648,0.03753662,-0.97247314,0.875,-0.171875,-0.1875
36,36,1727988474574,0.17871094,0.028015137,-0.9780884,0.609375,0.078125,-0.125
37,37,1727988474614,0.17773438,0.031188965,-0.97662354,0.53125,0.03125,-0.078125
38,38,1727988474654,0.18139648,0.030944824,-0.97857666,0.578125,0.125,-0.125
39,39,1727988474694,0.18310547,0.030944824,-0.9768677,0.296875,0.3125,-0.21875
40,40,1727988474734,0.18041992,0.035583496,-0.9793091,0.390625,0.421875,-0.0625
41,41,1727988474774,0.18261719,0.032409668,-0.97906494,0.65625,0.15625,-0.015625
42,42,1727988474814,0.1809082,0.032409668,-0.9800415,0.34375,0.109375,-0.140625
43,43,1727988474854,0.17651367,0.028503418,-0.97906494,-0.21875,-0.125,-0.21875
44,44,1727988474894,0.18041992,0.029968262,-0.9763794,0.078125,-0.015625,-0.359375
45,45,1727988474934,0.17626953,0.0368042,-0.9697876,0.03125,0.25,-0.1875
46,46,1727988474974,0.17700195,0.029968262,-0.9780884,0.25,0.1875,-0.34375
47,47,1727988475014,0.17797852,0.028503418,-0.9758911,0.625,-0.09375,-0.046875
48,48,1727988475054,0.17602539,0.03314209,-0.9714966,0.75,-0.328125,-0.046875
49,49,1727988475094,0.17919922,0.031921387,-0.9841919,0.390625,0.0625,-0.171875
50,50,1727988475134,0.1796875,0.027038574,-0.9727173,0.53125,0.03125,-0.203125
51,51,1727988475174,0.17822266,0.022155762,-0.97198486,0.578125,0.1875,-0.125
52,52,1727988475214,0.17797852,0.027526855,-0.972229,0.5,0.015625,-0.078125
53,53,1727988475254,0.17626953,0.034606934,-0.975647,0.3125,0.109375,-0.171875
54,54,1727988475294,0.18139648,0.030944824,-0.9788208,0.34375,0.015625,-0.078125
55,55,1727988475334,0.18115234,0.038757324,-0.97906494,0.375,0.15625,-0.125
56,56,1727988475374,0.18310547,0.03363037,-0.97857666,0.421875,0.234375,-0.109375
57,57,1727988475414,0.17919922,0.034851074,-0.97247314,0.484375,0.015625,-0.28125
58,58,1727988475454,0.1743164,0.03265381,-0.9829712,0.15625,-0.03125,-0.078125
59,59,1727988475494,0.17895508,0.03363037,-0.9800415,0.46875,0.015625,-0.21875
60,60,1727988475534,0.18261719,0.031188965,-0.9793091,0.171875,0.203125,-0.171875
61,61,1727988475574,0.18261719,0.0289917,-0.9824829,-0.5,-0.15625,-0.21875
62,62,1727988475614,0.18579102,0.03729248,-0.9812622,0.296875,0.0625,-0.046875
63,63,1727988475654,0.17602539,0.039245605,-0.9714966,0.28125,0.21875,-0.0625
64,64,1727988475694,0.17773438,0.032165527,-0.97906494,0.234375,0.40625,-0.046875
65,65,1727988475734,0.1772461,0.030212402,-0.97906494,0.421875,0.46875,-0.09375
66,66,1727988475774,0.18457031,0.028259277,-0.9795532,0.40625,0.265625,-0.078125
67,67,1727988475814,0.18115234,0.028747559,-0.9741821,0.46875,0.421875,0.0
68,68,1727988475854,0.17626953,0.034606934,-0.9780884,0.265625,0.390625,-0.09375
69,69,1727988475894,0.17553711,0.029968262,-0.9751587,0.453125,0.46875,-0.140625
70,70,1727988475934,0.17749023,0.044128418,-0.9812622,0.15625,0.125,-0.234375
71,71,1727988475974,0.17333984,0.035095215,-0.97076416,0.28125,0.1875,-0.15625
72,72,1727988476014,0.1730957,0.03363037,-0.973938,0.15625,0.03125,-0.203125
73,73,1727988476054,0.17504883,0.039001465,-0.973938,0.328125,0.109375,-0.265625
74,74,1727988476094,0.17578125,0.02947998,-0.97735596,0.0,0.28125,-0.125
75,75,1727988476134,0.17944336,0.032409668,-0.97784424,0.0625,-0.203125,-0.140625
76,76,1727988476174,0.1772461,0.029968262,-0.9795532,0.109375,0.015625,-0.03125
77,77,1727988476214,0.17553711,0.031433105,-0.9783325,-0.125,-0.046875,-0.25
78,78,1727988476254,0.17993164,0.031188965,-0.9793091,-0.140625,-0.015625,-0.1875
79,79,1727988476294,0.17211914,0.031188965,-0.9692993,0.0625,-0.015625,-0.21875
80,80,1727988476334,0.17407227,0.038513184,-0.9866333,-0.4375,0.015625,-0.140625
81,81,1727988476374,0.17700195,0.030944824,-0.9685669,-0.375,-0.4375,-0.1875
82,82,1727988476414,0.1784668,0.027282715,-0.97857666,-0.296875,-0.359375,-0.09375
83,83,1727988476454,0.1784668,0.035339355,-0.972229,-0.0625,0.109375,-0.140625
84,84,1727988476494,0.17260742,0.029724121,-0.97735596,0.09375,0.03125,-0.140625
85,85,1727988476534,0.17944336,0.028259277,-0.97540283,0.375,-0.09375,-0.234375
86,86,1727988476574,0.1772461,0.02923584,-0.9859009,0.109375,-0.046875,-0.265625
87,87,1727988476614,0.17944336,0.03265381,-0.97906494,-0.078125,0.234375,-0.28125
88,88,1727988476654,0.17456055,0.025817871,-0.97369385,0.1875,0.0,-0.25
89,89,1727988476694,0.1784668,0.024841309,-0.97320557,0.296875,-0.015625,-0.1875
90,90,1727988476734,0.18017578,0.027282715,-0.9805298,-0.046875,-0.015625,-0.1875
91,91,1727988476774,0.18139648,0.031433105,-0.97442627,0.15625,-0.15625,-0.171875
92,92,1727988476814,0.1809082,0.02947998,-0.9758911,0.125,-0.171875,-0.15625
93,93,1727988476854,0.18481445,0.030212402,-0.9771118,0.015625,-0.140625,-0.046875
94,94,1727988476894,0.17797852,0.026550293,-0.9729614,-0.15625,-0.328125,-0.125
95,95,1727988476934,0.18017578,0.022155762,-0.9783325,0.0,-0.265625,-0.21875
96,96,1727988476974,0.1796875,0.027282715,-0.9768677,0.203125,0.046875,-0.1875
97,97,1727988477014,0.1821289,0.02508545,-0.9793091,-0.171875,-0.078125,-0.15625
98,98,1727988477054,0.18334961,0.026306152,-0.9727173,0.171875,-0.046875,-0.234375
99,99,1727988477094,0.1850586,0.026062012,-0.97540283,-0.015625,-0.078125,-0.203125
100,100,1727988477134,0.18359375,0.02142334,-0.98150635,-0.21875,-0.15625,-0.125
101,101,1727988477174,0.18530273,0.024353027,-0.9768677,0.015625,-0.03125,-0.234375
102,102,1727988477214,0.17675781,0.02508545,-0.97247314,0.125,0.046875,-0.0625
103,103,1727988477254,0.18188477,0.02947998,-0.972229,0.28125,0.109375,-0.203125
104,104,1727988477294,0.18334961,0.026062012,-0.975647,0.171875,0.21875,-0.0625
105,105,1727988477334,0.18530273,0.024108887,-0.9780884,0.515625,0.171875,-0.140625
106,106,1727988477374,0.18383789,0.02557373,-0.9776001,0.4375,0.0625,-0.078125
107,107,1727988477414,0.17749023,0.018737793,-0.972229,0.59375,0.265625,-0.125
108,108,1727988477454,0.18286133,0.027282715,-0.9734497,0.609375,-0.015625,0.015625
109,109,1727988477494,0.17749023,0.022644043,-0.97247314,0.46875,0.0625,0.015625
110,110,1727988477534,0.18359375,0.024841309,-0.9776001,0.578125,0.078125,-0.171875
111,111,1727988477574,0.18139648,0.03338623,-0.97784424,0.53125,0.359375,-0.109375
112,112,1727988477614,0.18432617,0.022644043,-0.97857666,0.546875,0.375,-0.171875
113,113,1727988477654,0.17993164,0.026550293,-0.9771118,0.6875,0.078125,-0.21875
114,114,1727988477694,0.17675781,0.023376465,-0.9819946,0.84375,0.234375,-0.140625
115,115,1727988477734,0.18237305,0.026550293,-0.9763794,0.921875,0.296875,0.0625
116,116,1727988477774,0.1821289,0.031433105,-0.9871216,0.4375,0.0625,-0.125
117,117,1727988477814,0.17797852,0.02532959,-0.9746704,0.3125,0.0625,-0.09375
118,118,1727988477854,0.1772461,0.03314209,-0.9727173,0.5625,0.34375,-0.09375
119,119,1727988477894,0.1796875,0.027526855,-0.9817505,-0.078125,-0.015625,0.0
120,120,1727988477934,0.18139648,0.029968262,-0.98101807,0.390625,0.265625,-0.171875
121,121,1727988477974,0.18432617,0.032409668,-0.98028564,0.40625,0.390625,-0.15625
122,122,1727988478014,0.17797852,0.027770996,-0.9768677,0.546875,0.234375,-0.203125
123,123,1727988478054,0.17871094,0.03314209,-0.98028564,0.75,0.140625,-0.03125
124,124,1727988478094,0.17382812,0.029724121,-0.9758911,0.703125,0.03125,-0.234375
125,125,1727988478134,0.17578125,0.031433105,-0.98028564,0.46875,0.234375,-0.171875
126,126,1727988478174,0.17529297,0.031921387,-0.9734497,0.453125,0.25,-0.140625
127,127,1727988478214,0.18286133,0.031921387,-0.98028564,0.421875,0.15625,-0.21875
128,128,1727988478254,0.17871094,0.034118652,-0.9714966,0.6875,0.09375,-0.09375
129,129,1727988478294,0.17578125,0.035095215,-0.9793091,0.46875,0.109375,-0.109375
130,130,1727988478334,0.18017578,0.0289917,-0.97735596,0.59375,0.140625,-0.125
131,131,1727988478374,0.17993164,0.038513184,-0.9800415,0.421875,0.09375,-0.140625
132,132,1727988478414,0.17773438,0.034851074,-0.975647,0.375,0.140625,-0.15625
133,133,1727988478454,0.17553711,0.03363037,-0.9788208,0.3125,0.109375,-0.0625
134,134,1727988478494,0.17578125,0.03289795,-0.9817505,0.484375,0.109375,-0.078125
135,135,1727988478534,0.1796875,0.03387451,-0.9800415,0.421875,0.28125,-0.109375
136,136,1727988478574,0.1784668,0.03704834,-0.9734497,0.390625,0.109375,-0.1875
137,137,1727988478614,0.17993164,0.034118652,-0.98150635,0.21875,0.0,-0.234375
138,138,1727988478654,0.17358398,0.04046631,-0.97857666,0.703125,-0.125,-0.140625
139,139,1727988478694,0.17773438,0.03314209,-0.9883423,-0.015625,0.484375,-0.1875
140,140,1727988478734,0.17504883,0.038757324,-0.97076416,0.125,-0.015625,-0.265625
141,141,1727988478774,0.18164062,0.029724121,-0.9751587,-0.078125,-0.140625,-0.3125
142,142,1727988478814,0.17480469,0.034851074,-0.97857666,0.3125,0.40625,-0.171875
143,143,1727988478854,0.17480469,0.031433105,-0.9783325,0.296875,0.25,-0.03125
144,144,1727988478894,0.17529297,0.03729248,-0.97735596,0.515625,0.109375,-0.21875
145,145,1727988478934,0.17675781,0.03656006,-0.9817505,0.640625,0.28125,-0.078125
146,146,1727988478974,0.18041992,0.039489746,-0.98028564,0.25,0.078125,-0.09375
147,147,1727988479014,0.18139648,0.035339355,-0.97662354,0.421875,0.359375,-0.171875
148,148,1727988479054,0.18237305,0.038513184,-0.97857666,0.40625,0.421875,-0.125
149,149,1727988479094,0.17529297,0.036071777,-0.97491455,0.484375,0.15625,-0.09375
150,150,1727988479134,0.18286133,0.034606934,-0.9812622,0.328125,0.015625,-0.1875
151,151,1727988479174,0.17797852,0.03314209,-0.98028564,0.34375,0.203125,-0.09375
152,152,1727988479214,0.1730957,0.043151855,-0.97369385,0.109375,0.5,-0.1875
153,153,1727988479254,0.17504883,0.034118652,-0.97247314,0.125,0.3125,-0.25
154,154,1727988479294,0.17529297,0.030944824,-0.972229,0.171875,0.21875,-0.1875
155,155,1727988479334,0.17944336,0.038513184,-0.9768677,0.234375,0.109375,-0.1875
156,156,1727988479374,0.17822266,0.034606934,-0.97320557,0.09375,0.0,-0.109375
157,157,1727988479414,0.17114258,0.035583496,-0.9805298,-0.09375,-0.125,-0.28125
158,158,1727988479454,0.17358398,0.03363037,-0.97857666,-0.265625,-0.125,-0.109375
159,159,1727988479494,0.18164062,0.030944824,-0.97247314,-0.09375,-0.109375,-0.1875
160,160,1727988479534,0.17529297,0.030700684,-0.9902954,-0.3125,0.015625,-0.4375
161,161,1727988479574,0.17358398,0.035095215,-0.97979736,0.0,0.015625,-0.203125
162,162,1727988479614,0.17797852,0.032165527,-0.973938,-0.046875,0.03125,-0.15625
163,163,1727988479654,0.17919922,0.034118652,-0.98028564,-0.71875,-0.21875,-0.171875
164,164,1727988479694,0.1821289,0.032409668,-0.98223877,-0.203125,-0.171875,-0.125
165,165,1727988479734,0.18237305,0.027282715,-0.97442627,0.0,0.28125,-0.109375
166,166,1727988479774,0.17358398,0.027770996,-0.97857666,0.09375,-0.09375,-0.1875
167,167,1727988479814,0.18334961,0.028259277,-0.97906494,0.203125,0.203125,-0.03125
168,168,1727988479854,0.17822266,0.024841309,-0.9819946,-0.046875,0.03125,-0.046875
169,169,1727988479894,0.17871094,0.02947998,-0.98272705,0.203125,0.359375,-0.140625
170,170,1727988479934,0.171875,0.027770996,-0.975647,0.171875,0.328125,-0.078125
171,171,1727988479974,0.17944336,0.026794434,-0.97369385,0.21875,-0.015625,-0.234375
172,172,1727988480014,0.1796875,0.0289917,-0.975647,0.15625,-0.234375,-0.078125
173,173,1727988480054,0.17333984,0.02947998,-0.9780884,-0.078125,-0.1875,-0.28125
174,174,1727988480094,0.1706543,0.031433105,-0.97857666,-0.109375,-0.078125,-0.1875
175,175,1727988480134,0.17675781,0.027282715,-0.98150635,-0.03125,-0.15625,-0.109375
176,176,1727988480174,0.17382812,0.030944824,-0.9768677,0.109375,-0.03125,-0.1875
177,177,1727988480214,0.17529297,0.027282715,-0.97491455,0.09375,-0.203125,-0.140625
178,178,1727988480254,0.17553711,0.027282715,-0.9783325,0.21875,-0.140625,-0.09375
179,179,1727988480294,0.17407227,0.026306152,-0.9771118,0.421875,-0.328125,-0.265625
180,180,1727988480334,0.17797852,0.027770996,-0.9924927,-0.375,-0.21875,-0.296875
181,181,1727988480374,0.18310547,0.02557373,-0.9800415,0.015625,0.109375,-0.171875
182,182,1727988480414,0.17919922,0.026794434,-0.97540283,0.171875,-0.1875,-0.28125
183,183,1727988480454,0.17919922,0.026062012,-0.9890747,-0.265625,-0.21875,-0.1875
184,184,1727988480494,0.1821289,0.026062012,-0.97662354,0.15625,-0.125,-0.09375
185,185,1727988480534,0.1784668,0.029724121,-0.97052,0.34375,0.4375,-0.140625
186,186,1727988480574,0.1796875,0.024841309,-0.9793091,0.390625,0.03125,-0.203125
187,187,1727988480614,0.18017578,0.026794434,-0.9741821,0.703125,0.375,-0.078125
188,188,1727988480654,0.18164062,0.030456543,-0.9834595,0.484375,0.390625,-0.265625
189,189,1727988480694,0.18408203,0.02508545,-0.9780884,0.609375,0.1875,-0.125
190,190,1727988480734,0.17260742,0.030456543,-0.97735596,0.765625,-0.046875,-0.046875
191,191,1727988480774,0.17089844,0.028747559,-0.97003174,0.78125,0.296875,-0.09375
192,192,1727988480814,0.18408203,0.034606934,-0.97735596,0.6875,0.265625,-0.09375
193,193,1727988480854,0.17797852,0.02508545,-0.9746704,0.78125,0.1875,-0.296875
194,194,1727988480894,0.17797852,0.03314209,-0.9746704,0.5625,0.265625,-0.0625
195,195,1727988480934,0.17773438,0.034118652,-0.97784424,0.59375,0.15625,-0.09375
196,196,1727988480974,0.18359375,0.028747559,-0.9727173,0.59375,0.03125,-0.09375
197,197,1727988481014,0.18432617,0.031433105,-0.97735596,0.515625,-0.03125,-0.09375
198,198,1727988481054,0.17822266,0.030212402,-0.97979736,0.59375,0.03125,-0.140625
199,199,1727988481094,0.1809082,0.03265381,-0.9714966,0.515625,0.03125,-0.171875
200,200,1727988481134,0.17895508,0.034362793,-0.9793091,0.09375,-0.078125,-0.171875
201,201,1727988481174,0.17700195,0.035095215,-0.9800415,0.234375,-0.15625,-0.109375
202,202,1727988481214,0.17651367,0.032165527,-0.9800415,0.5,-0.078125,-0.09375
203,203,1727988481254,0.18115234,0.030212402,-0.9819946,-0.109375,-0.125,-0.1875
204,204,1727988481294,0.1850586,0.031677246,-0.98028564,0.203125,-0.125,-0.09375
205,205,1727988481334,0.17675781,0.0289917,-0.9824829,0.390625,0.203125,-0.015625
206,206,1727988481374,0.1743164,0.03289795,-0.9793091,0.46875,0.234375,-0.046875
207,207,1727988481414,0.1809082,0.034118652,-0.9788208,0.75,0.15625,0.03125
208,208,1727988481454,0.17700195,0.034606934,-0.97784424,0.59375,0.171875,-0.1875
209,209,1727988481494,0.17749023,0.03656006,-0.9812622,0.359375,0.46875,-0.125
210,210,1727988481534,0.18286133,0.03363037,-0.9734497,0.78125,0.109375,-0.09375
211,211,1727988481574,0.17675781,0.04046631,-0.97198486,0.453125,0.140625,-0.109375
212,212,1727988481614,0.17871094,0.038269043,-0.9758911,0.515625,0.078125,-0.109375
213,213,1727988481654,0.18115234,0.038269043,-0.97320557,0.484375,0.0625,-0.046875
214,214,1727988481694,0.1850586,0.04095459,-0.97906494,0.4375,0.046875,-0.015625
215,215,1727988481734,0.1772461,0.03314209,-0.9829712,0.3125,0.03125,-0.078125
216,216,1727988481774,0.17895508,0.038757324,-0.9805298,0.265625,-0.078125,-0.1875
217,217,1727988481814,0.18041992,0.03729248,-0.9846802,0.328125,0.15625,-0.171875
218,218,1727988481854,0.1809082,0.043884277,-0.97442627,0.5625,0.140625,-0.21875
219,219,1727988481894,0.17895508,0.04119873,-0.97540283,0.28125,0.109375,-0.140625
220,220,1727988481934,0.17944336,0.034851074,-0.97857666,0.109375,0.28125,-0.203125
221,221,1727988481974,0.17749023,0.034606934,-0.9795532,0.203125,-0.015625,-0.171875
222,222,1727988482014,0.18017578,0.04071045,-0.97320557,0.46875,-0.03125,-0.15625
223,223,1727988482054,0.18139648,0.038757324,-0.98101807,0.109375,0.3125,-0.140625
224,224,1727988482094,0.1772461,0.035095215,-0.97491455,0.21875,-0.296875,-0.078125
225,225,1727988482134,0.17456055,0.03338623,-0.9746704,0.0,-0.125,-0.140625
226,226,1727988482174,0.17871094,0.035583496,-0.9793091,0.171875,0.203125,-0.171875
227,227,1727988482214,0.18188477,0.03704834,-0.97198486,0.265625,0.015625,-0.109375
228,228,1727988482254,0.17626953,0.039489746,-0.97540283,0.40625,0.375,-0.109375
229,229,1727988482294,0.17285156,0.036071777,-0.9771118,0.375,0.296875,-0.1875
230,230,1727988482334,0.17822266,0.03704834,-0.9812622,0.328125,0.375,-0.109375
231,231,1727988482374,0.18261719,0.040222168,-0.9758911,0.46875,0.328125,-0.125
232,232,1727988482414,0.17333984,0.034606934,-0.9807739,0.5,0.34375,-0.1875
233,233,1727988482454,0.17675781,0.038513184,-0.97662354,0.28125,0.15625,-0.0625
234,234,1727988482494,0.1772461,0.039733887,-0.9795532,0.359375,0.1875,-0.265625
235,235,1727988482534,0.16918945,0.03778076,-0.9776001,-0.0625,0.40625,-0.09375
236,236,1727988482574,0.1772461,0.04510498,-0.9771118,-0.15625,0.046875,-0.3125
237,237,1727988482614,0.17773438,0.03656006,-0.97442627,0.25,-0.234375,-0.09375
238,238,1727988482654,0.18041992,0.036071777,-0.97906494,0.328125,-0.21875,-0.140625
239,239,1727988482694,0.17871094,0.03778076,-0.9805298,0.328125,-0.21875,-0.078125
240,240,1727988482734,0.17602539,0.034362793,-0.973938,0.109375,-0.09375,-0.171875
241,241,1727988482774,0.17895508,0.034362793,-0.9692993,-0.109375,-0.25,-0.109375
242,242,1727988482814,0.17822266,0.03363037,-0.97784424,-0.296875,-0.203125,-0.171875
243,243,1727988482854,0.18310547,0.04095459,-0.9837036,-0.015625,-0.09375,-0.140625
244,244,1727988482894,0.17480469,0.035339355,-0.98150635,-0.171875,0.15625,-0.140625
245,245,1727988482934,0.17504883,0.036071777,-0.9837036,-0.515625,-0.25,-0.203125
246,246,1727988482974,0.17700195,0.03387451,-0.9829712,-0.203125,-0.53125,-0.171875
247,247,1727988483014,0.18139648,0.030456543,-0.97052,0.03125,0.09375,-0.15625
248,248,1727988483054,0.17382812,0.034851074,-0.97540283,0.203125,0.0,-0.203125
249,249,1727988483094,0.18017578,0.028259277,-0.97784424,0.234375,0.28125,-0.0625
250,250,1727988483134,0.18359375,0.030456543,-0.9819946,0.03125,0.046875,-0.1875
251,251,1727988483174,0.17919922,0.03363037,-0.9788208,0.015625,0.09375,-0.171875
252,252,1727988483214,0.17895508,0.030700684,-0.9751587,0.109375,0.0,-0.109375
253,253,1727988483254,0.1875,0.03314209,-0.97198486,0.171875,-0.078125,-0.078125
254,254,1727988483294,0.17993164,0.02923584,-0.9771118,0.171875,-0.296875,-0.171875
255,255,1727988483334,0.1784668,0.03778076,-0.97052,0.140625,-0.109375,-0.1875
256,256,1727988483374,0.18188477,0.030212402,-0.97979736,0.03125,-0.015625,-0.234375
257,257,1727988483414,0.17993164,0.0289917,-0.97613525,-0.046875,0.15625,-0.03125
258,258,1727988483454,0.1809082,0.031677246,-0.98223877,-0.109375,-0.484375,-0.171875
259,259,1727988483494,0.1796875,0.027770996,-0.97906494,0.109375,-0.171875,-0.109375
260,260,1727988483534,0.19091797,0.02508545,-0.9649048,0.3125,-0.03125,-0.03125
261,261,1727988483574,0.18432617,0.035339355,-0.96710205,0.171875,-0.109375,-0.15625
262,262,1727988483614,0.18554688,0.034118652,-0.989563,-0.546875,-0.046875,-0.375
263,263,1727988483654,0.18359375,0.02947998,-0.973938,0.1875,0.203125,-0.234375
264,264,1727988483694,0.18017578,0.031188965,-0.9727173,0.375,0.109375,-0.109375
265,265,1727988483734,0.18603516,0.0289917,-0.9883423,-0.3125,-0.28125,-0.21875
266,266,1727988483774,0.18530273,0.02947998,-0.9783325,0.21875,-0.234375,-0.0625
267,267,1727988483814,0.1850586,0.026062012,-0.9734497,0.46875,0.3125,-0.1875
268,268,1727988483854,0.18334961,0.027038574,-0.9788208,0.453125,0.203125,-0.15625
269,269,1727988483894,0.18701172,0.035095215,-0.97784424,0.640625,0.390625,-0.1875
270,270,1727988483934,0.18188477,0.026550293,-0.97735596,0.78125,0.1875,-0.1875
271,271,1727988483974,0.17822266,0.03289795,-0.9805298,0.625,0.5,0.03125
272,272,1727988484014,0.17822266,0.0289917,-0.97784424,0.59375,0.46875,-0.09375
273,273,1727988484054,0.18066406,0.039489746,-0.973938,0.546875,0.125,-0.0625
274,274,1727988484094,0.17480469,0.03314209,-0.98150635,0.6875,0.265625,-0.03125
275,275,1727988484134,0.18139648,0.039001465,-0.9817505,0.59375,0.0625,-0.125
276,276,1727988484174,0.18041992,0.038757324,-0.9702759,0.65625,0.25,-0.125
277,277,1727988484214,0.18164062,0.036071777,-0.9758911,0.578125,0.15625,-0.15625
278,278,1727988484254,0.1809082,0.034362793,-0.97662354,0.578125,0.0625,-0.09375
279,279,1727988484294,0.17944336,0.032409668,-0.97442627,0.578125,0.28125,-0.125
280,280,1727988484334,0.18164062,0.035095215,-0.9783325,0.546875,0.1875,-0.109375
281,281,1727988484374,0.17871094,0.032409668,-0.9849243,0.4375,0.046875,-0.125
282,282,1727988484414,0.17822266,0.035583496,-0.97369385,0.71875,0.125,-0.09375
283,283,1727988484454,0.18188477,0.040222168,-0.9890747,0.25,0.28125,-0.1875
284,284,1727988484494,0.1809082,0.038024902,-0.97320557,0.28125,-0.046875,-0.046875
285,285,1727988484534,0.18359375,0.03387451,-0.97540283,0.046875,-0.03125,-0.1875
286,286,1727988484574,0.17993164,0.030212402,-0.9768677,0.46875,0.21875,0.0
287,287,1727988484614,0.17944336,0.034118652,-0.9812622,0.3125,-0.078125,-0.109375
288,288,1727988484654,0.1821289,0.03778076,-0.9849243,0.421875,0.171875,-0.15625
289,289,1727988484694,0.17895508,0.035583496,-0.9697876,0.71875,0.3125,-0.140625
290,290,1727988484734,0.18432617,0.036315918,-0.98321533,0.265625,0.125,-0.03125
291,291,1727988484774,0.17871094,0.030456543,-0.9795532,0.234375,0.3125,-0.03125
292,292,1727988484814,0.17529297,0.034851074,-0.972229,0.5625,0.1875,-0.078125
293,293,1727988484854,0.18359375,0.03363037,-0.9741821,0.421875,0.265625,-0.09375
294,294,1727988484894,0.18041992,0.036071777,-0.9800415,0.28125,-0.015625,-0.171875
295,295,1727988484934,0.18481445,0.042419434,-0.97906494,0.1875,0.25,-0.09375
296,296,1727988484974,0.17236328,0.039978027,-0.9829712,0.3125,0.015625,-0.171875
297,297,1727988485014,0.17993164,0.038757324,-0.9758911,0.4375,0.078125,-0.15625
298,298,1727988485054,0.17651367,0.03387451,-0.972229,0.359375,-0.09375,-0.078125
299,299,1727988485094,0.1809082,0.039001465,-0.9783325,0.40625,0.015625,0.0
300,300,1727988485134,0.18286133,0.027526855,-0.9780884,0.4375,-0.015625,-0.15625
301,301,1727988485174,0.17773438,0.04095459,-0.9729614,0.015625,-0.046875,-0.234375
302,302,1727988485214,0.17407227,0.039245605,-0.9859009,0.125,-0.015625,-0.171875
303,303,1727988485254,0.17944336,0.042419434,-0.98760986,0.515625,-0.0625,-0.234375
304,304,1727988485294,0.1784668,0.039733887,-0.9788208,0.265625,0.3125,-0.09375
305,305,1727988485334,0.1772461,0.03778076,-0.9746704,-0.265625,-0.015625,-0.125
306,306,1727988485374,0.1796875,0.034362793,-0.9758911,-0.0625,0.078125,-0.140625
307,307,1727988485414,0.17993164,0.039489746,-0.96759033,-0.140625,0.265625,-0.171875
308,308,1727988485454,0.17797852,0.036071777,-0.9783325,0.296875,0.0625,-0.0625
309,309,1727988485494,0.17504883,0.039978027,-0.98223877,0.6875,0.140625,-0.1875
310,310,1727988485534,0.17407227,0.036071777,-0.97906494,0.46875,0.453125,-0.203125
311,311,1727988485574,0.18115234,0.035095215,-0.98028564,0.03125,0.15625,-0.25
312,312,1727988485614,0.17822266,0.035095215,-0.9758911,0.0625,0.265625,-0.109375
313,313,1727988485654,0.17480469,0.03338623,-0.9717407,0.25,0.015625,-0.25
314,314,1727988485694,0.17602539,0.035827637,-0.9768677,0.078125,0.03125,-0.234375
315,315,1727988485734,0.17578125,0.035827637,-0.9788208,0.078125,-0.015625,-0.25
316,316,1727988485774,0.17480469,0.040222168,-0.9763794,0.03125,-0.015625,-0.15625
317,317,1727988485814,0.17504883,0.03338623,-0.97613525,-0.125,0.046875,-0.296875
318,318,1727988485854,0.17382812,0.036071777,-0.9751587,0.03125,-0.125,-0.171875
319,319,1727988485894,0.17480469,0.03289795,-0.972229,0.203125,-0.1875,-0.296875
320,320,1727988485934,0.17895508,0.035339355,-0.9805298,-0.203125,-0.171875,-0.140625
321,321,1727988485974,0.18164062,0.03656006,-0.9673462,0.171875,-0.078125,-0.09375
322,322,1727988486014,0.1796875,0.031188965,-0.9783325,-0.125,0.0,-0.21875
323,323,1727988486054,0.18017578,0.034118652,-0.97857666,-0.125,-0.328125,-0.234375
324,324,1727988486094,0.17773438,0.03314209,-0.9717407,0.203125,-0.109375,-0.1875
325,325,1727988486134,0.18334961,0.03363037,-0.9783325,0.015625,0.078125,-0.09375
326,326,1727988486174,0.17773438,0.027038574,-0.96221924,0.46875,-0.15625,-0.0625
327,327,1727988486214,0.18432617,0.031677246,-0.98565674,-0.4375,-0.25,-0.28125
328,328,1727988486254,0.18920898,0.031433105,-0.9837036,0.21875,0.15625,-0.09375
329,329,1727988486294,0.18115234,0.029968262,-0.97662354,0.0,0.125,-0.125
330,330,1727988486334,0.1809082,0.031921387,-0.9800415,0.234375,0.125,-0.234375
331,331,1727988486374,0.17578125,0.03363037,-0.97125244,0.21875,-0.015625,-0.03125
332,332,1727988486414,0.18725586,0.02947998,-0.9824829,0.015625,-0.03125,-0.15625
333,333,1727988486454,0.18261719,0.0289917,-0.97735596,0.03125,0.046875,-0.09375
334,334,1727988486494,0.18359375,0.024597168,-0.9678345,0.234375,-0.03125,-0.078125
335,335,1727988486534,0.18554688,0.03314209,-0.97125244,0.171875,-0.109375,-0.140625
336,336,1727988486574,0.17700195,0.031188965,-0.9780884,0.234375,-0.390625,-0.15625
337,337,1727988486614,0.18725586,0.030456543,-0.9751587,0.0,-0.21875,-0.109375
338,338,1727988486654,0.18310547,0.0289917,-0.98272705,0.15625,-0.078125,-0.109375
339,339,1727988486694,0.18676758,0.03656006,-0.9783325,0.09375,-0.15625,-0.234375
340,340,1727988486734,0.18164062,0.028259277,-0.9824829,0.234375,-0.140625,-0.203125
341,341,1727988486774,0.17993164,0.03338623,-0.9729614,0.40625,-0.03125,-0.09375
342,342,1727988486814,0.18432617,0.032165527,-0.9680786,0.578125,-0.015625,-0.078125
343,343,1727988486854,0.18481445,0.03363037,-0.97540283,0.109375,-0.21875,-0.171875
344,344,1727988486894,0.18383789,0.03387451,-0.9837036,0.25,0.09375,-0.171875
345,345,1727988486934,0.18188477,0.031677246,-0.97735596,0.484375,0.046875,-0.1875
346,346,1727988486974,0.18310547,0.030456543,-0.97784424,0.125,0.140625,-0.015625
347,347,1727988487014,0.18579102,0.022155762,-0.9783325,0.28125,-0.125,-0.078125
348,348,1727988487054,0.18823242,0.026550293,-0.9776001,0.5625,0.328125,-0.109375
349,349,1727988487094,0.18237305,0.030944824,-0.97491455,0.671875,0.5625,-0.015625
350,350,1727988487134,0.18310547,0.02947998,-0.9717407,0.796875,0.59375,-0.015625
351,351,1727988487174,0.1772461,0.034118652,-0.9819946,0.75,0.078125,-0.109375
352,352,1727988487214,0.18823242,0.028015137,-0.9758911,0.59375,0.25,-0.125
353,353,1727988487254,0.18579102,0.027038574,-0.97662354,0.703125,0.375,-0.125
354,354,1727988487294,0.18359375,0.035827637,-0.97784424,0.90625,0.0625,-0.15625
355,355,1727988487334,0.18359375,0.03265381,-0.97906494,0.703125,0.0,-0.15625
356,356,1727988487374,0.17919922,0.034851074,-0.97979736,0.6875,-0.046875,0.015625
357,357,1727988487414,0.18310547,0.03363037,-0.97491455,0.46875,0.171875,-0.09375
358,358,1727988487454,0.1821289,0.035339355,-0.97369385,0.78125,0.015625,0.015625
359,359,1727988487494,0.18652344,0.03338623,-0.9763794,0.671875,0.1875,-0.0625
360,360,1727988487534,0.19042969,0.03387451,-0.9800415,0.53125,-0.125,-0.125
361,361,1727988487574,0.18066406,0.032165527,-0.97662354,0.453125,0.0625,-0.046875
362,362,1727988487614,0.1850586,0.030700684,-0.97320557,0.453125,-0.0625,-0.1875
363,363,1727988487654,0.18579102,0.039489746,-0.9793091,0.21875,0.125,-0.171875
364,364,1727988487694,0.18237305,0.035827637,-0.973938,0.5625,0.1875,-0.0625
365,365,1727988487734,0.18774414,0.03704834,-0.9812622,0.15625,0.21875,-0.171875
366,366,1727988487774,0.18115234,0.03363037,-0.973938,0.21875,-0.171875,-0.140625
367,367,1727988487814,0.18237305,0.034851074,-0.9866333,-0.046875,0.0625,-0.34375
368,368,1727988487854,0.19213867,0.042175293,-0.9710083,0.265625,0.21875,-0.1875
369,369,1727988487894,0.18701172,0.039978027,-0.99053955,0.140625,0.34375,-0.1875
370,370,1727988487934,0.17993164,0.03778076,-0.9768677,0.625,0.421875,-0.125
371,371,1727988487974,0.17651367,0.039978027,-0.9734497,0.609375,0.390625,-0.046875
372,372,1727988488014,0.17651367,0.0368042,-0.9807739,0.46875,0.3125,-0.125
373,373,1727988488054,0.18066406,0.039978027,-0.9812622,0.515625,0.234375,-0.046875
374,374,1727988488094,0.17895508,0.040222168,-0.9702759,0.5,0.234375,-0.015625
375,375,1727988488134,0.18115234,0.03729248,-0.9763794,0.328125,0.234375,-0.078125
376,376,1727988488174,0.1809082,0.04559326,-0.97442627,0.25,-0.03125,-0.125
377,377,1727988488214,0.18261719,0.039489746,-0.9812622,0.0625,0.203125,-0.03125
378,378,1727988488254,0.17822266,0.03387451,-0.97491455,0.359375,0.359375,-0.171875
379,379,1727988488294,0.17675781,0.038513184,-0.97198486,0.078125,0.21875,-0.25
380,380,1727988488334,0.18432617,0.039733887,-0.9763794,0.375,0.09375,-0.125
381,381,1727988488374,0.17382812,0.04046631,-0.9780884,0.15625,0.140625,-0.0625
382,382,1727988488414,0.1850586,0.039245605,-0.97540283,0.40625,0.125,-0.046875
383,383,1727988488454,0.18188477,0.047790527,-0.97662354,0.34375,0.25,-0.140625
384,384,1727988488494,0.17211914,0.038757324,-0.9795532,0.171875,0.265625,-0.171875
385,385,1727988488534,0.18261719,0.04534912,-0.9788208,0.203125,0.125,-0.234375
386,386,1727988488574,0.17822266,0.039978027,-0.97906494,0.46875,0.046875,-0.046875
387,387,1727988488614,0.17895508,0.036315918,-0.98760986,-0.03125,0.296875,-0.109375
388,388,1727988488654,0.18188477,0.035827637,-0.9758911,-0.078125,0.09375,-0.1875
389,389,1727988488694,0.1796875,0.031433105,-0.9783325,0.078125,-0.125,-0.09375
390,390,1727988488734,0.17504883,0.042419434,-0.973938,0.234375,0.265625,-0.140625
391,391,1727988488774,0.17260742,0.038024902,-0.9800415,0.0625,-0.203125,-0.1875
392,392,1727988488814,0.18481445,0.04046631,-0.9751587,0.40625,0.03125,-0.25
393,393,1727988488854,0.1743164,0.034118652,-0.97979736,0.125,0.03125,-0.203125
394,394,1727988488894,0.17602539,0.03778076,-0.98516846,-0.40625,0.140625,-0.171875
395,395,1727988488934,0.1809082,0.034118652,-0.97784424,-0.125,0.171875,-0.171875
396,396,1727988488974,0.17651367,0.03778076,-0.97320557,0.125,0.0625,-0.21875
397,397,1727988489014,0.17700195,0.025817871,-0.9734497,0.140625,-0.046875,-0.109375
398,398,1727988489054,0.1821289,0.035827637,-0.9771118,-0.046875,-0.140625,-0.15625
399,399,1727988489094,0.17993164,0.038269043,-0.9771118,0.03125,0.015625,-0.21875
400,400,1727988489134,0.17626953,0.039245605,-0.97906494,-0.03125,0.03125,-0.109375
401,401,1727988489174,0.17480469,0.03314209,-0.9771118,-0.140625,-0.203125,-0.15625
402,402,1727988489214,0.1784668,0.030456543,-0.9741821,0.125,0.03125,-0.1875
403,403,1727988489254,0.18017578,0.03314209,-0.9673462,0.015625,0.046875,-0.1875
404,404,1727988489294,0.1784668,0.032165527,-0.97906494,0.109375,-0.09375,-0.28125
405,405,1727988489334,0.1821289,0.036071777,-0.97125244,0.234375,-0.265625,-0.3125
406,406,1727988489374,0.17700195,0.027282715,-0.98223877,-0.75,-0.265625,-0.328125
407,407,1727988489414,0.18408203,0.03656006,-0.9837036,-0.5,0.015625,-0.25
408,408,1727988489454,0.18017578,0.0289917,-0.9685669,0.140625,0.125,-0.203125
409,409,1727988489494,0.18334961,0.028747559,-0.97906494,-0.625,0.140625,-0.03125
410,410,1727988489534,0.1809082,0.025817871,-0.98028564,-0.125,-0.09375,-0.140625
411,411,1727988489574,0.1784668,0.02947998,-0.9783325,0.015625,0.234375,-0.375
412,412,1727988489614,0.18139648,0.029968262,-0.98028564,0.03125,0.046875,-0.296875
413,413,1727988489654,0.17919922,0.029724121,-0.97491455,0.359375,-0.15625,-0.125
414,414,1727988489694,0.18261719,0.03656006,-0.9780884,0.171875,-0.03125,-0.1875
415,415,1727988489734,0.17919922,0.031188965,-0.97320557,-0.0625,0.109375,-0.1875
416,416,1727988489774,0.18457031,0.032165527,-0.9729614,0.125,0.046875,-0.109375
417,417,1727988489814,0.1772461,0.028503418,-0.97662354,0.359375,-0.0625,-0.125
418,418,1727988489854,0.1809082,0.022888184,-0.9758911,0.3125,-0.1875,-0.125
419,419,1727988489894,0.18847656,0.024108887,-0.9741821,0.203125,-0.09375,-0.234375
420,420,1727988489934,0.18432617,0.026794434,-0.98394775,0.59375,0.078125,0.03125
421,421,1727988489974,0.18408203,0.03289795,-0.9768677,0.625,-0.15625,-0.171875
422,422,1727988490014,0.18383789,0.026794434,-0.9717407,0.625,-0.15625,-0.125
423,423,1727988490054,0.18286133,0.036315918,-0.97613525,0.71875,0.21875,-0.15625
424,424,1727988490094,0.18261719,0.02947998,-0.9776001,0.71875,0.203125,-0.015625
425,425,1727988490134,0.18896484,0.030456543,-0.97906494,0.4375,0.171875,-0.140625
426,426,1727988490174,0.18310547,0.034851074,-0.97735596,0.890625,0.03125,-0.015625
427,427,1727988490214,0.18579102,0.031677246,-0.98101807,0.53125,0.375,-0.125
428,428,1727988490254,0.18408203,0.031433105,-0.9649048,0.71875,-0.140625,0.015625
429,429,1727988490294,0.18115234,0.035583496,-0.98516846,0.5,0.0625,-0.125
430,430,1727988490334,0.17944336,0.035095215,-0.9741821,0.625,0.21875,-0.078125
431,431,1727988490374,0.18164062,0.0368042,-0.9690552,0.578125,0.15625,-0.015625
432,432,1727988490414,0.17871094,0.034118652,-0.9800415,0.703125,0.03125,-0.125
433,433,1727988490454,0.1796875,0.036315918,-0.97198486,0.8125,0.15625,-0.265625
434,434,1727988490494,0.1850586,0.030212402,-0.9788208,0.484375,0.25,-0.046875
435,435,1727988490534,0.17895508,0.038024902,-0.9783325,0.328125,0.078125,-0.265625
436,436,1727988490574,0.18017578,0.03338623,-0.9673462,0.625,-0.03125,-0.171875
437,437,1727988490614,0.17797852,0.03729248,-0.97052,0.484375,0.03125,-0.21875
438,438,1727988490654,0.18457031,0.039001465,-0.9727173,0.8125,-0.03125,-0.1875
439,439,1727988490694,0.1887207,0.035827637,-0.9768677,0.46875,0.171875,-0.21875
440,440,1727988490734,0.18554688,0.04119873,-0.97491455,0.40625,0.03125,0.03125
441,441,1727988490774,0.17602539,0.03778076,-0.98028564,0.296875,0.046875,-0.171875
442,442,1727988490814,0.18164062,0.039733887,-0.9758911,0.390625,0.09375,-0.15625
443,443,1727988490854,0.18774414,0.0368042,-0.9746704,0.65625,0.0625,-0.3125
444,444,1727988490894,0.17944336,0.039489746,-0.9763794,0.5,0.09375,0.0
445,445,1727988490934,0.18017578,0.038757324,-0.9717407,0.578125,0.1875,-0.109375
446,446,1727988490974,0.18066406,0.043395996,-0.9614868,0.5625,0.171875,-0.015625
447,447,1727988491014,0.1821289,0.039001465,-0.97198486,0.5,-0.015625,-0.15625
448,448,1727988491054,0.16894531,0.043151855,-0.9714966,0.484375,0.078125,-0.25
449,449,1727988491094,0.19091797,0.034606934,-0.98101807,0.0,-0.046875,-0.25
450,450,1727988491134,0.18139648,0.04071045,-0.973938,0.328125,0.328125,-0.1875
451,451,1727988491174,0.1821289,0.038269043,-0.9776001,0.203125,0.328125,-0.140625
452,452,1727988491214,0.17382812,0.03729248,-0.97784424,0.4375,0.375,-0.09375
453,453,1727988491254,0.18286133,0.038513184,-0.97320557,0.609375,0.515625,-0.03125
454,454,1727988491294,0.18237305,0.036315918,-0.9661255,0.859375,0.3125,0.125
455,455,1727988491334,0.17773438,0.03753662,-0.97906494,0.578125,0.34375,-0.125
456,456,1727988491374,0.17993164,0.034851074,-0.97320557,0.234375,0.21875,-0.140625
457,457,1727988491414,0.17871094,0.03387451,-0.9793091,0.484375,0.28125,-0.21875
458,458,1727988491454,0.17944336,0.03704834,-0.97003174,0.171875,0.203125,-0.15625
459,459,1727988491494,0.1784668,0.04046631,-0.9783325,0.109375,0.34375,-0.28125
460,460,1727988491534,0.17773438,0.046813965,-0.98272705,0.171875,0.1875,-0.046875
461,461,1727988491574,0.17700195,0.048034668,-0.9834595,0.28125,0.265625,-0.21875
462,462,1727988491614,0.17651367,0.04095459,-0.9741821,0.296875,0.515625,-0.078125
463,463,1727988491654,0.18383789,0.034362793,-0.97003174,0.28125,0.453125,-0.15625
464,464,1727988491694,0.17919922,0.038513184,-0.9763794,0.46875,0.328125,-0.1875
465,465,1727988491734,0.17993164,0.041931152,-0.9771118,0.265625,0.03125,-0.25
466,466,1727988491774,0.17797852,0.04095459,-0.9763794,0.40625,0.296875,-0.25
467,467,1727988491814,0.17578125,0.04168701,-0.9768677,0.1875,0.1875,-0.0625
468,468,1727988491854,0.17749023,0.042907715,-0.98516846,0.09375,-0.125,-0.234375
469,469,1727988491894,0.17919922,0.039489746,-0.98028564,-0.25,0.3125,-0.203125
470,470,1727988491934,0.17602539,0.038513184,-0.96051025,-0.140625,-0.125,0.03125
471,471,1727988491974,0.17651367,0.027770996,-0.972229,-0.09375,-0.015625,-0.296875
472,472,1727988492014,0.17993164,0.039001465,-0.9824829,-0.03125,0.015625,-0.28125
473,473,1727988492054,0.1772461,0.034606934,-0.9771118,-0.359375,0.125,-0.15625
474,474,1727988492094,0.18237305,0.034362793,-0.9783325,-0.015625,0.21875,-0.109375
475,475,1727988492134,0.17651367,0.04144287,-0.9817505,-0.15625,-0.015625,-0.34375
476,476,1727988492174,0.18359375,0.03387451,-0.98394775,-0.015625,0.03125,-0.15625
477,477,1727988492214,0.17773438,0.0368042,-0.9734497,0.21875,0.171875,-0.09375
478,478,1727988492254,0.18041992,0.029968262,-0.97613525,0.15625,0.15625,-0.0625
479,479,1727988492294,0.17822266,0.029724121,-0.9746704,0.203125,-0.265625,-0.171875
480,480,1727988492334,0.17993164,0.0368042,-0.98150635,-0.015625,-0.09375,-0.296875
481,481,1727988492374,0.1784668,0.039245605,-0.9763794,0.09375,0.0,-0.234375
482,482,1727988492414,0.1796875,0.02947998,-0.9793091,0.0,0.078125,-0.125
483,483,1727988492454,0.1784668,0.03289795,-0.972229,0.15625,-0.125,-0.09375
484,484,1727988492494,0.18676758,0.03729248,-0.9751587,0.0625,-0.234375,-0.21875
485,485,1727988492534,0.18164062,0.03289795,-0.9776001,0.234375,-0.09375,-0.078125
486,486,1727988492574,0.18066406,0.035827637,-0.97369385,0.28125,-0.21875,-0.125
487,487,1727988492614,0.1796875,0.02508545,-0.9837036,-0.28125,-0.421875,-0.1875
488,488,1727988492654,0.17993164,0.04095459,-0.9871216,-0.078125,-0.171875,-0.109375
489,489,1727988492694,0.18432617,0.03729248,-0.97491455,-0.03125,-0.015625,-0.28125
490,490,1727988492734,0.18310547,0.030700684,-0.97857666,-0.3125,-0.46875,-0.234375
491,491,1727988492774,0.17895508,0.030456543,-0.9751587,-0.328125,-0.28125,-0.1875
492,492,1727988492814,0.18139648,0.034362793,-0.97320557,-0.328125,0.234375,-0.203125
493,493,1727988492854,0.18164062,0.028503418,-0.9771118,0.0625,0.171875,-0.15625
494,494,1727988492894,0.18457031,0.027770996,-0.9771118,0.09375,0.25,-0.140625
495,495,1727988492934,0.17993164,0.031188965,-0.97613525,0.21875,-0.1875,-0.171875
496,496,1727988492974,0.17749023,0.031677246,-0.9807739,0.21875,0.21875,-0.140625
497,497,1727988493014,0.17749023,0.030944824,-0.97662354,0.328125,0.0,-0.265625
498,498,1727988493054,0.18603516,0.026062012,-0.97320557,0.21875,0.046875,-0.15625
499,499,1727988493094,0.18286133,0.031433105,-0.9807739,0.296875,-0.125,-0.125
500,500,1727988493134,0.18115234,0.029724121,-0.98101807,0.28125,-0.015625,-0.171875
501,501,1727988493174,0.18481445,0.026306152,-0.9812622,0.515625,-0.0625,-0.203125
502,502,1727988493214,0.18774414,0.028259277,-0.972229,0.515625,-0.28125,-0.03125
503,503,1727988493254,0.18530273,0.03289795,-0.9780884,0.71875,-0.234375,0.0
504,504,1727988493294,0.17944336,0.031433105,-0.9776001,0.5,0.0,-0.21875
505,505,1727988493334,0.1809082,0.03387451,-0.97442627,0.46875,0.25,-0.078125
506,506,1727988493374,0.18383789,0.028015137,-0.9807739,0.171875,0.296875,-0.3125
507,507,1727988493414,0.18676758,0.035339355,-0.97979736,0.4375,0.21875,-0.1875
508,508,1727988493454,0.17773438,0.031677246,-0.97247314,0.46875,0.4375,-0.03125
509,509,1727988493494,0.1875,0.031677246,-0.9768677,0.203125,-0.203125,-0.21875
510,510,1727988493534,0.18188477,0.03265381,-0.9795532,0.609375,-0.03125,-0.09375
511,511,1727988493574,0.18261719,0.03314209,-0.97052,0.671875,0.25,-0.203125
512,512,1727988493614,0.18701172,0.031188965,-0.975647,0.671875,0.234375,-0.0625
513,513,1727988493654,0.18115234,0.035583496,-0.972229,0.90625,0.25,-0.15625
514,514,1727988493694,0.1796875,0.035827637,-0.9751587,0.65625,0.171875,-0.03125
515,515,1727988493734,0.18652344,0.03387451,-0.98272705,0.484375,0.265625,0.015625
516,516,1727988493774,0.1821289,0.028015137,-0.97784424,0.46875,0.375,-0.078125
517,517,1727988493814,0.17993164,0.038024902,-0.97979736,0.5625,0.109375,-0.015625
518,518,1727988493854,0.18481445,0.039978027,-0.9824829,0.578125,0.15625,-0.03125
519,519,1727988493894,0.18139648,0.042175293,-0.97247314,0.546875,0.125,-0.0625
520,520,1727988493934,0.18286133,0.039001465,-0.98516846,0.546875,0.15625,-0.15625
521,521,1727988493974,0.18286133,0.039978027,-0.98321533,0.671875,0.046875,-0.140625
522,522,1727988494014,0.18676758,0.0368042,-0.9746704,0.40625,0.171875,-0.109375
523,523,1727988494054,0.18481445,0.028503418,-0.9771118,0.21875,0.265625,-0.09375
524,524,1727988494094,0.18261719,0.031433105,-0.9768677,0.578125,0.296875,-0.21875
525,525,1727988494134,0.18286133,0.039245605,-0.9758911,0.546875,0.140625,-0.125
526,526,1727988494174,0.18481445,0.03314209,-0.97052,0.25,-0.25,-0.28125
527,527,1727988494214,0.1862793,0.038513184,-0.98028564,0.28125,0.109375,-0.03125
528,528,1727988494254,0.17797852,0.035339355,-0.9729614,0.5625,0.234375,0.015625
529,529,1727988494294,0.18261719,0.03753662,-0.9819946,-0.375,0.125,-0.359375
530,530,1727988494334,0.18408203,0.034118652,-0.98028564,0.328125,0.25,-0.28125
531,531,1727988494374,0.18017578,0.03778076,-0.9697876,0.21875,0.078125,-0.125
532,532,1727988494414,0.18359375,0.03338623,-0.9776001,0.421875,0.21875,-0.09375
533,533,1727988494454,0.17895508,0.03729248,-0.9768677,0.671875,0.34375,-0.1875
534,534,1727988494494,0.18017578,0.031188965,-0.9734497,0.515625,0.078125,-0.125
535,535,1727988494534,0.18164062,0.03778076,-0.97857666,0.28125,0.28125,-0.109375
536,536,1727988494574,0.18261719,0.03656006,-0.98150635,0.265625,0.421875,-0.21875
537,537,1727988494614,0.17944336,0.03338623,-0.9714966,0.71875,0.328125,-0.109375
538,538,1727988494654,0.17089844,0.038757324,-0.9734497,0.46875,-0.09375,-0.15625
539,539,1727988494694,0.18188477,0.043884277,-0.97076416,0.390625,0.203125,-0.109375
540,540,1727988494734,0.18310547,0.038024902,-0.9771118,0.234375,0.109375,-0.234375
541,541,1727988494774,0.18188477,0.039001465,-0.9729614,0.484375,0.015625,-0.15625
542,542,1727988494814,0.17871094,0.04046631,-0.97784424,0.453125,-0.03125,-0.140625
543,543,1727988494854,0.17993164,0.038269043,-0.97735596,0.484375,0.140625,-0.109375
544,544,1727988494894,0.18286133,0.03729248,-0.98028564,0.5625,0.171875,-0.125
545,545,1727988494934,0.18383789,0.040222168,-0.9783325,0.453125,0.03125,-0.046875
546,546,1727988494974,0.17993164,0.043151855,-0.97906494,0.296875,0.046875,-0.046875
547,547,1727988495014,0.17944336,0.04534912,-0.975647,0.515625,0.203125,-0.1875
548,548,1727988495054,0.17895508,0.04168701,-0.98516846,-0.015625,0.3125,-0.046875
549,549,1727988495094,0.17773438,0.039245605,-0.9702759,0.203125,-0.0625,-0.140625
550,550,1727988495134,0.1706543,0.03704834,-0.97540283,0.0,-0.0625,-0.1875
551,551,1727988495174,0.18017578,0.034851074,-0.97369385,0.3125,0.515625,-0.078125
552,552,1727988495214,0.1796875,0.042175293,-0.9805298,0.109375,0.265625,-0.171875
553,553,1727988495254,0.1821289,0.04144287,-0.9812622,0.28125,0.390625,-0.15625
554,554,1727988495294,0.1809082,0.04144287,-0.9741821,0.359375,0.125,-0.09375
555,555,1727988495334,0.18066406,0.03656006,-0.98150635,0.0,0.171875,-0.328125
556,556,1727988495374,0.17871094,0.039001465,-0.97735596,-0.03125,0.140625,-0.03125
557,557,1727988495414,0.1809082,0.034118652,-0.9751587,0.046875,0.0625,-0.109375
558,558,1727988495454,0.18310547,0.03729248,-0.9763794,0.328125,-0.28125,-0.21875
559,559,1727988495494,0.1784668,0.034362793,-0.98028564,0.09375,-0.140625,-0.15625
560,560,1727988495534,0.18334961,0.040222168,-0.97540283,0.140625,-0.046875,-0.203125
561,561,1727988495574,0.17675781,0.043640137,-0.9734497,-0.03125,-0.125,-0.15625
562,562,1727988495614,0.18237305,0.0368042,-0.9771118,0.109375,-0.046875,-0.09375
563,563,1727988495654,0.17602539,0.031188965,-0.975647,0.25,0.09375,-0.203125
564,564,1727988495694,0.17871094,0.038269043,-0.9763794,-0.09375,-0.0625,-0.046875
565,565,1727988495734,0.18164062,0.03289795,-0.9812622,0.0,0.1875,-0.21875
566,566,1727988495774,0.18310547,0.03314209,-0.9697876,0.140625,-0.125,-0.28125
567,567,1727988495814,0.18530273,0.03387451,-0.9746704,-0.265625,-0.109375,-0.1875
568,568,1727988495854,0.18481445,0.034362793,-0.9805298,-0.375,0.34375,-0.21875
569,569,1727988495894,0.17578125,0.03289795,-0.9631958,0.171875,0.21875,-0.09375
570,570,1727988495934,0.18432617,0.031433105,-0.9829712,-0.671875,-0.078125,-0.3125
571,571,1727988495974,0.1772461,0.023376465,-0.9829712,0.09375,0.015625,-0.171875
572,572,1727988496014,0.17602539,0.028503418,-0.9771118,-0.125,-0.015625,-0.15625
573,573,1727988496054,0.18066406,0.030944824,-0.97125244,0.15625,0.03125,-0.265625
574,574,1727988496094,0.18334961,0.027038574,-0.97784424,0.15625,-0.171875,-0.140625
575,575,1727988496134,0.18237305,0.02947998,-0.97735596,0.140625,0.125,-0.1875
576,576,1727988496174,0.18530273,0.027770996,-0.9805298,0.015625,0.203125,-0.078125
577,577,1727988496214,0.18603516,0.02923584,-0.97052,0.09375,-0.015625,-0.03125
578,578,1727988496254,0.18554688,0.02557373,-0.98321533,0.09375,0.0,-0.21875
579,579,1727988496294,0.17773438,0.02923584,-0.98321533,-0.03125,-0.234375,-0.09375
580,580,1727988496334,0.18286133,0.031433105,-0.9795532,0.015625,-0.0625,-0.28125
581,581,1727988496374,0.18237305,0.027770996,-0.973938,0.078125,0.109375,-0.1875
582,582,1727988496414,0.18139648,0.030456543,-0.9763794,0.0625,-0.046875,-0.21875
583,583,1727988496454,0.18286133,0.026062012,-0.97979736,0.109375,-0.046875,-0.1875
584,584,1727988496494,0.1821289,0.027770996,-0.9768677,0.46875,-0.046875,-0.09375
585,585,1727988496534,0.18408203,0.027282715,-0.9829712,0.65625,-0.265625,-0.25
586,586,1727988496574,0.18261719,0.024597168,-0.9849243,0.234375,-0.390625,-0.25
587,587,1727988496614,0.18139648,0.03338623,-0.9763794,0.421875,0.15625,-0.15625
588,588,1727988496654,0.18359375,0.035583496,-0.975647,0.546875,-0.015625,-0.234375
589,589,1727988496694,0.18188477,0.028259277,-0.9834595,0.0,0.125,-0.25
590,590,1727988496734,0.18652344,0.032165527,-0.97662354,0.578125,0.203125,-0.109375
591,591,1727988496774,0.18188477,0.0289917,-0.97784424,0.484375,0.5,-0.109375
592,592,1727988496814,0.18579102,0.03387451,-0.98321533,0.9375,0.171875,-0.140625
593,593,1727988496854,0.18701172,0.02923584,-0.97540283,0.875,0.0,-0.03125
594,594,1727988496894,0.18554688,0.02923584,-0.97613525,0.84375,0.25,-0.0625
595,595,1727988496934,0.18188477,0.032409668,-0.9768677,0.453125,0.234375,-0.234375
596,596,1727988496974,0.1850586,0.031677246,-0.9692993,0.5,0.125,-0.21875
597,597,1727988497014,0.18017578,0.035827637,-0.9746704,0.6875,0.09375,-0.1875
598,598,1727988497054,0.18701172,0.04071045,-0.9741821,0.515625,-0.171875,-0.140625
599,599,1727988497094,0.18139648,0.03314209,-0.975647,0.28125,-0.03125,-0.203125
600,600,1727988497134,0.1850586,0.03338623,-0.97906494,0.28125,0.234375,-0.15625
601,601,1727988497174,0.18286133,0.04168701,-0.97857666,0.4375,-0.15625,-0.21875
602,602,1727988497214,0.18310547,0.03289795,-0.972229,0.40625,0.03125,-0.125
603,603,1727988497254,0.18310547,0.036071777,-0.9795532,0.421875,0.078125,-0.03125
604,604,1727988497294,0.18017578,0.034606934,-0.9824829,0.453125,0.265625,-0.1875
605,605,1727988497334,0.18383789,0.03265381,-0.9717407,0.453125,0.03125,-0.25
606,606,1727988497374,0.18701172,0.038269043,-0.97857666,0.203125,0.21875,-0.140625
607,607,1727988497414,0.17919922,0.028747559,-0.975647,0.390625,0.046875,-0.078125
608,608,1727988497454,0.18066406,0.027282715,-0.97540283,0.578125,0.34375,-0.140625
609,609,1727988497494,0.18310547,0.038513184,-0.98223877,-0.171875,0.125,-0.28125
610,610,1727988497534,0.18701172,0.038513184,-0.9837036,0.359375,0.125,-0.140625
611,611,1727988497574,0.17480469,0.031677246,-0.9746704,0.28125,0.203125,-0.171875
612,612,1727988497614,0.1796875,0.035339355,-0.97857666,0.46875,0.125,-0.28125
613,613,1727988497654,0.18115234,0.039001465,-0.97540283,0.859375,0.21875,-0.09375
614,614,1727988497694,0.18432617,0.0368042,-0.9788208,0.296875,0.296875,-0.09375
615,615,1727988497734,0.18969727,0.035583496,-0.9807739,0.3125,0.5,-0.078125
616,616,1727988497774,0.18017578,0.03338623,-0.9746704,0.375,0.453125,-0.09375
617,617,1727988497814,0.1772461,0.032409668,-0.97052,0.640625,0.484375,-0.09375
618,618,1727988497854,0.18261719,0.035583496,-0.98931885,0.3125,0.21875,-0.25
619,619,1727988497894,0.1796875,0.04144287,-0.9678345,0.5625,0.1875,-0.0625
620,620,1727988497934,0.1743164,0.03338623,-0.9763794,0.53125,0.203125,-0.28125
621,621,1727988497974,0.18334961,0.04071045,-0.98565674,0.390625,0.15625,-0.21875
622,622,1727988498014,0.18188477,0.03387451,-0.9758911,0.203125,0.28125,-0.078125
623,623,1727988498054,0.17797852,0.039733887,-0.9883423,0.421875,0.0625,-0.15625
624,624,1727988498094,0.17675781,0.041931152,-0.97540283,0.375,0.28125,-0.046875
625,625,1727988498134,0.1809082,0.039489746,-0.9763794,0.3125,0.546875,-0.15625
626,626,1727988498174,0.18017578,0.039001465,-0.9702759,0.078125,0.046875,-0.140625
627,627,1727988498214,0.18066406,0.039978027,-0.9776001,0.21875,-0.03125,-0.140625
628,628,1727988498254,0.17895508,0.043640137,-0.9834595,0.3125,-0.109375,-0.0625
629,629,1727988498294,0.18017578,0.04168701,-0.973938,0.390625,-0.125,-0.125
630,630,1727988498334,0.17260742,0.042907715,-0.98150635,-0.09375,0.21875,-0.046875
631,631,1727988498374,0.17480469,0.034118652,-0.97003174,-0.046875,-0.234375,-0.171875
632,632,1727988498414,0.17529297,0.030456543,-0.9690552,-0.28125,-0.40625,-0.1875
633,633,1727988498454,0.18115234,0.032409668,-0.9768677,0.171875,-0.078125,-0.140625
634,634,1727988498494,0.18017578,0.038757324,-0.97442627,-0.078125,-0.078125,-0.375
635,635,1727988498534,0.17871094,0.039001465,-0.9780884,0.03125,0.046875,-0.078125
636,636,1727988498574,0.18334961,0.03704834,-0.9841919,-0.15625,0.25,-0.21875
637,637,1727988498614,0.1796875,0.032165527,-0.98687744,-0.078125,0.125,-0.03125
638,638,1727988498654,0.18188477,0.031433105,-0.975647,0.203125,-0.03125,-0.109375
639,639,1727988498694,0.1821289,0.039245605,-0.9714966,0.15625,0.046875,-0.171875
640,640,1727988498734,0.18188477,0.034362793,-0.97491455,0.234375,-0.15625,-0.09375
641,641,1727988498774,0.1784668,0.03363037,-0.97662354,-0.21875,-0.046875,-0.078125
642,642,1727988498814,0.17602539,0.036071777,-0.9746704,0.015625,-0.015625,-0.15625
643,643,1727988498854,0.1784668,0.03656006,-0.97857666,0.0,-0.171875,-0.125
644,644,1727988498894,0.18139648,0.036315918,-0.98028564,-0.1875,0.046875,-0.09375
645,645,1727988498934,0.17456055,0.027770996,-0.9729614,0.0625,0.03125,-0.21875
646,646,1727988498974,0.18310547,0.032165527,-0.9793091,0.03125,0.046875,-0.0625
647,647,1727988499014,0.18164062,0.03387451,-0.9793091,0.15625,0.03125,-0.15625
648,648,1727988499054,0.17822266,0.039978027,-0.98028564,-0.09375,-0.25,-0.125
649,649,1727988499094,0.18164062,0.035583496,-0.9702759,-0.140625,-0.328125,-0.34375
650,650,1727988499134,0.18408203,0.026794434,-0.9780884,-0.15625,-0.09375,-0.0625
651,651,1727988499174,0.18115234,0.03314209,-0.9751587,-0.078125,-0.0625,-0.21875
652,652,1727988499214,0.18408203,0.030944824,-0.975647,-0.46875,-0.109375,-0.15625
653,653,1727988499254,0.19116211,0.028747559,-0.9768677,-0.5625,0.03125,-0.234375
654,654,1727988499294,0.18334961,0.029724121,-0.9751587,-0.109375,0.265625,-0.234375
655,655,1727988499334,0.18408203,0.034118652,-0.96881104,0.109375,0.046875,-0.296875
656,656,1727988499374,0.18481445,0.027526855,-0.9824829,0.21875,-0.078125,-0.25
657,657,1727988499414,0.18725586,0.026062012,-0.98223877,0.40625,-0.015625,-0.125
658,658,1727988499454,0.18481445,0.026306152,-0.9819946,0.234375,0.109375,-0.09375
659,659,1727988499494,0.18383789,0.023620605,-0.97491455,0.546875,0.03125,-0.109375
660,660,1727988499534,0.18310547,0.027526855,-0.97857666,0.796875,0.203125,-0.109375
661,661,1727988499574,0.1850586,0.020935059,-0.9795532,0.75,-0.15625,-0.078125
662,662,1727988499614,0.18115234,0.026794434,-0.9800415,0.6875,0.015625,-0.125
663,663,1727988499654,0.18457031,0.028503418,-0.9788208,0.4375,-0.078125,-0.125
664,664,1727988499694,0.18798828,0.03289795,-0.9805298,0.515625,0.203125,-0.078125
665,665,1727988499734,0.18164062,0.032165527,-0.98101807,0.65625,-0.015625,-0.203125
666,666,1727988499774,0.17919922,0.030212402,-0.97906494,0.71875,0.25,0.015625
667,667,1727988499814,0.1784668,0.0289917,-0.986145,0.75,0.3125,-0.125
668,668,1727988499854,0.18554688,0.029968262,-0.9685669,0.828125,-0.015625,-0.09375
669,669,1727988499894,0.1862793,0.034851074,-0.9795532,0.265625,-0.015625,-0.140625
670,670,1727988499934,0.19042969,0.038024902,-0.9817505,0.40625,0.21875,-0.125
671,671,1727988499974,0.18017578,0.031921387,-0.97198486,0.734375,-0.015625,-0.015625
672,672,1727988500014,0.1784668,0.029724121,-0.98638916,-0.078125,-0.015625,-0.171875
673,673,1727988500054,0.19042969,0.02947998,-0.972229,0.578125,0.15625,-0.109375
674,674,1727988500094,0.17871094,0.03387451,-0.96832275,0.40625,0.234375,0.0
675,675,1727988500134,0.17919922,0.031677246,-0.9751587,0.5625,0.171875,-0.171875
676,676,1727988500174,0.17651367,0.034606934,-0.9746704,0.640625,0.296875,-0.140625
677,677,1727988500214,0.1809082,0.03753662,-0.9741821,0.59375,0.171875,-0.015625
678,678,1727988500254,0.18115234,0.035095215,-0.9771118,0.453125,0.28125,-0.125
679,679,1727988500294,0.18041992,0.03363037,-0.97735596,0.421875,0.25,0.0
680,680,1727988500334,0.17602539,0.035583496,-0.97369385,0.609375,0.1875,-0.03125
681,681,1727988500374,0.18164062,0.032165527,-0.973938,0.484375,0.015625,-0.140625
682,682,1727988500414,0.18408203,0.039978027,-0.9763794,0.609375,0.09375,-0.125
683,683,1727988500454,0.17749023,0.03778076,-0.9788208,0.546875,-0.078125,-0.15625
684,684,1727988500494,0.17993164,0.03778076,-0.97784424,0.40625,-0.140625,0.09375
685,685,1727988500534,0.17651367,0.039489746,-0.97735596,0.40625,0.109375,-0.171875
686,686,1727988500574,0.17944336,0.04144287,-0.9776001,0.53125,0.046875,-0.09375
687,687,1727988500614,0.18408203,0.038024902,-0.9758911,0.421875,0.0625,-0.140625
688,688,1727988500654,0.18432617,0.03387451,-0.97979736,0.15625,0.140625,-0.046875
689,689,1727988500694,0.17919922,0.031188965,-0.96954346,0.484375,0.15625,-0.171875
690,690,1727988500734,0.18603516,0.03656006,-0.97784424,-0.046875,0.03125,-0.046875
691,691,1727988500774,0.18164062,0.041931152,-0.9819946,0.28125,0.125,-0.078125
692,692,1727988500814,0.17797852,0.03704834,-0.9758911,0.28125,0.15625,-0.21875
693,693,1727988500854,0.17602539,0.036071777,-0.9763794,-0.28125,0.15625,-0.171875
694,694,1727988500894,0.18432617,0.038757324,-0.9890747,0.40625,0.21875,-0.25
695,695,1727988500934,0.18017578,0.042663574,-0.97320557,0.109375,0.34375,-0.125
696,696,1727988500974,0.1821289,0.036315918,-0.9817505,0.1875,0.515625,-0.28125
697,697,1727988501014,0.18481445,0.03656006,-0.97442627,0.375,0.453125,-0.171875
698,698,1727988501054,0.18310547,0.04144287,-0.98272705,0.078125,0.671875,-0.25
699,699,1727988501094,0.18188477,0.035339355,-0.9746704,0.234375,0.578125,-0.046875
700,700,1727988501134,0.17626953,0.042175293,-0.9800415,0.125,0.359375,-0.140625
701,701,1727988501174,0.17626953,0.0368042,-0.97735596,0.453125,0.390625,-0.1875
702,702,1727988501214,0.17993164,0.03778076,-0.97320557,0.359375,-0.03125,-0.03125
703,703,1727988501254,0.1796875,0.039489746,-0.97735596,-0.0625,-0.109375,-0.234375
704,704,1727988501294,0.17211914,0.035827637,-0.9746704,0.0,0.390625,-0.3125
705,705,1727988501334,0.1730957,0.038024902,-0.97662354,0.046875,-0.15625,-0.0625
706,706,1727988501374,0.17822266,0.04095459,-0.97613525,-0.078125,-0.109375,-0.25
707,707,1727988501414,0.17919922,0.03656006,-0.98101807,0.234375,0.109375,-0.25
708,708,1727988501454,0.1809082,0.028015137,-0.9812622,0.171875,0.015625,-0.15625
709,709,1727988501494,0.18164062,0.032409668,-0.97491455,-0.046875,0.140625,-0.125
710,710,1727988501534,0.17529297,0.035339355,-0.98272705,-0.15625,0.234375,-0.3125
711,711,1727988501574,0.17675781,0.035095215,-0.98101807,-0.15625,-0.203125,-0.25
712,712,1727988501614,0.17675781,0.027038574,-0.97198486,0.40625,-0.125,-0.234375
713,713,1727988501654,0.1784668,0.031433105,-0.9800415,-0.03125,0.0625,-0.15625
714,714,1727988501694,0.17700195,0.03265381,-0.9639282,0.234375,-0.078125,-0.15625
715,715,1727988501734,0.17871094,0.024353027,-0.9824829,-0.546875,-0.03125,-0.1875
716,716,1727988501774,0.18017578,0.0289917,-0.9768677,0.1875,0.203125,-0.15625
717,717,1727988501814,0.17895508,0.031433105,-0.975647,0.0625,0.203125,-0.09375
718,718,1727988501854,0.17919922,0.03387451,-0.9734497,0.203125,-0.015625,-0.171875
719,719,1727988501894,0.17993164,0.03729248,-0.9776001,0.171875,-0.03125,0.0
720,720,1727988501934,0.18359375,0.035827637,-0.9795532,0.015625,-0.03125,-0.1875
721,721,1727988501974,0.18579102,0.030456543,-0.9776001,0.015625,0.21875,-0.125
722,722,1727988502014,0.17456055,0.026062012,-0.97320557,0.15625,0.03125,-0.25
723,723,1727988502054,0.18017578,0.028015137,-0.97735596,0.234375,-0.125,-0.078125
724,724,1727988502094,0.18139648,0.028259277,-0.97857666,0.078125,-0.0625,-0.1875
725,725,1727988502134,0.17944336,0.02923584,-0.9807739,-0.015625,-0.15625,-0.109375
726,726,1727988502174,0.17822266,0.027770996,-0.9793091,0.03125,-0.75,-0.09375
727,727,1727988502214,0.18359375,0.026062012,-0.9817505,-0.03125,-0.28125,-0.203125
728,728,1727988502254,0.18237305,0.030456543,-0.97979736,0.046875,-0.203125,-0.125
729,729,1727988502294,0.1809082,0.028015137,-0.9834595,0.171875,0.125,-0.0625
730,730,1727988502334,0.1784668,0.02508545,-0.97540283,0.359375,-0.078125,-0.109375
731,731,1727988502374,0.18188477,0.029968262,-0.9885864,-0.140625,-0.0625,-0.140625
732,732,1727988502414,0.18286133,0.027282715,-0.97662354,0.03125,0.078125,-0.21875
733,733,1727988502454,0.18603516,0.022644043,-0.9697876,0.59375,-0.203125,-0.03125
734,734,1727988502494,0.18457031,0.03338623,-0.98443604,0.140625,-0.21875,-0.09375
735,735,1727988502534,0.18334961,0.028747559,-0.9829712,0.53125,0.171875,-0.125
736,736,1727988502574,0.17895508,0.035827637,-0.97491455,0.40625,0.21875,-0.046875
737,737,1727988502614,0.17944336,0.036315918,-0.98223877,0.25,0.34375,-0.109375
738,738,1727988502654,0.18286133,0.03265381,-0.9729614,0.640625,0.5625,-0.1875
739,739,1727988502694,0.1862793,0.030700684,-0.97442627,0.765625,0.25,-0.21875
740,740,1727988502734,0.17773438,0.028015137,-0.9783325,0.59375,0.171875,-0.09375
741,741,1727988502774,0.18164062,0.02923584,-0.97442627,0.734375,-0.21875,-0.25
742,742,1727988502814,0.18359375,0.031921387,-0.98150635,0.703125,-0.140625,-0.125
743,743,1727988502854,0.18115234,0.028747559,-0.9793091,0.90625,0.015625,-0.140625
744,744,1727988502894,0.18408203,0.03289795,-0.9805298,0.859375,0.015625,-0.078125
745,745,1727988502934,0.17700195,0.036071777,-0.9751587,0.578125,0.078125,-0.140625
746,746,1727988502974,0.18017578,0.03704834,-0.97540283,0.53125,0.078125,-0.015625
747,747,1727988503014,0.18164062,0.03314209,-0.97784424,0.421875,0.03125,-0.140625
748,748,1727988503054,0.18554688,0.038513184,-0.9776001,0.640625,0.015625,-0.0625
749,749,1727988503094,0.18823242,0.039001465,-0.98394775,0.328125,0.078125,-0.234375
750,750,1727988503134,0.18847656,0.03265381,-0.97784424,0.515625,0.15625,-0.0625
751,751,1727988503174,0.18286133,0.042175293,-0.973938,0.25,0.125,-0.203125
752,752,1727988503214,0.18530273,0.034606934,-0.9783325,0.453125,0.03125,-0.0625
753,753,1727988503254,0.1809082,0.042907715,-0.975647,0.375,0.140625,-0.03125
754,754,1727988503294,0.18530273,0.03753662,-0.9834595,-0.34375,0.1875,-0.390625
755,755,1727988503334,0.1850586,0.032409668,-0.9805298,0.40625,0.15625,-0.1875
756,756,1727988503374,0.18188477,0.036315918,-0.9741821,0.21875,0.296875,-0.125
757,757,1727988503414,0.18530273,0.036315918,-0.97906494,0.4375,0.28125,-0.15625
758,758,1727988503454,0.18823242,0.035583496,-0.97784424,0.484375,0.34375,-0.1875
759,759,1727988503494,0.18408203,0.02947998,-0.9817505,0.46875,0.453125,-0.09375
