,Unnamed: 0,timestamp,accel_x,accel_y,accel_z,gyro_x,gyro_y,gyro_z
0,0,1727373853895,0.14282227,0.101257324,-0.9368286,-0.328125,1.03125,0.234375
1,1,1727373853935,0.13989258,0.09295654,-0.9402466,0.15625,0.921875,0.40625
2,2,1727373853975,0.13598633,0.086120605,-0.91363525,0.59375,1.171875,0.4375
3,3,1727373854015,0.1418457,0.101257324,-0.93585205,-0.59375,1.390625,0.3125
4,4,1727373854055,0.14257812,0.09881592,-0.93536377,-0.515625,0.65625,0.03125
5,5,1727373854095,0.14379883,0.093688965,-0.94244385,-0.15625,0.953125,0.34375
6,6,1727373854135,0.12890625,0.09197998,-0.93707275,-0.265625,1.03125,0.3125
7,7,1727373854175,0.14135742,0.09979248,-0.9446411,-0.328125,0.84375,0.265625
8,8,1727373854215,0.13452148,0.09197998,-0.940979,-0.1875,1.015625,0.234375
9,9,1727373854255,0.13793945,0.09686279,-0.94000244,-0.390625,1.0625,0.265625
10,10,1727373854295,0.13964844,0.09051514,-0.93707275,-0.34375,1.0,0.328125
11,11,1727373854335,0.14038086,0.09197998,-0.9451294,-0.21875,0.921875,0.171875
12,12,1727373854375,0.14501953,0.097351074,-0.9338989,-0.125,0.9375,0.453125
13,13,1727373854415,0.13769531,0.097839355,-0.9402466,-0.1875,1.078125,0.359375
14,14,1727373854455,0.13793945,0.093444824,-0.93463135,-0.21875,1.078125,0.25
15,15,1727373854495,0.13598633,0.093688965,-0.93756104,-0.09375,1.015625,0.359375
16,16,1727373854535,0.13354492,0.093933105,-0.94000244,-0.859375,1.015625,0.265625
17,17,1727373854575,0.1340332,0.09588623,-0.940979,-0.515625,1.171875,0.390625
18,18,1727373854615,0.13232422,0.09979248,-0.9319458,-0.546875,0.65625,0.265625
19,19,1727373854655,0.13671875,0.1005249,-0.9434204,-0.21875,0.953125,0.375
20,20,1727373854695,0.1328125,0.09124756,-0.93829346,-0.21875,1.09375,0.28125
21,21,1727373854735,0.13769531,0.09881592,-0.93878174,-0.328125,0.71875,0.265625
22,22,1727373854775,0.1381836,0.101745605,-0.940979,-0.296875,0.96875,0.296875
23,23,1727373854815,0.1328125,0.101501465,-0.9365845,-0.265625,0.75,0.484375
24,24,1727373854855,0.13256836,0.09979248,-0.93707275,-0.234375,1.03125,0.1875
25,25,1727373854895,0.13354492,0.09979248,-0.93536377,-0.21875,0.78125,0.328125
26,26,1727373854935,0.13598633,0.093444824,-0.9360962,-0.34375,1.03125,0.375
27,27,1727373854975,0.13720703,0.10223389,-0.9380493,-0.3125,0.859375,0.359375
28,28,1727373855015,0.14038086,0.097351074,-0.9343872,-0.5,0.875,0.28125
29,29,1727373855055,0.13330078,0.094177246,-0.93414307,-0.5625,0.9375,0.15625
30,30,1727373855095,0.13354492,0.101257324,-0.9421997,-0.09375,1.015625,0.265625
31,31,1727373855135,0.13012695,0.09906006,-0.9338989,-0.65625,0.890625,0.171875
32,32,1727373855175,0.13989258,0.09979248,-0.94781494,-0.4375,1.109375,0.296875
33,33,1727373855215,0.1394043,0.09613037,-0.93634033,-0.625,0.71875,0.328125
34,34,1727373855255,0.13574219,0.101257324,-0.9373169,-0.234375,0.8125,0.25
35,35,1727373855295,0.1303711,0.10345459,-0.93878174,-0.25,1.03125,0.390625
36,36,1727373855335,0.13134766,0.09832764,-0.93927,-0.359375,0.90625,0.171875
37,37,1727373855375,0.13623047,0.09588623,-0.9414673,-0.328125,1.0,0.34375
38,38,1727373855415,0.1328125,0.10369873,-0.9439087,-0.34375,0.8125,0.203125
39,39,1727373855455,0.1315918,0.10028076,-0.9402466,-0.25,1.15625,0.28125
40,40,1727373855495,0.13867188,0.09637451,-0.94488525,-0.375,0.9375,0.265625
41,41,1727373855535,0.13647461,0.10418701,-0.940979,-0.296875,0.921875,0.28125
42,42,1727373855575,0.1303711,0.10003662,-0.9402466,-0.3125,0.984375,0.296875
43,43,1727373855615,0.13476562,0.10223389,-0.93756104,-0.375,0.78125,0.359375
44,44,1727373855655,0.13574219,0.10345459,-0.9385376,-0.34375,0.671875,0.34375
45,45,1727373855695,0.13208008,0.10223389,-0.94073486,-0.4375,1.03125,0.28125
46,46,1727373855735,0.13061523,0.10321045,-0.94000244,-0.453125,1.0,0.359375
47,47,1727373855775,0.1315918,0.101989746,-0.9319458,-0.046875,0.84375,0.3125
48,48,1727373855815,0.13330078,0.09954834,-0.93096924,-0.34375,0.953125,0.28125
49,49,1727373855855,0.1340332,0.10809326,-0.94195557,-0.484375,0.859375,0.21875
50,50,1727373855895,0.13378906,0.10443115,-0.9429321,-0.640625,0.5625,0.140625
51,51,1727373855935,0.13793945,0.10369873,-0.9417114,-0.25,0.921875,0.234375
52,52,1727373855975,0.1328125,0.10272217,-0.9385376,-0.15625,1.171875,0.234375
53,53,1727373856015,0.13085938,0.105163574,-0.94366455,-0.109375,1.015625,0.28125
54,54,1727373856055,0.1274414,0.10345459,-0.940979,-0.328125,1.109375,0.3125
55,55,1727373856095,0.13842773,0.1071167,-0.9397583,-0.265625,0.984375,0.15625
56,56,1727373856135,0.12451172,0.0993042,-0.93927,-0.140625,1.015625,0.109375
57,57,1727373856175,0.13598633,0.10247803,-0.93878174,-0.25,0.8125,0.265625
58,58,1727373856215,0.13549805,0.10491943,-0.94366455,-0.46875,0.828125,0.140625
59,59,1727373856255,0.1340332,0.10467529,-0.9397583,-0.546875,0.875,0.265625
60,60,1727373856295,0.13696289,0.1071167,-0.93536377,-0.421875,0.953125,0.265625
61,61,1727373856335,0.13427734,0.101257324,-0.94000244,-0.265625,0.953125,0.28125
62,62,1727373856375,0.1328125,0.10247803,-0.9390259,-0.40625,1.109375,0.234375
63,63,1727373856415,0.13134766,0.09906006,-0.94415283,-0.53125,1.1875,0.28125
64,64,1727373856455,0.13378906,0.10369873,-0.9385376,-0.203125,1.015625,0.28125
65,65,1727373856495,0.13208008,0.10076904,-0.9273071,0.203125,1.03125,0.328125
66,66,1727373856535,0.13256836,0.10418701,-0.9385376,-0.65625,1.0625,0.140625
67,67,1727373856575,0.13427734,0.10394287,-0.9451294,-0.578125,0.8125,-0.0625
68,68,1727373856615,0.13110352,0.09954834,-0.9480591,-0.296875,1.09375,0.3125
69,69,1727373856655,0.12719727,0.10296631,-0.9390259,-0.609375,0.671875,0.21875
70,70,1727373856695,0.1328125,0.10467529,-0.93951416,-0.421875,0.78125,0.265625
71,71,1727373856735,0.13378906,0.10321045,-0.93878174,-0.234375,0.828125,0.21875
72,72,1727373856775,0.13720703,0.09588623,-0.9380493,-0.625,0.734375,0.140625
73,73,1727373856815,0.12597656,0.09661865,-0.93878174,-0.421875,0.875,0.28125
74,74,1727373856855,0.13330078,0.09954834,-0.94366455,-0.484375,0.65625,0.140625
75,75,1727373856895,0.13330078,0.105163574,-0.9351196,-0.578125,0.609375,0.21875
76,76,1727373856935,0.12939453,0.09832764,-0.93951416,-0.609375,0.765625,0.234375
77,77,1727373856975,0.13354492,0.098083496,-0.9368286,-0.75,0.625,0.078125
78,78,1727373857015,0.1352539,0.09515381,-0.9439087,-0.5625,0.609375,0.1875
79,79,1727373857055,0.13867188,0.10003662,-0.9397583,-0.59375,0.640625,0.359375
80,80,1727373857095,0.1328125,0.10687256,-0.9397583,-0.8125,0.5,0.125
81,81,1727373857135,0.13623047,0.10614014,-0.95025635,-0.546875,0.6875,0.28125
82,82,1727373857175,0.12866211,0.093444824,-0.942688,-0.984375,0.4375,0.140625
83,83,1727373857215,0.13378906,0.098083496,-0.94000244,-0.75,0.390625,0.09375
84,84,1727373857255,0.1381836,0.097595215,-0.94415283,-0.609375,0.578125,0.3125
85,85,1727373857295,0.1303711,0.093688965,-0.94000244,-0.75,0.421875,0.125
86,86,1727373857335,0.13598633,0.10247803,-0.94488525,-0.75,0.421875,0.15625
87,87,1727373857375,0.13330078,0.101257324,-0.9421997,-0.4375,0.265625,0.203125
88,88,1727373857415,0.13305664,0.09881592,-0.94537354,-0.875,0.265625,0.21875
89,89,1727373857455,0.13989258,0.093933105,-0.940979,-0.65625,0.171875,0.203125
90,90,1727373857495,0.13745117,0.093444824,-0.93951416,-0.953125,0.1875,0.109375
91,91,1727373857535,0.13696289,0.093444824,-0.94000244,-0.75,0.4375,0.28125
92,92,1727373857575,0.13549805,0.097351074,-0.9360962,-0.96875,0.234375,0.046875
93,93,1727373857615,0.13842773,0.09075928,-0.93829346,-0.671875,0.390625,0.21875
94,94,1727373857655,0.14550781,0.09222412,-0.93878174,-0.515625,0.484375,0.21875
95,95,1727373857695,0.14428711,0.090270996,-0.9439087,-0.890625,0.265625,0.3125
96,96,1727373857735,0.14355469,0.094177246,-0.95025635,-0.5625,0.734375,0.296875
97,97,1727373857775,0.14208984,0.093444824,-0.94000244,-0.765625,0.59375,0.28125
98,98,1727373857815,0.14868164,0.08929443,-0.9402466,-0.546875,0.640625,0.171875
99,99,1727373857855,0.14233398,0.08660889,-0.93951416,-0.5625,0.625,0.3125
100,100,1727373857895,0.13989258,0.09100342,-0.9348755,-0.53125,0.75,0.140625
101,101,1727373857935,0.14282227,0.093688965,-0.94537354,-0.421875,0.796875,0.171875
102,102,1727373857975,0.14453125,0.09295654,-0.9404907,-0.5,0.703125,0.171875
103,103,1727373858015,0.140625,0.0927124,-0.9429321,-0.59375,0.75,0.234375
104,104,1727373858055,0.14526367,0.09613037,-0.9397583,-0.25,0.765625,0.328125
105,105,1727373858095,0.14916992,0.093933105,-0.9402466,-0.390625,0.5,0.1875
106,106,1727373858135,0.14648438,0.08831787,-0.93927,-0.5,0.671875,0.140625
107,107,1727373858175,0.14233398,0.093688965,-0.9402466,-0.5625,0.84375,0.34375
108,108,1727373858215,0.1418457,0.09442139,-0.94122314,-0.421875,0.8125,0.203125
109,109,1727373858255,0.14111328,0.08709717,-0.9326782,-0.1875,1.046875,0.328125
110,110,1727373858295,0.14697266,0.093688965,-0.94488525,-0.734375,0.890625,0.234375
111,111,1727373858335,0.13989258,0.09173584,-0.9507446,-0.75,1.140625,0.265625
112,112,1727373858375,0.14160156,0.08734131,-0.9434204,-0.75,0.875,0.265625
113,113,1727373858415,0.14282227,0.08856201,-0.93829346,-0.28125,1.015625,0.28125
114,114,1727373858455,0.14331055,0.090026855,-0.940979,-0.34375,1.015625,0.296875
115,115,1727373858495,0.14404297,0.08782959,-0.9336548,-0.359375,1.0,0.21875
116,116,1727373858535,0.14477539,0.0927124,-0.93829346,-0.296875,1.03125,0.203125
117,117,1727373858575,0.13793945,0.09124756,-0.9348755,-0.375,1.078125,0.390625
118,118,1727373858615,0.14550781,0.09613037,-0.93878174,-0.265625,1.125,0.5
119,119,1727373858655,0.14111328,0.093933105,-0.9380493,-0.25,0.96875,0.21875
120,120,1727373858695,0.14160156,0.093688965,-0.93463135,-0.171875,0.84375,0.21875
121,121,1727373858735,0.14355469,0.09197998,-0.9360962,-0.140625,0.90625,0.28125
122,122,1727373858775,0.1394043,0.093933105,-0.9373169,-0.34375,1.046875,0.15625
123,123,1727373858815,0.13696289,0.0914917,-0.9390259,-0.3125,0.875,0.328125
124,124,1727373858855,0.14086914,0.10028076,-0.940979,-0.28125,1.125,0.265625
125,125,1727373858895,0.13623047,0.09564209,-0.9378052,-0.328125,0.984375,0.375
126,126,1727373858935,0.13745117,0.097351074,-0.93756104,-0.3125,0.90625,0.171875
127,127,1727373858975,0.13427734,0.098083496,-0.94854736,-0.1875,1.125,0.234375
128,128,1727373859015,0.14086914,0.093444824,-0.93878174,-0.65625,1.140625,0.25
129,129,1727373859055,0.13793945,0.09320068,-0.9451294,-0.421875,1.015625,0.15625
130,130,1727373859095,0.13598633,0.09613037,-0.94244385,-0.203125,1.21875,0.4375
131,131,1727373859135,0.13916016,0.09881592,-0.93634033,-0.21875,0.96875,0.28125
132,132,1727373859175,0.13330078,0.09906006,-0.9397583,-0.21875,0.984375,0.375
133,133,1727373859215,0.1315918,0.101745605,-0.94317627,-0.375,0.890625,0.390625
134,134,1727373859255,0.14404297,0.09881592,-0.93878174,-0.328125,1.03125,0.34375
135,135,1727373859295,0.13793945,0.097595215,-0.94073486,-0.359375,1.171875,0.34375
136,136,1727373859335,0.13452148,0.0993042,-0.93951416,-0.125,0.9375,0.28125
137,137,1727373859375,0.1381836,0.09442139,-0.9429321,-0.25,1.046875,0.40625
138,138,1727373859415,0.13842773,0.105407715,-0.94000244,-0.296875,0.921875,0.265625
139,139,1727373859455,0.13476562,0.101989746,-0.9378052,-0.3125,0.921875,0.21875
140,140,1727373859495,0.13305664,0.10247803,-0.9360962,-0.296875,0.9375,0.53125
141,141,1727373859535,0.13647461,0.1071167,-0.94073486,-0.5,1.015625,0.171875
142,142,1727373859575,0.13623047,0.09295654,-0.9368286,-0.296875,0.8125,0.34375
143,143,1727373859615,0.13110352,0.09466553,-0.93829346,-0.359375,1.15625,0.328125
144,144,1727373859655,0.13208008,0.09539795,-0.93951416,-0.359375,1.109375,0.15625
145,145,1727373859695,0.13208008,0.10247803,-0.93829346,-0.4375,0.953125,0.25
146,146,1727373859735,0.13110352,0.09906006,-0.93634033,-0.203125,0.96875,0.265625
147,147,1727373859775,0.13696289,0.09857178,-0.93756104,-0.328125,0.984375,0.234375
148,148,1727373859815,0.12988281,0.09686279,-0.9378052,-0.359375,0.953125,0.375
149,149,1727373859855,0.13354492,0.10467529,-0.9380493,-0.34375,0.828125,0.28125
150,150,1727373859895,0.12670898,0.10321045,-0.9463501,-0.203125,1.046875,0.234375
151,151,1727373859935,0.1352539,0.10028076,-0.93536377,-0.59375,1.109375,0.3125
152,152,1727373859975,0.13427734,0.10467529,-0.94073486,-0.421875,1.21875,0.265625
153,153,1727373860015,0.1340332,0.09906006,-0.94366455,-0.1875,1.078125,0.4375
154,154,1727373860055,0.13671875,0.10345459,-0.93634033,-0.40625,0.953125,0.1875
155,155,1727373860095,0.12890625,0.10369873,-0.93951416,-0.296875,0.9375,0.421875
156,156,1727373860135,0.12670898,0.09539795,-0.94488525,-0.4375,0.9375,0.390625
157,157,1727373860175,0.13330078,0.09979248,-0.9404907,-0.375,0.9375,0.203125
158,158,1727373860215,0.13012695,0.101501465,-0.93707275,-0.4375,0.890625,0.1875
159,159,1727373860255,0.13061523,0.09857178,-0.9434204,-0.359375,0.859375,0.28125
160,160,1727373860295,0.13354492,0.10223389,-0.9360962,-0.359375,0.859375,0.21875
161,161,1727373860335,0.13305664,0.098083496,-0.93585205,-0.265625,0.765625,0.28125
162,162,1727373860375,0.12939453,0.09686279,-0.9402466,-0.59375,0.921875,0.328125
163,163,1727373860415,0.12768555,0.10394287,-0.93927,-0.578125,0.90625,0.390625
164,164,1727373860455,0.13208008,0.09857178,-0.93707275,-0.34375,1.015625,0.375
165,165,1727373860495,0.12597656,0.094177246,-0.94244385,-0.4375,0.828125,0.25
166,166,1727373860535,0.13330078,0.09832764,-0.9414673,-0.34375,0.96875,0.171875
167,167,1727373860575,0.13305664,0.10345459,-0.94488525,-0.21875,0.9375,0.390625
168,168,1727373860615,0.13354492,0.09661865,-0.9365845,-0.171875,0.953125,0.1875
169,169,1727373860655,0.13183594,0.09979248,-0.9421997,-0.65625,0.859375,0.265625
170,170,1727373860695,0.1303711,0.09832764,-0.94244385,-0.5,1.1875,0.203125
171,171,1727373860735,0.1303711,0.10321045,-0.93634033,-0.484375,0.9375,0.3125
172,172,1727373860775,0.1262207,0.09564209,-0.94195557,-0.3125,1.0,0.234375
173,173,1727373860815,0.12963867,0.10369873,-0.94415283,-0.21875,1.03125,0.34375
174,174,1727373860855,0.1262207,0.10345459,-0.93756104,-0.390625,0.625,0.3125
175,175,1727373860895,0.13623047,0.09881592,-0.9434204,-0.46875,0.796875,0.375
176,176,1727373860935,0.1315918,0.10369873,-0.9456177,-0.28125,0.96875,0.234375
177,177,1727373860975,0.12890625,0.10101318,-0.93829346,-0.296875,1.0625,0.21875
178,178,1727373861015,0.12939453,0.10247803,-0.93829346,-0.21875,0.921875,0.328125
179,179,1727373861055,0.12646484,0.09906006,-0.94073486,-0.375,0.8125,0.140625
180,180,1727373861095,0.13256836,0.105407715,-0.94317627,-0.203125,1.015625,0.265625
181,181,1727373861135,0.12646484,0.10443115,-0.9378052,-0.390625,0.890625,0.09375
182,182,1727373861175,0.13110352,0.10882568,-0.9414673,-0.21875,0.96875,0.328125
183,183,1727373861215,0.13427734,0.09515381,-0.9421997,-0.375,0.9375,0.25
184,184,1727373861255,0.12792969,0.097839355,-0.9390259,-0.3125,0.921875,0.234375
185,185,1727373861295,0.12866211,0.10687256,-0.94854736,-0.421875,0.984375,0.21875
186,186,1727373861335,0.12866211,0.09832764,-0.9434204,-0.234375,0.640625,0.203125
187,187,1727373861375,0.13110352,0.10858154,-0.93756104,-0.5,0.71875,0.359375
188,188,1727373861415,0.12792969,0.10223389,-0.9421997,-0.359375,1.21875,0.296875
189,189,1727373861455,0.1237793,0.105163574,-0.94073486,-0.65625,0.828125,0.34375
190,190,1727373861495,0.13134766,0.10101318,-0.93829346,-0.234375,1.1875,0.25
191,191,1727373861535,0.12670898,0.0993042,-0.94732666,-0.296875,0.953125,0.328125
192,192,1727373861575,0.12402344,0.10467529,-0.9397583,-0.4375,0.734375,0.28125
193,193,1727373861615,0.1303711,0.10272217,-0.93634033,-0.4375,0.765625,0.296875
194,194,1727373861655,0.1274414,0.10394287,-0.9480591,-0.3125,0.59375,0.109375
195,195,1727373861695,0.12963867,0.105895996,-0.9475708,-0.40625,0.8125,0.40625
196,196,1727373861735,0.12573242,0.097351074,-0.94537354,-0.265625,0.90625,0.125
197,197,1727373861775,0.12402344,0.10418701,-0.93756104,-0.453125,0.78125,0.203125
198,198,1727373861815,0.13452148,0.10296631,-0.94366455,-0.265625,0.953125,0.140625
199,199,1727373861855,0.122802734,0.1005249,-0.94659424,-0.375,0.9375,0.234375
200,200,1727373861895,0.13183594,0.10394287,-0.9480591,-0.59375,0.90625,0.28125
201,201,1727373861935,0.13549805,0.10247803,-0.9360962,-0.25,0.9375,0.359375
202,202,1727373861975,0.12915039,0.10369873,-0.93536377,-0.3125,0.90625,0.125
203,203,1727373862015,0.13256836,0.10296631,-0.94903564,-0.640625,0.90625,0.21875
204,204,1727373862055,0.13110352,0.10101318,-0.95513916,-0.84375,0.90625,0.15625
205,205,1727373862095,0.12548828,0.10467529,-0.93536377,-0.765625,0.90625,0.265625
206,206,1727373862135,0.12573242,0.10369873,-0.9385376,-0.375,0.859375,0.140625
207,207,1727373862175,0.12597656,0.1071167,-0.9417114,-0.5,0.984375,0.25
208,208,1727373862215,0.12451172,0.10296631,-0.9421997,-0.546875,0.8125,0.21875
209,209,1727373862255,0.12475586,0.10076904,-0.93878174,-0.734375,0.828125,0.28125
210,210,1727373862295,0.12963867,0.105651855,-0.9458618,-0.53125,0.859375,0.28125
211,211,1727373862335,0.13061523,0.105895996,-0.942688,-0.609375,0.78125,0.21875
212,212,1727373862375,0.12573242,0.10345459,-0.9404907,-0.3125,0.640625,0.15625
213,213,1727373862415,0.12402344,0.098083496,-0.93927,-0.46875,0.5,0.21875
214,214,1727373862455,0.13061523,0.10760498,-0.9368286,-0.6875,0.65625,0.28125
215,215,1727373862495,0.12060547,0.10467529,-0.93707275,-0.65625,0.578125,0.09375
216,216,1727373862535,0.13061523,0.09906006,-0.93829346,-0.796875,0.609375,0.265625
217,217,1727373862575,0.13012695,0.09906006,-0.9402466,-0.40625,0.40625,0.234375
218,218,1727373862615,0.12792969,0.101501465,-0.92388916,-0.171875,0.765625,0.171875
219,219,1727373862655,0.123535156,0.09710693,-0.9380493,-0.765625,0.5625,0.1875
220,220,1727373862695,0.12670898,0.10443115,-0.9385376,-0.609375,0.359375,0.109375
221,221,1727373862735,0.12597656,0.09857178,-0.94659424,-0.5,0.625,0.15625
222,222,1727373862775,0.13623047,0.0993042,-0.940979,-0.546875,0.703125,0.203125
223,223,1727373862815,0.13183594,0.09613037,-0.94317627,-0.96875,0.390625,0.15625
224,224,1727373862855,0.13208008,0.09588623,-0.925354,-0.171875,0.328125,0.203125
225,225,1727373862895,0.13232422,0.09832764,-0.94073486,-0.578125,0.53125,0.140625
226,226,1727373862935,0.13110352,0.09710693,-0.9380493,-0.546875,0.5,0.125
227,227,1727373862975,0.13208008,0.09906006,-0.9446411,-0.546875,0.390625,0.125
228,228,1727373863015,0.13183594,0.097351074,-0.9414673,-0.609375,0.359375,0.234375
229,229,1727373863055,0.13208008,0.09246826,-0.9336548,-0.578125,0.484375,0.203125
230,230,1727373863095,0.13256836,0.09637451,-0.94122314,-0.53125,0.625,0.09375
231,231,1727373863135,0.1328125,0.089538574,-0.9475708,-0.359375,0.515625,0.15625
232,232,1727373863175,0.13305664,0.09710693,-0.93878174,0.0625,1.109375,0.140625
233,233,1727373863215,0.13378906,0.09515381,-0.9378052,-0.609375,0.734375,0.1875
234,234,1727373863255,0.13671875,0.10003662,-0.9429321,-0.671875,0.640625,0.234375
235,235,1727373863295,0.13623047,0.105163574,-0.940979,-0.34375,0.90625,0.25
236,236,1727373863335,0.1328125,0.093444824,-0.9373169,-0.34375,0.8125,0.328125
237,237,1727373863375,0.13964844,0.09881592,-0.942688,-0.5,0.84375,0.3125
238,238,1727373863415,0.13549805,0.093933105,-0.9378052,-0.328125,0.875,0.15625
239,239,1727373863455,0.13647461,0.09613037,-0.93951416,-0.40625,1.03125,0.296875
240,240,1727373863495,0.13891602,0.09466553,-0.9373169,-0.28125,0.859375,0.203125
241,241,1727373863535,0.13208008,0.09295654,-0.940979,-0.109375,0.765625,0.34375
242,242,1727373863575,0.13720703,0.10028076,-0.9390259,-0.21875,0.890625,0.28125
243,243,1727373863615,0.13354492,0.09100342,-0.9404907,-0.375,0.953125,0.234375
244,244,1727373863655,0.13208008,0.098083496,-0.9434204,-0.1875,1.015625,0.1875
245,245,1727373863695,0.13769531,0.1005249,-0.9495239,-1.1875,0.890625,0.21875
246,246,1727373863735,0.12768555,0.09442139,-0.9417114,-0.5,0.984375,0.265625
247,247,1727373863775,0.12768555,0.0993042,-0.93585205,-0.609375,0.890625,0.140625
248,248,1727373863815,0.13598633,0.097351074,-0.942688,-0.078125,0.921875,0.234375
249,249,1727373863855,0.1328125,0.10028076,-0.9397583,-0.328125,0.96875,0.34375
250,250,1727373863895,0.13916016,0.09539795,-0.9368286,-0.328125,0.703125,0.3125
251,251,1727373863935,0.13256836,0.09979248,-0.9417114,-0.375,0.984375,0.296875
252,252,1727373863975,0.13916016,0.09320068,-0.93634033,-0.109375,0.96875,0.203125
253,253,1727373864015,0.13427734,0.10076904,-0.94000244,-0.296875,0.921875,0.296875
254,254,1727373864055,0.13354492,0.093688965,-0.9378052,-0.25,1.046875,0.234375
255,255,1727373864095,0.13256836,0.09637451,-0.9417114,-0.3125,0.90625,0.3125
256,256,1727373864135,0.13232422,0.09295654,-0.93707275,-0.25,0.9375,0.265625
257,257,1727373864175,0.12963867,0.09954834,-0.93829346,-0.359375,1.109375,0.21875
258,258,1727373864215,0.13598633,0.09588623,-0.9368286,-0.390625,1.015625,0.375
259,259,1727373864255,0.13378906,0.10223389,-0.93951416,-0.34375,0.875,0.28125
260,260,1727373864295,0.12988281,0.101989746,-0.9517212,-0.34375,1.125,0.28125
261,261,1727373864335,0.13354492,0.10394287,-0.94122314,-0.59375,0.9375,0.296875
262,262,1727373864375,0.1352539,0.10076904,-0.9380493,-0.3125,1.046875,0.15625
263,263,1727373864415,0.12792969,0.097839355,-0.94195557,-0.359375,1.203125,0.328125
264,264,1727373864455,0.12939453,0.10101318,-0.9417114,-0.3125,0.890625,0.359375
265,265,1727373864495,0.13305664,0.09954834,-0.93292236,-0.328125,1.046875,0.40625
266,266,1727373864535,0.13574219,0.09661865,-0.93829346,-0.359375,1.109375,0.3125
267,267,1727373864575,0.13452148,0.10345459,-0.9385376,-0.46875,0.96875,0.28125
268,268,1727373864615,0.1352539,0.0993042,-0.93951416,-0.265625,1.0625,0.203125
269,269,1727373864655,0.12670898,0.1005249,-0.9417114,-0.15625,0.8125,0.28125
270,270,1727373864695,0.13012695,0.09906006,-0.9451294,-0.28125,0.921875,0.265625
271,271,1727373864735,0.12792969,0.101501465,-0.9421997,-0.546875,1.046875,0.28125
272,272,1727373864775,0.13378906,0.10467529,-0.93536377,-0.46875,1.0625,0.28125
273,273,1727373864815,0.1262207,0.10345459,-0.93756104,-0.421875,1.09375,0.265625
274,274,1727373864855,0.13647461,0.0993042,-0.9373169,-0.34375,0.984375,0.25
275,275,1727373864895,0.1274414,0.09661865,-0.9404907,-0.3125,0.96875,0.125
276,276,1727373864935,0.12524414,0.101745605,-0.9414673,-0.375,1.03125,0.28125
277,277,1727373864975,0.13110352,0.10296631,-0.9360962,-0.296875,0.875,0.4375
278,278,1727373865015,0.12841797,0.10272217,-0.9397583,-0.25,0.890625,0.25
279,279,1727373865055,0.1315918,0.09954834,-0.93927,-0.484375,1.046875,0.40625
280,280,1727373865095,0.1237793,0.10321045,-0.9368286,-0.1875,0.90625,0.40625
281,281,1727373865135,0.12646484,0.109069824,-0.94122314,-0.359375,1.03125,0.21875
282,282,1727373865175,0.12988281,0.10272217,-0.9380493,-0.453125,1.0625,0.46875
283,283,1727373865215,0.12524414,0.109558105,-0.9373169,-0.359375,0.890625,0.234375
284,284,1727373865255,0.12792969,0.10467529,-0.9338989,-0.28125,0.859375,0.25
285,285,1727373865295,0.12939453,0.105895996,-0.9456177,-0.34375,0.890625,0.28125
286,286,1727373865335,0.12646484,0.101989746,-0.9404907,0.0625,0.6875,0.21875
287,287,1727373865375,0.125,0.097595215,-0.9463501,-0.78125,1.09375,0.453125
288,288,1727373865415,0.13012695,0.10272217,-0.94000244,-0.4375,1.109375,0.359375
289,289,1727373865455,0.12866211,0.10736084,-0.93927,-0.328125,1.203125,0.203125
290,290,1727373865495,0.13647461,0.09954834,-0.93829346,-0.390625,0.734375,0.28125
291,291,1727373865535,0.12719727,0.0993042,-0.94000244,-0.390625,1.015625,0.359375
292,292,1727373865575,0.12670898,0.10491943,-0.9378052,-0.46875,0.859375,0.3125
293,293,1727373865615,0.13476562,0.10882568,-0.93707275,-0.34375,0.9375,0.34375
294,294,1727373865655,0.1303711,0.10687256,-0.9434204,-0.46875,0.9375,0.203125
295,295,1727373865695,0.12695312,0.10467529,-0.9365845,-0.171875,0.890625,0.25
296,296,1727373865735,0.12060547,0.105407715,-0.9360962,-0.34375,0.78125,0.234375
297,297,1727373865775,0.12402344,0.09881592,-0.9429321,-0.5,0.796875,0.28125
298,298,1727373865815,0.12402344,0.09539795,-0.9404907,-0.96875,0.453125,0.3125
299,299,1727373865855,0.12646484,0.09881592,-0.9365845,-1.15625,0.265625,0.171875
300,300,1727373865895,0.1262207,0.10076904,-0.9439087,-0.921875,0.578125,0.21875
301,301,1727373865935,0.13012695,0.09832764,-0.944397,-0.640625,0.71875,0.234375
302,302,1727373865975,0.13012695,0.09954834,-0.942688,-0.46875,0.8125,0.234375
303,303,1727373866015,0.12597656,0.09564209,-0.9421997,-0.625,0.765625,0.375
304,304,1727373866055,0.12915039,0.10076904,-0.94122314,-0.5,0.703125,0.25
305,305,1727373866095,0.12963867,0.09466553,-0.9397583,-0.5,0.8125,0.203125
306,306,1727373866135,0.1303711,0.09832764,-0.9368286,-0.34375,0.75,0.1875
307,307,1727373866175,0.12426758,0.1005249,-0.9439087,-0.3125,1.0,0.359375
308,308,1727373866215,0.12841797,0.10223389,-0.9351196,-0.03125,0.75,0.296875
309,309,1727373866255,0.12402344,0.09588623,-0.94610596,-0.734375,0.921875,0.265625
310,310,1727373866295,0.13256836,0.101257324,-0.94659424,-0.5625,0.984375,0.234375
311,311,1727373866335,0.12670898,0.09832764,-0.9385376,-0.59375,0.765625,0.28125
312,312,1727373866375,0.12524414,0.1005249,-0.93927,-0.21875,1.109375,0.296875
313,313,1727373866415,0.12695312,0.09539795,-0.9343872,-0.25,1.171875,0.125
314,314,1727373866455,0.12768555,0.09490967,-0.9385376,-0.15625,1.0625,0.40625
315,315,1727373866495,0.12890625,0.09539795,-0.94195557,-0.046875,1.109375,0.34375
316,316,1727373866535,0.12768555,0.101501465,-0.9429321,-0.15625,0.84375,0.265625
317,317,1727373866575,0.1303711,0.097839355,-0.9348755,-0.25,0.9375,0.375
318,318,1727373866615,0.12963867,0.098083496,-0.9343872,-0.140625,0.9375,0.3125
319,319,1727373866655,0.12695312,0.09295654,-0.9421997,-0.25,0.953125,0.171875
320,320,1727373866695,0.122802734,0.09661865,-0.9373169,-0.375,0.796875,0.3125
321,321,1727373866735,0.12475586,0.105163574,-0.9417114,-0.25,0.984375,0.25
322,322,1727373866775,0.12402344,0.09979248,-0.94122314,-0.46875,0.921875,0.3125
323,323,1727373866815,0.13085938,0.10467529,-0.94073486,-0.375,1.078125,0.109375
324,324,1727373866855,0.12597656,0.09661865,-0.93927,-0.296875,0.890625,0.203125
325,325,1727373866895,0.12719727,0.105407715,-0.94244385,-0.390625,1.0625,0.21875
326,326,1727373866935,0.12231445,0.09954834,-0.9456177,-0.59375,0.75,0.265625
327,327,1727373866975,0.12573242,0.10443115,-0.93463135,-0.40625,1.03125,0.21875
328,328,1727373867015,0.13183594,0.10272217,-0.9373169,-0.53125,0.890625,0.28125
329,329,1727373867055,0.12133789,0.10272217,-0.94000244,-0.359375,0.734375,0.28125
330,330,1727373867095,0.12841797,0.09710693,-0.93756104,-0.375,0.75,0.296875
331,331,1727373867135,0.13232422,0.10101318,-0.9343872,-0.53125,0.859375,0.21875
332,332,1727373867175,0.12695312,0.101745605,-0.93536377,-0.609375,0.734375,0.140625
333,333,1727373867215,0.1303711,0.09564209,-0.9434204,-0.328125,0.9375,0.234375
334,334,1727373867255,0.12158203,0.09881592,-0.9390259,-0.46875,0.828125,0.328125
335,335,1727373867295,0.1315918,0.10491943,-0.9429321,-0.515625,0.796875,0.171875
336,336,1727373867335,0.123046875,0.105651855,-0.9402466,-0.546875,0.625,0.3125
337,337,1727373867375,0.12963867,0.10858154,-0.94366455,-0.46875,0.6875,0.21875
338,338,1727373867415,0.1315918,0.10028076,-0.94000244,-0.578125,0.703125,0.140625
339,339,1727373867455,0.13378906,0.0993042,-0.9468384,-0.421875,0.5625,0.15625
340,340,1727373867495,0.12890625,0.105163574,-0.942688,-0.578125,0.46875,0.296875
341,341,1727373867535,0.12988281,0.09832764,-0.9351196,-0.625,0.53125,0.140625
342,342,1727373867575,0.12573242,0.10028076,-0.94317627,-0.75,0.421875,0.171875
343,343,1727373867615,0.1274414,0.10101318,-0.94415283,-0.84375,0.515625,0.03125
344,344,1727373867655,0.12939453,0.101257324,-0.9343872,-0.765625,0.453125,0.109375
345,345,1727373867695,0.12841797,0.10003662,-0.93634033,-0.515625,0.515625,0.125
346,346,1727373867735,0.12597656,0.105651855,-0.93414307,-0.765625,0.375,0.15625
347,347,1727373867775,0.12915039,0.10272217,-0.9483032,-0.65625,0.59375,0.1875
348,348,1727373867815,0.12792969,0.097839355,-0.9397583,-0.859375,0.5625,0.140625
349,349,1727373867855,0.13110352,0.101257324,-0.9421997,-0.765625,0.453125,0.140625
350,350,1727373867895,0.13500977,0.10614014,-0.9402466,-0.6875,0.359375,0.078125
351,351,1727373867935,0.13256836,0.09490967,-0.9429321,-0.625,0.46875,0.1875
352,352,1727373867975,0.13134766,0.09637451,-0.94415283,-0.5625,0.515625,0.1875
353,353,1727373868015,0.13671875,0.08831787,-0.9446411,-0.25,0.578125,0.140625
354,354,1727373868055,0.13378906,0.09539795,-0.93585205,-0.75,0.5625,0.21875
355,355,1727373868095,0.13549805,0.09637451,-0.93878174,-0.515625,0.359375,0.40625
356,356,1727373868135,0.13964844,0.09588623,-0.9480591,-0.78125,0.5,0.21875
357,357,1727373868175,0.13574219,0.09637451,-0.94195557,-0.578125,0.53125,0.234375
358,358,1727373868215,0.13354492,0.09320068,-0.9348755,-0.484375,0.609375,0.15625
359,359,1727373868255,0.13647461,0.094177246,-0.9378052,-0.390625,0.765625,0.296875
360,360,1727373868295,0.13549805,0.09564209,-0.93414307,-0.25,0.96875,0.390625
361,361,1727373868335,0.13720703,0.09564209,-0.94659424,-0.75,0.8125,0.125
362,362,1727373868375,0.13671875,0.10101318,-0.9529419,-0.625,1.0,0.296875
363,363,1727373868415,0.13720703,0.10003662,-0.94195557,-0.609375,0.9375,0.4375
364,364,1727373868455,0.1340332,0.09661865,-0.93927,-0.578125,0.75,0.234375
365,365,1727373868495,0.13574219,0.09197998,-0.9404907,-0.265625,0.796875,0.25
366,366,1727373868535,0.12988281,0.097839355,-0.93951416,-0.34375,0.71875,0.15625
367,367,1727373868575,0.13330078,0.09588623,-0.94195557,-0.390625,1.015625,0.296875
368,368,1727373868615,0.13378906,0.09906006,-0.93585205,-0.453125,0.796875,0.25
369,369,1727373868655,0.13623047,0.09222412,-0.94000244,-0.421875,0.953125,0.28125
370,370,1727373868695,0.13110352,0.097595215,-0.93634033,-0.421875,0.9375,0.171875
371,371,1727373868735,0.13085938,0.09906006,-0.94000244,-0.3125,0.90625,0.375
372,372,1727373868775,0.13549805,0.09881592,-0.9380493,-0.28125,0.984375,0.3125
373,373,1727373868815,0.1315918,0.0993042,-0.94659424,-0.40625,0.796875,0.25
374,374,1727373868855,0.1340332,0.09539795,-0.94317627,-0.4375,1.0625,0.171875
375,375,1727373868895,0.13134766,0.10028076,-0.9404907,-0.15625,0.9375,0.25
376,376,1727373868935,0.13549805,0.0993042,-0.942688,-0.578125,0.90625,0.21875
377,377,1727373868975,0.13696289,0.09490967,-0.9336548,-0.046875,1.03125,0.265625
378,378,1727373869015,0.13354492,0.101257324,-0.9380493,-0.34375,0.875,0.203125
379,379,1727373869055,0.13623047,0.09710693,-0.93829346,-0.125,0.96875,0.21875
380,380,1727373869095,0.12817383,0.10345459,-0.93536377,-0.5,1.125,0.34375
381,381,1727373869135,0.1352539,0.09246826,-0.9446411,-0.296875,0.96875,0.28125
382,382,1727373869175,0.1381836,0.09686279,-0.9368286,-0.5,0.625,0.3125
383,383,1727373869215,0.13208008,0.10223389,-0.93829346,-0.5,1.0625,0.234375
384,384,1727373869255,0.13500977,0.09906006,-0.9365845,-0.359375,0.953125,0.34375
385,385,1727373869295,0.13232422,0.09173584,-0.9421997,-0.28125,0.828125,0.296875
386,386,1727373869335,0.12646484,0.09637451,-0.93634033,-0.328125,0.921875,0.171875
387,387,1727373869375,0.1262207,0.10296631,-0.9373169,-0.359375,0.90625,0.265625
388,388,1727373869415,0.13330078,0.10101318,-0.9421997,-0.359375,0.953125,0.203125
389,389,1727373869455,0.13110352,0.101501465,-0.93878174,-0.453125,1.0,0.171875
390,390,1727373869495,0.13427734,0.10003662,-0.94317627,-0.328125,1.03125,0.25
391,391,1727373869535,0.1352539,0.09246826,-0.94781494,-0.421875,0.75,0.265625
392,392,1727373869575,0.13842773,0.10491943,-0.94732666,-0.15625,0.96875,0.296875
393,393,1727373869615,0.13061523,0.10321045,-0.94073486,-0.53125,1.078125,0.390625
394,394,1727373869655,0.13476562,0.09710693,-0.94000244,-0.4375,1.0,0.3125
395,395,1727373869695,0.13256836,0.10003662,-0.94659424,-0.296875,1.0625,0.28125
396,396,1727373869735,0.12768555,0.09710693,-0.9356079,-0.53125,0.96875,0.265625
397,397,1727373869775,0.12817383,0.09881592,-0.9402466,-0.34375,1.03125,0.25
398,398,1727373869815,0.12573242,0.09515381,-0.9421997,-0.3125,0.921875,0.359375
399,399,1727373869855,0.13012695,0.09979248,-0.93829346,-0.234375,0.984375,0.390625
400,400,1727373869895,0.12402344,0.10003662,-0.9402466,-0.296875,0.921875,0.265625
401,401,1727373869935,0.12963867,0.09857178,-0.94000244,-0.125,1.046875,0.25
402,402,1727373869975,0.12817383,0.101257324,-0.9351196,-0.390625,0.8125,0.21875
403,403,1727373870015,0.13085938,0.10394287,-0.93585205,-0.5625,0.921875,0.25
404,404,1727373870055,0.1315918,0.101989746,-0.93756104,-0.421875,1.046875,0.28125
405,405,1727373870095,0.1303711,0.09539795,-0.9421997,-0.34375,0.96875,0.21875
406,406,1727373870135,0.12597656,0.09857178,-0.93829346,-0.328125,0.953125,0.296875
407,407,1727373870175,0.12670898,0.10345459,-0.9456177,-0.375,0.90625,0.296875
408,408,1727373870215,0.1340332,0.09637451,-0.94195557,-0.359375,0.96875,0.234375
409,409,1727373870255,0.12915039,0.101257324,-0.942688,-0.375,0.96875,0.34375
410,410,1727373870295,0.13232422,0.10394287,-0.95098877,-0.328125,1.03125,0.25
411,411,1727373870335,0.12573242,0.097595215,-0.93170166,0.453125,0.84375,0.265625
412,412,1727373870375,0.125,0.09979248,-0.93927,-0.5625,1.1875,0.328125
413,413,1727373870415,0.12939453,0.101989746,-0.942688,-0.5,1.078125,0.28125
414,414,1727373870455,0.12597656,0.10809326,-0.9439087,-0.21875,1.171875,0.359375
415,415,1727373870495,0.13110352,0.10247803,-0.9414673,-0.15625,0.984375,0.234375
416,416,1727373870535,0.125,0.10003662,-0.9463501,-0.4375,0.96875,0.265625
417,417,1727373870575,0.12207031,0.10418701,-0.93463135,-0.375,1.0,0.140625
418,418,1727373870615,0.122802734,0.09906006,-0.93951416,-0.25,0.828125,0.15625
419,419,1727373870655,0.12646484,0.101257324,-0.94000244,-0.421875,0.9375,0.3125
420,420,1727373870695,0.12597656,0.0993042,-0.9404907,-0.25,1.046875,0.28125
421,421,1727373870735,0.12670898,0.09613037,-0.9456177,-0.5,0.734375,0.203125
422,422,1727373870775,0.125,0.09857178,-0.9360962,-0.203125,0.921875,0.1875
423,423,1727373870815,0.123046875,0.09710693,-0.9421997,-0.53125,1.0,0.4375
424,424,1727373870855,0.12573242,0.10247803,-0.9373169,-0.390625,1.171875,0.203125
425,425,1727373870895,0.1237793,0.10321045,-0.9380493,-0.3125,0.96875,0.203125
426,426,1727373870935,0.12158203,0.10687256,-0.944397,-0.4375,0.953125,0.3125
427,427,1727373870975,0.125,0.101745605,-0.9404907,-0.4375,0.828125,0.203125
428,428,1727373871015,0.1262207,0.101501465,-0.9390259,-0.328125,0.859375,0.375
429,429,1727373871055,0.125,0.10321045,-0.9356079,-0.15625,0.796875,0.296875
430,430,1727373871095,0.12915039,0.10418701,-0.9351196,-0.59375,0.609375,0.265625
431,431,1727373871135,0.12133789,0.10369873,-0.9417114,-0.578125,0.65625,0.28125
432,432,1727373871175,0.12524414,0.10614014,-0.9378052,-0.640625,0.265625,0.3125
433,433,1727373871215,0.12719727,0.10467529,-0.9385376,-0.375,0.890625,0.390625
434,434,1727373871255,0.12597656,0.10662842,-0.93341064,-0.265625,1.09375,0.28125
435,435,1727373871295,0.12475586,0.10076904,-0.9380493,-0.28125,1.09375,0.234375
436,436,1727373871335,0.12792969,0.10858154,-0.9336548,-0.359375,1.21875,0.296875
437,437,1727373871375,0.1237793,0.101989746,-0.9390259,-0.40625,0.890625,0.125
438,438,1727373871415,0.12475586,0.10321045,-0.942688,-0.390625,0.890625,0.390625
439,439,1727373871455,0.12573242,0.097839355,-0.93927,-0.421875,0.796875,0.328125
440,440,1727373871495,0.12451172,0.10369873,-0.9402466,-0.28125,0.84375,0.265625
441,441,1727373871535,0.12231445,0.10394287,-0.93536377,-0.34375,0.765625,0.3125
442,442,1727373871575,0.123291016,0.101501465,-0.9380493,-0.390625,0.859375,0.03125
443,443,1727373871615,0.12158203,0.10321045,-0.94000244,-0.578125,0.5625,0.21875
444,444,1727373871655,0.12158203,0.097839355,-0.9378052,-0.5,0.859375,0.25
445,445,1727373871695,0.12890625,0.09881592,-0.93634033,-0.578125,0.765625,0.1875
446,446,1727373871735,0.12866211,0.1083374,-0.9390259,-0.328125,0.703125,0.265625
447,447,1727373871775,0.12182617,0.10614014,-0.9439087,-0.203125,1.015625,0.109375
448,448,1727373871815,0.12451172,0.09515381,-0.92803955,0.015625,0.84375,0.234375
449,449,1727373871855,0.12524414,0.09954834,-0.9343872,-0.5625,0.984375,0.21875
450,450,1727373871895,0.12792969,0.101257324,-0.9414673,-0.75,0.890625,0.109375
451,451,1727373871935,0.13085938,0.10614014,-0.9480591,-0.09375,1.0625,0.15625
452,452,1727373871975,0.13061523,0.11175537,-0.93951416,-0.640625,0.78125,0.125
453,453,1727373872015,0.12670898,0.10369873,-0.9368286,-0.375,0.5625,0.21875
454,454,1727373872055,0.123535156,0.10247803,-0.93878174,-0.5,0.921875,0.1875
455,455,1727373872095,0.123291016,0.09588623,-0.94000244,-0.4375,0.6875,0.203125
456,456,1727373872135,0.122558594,0.10321045,-0.93536377,-0.46875,0.765625,0.125
457,457,1727373872175,0.12109375,0.09857178,-0.9434204,-0.4375,0.609375,0.109375
458,458,1727373872215,0.12695312,0.1005249,-0.93756104,-0.609375,0.5,0.15625
459,459,1727373872255,0.123535156,0.10638428,-0.9378052,-0.703125,0.671875,0.203125
460,460,1727373872295,0.12036133,0.101501465,-0.9429321,-0.75,0.640625,0.21875
461,461,1727373872335,0.12963867,0.10418701,-0.93951416,-0.65625,0.703125,0.34375
462,462,1727373872375,0.122558594,0.09637451,-0.93829346,-0.71875,0.5625,0.296875
463,463,1727373872415,0.122802734,0.1005249,-0.94610596,-0.46875,0.53125,0.265625
464,464,1727373872455,0.12524414,0.09442139,-0.93414307,0.0625,0.78125,0.28125
465,465,1727373872495,0.12670898,0.09637451,-0.94317627,-1.0,0.546875,0.1875
466,466,1727373872535,0.12939453,0.097351074,-0.9404907,-0.765625,0.359375,0.109375
467,467,1727373872575,0.12670898,0.10003662,-0.9458618,-0.578125,0.609375,0.1875
468,468,1727373872615,0.12817383,0.101501465,-0.9365845,-0.703125,0.578125,0.1875
469,469,1727373872655,0.13183594,0.09539795,-0.9414673,-0.609375,0.53125,0.234375
470,470,1727373872695,0.12890625,0.10076904,-0.93463135,-0.3125,0.4375,0.328125
471,471,1727373872735,0.13256836,0.098083496,-0.9368286,-0.5625,0.703125,0.234375
472,472,1727373872775,0.12646484,0.097839355,-0.94537354,-0.421875,0.484375,0.25
473,473,1727373872815,0.13232422,0.097839355,-0.9492798,-0.671875,0.203125,0.203125
474,474,1727373872855,0.13452148,0.10418701,-0.94000244,-0.734375,0.28125,0.0
475,475,1727373872895,0.13256836,0.097595215,-0.9456177,-0.71875,0.40625,0.28125
476,476,1727373872935,0.13916016,0.101989746,-0.94122314,-0.578125,0.515625,0.21875
477,477,1727373872975,0.1381836,0.09661865,-0.94317627,-0.609375,0.546875,0.203125
478,478,1727373873015,0.13330078,0.09588623,-0.94366455,-0.75,0.296875,0.15625
479,479,1727373873055,0.13793945,0.10662842,-0.9417114,-0.390625,0.859375,0.21875
480,480,1727373873095,0.13330078,0.10491943,-0.94488525,-0.828125,0.640625,0.140625
481,481,1727373873135,0.13769531,0.09710693,-0.9487915,-0.75,0.296875,0.25
482,482,1727373873175,0.13720703,0.09246826,-0.9421997,-0.453125,0.53125,0.1875
483,483,1727373873215,0.13696289,0.093444824,-0.94122314,-0.515625,0.5625,0.21875
484,484,1727373873255,0.13891602,0.09173584,-0.942688,-0.609375,0.640625,0.28125
485,485,1727373873295,0.13208008,0.098083496,-0.93463135,-0.3125,0.46875,0.1875
486,486,1727373873335,0.1381836,0.094177246,-0.94366455,-0.53125,0.765625,0.265625
487,487,1727373873375,0.13647461,0.094177246,-0.940979,-0.5,0.75,0.328125
488,488,1727373873415,0.13549805,0.0993042,-0.9421997,-0.546875,0.65625,0.3125
489,489,1727373873455,0.1381836,0.093933105,-0.94000244,-0.390625,0.75,0.171875
490,490,1727373873495,0.13623047,0.098083496,-0.93878174,-0.421875,0.828125,0.265625
491,491,1727373873535,0.13964844,0.0993042,-0.9380493,-0.453125,0.96875,0.265625
492,492,1727373873575,0.14111328,0.0914917,-0.93463135,-0.21875,0.921875,0.328125
493,493,1727373873615,0.14428711,0.08782959,-0.9338989,-0.671875,0.90625,0.25
494,494,1727373873655,0.13769531,0.09466553,-0.9351196,-0.25,1.234375,0.296875
495,495,1727373873695,0.14038086,0.086364746,-0.93170166,-0.390625,0.875,0.1875
496,496,1727373873735,0.140625,0.0927124,-0.94244385,-0.265625,0.921875,0.21875
497,497,1727373873775,0.13208008,0.09173584,-0.94000244,-0.328125,0.875,0.359375
498,498,1727373873815,0.13134766,0.08807373,-0.94244385,-0.375,0.984375,0.328125
499,499,1727373873855,0.13574219,0.086120605,-0.94366455,-0.53125,0.921875,0.25
500,500,1727373873895,0.13745117,0.09588623,-0.9414673,-0.03125,0.9375,0.25
501,501,1727373873935,0.13452148,0.0914917,-0.9348755,-0.296875,1.0625,0.328125
502,502,1727373873975,0.13647461,0.08782959,-0.94000244,-0.15625,0.8125,0.3125
503,503,1727373874015,0.13842773,0.097839355,-0.93927,-0.4375,0.765625,0.3125
504,504,1727373874055,0.13842773,0.09222412,-0.93585205,-0.265625,0.765625,0.265625
505,505,1727373874095,0.1340332,0.09661865,-0.93707275,-0.265625,1.0625,0.296875
506,506,1727373874135,0.13598633,0.09661865,-0.9348755,-0.125,1.109375,0.34375
507,507,1727373874175,0.13549805,0.09490967,-0.9524536,-0.484375,0.859375,0.28125
508,508,1727373874215,0.13354492,0.1005249,-0.95196533,-0.53125,1.140625,0.25
509,509,1727373874255,0.13427734,0.098083496,-0.9385376,-0.484375,0.90625,0.3125
510,510,1727373874295,0.13330078,0.097595215,-0.9324341,-0.125,1.015625,0.3125
511,511,1727373874335,0.13574219,0.093688965,-0.94317627,-0.21875,1.109375,0.25
512,512,1727373874375,0.13574219,0.09222412,-0.93414307,-0.234375,1.03125,0.328125
513,513,1727373874415,0.13110352,0.09686279,-0.93707275,-0.25,1.125,0.3125
514,514,1727373874455,0.12988281,0.097595215,-0.9390259,-0.234375,1.078125,0.28125
515,515,1727373874495,0.12988281,0.09539795,-0.9417114,-0.65625,0.890625,0.3125
516,516,1727373874535,0.13647461,0.09710693,-0.9402466,-0.3125,0.96875,0.140625
517,517,1727373874575,0.1352539,0.101257324,-0.9417114,-0.203125,1.015625,0.296875
518,518,1727373874615,0.13354492,0.10345459,-0.9417114,-0.328125,0.984375,0.34375
519,519,1727373874655,0.13720703,0.09539795,-0.9397583,-0.234375,0.9375,0.359375
520,520,1727373874695,0.125,0.10028076,-0.93878174,-0.296875,1.109375,0.203125
521,521,1727373874735,0.13110352,0.0993042,-0.9356079,-0.171875,1.1875,0.421875
522,522,1727373874775,0.13085938,0.09173584,-0.93829346,-0.140625,1.234375,0.21875
523,523,1727373874815,0.12695312,0.097595215,-0.94000244,0.15625,1.046875,0.421875
524,524,1727373874855,0.12768555,0.0993042,-0.9234009,0.03125,1.03125,0.3125
525,525,1727373874895,0.12866211,0.105407715,-0.9404907,-0.5,1.359375,0.328125
526,526,1727373874935,0.13183594,0.10418701,-0.94122314,-0.46875,0.8125,0.203125
527,527,1727373874975,0.12719727,0.10101318,-0.9421997,0.015625,1.0,0.234375
528,528,1727373875015,0.12915039,0.09979248,-0.94317627,-0.375,0.828125,0.265625
529,529,1727373875055,0.12670898,0.09832764,-0.94366455,-0.21875,0.96875,0.28125
530,530,1727373875095,0.12792969,0.0993042,-0.94000244,-0.34375,1.140625,0.296875
531,531,1727373875135,0.12207031,0.0993042,-0.94659424,-0.265625,1.0,0.203125
532,532,1727373875175,0.12451172,0.09979248,-0.9417114,-0.234375,1.09375,0.234375
533,533,1727373875215,0.12939453,0.09979248,-0.9417114,0.03125,1.265625,0.1875
534,534,1727373875255,0.12231445,0.10491943,-0.94488525,-0.125,1.171875,0.296875
535,535,1727373875295,0.12670898,0.10809326,-0.9351196,-0.296875,0.9375,0.28125
536,536,1727373875335,0.12866211,0.10467529,-0.93756104,-0.25,1.125,0.4375
537,537,1727373875375,0.12963867,0.0993042,-0.93707275,-0.421875,1.015625,0.359375
538,538,1727373875415,0.12695312,0.09954834,-0.9417114,-0.375,1.109375,0.328125
539,539,1727373875455,0.12719727,0.105651855,-0.93707275,-0.359375,1.015625,0.234375
540,540,1727373875495,0.12451172,0.10614014,-0.9385376,-0.359375,1.09375,0.1875
541,541,1727373875535,0.123291016,0.1005249,-0.9421997,-0.125,1.0625,0.359375
542,542,1727373875575,0.12695312,0.10736084,-0.9360962,-0.203125,1.015625,0.328125
543,543,1727373875615,0.12695312,0.10491943,-0.93951416,-0.34375,1.125,0.234375
544,544,1727373875655,0.12890625,0.101745605,-0.9429321,-0.328125,1.046875,0.359375
545,545,1727373875695,0.123046875,0.10662842,-0.940979,-0.625,0.828125,0.359375
546,546,1727373875735,0.12988281,0.10467529,-0.94537354,-0.390625,1.125,0.46875
547,547,1727373875775,0.11987305,0.101745605,-0.9470825,-0.203125,0.734375,0.234375
548,548,1727373875815,0.12231445,0.101501465,-0.93341064,-0.25,0.96875,0.21875
549,549,1727373875855,0.11694336,0.105407715,-0.94488525,-0.546875,1.15625,0.265625
550,550,1727373875895,0.12402344,0.1071167,-0.93951416,-0.453125,0.703125,0.171875
551,551,1727373875935,0.12646484,0.10418701,-0.9468384,0.15625,0.828125,0.265625
552,552,1727373875975,0.12573242,0.10443115,-0.94244385,-0.21875,0.71875,0.359375
553,553,1727373876015,0.12939453,0.10614014,-0.942688,-0.125,1.078125,0.1875
554,554,1727373876055,0.125,0.10467529,-0.9390259,-0.078125,1.046875,0.359375
555,555,1727373876095,0.12109375,0.1071167,-0.9365845,-0.125,0.953125,0.21875
556,556,1727373876135,0.123291016,0.109558105,-0.9429321,-0.296875,0.734375,0.328125
557,557,1727373876175,0.12231445,0.109558105,-0.94122314,-0.28125,0.71875,0.296875
558,558,1727373876215,0.12670898,0.10491943,-0.9451294,-0.53125,0.625,0.125
559,559,1727373876255,0.12768555,0.10882568,-0.942688,-0.4375,0.703125,0.1875
560,560,1727373876295,0.12670898,0.101989746,-0.94195557,-0.75,0.703125,0.3125
561,561,1727373876335,0.125,0.10247803,-0.9463501,-0.515625,0.78125,0.1875
562,562,1727373876375,0.123291016,0.10101318,-0.94537354,-0.453125,0.84375,0.171875
563,563,1727373876415,0.12451172,0.10394287,-0.9404907,-0.625,0.875,0.1875
564,564,1727373876455,0.12597656,0.10076904,-0.9458618,-0.484375,0.65625,0.171875
565,565,1727373876495,0.122558594,0.10345459,-0.9402466,-0.609375,0.796875,0.046875
566,566,1727373876535,0.12988281,0.11053467,-0.9439087,-0.453125,0.859375,0.234375
567,567,1727373876575,0.12719727,0.105895996,-0.94073486,-0.34375,0.796875,0.140625
568,568,1727373876615,0.12133789,0.105651855,-0.93414307,-0.546875,0.75,0.21875
569,569,1727373876655,0.12768555,0.10345459,-0.9390259,-0.625,0.75,0.296875
570,570,1727373876695,0.12158203,0.10394287,-0.9404907,-0.65625,0.5625,0.125
571,571,1727373876735,0.122558594,0.101745605,-0.9402466,-0.25,0.953125,0.25
572,572,1727373876775,0.12231445,0.10687256,-0.9378052,-0.421875,0.75,0.140625
573,573,1727373876815,0.12890625,0.10076904,-0.9351196,-0.375,0.703125,0.21875
574,574,1727373876855,0.125,0.101501465,-0.94195557,-0.4375,0.6875,0.125
575,575,1727373876895,0.125,0.10614014,-0.9390259,-0.59375,0.65625,0.15625
576,576,1727373876935,0.1262207,0.101501465,-0.9351196,-0.5,0.6875,0.171875
577,577,1727373876975,0.12158203,0.10394287,-0.9439087,-0.34375,0.5625,0.140625
578,578,1727373877015,0.12597656,0.10784912,-0.9385376,-0.53125,0.25,0.0625
579,579,1727373877055,0.13183594,0.10443115,-0.94195557,-0.75,0.375,0.265625
580,580,1727373877095,0.1274414,0.10467529,-0.93951416,-0.703125,0.5,0.1875
581,581,1727373877135,0.13183594,0.10272217,-0.93927,-0.59375,0.609375,0.203125
582,582,1727373877175,0.13232422,0.10662842,-0.93927,-0.5625,0.625,0.109375
583,583,1727373877215,0.13012695,0.1083374,-0.9439087,-0.421875,0.578125,0.3125
584,584,1727373877255,0.13378906,0.10418701,-0.94488525,-0.46875,0.28125,0.296875
585,585,1727373877295,0.12890625,0.09881592,-0.9314575,-0.03125,0.671875,0.3125
586,586,1727373877335,0.12670898,0.10345459,-0.94195557,-0.765625,0.484375,0.171875
587,587,1727373877375,0.13452148,0.101989746,-0.9314575,-0.59375,0.390625,0.15625
588,588,1727373877415,0.12963867,0.10345459,-0.94659424,-0.671875,0.3125,0.25
589,589,1727373877455,0.12963867,0.10687256,-0.9373169,-0.5625,0.265625,0.125
590,590,1727373877495,0.13378906,0.097839355,-0.9417114,-0.484375,0.5,0.21875
591,591,1727373877535,0.13549805,0.10443115,-0.9331665,-0.28125,0.71875,0.234375
592,592,1727373877575,0.12988281,0.10858154,-0.94781494,-0.640625,0.546875,0.09375
593,593,1727373877615,0.13085938,0.09857178,-0.9360962,-0.390625,0.546875,0.28125
594,594,1727373877655,0.140625,0.10076904,-0.94537354,-0.546875,0.5625,0.1875
595,595,1727373877695,0.13330078,0.10296631,-0.9351196,-0.5625,0.59375,0.15625
596,596,1727373877735,0.13574219,0.097839355,-0.93878174,-0.546875,0.71875,0.3125
597,597,1727373877775,0.13769531,0.09857178,-0.94000244,-0.53125,0.875,0.203125
598,598,1727373877815,0.13867188,0.09539795,-0.9336548,-0.421875,1.15625,0.28125
599,599,1727373877855,0.13842773,0.098083496,-0.9365845,-0.21875,0.78125,0.203125
600,600,1727373877895,0.13720703,0.10101318,-0.9290161,-0.390625,1.015625,0.40625
601,601,1727373877935,0.13720703,0.09222412,-0.9397583,-0.25,1.171875,0.234375
602,602,1727373877975,0.13427734,0.10467529,-0.9312134,-0.4375,0.90625,0.21875
603,603,1727373878015,0.13745117,0.09661865,-0.9439087,-0.203125,0.875,0.296875
604,604,1727373878055,0.13208008,0.09954834,-0.93536377,-0.4375,0.984375,0.21875
605,605,1727373878095,0.13110352,0.10443115,-0.9380493,-0.421875,0.71875,0.203125
606,606,1727373878135,0.13671875,0.09710693,-0.942688,-0.40625,0.734375,0.25
607,607,1727373878175,0.13598633,0.105163574,-0.94317627,-0.078125,0.703125,0.25
608,608,1727373878215,0.13720703,0.09466553,-0.9463501,-0.4375,1.03125,0.25
609,609,1727373878255,0.13427734,0.09710693,-0.94000244,-0.296875,0.859375,0.3125
610,610,1727373878295,0.12670898,0.10003662,-0.9434204,-0.515625,0.953125,0.1875
611,611,1727373878335,0.1328125,0.1005249,-0.9429321,-0.296875,1.0,0.375
612,612,1727373878375,0.13647461,0.10467529,-0.94073486,-0.375,0.984375,0.28125
613,613,1727373878415,0.12573242,0.09857178,-0.9378052,-0.125,0.921875,0.28125
614,614,1727373878455,0.13354492,0.101989746,-0.94781494,-1.0,0.828125,0.34375
615,615,1727373878495,0.13500977,0.101989746,-0.94317627,-0.703125,1.078125,0.25
616,616,1727373878535,0.13305664,0.101745605,-0.9397583,-0.609375,1.15625,0.109375
617,617,1727373878575,0.1315918,0.10076904,-0.9380493,-0.109375,1.015625,0.4375
618,618,1727373878615,0.13598633,0.10101318,-0.94073486,-0.25,1.046875,0.421875
619,619,1727373878655,0.12890625,0.0993042,-0.9385376,-0.3125,0.796875,0.3125
620,620,1727373878695,0.13232422,0.105407715,-0.94073486,-0.4375,0.984375,0.171875
621,621,1727373878735,0.13305664,0.10003662,-0.944397,-0.28125,0.921875,0.359375
622,622,1727373878775,0.12988281,0.097595215,-0.93951416,-0.484375,0.828125,0.234375
623,623,1727373878815,0.12939453,0.09710693,-0.94317627,-0.28125,0.921875,0.28125
624,624,1727373878855,0.1352539,0.097351074,-0.94488525,-0.28125,0.828125,0.40625
625,625,1727373878895,0.1303711,0.10345459,-0.9417114,-0.25,0.875,0.171875
626,626,1727373878935,0.1262207,0.097351074,-0.94488525,-0.296875,0.984375,0.28125
627,627,1727373878975,0.13452148,0.09564209,-0.94537354,-0.25,1.03125,0.25
628,628,1727373879015,0.13061523,0.09857178,-0.9492798,-0.84375,0.984375,0.0625
629,629,1727373879055,0.13671875,0.1071167,-0.9607544,-0.703125,1.078125,0.234375
630,630,1727373879095,0.12719727,0.10101318,-0.94610596,-0.625,0.96875,0.375
631,631,1727373879135,0.1303711,0.0993042,-0.940979,-0.34375,1.171875,0.1875
632,632,1727373879175,0.1328125,0.1083374,-0.9402466,-0.484375,1.15625,0.25
633,633,1727373879215,0.1328125,0.10809326,-0.9397583,-0.28125,0.9375,0.203125
634,634,1727373879255,0.13354492,0.10443115,-0.944397,-0.328125,1.171875,0.359375
635,635,1727373879295,0.13183594,0.10272217,-0.94610596,-0.40625,1.140625,0.234375
636,636,1727373879335,0.12841797,0.10003662,-0.93756104,-0.296875,0.921875,0.265625
637,637,1727373879375,0.12207031,0.098083496,-0.9390259,-0.296875,1.125,0.171875
638,638,1727373879415,0.12890625,0.10345459,-0.94244385,-0.234375,0.9375,0.328125
639,639,1727373879455,0.123046875,0.10223389,-0.940979,-0.390625,0.859375,0.140625
640,640,1727373879495,0.12597656,0.105163574,-0.942688,-0.21875,1.09375,0.3125
641,641,1727373879535,0.1274414,0.1005249,-0.93707275,-0.546875,1.0,0.140625
642,642,1727373879575,0.1262207,0.10369873,-0.93927,-0.3125,0.984375,0.390625
643,643,1727373879615,0.13305664,0.101745605,-0.94415283,-0.46875,0.875,0.25
644,644,1727373879655,0.12963867,0.101501465,-0.9463501,-0.421875,0.984375,0.3125
645,645,1727373879695,0.12939453,0.101501465,-0.93951416,-0.546875,1.078125,0.15625
646,646,1727373879735,0.1303711,0.101501465,-0.94244385,-0.46875,1.1875,0.28125
647,647,1727373879775,0.12841797,0.10076904,-0.9480591,-0.28125,1.109375,0.40625
648,648,1727373879815,0.1274414,0.101257324,-0.9421997,-0.328125,0.859375,0.25
649,649,1727373879855,0.12573242,0.10614014,-0.93878174,-0.390625,0.90625,0.234375
650,650,1727373879895,0.125,0.09832764,-0.9421997,-0.21875,0.953125,0.25
651,651,1727373879935,0.12158203,0.10736084,-0.9414673,-0.609375,0.8125,0.296875
652,652,1727373879975,0.12768555,0.10345459,-0.9404907,-0.546875,0.71875,0.1875
653,653,1727373880015,0.12719727,0.1005249,-0.94073486,-0.265625,0.796875,0.234375
654,654,1727373880055,0.118652344,0.10394287,-0.9326782,-0.40625,0.875,0.359375
655,655,1727373880095,0.119140625,0.10614014,-0.9380493,-0.359375,0.859375,0.234375
656,656,1727373880135,0.123291016,0.10687256,-0.9373169,-0.625,0.6875,0.296875
657,657,1727373880175,0.12695312,0.101257324,-0.9417114,-0.671875,0.75,0.265625
658,658,1727373880215,0.12524414,0.105407715,-0.94244385,-0.578125,0.875,0.21875
659,659,1727373880255,0.12426758,0.10467529,-0.9348755,-0.3125,1.125,0.28125
660,660,1727373880295,0.123535156,0.105651855,-0.93927,-0.34375,0.984375,0.265625
661,661,1727373880335,0.122558594,0.10467529,-0.9351196,-0.359375,1.015625,0.28125
662,662,1727373880375,0.12084961,0.09661865,-0.9380493,-0.328125,0.984375,0.328125
663,663,1727373880415,0.12646484,0.09637451,-0.94000244,-0.234375,1.03125,0.21875
664,664,1727373880455,0.1262207,0.1083374,-0.9480591,-0.578125,0.78125,0.171875
665,665,1727373880495,0.122558594,0.10101318,-0.95098877,-0.484375,1.109375,0.28125
666,666,1727373880535,0.123535156,0.10345459,-0.9343872,-0.59375,0.9375,0.4375
667,667,1727373880575,0.12426758,0.101989746,-0.9380493,-0.015625,1.296875,0.21875
668,668,1727373880615,0.122558594,0.11248779,-0.94537354,-0.3125,0.6875,0.21875
669,669,1727373880655,0.12182617,0.10003662,-0.940979,-0.390625,0.78125,0.1875
670,670,1727373880695,0.12646484,0.10736084,-0.9429321,-0.359375,0.6875,0.1875
671,671,1727373880735,0.1237793,0.10223389,-0.9480591,-0.53125,0.875,0.171875
672,672,1727373880775,0.12573242,0.10467529,-0.9417114,-0.5625,0.8125,0.203125
673,673,1727373880815,0.123535156,0.10491943,-0.94903564,-0.328125,0.5625,0.234375
674,674,1727373880855,0.12597656,0.10784912,-0.94366455,-0.453125,0.671875,0.203125
675,675,1727373880895,0.12158203,0.10345459,-0.9385376,-0.5,0.515625,0.296875
676,676,1727373880935,0.122558594,0.0993042,-0.9385376,-0.484375,0.765625,0.140625
677,677,1727373880975,0.12573242,0.10394287,-0.9439087,-0.46875,0.546875,0.234375
678,678,1727373881015,0.12573242,0.10223389,-0.9380493,-0.5625,0.828125,0.234375
679,679,1727373881055,0.12451172,0.105895996,-0.942688,-0.578125,0.578125,0.296875
680,680,1727373881095,0.122558594,0.101501465,-0.94122314,-0.5,0.65625,0.140625
681,681,1727373881135,0.1262207,0.1005249,-0.93951416,-0.59375,0.6875,0.15625
682,682,1727373881175,0.123535156,0.10076904,-0.940979,-0.4375,0.6875,0.125
683,683,1727373881215,0.12988281,0.10223389,-0.95025635,-0.5625,0.59375,0.203125
684,684,1727373881255,0.12548828,0.10321045,-0.94195557,-0.25,0.875,0.28125
685,685,1727373881295,0.12231445,0.10345459,-0.9356079,-0.734375,0.6875,0.21875
686,686,1727373881335,0.13183594,0.10443115,-0.94122314,-0.65625,0.484375,0.234375
687,687,1727373881375,0.11816406,0.097839355,-0.9463501,-0.390625,0.6875,0.28125
688,688,1727373881415,0.12475586,0.10321045,-0.93634033,-0.53125,0.59375,0.234375
689,689,1727373881455,0.12890625,0.10321045,-0.9463501,-0.671875,0.65625,0.1875
690,690,1727373881495,0.12182617,0.105651855,-0.94366455,-0.375,0.578125,0.328125
691,691,1727373881535,0.12646484,0.09979248,-0.9421997,-0.390625,0.578125,0.265625
692,692,1727373881575,0.12817383,0.10784912,-0.9414673,-0.515625,0.671875,0.125
693,693,1727373881615,0.13305664,0.09954834,-0.9434204,-0.625,0.453125,0.265625
694,694,1727373881655,0.122802734,0.09588623,-0.9404907,-0.640625,0.5625,0.296875
695,695,1727373881695,0.12670898,0.101989746,-0.9463501,-0.703125,0.546875,0.140625
696,696,1727373881735,0.12939453,0.10223389,-0.94366455,-0.609375,0.453125,0.296875
697,697,1727373881775,0.13085938,0.09222412,-0.94415283,-0.8125,0.328125,0.28125
698,698,1727373881815,0.1262207,0.09490967,-0.9429321,-0.5625,0.6875,0.140625
699,699,1727373881855,0.12963867,0.097595215,-0.93634033,-0.46875,0.53125,0.28125
700,700,1727373881895,0.1262207,0.101257324,-0.9404907,-0.859375,0.3125,0.1875
701,701,1727373881935,0.14013672,0.10076904,-0.9495239,-0.484375,0.71875,0.28125
702,702,1727373881975,0.13061523,0.105651855,-0.94073486,-0.8125,0.734375,0.09375
703,703,1727373882015,0.12915039,0.101989746,-0.94244385,-0.578125,0.4375,0.1875
704,704,1727373882055,0.13232422,0.10394287,-0.94073486,-0.421875,0.765625,0.265625
705,705,1727373882095,0.13134766,0.10028076,-0.9348755,-0.53125,0.796875,0.3125
706,706,1727373882135,0.13110352,0.1005249,-0.9402466,-0.4375,0.9375,0.328125
707,707,1727373882175,0.1394043,0.10443115,-0.93756104,-0.15625,1.015625,0.34375
708,708,1727373882215,0.12817383,0.10003662,-0.94122314,-0.21875,0.875,0.328125
709,709,1727373882255,0.13623047,0.10247803,-0.9446411,-0.390625,0.921875,0.25
710,710,1727373882295,0.13574219,0.09686279,-0.94537354,-0.171875,0.90625,0.328125
711,711,1727373882335,0.12963867,0.09857178,-0.9404907,-0.25,0.8125,0.265625
712,712,1727373882375,0.13671875,0.101989746,-0.94073486,-0.3125,0.828125,0.328125
713,713,1727373882415,0.12988281,0.09979248,-0.94000244,-0.546875,0.921875,0.359375
714,714,1727373882455,0.13378906,0.101501465,-0.9368286,-0.265625,1.078125,0.171875
715,715,1727373882495,0.12573242,0.10003662,-0.9373169,-0.09375,0.796875,0.28125
716,716,1727373882535,0.13183594,0.09979248,-0.9326782,-0.1875,0.828125,0.328125
717,717,1727373882575,0.13452148,0.105651855,-0.9365845,-0.234375,1.21875,0.34375
718,718,1727373882615,0.12841797,0.09710693,-0.9373169,-0.53125,0.921875,0.171875
719,719,1727373882655,0.13134766,0.10247803,-0.9417114,-0.171875,1.1875,0.296875
720,720,1727373882695,0.13061523,0.09881592,-0.94073486,-0.421875,0.984375,0.359375
721,721,1727373882735,0.1237793,0.101257324,-0.9365845,-0.359375,1.0,0.265625
722,722,1727373882775,0.1315918,0.10296631,-0.93829346,-0.421875,1.046875,0.203125
723,723,1727373882815,0.1303711,0.09588623,-0.94195557,-0.1875,1.0,0.171875
724,724,1727373882855,0.12597656,0.10614014,-0.9378052,-0.265625,1.140625,0.328125
725,725,1727373882895,0.12646484,0.10491943,-0.9390259,-0.171875,0.859375,0.359375
726,726,1727373882935,0.12597656,0.10687256,-0.94488525,-0.203125,0.8125,0.296875
727,727,1727373882975,0.125,0.098083496,-0.9368286,-0.390625,0.71875,0.3125
728,728,1727373883015,0.1303711,0.105895996,-0.9390259,-0.390625,0.953125,0.265625
729,729,1727373883055,0.13208008,0.105651855,-0.9378052,-0.5,0.984375,0.34375
730,730,1727373883095,0.1274414,0.101745605,-0.9458618,-0.28125,0.96875,0.125
731,731,1727373883135,0.1274414,0.101257324,-0.927063,0.25,0.859375,0.359375
732,732,1727373883175,0.122802734,0.10443115,-0.9378052,-0.640625,1.046875,0.21875
733,733,1727373883215,0.12475586,0.10369873,-0.94000244,-0.78125,0.859375,0.078125
734,734,1727373883255,0.123535156,0.10614014,-0.94317627,-0.546875,0.859375,0.375
735,735,1727373883295,0.12915039,0.09539795,-0.9380493,-0.640625,0.8125,0.203125
736,736,1727373883335,0.12719727,0.101501465,-0.9421997,-0.546875,0.8125,0.34375
737,737,1727373883375,0.12792969,0.097595215,-0.9360962,-0.5625,0.984375,0.265625
738,738,1727373883415,0.13110352,0.09954834,-0.9434204,-0.3125,0.796875,0.296875
739,739,1727373883455,0.1184082,0.101745605,-0.9380493,-0.46875,0.9375,0.265625
740,740,1727373883495,0.123535156,0.0993042,-0.9343872,-0.28125,0.84375,0.265625
741,741,1727373883535,0.12646484,0.101745605,-0.9451294,-0.359375,0.765625,0.1875
742,742,1727373883575,0.13110352,0.10247803,-0.942688,-0.421875,0.8125,0.296875
743,743,1727373883615,0.13232422,0.101501465,-0.9404907,-0.421875,0.9375,0.328125
744,744,1727373883655,0.13012695,0.10028076,-0.9458618,-0.359375,0.765625,0.203125
745,745,1727373883695,0.12890625,0.09857178,-0.94195557,-0.21875,1.015625,0.265625
746,746,1727373883735,0.12792969,0.10443115,-0.9439087,-0.96875,0.703125,0.28125
747,747,1727373883775,0.13061523,0.10321045,-0.9439087,-0.34375,0.859375,0.34375
748,748,1727373883815,0.1262207,0.101745605,-0.93707275,-0.671875,0.796875,0.390625
749,749,1727373883855,0.125,0.09637451,-0.9414673,-0.234375,1.171875,0.203125
750,750,1727373883895,0.12084961,0.09881592,-0.94073486,-0.375,0.921875,0.21875
751,751,1727373883935,0.12695312,0.105651855,-0.9397583,-0.4375,0.90625,0.3125
752,752,1727373883975,0.12548828,0.10272217,-0.940979,-0.265625,0.953125,0.1875
753,753,1727373884015,0.12548828,0.10101318,-0.9487915,-0.421875,0.859375,0.28125
754,754,1727373884055,0.12597656,0.101745605,-0.93927,-0.265625,1.078125,0.375
755,755,1727373884095,0.12158203,0.10369873,-0.94073486,-0.34375,1.046875,0.34375
756,756,1727373884135,0.12158203,0.10296631,-0.9404907,-0.359375,0.9375,0.390625
757,757,1727373884175,0.12670898,0.10296631,-0.93878174,-0.328125,0.859375,0.21875
758,758,1727373884215,0.123046875,0.10443115,-0.9421997,-0.328125,0.90625,0.265625
759,759,1727373884255,0.12988281,0.09686279,-0.9439087,-0.46875,0.921875,0.359375
