,Unnamed: 0,timestamp,accel_x,accel_y,accel_z,gyro_x,gyro_y,gyro_z
0,0,1727218520542,0.07836914,-0.055236816,-0.95391846,-0.234375,0.578125,-0.109375
1,1,1727218520582,0.072265625,-0.05645752,-0.95440674,-0.15625,0.421875,-0.109375
2,2,1727218520622,0.075927734,-0.055236816,-0.9590454,-0.078125,0.609375,-0.046875
3,3,1727218520662,0.08300781,-0.057922363,-0.958313,-0.125,0.375,-0.109375
4,4,1727218520702,0.07714844,-0.05328369,-0.95562744,-0.1875,0.421875,-0.09375
5,5,1727218520742,0.075927734,-0.051330566,-0.9585571,-0.21875,0.40625,-0.15625
6,6,1727218520782,0.076660156,-0.055725098,-0.9570923,-0.1875,0.390625,-0.09375
7,7,1727218520822,0.07348633,-0.049865723,-0.95513916,-0.15625,0.390625,-0.125
8,8,1727218520862,0.071777344,-0.057922363,-0.9573364,-0.046875,0.453125,-0.15625
9,9,1727218520902,0.07373047,-0.054260254,-0.9561157,-0.109375,0.640625,0.046875
10,10,1727218520942,0.07788086,-0.05621338,-0.95635986,-0.34375,0.46875,-0.0625
11,11,1727218520982,0.07519531,-0.053771973,-0.9534302,-0.171875,0.40625,-0.28125
12,12,1727218521022,0.07739258,-0.055725098,-0.956604,-0.359375,0.46875,-0.09375
13,13,1727218521062,0.07739258,-0.05279541,-0.9607544,-0.28125,0.359375,-0.09375
14,14,1727218521102,0.07446289,-0.050598145,-0.95758057,-0.015625,0.34375,-0.15625
15,15,1727218521142,0.07373047,-0.053771973,-0.956604,-0.328125,0.46875,-0.171875
16,16,1727218521182,0.075683594,-0.055236816,-0.96099854,-0.171875,0.484375,-0.1875
17,17,1727218521222,0.072265625,-0.051086426,-0.954895,-0.25,0.21875,-0.171875
18,18,1727218521262,0.079589844,-0.05718994,-0.9561157,-0.09375,0.359375,-0.125
19,19,1727218521302,0.07373047,-0.05328369,-0.95880127,-0.078125,0.453125,0.0
20,20,1727218521342,0.075683594,-0.054504395,-0.9614868,-0.1875,0.203125,-0.1875
21,21,1727218521382,0.072509766,-0.054748535,-0.9546509,-0.171875,0.484375,-0.21875
22,22,1727218521422,0.07324219,-0.054016113,-0.95928955,-0.125,0.25,0.03125
23,23,1727218521462,0.07348633,-0.049865723,-0.95513916,-0.484375,0.265625,-0.25
24,24,1727218521502,0.07519531,-0.050354004,-0.95928955,-0.21875,0.46875,-0.140625
25,25,1727218521542,0.07495117,-0.057678223,-0.94976807,-0.3125,0.390625,-0.25
26,26,1727218521582,0.072509766,-0.05206299,-0.96173096,-0.34375,0.484375,-0.03125
27,27,1727218521622,0.07373047,-0.053771973,-0.9602661,-0.1875,0.359375,-0.171875
28,28,1727218521662,0.06982422,-0.05279541,-0.9553833,-0.109375,0.359375,-0.203125
29,29,1727218521702,0.076416016,-0.05645752,-0.95269775,-0.28125,0.453125,-0.15625
30,30,1727218521742,0.072753906,-0.054748535,-0.9573364,-0.34375,0.40625,-0.15625
31,31,1727218521782,0.07421875,-0.051818848,-0.9590454,-0.28125,0.296875,-0.234375
32,32,1727218521822,0.076416016,-0.05230713,-0.9573364,-0.234375,0.1875,-0.09375
33,33,1727218521862,0.0769043,-0.05328369,-0.956604,-0.296875,0.296875,-0.046875
34,34,1727218521902,0.06933594,-0.054016113,-0.9590454,-0.265625,0.3125,-0.078125
35,35,1727218521942,0.07714844,-0.053527832,-0.9573364,-0.21875,0.328125,0.0
36,36,1727218521982,0.06738281,-0.051330566,-0.95806885,-0.171875,0.25,-0.078125
37,37,1727218522022,0.07543945,-0.054748535,-0.9553833,-0.25,0.421875,0.109375
38,38,1727218522062,0.07324219,-0.05645752,-0.9522095,-0.140625,0.25,-0.015625
39,39,1727218522102,0.076660156,-0.05255127,-0.95880127,-0.109375,0.3125,-0.125
40,40,1727218522142,0.078125,-0.053527832,-0.95684814,-0.3125,0.328125,-0.09375
41,41,1727218522182,0.075683594,-0.054992676,-0.9573364,-0.125,0.421875,-0.109375
42,42,1727218522222,0.08081055,-0.057678223,-0.95440674,-0.140625,0.484375,-0.21875
43,43,1727218522262,0.072509766,-0.054016113,-0.95269775,-0.171875,0.46875,-0.1875
44,44,1727218522302,0.078125,-0.054504395,-0.9573364,-0.15625,0.203125,-0.15625
45,45,1727218522342,0.07348633,-0.047180176,-0.95928955,-0.09375,0.3125,-0.015625
46,46,1727218522382,0.076416016,-0.05328369,-0.95391846,-0.09375,0.40625,-0.203125
47,47,1727218522422,0.07421875,-0.05645752,-0.9570923,-0.34375,0.375,-0.078125
48,48,1727218522462,0.075683594,-0.050354004,-0.95806885,-0.28125,0.4375,-0.125
49,49,1727218522502,0.07714844,-0.04888916,-0.9578247,-0.375,0.375,-0.1875
50,50,1727218522542,0.07446289,-0.05621338,-0.9578247,-0.28125,0.234375,-0.125
51,51,1727218522582,0.0715332,-0.05230713,-0.9546509,-0.1875,0.265625,-0.109375
52,52,1727218522622,0.07324219,-0.058654785,-0.95147705,-0.359375,0.296875,-0.203125
53,53,1727218522662,0.07519531,-0.057922363,-0.95269775,-0.40625,0.21875,-0.125
54,54,1727218522702,0.07348633,-0.05279541,-0.9570923,-0.234375,0.125,-0.125
55,55,1727218522742,0.07861328,-0.050354004,-0.9553833,-0.15625,0.4375,-0.015625
56,56,1727218522782,0.076416016,-0.04864502,-0.9534302,-0.203125,0.546875,-0.234375
57,57,1727218522822,0.07397461,-0.050354004,-0.95928955,-0.21875,0.671875,-0.078125
58,58,1727218522862,0.07299805,-0.046447754,-0.9573364,-0.265625,0.484375,-0.125
59,59,1727218522902,0.072265625,-0.053527832,-0.9573364,-0.203125,0.53125,-0.09375
60,60,1727218522942,0.06958008,-0.04840088,-0.95684814,-0.1875,0.453125,-0.078125
61,61,1727218522982,0.07446289,-0.051330566,-0.95758057,-0.078125,0.3125,-0.1875
62,62,1727218523022,0.07763672,-0.04888916,-0.958313,-0.265625,0.328125,-0.046875
63,63,1727218523062,0.071777344,-0.05645752,-0.9590454,-0.34375,0.203125,0.046875
64,64,1727218523102,0.075927734,-0.04888916,-0.95562744,-0.25,0.3125,-0.234375
65,65,1727218523142,0.075927734,-0.04888916,-0.9546509,-0.359375,0.390625,-0.25
66,66,1727218523182,0.07788086,-0.051330566,-0.9595337,-0.328125,0.265625,-0.1875
67,67,1727218523222,0.07299805,-0.054260254,-0.95562744,-0.1875,0.328125,-0.0625
68,68,1727218523262,0.07543945,-0.05230713,-0.9590454,-0.359375,0.40625,-0.046875
69,69,1727218523302,0.07128906,-0.04473877,-0.95269775,-0.328125,0.375,-0.125
70,70,1727218523342,0.072753906,-0.054504395,-0.94976807,-0.25,0.390625,-0.046875
71,71,1727218523382,0.076660156,-0.04888916,-0.954895,-0.3125,0.28125,-0.03125
72,72,1727218523422,0.07397461,-0.046936035,-0.960022,-0.234375,0.3125,-0.125
73,73,1727218523462,0.07055664,-0.051086426,-0.9522095,-0.21875,0.375,-0.125
74,74,1727218523502,0.075927734,-0.04815674,-0.9546509,-0.28125,0.375,-0.28125
75,75,1727218523542,0.08105469,-0.050109863,-0.9570923,-0.265625,0.3125,-0.234375
76,76,1727218523582,0.07373047,-0.05279541,-0.9561157,-0.25,0.359375,-0.09375
77,77,1727218523622,0.0793457,-0.059387207,-0.9558716,-0.1875,0.28125,-0.15625
78,78,1727218523662,0.0715332,-0.055480957,-0.960022,-0.40625,0.265625,-0.171875
79,79,1727218523702,0.07763672,-0.04888916,-0.9573364,-0.265625,0.21875,-0.15625
80,80,1727218523742,0.08276367,-0.055236816,-0.95196533,-0.265625,0.1875,-0.09375
81,81,1727218523782,0.07739258,-0.045715332,-0.9590454,-0.21875,0.34375,-0.078125
82,82,1727218523822,0.079589844,-0.045959473,-0.95269775,-0.28125,0.296875,-0.140625
83,83,1727218523862,0.07519531,-0.05303955,-0.9570923,-0.296875,0.296875,-0.15625
84,84,1727218523902,0.08154297,-0.054992676,-0.960022,-0.359375,0.4375,-0.15625
85,85,1727218523942,0.068847656,-0.05303955,-0.9595337,-0.34375,0.328125,-0.046875
86,86,1727218523982,0.079589844,-0.06085205,-0.960022,-0.171875,0.3125,-0.234375
87,87,1727218524022,0.075927734,-0.054992676,-0.9500122,-0.1875,0.203125,-0.171875
88,88,1727218524062,0.07861328,-0.053527832,-0.9585571,-0.328125,0.171875,-0.15625
89,89,1727218524102,0.07348633,-0.054260254,-0.9558716,-0.234375,0.296875,-0.171875
90,90,1727218524142,0.080322266,-0.057922363,-0.960022,-0.34375,0.328125,-0.0625
91,91,1727218524182,0.07543945,-0.049865723,-0.956604,-0.28125,0.265625,0.0
92,92,1727218524222,0.07470703,-0.050109863,-0.95977783,-0.328125,0.46875,-0.09375
93,93,1727218524262,0.076171875,-0.05206299,-0.95635986,-0.21875,0.40625,0.015625
94,94,1727218524302,0.080566406,-0.04840088,-0.95440674,-0.203125,0.40625,-0.234375
95,95,1727218524342,0.0769043,-0.05596924,-0.95806885,-0.375,0.3125,-0.203125
96,96,1727218524382,0.080322266,-0.053527832,-0.96221924,-0.25,0.28125,-0.125
97,97,1727218524422,0.07714844,-0.04815674,-0.9541626,-0.421875,0.3125,-0.1875
98,98,1727218524462,0.07397461,-0.04864502,-0.9553833,-0.359375,0.21875,-0.0625
99,99,1727218524502,0.079589844,-0.04473877,-0.956604,-0.203125,0.265625,-0.25
100,100,1727218524542,0.075927734,-0.0569458,-0.9607544,-0.203125,0.25,-0.296875
101,101,1727218524582,0.07910156,-0.055236816,-0.95318604,-0.3125,0.265625,-0.09375
102,102,1727218524622,0.072021484,-0.054992676,-0.95880127,-0.34375,0.25,-0.203125
103,103,1727218524662,0.07714844,-0.058898926,-0.95318604,-0.234375,0.328125,-0.25
104,104,1727218524702,0.07788086,-0.05303955,-0.954895,-0.28125,0.359375,-0.21875
105,105,1727218524742,0.07788086,-0.047424316,-0.956604,-0.21875,0.171875,-0.125
106,106,1727218524782,0.076660156,-0.055236816,-0.95635986,-0.0625,0.359375,-0.203125
107,107,1727218524822,0.07373047,-0.05303955,-0.9578247,-0.21875,0.5625,-0.03125
108,108,1727218524862,0.07373047,-0.051574707,-0.95758057,-0.21875,0.515625,-0.078125
109,109,1727218524902,0.07910156,-0.05596924,-0.95269775,-0.34375,0.609375,-0.171875
110,110,1727218524942,0.07836914,-0.054260254,-0.95562744,-0.125,0.5,-0.109375
111,111,1727218524982,0.07373047,-0.051086426,-0.9524536,-0.171875,0.546875,-0.21875
112,112,1727218525022,0.076416016,-0.0491333,-0.96099854,-0.296875,0.46875,-0.265625
113,113,1727218525062,0.06958008,-0.05255127,-0.95635986,-0.25,0.59375,-0.171875
114,114,1727218525102,0.07543945,-0.049621582,-0.95513916,-0.1875,0.546875,-0.234375
115,115,1727218525142,0.07763672,-0.05621338,-0.96221924,-0.140625,0.484375,-0.078125
116,116,1727218525182,0.07421875,-0.051818848,-0.9602661,-0.234375,0.578125,-0.171875
117,117,1727218525222,0.068847656,-0.054504395,-0.960022,-0.0625,0.515625,-0.078125
118,118,1727218525262,0.076660156,-0.045715332,-0.9541626,-0.03125,0.578125,-0.171875
119,119,1727218525302,0.078125,-0.049621582,-0.9553833,-0.171875,0.21875,-0.109375
120,120,1727218525342,0.068115234,-0.050598145,-0.9578247,-0.140625,0.453125,-0.171875
121,121,1727218525382,0.06689453,-0.04888916,-0.9573364,-0.1875,0.453125,-0.265625
122,122,1727218525422,0.07348633,-0.047424316,-0.9590454,-0.21875,0.484375,-0.234375
123,123,1727218525462,0.071777344,-0.04864502,-0.95684814,-0.171875,0.5,-0.234375
124,124,1727218525502,0.07714844,-0.04888916,-0.95928955,-0.1875,0.515625,-0.0625
125,125,1727218525542,0.068359375,-0.050109863,-0.9529419,-0.328125,0.453125,-0.03125
126,126,1727218525582,0.068359375,-0.057434082,-0.95758057,-0.203125,0.53125,-0.09375
127,127,1727218525622,0.07470703,-0.05718994,-0.9561157,-0.1875,0.625,-0.3125
128,128,1727218525662,0.07055664,-0.055725098,-0.95513916,-0.21875,0.46875,-0.140625
129,129,1727218525702,0.0703125,-0.045959473,-0.95562744,-0.265625,0.453125,-0.015625
130,130,1727218525742,0.07128906,-0.049865723,-0.95440674,-0.21875,0.453125,-0.171875
131,131,1727218525782,0.07324219,-0.053527832,-0.960022,-0.34375,0.5,-0.25
132,132,1727218525822,0.072753906,-0.058166504,-0.960022,-0.15625,0.390625,-0.09375
133,133,1727218525862,0.071777344,-0.050598145,-0.9602661,-0.078125,0.546875,-0.140625
134,134,1727218525902,0.06738281,-0.054992676,-0.9612427,-0.21875,0.328125,-0.0625
135,135,1727218525942,0.067871094,-0.0491333,-0.95928955,-0.25,0.46875,-0.203125
136,136,1727218525982,0.06738281,-0.050598145,-0.9578247,-0.296875,0.421875,-0.15625
137,137,1727218526022,0.06567383,-0.04522705,-0.9558716,-0.28125,0.375,0.078125
138,138,1727218526062,0.064697266,-0.05303955,-0.95977783,-0.140625,0.484375,-0.140625
139,139,1727218526102,0.06982422,-0.051086426,-0.95440674,-0.21875,0.359375,-0.0625
140,140,1727218526142,0.07080078,-0.050109863,-0.9619751,-0.140625,0.375,-0.234375
141,141,1727218526182,0.072509766,-0.05206299,-0.96099854,-0.296875,0.25,-0.09375
142,142,1727218526222,0.068847656,-0.04937744,-0.9553833,-0.25,0.5,-0.203125
143,143,1727218526262,0.06640625,-0.04864502,-0.95758057,-0.234375,0.265625,-0.015625
144,144,1727218526302,0.0690918,-0.043762207,-0.9541626,-0.1875,0.328125,-0.109375
145,145,1727218526342,0.06982422,-0.051574707,-0.9595337,-0.296875,0.484375,-0.09375
146,146,1727218526382,0.0703125,-0.050842285,-0.9546509,-0.390625,0.5,-0.171875
147,147,1727218526422,0.07299805,-0.047912598,-0.954895,-0.203125,0.484375,-0.1875
148,148,1727218526462,0.07446289,-0.045959473,-0.958313,-0.171875,0.296875,-0.234375
149,149,1727218526502,0.072753906,-0.054260254,-0.9561157,-0.328125,0.453125,-0.140625
150,150,1727218526542,0.07470703,-0.04937744,-0.9546509,-0.3125,0.453125,-0.171875
151,151,1727218526582,0.06958008,-0.051086426,-0.958313,-0.3125,0.453125,-0.125
152,152,1727218526622,0.06958008,-0.054016113,-0.9590454,-0.34375,0.46875,-0.296875
153,153,1727218526662,0.07104492,-0.05255127,-0.95684814,-0.234375,0.46875,-0.109375
154,154,1727218526702,0.06518555,-0.05230713,-0.9561157,-0.296875,0.375,-0.109375
155,155,1727218526742,0.06933594,-0.045959473,-0.9529419,-0.203125,0.375,-0.203125
156,156,1727218526782,0.06713867,-0.051574707,-0.9602661,-0.265625,0.328125,-0.21875
157,157,1727218526822,0.07495117,-0.047180176,-0.95440674,-0.28125,0.453125,-0.234375
158,158,1727218526862,0.07006836,-0.054260254,-0.9595337,-0.296875,0.34375,-0.078125
159,159,1727218526902,0.06665039,-0.05303955,-0.9595337,-0.234375,0.21875,0.046875
160,160,1727218526942,0.072265625,-0.051818848,-0.95928955,-0.140625,0.234375,-0.21875
161,161,1727218526982,0.0715332,-0.050354004,-0.95513916,-0.234375,0.421875,-0.046875
162,162,1727218527022,0.072021484,-0.051818848,-0.95758057,-0.28125,0.265625,-0.109375
163,163,1727218527062,0.0703125,-0.058410645,-0.9590454,-0.21875,0.390625,-0.0625
164,164,1727218527102,0.068847656,-0.04888916,-0.9534302,-0.328125,0.34375,-0.171875
165,165,1727218527142,0.07495117,-0.049621582,-0.9619751,-0.375,0.359375,-0.109375
166,166,1727218527182,0.07421875,-0.04864502,-0.9553833,-0.140625,0.515625,-0.078125
167,167,1727218527222,0.068359375,-0.0491333,-0.9524536,-0.328125,0.359375,-0.015625
168,168,1727218527262,0.06762695,-0.043518066,-0.95758057,-0.15625,0.5625,-0.203125
169,169,1727218527302,0.075927734,-0.050354004,-0.95977783,-0.25,0.484375,-0.125
170,170,1727218527342,0.0690918,-0.054504395,-0.9546509,-0.359375,0.390625,-0.09375
171,171,1727218527382,0.06958008,-0.04815674,-0.95758057,-0.171875,0.578125,-0.109375
172,172,1727218527422,0.06958008,-0.046936035,-0.95562744,-0.25,0.421875,-0.125
173,173,1727218527462,0.07055664,-0.047912598,-0.9573364,-0.296875,0.296875,-0.09375
174,174,1727218527502,0.068115234,-0.05645752,-0.960022,-0.1875,0.4375,-0.140625
175,175,1727218527542,0.068847656,-0.047668457,-0.956604,-0.140625,0.34375,0.015625
176,176,1727218527582,0.07055664,-0.049621582,-0.9561157,-0.09375,0.484375,-0.140625
177,177,1727218527622,0.06762695,-0.05230713,-0.95269775,-0.1875,0.328125,-0.140625
178,178,1727218527662,0.067871094,-0.050109863,-0.9558716,-0.375,0.34375,-0.125
179,179,1727218527702,0.07299805,-0.054016113,-0.9522095,-0.3125,0.359375,-0.1875
180,180,1727218527742,0.06713867,-0.047668457,-0.9534302,-0.328125,0.375,-0.171875
181,181,1727218527782,0.07104492,-0.043518066,-0.95880127,-0.21875,0.296875,-0.265625
182,182,1727218527822,0.0690918,-0.055236816,-0.9595337,-0.375,0.328125,-0.0625
183,183,1727218527862,0.067871094,-0.04937744,-0.95806885,-0.21875,0.375,-0.140625
184,184,1727218527902,0.07055664,-0.050598145,-0.9590454,-0.265625,0.21875,-0.21875
185,185,1727218527942,0.06762695,-0.05206299,-0.9517212,-0.265625,0.25,-0.09375
186,186,1727218527982,0.07104492,-0.055480957,-0.958313,-0.265625,0.28125,-0.109375
187,187,1727218528022,0.07006836,-0.046936035,-0.9624634,-0.234375,0.4375,-0.140625
188,188,1727218528062,0.06738281,-0.051818848,-0.95513916,-0.203125,0.328125,-0.09375
189,189,1727218528102,0.06689453,-0.05279541,-0.958313,-0.109375,0.5,-0.15625
190,190,1727218528142,0.07055664,-0.049621582,-0.9570923,-0.25,0.421875,-0.140625
191,191,1727218528182,0.075927734,-0.054260254,-0.96051025,-0.3125,0.4375,-0.03125
192,192,1727218528222,0.061279297,-0.054504395,-0.95758057,-0.25,0.328125,-0.203125
193,193,1727218528262,0.072753906,-0.05328369,-0.9585571,-0.1875,0.375,-0.171875
194,194,1727218528302,0.07885742,-0.0569458,-0.9553833,-0.265625,0.3125,-0.1875
195,195,1727218528342,0.072753906,-0.053527832,-0.96417236,-0.390625,0.3125,-0.265625
196,196,1727218528382,0.068359375,-0.04522705,-0.95977783,-0.296875,0.28125,-0.09375
197,197,1727218528422,0.067871094,-0.054748535,-0.95440674,-0.1875,0.53125,-0.140625
198,198,1727218528462,0.06591797,-0.049865723,-0.9546509,-0.109375,0.25,-0.21875
199,199,1727218528502,0.06616211,-0.04937744,-0.9570923,-0.296875,0.375,-0.234375
200,200,1727218528542,0.072509766,-0.050109863,-0.95562744,-0.25,0.40625,-0.171875
201,201,1727218528582,0.072753906,-0.053527832,-0.9585571,-0.203125,0.328125,-0.171875
202,202,1727218528622,0.068359375,-0.05328369,-0.954895,-0.328125,0.25,-0.09375
203,203,1727218528662,0.068359375,-0.050842285,-0.95440674,-0.265625,0.25,-0.140625
204,204,1727218528702,0.06762695,-0.047180176,-0.95928955,-0.328125,0.3125,-0.09375
205,205,1727218528742,0.0715332,-0.051330566,-0.9607544,-0.25,0.265625,-0.125
206,206,1727218528782,0.0715332,-0.046691895,-0.96173096,-0.234375,0.421875,-0.15625
207,207,1727218528822,0.06518555,-0.051330566,-0.9570923,-0.25,0.328125,0.0
208,208,1727218528862,0.063964844,-0.04815674,-0.958313,-0.34375,0.421875,-0.046875
209,209,1727218528902,0.06982422,-0.04888916,-0.9631958,-0.109375,0.359375,-0.171875
210,210,1727218528942,0.07299805,-0.047668457,-0.95880127,-0.15625,0.375,-0.046875
211,211,1727218528982,0.07055664,-0.049865723,-0.95758057,-0.265625,0.421875,-0.140625
212,212,1727218529022,0.06762695,-0.051086426,-0.95635986,-0.234375,0.453125,-0.171875
213,213,1727218529062,0.06762695,-0.04547119,-0.9607544,-0.125,0.21875,-0.125
214,214,1727218529102,0.06298828,-0.046936035,-0.95440674,-0.265625,0.359375,-0.140625
215,215,1727218529142,0.07104492,-0.046691895,-0.95758057,-0.359375,0.3125,-0.125
216,216,1727218529182,0.071777344,-0.051818848,-0.9558716,-0.171875,0.40625,-0.046875
217,217,1727218529222,0.07519531,-0.050109863,-0.96051025,-0.265625,0.28125,-0.09375
218,218,1727218529262,0.072021484,-0.055725098,-0.956604,-0.1875,0.375,-0.09375
219,219,1727218529302,0.072753906,-0.04815674,-0.95928955,-0.484375,0.359375,-0.109375
220,220,1727218529342,0.079589844,-0.05328369,-0.956604,-0.171875,0.4375,-0.03125
221,221,1727218529382,0.06958008,-0.04840088,-0.9558716,-0.21875,0.328125,-0.09375
222,222,1727218529422,0.072265625,-0.054992676,-0.9590454,-0.3125,0.53125,-0.171875
223,223,1727218529462,0.072509766,-0.051818848,-0.956604,-0.359375,0.453125,-0.078125
224,224,1727218529502,0.07373047,-0.050598145,-0.95684814,-0.296875,0.484375,-0.15625
225,225,1727218529542,0.07128906,-0.049621582,-0.9558716,-0.1875,0.484375,-0.109375
226,226,1727218529582,0.06762695,-0.05328369,-0.95977783,-0.296875,0.296875,-0.046875
227,227,1727218529622,0.06665039,-0.047668457,-0.9578247,-0.25,0.46875,-0.078125
228,228,1727218529662,0.07543945,-0.051086426,-0.956604,-0.1875,0.46875,-0.125
229,229,1727218529702,0.07104492,-0.046936035,-0.9624634,-0.25,0.34375,-0.09375
230,230,1727218529742,0.0690918,-0.047912598,-0.958313,-0.203125,0.46875,-0.203125
231,231,1727218529782,0.06713867,-0.045715332,-0.9573364,-0.25,0.5,-0.140625
232,232,1727218529822,0.07543945,-0.045715332,-0.9602661,-0.234375,0.421875,-0.1875
233,233,1727218529862,0.06640625,-0.04864502,-0.9553833,-0.171875,0.453125,-0.09375
234,234,1727218529902,0.07104492,-0.05206299,-0.95928955,-0.0625,0.46875,-0.203125
235,235,1727218529942,0.06713867,-0.0491333,-0.95513916,-0.265625,0.296875,-0.203125
236,236,1727218529982,0.076660156,-0.04815674,-0.95562744,-0.265625,0.390625,-0.140625
237,237,1727218530022,0.07080078,-0.058410645,-0.960022,-0.125,0.3125,-0.140625
238,238,1727218530062,0.064697266,-0.051330566,-0.95635986,-0.296875,0.578125,-0.125
239,239,1727218530102,0.06665039,-0.053527832,-0.9553833,-0.265625,0.40625,-0.140625
240,240,1727218530142,0.068603516,-0.050354004,-0.96051025,-0.265625,0.5625,-0.109375
241,241,1727218530182,0.06738281,-0.051330566,-0.95977783,-0.109375,0.359375,-0.03125
242,242,1727218530222,0.064453125,-0.05230713,-0.9612427,-0.375,0.296875,-0.21875
243,243,1727218530262,0.07006836,-0.054260254,-0.9627075,-0.296875,0.34375,-0.015625
244,244,1727218530302,0.06567383,-0.046203613,-0.958313,-0.09375,0.609375,-0.046875
245,245,1727218530342,0.07128906,-0.0491333,-0.9590454,-0.1875,0.46875,-0.109375
246,246,1727218530382,0.06982422,-0.05255127,-0.95391846,-0.109375,0.453125,-0.046875
247,247,1727218530422,0.06298828,-0.049621582,-0.95758057,-0.375,0.5625,-0.15625
248,248,1727218530462,0.06933594,-0.051086426,-0.96466064,-0.265625,0.484375,-0.109375
249,249,1727218530502,0.06542969,-0.047180176,-0.9585571,-0.375,0.46875,-0.109375
250,250,1727218530542,0.061523438,-0.049865723,-0.95562744,-0.34375,0.390625,-0.171875
251,251,1727218530582,0.06958008,-0.045715332,-0.9561157,-0.109375,0.421875,-0.078125
252,252,1727218530622,0.0703125,-0.050842285,-0.9558716,-0.21875,0.40625,-0.203125
253,253,1727218530662,0.068359375,-0.047668457,-0.954895,-0.390625,0.15625,-0.140625
254,254,1727218530702,0.06640625,-0.050354004,-0.9585571,-0.234375,0.265625,-0.09375
255,255,1727218530742,0.06665039,-0.053771973,-0.95635986,-0.15625,0.234375,-0.25
256,256,1727218530782,0.068847656,-0.055480957,-0.9561157,-0.25,0.484375,-0.046875
257,257,1727218530822,0.061767578,-0.05279541,-0.9607544,-0.296875,0.375,-0.09375
258,258,1727218530862,0.06958008,-0.051330566,-0.9570923,-0.140625,0.5,-0.140625
259,259,1727218530902,0.0690918,-0.050598145,-0.96051025,-0.296875,0.296875,-0.171875
260,260,1727218530942,0.064941406,-0.046447754,-0.9578247,-0.21875,0.21875,-0.125
261,261,1727218530982,0.07080078,-0.051574707,-0.95758057,-0.28125,0.203125,-0.109375
262,262,1727218531022,0.064453125,-0.04888916,-0.9619751,-0.375,0.34375,-0.09375
263,263,1727218531062,0.072509766,-0.05328369,-0.9590454,-0.3125,0.28125,-0.1875
264,264,1727218531102,0.05908203,-0.041809082,-0.95977783,-0.21875,0.3125,-0.046875
265,265,1727218531142,0.06762695,-0.05206299,-0.95391846,-0.265625,0.375,-0.171875
266,266,1727218531182,0.07055664,-0.051818848,-0.95880127,-0.4375,0.375,-0.046875
267,267,1727218531222,0.06567383,-0.04937744,-0.9619751,-0.25,0.359375,-0.265625
268,268,1727218531262,0.07080078,-0.050598145,-0.9573364,-0.03125,0.328125,-0.171875
269,269,1727218531302,0.06616211,-0.0491333,-0.95391846,-0.078125,0.359375,-0.09375
270,270,1727218531342,0.07495117,-0.051574707,-0.95684814,-0.140625,0.46875,-0.109375
271,271,1727218531382,0.068115234,-0.04864502,-0.9541626,-0.3125,0.296875,-0.15625
272,272,1727218531422,0.06933594,-0.05303955,-0.9570923,-0.234375,0.359375,-0.125
273,273,1727218531462,0.06689453,-0.046447754,-0.9578247,-0.296875,0.3125,-0.140625
274,274,1727218531502,0.072753906,-0.04840088,-0.9558716,-0.1875,0.25,-0.15625
275,275,1727218531542,0.06958008,-0.046691895,-0.95684814,-0.3125,0.265625,0.03125
276,276,1727218531582,0.07128906,-0.04449463,-0.95513916,-0.296875,0.34375,-0.078125
277,277,1727218531622,0.068847656,-0.051086426,-0.95928955,-0.1875,0.15625,-0.0625
278,278,1727218531662,0.06762695,-0.047180176,-0.9517212,-0.28125,0.359375,0.0
279,279,1727218531702,0.07080078,-0.047424316,-0.95806885,-0.234375,0.25,-0.203125
280,280,1727218531742,0.064453125,-0.044006348,-0.95513916,-0.265625,0.296875,-0.078125
281,281,1727218531782,0.0715332,-0.049621582,-0.95880127,-0.375,0.390625,-0.046875
282,282,1727218531822,0.06933594,-0.051818848,-0.95513916,-0.359375,0.28125,-0.046875
283,283,1727218531862,0.0637207,-0.050109863,-0.95684814,-0.28125,0.34375,-0.015625
284,284,1727218531902,0.06982422,-0.051330566,-0.95977783,-0.453125,0.28125,-0.109375
285,285,1727218531942,0.068603516,-0.05303955,-0.9546509,-0.265625,0.34375,0.0
286,286,1727218531982,0.061523438,-0.05230713,-0.956604,-0.21875,0.34375,-0.140625
287,287,1727218532022,0.06518555,-0.054992676,-0.956604,-0.296875,0.25,-0.03125
288,288,1727218532062,0.06713867,-0.051574707,-0.95562744,-0.28125,0.28125,-0.3125
289,289,1727218532102,0.072021484,-0.05645752,-0.9570923,-0.46875,0.28125,-0.15625
290,290,1727218532142,0.068603516,-0.051086426,-0.9627075,-0.4375,0.3125,-0.1875
291,291,1727218532182,0.06933594,-0.0491333,-0.95440674,-0.265625,0.328125,-0.0625
292,292,1727218532222,0.068603516,-0.04888916,-0.96173096,-0.171875,0.390625,-0.1875
293,293,1727218532262,0.067871094,-0.050109863,-0.9602661,-0.1875,0.234375,-0.140625
294,294,1727218532302,0.06738281,-0.05328369,-0.95440674,-0.3125,0.328125,-0.171875
295,295,1727218532342,0.06518555,-0.04888916,-0.95440674,-0.234375,0.21875,-0.15625
296,296,1727218532382,0.07055664,-0.047668457,-0.9631958,-0.25,0.296875,-0.125
297,297,1727218532422,0.06689453,-0.05230713,-0.95562744,-0.3125,0.203125,-0.21875
298,298,1727218532462,0.06713867,-0.051086426,-0.95684814,-0.28125,0.265625,-0.03125
299,299,1727218532502,0.07080078,-0.05303955,-0.96343994,-0.359375,0.234375,-0.171875
300,300,1727218532542,0.068115234,-0.051330566,-0.96173096,-0.34375,0.28125,-0.09375
301,301,1727218532582,0.06567383,-0.053771973,-0.95562744,-0.203125,0.171875,-0.21875
302,302,1727218532622,0.07006836,-0.04815674,-0.95977783,-0.25,0.375,-0.171875
303,303,1727218532662,0.07006836,-0.04888916,-0.9612427,-0.265625,0.3125,-0.171875
304,304,1727218532702,0.063964844,-0.046691895,-0.9590454,-0.28125,0.265625,-0.09375
305,305,1727218532742,0.0703125,-0.049865723,-0.95635986,-0.125,0.328125,-0.109375
306,306,1727218532782,0.06982422,-0.053527832,-0.9546509,-0.34375,0.28125,-0.125
307,307,1727218532822,0.06933594,-0.053527832,-0.95928955,-0.171875,0.28125,-0.140625
308,308,1727218532862,0.07348633,-0.054748535,-0.9536743,-0.21875,0.390625,-0.03125
309,309,1727218532902,0.063964844,-0.051330566,-0.9561157,-0.234375,0.453125,-0.265625
310,310,1727218532942,0.07055664,-0.05596924,-0.95391846,-0.25,0.34375,-0.140625
311,311,1727218532982,0.071777344,-0.049621582,-0.95880127,-0.1875,0.203125,-0.140625
312,312,1727218533022,0.068115234,-0.049621582,-0.95684814,-0.1875,0.359375,-0.109375
313,313,1727218533062,0.07373047,-0.05670166,-0.96343994,-0.125,0.3125,-0.03125
314,314,1727218533102,0.072509766,-0.047424316,-0.95928955,-0.28125,0.3125,-0.15625
315,315,1727218533142,0.06982422,-0.05279541,-0.96051025,-0.28125,0.375,-0.234375
316,316,1727218533182,0.075927734,-0.050354004,-0.956604,-0.3125,0.21875,-0.109375
317,317,1727218533222,0.06201172,-0.051818848,-0.95880127,-0.25,0.328125,-0.125
318,318,1727218533262,0.07080078,-0.051086426,-0.95562744,-0.25,0.21875,-0.078125
319,319,1727218533302,0.06713867,-0.054504395,-0.95635986,-0.296875,0.328125,-0.140625
320,320,1727218533342,0.07373047,-0.053527832,-0.9558716,-0.265625,0.453125,-0.125
321,321,1727218533382,0.07421875,-0.051330566,-0.9624634,-0.265625,0.390625,-0.140625
322,322,1727218533422,0.076416016,-0.053527832,-0.958313,-0.1875,0.25,-0.125
323,323,1727218533462,0.07104492,-0.049621582,-0.9573364,-0.15625,0.328125,-0.109375
324,324,1727218533502,0.06982422,-0.051330566,-0.95513916,-0.25,0.203125,-0.09375
325,325,1727218533542,0.07324219,-0.05303955,-0.96051025,-0.15625,0.328125,-0.015625
326,326,1727218533582,0.0715332,-0.049865723,-0.9558716,-0.140625,0.296875,-0.1875
327,327,1727218533622,0.07397461,-0.04840088,-0.96343994,-0.328125,0.40625,-0.1875
328,328,1727218533662,0.07324219,-0.054748535,-0.96099854,-0.09375,0.359375,-0.1875
329,329,1727218533702,0.07080078,-0.054748535,-0.9585571,-0.25,0.375,-0.140625
330,330,1727218533742,0.07299805,-0.051574707,-0.95635986,-0.1875,0.40625,-0.046875
331,331,1727218533782,0.07128906,-0.050842285,-0.95880127,-0.21875,0.4375,-0.28125
332,332,1727218533822,0.07519531,-0.04840088,-0.9570923,-0.28125,0.5,-0.078125
333,333,1727218533862,0.072509766,-0.04937744,-0.96099854,-0.203125,0.34375,-0.03125
334,334,1727218533902,0.072753906,-0.046936035,-0.95806885,-0.21875,0.546875,-0.1875
335,335,1727218533942,0.06738281,-0.04498291,-0.95635986,-0.28125,0.375,-0.03125
336,336,1727218533982,0.07128906,-0.051330566,-0.9534302,-0.125,0.609375,-0.125
337,337,1727218534022,0.07055664,-0.055480957,-0.96051025,-0.28125,0.15625,-0.1875
338,338,1727218534062,0.07470703,-0.049621582,-0.9602661,-0.28125,0.328125,-0.140625
339,339,1727218534102,0.06762695,-0.051818848,-0.9578247,-0.34375,0.203125,-0.234375
340,340,1727218534142,0.06738281,-0.047668457,-0.95928955,-0.25,0.390625,-0.125
341,341,1727218534182,0.068115234,-0.051574707,-0.9636841,-0.21875,0.328125,-0.0625
342,342,1727218534222,0.0703125,-0.054504395,-0.9612427,-0.09375,0.265625,-0.015625
343,343,1727218534262,0.07128906,-0.054992676,-0.95977783,-0.140625,0.359375,-0.140625
344,344,1727218534302,0.06933594,-0.05596924,-0.9561157,-0.1875,0.40625,-0.171875
345,345,1727218534342,0.07128906,-0.051818848,-0.95513916,-0.234375,0.421875,-0.046875
346,346,1727218534382,0.06713867,-0.05279541,-0.9585571,-0.375,0.34375,-0.078125
347,347,1727218534422,0.07373047,-0.04473877,-0.9619751,-0.3125,0.421875,-0.140625
348,348,1727218534462,0.0703125,-0.04937744,-0.96099854,-0.265625,0.25,-0.109375
349,349,1727218534502,0.071777344,-0.045715332,-0.958313,-0.3125,0.40625,-0.15625
350,350,1727218534542,0.07104492,-0.050842285,-0.9578247,-0.25,0.25,-0.140625
351,351,1727218534582,0.072509766,-0.045715332,-0.95318604,-0.1875,0.34375,-0.125
352,352,1727218534622,0.072265625,-0.051574707,-0.95684814,-0.09375,0.234375,-0.1875
353,353,1727218534662,0.06738281,-0.05255127,-0.9561157,-0.140625,0.375,-0.03125
354,354,1727218534702,0.07128906,-0.049865723,-0.954895,-0.25,0.421875,-0.0625
355,355,1727218534742,0.076171875,-0.0491333,-0.95758057,-0.21875,0.296875,-0.09375
356,356,1727218534782,0.068115234,-0.050109863,-0.95928955,-0.21875,0.296875,-0.125
357,357,1727218534822,0.06933594,-0.047180176,-0.9578247,-0.3125,0.28125,-0.015625
358,358,1727218534862,0.07348633,-0.050109863,-0.9570923,-0.296875,0.421875,-0.125
359,359,1727218534902,0.07446289,-0.054016113,-0.95977783,-0.109375,0.265625,-0.203125
360,360,1727218534942,0.07104492,-0.055725098,-0.95684814,-0.3125,0.34375,-0.140625
361,361,1727218534982,0.07080078,-0.042541504,-0.9590454,-0.171875,0.390625,-0.09375
362,362,1727218535022,0.072753906,-0.05303955,-0.95635986,-0.359375,0.515625,-0.140625
363,363,1727218535062,0.06689453,-0.051818848,-0.96221924,-0.171875,0.40625,-0.03125
364,364,1727218535102,0.067871094,-0.0491333,-0.960022,-0.265625,0.546875,-0.09375
365,365,1727218535142,0.06738281,-0.04473877,-0.96051025,-0.234375,0.28125,-0.015625
366,366,1727218535182,0.0769043,-0.054260254,-0.95684814,-0.25,0.515625,-0.109375
367,367,1727218535222,0.07080078,-0.05206299,-0.95684814,-0.296875,0.4375,-0.15625
368,368,1727218535262,0.072509766,-0.049621582,-0.9607544,-0.25,0.375,-0.046875
369,369,1727218535302,0.07299805,-0.050598145,-0.9627075,-0.171875,0.0625,-0.09375
370,370,1727218535342,0.064941406,-0.05206299,-0.95880127,-0.3125,0.265625,0.0
371,371,1727218535382,0.07373047,-0.053771973,-0.960022,-0.21875,0.21875,-0.046875
372,372,1727218535422,0.06542969,-0.051330566,-0.9624634,-0.34375,0.109375,-0.015625
373,373,1727218535462,0.07104492,-0.046447754,-0.95806885,-0.3125,0.359375,-0.171875
374,374,1727218535502,0.071777344,-0.054016113,-0.9578247,-0.328125,0.40625,-0.15625
375,375,1727218535542,0.06933594,-0.046691895,-0.9602661,-0.21875,0.453125,-0.109375
376,376,1727218535582,0.07006836,-0.047424316,-0.956604,-0.203125,0.421875,-0.109375
377,377,1727218535622,0.07543945,-0.046691895,-0.9602661,-0.203125,0.5625,-0.015625
378,378,1727218535662,0.0715332,-0.04937744,-0.95440674,-0.28125,0.375,-0.171875
379,379,1727218535702,0.07055664,-0.047180176,-0.96173096,-0.265625,0.40625,-0.15625
380,380,1727218535742,0.072509766,-0.054260254,-0.95684814,-0.359375,0.359375,-0.125
381,381,1727218535782,0.06982422,-0.05303955,-0.9607544,-0.234375,0.484375,-0.203125
382,382,1727218535822,0.07397461,-0.045959473,-0.954895,-0.21875,0.453125,-0.0625
383,383,1727218535862,0.06689453,-0.054260254,-0.9524536,-0.1875,0.46875,-0.015625
384,384,1727218535902,0.061279297,-0.054748535,-0.9570923,-0.421875,0.46875,-0.296875
385,385,1727218535942,0.0715332,-0.046936035,-0.96099854,-0.171875,0.46875,-0.171875
386,386,1727218535982,0.07299805,-0.04840088,-0.9612427,-0.25,0.34375,-0.015625
387,387,1727218536022,0.06958008,-0.05645752,-0.96099854,-0.15625,0.40625,-0.0625
388,388,1727218536062,0.06665039,-0.047180176,-0.9590454,-0.109375,0.359375,-0.125
389,389,1727218536102,0.06591797,-0.046447754,-0.960022,-0.328125,0.375,-0.0625
390,390,1727218536142,0.07006836,-0.047912598,-0.95318604,-0.125,0.453125,-0.203125
391,391,1727218536182,0.07299805,-0.051330566,-0.95440674,-0.265625,0.375,-0.1875
392,392,1727218536222,0.06713867,-0.0491333,-0.95562744,-0.078125,0.328125,-0.15625
393,393,1727218536262,0.067871094,-0.04888916,-0.95977783,-0.359375,0.375,-0.171875
394,394,1727218536302,0.068603516,-0.047668457,-0.9534302,-0.28125,0.21875,-0.0625
395,395,1727218536342,0.07470703,-0.04888916,-0.9570923,-0.234375,0.390625,-0.109375
396,396,1727218536382,0.061523438,-0.042053223,-0.96099854,-0.21875,0.484375,-0.203125
397,397,1727218536422,0.064697266,-0.043762207,-0.9546509,-0.3125,0.390625,-0.125
398,398,1727218536462,0.0703125,-0.051818848,-0.95928955,-0.109375,0.375,-0.203125
399,399,1727218536502,0.06567383,-0.046691895,-0.9505005,-0.21875,0.3125,-0.234375
400,400,1727218536542,0.06958008,-0.050109863,-0.9512329,-0.21875,0.375,-0.171875
401,401,1727218536582,0.064697266,-0.046691895,-0.9602661,-0.34375,0.390625,-0.171875
402,402,1727218536622,0.072021484,-0.049865723,-0.9541626,-0.28125,0.453125,-0.171875
403,403,1727218536662,0.0703125,-0.049621582,-0.9585571,-0.28125,0.40625,-0.140625
404,404,1727218536702,0.06982422,-0.046203613,-0.9573364,-0.421875,0.4375,-0.0625
405,405,1727218536742,0.0637207,-0.043762207,-0.95928955,-0.28125,0.40625,-0.21875
406,406,1727218536782,0.06616211,-0.05279541,-0.9590454,-0.1875,0.46875,-0.09375
407,407,1727218536822,0.064208984,-0.050842285,-0.9570923,-0.140625,0.375,-0.125
408,408,1727218536862,0.06689453,-0.05206299,-0.956604,-0.203125,0.3125,0.03125
409,409,1727218536902,0.07055664,-0.04815674,-0.9553833,-0.296875,0.484375,-0.140625
410,410,1727218536942,0.068603516,-0.05279541,-0.9573364,-0.265625,0.375,-0.046875
411,411,1727218536982,0.07080078,-0.049865723,-0.95562744,-0.171875,0.421875,-0.109375
412,412,1727218537022,0.07128906,-0.04449463,-0.95928955,-0.1875,0.328125,-0.140625
413,413,1727218537062,0.060791016,-0.05230713,-0.9578247,-0.171875,0.34375,-0.1875
414,414,1727218537102,0.06640625,-0.05328369,-0.95880127,-0.265625,0.3125,-0.234375
415,415,1727218537142,0.064208984,-0.054016113,-0.960022,-0.234375,0.3125,-0.109375
416,416,1727218537182,0.068115234,-0.05279541,-0.9614868,-0.25,0.21875,-0.171875
417,417,1727218537222,0.068359375,-0.04815674,-0.9595337,-0.40625,0.3125,-0.21875
418,418,1727218537262,0.063964844,-0.04840088,-0.9590454,-0.34375,0.21875,-0.03125
419,419,1727218537302,0.07006836,-0.05206299,-0.95440674,-0.1875,0.34375,-0.171875
420,420,1727218537342,0.07006836,-0.04888916,-0.9644165,-0.265625,0.34375,-0.125
421,421,1727218537382,0.06982422,-0.043273926,-0.9602661,-0.203125,0.34375,-0.046875
422,422,1727218537422,0.05908203,-0.054260254,-0.95977783,-0.3125,0.328125,0.0
423,423,1727218537462,0.06958008,-0.054504395,-0.9546509,-0.109375,0.359375,-0.1875
424,424,1727218537502,0.064941406,-0.051330566,-0.95684814,-0.203125,0.25,-0.40625
425,425,1727218537542,0.07128906,-0.055480957,-0.95806885,-0.28125,0.28125,-0.1875
426,426,1727218537582,0.064453125,-0.04815674,-0.95928955,-0.28125,0.53125,-0.125
427,427,1727218537622,0.06958008,-0.050842285,-0.95806885,-0.234375,0.40625,-0.203125
428,428,1727218537662,0.072509766,-0.051574707,-0.96173096,-0.375,0.296875,-0.140625
429,429,1727218537702,0.07128906,-0.050109863,-0.95928955,-0.28125,0.296875,-0.078125
430,430,1727218537742,0.06738281,-0.050598145,-0.95758057,-0.09375,0.328125,-0.265625
431,431,1727218537782,0.06298828,-0.047424316,-0.95758057,-0.171875,0.21875,-0.328125
432,432,1727218537822,0.068359375,-0.047424316,-0.9529419,-0.4375,0.46875,-0.15625
433,433,1727218537862,0.06762695,-0.04937744,-0.9624634,-0.21875,0.4375,-0.078125
434,434,1727218537902,0.068847656,-0.047424316,-0.9541626,-0.21875,0.484375,-0.21875
435,435,1727218537942,0.06298828,-0.04449463,-0.9524536,-0.28125,0.390625,-0.15625
436,436,1727218537982,0.067871094,-0.051818848,-0.9505005,-0.21875,0.234375,-0.046875
437,437,1727218538022,0.06616211,-0.053527832,-0.95513916,-0.203125,0.40625,-0.15625
438,438,1727218538062,0.06665039,-0.049865723,-0.9558716,-0.34375,0.4375,-0.140625
439,439,1727218538102,0.068359375,-0.047912598,-0.958313,-0.234375,0.21875,-0.234375
440,440,1727218538142,0.06542969,-0.046691895,-0.960022,-0.328125,0.40625,-0.15625
441,441,1727218538182,0.07128906,-0.054504395,-0.96051025,-0.234375,0.421875,-0.125
442,442,1727218538222,0.06738281,-0.05230713,-0.95977783,-0.203125,0.265625,-0.140625
443,443,1727218538262,0.07104492,-0.0491333,-0.96051025,-0.328125,0.296875,-0.25
444,444,1727218538302,0.068603516,-0.0491333,-0.9561157,-0.3125,0.296875,-0.140625
445,445,1727218538342,0.0690918,-0.05206299,-0.958313,-0.328125,0.296875,-0.15625
446,446,1727218538382,0.068359375,-0.0491333,-0.9570923,-0.375,0.4375,-0.09375
447,447,1727218538422,0.06518555,-0.045959473,-0.960022,-0.265625,0.265625,-0.125
448,448,1727218538462,0.07080078,-0.04815674,-0.95758057,-0.3125,0.40625,-0.28125
449,449,1727218538502,0.07080078,-0.047180176,-0.9578247,-0.296875,0.375,-0.203125
450,450,1727218538542,0.06225586,-0.050109863,-0.9541626,-0.296875,0.34375,-0.234375
451,451,1727218538582,0.06542969,-0.051818848,-0.960022,-0.265625,0.21875,-0.0625
452,452,1727218538622,0.0715332,-0.042297363,-0.96295166,-0.21875,0.203125,-0.03125
453,453,1727218538662,0.0703125,-0.046936035,-0.95635986,-0.28125,0.34375,-0.140625
454,454,1727218538702,0.068359375,-0.049621582,-0.9607544,-0.3125,0.234375,-0.21875
455,455,1727218538742,0.06616211,-0.045959473,-0.96221924,-0.265625,0.453125,-0.03125
456,456,1727218538782,0.07348633,-0.04498291,-0.95928955,-0.28125,0.40625,0.03125
457,457,1727218538822,0.067871094,-0.04864502,-0.96221924,-0.1875,0.453125,-0.15625
458,458,1727218538862,0.06762695,-0.04937744,-0.9517212,-0.109375,0.296875,-0.140625
459,459,1727218538902,0.07055664,-0.05328369,-0.95562744,-0.109375,0.453125,-0.234375
460,460,1727218538942,0.06738281,-0.050842285,-0.9546509,-0.25,0.265625,-0.09375
461,461,1727218538982,0.06201172,-0.042053223,-0.9529419,-0.28125,0.40625,-0.140625
462,462,1727218539022,0.07470703,-0.047912598,-0.958313,-0.28125,0.421875,-0.140625
463,463,1727218539062,0.06640625,-0.058898926,-0.95758057,-0.375,0.359375,-0.15625
464,464,1727218539102,0.06762695,-0.051330566,-0.95880127,-0.21875,0.4375,-0.140625
465,465,1727218539142,0.06347656,-0.051574707,-0.95806885,-0.296875,0.34375,0.0
466,466,1727218539182,0.068847656,-0.05303955,-0.9522095,-0.25,0.375,-0.140625
467,467,1727218539222,0.067871094,-0.047424316,-0.9573364,-0.234375,0.4375,-0.125
468,468,1727218539262,0.06713867,-0.05206299,-0.960022,-0.171875,0.28125,-0.21875
469,469,1727218539302,0.06616211,-0.0491333,-0.9561157,-0.09375,0.609375,-0.09375
470,470,1727218539342,0.068847656,-0.05255127,-0.95758057,-0.171875,0.328125,-0.21875
471,471,1727218539382,0.06689453,-0.055725098,-0.9570923,-0.078125,0.1875,-0.234375
472,472,1727218539422,0.06640625,-0.051574707,-0.95977783,-0.125,0.359375,-0.125
473,473,1727218539462,0.06640625,-0.054992676,-0.9627075,-0.125,0.21875,-0.109375
474,474,1727218539502,0.06762695,-0.054748535,-0.95977783,-0.390625,0.359375,-0.109375
475,475,1727218539542,0.072021484,-0.050354004,-0.958313,-0.375,0.25,-0.3125
476,476,1727218539582,0.071777344,-0.049865723,-0.95391846,-0.421875,0.453125,-0.109375
477,477,1727218539622,0.06347656,-0.047668457,-0.9624634,0.0,0.53125,-0.171875
478,478,1727218539662,0.07104492,-0.04864502,-0.95880127,-0.125,0.265625,-0.171875
479,479,1727218539702,0.0690918,-0.04864502,-0.95269775,-0.375,0.390625,-0.1875
480,480,1727218539742,0.06616211,-0.046936035,-0.9590454,-0.234375,0.53125,-0.15625
481,481,1727218539782,0.06518555,-0.047180176,-0.9590454,-0.25,0.390625,-0.046875
482,482,1727218539822,0.0703125,-0.046203613,-0.9661255,-0.3125,0.5,-0.09375
483,483,1727218539862,0.07006836,-0.04888916,-0.96051025,-0.109375,0.296875,-0.203125
484,484,1727218539902,0.06542969,-0.04888916,-0.9522095,-0.34375,0.359375,-0.140625
485,485,1727218539942,0.06518555,-0.050598145,-0.9612427,-0.328125,0.40625,-0.140625
486,486,1727218539982,0.06542969,-0.039367676,-0.9585571,-0.25,0.359375,-0.078125
487,487,1727218540022,0.06323242,-0.046447754,-0.9602661,-0.140625,0.28125,-0.0625
488,488,1727218540062,0.068115234,-0.04864502,-0.96099854,-0.140625,0.296875,-0.015625
489,489,1727218540102,0.06591797,-0.050598145,-0.9573364,-0.265625,0.4375,-0.09375
490,490,1727218540142,0.06591797,-0.051330566,-0.9607544,-0.171875,0.40625,-0.125
491,491,1727218540182,0.061279297,-0.05621338,-0.9570923,-0.203125,0.328125,-0.1875
492,492,1727218540222,0.064941406,-0.04864502,-0.9595337,-0.140625,0.40625,-0.0625
493,493,1727218540262,0.064453125,-0.046203613,-0.9585571,-0.328125,0.34375,-0.03125
494,494,1727218540302,0.06347656,-0.04840088,-0.9585571,-0.28125,0.421875,-0.015625
495,495,1727218540342,0.068603516,-0.053527832,-0.95880127,-0.265625,0.421875,-0.015625
496,496,1727218540382,0.064697266,-0.04840088,-0.9558716,-0.25,0.3125,-0.171875
497,497,1727218540422,0.07055664,-0.054748535,-0.95684814,-0.15625,0.328125,-0.203125
498,498,1727218540462,0.0637207,-0.05255127,-0.960022,-0.25,0.3125,-0.25
499,499,1727218540502,0.064453125,-0.050598145,-0.96051025,-0.265625,0.328125,-0.21875
500,500,1727218540542,0.06567383,-0.04888916,-0.960022,-0.140625,0.234375,-0.1875
501,501,1727218540582,0.07055664,-0.051574707,-0.95928955,-0.359375,0.3125,-0.046875
502,502,1727218540622,0.063964844,-0.04547119,-0.95562744,-0.3125,0.234375,-0.171875
503,503,1727218540662,0.06567383,-0.04547119,-0.9546509,-0.1875,0.421875,-0.109375
504,504,1727218540702,0.0637207,-0.044006348,-0.96417236,-0.125,0.109375,-0.015625
505,505,1727218540742,0.06933594,-0.051330566,-0.95440674,-0.21875,0.21875,-0.21875
506,506,1727218540782,0.06542969,-0.04815674,-0.9546509,-0.15625,0.375,-0.21875
507,507,1727218540822,0.06713867,-0.04937744,-0.9590454,-0.359375,0.375,-0.0625
508,508,1727218540862,0.06665039,-0.054748535,-0.9578247,-0.359375,0.234375,-0.03125
509,509,1727218540902,0.06738281,-0.046447754,-0.95880127,-0.265625,0.34375,-0.03125
510,510,1727218540942,0.068115234,-0.0491333,-0.95513916,-0.203125,0.328125,-0.140625
511,511,1727218540982,0.067871094,-0.04840088,-0.96051025,-0.34375,0.3125,-0.171875
512,512,1727218541022,0.068359375,-0.046447754,-0.9561157,-0.28125,0.234375,-0.0625
513,513,1727218541062,0.064697266,-0.045715332,-0.9602661,-0.171875,0.28125,-0.0625
514,514,1727218541102,0.068359375,-0.04547119,-0.95318604,-0.21875,0.375,-0.21875
515,515,1727218541142,0.06738281,-0.049865723,-0.9546509,-0.3125,0.28125,-0.265625
516,516,1727218541182,0.06665039,-0.049621582,-0.95758057,-0.171875,0.3125,-0.109375
517,517,1727218541222,0.06542969,-0.042785645,-0.9590454,-0.328125,0.328125,-0.1875
518,518,1727218541262,0.0703125,-0.047668457,-0.958313,-0.203125,0.265625,0.0
519,519,1727218541302,0.072753906,-0.046936035,-0.95928955,-0.265625,0.203125,-0.140625
520,520,1727218541342,0.071777344,-0.05255127,-0.96173096,-0.40625,0.109375,-0.140625
521,521,1727218541382,0.06640625,-0.04864502,-0.960022,-0.296875,0.328125,-0.109375
522,522,1727218541422,0.06713867,-0.05303955,-0.9558716,-0.140625,0.375,-0.171875
523,523,1727218541462,0.0690918,-0.051086426,-0.96221924,-0.203125,0.359375,0.015625
524,524,1727218541502,0.06665039,-0.047180176,-0.95391846,-0.21875,0.15625,-0.015625
525,525,1727218541542,0.068847656,-0.047180176,-0.95635986,-0.1875,0.375,-0.140625
526,526,1727218541582,0.0690918,-0.04840088,-0.95758057,-0.234375,0.375,-0.078125
527,527,1727218541622,0.06665039,-0.046936035,-0.956604,-0.265625,0.34375,-0.109375
528,528,1727218541662,0.06958008,-0.047180176,-0.9614868,-0.25,0.25,-0.03125
529,529,1727218541702,0.06201172,-0.050109863,-0.95806885,-0.171875,0.359375,-0.265625
530,530,1727218541742,0.0690918,-0.0491333,-0.9595337,-0.21875,0.28125,-0.140625
531,531,1727218541782,0.07080078,-0.05279541,-0.95684814,-0.3125,0.328125,-0.21875
532,532,1727218541822,0.06616211,-0.051818848,-0.95928955,-0.171875,0.390625,-0.15625
533,533,1727218541862,0.06982422,-0.05230713,-0.956604,-0.171875,0.3125,-0.125
534,534,1727218541902,0.07080078,-0.046447754,-0.9529419,-0.234375,0.296875,-0.078125
535,535,1727218541942,0.06713867,-0.047668457,-0.9612427,-0.25,0.265625,-0.1875
536,536,1727218541982,0.07006836,-0.05279541,-0.95758057,-0.234375,0.265625,-0.234375
537,537,1727218542022,0.0703125,-0.049865723,-0.9602661,-0.21875,0.359375,0.03125
538,538,1727218542062,0.06518555,-0.049865723,-0.95806885,-0.234375,0.15625,-0.21875
539,539,1727218542102,0.06982422,-0.054992676,-0.9607544,-0.34375,0.21875,-0.203125
540,540,1727218542142,0.072021484,-0.047424316,-0.95684814,-0.296875,0.265625,-0.125
541,541,1727218542182,0.07104492,-0.05230713,-0.95635986,-0.28125,0.34375,-0.09375
542,542,1727218542222,0.067871094,-0.051330566,-0.96173096,-0.296875,0.421875,-0.171875
543,543,1727218542262,0.07055664,-0.04937744,-0.95758057,-0.171875,0.296875,-0.109375
544,544,1727218542302,0.068847656,-0.04815674,-0.9602661,-0.171875,0.3125,-0.046875
545,545,1727218542342,0.06567383,-0.045715332,-0.96539307,-0.3125,0.21875,-0.03125
546,546,1727218542382,0.06738281,-0.054260254,-0.96221924,-0.34375,0.140625,-0.1875
547,547,1727218542422,0.06982422,-0.04425049,-0.96099854,-0.203125,0.25,-0.109375
548,548,1727218542462,0.068115234,-0.047912598,-0.95513916,-0.28125,0.328125,-0.09375
549,549,1727218542502,0.06933594,-0.05206299,-0.96099854,-0.265625,0.515625,-0.140625
550,550,1727218542542,0.06762695,-0.050354004,-0.95928955,-0.28125,0.390625,-0.203125
551,551,1727218542582,0.068847656,-0.050354004,-0.95928955,-0.296875,0.4375,-0.078125
552,552,1727218542622,0.07006836,-0.051818848,-0.9558716,-0.28125,0.265625,-0.15625
553,553,1727218542662,0.068359375,-0.045715332,-0.95391846,-0.171875,0.546875,-0.109375
554,554,1727218542702,0.07397461,-0.050109863,-0.958313,-0.234375,0.375,-0.21875
555,555,1727218542742,0.06689453,-0.054016113,-0.95977783,-0.234375,0.328125,-0.078125
556,556,1727218542782,0.075683594,-0.044006348,-0.95098877,-0.296875,0.28125,-0.09375
557,557,1727218542822,0.07104492,-0.0491333,-0.956604,-0.21875,0.34375,-0.171875
558,558,1727218542862,0.07495117,-0.051818848,-0.95928955,-0.25,0.359375,-0.046875
559,559,1727218542902,0.0769043,-0.04937744,-0.95562744,-0.1875,0.421875,0.015625
560,560,1727218542942,0.068359375,-0.04888916,-0.95684814,-0.296875,0.484375,-0.140625
561,561,1727218542982,0.064941406,-0.047180176,-0.9636841,-0.328125,0.359375,-0.140625
562,562,1727218543022,0.07543945,-0.04937744,-0.96051025,-0.125,0.390625,-0.140625
563,563,1727218543062,0.06738281,-0.054260254,-0.956604,-0.234375,0.546875,-0.09375
564,564,1727218543102,0.063964844,-0.046691895,-0.9536743,-0.234375,0.609375,-0.109375
565,565,1727218543142,0.06933594,-0.049865723,-0.96221924,-0.25,0.546875,-0.0625
566,566,1727218543182,0.07055664,-0.054504395,-0.95562744,-0.25,0.640625,-0.125
567,567,1727218543222,0.072753906,-0.051330566,-0.95880127,-0.109375,0.484375,-0.109375
568,568,1727218543262,0.06591797,-0.049865723,-0.96173096,-0.25,0.5625,-0.078125
569,569,1727218543302,0.06689453,-0.04498291,-0.95806885,-0.25,0.453125,-0.234375
570,570,1727218543342,0.072021484,-0.051086426,-0.9614868,-0.1875,0.625,0.0625
571,571,1727218543382,0.068847656,-0.046691895,-0.9573364,-0.21875,0.703125,-0.09375
572,572,1727218543422,0.06518555,-0.050842285,-0.96099854,-0.09375,0.609375,-0.09375
573,573,1727218543462,0.067871094,-0.049865723,-0.9585571,-0.265625,0.578125,-0.15625
574,574,1727218543502,0.0703125,-0.051818848,-0.9590454,-0.203125,0.359375,-0.15625
575,575,1727218543542,0.068847656,-0.046936035,-0.95758057,-0.421875,0.515625,-0.15625
576,576,1727218543582,0.064453125,-0.04864502,-0.95880127,-0.3125,0.453125,-0.265625
577,577,1727218543622,0.06567383,-0.051086426,-0.95562744,-0.21875,0.359375,-0.21875
578,578,1727218543662,0.06738281,-0.04864502,-0.960022,-0.015625,0.390625,-0.140625
579,579,1727218543702,0.061523438,-0.04864502,-0.9553833,-0.109375,0.453125,-0.0625
580,580,1727218543742,0.067871094,-0.047668457,-0.95513916,-0.296875,0.390625,-0.171875
581,581,1727218543782,0.06567383,-0.050842285,-0.95318604,-0.125,0.359375,-0.234375
582,582,1727218543822,0.06542969,-0.04937744,-0.95513916,-0.3125,0.40625,-0.125
583,583,1727218543862,0.06713867,-0.051086426,-0.9570923,-0.40625,0.390625,0.015625
584,584,1727218543902,0.06274414,-0.04815674,-0.9644165,-0.21875,0.53125,-0.125
585,585,1727218543942,0.0690918,-0.04425049,-0.95513916,-0.1875,0.5625,-0.15625
586,586,1727218543982,0.0690918,-0.045959473,-0.95977783,-0.1875,0.40625,-0.203125
587,587,1727218544022,0.06665039,-0.046691895,-0.9536743,-0.390625,0.515625,-0.078125
588,588,1727218544062,0.064941406,-0.051086426,-0.9578247,-0.234375,0.484375,-0.171875
589,589,1727218544102,0.072509766,-0.050598145,-0.95880127,-0.265625,0.5,-0.015625
590,590,1727218544142,0.06640625,-0.05303955,-0.9561157,-0.296875,0.28125,-0.3125
591,591,1727218544182,0.06274414,-0.04840088,-0.9636841,-0.25,0.28125,-0.140625
592,592,1727218544222,0.06591797,-0.05303955,-0.960022,-0.203125,0.4375,-0.109375
593,593,1727218544262,0.064941406,-0.04547119,-0.9546509,-0.21875,0.421875,-0.078125
594,594,1727218544302,0.064208984,-0.045715332,-0.95928955,-0.1875,0.5,-0.0625
595,595,1727218544342,0.06274414,-0.047912598,-0.9607544,-0.265625,0.453125,-0.09375
596,596,1727218544382,0.067871094,-0.046691895,-0.9561157,-0.15625,0.375,-0.0625
597,597,1727218544422,0.068847656,-0.049865723,-0.958313,-0.25,0.40625,-0.078125
598,598,1727218544462,0.059814453,-0.050109863,-0.9614868,-0.203125,0.328125,-0.03125
599,599,1727218544502,0.06665039,-0.050354004,-0.95758057,-0.21875,0.3125,0.046875
600,600,1727218544542,0.060546875,-0.046447754,-0.96417236,-0.46875,0.359375,0.046875
601,601,1727218544582,0.060058594,-0.0491333,-0.96051025,-0.25,0.265625,-0.046875
602,602,1727218544622,0.06274414,-0.050842285,-0.96295166,-0.234375,0.1875,-0.0625
603,603,1727218544662,0.06567383,-0.046936035,-0.9651489,-0.234375,0.171875,-0.125
604,604,1727218544702,0.06616211,-0.047180176,-0.9612427,-0.21875,0.296875,-0.078125
605,605,1727218544742,0.071777344,-0.051574707,-0.9570923,-0.203125,0.390625,-0.078125
606,606,1727218544782,0.06616211,-0.05303955,-0.9585571,-0.265625,0.390625,-0.109375
607,607,1727218544822,0.0625,-0.050354004,-0.960022,-0.203125,0.265625,-0.109375
608,608,1727218544862,0.06665039,-0.050842285,-0.96051025,-0.25,0.28125,-0.140625
609,609,1727218544902,0.068115234,-0.04937744,-0.9529419,-0.375,0.3125,-0.046875
610,610,1727218544942,0.06201172,-0.050598145,-0.96099854,-0.265625,0.328125,-0.109375
611,611,1727218544982,0.06347656,-0.050354004,-0.9553833,-0.265625,0.15625,-0.234375
612,612,1727218545022,0.06298828,-0.04425049,-0.95562744,-0.21875,0.203125,-0.0625
613,613,1727218545062,0.06713867,-0.04864502,-0.956604,-0.34375,0.296875,-0.140625
614,614,1727218545102,0.064697266,-0.05279541,-0.960022,-0.390625,0.1875,-0.1875
615,615,1727218545142,0.06274414,-0.046447754,-0.95928955,-0.21875,0.265625,-0.15625
616,616,1727218545182,0.06640625,-0.04937744,-0.956604,-0.21875,0.375,-0.1875
617,617,1727218545222,0.0690918,-0.04522705,-0.9624634,-0.21875,0.4375,-0.109375
618,618,1727218545262,0.07470703,-0.050598145,-0.9590454,-0.234375,0.46875,-0.078125
619,619,1727218545302,0.06567383,-0.051086426,-0.9570923,-0.234375,0.296875,-0.046875
620,620,1727218545342,0.06616211,-0.049865723,-0.95977783,-0.296875,0.125,-0.21875
621,621,1727218545382,0.0703125,-0.049865723,-0.95977783,-0.328125,0.203125,-0.15625
622,622,1727218545422,0.06616211,-0.045959473,-0.95758057,-0.359375,0.28125,-0.21875
623,623,1727218545462,0.0703125,-0.045959473,-0.96051025,-0.21875,0.34375,-0.09375
624,624,1727218545502,0.064697266,-0.046691895,-0.9614868,-0.28125,0.15625,-0.15625
625,625,1727218545542,0.06640625,-0.046936035,-0.96221924,-0.234375,0.28125,-0.0625
626,626,1727218545582,0.06591797,-0.04840088,-0.9585571,-0.40625,0.265625,-0.09375
627,627,1727218545622,0.068603516,-0.051086426,-0.96099854,-0.390625,0.40625,-0.0625
628,628,1727218545662,0.06542969,-0.047180176,-0.9612427,-0.21875,0.171875,-0.140625
629,629,1727218545702,0.06713867,-0.051574707,-0.96173096,-0.28125,0.3125,-0.109375
630,630,1727218545742,0.0690918,-0.046936035,-0.95562744,-0.28125,0.421875,-0.109375
631,631,1727218545782,0.06640625,-0.046203613,-0.95635986,-0.1875,0.15625,-0.25
632,632,1727218545822,0.068847656,-0.05328369,-0.9614868,-0.28125,0.28125,-0.09375
633,633,1727218545862,0.07104492,-0.047180176,-0.9614868,-0.28125,0.234375,-0.109375
634,634,1727218545902,0.068359375,-0.046447754,-0.9614868,-0.28125,0.390625,-0.09375
635,635,1727218545942,0.06958008,-0.051330566,-0.96588135,-0.40625,0.359375,-0.25
636,636,1727218545982,0.06713867,-0.046691895,-0.95977783,-0.265625,0.4375,-0.25
637,637,1727218546022,0.0690918,-0.04937744,-0.9585571,-0.265625,0.359375,-0.1875
638,638,1727218546062,0.068603516,-0.05206299,-0.9585571,-0.203125,0.28125,-0.203125
639,639,1727218546102,0.06665039,-0.049621582,-0.9590454,-0.21875,0.40625,-0.203125
640,640,1727218546142,0.06713867,-0.055236816,-0.9529419,-0.234375,0.265625,-0.109375
641,641,1727218546182,0.07421875,-0.055236816,-0.960022,-0.1875,0.375,-0.125
642,642,1727218546222,0.07421875,-0.054504395,-0.956604,-0.15625,0.359375,-0.234375
643,643,1727218546262,0.06640625,-0.05279541,-0.96221924,-0.25,0.4375,0.015625
644,644,1727218546302,0.07446289,-0.046447754,-0.95880127,-0.234375,0.359375,-0.046875
645,645,1727218546342,0.064208984,-0.05621338,-0.95684814,-0.125,0.40625,-0.015625
646,646,1727218546382,0.06738281,-0.04840088,-0.9614868,-0.203125,0.328125,-0.1875
647,647,1727218546422,0.064208984,-0.05279541,-0.95440674,-0.3125,0.25,-0.09375
648,648,1727218546462,0.07470703,-0.050354004,-0.9561157,-0.21875,0.453125,-0.15625
649,649,1727218546502,0.06738281,-0.044006348,-0.96221924,-0.390625,0.28125,-0.015625
650,650,1727218546542,0.06347656,-0.04840088,-0.9612427,-0.390625,0.5,0.015625
651,651,1727218546582,0.06982422,-0.04840088,-0.9631958,-0.203125,0.265625,-0.125
652,652,1727218546622,0.060058594,-0.04840088,-0.9570923,-0.421875,0.359375,-0.140625
653,653,1727218546662,0.06738281,-0.050109863,-0.96099854,-0.125,0.359375,-0.109375
654,654,1727218546702,0.07055664,-0.050354004,-0.9541626,-0.09375,0.5625,-0.109375
655,655,1727218546742,0.07128906,-0.049865723,-0.960022,-0.375,0.40625,-0.0625
656,656,1727218546782,0.068603516,-0.051330566,-0.9619751,-0.34375,0.328125,0.015625
657,657,1727218546822,0.06665039,-0.054504395,-0.9619751,-0.21875,0.5,-0.15625
658,658,1727218546862,0.06616211,-0.046936035,-0.9595337,-0.265625,0.484375,-0.140625
659,659,1727218546902,0.072021484,-0.04547119,-0.96295166,-0.328125,0.375,-0.046875
660,660,1727218546942,0.06713867,-0.051330566,-0.9590454,-0.40625,0.40625,-0.203125
661,661,1727218546982,0.06274414,-0.04864502,-0.95758057,-0.140625,0.25,-0.125
662,662,1727218547022,0.06762695,-0.046447754,-0.9595337,-0.328125,0.296875,-0.09375
663,663,1727218547062,0.07080078,-0.04840088,-0.95635986,-0.1875,0.265625,-0.1875
664,664,1727218547102,0.0703125,-0.050109863,-0.9561157,-0.28125,0.46875,-0.140625
665,665,1727218547142,0.07055664,-0.04815674,-0.9541626,-0.1875,0.46875,-0.125
666,666,1727218547182,0.06542969,-0.04864502,-0.9590454,-0.3125,0.53125,-0.21875
667,667,1727218547222,0.0690918,-0.047180176,-0.960022,-0.171875,0.375,-0.125
668,668,1727218547262,0.06518555,-0.042541504,-0.9578247,-0.28125,0.3125,-0.046875
669,669,1727218547302,0.068359375,-0.04840088,-0.956604,-0.109375,0.390625,-0.03125
670,670,1727218547342,0.06982422,-0.050109863,-0.9644165,-0.265625,0.390625,-0.046875
671,671,1727218547382,0.064941406,-0.049865723,-0.954895,-0.203125,0.34375,-0.25
672,672,1727218547422,0.06762695,-0.055725098,-0.95977783,-0.203125,0.328125,-0.140625
673,673,1727218547462,0.06982422,-0.054260254,-0.96343994,-0.234375,0.484375,-0.21875
674,674,1727218547502,0.06298828,-0.04888916,-0.960022,-0.25,0.328125,-0.21875
675,675,1727218547542,0.06689453,-0.04864502,-0.9590454,-0.140625,0.234375,0.03125
676,676,1727218547582,0.068603516,-0.04937744,-0.9627075,-0.140625,0.421875,0.0
677,677,1727218547622,0.06518555,-0.04937744,-0.95513916,-0.171875,0.296875,-0.171875
678,678,1727218547662,0.06689453,-0.046691895,-0.9651489,-0.21875,0.3125,-0.15625
679,679,1727218547702,0.064697266,-0.047668457,-0.954895,-0.140625,0.234375,-0.21875
680,680,1727218547742,0.064453125,-0.047668457,-0.95758057,-0.203125,0.25,-0.15625
681,681,1727218547782,0.068115234,-0.04840088,-0.95880127,-0.125,0.203125,-0.140625
682,682,1727218547822,0.06591797,-0.043029785,-0.96099854,-0.421875,0.109375,-0.21875
683,683,1727218547862,0.06713867,-0.051818848,-0.9578247,-0.1875,0.203125,-0.09375
684,684,1727218547902,0.06713867,-0.046447754,-0.9570923,-0.21875,0.390625,-0.25
685,685,1727218547942,0.068359375,-0.053527832,-0.95440674,-0.34375,0.203125,-0.09375
686,686,1727218547982,0.06591797,-0.046203613,-0.9585571,-0.21875,0.328125,-0.125
687,687,1727218548022,0.07446289,-0.04498291,-0.9570923,-0.28125,0.265625,-0.109375
688,688,1727218548062,0.07080078,-0.047424316,-0.95635986,-0.109375,0.46875,-0.078125
689,689,1727218548102,0.07080078,-0.049865723,-0.95977783,-0.125,0.46875,-0.140625
690,690,1727218548142,0.0715332,-0.058898926,-0.96051025,-0.28125,0.359375,0.0
691,691,1727218548182,0.06689453,-0.049865723,-0.9639282,-0.1875,0.5625,-0.1875
692,692,1727218548222,0.0715332,-0.047424316,-0.96099854,-0.25,0.40625,-0.09375
693,693,1727218548262,0.071777344,-0.047912598,-0.95635986,-0.234375,0.359375,-0.265625
694,694,1727218548302,0.068847656,-0.054016113,-0.96051025,-0.3125,0.46875,-0.21875
695,695,1727218548342,0.068847656,-0.049865723,-0.9570923,-0.421875,0.46875,-0.109375
696,696,1727218548382,0.06542969,-0.05645752,-0.96173096,-0.21875,0.40625,-0.15625
697,697,1727218548422,0.063964844,-0.051818848,-0.9585571,-0.21875,0.453125,-0.0625
698,698,1727218548462,0.06591797,-0.05255127,-0.9585571,-0.28125,0.3125,-0.1875
699,699,1727218548502,0.071777344,-0.04840088,-0.95806885,-0.1875,0.3125,-0.046875
700,700,1727218548542,0.06640625,-0.04522705,-0.956604,-0.25,0.390625,-0.234375
701,701,1727218548582,0.064941406,-0.04937744,-0.9614868,-0.203125,0.328125,-0.03125
702,702,1727218548622,0.07836914,-0.04864502,-0.96173096,-0.125,0.296875,-0.109375
703,703,1727218548662,0.07373047,-0.049621582,-0.954895,-0.265625,0.34375,-0.09375
704,704,1727218548702,0.06542969,-0.04888916,-0.960022,-0.375,0.28125,-0.140625
705,705,1727218548742,0.05908203,-0.04425049,-0.96173096,-0.203125,0.4375,-0.21875
706,706,1727218548782,0.0625,-0.04864502,-0.95880127,-0.046875,0.53125,-0.09375
707,707,1727218548822,0.064697266,-0.04937744,-0.96099854,-0.390625,0.375,0.015625
708,708,1727218548862,0.07324219,-0.051330566,-0.95928955,-0.3125,0.484375,-0.125
709,709,1727218548902,0.06347656,-0.04937744,-0.96051025,-0.3125,0.5625,-0.171875
710,710,1727218548942,0.06982422,-0.0491333,-0.9595337,-0.171875,0.4375,-0.15625
711,711,1727218548982,0.07128906,-0.050354004,-0.9636841,-0.25,0.28125,-0.34375
712,712,1727218549022,0.07495117,-0.0491333,-0.9558716,-0.25,0.359375,-0.109375
713,713,1727218549062,0.068847656,-0.050354004,-0.9612427,-0.203125,0.265625,-0.171875
714,714,1727218549102,0.06982422,-0.050598145,-0.96173096,-0.203125,0.328125,-0.078125
715,715,1727218549142,0.06616211,-0.053527832,-0.9585571,-0.1875,0.28125,-0.25
716,716,1727218549182,0.07128906,-0.04937744,-0.9585571,-0.34375,0.265625,-0.15625
717,717,1727218549222,0.06665039,-0.054992676,-0.96051025,-0.21875,0.203125,-0.15625
718,718,1727218549262,0.067871094,-0.04156494,-0.95977783,-0.234375,0.25,-0.28125
719,719,1727218549302,0.072753906,-0.0413208,-0.9558716,-0.234375,0.25,-0.171875
720,720,1727218549342,0.06591797,-0.043762207,-0.9595337,-0.25,0.203125,-0.171875
721,721,1727218549382,0.063964844,-0.050842285,-0.9553833,-0.203125,0.375,-0.28125
722,722,1727218549422,0.06567383,-0.046936035,-0.96295166,-0.21875,0.40625,-0.078125
723,723,1727218549462,0.071777344,-0.04815674,-0.960022,-0.265625,0.28125,-0.15625
724,724,1727218549502,0.068115234,-0.05303955,-0.95440674,-0.3125,0.296875,-0.21875
725,725,1727218549542,0.07104492,-0.051086426,-0.960022,-0.34375,0.296875,-0.078125
726,726,1727218549582,0.06567383,-0.046936035,-0.96099854,-0.3125,0.359375,-0.15625
727,727,1727218549622,0.068847656,-0.047424316,-0.9570923,-0.171875,0.296875,-0.234375
728,728,1727218549662,0.07421875,-0.043273926,-0.95318604,-0.21875,0.296875,0.0
729,729,1727218549702,0.0703125,-0.05645752,-0.96295166,-0.328125,0.328125,-0.109375
730,730,1727218549742,0.07128906,-0.051330566,-0.9612427,-0.25,0.375,-0.078125
731,731,1727218549782,0.059570312,-0.049621582,-0.95758057,-0.25,0.46875,-0.140625
732,732,1727218549822,0.061767578,-0.051574707,-0.95684814,-0.5,0.4375,-0.203125
733,733,1727218549862,0.072509766,-0.04815674,-0.9602661,-0.328125,0.328125,-0.125
734,734,1727218549902,0.07055664,-0.046936035,-0.95318604,-0.1875,0.3125,-0.0625
735,735,1727218549942,0.06982422,-0.04864502,-0.96221924,-0.390625,0.328125,-0.109375
736,736,1727218549982,0.06591797,-0.042785645,-0.95440674,-0.140625,0.453125,-0.1875
737,737,1727218550022,0.07055664,-0.049865723,-0.958313,-0.265625,0.234375,-0.171875
738,738,1727218550062,0.06567383,-0.046447754,-0.9595337,-0.375,0.421875,-0.03125
739,739,1727218550102,0.068847656,-0.054260254,-0.95562744,-0.359375,0.3125,-0.171875
740,740,1727218550142,0.0703125,-0.05255127,-0.9607544,-0.125,0.421875,0.03125
741,741,1727218550182,0.06762695,-0.047180176,-0.96099854,-0.125,0.296875,-0.15625
742,742,1727218550222,0.06689453,-0.046447754,-0.95758057,-0.109375,0.328125,-0.1875
743,743,1727218550262,0.07128906,-0.046691895,-0.96099854,-0.234375,0.34375,-0.25
744,744,1727218550302,0.07080078,-0.04815674,-0.9570923,-0.421875,0.40625,-0.140625
745,745,1727218550342,0.06958008,-0.04473877,-0.95562744,-0.125,0.390625,0.0
746,746,1727218550382,0.068603516,-0.050109863,-0.95977783,-0.3125,0.359375,-0.078125
747,747,1727218550422,0.0703125,-0.050598145,-0.9536743,-0.15625,0.296875,-0.15625
748,748,1727218550462,0.07006836,-0.051086426,-0.958313,-0.15625,0.4375,-0.078125
749,749,1727218550502,0.071777344,-0.049621582,-0.9505005,-0.125,0.546875,-0.140625
750,750,1727218550542,0.068359375,-0.04888916,-0.95977783,-0.21875,0.28125,-0.109375
751,751,1727218550582,0.068847656,-0.046447754,-0.95562744,-0.15625,0.453125,-0.046875
752,752,1727218550622,0.072021484,-0.04522705,-0.9561157,-0.21875,0.109375,-0.046875
753,753,1727218550662,0.06958008,-0.04522705,-0.9619751,-0.234375,0.3125,-0.171875
754,754,1727218550702,0.068603516,-0.04888916,-0.9590454,-0.109375,0.34375,-0.046875
755,755,1727218550742,0.06933594,-0.04083252,-0.9517212,-0.375,0.28125,-0.046875
756,756,1727218550782,0.07080078,-0.05230713,-0.9590454,-0.21875,0.46875,-0.1875
757,757,1727218550822,0.07104492,-0.050354004,-0.9607544,-0.234375,0.296875,-0.125
758,758,1727218550862,0.071777344,-0.04840088,-0.9578247,-0.28125,0.3125,-0.046875
759,759,1727218550902,0.06201172,-0.04864502,-0.9573364,-0.15625,0.296875,-0.125
