,Unnamed: 0,timestamp,accel_x,accel_y,accel_z,gyro_x,gyro_y,gyro_z
0,0,1727974005014,0.011962891,0.09197998,-0.9624634,-0.265625,0.765625,-0.125
1,1,1727974005054,0.0107421875,0.085632324,-0.9578247,-0.171875,0.671875,-0.078125
2,2,1727974005094,0.01171875,0.0836792,-0.9612427,-0.328125,0.765625,-0.21875
3,3,1727974005134,0.012207031,0.082214355,-0.9619751,-0.21875,0.6875,-0.1875
4,4,1727974005174,0.010498047,0.08538818,-0.96588135,-0.328125,0.671875,-0.203125
5,5,1727974005214,0.009521484,0.08514404,-0.9627075,-0.125,0.71875,-0.09375
6,6,1727974005254,0.011962891,0.08538818,-0.9590454,-0.203125,0.53125,-0.03125
7,7,1727974005294,0.014404297,0.08782959,-0.96343994,-0.296875,0.53125,-0.09375
8,8,1727974005334,0.011962891,0.08416748,-0.9607544,-0.25,0.71875,-0.125
9,9,1727974005374,0.0087890625,0.08660889,-0.954895,-0.21875,0.484375,-0.1875
10,10,1727974005414,0.010009766,0.08001709,-0.95928955,-0.125,0.515625,-0.21875
11,11,1727974005454,0.010253906,0.08905029,-0.9573364,-0.171875,0.609375,-0.203125
12,12,1727974005494,0.011474609,0.08782959,-0.9607544,-0.171875,0.640625,-0.265625
13,13,1727974005534,0.006591797,0.08538818,-0.9590454,-0.1875,0.4375,-0.25
14,14,1727974005574,0.006591797,0.08758545,-0.96295166,-0.21875,0.75,-0.25
15,15,1727974005614,0.007080078,0.09100342,-0.9649048,-0.21875,0.59375,-0.171875
16,16,1727974005654,0.0073242188,0.08905029,-0.95880127,-0.15625,0.734375,-0.203125
17,17,1727974005694,0.0068359375,0.08905029,-0.95684814,-0.1875,0.9375,-0.203125
18,18,1727974005734,0.010986328,0.09075928,-0.95928955,-0.15625,1.140625,-0.234375
19,19,1727974005774,0.005859375,0.08660889,-0.95880127,-0.140625,0.734375,-0.21875
20,20,1727974005814,0.0031738281,0.08270264,-0.95758057,-0.25,0.765625,-0.171875
21,21,1727974005854,0.005126953,0.08538818,-0.95562744,-0.3125,0.859375,-0.265625
22,22,1727974005894,0.007080078,0.09173584,-0.9644165,-0.109375,1.03125,-0.125
23,23,1727974005934,0.0029296875,0.08709717,-0.95684814,-0.109375,0.75,-0.328125
24,24,1727974005974,0.0043945312,0.093444824,-0.9590454,-0.15625,0.703125,-0.09375
25,25,1727974006014,0.0021972656,0.09564209,-0.9619751,-0.21875,0.671875,-0.0625
26,26,1727974006054,0.009521484,0.08465576,-0.9590454,-0.203125,0.5625,-0.203125
27,27,1727974006094,0.0048828125,0.0848999,-0.9570923,-0.34375,0.578125,-0.015625
28,28,1727974006134,0.0009765625,0.089538574,-0.9541626,-0.375,0.5,-0.078125
29,29,1727974006174,0.0024414062,0.08148193,-0.95758057,-0.296875,0.390625,-0.078125
30,30,1727974006214,-0.00024414062,0.08514404,-0.9627075,-0.296875,0.40625,-0.125
31,31,1727974006254,0.0031738281,0.08319092,-0.9534302,-0.328125,0.421875,-0.171875
32,32,1727974006294,-0.0034179688,0.08343506,-0.9585571,-0.34375,0.28125,-0.109375
33,33,1727974006334,0.008056641,0.08416748,-0.960022,-0.25,0.546875,-0.03125
34,34,1727974006374,0.0034179688,0.08856201,-0.9590454,-0.3125,0.375,-0.125
35,35,1727974006414,-0.00048828125,0.0848999,-0.9590454,-0.234375,0.265625,-0.171875
36,36,1727974006454,0.0029296875,0.08148193,-0.9631958,-0.3125,0.359375,-0.109375
37,37,1727974006494,-0.0026855469,0.08441162,-0.96466064,-0.28125,0.390625,0.015625
38,38,1727974006534,-0.00048828125,0.0836792,-0.9636841,-0.484375,0.390625,-0.09375
39,39,1727974006574,0.0029296875,0.08856201,-0.958313,-0.21875,0.328125,-0.15625
40,40,1727974006614,0.001953125,0.08709717,-0.96173096,-0.21875,0.328125,0.03125
41,41,1727974006654,0.005126953,0.08538818,-0.96173096,-0.328125,0.484375,-0.234375
42,42,1727974006694,-0.0043945312,0.08734131,-0.96099854,-0.3125,0.4375,-0.078125
43,43,1727974006734,0.0034179688,0.089782715,-0.956604,-0.265625,0.5,-0.140625
44,44,1727974006774,0.007080078,0.08514404,-0.9673462,-0.25,0.390625,-0.046875
45,45,1727974006814,0.0012207031,0.08441162,-0.9602661,-0.21875,0.1875,-0.109375
46,46,1727974006854,0.005859375,0.08148193,-0.9624634,-0.375,0.296875,-0.015625
47,47,1727974006894,0.0012207031,0.082214355,-0.95758057,-0.28125,0.296875,-0.140625
48,48,1727974006934,0.0014648438,0.08074951,-0.96051025,-0.3125,0.40625,-0.09375
49,49,1727974006974,0.0026855469,0.081970215,-0.960022,-0.546875,0.125,-0.09375
50,50,1727974007014,0.0009765625,0.08050537,-0.9649048,-0.46875,0.125,-0.109375
51,51,1727974007054,0.008056641,0.08343506,-0.95977783,-0.5,0.09375,-0.015625
52,52,1727974007094,0.0007324219,0.08123779,-0.95806885,-0.484375,0.15625,-0.03125
53,53,1727974007134,0.00048828125,0.08538818,-0.96173096,-0.546875,0.171875,-0.078125
54,54,1727974007174,0.00024414062,0.081726074,-0.95806885,-0.640625,-0.03125,-0.203125
55,55,1727974007214,0.005126953,0.08026123,-0.9602661,-0.53125,0.109375,-0.03125
56,56,1727974007254,0.0073242188,0.07318115,-0.9614868,-0.421875,0.21875,-0.046875
57,57,1727974007294,0.0034179688,0.08099365,-0.96173096,-0.484375,0.21875,0.0
58,58,1727974007334,0.0041503906,0.082458496,-0.96295166,-0.546875,0.1875,-0.015625
59,59,1727974007374,0.001953125,0.08319092,-0.96221924,-0.4375,0.078125,0.03125
60,60,1727974007414,0.0126953125,0.08294678,-0.9656372,-0.578125,0.125,-0.21875
61,61,1727974007454,0.005126953,0.07489014,-0.9649048,-0.375,0.21875,0.0625
62,62,1727974007494,0.001953125,0.07293701,-0.96173096,-0.4375,0.125,0.078125
63,63,1727974007534,0.0043945312,0.07733154,-0.9614868,-0.390625,0.328125,-0.140625
64,64,1727974007574,0.0048828125,0.08074951,-0.9573364,-0.25,0.390625,-0.15625
65,65,1727974007614,0.0068359375,0.08001709,-0.95806885,-0.296875,0.421875,-0.109375
66,66,1727974007654,0.00048828125,0.08685303,-0.96343994,-0.171875,0.453125,-0.03125
67,67,1727974007694,0.007080078,0.07757568,-0.96221924,-0.203125,0.4375,-0.125
68,68,1727974007734,0.0048828125,0.074645996,-0.96173096,-0.203125,0.453125,-0.125
69,69,1727974007774,0.007080078,0.082458496,-0.9595337,-0.265625,0.34375,-0.15625
70,70,1727974007814,0.006591797,0.074401855,-0.95806885,-0.28125,0.5625,-0.046875
71,71,1727974007854,0.005126953,0.08123779,-0.9656372,-0.265625,0.515625,-0.109375
72,72,1727974007894,0.001953125,0.078063965,-0.9644165,-0.28125,0.46875,-0.21875
73,73,1727974007934,0.00048828125,0.07635498,-0.95391846,-0.3125,0.5,-0.046875
74,74,1727974007974,0.007080078,0.077819824,-0.96295166,-0.078125,0.4375,-0.140625
75,75,1727974008014,0.0073242188,0.078308105,-0.958313,-0.3125,0.59375,-0.1875
76,76,1727974008054,0.009033203,0.07952881,-0.9612427,0.0,0.5,0.0625
77,77,1727974008094,0.00390625,0.07269287,-0.96295166,-0.21875,0.515625,-0.09375
78,78,1727974008134,0.0078125,0.0836792,-0.9585571,-0.203125,0.4375,-0.109375
79,79,1727974008174,0.0012207031,0.07635498,-0.95928955,-0.21875,0.390625,-0.1875
80,80,1727974008214,0.0031738281,0.081970215,-0.9651489,-0.25,0.484375,-0.25
81,81,1727974008254,0.009521484,0.07733154,-0.95928955,-0.265625,0.453125,-0.171875
82,82,1727974008294,0.0075683594,0.07611084,-0.956604,-0.203125,0.359375,-0.234375
83,83,1727974008334,0.008300781,0.078308105,-0.96051025,-0.15625,0.328125,-0.03125
84,84,1727974008374,0.0036621094,0.078552246,-0.9627075,-0.34375,0.46875,-0.203125
85,85,1727974008414,0.006591797,0.08074951,-0.9631958,-0.375,0.46875,-0.03125
86,86,1727974008454,0.0126953125,0.07342529,-0.95928955,-0.25,0.515625,-0.078125
87,87,1727974008494,0.0043945312,0.07489014,-0.9663696,-0.203125,0.546875,-0.234375
88,88,1727974008534,0.001953125,0.077819824,-0.9636841,-0.25,0.4375,-0.09375
89,89,1727974008574,0.004638672,0.07977295,-0.9614868,-0.28125,0.3125,-0.125
90,90,1727974008614,0.008056641,0.074645996,-0.9627075,-0.234375,0.4375,-0.234375
91,91,1727974008654,0.0021972656,0.07489014,-0.9639282,-0.171875,0.6875,-0.234375
92,92,1727974008694,0.0021972656,0.07977295,-0.9612427,-0.203125,0.5625,-0.109375
93,93,1727974008734,0.0043945312,0.078063965,-0.9585571,-0.15625,0.453125,-0.125
94,94,1727974008774,0.00024414062,0.07611084,-0.95977783,-0.078125,0.671875,-0.25
95,95,1727974008814,0.0061035156,0.07977295,-0.9607544,0.0,0.546875,-0.265625
96,96,1727974008854,0.00390625,0.0770874,-0.96221924,-0.1875,0.375,-0.21875
97,97,1727974008894,0.0063476562,0.07879639,-0.9656372,-0.125,0.484375,-0.015625
98,98,1727974008934,-0.00048828125,0.074645996,-0.96343994,-0.21875,0.484375,-0.21875
99,99,1727974008974,0.0053710938,0.08074951,-0.96466064,-0.28125,0.5,-0.140625
100,100,1727974009014,0.0,0.07733154,-0.96295166,-0.25,0.484375,-0.21875
101,101,1727974009054,-0.0021972656,0.07659912,-0.96099854,-0.1875,0.625,-0.140625
102,102,1727974009094,0.0078125,0.07952881,-0.9636841,-0.21875,0.515625,-0.28125
103,103,1727974009134,0.0024414062,0.082458496,-0.9624634,-0.25,0.546875,-0.140625
104,104,1727974009174,-0.0017089844,0.0836792,-0.9590454,-0.25,0.484375,-0.25
105,105,1727974009214,0.0017089844,0.081726074,-0.96417236,-0.109375,0.484375,-0.078125
106,106,1727974009254,-0.00048828125,0.08074951,-0.9612427,-0.234375,0.453125,-0.109375
107,107,1727974009294,0.0031738281,0.07537842,-0.9627075,-0.046875,0.515625,-0.234375
108,108,1727974009334,0.0009765625,0.08001709,-0.9649048,-0.234375,0.546875,-0.203125
109,109,1727974009374,-0.0031738281,0.07928467,-0.9663696,-0.015625,0.6875,-0.1875
110,110,1727974009414,-0.0012207031,0.0836792,-0.96051025,-0.03125,0.640625,-0.21875
111,111,1727974009454,0.0014648438,0.08099365,-0.9590454,-0.171875,0.40625,-0.28125
112,112,1727974009494,0.0012207031,0.07879639,-0.958313,-0.171875,0.578125,-0.109375
113,113,1727974009534,-0.0034179688,0.082458496,-0.9663696,-0.15625,0.625,-0.21875
114,114,1727974009574,-0.0012207031,0.081726074,-0.9656372,-0.140625,0.515625,-0.15625
115,115,1727974009614,-0.0048828125,0.08099365,-0.9607544,0.015625,0.703125,-0.171875
116,116,1727974009654,-0.0012207031,0.078063965,-0.9627075,-0.03125,0.796875,-0.21875
117,117,1727974009694,-0.0026855469,0.074157715,-0.9602661,-0.203125,0.359375,-0.125
118,118,1727974009734,0.00048828125,0.07757568,-0.9595337,-0.203125,0.421875,-0.09375
119,119,1727974009774,0.0029296875,0.07904053,-0.9636841,-0.046875,0.609375,-0.25
120,120,1727974009814,-0.0007324219,0.08294678,-0.95977783,-0.015625,0.609375,-0.1875
121,121,1727974009854,0.0034179688,0.078552246,-0.9673462,-0.09375,0.53125,-0.125
122,122,1727974009894,-0.0034179688,0.077819824,-0.9614868,-0.28125,0.34375,-0.15625
123,123,1727974009934,-0.0041503906,0.08050537,-0.96759033,-0.15625,0.65625,-0.15625
124,124,1727974009974,-0.0024414062,0.08026123,-0.9631958,-0.203125,0.4375,-0.1875
125,125,1727974010014,-0.0053710938,0.07952881,-0.9636841,-0.234375,0.515625,-0.125
126,126,1727974010054,-0.001953125,0.08026123,-0.9585571,-0.140625,0.5,-0.203125
127,127,1727974010094,-0.005126953,0.08270264,-0.95928955,-0.09375,0.4375,-0.109375
128,128,1727974010134,-0.008544922,0.08026123,-0.9627075,-0.1875,0.40625,-0.15625
129,129,1727974010174,-0.0029296875,0.07952881,-0.96295166,-0.0625,0.40625,-0.171875
130,130,1727974010214,-0.0012207031,0.07977295,-0.9607544,-0.125,0.578125,-0.125
131,131,1727974010254,-0.0048828125,0.0836792,-0.958313,-0.15625,0.46875,-0.21875
132,132,1727974010294,-0.00048828125,0.07977295,-0.96466064,-0.21875,0.515625,-0.09375
133,133,1727974010334,-0.0034179688,0.081970215,-0.95977783,-0.25,0.4375,-0.140625
134,134,1727974010374,-0.008544922,0.078552246,-0.9639282,-0.125,0.328125,-0.109375
135,135,1727974010414,0.00048828125,0.07928467,-0.9561157,-0.171875,0.421875,-0.1875
136,136,1727974010454,-0.0009765625,0.08319092,-0.9619751,-0.140625,0.296875,-0.171875
137,137,1727974010494,-0.0017089844,0.08001709,-0.96221924,-0.21875,0.453125,-0.15625
138,138,1727974010534,-0.007080078,0.08050537,-0.95806885,-0.171875,0.328125,-0.0625
139,139,1727974010574,-0.009033203,0.08734131,-0.96588135,-0.28125,0.453125,-0.140625
140,140,1727974010614,-0.0029296875,0.08294678,-0.9612427,-0.25,0.421875,-0.125
141,141,1727974010654,-0.0041503906,0.086364746,-0.95977783,-0.234375,0.28125,0.015625
142,142,1727974010694,-0.0014648438,0.08660889,-0.9644165,-0.171875,0.265625,-0.171875
143,143,1727974010734,-0.0031738281,0.08709717,-0.960022,-0.1875,0.234375,-0.125
144,144,1727974010774,0.0021972656,0.082458496,-0.95684814,-0.515625,0.328125,-0.09375
145,145,1727974010814,-0.0007324219,0.085876465,-0.9590454,-0.28125,0.234375,-0.09375
146,146,1727974010854,-0.0029296875,0.074645996,-0.9636841,-0.25,0.25,-0.140625
147,147,1727974010894,-0.0034179688,0.082214355,-0.9614868,-0.34375,0.21875,-0.078125
148,148,1727974010934,-0.0026855469,0.08514404,-0.95684814,-0.46875,0.078125,-0.15625
149,149,1727974010974,-0.001953125,0.0848999,-0.9573364,-0.421875,0.234375,-0.0625
150,150,1727974011014,0.0007324219,0.08538818,-0.96466064,-0.265625,0.21875,-0.046875
151,151,1727974011054,-0.00024414062,0.086120605,-0.9619751,-0.265625,0.265625,-0.25
152,152,1727974011094,-0.0061035156,0.081970215,-0.9627075,-0.171875,0.375,-0.0625
153,153,1727974011134,0.0,0.086364746,-0.9627075,-0.359375,0.28125,-0.046875
154,154,1727974011174,-0.0029296875,0.082214355,-0.95635986,-0.265625,0.1875,-0.09375
155,155,1727974011214,-0.0031738281,0.08123779,-0.9631958,-0.28125,0.140625,0.0625
156,156,1727974011254,-0.0021972656,0.08001709,-0.9636841,-0.390625,0.359375,-0.1875
157,157,1727974011294,-0.0061035156,0.08123779,-0.9590454,-0.328125,0.296875,-0.03125
158,158,1727974011334,0.0012207031,0.0770874,-0.9644165,-0.359375,0.359375,-0.09375
159,159,1727974011374,-0.005859375,0.08294678,-0.9595337,-0.3125,0.28125,-0.21875
160,160,1727974011414,0.0041503906,0.082214355,-0.96099854,-0.5,0.046875,-0.09375
161,161,1727974011454,0.0024414062,0.08856201,-0.9607544,-0.28125,0.171875,-0.09375
162,162,1727974011494,-0.006591797,0.0836792,-0.9639282,-0.5,0.375,0.0
163,163,1727974011534,-0.0021972656,0.073913574,-0.9661255,-0.25,0.265625,-0.109375
164,164,1727974011574,-0.0087890625,0.082458496,-0.96417236,-0.34375,0.140625,-0.015625
165,165,1727974011614,0.0021972656,0.08026123,-0.9636841,-0.453125,0.15625,-0.03125
166,166,1727974011654,0.0048828125,0.07489014,-0.96466064,-0.15625,0.40625,-0.078125
167,167,1727974011694,0.001953125,0.082458496,-0.96661377,-0.28125,0.234375,-0.125
168,168,1727974011734,0.001953125,0.077819824,-0.9607544,-0.3125,0.3125,-0.09375
169,169,1727974011774,0.0056152344,0.0770874,-0.9607544,-0.3125,0.234375,-0.171875
170,170,1727974011814,-0.00024414062,0.07879639,-0.9649048,-0.328125,0.453125,-0.125
171,171,1727974011854,0.00048828125,0.08465576,-0.96417236,-0.203125,0.375,-0.109375
172,172,1727974011894,-0.0007324219,0.0770874,-0.96051025,-0.28125,0.484375,-0.15625
173,173,1727974011934,0.0014648438,0.07904053,-0.96343994,-0.3125,0.390625,0.0
174,174,1727974011974,0.0017089844,0.07928467,-0.9612427,-0.1875,0.5625,-0.078125
175,175,1727974012014,-0.0012207031,0.081726074,-0.9607544,-0.28125,0.453125,-0.0625
176,176,1727974012054,0.0012207031,0.08294678,-0.9651489,-0.21875,0.640625,-0.25
177,177,1727974012094,0.00024414062,0.08514404,-0.956604,-0.265625,0.484375,-0.09375
178,178,1727974012134,-0.0014648438,0.078552246,-0.9612427,-0.203125,0.3125,-0.046875
179,179,1727974012174,0.0048828125,0.081726074,-0.9639282,-0.265625,0.484375,-0.015625
180,180,1727974012214,-0.0041503906,0.08050537,-0.9595337,-0.171875,0.5,-0.203125
181,181,1727974012254,0.00024414062,0.07733154,-0.9590454,-0.28125,0.34375,-0.0625
182,182,1727974012294,-0.0007324219,0.07904053,-0.96588135,-0.234375,0.4375,-0.140625
183,183,1727974012334,0.0014648438,0.081726074,-0.9590454,-0.171875,0.421875,-0.171875
184,184,1727974012374,-0.0017089844,0.07757568,-0.960022,-0.21875,0.59375,-0.15625
185,185,1727974012414,-0.008056641,0.07684326,-0.9614868,-0.1875,0.453125,-0.203125
186,186,1727974012454,-0.0007324219,0.0770874,-0.958313,-0.140625,0.546875,-0.125
187,187,1727974012494,-0.0029296875,0.082214355,-0.96417236,-0.265625,0.46875,-0.09375
188,188,1727974012534,-0.0024414062,0.07879639,-0.96051025,-0.296875,0.484375,-0.234375
189,189,1727974012574,-0.0036621094,0.08050537,-0.9656372,-0.125,0.5,-0.0625
190,190,1727974012614,-0.0014648438,0.08734131,-0.9578247,-0.296875,0.578125,-0.15625
191,191,1727974012654,-0.0009765625,0.08099365,-0.9624634,-0.34375,0.515625,0.0625
192,192,1727974012694,0.0034179688,0.08001709,-0.9607544,-0.03125,0.578125,-0.28125
193,193,1727974012734,0.0031738281,0.0836792,-0.9607544,-0.15625,0.453125,-0.1875
194,194,1727974012774,0.0012207031,0.08270264,-0.9627075,-0.140625,0.40625,-0.125
195,195,1727974012814,-0.0043945312,0.08001709,-0.960022,-0.109375,0.53125,-0.140625
196,196,1727974012854,-0.005859375,0.08660889,-0.95806885,-0.25,0.515625,0.015625
197,197,1727974012894,0.0017089844,0.07977295,-0.9656372,-0.375,0.359375,-0.203125
198,198,1727974012934,-0.010009766,0.07513428,-0.9624634,-0.265625,0.34375,-0.03125
199,199,1727974012974,-0.0012207031,0.0770874,-0.9595337,-0.21875,0.484375,-0.109375
200,200,1727974013014,-0.0012207031,0.08441162,-0.96343994,-0.125,0.546875,0.03125
201,201,1727974013054,-0.0024414062,0.086120605,-0.9614868,-0.21875,0.578125,-0.234375
202,202,1727974013094,-0.0021972656,0.0836792,-0.9614868,-0.265625,0.53125,-0.203125
203,203,1727974013134,-0.00048828125,0.07952881,-0.9644165,-0.28125,0.390625,-0.125
204,204,1727974013174,-0.0012207031,0.08074951,-0.96221924,-0.234375,0.4375,0.046875
205,205,1727974013214,-0.0073242188,0.07952881,-0.95977783,-0.40625,0.484375,-0.203125
206,206,1727974013254,0.001953125,0.078552246,-0.9546509,-0.1875,0.46875,-0.078125
207,207,1727974013294,-0.0073242188,0.078308105,-0.9614868,-0.46875,0.453125,-0.015625
208,208,1727974013334,-0.0007324219,0.077819824,-0.95806885,-0.21875,0.328125,-0.09375
209,209,1727974013374,0.00024414062,0.08294678,-0.9636841,-0.0625,0.421875,-0.15625
210,210,1727974013414,-0.001953125,0.08099365,-0.96099854,-0.15625,0.390625,-0.15625
211,211,1727974013454,0.001953125,0.07537842,-0.95684814,-0.265625,0.390625,-0.078125
212,212,1727974013494,-0.0029296875,0.08392334,-0.9631958,-0.3125,0.484375,-0.03125
213,213,1727974013534,-0.0029296875,0.08050537,-0.960022,-0.234375,0.453125,-0.15625
214,214,1727974013574,-0.0034179688,0.08074951,-0.9595337,-0.296875,0.265625,-0.125
215,215,1727974013614,-0.0017089844,0.08148193,-0.96099854,-0.21875,0.34375,-0.078125
216,216,1727974013654,-0.0014648438,0.07513428,-0.960022,-0.21875,0.453125,-0.03125
217,217,1727974013694,-0.0024414062,0.08465576,-0.95928955,-0.328125,0.453125,-0.109375
218,218,1727974013734,0.0012207031,0.08392334,-0.9651489,-0.359375,0.3125,-0.046875
219,219,1727974013774,-0.0017089844,0.081970215,-0.96173096,-0.203125,0.3125,-0.140625
220,220,1727974013814,-0.005859375,0.07879639,-0.95758057,-0.28125,0.4375,-0.109375
221,221,1727974013854,-0.004638672,0.07879639,-0.9585571,-0.359375,0.359375,-0.0625
222,222,1727974013894,-0.00390625,0.08294678,-0.96173096,-0.3125,0.234375,-0.1875
223,223,1727974013934,-0.0053710938,0.08050537,-0.9668579,-0.421875,0.28125,-0.140625
224,224,1727974013974,-0.0031738281,0.08343506,-0.9639282,-0.359375,0.359375,-0.140625
225,225,1727974014014,0.0009765625,0.08074951,-0.96295166,-0.359375,0.359375,-0.140625
226,226,1727974014054,-0.0009765625,0.07977295,-0.9578247,-0.3125,0.390625,-0.171875
227,227,1727974014094,0.00048828125,0.082214355,-0.96466064,-0.28125,0.25,-0.140625
228,228,1727974014134,-0.00390625,0.074401855,-0.95977783,-0.265625,0.28125,-0.0625
229,229,1727974014174,-0.009521484,0.08148193,-0.96295166,-0.234375,0.265625,-0.125
230,230,1727974014214,-0.0078125,0.086364746,-0.9639282,-0.359375,0.3125,-0.109375
231,231,1727974014254,-0.008300781,0.082214355,-0.9590454,-0.375,0.375,-0.09375
232,232,1727974014294,-0.0036621094,0.08270264,-0.9602661,-0.296875,0.296875,-0.140625
233,233,1727974014334,-0.0029296875,0.08001709,-0.9656372,-0.25,0.296875,-0.125
234,234,1727974014374,-0.0043945312,0.082458496,-0.96295166,-0.34375,0.390625,-0.125
235,235,1727974014414,-0.004638672,0.07904053,-0.9639282,-0.25,0.3125,-0.0625
236,236,1727974014454,0.0021972656,0.077819824,-0.9656372,-0.453125,0.3125,-0.03125
237,237,1727974014494,0.0,0.07684326,-0.9661255,-0.421875,0.234375,-0.15625
238,238,1727974014534,-0.0021972656,0.07977295,-0.9612427,-0.34375,0.28125,-0.125
239,239,1727974014574,-0.0017089844,0.081726074,-0.9619751,-0.390625,0.25,-0.21875
240,240,1727974014614,-0.011230469,0.08319092,-0.96051025,-0.25,0.265625,-0.15625
241,241,1727974014654,-0.008300781,0.08734131,-0.960022,-0.390625,0.109375,-0.046875
242,242,1727974014694,-0.0024414062,0.08001709,-0.9619751,-0.515625,0.171875,-0.0625
243,243,1727974014734,0.004638672,0.07342529,-0.9631958,-0.421875,0.265625,-0.03125
244,244,1727974014774,0.00390625,0.08001709,-0.9624634,-0.453125,0.125,-0.015625
245,245,1727974014814,0.0012207031,0.08392334,-0.9651489,-0.375,0.171875,-0.078125
246,246,1727974014854,-0.0031738281,0.074401855,-0.9649048,-0.53125,0.15625,-0.15625
247,247,1727974014894,0.0017089844,0.0758667,-0.9619751,-0.46875,0.15625,0.015625
248,248,1727974014934,0.0012207031,0.0758667,-0.9624634,-0.359375,0.265625,-0.03125
249,249,1727974014974,0.0026855469,0.07904053,-0.9639282,-0.46875,0.25,-0.234375
250,250,1727974015014,0.0,0.082458496,-0.96099854,-0.328125,0.40625,-0.078125
251,251,1727974015054,0.00048828125,0.07366943,-0.9607544,-0.203125,0.5,0.078125
252,252,1727974015094,-0.0014648438,0.07659912,-0.9614868,-0.328125,0.5625,-0.078125
253,253,1727974015134,-0.0036621094,0.07098389,-0.9578247,-0.203125,0.40625,-0.046875
254,254,1727974015174,-0.0029296875,0.078063965,-0.9607544,-0.203125,0.46875,-0.078125
255,255,1727974015214,0.007080078,0.08270264,-0.96295166,-0.1875,0.546875,-0.125
256,256,1727974015254,-0.001953125,0.08319092,-0.95928955,-0.109375,0.421875,-0.125
257,257,1727974015294,0.0026855469,0.07318115,-0.96099854,-0.046875,0.515625,-0.1875
258,258,1727974015334,-0.001953125,0.07171631,-0.95977783,-0.09375,0.46875,-0.125
259,259,1727974015374,-0.0007324219,0.08343506,-0.9614868,-0.125,0.515625,-0.03125
260,260,1727974015414,-0.0026855469,0.07269287,-0.96099854,-0.25,0.53125,-0.25
261,261,1727974015454,-0.0024414062,0.08026123,-0.96466064,-0.234375,0.546875,-0.125
262,262,1727974015494,-0.0029296875,0.08050537,-0.9595337,-0.265625,0.4375,-0.015625
263,263,1727974015534,-0.0024414062,0.08441162,-0.96295166,-0.171875,0.453125,-0.09375
264,264,1727974015574,0.0012207031,0.07733154,-0.958313,-0.296875,0.453125,-0.09375
265,265,1727974015614,-0.0026855469,0.078308105,-0.960022,-0.34375,0.46875,-0.03125
266,266,1727974015654,0.0034179688,0.0770874,-0.96173096,-0.109375,0.390625,-0.296875
267,267,1727974015694,0.0021972656,0.07269287,-0.96466064,-0.109375,0.46875,0.015625
268,268,1727974015734,-0.0007324219,0.08026123,-0.96221924,-0.328125,0.421875,-0.15625
269,269,1727974015774,-0.0009765625,0.07733154,-0.96710205,-0.1875,0.40625,-0.09375
270,270,1727974015814,-0.00024414062,0.07537842,-0.9663696,-0.203125,0.421875,-0.171875
271,271,1727974015854,-0.009033203,0.07879639,-0.95928955,-0.1875,0.484375,-0.171875
272,272,1727974015894,-0.0017089844,0.07684326,-0.96466064,-0.234375,0.453125,-0.015625
273,273,1727974015934,0.0,0.07757568,-0.95928955,-0.1875,0.59375,-0.09375
274,274,1727974015974,-0.0017089844,0.08148193,-0.960022,-0.171875,0.359375,-0.203125
275,275,1727974016014,0.0,0.07635498,-0.96221924,-0.15625,0.46875,-0.171875
276,276,1727974016054,-0.0017089844,0.07684326,-0.9644165,-0.140625,0.46875,-0.046875
277,277,1727974016094,-0.0048828125,0.07977295,-0.9607544,-0.171875,0.578125,-0.234375
278,278,1727974016134,0.0,0.0758667,-0.96343994,-0.109375,0.5625,-0.015625
279,279,1727974016174,-0.0017089844,0.08099365,-0.9651489,-0.15625,0.609375,-0.21875
280,280,1727974016214,-0.0029296875,0.0770874,-0.95880127,-0.1875,0.359375,-0.140625
281,281,1727974016254,-0.0034179688,0.07318115,-0.96295166,-0.078125,0.34375,-0.0625
282,282,1727974016294,-0.004638672,0.077819824,-0.96099854,-0.421875,0.484375,-0.03125
283,283,1727974016334,-0.0014648438,0.07928467,-0.9624634,-0.171875,0.328125,-0.171875
284,284,1727974016374,0.0017089844,0.07684326,-0.9607544,-0.296875,0.46875,-0.140625
285,285,1727974016414,-0.00048828125,0.078308105,-0.95880127,-0.140625,0.53125,-0.171875
286,286,1727974016454,-0.0075683594,0.077819824,-0.9614868,-0.1875,0.5625,-0.09375
287,287,1727974016494,0.0009765625,0.07977295,-0.95928955,-0.328125,0.578125,-0.03125
288,288,1727974016534,-0.0017089844,0.0758667,-0.96051025,-0.203125,0.5,-0.203125
289,289,1727974016574,-0.0036621094,0.0848999,-0.96051025,-0.171875,0.421875,-0.125
290,290,1727974016614,-0.0061035156,0.07269287,-0.96417236,-0.078125,0.421875,-0.046875
291,291,1727974016654,-0.0034179688,0.082458496,-0.958313,-0.359375,0.359375,-0.140625
292,292,1727974016694,-0.0017089844,0.082214355,-0.9631958,-0.359375,0.46875,-0.0625
293,293,1727974016734,-0.0014648438,0.07171631,-0.9619751,-0.21875,0.234375,-0.078125
294,294,1727974016774,-0.0017089844,0.07684326,-0.96173096,-0.125,0.328125,-0.1875
295,295,1727974016814,-0.0041503906,0.077819824,-0.95635986,-0.25,0.546875,-0.125
296,296,1727974016854,-0.008544922,0.07928467,-0.9651489,-0.296875,0.375,-0.078125
297,297,1727974016894,-0.0012207031,0.07611084,-0.96343994,-0.296875,0.390625,-0.078125
298,298,1727974016934,-0.0041503906,0.070495605,-0.96417236,-0.203125,0.4375,0.0625
299,299,1727974016974,-0.009765625,0.07635498,-0.9602661,-0.265625,0.40625,-0.109375
300,300,1727974017014,-0.0026855469,0.08148193,-0.9636841,-0.1875,0.328125,0.015625
301,301,1727974017054,-0.0026855469,0.08050537,-0.9644165,-0.109375,0.390625,-0.0625
302,302,1727974017094,-0.006591797,0.07879639,-0.96343994,-0.109375,0.25,-0.0625
303,303,1727974017134,-0.004638672,0.07366943,-0.9612427,-0.078125,0.53125,0.0625
304,304,1727974017174,-0.00048828125,0.07733154,-0.9627075,-0.171875,0.296875,-0.140625
305,305,1727974017214,-0.0034179688,0.07562256,-0.95880127,-0.359375,0.265625,-0.03125
306,306,1727974017254,-0.0026855469,0.07757568,-0.96099854,-0.203125,0.46875,-0.046875
307,307,1727974017294,-0.0031738281,0.082458496,-0.96295166,-0.21875,0.421875,-0.25
308,308,1727974017334,0.0024414062,0.07733154,-0.96343994,-0.421875,0.125,0.03125
309,309,1727974017374,-0.0048828125,0.0770874,-0.9602661,-0.3125,0.140625,-0.03125
310,310,1727974017414,-0.0034179688,0.0836792,-0.9661255,-0.234375,0.234375,-0.109375
311,311,1727974017454,-0.0056152344,0.07684326,-0.96051025,-0.421875,0.40625,-0.046875
312,312,1727974017494,-0.0031738281,0.082458496,-0.9649048,-0.28125,0.234375,-0.0625
313,313,1727974017534,-0.005859375,0.07879639,-0.9607544,-0.328125,0.25,-0.015625
314,314,1727974017574,0.001953125,0.074401855,-0.9585571,-0.25,0.203125,-0.046875
315,315,1727974017614,0.0036621094,0.0758667,-0.95513916,-0.359375,0.328125,-0.21875
316,316,1727974017654,-0.0056152344,0.074401855,-0.9631958,-0.265625,0.15625,-0.03125
317,317,1727974017694,0.00048828125,0.07928467,-0.9631958,-0.265625,0.1875,0.0
318,318,1727974017734,0.0063476562,0.07659912,-0.95635986,-0.265625,0.234375,-0.046875
319,319,1727974017774,0.0041503906,0.070007324,-0.9612427,-0.25,0.25,-0.09375
320,320,1727974017814,-0.0014648438,0.07537842,-0.9627075,-0.328125,0.3125,-0.078125
321,321,1727974017854,0.00390625,0.07635498,-0.96466064,-0.40625,0.203125,0.03125
322,322,1727974017894,-0.0053710938,0.08270264,-0.96099854,-0.328125,0.15625,-0.09375
323,323,1727974017934,0.0021972656,0.07879639,-0.96051025,-0.40625,0.078125,-0.0625
324,324,1727974017974,-0.0053710938,0.074645996,-0.96295166,-0.40625,0.265625,-0.03125
325,325,1727974018014,0.0026855469,0.07293701,-0.96881104,-0.375,0.25,-0.078125
326,326,1727974018054,-0.0068359375,0.078308105,-0.9627075,-0.390625,0.4375,-0.125
327,327,1727974018094,0.0007324219,0.078552246,-0.960022,-0.46875,0.421875,-0.140625
328,328,1727974018134,-0.0075683594,0.073913574,-0.9607544,-0.28125,0.25,0.0
329,329,1727974018174,0.0029296875,0.07537842,-0.9644165,-0.40625,0.453125,-0.046875
330,330,1727974018214,0.0024414062,0.07904053,-0.96466064,-0.375,0.234375,-0.046875
331,331,1727974018254,0.0036621094,0.07635498,-0.9612427,-0.375,0.5,-0.140625
332,332,1727974018294,-0.0041503906,0.07635498,-0.96173096,-0.171875,0.5625,0.0
333,333,1727974018334,0.004638672,0.07537842,-0.9636841,-0.3125,0.5,-0.171875
334,334,1727974018374,0.005126953,0.08050537,-0.9607544,-0.375,0.40625,-0.21875
335,335,1727974018414,-0.0026855469,0.074401855,-0.9668579,-0.265625,0.40625,-0.125
336,336,1727974018454,-0.00390625,0.07537842,-0.95880127,-0.1875,0.375,-0.15625
337,337,1727974018494,0.0021972656,0.07635498,-0.95977783,-0.265625,0.4375,-0.125
338,338,1727974018534,0.0087890625,0.0770874,-0.9614868,-0.3125,0.484375,-0.125
339,339,1727974018574,0.008056641,0.07513428,-0.96343994,-0.125,0.453125,-0.015625
340,340,1727974018614,0.0041503906,0.07147217,-0.9578247,-0.078125,0.484375,-0.109375
341,341,1727974018654,0.0029296875,0.070007324,-0.9673462,-0.28125,0.515625,-0.03125
342,342,1727974018694,0.0009765625,0.07928467,-0.9649048,-0.125,0.40625,-0.109375
343,343,1727974018734,-0.0034179688,0.07952881,-0.96051025,-0.296875,0.46875,-0.09375
344,344,1727974018774,0.0,0.078063965,-0.9651489,-0.21875,0.40625,-0.0625
345,345,1727974018814,0.0041503906,0.074401855,-0.9595337,-0.234375,0.53125,-0.015625
346,346,1727974018854,0.0043945312,0.07562256,-0.9673462,-0.171875,0.421875,-0.140625
347,347,1727974018894,-0.0036621094,0.07684326,-0.9595337,-0.25,0.578125,0.0
348,348,1727974018934,0.0021972656,0.07659912,-0.95758057,-0.0625,0.484375,-0.078125
349,349,1727974018974,0.0007324219,0.07879639,-0.9612427,-0.296875,0.546875,-0.109375
350,350,1727974019014,0.0009765625,0.074645996,-0.9639282,-0.203125,0.5625,-0.09375
351,351,1727974019054,-0.00024414062,0.07611084,-0.96295166,-0.171875,0.59375,-0.109375
352,352,1727974019094,-0.0075683594,0.078552246,-0.96173096,-0.203125,0.5,-0.109375
353,353,1727974019134,0.0009765625,0.0758667,-0.96221924,-0.171875,0.421875,-0.171875
354,354,1727974019174,0.0024414062,0.08294678,-0.95880127,-0.296875,0.515625,-0.15625
355,355,1727974019214,0.005126953,0.074157715,-0.9644165,-0.109375,0.4375,-0.109375
356,356,1727974019254,0.00048828125,0.07611084,-0.9612427,-0.296875,0.4375,-0.15625
357,357,1727974019294,0.00024414062,0.08001709,-0.9590454,-0.03125,0.546875,-0.15625
358,358,1727974019334,-0.0007324219,0.07611084,-0.9585571,-0.109375,0.578125,-0.171875
359,359,1727974019374,-0.0041503906,0.07659912,-0.9612427,-0.15625,0.515625,-0.03125
360,360,1727974019414,-0.008056641,0.08099365,-0.9636841,-0.234375,0.421875,-0.09375
361,361,1727974019454,0.0031738281,0.07952881,-0.95684814,-0.109375,0.546875,-0.03125
362,362,1727974019494,0.00024414062,0.081726074,-0.9595337,-0.171875,0.609375,-0.09375
363,363,1727974019534,-0.0063476562,0.07952881,-0.9673462,-0.203125,0.578125,-0.125
364,364,1727974019574,-0.0063476562,0.078063965,-0.9639282,-0.140625,0.5,-0.15625
365,365,1727974019614,0.0017089844,0.0758667,-0.9614868,-0.125,0.578125,-0.0625
366,366,1727974019654,-0.0043945312,0.07757568,-0.96539307,-0.171875,0.609375,-0.125
367,367,1727974019694,0.0007324219,0.07342529,-0.9624634,-0.375,0.515625,-0.078125
368,368,1727974019734,-0.0017089844,0.07635498,-0.956604,-0.0625,0.578125,-0.0625
369,369,1727974019774,-0.0053710938,0.07318115,-0.9607544,-0.171875,0.59375,-0.0625
370,370,1727974019814,-0.010253906,0.07904053,-0.9636841,-0.296875,0.6875,-0.109375
371,371,1727974019854,-0.0068359375,0.08099365,-0.96588135,-0.25,0.453125,-0.265625
372,372,1727974019894,-0.0056152344,0.07611084,-0.9595337,-0.25,0.5,-0.234375
373,373,1727974019934,-0.0043945312,0.07952881,-0.9627075,-0.25,0.390625,-0.171875
374,374,1727974019974,-0.0026855469,0.0848999,-0.96051025,-0.25,0.359375,-0.03125
375,375,1727974020014,-0.0078125,0.08050537,-0.9612427,-0.25,0.546875,-0.09375
376,376,1727974020054,-0.0043945312,0.07635498,-0.96173096,-0.1875,0.265625,-0.125
377,377,1727974020094,-0.0073242188,0.07220459,-0.9651489,-0.375,0.53125,-0.015625
378,378,1727974020134,-0.001953125,0.07733154,-0.9649048,-0.140625,0.40625,-0.1875
379,379,1727974020174,-0.0021972656,0.07733154,-0.958313,-0.28125,0.375,-0.078125
380,380,1727974020214,0.00048828125,0.0770874,-0.9612427,-0.140625,0.4375,-0.09375
381,381,1727974020254,-0.0024414062,0.0758667,-0.96588135,-0.125,0.359375,-0.140625
382,382,1727974020294,-0.0014648438,0.07562256,-0.9673462,-0.1875,0.5,-0.109375
383,383,1727974020334,-0.0053710938,0.08001709,-0.958313,-0.25,0.359375,-0.15625
384,384,1727974020374,-0.0043945312,0.081726074,-0.96051025,-0.234375,0.5,-0.09375
385,385,1727974020414,-0.0043945312,0.08734131,-0.95977783,-0.265625,0.390625,-0.1875
386,386,1727974020454,-0.00390625,0.07293701,-0.97076416,-0.328125,0.484375,-0.09375
387,387,1727974020494,0.0,0.077819824,-0.9614868,-0.34375,0.34375,-0.1875
388,388,1727974020534,-0.0063476562,0.074645996,-0.96173096,-0.25,0.390625,-0.234375
389,389,1727974020574,-0.007080078,0.07513428,-0.9619751,-0.25,0.453125,-0.140625
390,390,1727974020614,-0.00390625,0.07879639,-0.96051025,-0.125,0.5625,-0.234375
391,391,1727974020654,-0.0068359375,0.07537842,-0.95928955,-0.21875,0.484375,-0.125
392,392,1727974020694,-0.00390625,0.08099365,-0.9668579,-0.28125,0.46875,-0.1875
393,393,1727974020734,-0.0041503906,0.07562256,-0.9627075,-0.171875,0.375,-0.109375
394,394,1727974020774,-0.0031738281,0.07659912,-0.9636841,-0.296875,0.46875,-0.046875
395,395,1727974020814,-0.0053710938,0.07366943,-0.95928955,-0.21875,0.34375,-0.078125
396,396,1727974020854,-0.0014648438,0.07952881,-0.9612427,-0.21875,0.34375,-0.140625
397,397,1727974020894,-0.006591797,0.07952881,-0.9614868,-0.28125,0.34375,-0.203125
398,398,1727974020934,-0.0063476562,0.074645996,-0.9607544,-0.328125,0.390625,-0.109375
399,399,1727974020974,-0.0078125,0.07977295,-0.9636841,-0.25,0.4375,-0.125
400,400,1727974021014,-0.0041503906,0.081726074,-0.9627075,-0.1875,0.421875,-0.171875
401,401,1727974021054,-0.0063476562,0.08050537,-0.9644165,-0.140625,0.359375,-0.328125
402,402,1727974021094,-0.0043945312,0.082214355,-0.9590454,-0.203125,0.28125,0.03125
403,403,1727974021134,-0.0056152344,0.07928467,-0.9627075,-0.3125,0.234375,-0.1875
404,404,1727974021174,-0.006591797,0.08026123,-0.96295166,-0.15625,0.328125,-0.09375
405,405,1727974021214,-0.0034179688,0.074645996,-0.9614868,-0.234375,0.3125,-0.09375
406,406,1727974021254,-0.0107421875,0.073913574,-0.96343994,-0.28125,0.40625,-0.0625
407,407,1727974021294,0.0009765625,0.07513428,-0.96295166,-0.25,0.390625,-0.0625
408,408,1727974021334,-0.0024414062,0.08050537,-0.96759033,-0.3125,0.34375,-0.03125
409,409,1727974021374,-0.0029296875,0.07318115,-0.9624634,-0.25,0.125,-0.078125
410,410,1727974021414,-0.0073242188,0.07733154,-0.9639282,-0.234375,0.40625,-0.09375
411,411,1727974021454,-0.0017089844,0.078063965,-0.95880127,-0.40625,0.28125,-0.09375
412,412,1727974021494,-0.0048828125,0.074645996,-0.9651489,-0.34375,0.125,-0.171875
413,413,1727974021534,-0.00048828125,0.081726074,-0.960022,-0.234375,0.265625,0.03125
414,414,1727974021574,-0.0021972656,0.07757568,-0.9663696,-0.25,0.1875,-0.03125
415,415,1727974021614,-0.00390625,0.07757568,-0.9607544,-0.3125,0.234375,-0.125
416,416,1727974021654,-0.0073242188,0.08050537,-0.9607544,-0.265625,0.234375,0.03125
417,417,1727974021694,0.0014648438,0.077819824,-0.960022,-0.28125,0.3125,-0.078125
418,418,1727974021734,-0.001953125,0.08123779,-0.9690552,-0.328125,0.21875,0.0625
419,419,1727974021774,0.0036621094,0.066833496,-0.96539307,-0.34375,0.21875,-0.078125
420,420,1727974021814,-0.0021972656,0.078308105,-0.96759033,-0.375,0.34375,0.0
421,421,1727974021854,0.0031738281,0.07537842,-0.9639282,-0.40625,0.25,-0.078125
422,422,1727974021894,-0.0012207031,0.082214355,-0.9614868,-0.1875,0.234375,-0.171875
423,423,1727974021934,0.0,0.081726074,-0.9690552,-0.34375,0.28125,-0.046875
424,424,1727974021974,-0.0017089844,0.07904053,-0.9590454,-0.484375,0.296875,-0.09375
425,425,1727974022014,0.00024414062,0.082458496,-0.9644165,-0.3125,0.171875,-0.015625
426,426,1727974022054,0.0031738281,0.07269287,-0.9690552,-0.28125,0.34375,-0.09375
427,427,1727974022094,-0.004638672,0.07611084,-0.9656372,-0.296875,0.140625,-0.03125
428,428,1727974022134,0.0007324219,0.074157715,-0.96539307,-0.203125,0.296875,-0.0625
429,429,1727974022174,-0.0075683594,0.0770874,-0.9656372,-0.421875,0.328125,0.0
430,430,1727974022214,-0.001953125,0.078552246,-0.9644165,-0.21875,0.234375,-0.09375
431,431,1727974022254,0.00048828125,0.07318115,-0.9636841,-0.296875,0.40625,-0.0625
432,432,1727974022294,0.004638672,0.07318115,-0.9661255,-0.265625,0.5,-0.171875
433,433,1727974022334,0.0036621094,0.07879639,-0.95806885,-0.3125,0.4375,-0.03125
434,434,1727974022374,-0.0034179688,0.07318115,-0.9690552,-0.203125,0.453125,-0.109375
435,435,1727974022414,-0.0043945312,0.07342529,-0.96173096,-0.328125,0.5625,-0.03125
436,436,1727974022454,-0.0036621094,0.08001709,-0.9644165,-0.171875,0.53125,-0.046875
437,437,1727974022494,0.00048828125,0.07537842,-0.96466064,-0.21875,0.34375,-0.109375
438,438,1727974022534,0.00024414062,0.078308105,-0.96417236,-0.25,0.5,-0.03125
439,439,1727974022574,-0.0017089844,0.07928467,-0.96588135,-0.203125,0.40625,0.015625
440,440,1727974022614,0.00024414062,0.07904053,-0.9661255,-0.21875,0.5625,-0.125
441,441,1727974022654,-0.005126953,0.07733154,-0.9607544,-0.1875,0.328125,-0.078125
442,442,1727974022694,-0.001953125,0.07562256,-0.9602661,-0.21875,0.453125,-0.03125
443,443,1727974022734,-0.0026855469,0.08001709,-0.96051025,-0.25,0.375,-0.1875
444,444,1727974022774,-0.0031738281,0.08099365,-0.9619751,-0.265625,0.453125,-0.03125
445,445,1727974022814,-0.0021972656,0.07977295,-0.9607544,-0.09375,0.484375,-0.09375
446,446,1727974022854,-0.0012207031,0.07757568,-0.9624634,-0.140625,0.515625,-0.328125
447,447,1727974022894,-0.0026855469,0.07757568,-0.96539307,-0.25,0.46875,-0.15625
448,448,1727974022934,0.004638672,0.07928467,-0.96295166,-0.140625,0.59375,-0.09375
449,449,1727974022974,-0.001953125,0.074645996,-0.9607544,-0.140625,0.453125,-0.09375
450,450,1727974023014,-0.0034179688,0.07537842,-0.9639282,-0.203125,0.59375,-0.09375
451,451,1727974023054,-0.0041503906,0.08001709,-0.96466064,-0.109375,0.375,-0.109375
452,452,1727974023094,-0.00024414062,0.07489014,-0.96173096,-0.0625,0.421875,0.015625
453,453,1727974023134,-0.0009765625,0.07977295,-0.9627075,-0.25,0.421875,-0.125
454,454,1727974023174,-0.0021972656,0.078308105,-0.9661255,-0.171875,0.453125,-0.25
455,455,1727974023214,-0.008544922,0.07611084,-0.9663696,-0.109375,0.4375,-0.234375
456,456,1727974023254,0.0021972656,0.0758667,-0.96466064,-0.21875,0.3125,-0.203125
457,457,1727974023294,-0.0034179688,0.074645996,-0.96051025,-0.21875,0.328125,-0.09375
458,458,1727974023334,0.00390625,0.070007324,-0.9578247,-0.21875,0.390625,-0.046875
459,459,1727974023374,-0.005126953,0.07147217,-0.9607544,-0.328125,0.484375,-0.234375
460,460,1727974023414,-0.0034179688,0.07537842,-0.96710205,-0.28125,0.34375,-0.0625
461,461,1727974023454,-0.0017089844,0.07684326,-0.9624634,-0.328125,0.28125,-0.21875
462,462,1727974023494,-0.0014648438,0.078308105,-0.9585571,-0.109375,0.359375,-0.140625
463,463,1727974023534,0.0036621094,0.07537842,-0.96539307,-0.375,0.234375,-0.09375
464,464,1727974023574,-0.0007324219,0.07733154,-0.95880127,-0.28125,0.4375,-0.171875
465,465,1727974023614,-0.0026855469,0.08343506,-0.95977783,-0.234375,0.375,-0.078125
466,466,1727974023654,-0.008056641,0.07659912,-0.9673462,-0.234375,0.609375,-0.046875
467,467,1727974023694,-0.001953125,0.07977295,-0.96466064,-0.140625,0.40625,-0.140625
468,468,1727974023734,-0.0021972656,0.07293701,-0.96539307,-0.25,0.453125,-0.140625
469,469,1727974023774,-0.0009765625,0.074157715,-0.96588135,-0.046875,0.359375,-0.0625
470,470,1727974023814,0.0012207031,0.07684326,-0.9656372,-0.28125,0.453125,-0.046875
471,471,1727974023854,-0.005859375,0.07635498,-0.96173096,-0.1875,0.390625,-0.140625
472,472,1727974023894,0.0034179688,0.07659912,-0.96588135,-0.140625,0.4375,-0.09375
473,473,1727974023934,-0.004638672,0.07220459,-0.9644165,-0.21875,0.375,-0.078125
474,474,1727974023974,0.0056152344,0.081970215,-0.9639282,-0.171875,0.234375,-0.140625
475,475,1727974024014,-0.0007324219,0.077819824,-0.9663696,-0.078125,0.453125,-0.171875
476,476,1727974024054,0.0,0.07489014,-0.96759033,-0.3125,0.46875,-0.0625
477,477,1727974024094,-0.005859375,0.074401855,-0.96466064,-0.265625,0.453125,-0.140625
478,478,1727974024134,-0.0031738281,0.07635498,-0.96661377,-0.3125,0.4375,-0.0625
479,479,1727974024174,-0.0026855469,0.07293701,-0.9619751,-0.140625,0.453125,-0.15625
480,480,1727974024214,-0.0029296875,0.07269287,-0.95880127,-0.109375,0.53125,-0.109375
481,481,1727974024254,-0.0078125,0.073913574,-0.96099854,-0.296875,0.4375,-0.140625
482,482,1727974024294,-0.0068359375,0.0758667,-0.9573364,-0.234375,0.296875,-0.046875
483,483,1727974024334,-0.011230469,0.078552246,-0.95880127,-0.203125,0.34375,-0.09375
484,484,1727974024374,-0.0031738281,0.07659912,-0.960022,-0.15625,0.46875,-0.125
485,485,1727974024414,-0.005126953,0.08026123,-0.958313,-0.125,0.4375,-0.1875
486,486,1727974024454,0.004638672,0.07342529,-0.9661255,-0.171875,0.34375,-0.28125
487,487,1727974024494,-0.0014648438,0.07879639,-0.95928955,-0.25,0.421875,-0.03125
488,488,1727974024534,-0.004638672,0.074645996,-0.95977783,-0.234375,0.390625,-0.125
489,489,1727974024574,-0.0029296875,0.07244873,-0.9636841,-0.203125,0.328125,-0.140625
490,490,1727974024614,-0.0024414062,0.07513428,-0.9636841,-0.25,0.34375,-0.046875
491,491,1727974024654,-0.006591797,0.07269287,-0.95758057,-0.234375,0.40625,-0.125
492,492,1727974024694,-0.0078125,0.08416748,-0.96466064,-0.25,0.359375,-0.046875
493,493,1727974024734,-0.0068359375,0.074157715,-0.96295166,-0.25,0.265625,-0.078125
494,494,1727974024774,0.0031738281,0.08050537,-0.9624634,-0.28125,0.359375,-0.0625
495,495,1727974024814,-0.00024414062,0.078308105,-0.9614868,-0.21875,0.359375,-0.0625
496,496,1727974024854,0.0017089844,0.07928467,-0.9649048,-0.265625,0.359375,-0.15625
497,497,1727974024894,-0.001953125,0.073913574,-0.9619751,-0.265625,0.515625,-0.109375
498,498,1727974024934,-0.0041503906,0.07537842,-0.9651489,-0.3125,0.203125,0.046875
499,499,1727974024974,-0.0034179688,0.07659912,-0.9663696,-0.328125,0.421875,-0.203125
500,500,1727974025014,-0.005126953,0.08026123,-0.9649048,-0.3125,0.25,-0.1875
501,501,1727974025054,-0.001953125,0.078063965,-0.96588135,-0.265625,0.328125,-0.15625
502,502,1727974025094,-0.001953125,0.078308105,-0.9631958,-0.109375,0.40625,-0.125
503,503,1727974025134,-0.0009765625,0.07977295,-0.9614868,-0.3125,0.359375,-0.21875
504,504,1727974025174,-0.009033203,0.0758667,-0.9619751,-0.171875,0.171875,-0.203125
505,505,1727974025214,-0.0048828125,0.07684326,-0.96466064,-0.265625,0.140625,-0.09375
506,506,1727974025254,0.0012207031,0.08294678,-0.9649048,-0.296875,0.296875,-0.0625
507,507,1727974025294,-0.0034179688,0.08148193,-0.9649048,-0.375,0.328125,-0.140625
508,508,1727974025334,-0.0017089844,0.07635498,-0.9644165,-0.265625,0.15625,-0.0625
509,509,1727974025374,-0.0007324219,0.07147217,-0.96710205,-0.28125,0.34375,-0.0625
510,510,1727974025414,0.0009765625,0.07659912,-0.9661255,-0.28125,0.328125,-0.140625
511,511,1727974025454,-0.00048828125,0.07977295,-0.96295166,-0.203125,0.421875,-0.109375
512,512,1727974025494,0.0021972656,0.07366943,-0.9636841,-0.28125,0.3125,-0.125
513,513,1727974025534,0.0017089844,0.073913574,-0.9678345,-0.40625,0.171875,-0.09375
514,514,1727974025574,-0.0017089844,0.078063965,-0.96661377,-0.40625,0.265625,-0.21875
515,515,1727974025614,-0.008544922,0.074401855,-0.9651489,-0.234375,0.390625,0.0
516,516,1727974025654,-0.0014648438,0.07269287,-0.9607544,-0.375,0.203125,-0.078125
517,517,1727974025694,-0.0029296875,0.07977295,-0.9614868,-0.296875,0.328125,0.03125
518,518,1727974025734,-0.008056641,0.070495605,-0.96173096,-0.359375,0.359375,-0.234375
519,519,1727974025774,-0.0007324219,0.07611084,-0.96417236,-0.28125,0.46875,-0.1875
520,520,1727974025814,-0.0024414062,0.07733154,-0.96173096,-0.03125,0.296875,-0.203125
521,521,1727974025854,0.0036621094,0.07928467,-0.96539307,-0.265625,0.59375,-0.046875
522,522,1727974025894,-0.0029296875,0.07977295,-0.96221924,-0.234375,0.453125,-0.046875
523,523,1727974025934,-0.0078125,0.07366943,-0.96343994,-0.203125,0.421875,-0.09375
524,524,1727974025974,0.0031738281,0.070007324,-0.9624634,-0.3125,0.40625,-0.015625
525,525,1727974026014,-0.001953125,0.07562256,-0.96954346,-0.171875,0.390625,0.0
526,526,1727974026054,-0.00048828125,0.078308105,-0.96173096,-0.203125,0.328125,-0.1875
527,527,1727974026094,0.0007324219,0.07684326,-0.9680786,-0.171875,0.484375,-0.078125
528,528,1727974026134,0.00048828125,0.07684326,-0.9578247,-0.25,0.421875,0.015625
529,529,1727974026174,0.0021972656,0.07879639,-0.960022,-0.1875,0.453125,0.0625
530,530,1727974026214,-0.0009765625,0.0836792,-0.96173096,-0.1875,0.46875,-0.1875
531,531,1727974026254,-0.0036621094,0.074401855,-0.9585571,-0.21875,0.40625,-0.234375
532,532,1727974026294,-0.0031738281,0.08026123,-0.96417236,-0.28125,0.46875,-0.078125
533,533,1727974026334,-0.001953125,0.07733154,-0.96051025,-0.125,0.734375,-0.09375
534,534,1727974026374,-0.0041503906,0.074401855,-0.96466064,-0.15625,0.375,-0.09375
535,535,1727974026414,-0.0043945312,0.07537842,-0.9717407,-0.140625,0.53125,-0.0625
536,536,1727974026454,-0.00024414062,0.074645996,-0.96173096,-0.21875,0.390625,-0.09375
537,537,1727974026494,-0.0024414062,0.07537842,-0.9639282,-0.15625,0.4375,0.0625
538,538,1727974026534,-0.0012207031,0.07977295,-0.9649048,-0.21875,0.546875,-0.140625
539,539,1727974026574,0.0009765625,0.074645996,-0.96099854,-0.15625,0.40625,-0.125
540,540,1727974026614,-0.00048828125,0.074645996,-0.9614868,-0.28125,0.484375,-0.09375
541,541,1727974026654,-0.0075683594,0.0848999,-0.96099854,-0.046875,0.390625,-0.109375
542,542,1727974026694,-0.0073242188,0.073913574,-0.9612427,-0.328125,0.375,-0.0625
543,543,1727974026734,-0.0053710938,0.07318115,-0.96221924,-0.234375,0.53125,-0.125
544,544,1727974026774,-0.008056641,0.07611084,-0.96343994,-0.125,0.359375,0.078125
545,545,1727974026814,0.005126953,0.07684326,-0.96954346,-0.21875,0.40625,-0.140625
546,546,1727974026854,-0.0007324219,0.077819824,-0.96539307,-0.21875,0.640625,-0.1875
547,547,1727974026894,-0.005126953,0.07659912,-0.9673462,-0.234375,0.390625,-0.078125
548,548,1727974026934,0.0012207031,0.078552246,-0.9602661,-0.203125,0.40625,-0.1875
549,549,1727974026974,0.0,0.0758667,-0.96417236,-0.328125,0.59375,0.015625
550,550,1727974027014,-0.0017089844,0.07611084,-0.9578247,-0.265625,0.484375,-0.140625
551,551,1727974027054,0.0007324219,0.074157715,-0.95880127,-0.265625,0.421875,-0.078125
552,552,1727974027094,-0.001953125,0.07513428,-0.9661255,-0.21875,0.46875,-0.1875
553,553,1727974027134,-0.0026855469,0.077819824,-0.9614868,-0.265625,0.390625,-0.109375
554,554,1727974027174,-0.01171875,0.07635498,-0.96466064,-0.28125,0.40625,-0.046875
555,555,1727974027214,0.001953125,0.07098389,-0.9602661,-0.15625,0.390625,-0.140625
556,556,1727974027254,-0.0026855469,0.074645996,-0.96588135,-0.234375,0.265625,-0.0625
557,557,1727974027294,-0.0043945312,0.07366943,-0.9624634,-0.296875,0.484375,-0.171875
558,558,1727974027334,0.0053710938,0.078308105,-0.9627075,-0.234375,0.453125,-0.15625
559,559,1727974027374,-0.0053710938,0.074645996,-0.96588135,-0.21875,0.4375,-0.140625
560,560,1727974027414,0.0007324219,0.074157715,-0.9661255,-0.296875,0.421875,-0.171875
561,561,1727974027454,-0.0053710938,0.07562256,-0.96221924,-0.15625,0.34375,-0.09375
562,562,1727974027494,-0.00390625,0.07659912,-0.9680786,-0.125,0.5625,-0.140625
563,563,1727974027534,0.0026855469,0.07220459,-0.9619751,-0.109375,0.421875,-0.046875
564,564,1727974027574,-0.0029296875,0.074645996,-0.9619751,-0.1875,0.359375,-0.15625
565,565,1727974027614,-0.0024414062,0.070739746,-0.9651489,0.046875,0.40625,-0.171875
566,566,1727974027654,-0.0043945312,0.07537842,-0.9678345,-0.3125,0.296875,-0.015625
567,567,1727974027694,0.0014648438,0.078308105,-0.95806885,-0.40625,0.359375,-0.21875
568,568,1727974027734,0.00024414062,0.077819824,-0.958313,-0.203125,0.265625,0.0
569,569,1727974027774,-0.00390625,0.07952881,-0.96588135,-0.296875,0.375,-0.03125
570,570,1727974027814,0.0024414062,0.078063965,-0.9656372,-0.1875,0.328125,-0.171875
571,571,1727974027854,-0.005859375,0.07733154,-0.9631958,-0.25,0.21875,-0.0625
572,572,1727974027894,0.0034179688,0.07220459,-0.9678345,-0.53125,0.296875,-0.03125
573,573,1727974027934,-0.005126953,0.08294678,-0.96588135,-0.25,0.21875,-0.015625
574,574,1727974027974,0.001953125,0.0758667,-0.97076416,-0.375,0.21875,-0.09375
575,575,1727974028014,-0.00390625,0.07220459,-0.9661255,-0.359375,0.40625,-0.140625
576,576,1727974028054,-0.0031738281,0.08123779,-0.9631958,-0.40625,0.46875,-0.078125
577,577,1727974028094,0.001953125,0.07366943,-0.9656372,-0.140625,0.4375,-0.046875
578,578,1727974028134,0.0007324219,0.08123779,-0.96759033,-0.46875,0.28125,-0.109375
579,579,1727974028174,-0.0024414062,0.08074951,-0.9651489,-0.328125,0.328125,0.0
580,580,1727974028214,-0.005126953,0.07489014,-0.96221924,-0.234375,0.40625,-0.09375
581,581,1727974028254,-0.00048828125,0.07879639,-0.9612427,-0.28125,0.515625,-0.109375
582,582,1727974028294,0.0021972656,0.073913574,-0.9668579,-0.171875,0.25,-0.09375
583,583,1727974028334,-0.0009765625,0.07293701,-0.96343994,-0.15625,0.375,-0.28125
584,584,1727974028374,-0.0024414062,0.073913574,-0.96221924,-0.28125,0.359375,-0.09375
585,585,1727974028414,0.005859375,0.074401855,-0.96343994,-0.34375,0.328125,-0.109375
586,586,1727974028454,-0.00024414062,0.07489014,-0.9602661,-0.203125,0.375,-0.15625
587,587,1727974028494,-0.0031738281,0.070495605,-0.960022,-0.375,0.28125,-0.046875
588,588,1727974028534,-0.0021972656,0.07904053,-0.96588135,-0.28125,0.265625,-0.15625
589,589,1727974028574,-0.0017089844,0.07489014,-0.9624634,-0.109375,0.328125,-0.171875
590,590,1727974028614,0.0048828125,0.07489014,-0.9602661,-0.421875,0.5,-0.203125
591,591,1727974028654,-0.0031738281,0.07879639,-0.95977783,-0.25,0.53125,-0.140625
592,592,1727974028694,-0.00024414062,0.07537842,-0.96221924,-0.28125,0.390625,-0.109375
593,593,1727974028734,-0.0029296875,0.07562256,-0.9614868,-0.265625,0.4375,-0.171875
594,594,1727974028774,0.0012207031,0.0758667,-0.9673462,-0.359375,0.421875,-0.015625
595,595,1727974028814,-0.006591797,0.07684326,-0.9636841,-0.234375,0.5,-0.125
596,596,1727974028854,-0.0009765625,0.07269287,-0.9639282,-0.296875,0.40625,-0.125
597,597,1727974028894,-0.0012207031,0.07244873,-0.9651489,-0.28125,0.484375,-0.1875
598,598,1727974028934,-0.0024414062,0.074401855,-0.96588135,-0.25,0.375,-0.078125
599,599,1727974028974,-0.0063476562,0.07635498,-0.9614868,-0.21875,0.53125,-0.234375
600,600,1727974029014,0.0017089844,0.07366943,-0.95928955,-0.125,0.375,-0.109375
601,601,1727974029054,-0.0009765625,0.07928467,-0.96343994,-0.140625,0.5,-0.234375
602,602,1727974029094,-0.0031738281,0.07733154,-0.9644165,-0.3125,0.375,-0.140625
603,603,1727974029134,-0.0041503906,0.07659912,-0.96710205,-0.1875,0.515625,-0.1875
604,604,1727974029174,-0.00390625,0.074157715,-0.9661255,-0.296875,0.453125,0.046875
605,605,1727974029214,-0.0024414062,0.073913574,-0.96173096,-0.1875,0.546875,-0.171875
606,606,1727974029254,-0.0026855469,0.07904053,-0.96343994,-0.21875,0.34375,-0.046875
607,607,1727974029294,0.0014648438,0.0758667,-0.96221924,-0.3125,0.484375,-0.078125
608,608,1727974029334,-0.0053710938,0.07122803,-0.9663696,-0.28125,0.4375,-0.234375
609,609,1727974029374,-0.0043945312,0.07244873,-0.9649048,-0.359375,0.390625,-0.265625
610,610,1727974029414,-0.0024414062,0.073913574,-0.96051025,-0.203125,0.40625,-0.171875
611,611,1727974029454,-0.0056152344,0.07244873,-0.9649048,-0.078125,0.234375,-0.125
612,612,1727974029494,-0.0024414062,0.07659912,-0.9663696,-0.015625,0.421875,-0.0625
613,613,1727974029534,-0.0053710938,0.07318115,-0.9663696,-0.265625,0.453125,-0.28125
614,614,1727974029574,-0.0043945312,0.08001709,-0.9612427,-0.25,0.46875,-0.140625
615,615,1727974029614,-0.001953125,0.07904053,-0.9678345,-0.1875,0.40625,-0.046875
616,616,1727974029654,-0.00024414062,0.07513428,-0.9656372,-0.203125,0.59375,0.0
617,617,1727974029694,-0.0026855469,0.078308105,-0.96661377,-0.171875,0.5,-0.125
618,618,1727974029734,0.0026855469,0.0770874,-0.96539307,-0.25,0.578125,0.015625
619,619,1727974029774,-0.006591797,0.07904053,-0.9636841,-0.171875,0.453125,-0.25
620,620,1727974029814,-0.005859375,0.06976318,-0.95635986,-0.171875,0.375,-0.15625
621,621,1727974029854,-0.0014648438,0.07879639,-0.9663696,-0.265625,0.328125,-0.15625
622,622,1727974029894,-0.0031738281,0.07147217,-0.96417236,-0.21875,0.40625,-0.046875
623,623,1727974029934,-0.0021972656,0.08514404,-0.96466064,-0.203125,0.484375,-0.078125
624,624,1727974029974,-0.0014648438,0.07220459,-0.9656372,-0.21875,0.4375,-0.046875
625,625,1727974030014,-0.0043945312,0.074645996,-0.9661255,-0.15625,0.296875,-0.15625
626,626,1727974030054,-0.0029296875,0.07659912,-0.95758057,-0.1875,0.25,-0.046875
627,627,1727974030094,-0.0007324219,0.07684326,-0.9631958,-0.09375,0.296875,-0.09375
628,628,1727974030134,0.0012207031,0.078063965,-0.9595337,-0.1875,0.296875,-0.15625
629,629,1727974030174,-0.0063476562,0.08074951,-0.9651489,-0.3125,0.46875,-0.0625
630,630,1727974030214,-0.0056152344,0.07659912,-0.9614868,-0.15625,0.40625,-0.109375
631,631,1727974030254,-0.0021972656,0.07611084,-0.96539307,-0.21875,0.359375,-0.078125
632,632,1727974030294,-0.0036621094,0.0770874,-0.96539307,-0.09375,0.4375,-0.171875
633,633,1727974030334,-0.0029296875,0.074157715,-0.9624634,-0.15625,0.421875,-0.25
634,634,1727974030374,-0.0053710938,0.07244873,-0.9697876,-0.1875,0.34375,-0.015625
635,635,1727974030414,-0.0073242188,0.07611084,-0.9680786,-0.234375,0.53125,-0.125
636,636,1727974030454,-0.0007324219,0.078552246,-0.96173096,-0.234375,0.453125,-0.171875
637,637,1727974030494,-0.00024414062,0.07269287,-0.960022,-0.296875,0.265625,-0.078125
638,638,1727974030534,-0.00390625,0.073913574,-0.97076416,-0.1875,0.4375,-0.296875
639,639,1727974030574,0.0007324219,0.074157715,-0.96343994,-0.203125,0.265625,-0.125
640,640,1727974030614,-0.0031738281,0.074645996,-0.9651489,-0.359375,0.3125,-0.078125
641,641,1727974030654,-0.0041503906,0.07684326,-0.9651489,-0.171875,0.40625,-0.171875
642,642,1727974030694,-0.0014648438,0.07489014,-0.9619751,-0.21875,0.34375,-0.09375
643,643,1727974030734,-0.0024414062,0.08026123,-0.96539307,-0.140625,0.40625,-0.1875
644,644,1727974030774,-0.0026855469,0.0770874,-0.9612427,-0.28125,0.421875,-0.046875
645,645,1727974030814,-0.00390625,0.077819824,-0.9607544,-0.21875,0.515625,-0.234375
646,646,1727974030854,-0.00024414062,0.07977295,-0.96710205,-0.265625,0.375,-0.0625
647,647,1727974030894,-0.0024414062,0.08074951,-0.96343994,-0.21875,0.4375,-0.09375
648,648,1727974030934,-0.0009765625,0.07293701,-0.9644165,-0.15625,0.4375,-0.109375
649,649,1727974030974,-0.0053710938,0.08074951,-0.9636841,-0.265625,0.375,0.015625
650,650,1727974031014,-0.0031738281,0.07635498,-0.9627075,-0.265625,0.28125,-0.0625
651,651,1727974031054,-0.001953125,0.078308105,-0.96295166,-0.109375,0.234375,-0.0625
652,652,1727974031094,-0.001953125,0.078063965,-0.9627075,-0.28125,0.171875,-0.03125
653,653,1727974031134,-0.0031738281,0.07537842,-0.96417236,-0.28125,0.265625,-0.109375
654,654,1727974031174,-0.005859375,0.082214355,-0.9624634,-0.234375,0.28125,-0.140625
655,655,1727974031214,-0.0041503906,0.074401855,-0.960022,-0.234375,0.34375,-0.046875
656,656,1727974031254,-0.0021972656,0.07757568,-0.96343994,-0.1875,0.25,-0.015625
657,657,1727974031294,-0.00048828125,0.0770874,-0.9619751,-0.265625,0.265625,-0.078125
658,658,1727974031334,-0.0021972656,0.07684326,-0.96221924,-0.1875,0.28125,0.03125
659,659,1727974031374,-0.005126953,0.073913574,-0.9649048,-0.21875,0.34375,-0.171875
660,660,1727974031414,-0.0029296875,0.07513428,-0.9651489,-0.390625,0.390625,-0.1875
661,661,1727974031454,0.0014648438,0.07537842,-0.9649048,-0.359375,0.15625,-0.0625
662,662,1727974031494,-0.0026855469,0.08270264,-0.9649048,-0.296875,0.359375,-0.0625
663,663,1727974031534,-0.0031738281,0.07293701,-0.9680786,-0.3125,0.34375,0.0
664,664,1727974031574,-0.0056152344,0.07098389,-0.9607544,-0.28125,0.140625,-0.125
665,665,1727974031614,0.0029296875,0.07659912,-0.96051025,-0.296875,0.421875,-0.046875
666,666,1727974031654,-0.001953125,0.07684326,-0.9612427,-0.25,0.46875,-0.140625
667,667,1727974031694,-0.0031738281,0.07562256,-0.96343994,-0.28125,0.25,-0.234375
668,668,1727974031734,0.0,0.073913574,-0.96881104,-0.421875,0.234375,-0.03125
669,669,1727974031774,-0.0075683594,0.07098389,-0.9636841,-0.3125,0.21875,0.0
670,670,1727974031814,0.0,0.07342529,-0.9627075,-0.21875,0.34375,-0.140625
671,671,1727974031854,-0.0061035156,0.07952881,-0.9624634,-0.234375,0.203125,-0.03125
672,672,1727974031894,-0.0043945312,0.070495605,-0.96539307,-0.25,0.21875,-0.078125
673,673,1727974031934,0.005859375,0.07635498,-0.9680786,-0.1875,0.453125,-0.171875
674,674,1727974031974,0.0031738281,0.081970215,-0.9627075,-0.125,0.265625,-0.109375
675,675,1727974032014,0.009765625,0.078552246,-0.9651489,-0.140625,0.453125,-0.203125
676,676,1727974032054,-0.0007324219,0.070251465,-0.96466064,-0.25,0.421875,0.0
677,677,1727974032094,-0.0007324219,0.07122803,-0.96295166,-0.234375,0.4375,-0.125
678,678,1727974032134,-0.0029296875,0.07171631,-0.9619751,-0.09375,0.5,-0.03125
679,679,1727974032174,0.001953125,0.074401855,-0.9661255,-0.046875,0.5,-0.140625
680,680,1727974032214,0.0012207031,0.078552246,-0.97369385,-0.28125,0.4375,-0.109375
681,681,1727974032254,0.0014648438,0.07562256,-0.95880127,-0.28125,0.59375,-0.15625
682,682,1727974032294,0.0017089844,0.07635498,-0.96295166,-0.203125,0.671875,-0.171875
683,683,1727974032334,-0.0009765625,0.07684326,-0.9651489,-0.234375,0.484375,-0.15625
684,684,1727974032374,0.00048828125,0.07635498,-0.9614868,-0.34375,0.359375,-0.109375
685,685,1727974032414,-0.008056641,0.07879639,-0.9644165,-0.140625,0.546875,-0.140625
686,686,1727974032454,0.0014648438,0.07244873,-0.9644165,-0.109375,0.375,-0.125
687,687,1727974032494,-0.0041503906,0.074645996,-0.96417236,-0.125,0.3125,0.046875
688,688,1727974032534,-0.0048828125,0.07611084,-0.9639282,-0.21875,0.328125,-0.0625
689,689,1727974032574,-0.0021972656,0.07513428,-0.9661255,-0.3125,0.484375,0.0
690,690,1727974032614,0.0012207031,0.0758667,-0.9636841,-0.234375,0.421875,-0.0625
691,691,1727974032654,0.0009765625,0.070739746,-0.9656372,-0.171875,0.578125,-0.1875
692,692,1727974032694,-0.0024414062,0.07269287,-0.96417236,-0.203125,0.515625,-0.3125
693,693,1727974032734,-0.0034179688,0.074645996,-0.96343994,-0.109375,0.53125,-0.1875
694,694,1727974032774,0.0036621094,0.08074951,-0.96221924,-0.3125,0.421875,-0.0625
695,695,1727974032814,-0.0026855469,0.074645996,-0.96710205,-0.171875,0.453125,-0.078125
696,696,1727974032854,-0.0021972656,0.074645996,-0.9636841,-0.1875,0.34375,-0.171875
697,697,1727974032894,-0.0014648438,0.07244873,-0.9661255,-0.296875,0.421875,-0.140625
698,698,1727974032934,-0.0063476562,0.07611084,-0.960022,-0.234375,0.375,-0.15625
699,699,1727974032974,-0.0021972656,0.07757568,-0.9614868,-0.328125,0.359375,-0.0625
700,700,1727974033014,-0.0029296875,0.07537842,-0.9614868,-0.125,0.65625,-0.078125
701,701,1727974033054,-0.0017089844,0.08026123,-0.9614868,-0.21875,0.5,-0.15625
702,702,1727974033094,-0.005859375,0.07220459,-0.9619751,-0.046875,0.3125,-0.109375
703,703,1727974033134,-0.0063476562,0.078063965,-0.9639282,-0.28125,0.53125,0.0
704,704,1727974033174,0.0021972656,0.07537842,-0.97076416,-0.203125,0.421875,-0.1875
705,705,1727974033214,-0.0041503906,0.08416748,-0.9595337,-0.25,0.421875,-0.078125
706,706,1727974033254,-0.00024414062,0.07757568,-0.9639282,-0.234375,0.375,-0.125
707,707,1727974033294,-0.005126953,0.07513428,-0.9627075,-0.125,0.546875,-0.28125
708,708,1727974033334,-0.004638672,0.07513428,-0.9639282,-0.3125,0.453125,-0.15625
709,709,1727974033374,-0.008300781,0.078308105,-0.9639282,-0.328125,0.28125,0.046875
710,710,1727974033414,-0.00390625,0.07342529,-0.96221924,-0.140625,0.390625,-0.078125
711,711,1727974033454,-0.0024414062,0.07366943,-0.9624634,-0.1875,0.328125,-0.171875
712,712,1727974033494,-0.005859375,0.08123779,-0.96466064,-0.140625,0.484375,0.0625
713,713,1727974033534,0.0009765625,0.07977295,-0.9678345,-0.21875,0.21875,-0.015625
714,714,1727974033574,-0.0034179688,0.078552246,-0.9636841,-0.328125,0.375,-0.140625
715,715,1727974033614,-0.0007324219,0.07635498,-0.96343994,-0.28125,0.421875,-0.078125
716,716,1727974033654,-0.001953125,0.078063965,-0.95928955,-0.078125,0.296875,-0.203125
717,717,1727974033694,-0.00024414062,0.07757568,-0.960022,-0.296875,0.421875,-0.09375
718,718,1727974033734,-0.00024414062,0.07537842,-0.9680786,-0.328125,0.359375,-0.234375
719,719,1727974033774,-0.0048828125,0.06854248,-0.9651489,-0.28125,0.375,-0.140625
720,720,1727974033814,0.0,0.07635498,-0.9663696,-0.234375,0.390625,-0.203125
721,721,1727974033854,0.00024414062,0.07684326,-0.9585571,-0.296875,0.40625,-0.046875
722,722,1727974033894,0.0043945312,0.07635498,-0.96295166,-0.296875,0.1875,0.015625
723,723,1727974033934,-0.0014648438,0.07269287,-0.9636841,-0.3125,0.375,-0.09375
724,724,1727974033974,-0.0014648438,0.08026123,-0.9668579,-0.234375,0.34375,-0.140625
725,725,1727974034014,-0.0014648438,0.08026123,-0.96710205,-0.203125,0.296875,-0.125
726,726,1727974034054,-0.005126953,0.07879639,-0.9661255,-0.265625,0.328125,0.015625
727,727,1727974034094,-0.00024414062,0.07879639,-0.9651489,-0.28125,0.328125,-0.125
728,728,1727974034134,-0.0053710938,0.070739746,-0.95758057,-0.234375,0.125,-0.125
729,729,1727974034174,-0.0036621094,0.07879639,-0.96173096,-0.1875,0.453125,0.0625
730,730,1727974034214,-0.0043945312,0.07318115,-0.9649048,-0.328125,0.359375,-0.046875
731,731,1727974034254,0.0041503906,0.07244873,-0.9602661,-0.328125,0.359375,-0.140625
732,732,1727974034294,-0.00024414062,0.08050537,-0.96295166,-0.265625,0.34375,-0.203125
733,733,1727974034334,-0.0034179688,0.07659912,-0.9680786,-0.265625,0.296875,-0.046875
734,734,1727974034374,-0.0056152344,0.07757568,-0.96588135,-0.3125,0.25,-0.140625
735,735,1727974034414,-0.0024414062,0.07366943,-0.9612427,-0.40625,0.390625,-0.171875
736,736,1727974034454,-0.001953125,0.07513428,-0.9668579,-0.359375,0.34375,-0.25
737,737,1727974034494,-0.0009765625,0.07098389,-0.96221924,-0.328125,0.359375,-0.078125
738,738,1727974034534,-0.0034179688,0.07537842,-0.96710205,-0.125,0.4375,-0.046875
739,739,1727974034574,-0.0026855469,0.07366943,-0.9631958,-0.15625,0.4375,-0.015625
740,740,1727974034614,-0.00048828125,0.074157715,-0.96173096,-0.328125,0.328125,-0.078125
741,741,1727974034654,-0.004638672,0.07366943,-0.96466064,-0.234375,0.453125,-0.078125
742,742,1727974034694,-0.0048828125,0.07879639,-0.9624634,-0.3125,0.328125,-0.0625
743,743,1727974034734,-0.0034179688,0.07635498,-0.9663696,-0.234375,0.421875,-0.109375
744,744,1727974034774,-0.0024414062,0.078308105,-0.96221924,-0.1875,0.34375,-0.03125
745,745,1727974034814,0.0009765625,0.07635498,-0.9668579,-0.21875,0.46875,-0.1875
746,746,1727974034854,-0.0053710938,0.08074951,-0.9663696,-0.21875,0.34375,-0.171875
747,747,1727974034894,-0.00390625,0.074645996,-0.9627075,-0.1875,0.28125,0.0
748,748,1727974034934,0.0014648438,0.07733154,-0.9644165,-0.171875,0.484375,-0.046875
749,749,1727974034974,-0.004638672,0.07196045,-0.9661255,-0.140625,0.4375,-0.0625
750,750,1727974035014,0.0,0.07489014,-0.96832275,-0.375,0.375,-0.0625
751,751,1727974035054,0.0056152344,0.07513428,-0.96759033,-0.234375,0.34375,-0.0625
752,752,1727974035094,-0.0068359375,0.07928467,-0.9612427,-0.328125,0.296875,-0.03125
753,753,1727974035134,0.00024414062,0.074401855,-0.9644165,-0.09375,0.34375,-0.125
754,754,1727974035174,-0.008300781,0.07977295,-0.9651489,-0.359375,0.296875,-0.03125
755,755,1727974035214,-0.0007324219,0.070495605,-0.9697876,-0.140625,0.421875,-0.09375
756,756,1727974035254,-0.011230469,0.07489014,-0.9636841,-0.125,0.46875,-0.03125
757,757,1727974035294,-0.0014648438,0.07684326,-0.96295166,-0.125,0.265625,-0.234375
758,758,1727974035334,-0.0009765625,0.07928467,-0.96343994,-0.21875,0.140625,0.046875
759,759,1727974035374,-0.0014648438,0.070495605,-0.96466064,-0.296875,0.421875,-0.15625
