,Unnamed: 0,timestamp,accel_x,accel_y,accel_z,gyro_x,gyro_y,gyro_z
0,0,1729374975703,0.27319336,0.05999756,-0.9302368,-1.15625,0.421875,-0.15625
1,1,1729374975743,0.2746582,0.06707764,-0.92071533,-0.640625,-0.21875,0.09375
2,2,1729374975783,0.27612305,0.061462402,-0.9331665,-0.65625,0.5,0.0625
3,3,1729374975823,0.27905273,0.06414795,-0.91851807,-0.78125,0.203125,0.0
4,4,1729374975863,0.28076172,0.066101074,-0.92852783,-0.625,0.421875,-0.09375
5,5,1729374975903,0.27563477,0.059265137,-0.92852783,-0.9375,0.265625,-0.234375
6,6,1729374975943,0.27734375,0.06365967,-0.91973877,-0.359375,0.125,0.015625
7,7,1729374975983,0.2783203,0.05657959,-0.92803955,-0.890625,0.15625,-0.046875
8,8,1729374976023,0.28076172,0.06488037,-0.92266846,-0.46875,-0.25,-0.125
9,9,1729374976063,0.2836914,0.06561279,-0.92974854,-0.640625,-0.375,-0.0625
10,10,1729374976103,0.28076172,0.06097412,-0.927063,-0.796875,-0.234375,-0.140625
11,11,1729374976143,0.28222656,0.06072998,-0.92388916,-0.703125,-0.125,-0.046875
12,12,1729374976183,0.2836914,0.061462402,-0.91607666,-0.671875,0.15625,-0.046875
13,13,1729374976223,0.28295898,0.054870605,-0.923645,-0.984375,0.046875,-0.171875
14,14,1729374976263,0.2800293,0.058044434,-0.9212036,-0.671875,-0.390625,-0.046875
15,15,1729374976303,0.28564453,0.059265137,-0.92266846,-0.46875,0.671875,-0.09375
16,16,1729374976343,0.28393555,0.050476074,-0.9170532,-0.9375,0.40625,-0.03125
17,17,1729374976383,0.28857422,0.054870605,-0.9290161,-0.953125,-0.046875,-0.109375
18,18,1729374976423,0.28564453,0.058532715,-0.923645,-0.6875,0.28125,-0.03125
19,19,1729374976463,0.29052734,0.05340576,-0.9248657,-0.6875,0.515625,-0.046875
20,20,1729374976503,0.2927246,0.053649902,-0.9302368,-0.53125,0.203125,-0.046875
21,21,1729374976543,0.29101562,0.055358887,-0.9170532,-0.40625,0.578125,0.0
22,22,1729374976583,0.28222656,0.05682373,-0.92266846,-0.34375,0.40625,0.0625
23,23,1729374976623,0.28955078,0.046081543,-0.91656494,0.0,0.546875,0.078125
24,24,1729374976663,0.28979492,0.059020996,-0.9248657,-0.171875,0.96875,0.140625
25,25,1729374976703,0.28759766,0.06121826,-0.9282837,0.078125,1.25,0.21875
26,26,1729374976743,0.2836914,0.059753418,-0.928772,0.3125,1.5,0.296875
27,27,1729374976783,0.2824707,0.059265137,-0.9229126,0.75,1.828125,0.234375
28,28,1729374976823,0.27416992,0.05609131,-0.9170532,0.75,2.015625,0.328125
29,29,1729374976863,0.27392578,0.06097412,-0.9204712,0.390625,1.4375,0.296875
30,30,1729374976903,0.2836914,0.06341553,-0.9378052,-0.328125,1.296875,-0.015625
31,31,1729374976943,0.27441406,0.062927246,-0.92852783,-0.296875,1.671875,0.109375
32,32,1729374976983,0.2697754,0.055114746,-0.9089966,0.515625,1.5,0.375
33,33,1729374977023,0.27856445,0.062194824,-0.9260864,0.046875,1.546875,0.234375
34,34,1729374977063,0.27392578,0.066101074,-0.9234009,-0.09375,1.5,0.1875
35,35,1729374977103,0.27807617,0.06512451,-0.9326782,-0.140625,1.359375,0.265625
36,36,1729374977143,0.27075195,0.06365967,-0.9324341,-0.015625,1.375,0.125
37,37,1729374977183,0.27539062,0.058288574,-0.9295044,-0.140625,1.21875,0.03125
38,38,1729374977223,0.27319336,0.06512451,-0.9302368,-0.359375,1.125,-0.03125
39,39,1729374977263,0.26391602,0.06439209,-0.9273071,0.140625,0.828125,0.265625
40,40,1729374977303,0.26635742,0.061706543,-0.9314575,0.078125,0.953125,0.1875
41,41,1729374977343,0.26660156,0.06390381,-0.9265747,-0.046875,0.984375,-0.0625
42,42,1729374977383,0.27270508,0.06072998,-0.93463135,-0.234375,0.90625,0.0
43,43,1729374977423,0.2692871,0.06561279,-0.9273071,0.09375,1.09375,0.0
44,44,1729374977463,0.2685547,0.070495605,-0.93414307,-0.21875,0.9375,0.15625
45,45,1729374977503,0.26513672,0.062927246,-0.9273071,0.0625,0.734375,0.03125
46,46,1729374977543,0.26538086,0.06536865,-0.928772,0.0625,1.0625,0.046875
47,47,1729374977583,0.26391602,0.066345215,-0.92974854,-0.5625,1.171875,0.09375
48,48,1729374977623,0.26391602,0.06463623,-0.927063,-0.046875,0.796875,0.03125
49,49,1729374977663,0.25952148,0.06463623,-0.93536377,0.296875,1.390625,0.25
50,50,1729374977703,0.25878906,0.06854248,-0.92388916,-0.078125,1.15625,0.0625
51,51,1729374977743,0.2668457,0.062927246,-0.9319458,-0.015625,1.078125,0.125
52,52,1729374977783,0.26000977,0.06854248,-0.9343872,-0.234375,0.9375,0.015625
53,53,1729374977823,0.26611328,0.06878662,-0.9273071,0.21875,1.140625,0.171875
54,54,1729374977863,0.26049805,0.06463623,-0.9312134,-0.109375,1.109375,0.109375
55,55,1729374977903,0.25634766,0.06903076,-0.92559814,-0.03125,0.796875,0.1875
56,56,1729374977943,0.25976562,0.06585693,-0.928772,0.078125,0.9375,0.125
57,57,1729374977983,0.2619629,0.07293701,-0.93048096,-0.046875,0.8125,0.109375
58,58,1729374978023,0.25756836,0.06976318,-0.9319458,-0.015625,0.84375,0.0
59,59,1729374978063,0.25561523,0.0680542,-0.93096924,-0.125,1.21875,0.0625
60,60,1729374978103,0.2524414,0.07196045,-0.93048096,-0.15625,1.265625,0.15625
61,61,1729374978143,0.2565918,0.081970215,-0.9343872,-0.234375,0.859375,0.015625
62,62,1729374978183,0.25170898,0.070007324,-0.93170166,-0.140625,0.984375,0.046875
63,63,1729374978223,0.25024414,0.06903076,-0.9348755,-0.359375,1.015625,0.09375
64,64,1729374978263,0.25170898,0.06903076,-0.9343872,-0.421875,0.578125,0.046875
65,65,1729374978303,0.25073242,0.078308105,-0.9351196,0.140625,1.109375,0.34375
66,66,1729374978343,0.25512695,0.07171631,-0.93096924,-0.15625,0.984375,0.0625
67,67,1729374978383,0.2541504,0.07513428,-0.93414307,0.015625,1.015625,0.125
68,68,1729374978423,0.25170898,0.07733154,-0.93756104,-0.1875,0.921875,0.109375
69,69,1729374978463,0.2536621,0.07196045,-0.9277954,0.03125,0.8125,0.21875
70,70,1729374978503,0.25170898,0.070007324,-0.9221802,-0.234375,0.953125,0.125
71,71,1729374978543,0.25341797,0.07928467,-0.9338989,-0.140625,0.765625,0.078125
72,72,1729374978583,0.24951172,0.07244873,-0.92926025,-0.0625,0.890625,0.125
73,73,1729374978623,0.24853516,0.07098389,-0.93096924,0.078125,0.671875,0.125
74,74,1729374978663,0.24853516,0.07928467,-0.92974854,-0.0625,0.90625,0.171875
75,75,1729374978703,0.24975586,0.078552246,-0.9365845,-0.171875,1.0,0.109375
76,76,1729374978743,0.2529297,0.07562256,-0.9378052,-0.375,0.671875,-0.046875
77,77,1729374978783,0.2512207,0.07977295,-0.93292236,-0.40625,0.0625,0.140625
78,78,1729374978823,0.24707031,0.07244873,-0.9338989,-0.46875,0.421875,0.0
79,79,1729374978863,0.2548828,0.074645996,-0.9295044,-0.625,0.21875,-0.125
80,80,1729374978903,0.25634766,0.06756592,-0.9326782,-0.484375,0.015625,-0.0625
81,81,1729374978943,0.24829102,0.08050537,-0.9380493,-0.09375,0.4375,0.078125
82,82,1729374978983,0.2475586,0.07562256,-0.9338989,-0.4375,0.390625,-0.03125
83,83,1729374979023,0.25170898,0.07122803,-0.9326782,-0.28125,0.359375,-0.015625
84,84,1729374979063,0.24829102,0.08270264,-0.9314575,-0.703125,0.265625,-0.09375
85,85,1729374979103,0.25708008,0.0758667,-0.9319458,-0.390625,0.375,-0.09375
86,86,1729374979143,0.2512207,0.0692749,-0.9312134,-0.71875,0.15625,-0.1875
87,87,1729374979183,0.25585938,0.07757568,-0.9336548,-0.59375,-0.09375,-0.0625
88,88,1729374979223,0.24804688,0.07952881,-0.9378052,-0.5,0.25,0.046875
89,89,1729374979263,0.25170898,0.07733154,-0.9282837,-0.65625,0.140625,0.0
90,90,1729374979303,0.25146484,0.07659912,-0.9299927,-0.59375,0.015625,-0.15625
91,91,1729374979343,0.2536621,0.07513428,-0.9336548,-0.53125,0.375,-0.03125
92,92,1729374979383,0.25683594,0.070251465,-0.9343872,-0.546875,0.40625,0.0625
93,93,1729374979423,0.24902344,0.07220459,-0.93048096,-0.6875,0.15625,0.0625
94,94,1729374979463,0.265625,0.081970215,-0.9463501,-1.09375,0.171875,-0.28125
95,95,1729374979503,0.25512695,0.07928467,-0.9326782,-0.6875,0.4375,-0.078125
96,96,1729374979543,0.25268555,0.06512451,-0.9170532,-0.125,0.21875,0.078125
97,97,1729374979583,0.25830078,0.07122803,-0.9360962,-0.46875,0.34375,-0.046875
98,98,1729374979623,0.2529297,0.07098389,-0.9258423,-0.609375,0.15625,0.03125
99,99,1729374979663,0.25756836,0.074645996,-0.93048096,-0.421875,0.265625,-0.03125
100,100,1729374979703,0.2553711,0.066345215,-0.93341064,-0.578125,0.328125,-0.03125
101,101,1729374979743,0.25732422,0.070739746,-0.9234009,-0.34375,0.078125,0.046875
102,102,1729374979783,0.25952148,0.06536865,-0.9212036,-0.625,0.375,-0.046875
103,103,1729374979823,0.25927734,0.07293701,-0.9314575,-0.765625,-0.09375,-0.078125
104,104,1729374979863,0.2626953,0.06951904,-0.9360962,-0.5625,-0.046875,-0.078125
105,105,1729374979903,0.2607422,0.06561279,-0.9365845,-0.453125,0.125,0.0
106,106,1729374979943,0.26342773,0.066589355,-0.93048096,-0.484375,0.0625,-0.03125
107,107,1729374979983,0.26293945,0.06512451,-0.92193604,-0.1875,0.3125,-0.0625
108,108,1729374980023,0.2619629,0.07147217,-0.93292236,-0.46875,0.328125,0.078125
109,109,1729374980063,0.26171875,0.074157715,-0.92803955,-0.375,0.1875,0.015625
110,110,1729374980103,0.27001953,0.07366943,-0.9368286,-0.828125,0.578125,-0.09375
111,111,1729374980143,0.26000977,0.074157715,-0.9380493,-0.4375,0.984375,0.109375
112,112,1729374980183,0.25439453,0.055847168,-0.9151001,0.21875,0.828125,0.125
113,113,1729374980223,0.2680664,0.06951904,-0.9365845,-0.390625,0.765625,0.0
114,114,1729374980263,0.26513672,0.06829834,-0.9343872,-0.390625,0.875,0.046875
115,115,1729374980303,0.25927734,0.06903076,-0.9290161,-0.015625,0.953125,0.203125
116,116,1729374980343,0.25952148,0.06414795,-0.93829346,-0.125,1.0,0.140625
117,117,1729374980383,0.25463867,0.062194824,-0.92681885,-0.078125,0.984375,0.21875
118,118,1729374980423,0.25708008,0.07098389,-0.9302368,-0.359375,0.828125,-0.046875
119,119,1729374980463,0.2529297,0.074157715,-0.9260864,0.171875,0.8125,0.28125
120,120,1729374980503,0.2626953,0.07366943,-0.9307251,-0.109375,1.015625,0.171875
121,121,1729374980543,0.2644043,0.07537842,-0.9314575,-0.1875,0.96875,0.234375
122,122,1729374980583,0.25341797,0.07196045,-0.9336548,0.015625,0.828125,0.03125
123,123,1729374980623,0.25634766,0.070495605,-0.92926025,0.015625,0.796875,0.078125
124,124,1729374980663,0.2614746,0.07220459,-0.93096924,-0.078125,0.96875,0.1875
125,125,1729374980703,0.25610352,0.06561279,-0.92852783,-0.21875,0.6875,0.015625
126,126,1729374980743,0.25756836,0.07659912,-0.9397583,-0.21875,0.515625,0.09375
127,127,1729374980783,0.25097656,0.07098389,-0.9360962,-0.046875,0.984375,0.203125
128,128,1729374980823,0.25146484,0.07122803,-0.92315674,-0.21875,0.625,0.0
129,129,1729374980863,0.25097656,0.06951904,-0.9402466,-0.046875,0.796875,0.046875
130,130,1729374980903,0.25585938,0.07635498,-0.93341064,-0.015625,1.0625,0.0625
131,131,1729374980943,0.2475586,0.07513428,-0.9331665,-0.0625,0.9375,0.234375
132,132,1729374980983,0.2541504,0.07562256,-0.9338989,-0.125,0.90625,0.03125
133,133,1729374981023,0.25073242,0.078552246,-0.9356079,-0.25,0.875,0.078125
134,134,1729374981063,0.25146484,0.0758667,-0.93096924,-0.15625,0.53125,0.140625
135,135,1729374981103,0.24926758,0.07342529,-0.9209595,-0.078125,0.515625,-0.015625
136,136,1729374981143,0.2541504,0.07635498,-0.9356079,-0.234375,0.71875,0.015625
137,137,1729374981183,0.24926758,0.07244873,-0.93951416,-0.265625,0.953125,0.015625
138,138,1729374981223,0.25317383,0.07928467,-0.9365845,-0.234375,0.765625,-0.046875
139,139,1729374981263,0.25,0.077819824,-0.9258423,-0.203125,0.796875,0.09375
140,140,1729374981303,0.24682617,0.07659912,-0.9314575,-0.03125,0.84375,0.09375
141,141,1729374981343,0.25048828,0.07977295,-0.9343872,-0.34375,0.640625,0.0625
142,142,1729374981383,0.24731445,0.07659912,-0.923645,-0.015625,0.875,0.046875
143,143,1729374981423,0.25146484,0.08074951,-0.92681885,-0.109375,0.8125,-0.03125
144,144,1729374981463,0.25024414,0.074401855,-0.93218994,-0.4375,0.765625,0.0625
145,145,1729374981503,0.24707031,0.07635498,-0.9260864,-0.09375,0.515625,-0.015625
146,146,1729374981543,0.2536621,0.07513428,-0.9299927,-0.015625,0.828125,0.109375
147,147,1729374981583,0.24487305,0.07293701,-0.9319458,-0.265625,0.75,0.140625
148,148,1729374981623,0.24389648,0.081970215,-0.93414307,-0.0625,0.84375,0.125
149,149,1729374981663,0.24536133,0.08001709,-0.92974854,-0.078125,0.875,0.0
150,150,1729374981703,0.24829102,0.07952881,-0.9351196,-0.1875,0.625,0.109375
151,151,1729374981743,0.2487793,0.078063965,-0.93414307,-0.421875,0.984375,-0.0625
152,152,1729374981783,0.2475586,0.078063965,-0.9265747,-0.1875,0.84375,0.03125
153,153,1729374981823,0.24365234,0.07513428,-0.93048096,-0.1875,0.8125,0.015625
154,154,1729374981863,0.25170898,0.07928467,-0.93634033,-0.3125,0.65625,0.09375
155,155,1729374981903,0.24511719,0.077819824,-0.9331665,-0.171875,0.828125,0.015625
156,156,1729374981943,0.24780273,0.07659912,-0.9326782,-0.046875,0.6875,0.078125
157,157,1729374981983,0.2434082,0.0836792,-0.93585205,-0.328125,0.640625,0.0
158,158,1729374982023,0.24023438,0.082458496,-0.9351196,-0.234375,0.765625,0.1875
159,159,1729374982063,0.24291992,0.07342529,-0.93048096,-0.140625,0.578125,0.046875
160,160,1729374982103,0.24023438,0.07879639,-0.93292236,-0.3125,0.546875,-0.078125
161,161,1729374982143,0.25073242,0.0848999,-0.9373169,-0.25,0.78125,-0.03125
162,162,1729374982183,0.24169922,0.07684326,-0.92510986,-0.140625,0.515625,-0.09375
163,163,1729374982223,0.25268555,0.07611084,-0.9343872,0.015625,0.8125,0.0625
164,164,1729374982263,0.24609375,0.08001709,-0.9326782,-0.359375,0.78125,-0.03125
165,165,1729374982303,0.24560547,0.07904053,-0.9343872,0.0,0.640625,0.109375
166,166,1729374982343,0.24145508,0.08001709,-0.9373169,-0.171875,0.609375,-0.03125
167,167,1729374982383,0.24609375,0.07562256,-0.9365845,-0.28125,0.515625,0.0625
168,168,1729374982423,0.24731445,0.07489014,-0.9385376,-0.46875,0.5625,0.015625
169,169,1729374982463,0.24023438,0.07928467,-0.92388916,-0.21875,0.375,-0.03125
170,170,1729374982503,0.2475586,0.0758667,-0.93292236,-0.390625,0.625,-0.046875
171,171,1729374982543,0.2409668,0.081970215,-0.9356079,-0.484375,0.46875,0.140625
172,172,1729374982583,0.2487793,0.07635498,-0.93463135,-0.140625,0.28125,0.0625
173,173,1729374982623,0.24145508,0.0770874,-0.93341064,-0.359375,0.453125,-0.03125
174,174,1729374982663,0.24536133,0.0770874,-0.9338989,-0.359375,0.265625,0.03125
175,175,1729374982703,0.2446289,0.07562256,-0.93414307,-0.21875,0.46875,-0.015625
176,176,1729374982743,0.24438477,0.07904053,-0.92974854,-0.34375,0.28125,0.015625
177,177,1729374982783,0.24731445,0.08319092,-0.93536377,-0.390625,0.5625,0.046875
178,178,1729374982823,0.24560547,0.08392334,-0.93878174,-0.46875,0.140625,-0.015625
179,179,1729374982863,0.24291992,0.07928467,-0.93585205,-0.421875,0.5625,-0.0625
180,180,1729374982903,0.24365234,0.08123779,-0.9302368,-0.515625,0.421875,-0.0625
181,181,1729374982943,0.25170898,0.07293701,-0.9402466,-0.5625,0.265625,-0.015625
182,182,1729374982983,0.25073242,0.08001709,-0.93707275,-0.46875,0.53125,0.078125
183,183,1729374983023,0.24047852,0.07904053,-0.9312134,-0.34375,0.578125,-0.203125
184,184,1729374983063,0.24316406,0.07977295,-0.93218994,-0.28125,0.4375,0.015625
185,185,1729374983103,0.24975586,0.08099365,-0.93463135,-0.53125,0.359375,0.046875
186,186,1729374983143,0.25195312,0.07635498,-0.9378052,-0.40625,0.328125,-0.0625
187,187,1729374983183,0.24731445,0.07635498,-0.92510986,-0.453125,0.21875,-0.015625
188,188,1729374983223,0.25341797,0.08050537,-0.9365845,-0.28125,0.484375,0.046875
189,189,1729374983263,0.25219727,0.07659912,-0.93634033,-0.453125,0.171875,0.0
190,190,1729374983303,0.24609375,0.08416748,-0.9302368,-0.40625,0.296875,0.03125
191,191,1729374983343,0.24853516,0.07928467,-0.93048096,-0.40625,0.375,0.03125
192,192,1729374983383,0.25,0.07489014,-0.9324341,-0.46875,0.234375,-0.015625
193,193,1729374983423,0.24853516,0.073913574,-0.9336548,-0.5,0.171875,0.109375
194,194,1729374983463,0.25097656,0.08441162,-0.9326782,-0.484375,0.171875,0.0
195,195,1729374983503,0.24975586,0.08392334,-0.9336548,-0.53125,0.296875,-0.15625
196,196,1729374983543,0.2512207,0.07196045,-0.928772,-0.21875,0.234375,-0.015625
197,197,1729374983583,0.25439453,0.08294678,-0.94366455,-0.890625,0.171875,-0.21875
198,198,1729374983623,0.25048828,0.08099365,-0.9336548,-0.5,0.5,0.0
199,199,1729374983663,0.25170898,0.07147217,-0.92022705,-0.140625,0.5,0.03125
200,200,1729374983703,0.25073242,0.08123779,-0.9351196,-0.640625,0.46875,-0.046875
201,201,1729374983743,0.2524414,0.07757568,-0.93292236,-0.546875,0.40625,-0.015625
202,202,1729374983783,0.25585938,0.081970215,-0.9319458,-0.453125,0.65625,0.078125
203,203,1729374983823,0.25097656,0.077819824,-0.9373169,-0.453125,0.390625,0.03125
204,204,1729374983863,0.24682617,0.07293701,-0.93048096,-0.5,0.40625,-0.078125
205,205,1729374983903,0.25927734,0.07684326,-0.9356079,-0.46875,0.515625,-0.15625
206,206,1729374983943,0.25268555,0.07489014,-0.92926025,-0.234375,0.40625,-0.046875
207,207,1729374983983,0.25854492,0.08001709,-0.9356079,-0.265625,0.375,0.0
208,208,1729374984023,0.24975586,0.07757568,-0.92974854,-0.328125,0.484375,-0.09375
209,209,1729374984063,0.2512207,0.07293701,-0.9312134,-0.34375,0.75,0.03125
210,210,1729374984103,0.2536621,0.07684326,-0.9302368,-0.328125,0.8125,0.09375
211,211,1729374984143,0.25048828,0.07611084,-0.93292236,-0.28125,0.671875,0.0625
212,212,1729374984183,0.25561523,0.07366943,-0.92974854,-0.15625,0.5625,0.109375
213,213,1729374984223,0.25170898,0.07366943,-0.9343872,-0.15625,0.734375,0.03125
214,214,1729374984263,0.25341797,0.08099365,-0.93463135,-0.203125,0.71875,0.109375
215,215,1729374984303,0.25610352,0.081970215,-0.9307251,-0.1875,0.734375,0.109375
216,216,1729374984343,0.25097656,0.077819824,-0.9343872,-0.234375,0.796875,0.015625
217,217,1729374984383,0.25268555,0.07757568,-0.9378052,-0.296875,0.953125,0.015625
218,218,1729374984423,0.24633789,0.077819824,-0.92437744,0.0625,0.59375,0.1875
219,219,1729374984463,0.24902344,0.073913574,-0.9390259,-0.046875,1.046875,0.0
220,220,1729374984503,0.25463867,0.07513428,-0.9312134,-0.3125,0.671875,0.03125
221,221,1729374984543,0.2541504,0.08148193,-0.93414307,0.125,0.84375,0.25
222,222,1729374984583,0.2524414,0.08441162,-0.9380493,-0.171875,0.703125,0.28125
223,223,1729374984623,0.24316406,0.074645996,-0.9343872,-0.25,0.609375,-0.03125
224,224,1729374984663,0.2529297,0.08001709,-0.9336548,-0.421875,0.765625,0.109375
225,225,1729374984703,0.2524414,0.07757568,-0.9295044,-0.09375,0.59375,0.046875
226,226,1729374984743,0.25097656,0.08099365,-0.9338989,-0.265625,0.84375,0.171875
227,227,1729374984783,0.2446289,0.07977295,-0.9368286,-0.171875,0.703125,0.109375
228,228,1729374984823,0.25048828,0.08392334,-0.93756104,-0.1875,0.6875,0.0625
229,229,1729374984863,0.24584961,0.082214355,-0.9307251,-0.03125,0.59375,-0.078125
230,230,1729374984903,0.24707031,0.07977295,-0.92974854,-0.21875,0.6875,-0.15625
231,231,1729374984943,0.2565918,0.08294678,-0.9338989,-0.234375,0.546875,0.015625
232,232,1729374984983,0.25439453,0.07635498,-0.93096924,-0.171875,0.53125,0.015625
233,233,1729374985023,0.2475586,0.08123779,-0.93585205,-0.09375,0.78125,0.078125
234,234,1729374985063,0.24365234,0.08538818,-0.9348755,-0.265625,0.734375,0.0625
235,235,1729374985103,0.24951172,0.08050537,-0.9295044,-0.359375,0.5625,-0.03125
236,236,1729374985143,0.24047852,0.08416748,-0.9348755,-0.125,0.84375,-0.03125
237,237,1729374985183,0.24194336,0.08392334,-0.9360962,-0.375,0.71875,0.09375
238,238,1729374985223,0.24926758,0.07879639,-0.9365845,-0.328125,0.484375,0.015625
239,239,1729374985263,0.24243164,0.085876465,-0.93414307,-0.03125,0.8125,0.015625
240,240,1729374985303,0.2475586,0.081726074,-0.92974854,-0.109375,0.65625,0.0625
241,241,1729374985343,0.24072266,0.08416748,-0.9302368,-0.1875,0.671875,0.0625
242,242,1729374985383,0.25317383,0.082214355,-0.9368286,-0.21875,0.59375,0.09375
243,243,1729374985423,0.23876953,0.08050537,-0.9307251,-0.15625,0.53125,0.046875
244,244,1729374985463,0.24169922,0.0836792,-0.92974854,-0.21875,0.671875,0.046875
245,245,1729374985503,0.2397461,0.08856201,-0.93341064,-0.21875,0.671875,0.109375
246,246,1729374985543,0.24829102,0.081970215,-0.93170166,-0.1875,0.671875,0.046875
247,247,1729374985583,0.24609375,0.08465576,-0.9290161,-0.203125,0.671875,0.015625
248,248,1729374985623,0.24169922,0.08074951,-0.93585205,-0.28125,0.6875,0.0
249,249,1729374985663,0.24316406,0.08441162,-0.93341064,-0.359375,0.578125,-0.03125
250,250,1729374985703,0.24511719,0.081970215,-0.9314575,-0.375,0.71875,-0.109375
251,251,1729374985743,0.2397461,0.09100342,-0.9402466,-0.21875,0.546875,0.03125
252,252,1729374985783,0.24804688,0.08734131,-0.93292236,-0.25,0.625,0.015625
253,253,1729374985823,0.24389648,0.082214355,-0.9299927,-0.25,0.59375,0.15625
254,254,1729374985863,0.24389648,0.0836792,-0.9360962,-0.421875,0.640625,0.015625
255,255,1729374985903,0.24316406,0.07659912,-0.9319458,-0.171875,0.546875,0.1875
256,256,1729374985943,0.23901367,0.08270264,-0.9390259,-0.375,0.453125,-0.0625
257,257,1729374985983,0.23413086,0.08734131,-0.9380493,-0.40625,0.53125,0.0625
258,258,1729374986023,0.24267578,0.08880615,-0.928772,-0.421875,0.40625,0.03125
259,259,1729374986063,0.24682617,0.08392334,-0.9380493,-0.4375,0.296875,0.015625
260,260,1729374986103,0.23999023,0.08685303,-0.93927,-0.171875,0.71875,0.078125
261,261,1729374986143,0.24291992,0.09466553,-0.93341064,-0.359375,0.515625,0.125
262,262,1729374986183,0.24267578,0.08392334,-0.9343872,-0.265625,0.640625,0.15625
263,263,1729374986223,0.24389648,0.08856201,-0.9368286,-0.3125,0.546875,-0.078125
264,264,1729374986263,0.24023438,0.08758545,-0.9260864,-0.171875,0.484375,-0.015625
265,265,1729374986303,0.24023438,0.081726074,-0.9336548,-0.4375,0.40625,-0.03125
266,266,1729374986343,0.2446289,0.08343506,-0.9326782,-0.328125,0.484375,0.015625
267,267,1729374986383,0.24023438,0.08465576,-0.9365845,-0.4375,0.3125,0.0
268,268,1729374986423,0.24291992,0.08514404,-0.9302368,-0.375,0.34375,0.0
269,269,1729374986463,0.24414062,0.090026855,-0.9307251,-0.234375,0.359375,0.046875
270,270,1729374986503,0.24072266,0.08782959,-0.9356079,-0.421875,0.453125,-0.125
271,271,1729374986543,0.2409668,0.08001709,-0.93829346,-0.46875,0.296875,-0.03125
272,272,1729374986583,0.24072266,0.08319092,-0.9356079,-0.375,0.359375,0.015625
273,273,1729374986623,0.24487305,0.08660889,-0.93829346,-0.421875,0.265625,0.0
274,274,1729374986663,0.24511719,0.085876465,-0.9326782,-0.4375,0.34375,0.0
275,275,1729374986703,0.24511719,0.08905029,-0.9324341,-0.453125,0.359375,-0.046875
276,276,1729374986743,0.25073242,0.08099365,-0.93096924,-0.53125,0.390625,0.0
277,277,1729374986783,0.24560547,0.08758545,-0.9295044,-0.359375,0.109375,0.0625
278,278,1729374986823,0.25097656,0.08392334,-0.9277954,-0.296875,0.5,0.015625
279,279,1729374986863,0.24731445,0.08319092,-0.93463135,-0.640625,0.34375,-0.1875
280,280,1729374986903,0.24267578,0.08026123,-0.9282837,-0.234375,0.25,-0.078125
281,281,1729374986943,0.24243164,0.08734131,-0.93414307,-0.125,0.734375,0.078125
282,282,1729374986983,0.24389648,0.08905029,-0.9351196,-0.6875,0.359375,-0.046875
283,283,1729374987023,0.24389648,0.08441162,-0.9302368,-0.1875,0.515625,0.015625
284,284,1729374987063,0.24609375,0.08734131,-0.93218994,-0.5,0.328125,-0.0625
285,285,1729374987103,0.23901367,0.07977295,-0.9295044,-0.53125,0.25,-0.15625
286,286,1729374987143,0.24365234,0.081726074,-0.93756104,-0.65625,0.3125,0.015625
287,287,1729374987183,0.24902344,0.07977295,-0.93878174,-0.4375,0.03125,0.0
288,288,1729374987223,0.25048828,0.0848999,-0.9343872,-0.453125,0.203125,-0.015625
289,289,1729374987263,0.25048828,0.081726074,-0.9319458,-0.375,0.296875,0.046875
290,290,1729374987303,0.24584961,0.08734131,-0.9307251,-0.546875,0.25,-0.046875
291,291,1729374987343,0.24780273,0.08001709,-0.9314575,-0.46875,0.265625,-0.0625
292,292,1729374987383,0.24829102,0.07952881,-0.93292236,-0.453125,0.1875,0.0625
293,293,1729374987423,0.2541504,0.08343506,-0.9265747,-0.34375,0.171875,-0.078125
294,294,1729374987463,0.24536133,0.08856201,-0.9277954,-0.375,0.234375,0.078125
295,295,1729374987503,0.25097656,0.08099365,-0.9324341,-0.390625,0.390625,-0.03125
296,296,1729374987543,0.24853516,0.081726074,-0.92681885,-0.328125,0.515625,0.203125
297,297,1729374987583,0.24487305,0.07537842,-0.92852783,-0.390625,0.5625,0.0625
298,298,1729374987623,0.24853516,0.077819824,-0.9365845,-0.5,0.25,-0.03125
299,299,1729374987663,0.25463867,0.074645996,-0.93463135,-0.3125,0.65625,0.0
300,300,1729374987703,0.25585938,0.081726074,-0.92559814,-0.5,0.671875,0.015625
301,301,1729374987743,0.2548828,0.08270264,-0.93218994,-0.515625,0.453125,-0.09375
302,302,1729374987783,0.24951172,0.07513428,-0.9338989,-0.03125,0.859375,-0.046875
303,303,1729374987823,0.2512207,0.07684326,-0.9302368,-0.34375,0.84375,-0.03125
304,304,1729374987863,0.25317383,0.07757568,-0.9299927,-0.171875,0.75,0.046875
305,305,1729374987903,0.24975586,0.082458496,-0.93292236,-0.34375,0.65625,0.0
306,306,1729374987943,0.25195312,0.08123779,-0.9348755,-0.078125,0.734375,0.125
307,307,1729374987983,0.24780273,0.0770874,-0.9312134,-0.140625,0.671875,0.0625
308,308,1729374988023,0.25073242,0.082458496,-0.9373169,-0.375,0.625,0.015625
309,309,1729374988063,0.2524414,0.08001709,-0.92974854,-0.1875,0.59375,0.203125
310,310,1729374988103,0.24682617,0.08099365,-0.93048096,-0.3125,0.75,0.125
311,311,1729374988143,0.24731445,0.08392334,-0.927063,-0.296875,0.703125,0.15625
312,312,1729374988183,0.24536133,0.08099365,-0.9260864,-0.140625,0.765625,0.0
313,313,1729374988223,0.25170898,0.07757568,-0.9360962,-0.40625,0.734375,0.09375
314,314,1729374988263,0.25170898,0.07977295,-0.93634033,-0.234375,0.671875,0.0625
315,315,1729374988303,0.24975586,0.08416748,-0.93218994,-0.046875,0.734375,0.109375
316,316,1729374988343,0.24487305,0.08831787,-0.9373169,-0.3125,0.65625,0.15625
317,317,1729374988383,0.25,0.081726074,-0.93170166,-0.171875,0.515625,0.109375
318,318,1729374988423,0.24975586,0.078552246,-0.93218994,-0.25,0.703125,0.203125
319,319,1729374988463,0.2434082,0.081726074,-0.9348755,-0.21875,0.71875,0.09375
320,320,1729374988503,0.2446289,0.08074951,-0.925354,0.1875,0.6875,0.21875
321,321,1729374988543,0.24633789,0.086364746,-0.9380493,-0.109375,0.96875,0.078125
322,322,1729374988583,0.2434082,0.08441162,-0.92803955,-0.328125,0.671875,0.125
323,323,1729374988623,0.24291992,0.08831787,-0.93878174,-0.203125,0.75,0.0
324,324,1729374988663,0.24438477,0.08319092,-0.9380493,-0.140625,0.78125,0.09375
325,325,1729374988703,0.24023438,0.082214355,-0.93585205,-0.203125,0.78125,0.03125
326,326,1729374988743,0.24633789,0.082458496,-0.9348755,-0.34375,0.796875,-0.015625
327,327,1729374988783,0.24658203,0.08441162,-0.927063,-0.09375,0.546875,0.15625
328,328,1729374988823,0.24511719,0.08905029,-0.9324341,-0.21875,0.5625,-0.015625
329,329,1729374988863,0.2475586,0.08782959,-0.9385376,-0.1875,0.625,-0.0625
330,330,1729374988903,0.2475586,0.08538818,-0.9336548,-0.234375,0.671875,0.046875
331,331,1729374988943,0.24584961,0.08660889,-0.93341064,-0.109375,0.5625,0.078125
332,332,1729374988983,0.24584961,0.07879639,-0.9378052,-0.296875,0.625,0.125
333,333,1729374989023,0.24609375,0.08905029,-0.9368286,-0.21875,0.765625,0.0
334,334,1729374989063,0.24682617,0.08685303,-0.9348755,-0.15625,0.703125,-0.0625
335,335,1729374989103,0.24121094,0.08441162,-0.9373169,-0.25,0.609375,0.109375
336,336,1729374989143,0.2421875,0.090026855,-0.9343872,-0.125,0.671875,0.0625
337,337,1729374989183,0.24658203,0.08880615,-0.9314575,-0.28125,0.59375,0.0625
338,338,1729374989223,0.24682617,0.08758545,-0.93927,-0.203125,0.78125,0.0
339,339,1729374989263,0.2421875,0.0836792,-0.92803955,-0.34375,0.765625,0.046875
340,340,1729374989303,0.24487305,0.081970215,-0.942688,-0.234375,0.578125,-0.015625
341,341,1729374989343,0.24072266,0.090270996,-0.93218994,-0.140625,0.859375,0.265625
342,342,1729374989383,0.24365234,0.086364746,-0.9307251,-0.109375,0.640625,0.03125
343,343,1729374989423,0.24731445,0.08734131,-0.93707275,-0.234375,0.875,0.140625
344,344,1729374989463,0.2409668,0.08831787,-0.93707275,-0.296875,0.71875,0.171875
345,345,1729374989503,0.24145508,0.08856201,-0.9307251,-0.125,0.546875,0.0625
346,346,1729374989543,0.24194336,0.089782715,-0.9307251,-0.3125,0.703125,-0.109375
347,347,1729374989583,0.23876953,0.08929443,-0.9336548,-0.15625,0.65625,0.0625
348,348,1729374989623,0.24023438,0.08709717,-0.93341064,-0.265625,0.765625,0.0
349,349,1729374989663,0.24023438,0.08880615,-0.9351196,-0.09375,0.71875,0.125
350,350,1729374989703,0.23901367,0.093444824,-0.9336548,-0.296875,0.515625,0.015625
351,351,1729374989743,0.24194336,0.0927124,-0.9307251,-0.359375,0.65625,0.140625
352,352,1729374989783,0.24536133,0.09124756,-0.9314575,-0.234375,0.625,0.03125
353,353,1729374989823,0.24511719,0.08709717,-0.9360962,-0.234375,0.53125,0.125
354,354,1729374989863,0.23803711,0.08392334,-0.9348755,-0.28125,0.609375,-0.078125
355,355,1729374989903,0.24047852,0.08441162,-0.9348755,-0.28125,0.609375,0.0
356,356,1729374989943,0.2421875,0.08807373,-0.94122314,-0.3125,0.703125,0.125
357,357,1729374989983,0.23901367,0.08929443,-0.9314575,-0.078125,0.640625,0.109375
358,358,1729374990023,0.23925781,0.08319092,-0.9343872,-0.234375,0.5625,-0.125
359,359,1729374990063,0.23339844,0.09490967,-0.94195557,-0.515625,0.515625,-0.03125
360,360,1729374990103,0.23608398,0.08905029,-0.923645,-0.28125,0.28125,0.015625
361,361,1729374990143,0.23535156,0.086120605,-0.9368286,-0.28125,0.671875,0.03125
362,362,1729374990183,0.23950195,0.08905029,-0.9336548,-0.390625,0.5625,-0.015625
363,363,1729374990223,0.23291016,0.08880615,-0.93951416,-0.140625,0.65625,0.1875
364,364,1729374990263,0.23999023,0.09588623,-0.93292236,-0.1875,0.578125,0.046875
365,365,1729374990303,0.23828125,0.0836792,-0.93048096,-0.34375,0.640625,0.046875
366,366,1729374990343,0.2368164,0.08734131,-0.9373169,-0.34375,0.46875,0.046875
367,367,1729374990383,0.2434082,0.08758545,-0.93414307,-0.34375,0.375,0.171875
368,368,1729374990423,0.24609375,0.08709717,-0.93707275,-0.328125,0.3125,-0.015625
369,369,1729374990463,0.23779297,0.08538818,-0.93536377,-0.34375,0.359375,0.015625
370,370,1729374990503,0.24121094,0.090026855,-0.9336548,-0.28125,0.390625,-0.03125
371,371,1729374990543,0.23852539,0.08758545,-0.92974854,-0.453125,0.453125,-0.0625
372,372,1729374990583,0.24511719,0.0848999,-0.9343872,-0.375,0.5,0.03125
373,373,1729374990623,0.24438477,0.08294678,-0.9378052,-0.328125,0.234375,0.078125
374,374,1729374990663,0.23925781,0.093444824,-0.93341064,-0.40625,0.34375,0.03125
375,375,1729374990703,0.24536133,0.09173584,-0.9351196,-0.515625,0.203125,0.0
376,376,1729374990743,0.24194336,0.08880615,-0.9307251,-0.328125,0.40625,0.078125
377,377,1729374990783,0.24194336,0.081970215,-0.93878174,-0.484375,0.203125,-0.015625
378,378,1729374990823,0.24047852,0.08441162,-0.93414307,-0.390625,0.40625,-0.109375
379,379,1729374990863,0.24267578,0.08905029,-0.9360962,-0.65625,0.09375,-0.015625
380,380,1729374990903,0.25,0.09100342,-0.9365845,-0.421875,0.34375,-0.0625
381,381,1729374990943,0.2368164,0.08758545,-0.9258423,-0.546875,0.34375,-0.046875
382,382,1729374990983,0.24633789,0.082458496,-0.9343872,-0.609375,0.21875,-0.125
383,383,1729374991023,0.24853516,0.086120605,-0.9343872,-0.3125,0.359375,0.078125
384,384,1729374991063,0.24682617,0.085876465,-0.93536377,-0.359375,0.515625,0.109375
385,385,1729374991103,0.24023438,0.086364746,-0.93536377,-0.421875,0.453125,-0.078125
386,386,1729374991143,0.24487305,0.08734131,-0.92974854,-0.484375,0.390625,0.046875
387,387,1729374991183,0.24023438,0.08392334,-0.93048096,-0.53125,0.140625,-0.125
388,388,1729374991223,0.24804688,0.08050537,-0.9302368,-0.40625,0.1875,-0.015625
389,389,1729374991263,0.24414062,0.08441162,-0.9360962,-0.5,0.125,0.0
390,390,1729374991303,0.24658203,0.081726074,-0.9365845,-0.5,0.1875,0.0
391,391,1729374991343,0.24267578,0.0836792,-0.9336548,-0.4375,0.21875,-0.015625
392,392,1729374991383,0.2475586,0.08026123,-0.9277954,-0.515625,0.328125,-0.140625
393,393,1729374991423,0.2487793,0.085876465,-0.9331665,-0.421875,0.40625,0.015625
394,394,1729374991463,0.24584961,0.081970215,-0.9324341,-0.4375,0.40625,-0.046875
395,395,1729374991503,0.25146484,0.07928467,-0.9343872,-0.421875,0.296875,0.09375
396,396,1729374991543,0.25,0.0848999,-0.9312134,-0.359375,0.53125,0.15625
397,397,1729374991583,0.24536133,0.08001709,-0.9314575,-0.265625,0.59375,0.125
398,398,1729374991623,0.24560547,0.0848999,-0.9326782,-0.359375,0.578125,0.0625
399,399,1729374991663,0.2434082,0.09100342,-0.92755127,-0.21875,0.578125,-0.015625
400,400,1729374991703,0.25341797,0.08514404,-0.9246216,-0.0625,0.796875,0.015625
401,401,1729374991743,0.24609375,0.08660889,-0.93292236,-0.359375,0.921875,0.140625
402,402,1729374991783,0.24389648,0.09051514,-0.92510986,0.03125,0.796875,0.203125
403,403,1729374991823,0.24389648,0.090026855,-0.9356079,-0.15625,1.078125,0.171875
404,404,1729374991863,0.24536133,0.089782715,-0.92974854,-0.15625,0.796875,0.265625
405,405,1729374991903,0.2475586,0.086120605,-0.9343872,0.0,0.796875,0.21875
406,406,1729374991943,0.2397461,0.08758545,-0.9338989,-0.234375,0.65625,0.1875
407,407,1729374991983,0.2475586,0.08026123,-0.9312134,-0.40625,0.59375,0.046875
408,408,1729374992023,0.24853516,0.08880615,-0.94000244,-0.4375,0.8125,0.078125
409,409,1729374992063,0.24829102,0.08538818,-0.9273071,-0.109375,0.53125,0.078125
410,410,1729374992103,0.24536133,0.090026855,-0.93170166,-0.21875,0.703125,-0.0625
411,411,1729374992143,0.24438477,0.08831787,-0.93463135,-0.28125,0.796875,0.078125
412,412,1729374992183,0.24511719,0.08880615,-0.93170166,0.0,0.6875,0.03125
413,413,1729374992223,0.24438477,0.08538818,-0.93414307,-0.21875,0.84375,-0.03125
414,414,1729374992263,0.24194336,0.08880615,-0.928772,-0.21875,0.765625,0.03125
415,415,1729374992303,0.24536133,0.08514404,-0.9351196,-0.1875,0.65625,0.0
416,416,1729374992343,0.23852539,0.08758545,-0.93218994,-0.28125,0.5625,0.046875
417,417,1729374992383,0.24047852,0.08441162,-0.9290161,-0.125,0.5625,0.046875
418,418,1729374992423,0.2475586,0.08905029,-0.9360962,-0.328125,0.65625,0.0625
419,419,1729374992463,0.23876953,0.08685303,-0.9312134,-0.171875,0.59375,0.0
420,420,1729374992503,0.2434082,0.08734131,-0.94000244,-0.34375,0.59375,0.0625
421,421,1729374992543,0.24487305,0.08880615,-0.9365845,-0.140625,0.734375,0.078125
422,422,1729374992583,0.24511719,0.07977295,-0.92437744,-0.359375,0.71875,0.046875
423,423,1729374992623,0.24975586,0.08929443,-0.9331665,-0.328125,0.765625,0.046875
424,424,1729374992663,0.24267578,0.09490967,-0.93536377,-0.15625,0.765625,0.078125
425,425,1729374992703,0.23999023,0.09539795,-0.93463135,-0.203125,0.828125,0.109375
426,426,1729374992743,0.23901367,0.08880615,-0.9378052,-0.125,0.84375,0.09375
427,427,1729374992783,0.23950195,0.08807373,-0.9356079,-0.375,0.71875,-0.015625
428,428,1729374992823,0.24047852,0.08905029,-0.9343872,0.015625,0.59375,0.109375
429,429,1729374992863,0.24487305,0.08831787,-0.92926025,-0.21875,0.71875,0.109375
430,430,1729374992903,0.23510742,0.08856201,-0.9338989,-0.1875,0.578125,-0.015625
431,431,1729374992943,0.2409668,0.09051514,-0.9365845,-0.1875,0.625,0.046875
432,432,1729374992983,0.23535156,0.09710693,-0.93218994,-0.140625,0.53125,0.0625
433,433,1729374993023,0.24072266,0.08856201,-0.9331665,-0.265625,0.71875,0.078125
434,434,1729374993063,0.23828125,0.0914917,-0.9365845,-0.203125,0.640625,0.09375
435,435,1729374993103,0.24121094,0.09588623,-0.9356079,-0.34375,0.59375,0.109375
436,436,1729374993143,0.23852539,0.08685303,-0.9351196,-0.125,0.484375,-0.03125
437,437,1729374993183,0.23608398,0.08734131,-0.93292236,-0.265625,0.515625,0.0
438,438,1729374993223,0.23901367,0.09320068,-0.9299927,-0.25,0.59375,-0.109375
439,439,1729374993263,0.23803711,0.08807373,-0.9360962,-0.375,0.390625,0.0
440,440,1729374993303,0.23339844,0.09222412,-0.9326782,-0.203125,0.46875,0.125
441,441,1729374993343,0.23950195,0.09320068,-0.92681885,-0.078125,0.515625,-0.015625
442,442,1729374993383,0.24121094,0.08660889,-0.9343872,-0.34375,0.640625,-0.015625
443,443,1729374993423,0.24072266,0.08660889,-0.9307251,-0.09375,0.46875,0.046875
444,444,1729374993463,0.24243164,0.08880615,-0.9378052,-0.15625,0.5625,0.21875
445,445,1729374993503,0.23803711,0.08807373,-0.928772,-0.28125,0.5625,-0.015625
446,446,1729374993543,0.24169922,0.08905029,-0.9356079,-0.328125,0.78125,-0.03125
447,447,1729374993583,0.23852539,0.09637451,-0.9390259,-0.171875,0.5625,0.09375
448,448,1729374993623,0.2355957,0.08538818,-0.9319458,-0.296875,0.625,0.109375
449,449,1729374993663,0.23657227,0.090026855,-0.9319458,-0.375,0.359375,0.140625
450,450,1729374993703,0.23779297,0.097839355,-0.9295044,-0.46875,0.25,0.109375
451,451,1729374993743,0.2446289,0.09051514,-0.94122314,-0.34375,0.515625,0.0
452,452,1729374993783,0.23828125,0.09442139,-0.9360962,-0.375,0.53125,-0.03125
453,453,1729374993823,0.24047852,0.08782959,-0.93585205,-0.359375,0.25,-0.015625
454,454,1729374993863,0.24560547,0.09686279,-0.93414307,-0.546875,0.390625,-0.015625
455,455,1729374993903,0.24365234,0.08660889,-0.93048096,-0.40625,0.25,0.109375
456,456,1729374993943,0.23999023,0.08831787,-0.9307251,-0.453125,0.421875,-0.09375
457,457,1729374993983,0.23876953,0.08758545,-0.93634033,-0.34375,0.265625,0.125
458,458,1729374994023,0.24121094,0.09075928,-0.9397583,-0.40625,0.1875,-0.09375
459,459,1729374994063,0.23950195,0.08538818,-0.9326782,-0.3125,0.328125,0.015625
460,460,1729374994103,0.24291992,0.08856201,-0.93878174,-0.53125,0.296875,-0.015625
461,461,1729374994143,0.24291992,0.093688965,-0.93536377,-0.578125,0.46875,0.015625
462,462,1729374994183,0.25,0.093933105,-0.940979,-0.8125,0.296875,-0.09375
463,463,1729374994223,0.23803711,0.08685303,-0.93536377,-0.625,0.609375,-0.03125
464,464,1729374994263,0.23999023,0.08734131,-0.9229126,0.0,0.28125,0.015625
465,465,1729374994303,0.24731445,0.09100342,-0.9348755,-0.34375,0.46875,-0.09375
466,466,1729374994343,0.24902344,0.09466553,-0.9314575,-0.4375,0.359375,-0.078125
467,467,1729374994383,0.24243164,0.08758545,-0.9343872,-0.421875,0.421875,-0.0625
468,468,1729374994423,0.24145508,0.089538574,-0.9336548,-0.390625,0.59375,0.078125
469,469,1729374994463,0.24609375,0.08929443,-0.93218994,-0.328125,0.390625,-0.0625
470,470,1729374994503,0.24365234,0.08660889,-0.9343872,-0.46875,0.515625,-0.046875
471,471,1729374994543,0.2421875,0.08758545,-0.9307251,-0.421875,0.109375,0.0
472,472,1729374994583,0.24389648,0.09295654,-0.9343872,-0.515625,0.265625,0.03125
473,473,1729374994623,0.24560547,0.093688965,-0.9343872,-0.5,0.109375,-0.109375
474,474,1729374994663,0.24804688,0.094177246,-0.9356079,-0.46875,0.125,-0.015625
475,475,1729374994703,0.25146484,0.089782715,-0.9326782,-0.4375,0.4375,-0.078125
476,476,1729374994743,0.24584961,0.09197998,-0.9324341,-0.4375,0.328125,-0.015625
477,477,1729374994783,0.2475586,0.08880615,-0.9314575,-0.59375,0.3125,-0.015625
478,478,1729374994823,0.25,0.09051514,-0.9314575,-0.640625,0.265625,-0.046875
479,479,1729374994863,0.24584961,0.08782959,-0.9282837,-0.546875,0.265625,-0.109375
480,480,1729374994903,0.25073242,0.08465576,-0.9331665,-0.359375,0.296875,-0.125
481,481,1729374994943,0.24829102,0.093444824,-0.9319458,-0.515625,0.421875,-0.046875
482,482,1729374994983,0.25,0.08343506,-0.9295044,-0.421875,0.21875,0.078125
483,483,1729374995023,0.24804688,0.081726074,-0.927063,-0.3125,0.515625,-0.046875
484,484,1729374995063,0.24853516,0.08831787,-0.9314575,-0.5,0.453125,0.125
485,485,1729374995103,0.25048828,0.082458496,-0.9216919,-0.25,0.515625,0.0
486,486,1729374995143,0.24633789,0.08001709,-0.93756104,-0.09375,0.59375,-0.125
487,487,1729374995183,0.25,0.08660889,-0.9326782,-0.296875,0.609375,-0.015625
488,488,1729374995223,0.25,0.08929443,-0.9326782,-0.171875,0.828125,0.078125
489,489,1729374995263,0.25268555,0.082458496,-0.9351196,-0.375,0.71875,-0.015625
490,490,1729374995303,0.24584961,0.082458496,-0.93048096,-0.234375,0.765625,0.015625
491,491,1729374995343,0.25195312,0.08465576,-0.94073486,-0.390625,0.734375,0.046875
492,492,1729374995383,0.25170898,0.093444824,-0.9295044,-0.234375,0.65625,0.03125
493,493,1729374995423,0.24853516,0.097595215,-0.93341064,-0.21875,0.78125,0.109375
494,494,1729374995463,0.2446289,0.08807373,-0.9260864,-0.125,0.71875,0.015625
495,495,1729374995503,0.24438477,0.090026855,-0.93048096,-0.078125,0.703125,0.109375
496,496,1729374995543,0.24682617,0.090026855,-0.93218994,-0.234375,0.828125,0.21875
497,497,1729374995583,0.24438477,0.086120605,-0.9319458,-0.140625,0.734375,0.203125
498,498,1729374995623,0.24243164,0.09613037,-0.9307251,-0.265625,0.6875,0.09375
499,499,1729374995663,0.2487793,0.08929443,-0.93218994,0.015625,0.71875,0.09375
500,500,1729374995703,0.24169922,0.085876465,-0.9307251,-0.125,0.8125,0.0
501,501,1729374995743,0.25,0.09100342,-0.93292236,-0.375,0.75,-0.046875
502,502,1729374995783,0.24487305,0.090026855,-0.9324341,-0.15625,0.59375,0.125
503,503,1729374995823,0.24926758,0.08880615,-0.93414307,-0.09375,0.84375,0.078125
504,504,1729374995863,0.24609375,0.0914917,-0.9397583,-0.453125,0.75,0.046875
505,505,1729374995903,0.2421875,0.08880615,-0.927063,-0.046875,0.546875,0.0625
506,506,1729374995943,0.24365234,0.089782715,-0.9331665,-0.046875,0.75,0.171875
507,507,1729374995983,0.24707031,0.094177246,-0.9319458,-0.265625,0.703125,0.0625
508,508,1729374996023,0.23632812,0.090270996,-0.94000244,-0.34375,0.71875,0.03125
509,509,1729374996063,0.2475586,0.085876465,-0.9331665,-0.15625,0.75,0.015625
510,510,1729374996103,0.24023438,0.09100342,-0.9356079,-0.09375,0.75,0.109375
511,511,1729374996143,0.23999023,0.09637451,-0.92755127,-0.09375,0.65625,-0.015625
512,512,1729374996183,0.2446289,0.090270996,-0.92755127,-0.046875,0.65625,0.09375
513,513,1729374996223,0.24536133,0.097595215,-0.93292236,-0.1875,0.53125,0.109375
514,514,1729374996263,0.24291992,0.09466553,-0.9338989,-0.203125,0.65625,0.03125
515,515,1729374996303,0.2409668,0.09710693,-0.9312134,-0.078125,0.609375,0.15625
516,516,1729374996343,0.24584961,0.0914917,-0.9314575,-0.203125,0.5625,-0.109375
517,517,1729374996383,0.23828125,0.09295654,-0.9295044,-0.296875,0.671875,-0.09375
518,518,1729374996423,0.24291992,0.085876465,-0.9312134,-0.3125,0.546875,0.078125
519,519,1729374996463,0.24658203,0.08880615,-0.93951416,-0.296875,0.5625,0.015625
520,520,1729374996503,0.24267578,0.086364746,-0.9295044,-0.109375,0.71875,0.078125
521,521,1729374996543,0.2409668,0.093444824,-0.93634033,-0.453125,0.75,-0.015625
522,522,1729374996583,0.24633789,0.09490967,-0.9331665,-0.09375,0.65625,0.109375
523,523,1729374996623,0.2421875,0.093933105,-0.93341064,-0.015625,0.765625,-0.078125
524,524,1729374996663,0.24267578,0.09515381,-0.9360962,-0.171875,0.90625,0.0
525,525,1729374996703,0.23535156,0.09320068,-0.92510986,-0.171875,0.6875,0.078125
526,526,1729374996743,0.24121094,0.086120605,-0.93414307,-0.046875,0.9375,0.046875
527,527,1729374996783,0.24121094,0.086120605,-0.93463135,-0.234375,0.828125,-0.03125
528,528,1729374996823,0.24169922,0.09954834,-0.93170166,-0.03125,0.84375,0.0625
529,529,1729374996863,0.23413086,0.09710693,-0.9368286,-0.0625,0.78125,0.171875
530,530,1729374996903,0.23583984,0.094177246,-0.93096924,-0.3125,0.75,0.109375
531,531,1729374996943,0.2355957,0.09075928,-0.9356079,-0.171875,0.59375,0.0
532,532,1729374996983,0.2368164,0.08880615,-0.93096924,-0.265625,0.578125,0.015625
533,533,1729374997023,0.24609375,0.09710693,-0.940979,-0.046875,0.65625,0.140625
534,534,1729374997063,0.2397461,0.09613037,-0.93536377,-0.25,0.546875,0.046875
535,535,1729374997103,0.23999023,0.101745605,-0.93756104,-0.203125,0.515625,0.1875
536,536,1729374997143,0.24121094,0.10003662,-0.93048096,-0.296875,0.390625,-0.171875
537,537,1729374997183,0.23925781,0.09857178,-0.92926025,-0.359375,0.578125,0.109375
538,538,1729374997223,0.2397461,0.09320068,-0.9373169,-0.25,0.421875,-0.015625
539,539,1729374997263,0.23657227,0.098083496,-0.9397583,-0.25,0.515625,0.015625
540,540,1729374997303,0.23632812,0.093688965,-0.9295044,-0.234375,0.453125,0.03125
541,541,1729374997343,0.23852539,0.08709717,-0.9331665,-0.546875,0.71875,0.015625
542,542,1729374997383,0.23803711,0.09881592,-0.9356079,-0.421875,0.78125,0.125
543,543,1729374997423,0.23901367,0.08880615,-0.9314575,-0.125,0.625,-0.046875
544,544,1729374997463,0.24633789,0.09246826,-0.9326782,-0.421875,0.59375,0.015625
545,545,1729374997503,0.24414062,0.097351074,-0.9380493,-0.515625,0.65625,-0.109375
546,546,1729374997543,0.23388672,0.09661865,-0.9277954,-0.46875,0.5625,0.125
547,547,1729374997583,0.23803711,0.093688965,-0.9343872,-0.296875,0.5625,-0.015625
548,548,1729374997623,0.23461914,0.097595215,-0.9319458,-0.390625,0.734375,0.015625
549,549,1729374997663,0.24194336,0.08807373,-0.9378052,-0.296875,0.546875,0.09375
550,550,1729374997703,0.23510742,0.09320068,-0.93292236,-0.25,0.59375,0.046875
551,551,1729374997743,0.2397461,0.09124756,-0.9343872,-0.46875,0.484375,0.03125
552,552,1729374997783,0.23754883,0.09075928,-0.9282837,-0.34375,0.4375,0.046875
553,553,1729374997823,0.23266602,0.09515381,-0.9360962,-0.53125,0.40625,0.046875
554,554,1729374997863,0.2368164,0.09564209,-0.9390259,-0.25,0.390625,0.09375
555,555,1729374997903,0.234375,0.09442139,-0.9360962,-0.390625,0.25,0.078125
556,556,1729374997943,0.24291992,0.09588623,-0.93536377,-0.34375,0.484375,0.0625
557,557,1729374997983,0.2434082,0.097595215,-0.93536377,-0.421875,0.421875,0.03125
558,558,1729374998023,0.24194336,0.09051514,-0.93463135,-0.515625,0.359375,-0.0625
559,559,1729374998063,0.24047852,0.09222412,-0.9336548,-0.515625,0.34375,0.015625
560,560,1729374998103,0.24194336,0.09173584,-0.942688,-0.390625,0.234375,-0.078125
561,561,1729374998143,0.24804688,0.09222412,-0.9302368,-0.484375,0.15625,0.078125
562,562,1729374998183,0.24438477,0.09295654,-0.9299927,-0.5625,0.28125,0.015625
563,563,1729374998223,0.24121094,0.10028076,-0.9360962,-0.484375,0.484375,0.015625
564,564,1729374998263,0.24267578,0.09222412,-0.9368286,-0.5625,0.234375,-0.09375
565,565,1729374998303,0.24511719,0.09613037,-0.9365845,-0.328125,0.15625,-0.046875
566,566,1729374998343,0.24365234,0.089782715,-0.9348755,-0.5,0.375,0.0
567,567,1729374998383,0.24365234,0.09197998,-0.93170166,-0.640625,0.359375,-0.03125
568,568,1729374998423,0.24194336,0.097839355,-0.93634033,-0.484375,0.015625,0.015625
569,569,1729374998463,0.24243164,0.08685303,-0.9326782,-0.34375,0.53125,0.078125
570,570,1729374998503,0.24707031,0.089538574,-0.93585205,-0.515625,0.3125,0.0625
571,571,1729374998543,0.24243164,0.094177246,-0.9360962,-0.328125,0.40625,0.109375
572,572,1729374998583,0.24414062,0.093688965,-0.93292236,-0.453125,0.421875,0.09375
573,573,1729374998623,0.24145508,0.0927124,-0.9307251,-0.390625,0.28125,-0.078125
574,574,1729374998663,0.23876953,0.09246826,-0.9302368,-0.265625,0.234375,0.078125
575,575,1729374998703,0.24926758,0.09100342,-0.93218994,-0.46875,0.140625,0.015625
576,576,1729374998743,0.25,0.09197998,-0.9338989,-0.359375,0.21875,0.0
577,577,1729374998783,0.2421875,0.08856201,-0.9326782,-0.546875,0.265625,0.03125
578,578,1729374998823,0.24829102,0.09442139,-0.9331665,-0.40625,0.28125,-0.015625
579,579,1729374998863,0.24584961,0.093444824,-0.9343872,-0.515625,0.515625,-0.0625
580,580,1729374998903,0.24511719,0.09100342,-0.92852783,-0.296875,0.40625,-0.046875
581,581,1729374998943,0.24609375,0.090270996,-0.927063,-0.21875,0.4375,0.125
582,582,1729374998983,0.24023438,0.089538574,-0.93170166,-0.25,0.671875,0.078125
583,583,1729374999023,0.24365234,0.09246826,-0.9351196,-0.359375,0.78125,0.0625
584,584,1729374999063,0.24658203,0.09588623,-0.93756104,-0.328125,0.671875,0.09375
585,585,1729374999103,0.24926758,0.090026855,-0.93585205,-0.234375,0.671875,-0.015625
586,586,1729374999143,0.24414062,0.09124756,-0.93170166,-0.015625,0.8125,0.03125
587,587,1729374999183,0.23925781,0.09295654,-0.93927,-0.578125,0.8125,0.0625
588,588,1729374999223,0.24438477,0.09246826,-0.92852783,-0.328125,0.46875,0.03125
589,589,1729374999263,0.2446289,0.09442139,-0.9365845,-0.203125,1.0,0.0625
590,590,1729374999303,0.24487305,0.08856201,-0.9319458,-0.171875,0.71875,0.15625
591,591,1729374999343,0.24511719,0.097351074,-0.9326782,-0.109375,0.890625,0.109375
592,592,1729374999383,0.23999023,0.09075928,-0.9360962,-0.1875,0.65625,0.21875
593,593,1729374999423,0.23999023,0.097595215,-0.93096924,0.0625,0.6875,0.109375
594,594,1729374999463,0.24121094,0.09075928,-0.9324341,-0.40625,0.5625,0.109375
595,595,1729374999503,0.23999023,0.09442139,-0.9290161,-0.140625,0.609375,0.15625
596,596,1729374999543,0.25,0.0914917,-0.9319458,-0.171875,0.828125,0.078125
597,597,1729374999583,0.24316406,0.090270996,-0.9331665,-0.234375,0.53125,-0.015625
598,598,1729374999623,0.24438477,0.089538574,-0.9378052,-0.375,0.734375,0.078125
599,599,1729374999663,0.24267578,0.090270996,-0.93048096,-0.203125,0.640625,0.015625
600,600,1729374999703,0.24169922,0.09246826,-0.9373169,-0.390625,0.546875,0.046875
601,601,1729374999743,0.24389648,0.098083496,-0.93048096,-0.203125,0.71875,0.0
602,602,1729374999783,0.2434082,0.09906006,-0.9312134,-0.203125,0.765625,0.09375
603,603,1729374999823,0.2421875,0.0927124,-0.9319458,-0.375,0.625,0.09375
604,604,1729374999863,0.2421875,0.09490967,-0.9338989,-0.265625,0.6875,0.140625
605,605,1729374999903,0.24023438,0.093444824,-0.93048096,-0.109375,0.75,0.15625
606,606,1729374999943,0.24121094,0.0927124,-0.9368286,-0.234375,0.78125,-0.015625
607,607,1729374999983,0.23486328,0.09075928,-0.928772,-0.140625,0.3125,0.015625
608,608,1729375000023,0.24365234,0.09320068,-0.9299927,-0.25,0.6875,-0.03125
609,609,1729375000063,0.24194336,0.097351074,-0.9324341,-0.375,0.484375,0.0
610,610,1729375000103,0.2446289,0.09637451,-0.93585205,-0.203125,0.59375,0.125
611,611,1729375000143,0.23950195,0.097839355,-0.93707275,-0.4375,0.609375,-0.015625
612,612,1729375000183,0.23876953,0.09661865,-0.9314575,-0.296875,0.625,0.0
613,613,1729375000223,0.24389648,0.093933105,-0.92437744,-0.296875,0.578125,0.125
614,614,1729375000263,0.24316406,0.09124756,-0.93096924,-0.203125,0.65625,0.078125
615,615,1729375000303,0.23779297,0.09515381,-0.93463135,-0.1875,0.796875,0.046875
616,616,1729375000343,0.23730469,0.093444824,-0.9326782,-0.296875,0.640625,0.015625
617,617,1729375000383,0.2421875,0.09710693,-0.9324341,-0.171875,0.5625,0.09375
618,618,1729375000423,0.23730469,0.09710693,-0.93292236,-0.34375,0.65625,-0.140625
619,619,1729375000463,0.23876953,0.101501465,-0.92852783,-0.328125,0.625,0.0625
620,620,1729375000503,0.24438477,0.10223389,-0.93536377,-0.359375,0.6875,-0.015625
621,621,1729375000543,0.2421875,0.09490967,-0.9312134,-0.109375,0.796875,-0.046875
622,622,1729375000583,0.23706055,0.0993042,-0.9378052,-0.296875,0.609375,0.125
623,623,1729375000623,0.2368164,0.09881592,-0.93170166,-0.140625,0.765625,0.03125
624,624,1729375000663,0.24169922,0.09686279,-0.9336548,-0.484375,0.765625,0.03125
625,625,1729375000703,0.23828125,0.10028076,-0.94000244,-0.328125,0.703125,0.171875
626,626,1729375000743,0.23510742,0.10076904,-0.923645,-0.359375,0.53125,0.09375
627,627,1729375000783,0.24023438,0.09539795,-0.9351196,-0.296875,0.671875,0.125
628,628,1729375000823,0.2421875,0.09857178,-0.9277954,-0.21875,0.75,-0.015625
629,629,1729375000863,0.24487305,0.09906006,-0.93951416,-0.28125,0.75,0.078125
630,630,1729375000903,0.23925781,0.10076904,-0.93341064,-0.25,0.6875,-0.015625
631,631,1729375000943,0.23876953,0.08734131,-0.92974854,-0.484375,0.609375,0.0625
632,632,1729375000983,0.24267578,0.09588623,-0.92852783,-0.15625,0.515625,0.0625
633,633,1729375001023,0.23803711,0.097595215,-0.9302368,-0.234375,0.78125,0.0
634,634,1729375001063,0.24633789,0.09661865,-0.93536377,-0.078125,0.6875,0.046875
635,635,1729375001103,0.2397461,0.09906006,-0.9343872,-0.28125,0.53125,0.09375
636,636,1729375001143,0.24780273,0.101501465,-0.9319458,-0.21875,0.546875,0.015625
637,637,1729375001183,0.23779297,0.09637451,-0.9307251,-0.265625,0.515625,-0.046875
638,638,1729375001223,0.23754883,0.09320068,-0.9336548,-0.34375,0.828125,0.25
639,639,1729375001263,0.24023438,0.09979248,-0.92974854,-0.5,0.609375,0.140625
640,640,1729375001303,0.23925781,0.09588623,-0.9319458,-0.34375,0.53125,0.046875
641,641,1729375001343,0.23486328,0.09661865,-0.93707275,-0.484375,0.375,0.125
642,642,1729375001383,0.2409668,0.10247803,-0.9319458,-0.546875,0.421875,-0.109375
643,643,1729375001423,0.2331543,0.10076904,-0.93536377,-0.46875,0.296875,-0.046875
644,644,1729375001463,0.2397461,0.09832764,-0.93341064,-0.515625,0.515625,-0.125
645,645,1729375001503,0.2434082,0.10443115,-0.9421997,-0.625,0.21875,-0.015625
646,646,1729375001543,0.23901367,0.10223389,-0.94122314,-0.5,0.5,-0.015625
647,647,1729375001583,0.2368164,0.09564209,-0.928772,-0.453125,0.5625,-0.015625
648,648,1729375001623,0.24291992,0.0914917,-0.9385376,-0.328125,0.546875,0.015625
649,649,1729375001663,0.24511719,0.098083496,-0.93341064,-0.390625,0.671875,-0.046875
650,650,1729375001703,0.23754883,0.10443115,-0.93585205,-0.484375,0.546875,-0.015625
651,651,1729375001743,0.2397461,0.09588623,-0.9324341,-0.25,0.515625,0.109375
652,652,1729375001783,0.23999023,0.098083496,-0.9314575,-0.296875,0.4375,0.03125
653,653,1729375001823,0.23925781,0.09661865,-0.9290161,-0.4375,0.265625,0.078125
654,654,1729375001863,0.23803711,0.098083496,-0.9324341,-0.40625,0.15625,0.015625
655,655,1729375001903,0.2421875,0.0927124,-0.9380493,-0.5,0.15625,0.03125
656,656,1729375001943,0.24145508,0.10418701,-0.93829346,-0.40625,0.21875,-0.078125
657,657,1729375001983,0.24658203,0.09246826,-0.9348755,-0.5,0.25,-0.125
658,658,1729375002023,0.24487305,0.094177246,-0.9307251,-0.53125,0.375,-0.0625
659,659,1729375002063,0.23876953,0.09124756,-0.9385376,-0.625,0.453125,0.0625
660,660,1729375002103,0.24316406,0.09564209,-0.928772,-0.640625,0.234375,-0.015625
661,661,1729375002143,0.25268555,0.09295654,-0.9326782,-0.421875,0.1875,-0.171875
662,662,1729375002183,0.23999023,0.0927124,-0.9360962,-0.578125,0.1875,-0.03125
663,663,1729375002223,0.24047852,0.097839355,-0.9331665,-0.5,0.234375,-0.09375
664,664,1729375002263,0.2487793,0.09661865,-0.9356079,-0.640625,0.265625,-0.03125
665,665,1729375002303,0.2434082,0.08856201,-0.928772,-0.640625,0.125,-0.125
666,666,1729375002343,0.24902344,0.09197998,-0.9299927,-0.359375,0.21875,0.03125
667,667,1729375002383,0.24194336,0.08758545,-0.92852783,-0.6875,0.390625,0.125
668,668,1729375002423,0.24121094,0.085876465,-0.9187622,-0.328125,0.25,0.046875
669,669,1729375002463,0.24780273,0.09588623,-0.9378052,-0.296875,0.546875,-0.03125
670,670,1729375002503,0.24853516,0.0927124,-0.93170166,-0.59375,0.453125,0.03125
671,671,1729375002543,0.24902344,0.08880615,-0.9385376,-0.15625,0.453125,0.046875
672,672,1729375002583,0.2529297,0.09466553,-0.9351196,-0.328125,0.640625,0.1875
673,673,1729375002623,0.24804688,0.09173584,-0.9299927,-0.34375,0.46875,0.03125
674,674,1729375002663,0.24584961,0.09100342,-0.93170166,-0.390625,0.5625,-0.09375
675,675,1729375002703,0.24487305,0.09222412,-0.92974854,-0.3125,0.5,-0.015625
676,676,1729375002743,0.24511719,0.089538574,-0.93585205,-0.21875,0.5625,-0.03125
677,677,1729375002783,0.24511719,0.09124756,-0.92852783,-0.0625,0.609375,0.15625
678,678,1729375002823,0.24975586,0.09051514,-0.9246216,-0.3125,0.59375,0.109375
679,679,1729375002863,0.24633789,0.08270264,-0.93096924,-0.359375,0.640625,-0.0625
680,680,1729375002903,0.24731445,0.09588623,-0.93170166,-0.328125,0.765625,0.0
681,681,1729375002943,0.24291992,0.09173584,-0.9365845,-0.234375,0.75,0.015625
682,682,1729375002983,0.25195312,0.09490967,-0.92755127,-0.140625,0.765625,0.0625
683,683,1729375003023,0.24511719,0.09246826,-0.9356079,-0.0625,0.546875,0.09375
684,684,1729375003063,0.24487305,0.08782959,-0.92755127,-0.171875,0.625,0.265625
685,685,1729375003103,0.24487305,0.09613037,-0.9390259,-0.28125,0.59375,0.21875
686,686,1729375003143,0.24291992,0.09857178,-0.92926025,-0.109375,0.71875,0.03125
687,687,1729375003183,0.24267578,0.094177246,-0.9312134,-0.46875,0.671875,0.09375
688,688,1729375003223,0.24267578,0.093688965,-0.93829346,-0.375,0.578125,0.09375
689,689,1729375003263,0.24584961,0.09515381,-0.9356079,0.109375,0.984375,0.125
690,690,1729375003303,0.2421875,0.09661865,-0.9307251,-0.15625,0.828125,0.0
691,691,1729375003343,0.23950195,0.0927124,-0.9348755,-0.25,1.03125,0.015625
692,692,1729375003383,0.24609375,0.09442139,-0.9348755,-0.09375,0.578125,-0.015625
693,693,1729375003423,0.23876953,0.09490967,-0.928772,-0.25,0.640625,0.109375
694,694,1729375003463,0.23730469,0.09222412,-0.9290161,-0.546875,0.515625,-0.015625
695,695,1729375003503,0.2446289,0.1005249,-0.9312134,-0.15625,0.671875,0.109375
696,696,1729375003543,0.23999023,0.093444824,-0.9360962,-0.203125,0.53125,0.03125
697,697,1729375003583,0.23876953,0.094177246,-0.93707275,-0.03125,0.453125,0.15625
698,698,1729375003623,0.24487305,0.093688965,-0.9299927,-0.1875,0.609375,0.078125
699,699,1729375003663,0.23901367,0.101501465,-0.9324341,-0.15625,0.484375,-0.015625
700,700,1729375003703,0.24047852,0.09906006,-0.93829346,-0.296875,0.640625,0.03125
701,701,1729375003743,0.24511719,0.09197998,-0.9326782,-0.125,0.515625,0.171875
702,702,1729375003783,0.23510742,0.09661865,-0.93048096,-0.25,0.640625,0.09375
703,703,1729375003823,0.2434082,0.09637451,-0.92852783,0.015625,0.515625,0.140625
704,704,1729375003863,0.24121094,0.10223389,-0.9314575,-0.34375,0.640625,-0.09375
705,705,1729375003903,0.24194336,0.10467529,-0.93756104,-0.21875,0.703125,0.03125
706,706,1729375003943,0.23852539,0.09539795,-0.9319458,-0.03125,0.78125,0.046875
707,707,1729375003983,0.24023438,0.09564209,-0.9373169,-0.421875,0.640625,-0.046875
708,708,1729375004023,0.24243164,0.10101318,-0.93096924,-0.421875,0.375,-0.015625
709,709,1729375004063,0.24194336,0.09637451,-0.9314575,0.125,0.96875,0.078125
710,710,1729375004103,0.24047852,0.10296631,-0.928772,-0.359375,0.625,0.03125
711,711,1729375004143,0.24145508,0.09124756,-0.93878174,-0.28125,0.84375,0.09375
712,712,1729375004183,0.2409668,0.09539795,-0.9331665,-0.25,0.65625,0.140625
713,713,1729375004223,0.23632812,0.10418701,-0.9343872,-0.203125,0.515625,-0.0625
714,714,1729375004263,0.23730469,0.09588623,-0.9324341,0.046875,0.515625,0.0
715,715,1729375004303,0.23950195,0.09466553,-0.92803955,-0.296875,0.625,0.078125
716,716,1729375004343,0.24169922,0.097839355,-0.9348755,-0.15625,0.6875,0.140625
717,717,1729375004383,0.24536133,0.097595215,-0.9343872,-0.28125,0.65625,0.15625
718,718,1729375004423,0.23803711,0.09857178,-0.93096924,-0.140625,0.53125,0.0
719,719,1729375004463,0.2368164,0.09564209,-0.9365845,-0.4375,0.59375,0.078125
720,720,1729375004503,0.23901367,0.10028076,-0.93218994,-0.625,0.703125,0.140625
721,721,1729375004543,0.23828125,0.10076904,-0.9402466,-0.421875,0.703125,0.015625
722,722,1729375004583,0.24584961,0.09222412,-0.9299927,-0.421875,0.59375,-0.125
723,723,1729375004623,0.2421875,0.09954834,-0.9312134,-0.578125,0.546875,0.140625
724,724,1729375004663,0.24145508,0.10028076,-0.93292236,-0.390625,0.5,0.03125
725,725,1729375004703,0.23925781,0.101989746,-0.9324341,-0.296875,0.421875,0.09375
726,726,1729375004743,0.24169922,0.09490967,-0.93218994,-0.359375,0.296875,-0.109375
727,727,1729375004783,0.23730469,0.10443115,-0.9343872,-0.46875,0.53125,-0.09375
728,728,1729375004823,0.24243164,0.09906006,-0.93463135,-0.609375,0.59375,-0.078125
729,729,1729375004863,0.2475586,0.09710693,-0.93536377,-0.5,0.203125,-0.03125
730,730,1729375004903,0.2421875,0.101257324,-0.9397583,-0.265625,0.59375,0.125
731,731,1729375004943,0.2409668,0.10076904,-0.93048096,-0.4375,0.328125,-0.046875
732,732,1729375004983,0.23876953,0.10394287,-0.9331665,-0.4375,0.53125,0.078125
733,733,1729375005023,0.2421875,0.101501465,-0.93634033,-0.5,0.375,-0.0625
734,734,1729375005063,0.24291992,0.0993042,-0.93878174,-0.484375,0.4375,-0.0625
735,735,1729375005103,0.24414062,0.101745605,-0.93634033,-0.5,0.375,-0.0625
736,736,1729375005143,0.23754883,0.094177246,-0.93414307,-0.390625,0.15625,0.03125
737,737,1729375005183,0.23632812,0.1005249,-0.9356079,-0.359375,0.234375,-0.046875
738,738,1729375005223,0.24023438,0.10687256,-0.93218994,-0.421875,0.234375,0.109375
739,739,1729375005263,0.24291992,0.09539795,-0.93341064,-0.515625,0.25,0.140625
740,740,1729375005303,0.2409668,0.09515381,-0.9348755,-0.5625,0.453125,-0.09375
741,741,1729375005343,0.23754883,0.094177246,-0.927063,-0.46875,0.3125,0.140625
742,742,1729375005383,0.23999023,0.09466553,-0.93463135,-0.53125,0.171875,0.046875
743,743,1729375005423,0.24487305,0.09124756,-0.93463135,-0.578125,0.28125,-0.125
744,744,1729375005463,0.24511719,0.09588623,-0.93218994,-0.53125,0.3125,0.03125
745,745,1729375005503,0.24804688,0.08734131,-0.9314575,-0.765625,0.296875,-0.015625
746,746,1729375005543,0.24047852,0.10076904,-0.93218994,-0.5,0.03125,-0.015625
747,747,1729375005583,0.24389648,0.0914917,-0.92559814,-0.46875,0.359375,-0.046875
748,748,1729375005623,0.24536133,0.09686279,-0.9282837,-0.5625,0.390625,-0.125
749,749,1729375005663,0.23730469,0.08929443,-0.9199829,-0.25,0.265625,-0.03125
750,750,1729375005703,0.25,0.09490967,-0.93951416,-0.375,0.4375,0.046875
751,751,1729375005743,0.25170898,0.0914917,-0.928772,-0.375,0.21875,0.125
752,752,1729375005783,0.24804688,0.09588623,-0.93585205,-0.328125,0.375,-0.03125
753,753,1729375005823,0.24829102,0.0914917,-0.93463135,-0.296875,0.328125,0.046875
754,754,1729375005863,0.25048828,0.09564209,-0.93292236,-0.296875,0.53125,0.046875
755,755,1729375005903,0.24633789,0.09564209,-0.93585205,-0.4375,0.578125,0.015625
756,756,1729375005943,0.24536133,0.093688965,-0.9312134,-0.21875,0.609375,0.140625
757,757,1729375005983,0.2524414,0.09320068,-0.9319458,-0.21875,0.671875,0.140625
758,758,1729375006023,0.24707031,0.09222412,-0.93096924,-0.1875,0.65625,0.140625
759,759,1729375006063,0.24145508,0.08880615,-0.9302368,-0.171875,0.625,0.109375
