,Unnamed: 0,timestamp,accel_x,accel_y,accel_z,gyro_x,gyro_y,gyro_z
0,0,1727702399472,0.40844727,-0.12213135,-0.88653564,-0.34375,0.4375,0.453125
1,1,1727702399512,0.40966797,-0.11651611,-0.8809204,-0.140625,0.71875,0.296875
2,2,1727702399552,0.40600586,-0.11016846,-0.8748169,-0.453125,0.78125,0.3125
3,3,1727702399592,0.40698242,-0.112854004,-0.87579346,-0.4375,0.796875,0.296875
4,4,1727702399632,0.40527344,-0.12042236,-0.87750244,-0.515625,0.65625,0.203125
5,5,1727702399672,0.40844727,-0.11602783,-0.88238525,-0.484375,0.625,0.28125
6,6,1727702399712,0.4038086,-0.120666504,-0.87823486,-0.375,0.578125,0.25
7,7,1727702399752,0.40820312,-0.11529541,-0.8753052,-0.5,0.546875,0.375
8,8,1727702399792,0.41015625,-0.121154785,-0.87091064,-0.328125,0.359375,0.34375
9,9,1727702399832,0.4152832,-0.11505127,-0.8814087,-0.796875,0.765625,0.25
10,10,1727702399872,0.40600586,-0.11627197,-0.8777466,-0.703125,0.65625,0.171875
11,11,1727702399912,0.40283203,-0.116760254,-0.8711548,-0.4375,0.859375,0.25
12,12,1727702399952,0.40771484,-0.11505127,-0.8760376,-0.421875,0.796875,0.296875
13,13,1727702399992,0.4152832,-0.12408447,-0.878479,-0.390625,0.78125,0.25
14,14,1727702400032,0.41503906,-0.12042236,-0.87677,-0.4375,0.734375,0.359375
15,15,1727702400072,0.4140625,-0.117248535,-0.881897,-0.375,0.90625,0.3125
16,16,1727702400112,0.4140625,-0.11846924,-0.878479,-0.359375,0.6875,0.4375
17,17,1727702400152,0.41455078,-0.11920166,-0.880188,-0.515625,0.84375,0.109375
18,18,1727702400192,0.40576172,-0.12188721,-0.8713989,-0.484375,0.90625,0.265625
19,19,1727702400232,0.40966797,-0.11553955,-0.8743286,-0.390625,0.765625,0.28125
20,20,1727702400272,0.41235352,-0.116760254,-0.8777466,-0.390625,0.6875,0.1875
21,21,1727702400312,0.41235352,-0.121154785,-0.87872314,-0.375,0.65625,0.265625
22,22,1727702400352,0.41259766,-0.11480713,-0.8826294,-0.484375,0.671875,0.328125
23,23,1727702400392,0.41333008,-0.11602783,-0.8777466,-0.515625,0.984375,0.328125
24,24,1727702400432,0.4104004,-0.11212158,-0.87628174,-0.40625,0.859375,0.109375
25,25,1727702400472,0.41015625,-0.12188721,-0.8677368,-0.5,0.9375,0.265625
26,26,1727702400512,0.41064453,-0.11627197,-0.87335205,-0.40625,1.046875,0.3125
27,27,1727702400552,0.40966797,-0.11993408,-0.8609009,-0.265625,0.859375,0.359375
28,28,1727702400592,0.4111328,-0.11553955,-0.88238525,-0.71875,1.21875,0.109375
29,29,1727702400632,0.41186523,-0.11798096,-0.8753052,-0.53125,1.078125,0.28125
30,30,1727702400672,0.40942383,-0.11773682,-0.87628174,-0.578125,1.28125,0.296875
31,31,1727702400712,0.41259766,-0.112854004,-0.88165283,-0.546875,1.421875,0.15625
32,32,1727702400752,0.40722656,-0.11920166,-0.87579346,-0.453125,1.21875,0.21875
33,33,1727702400792,0.40966797,-0.12335205,-0.8777466,-0.4375,1.15625,0.25
34,34,1727702400832,0.4050293,-0.11920166,-0.8826294,-0.390625,1.125,0.09375
35,35,1727702400872,0.40820312,-0.117248535,-0.87750244,-0.65625,0.890625,0.171875
36,36,1727702400912,0.40527344,-0.11871338,-0.87994385,-0.46875,1.015625,-0.03125
37,37,1727702400952,0.40600586,-0.120910645,-0.8723755,-0.453125,1.0,0.125
38,38,1727702400992,0.40771484,-0.11993408,-0.88409424,-0.5,1.09375,0.296875
39,39,1727702401032,0.40722656,-0.120910645,-0.8760376,-0.46875,1.203125,0.21875
40,40,1727702401072,0.40576172,-0.12237549,-0.8826294,-0.59375,1.046875,0.171875
41,41,1727702401112,0.40405273,-0.11456299,-0.8789673,-0.53125,1.078125,0.296875
42,42,1727702401152,0.40698242,-0.11773682,-0.8826294,-0.546875,0.9375,0.390625
43,43,1727702401192,0.40966797,-0.11651611,-0.87994385,-0.5625,0.875,0.296875
44,44,1727702401232,0.40405273,-0.11798096,-0.87750244,-0.453125,0.984375,0.28125
45,45,1727702401272,0.40185547,-0.12042236,-0.8858032,-0.578125,0.828125,0.125
46,46,1727702401312,0.40307617,-0.12188721,-0.8726196,-0.59375,0.765625,0.203125
47,47,1727702401352,0.4099121,-0.11553955,-0.88726807,-0.71875,0.96875,0.21875
48,48,1727702401392,0.40356445,-0.124816895,-0.8809204,-0.640625,0.890625,0.265625
49,49,1727702401432,0.39916992,-0.12359619,-0.87628174,-0.34375,1.078125,0.203125
50,50,1727702401472,0.41088867,-0.120666504,-0.88287354,-0.5625,0.984375,0.140625
51,51,1727702401512,0.4013672,-0.12017822,-0.8772583,-0.515625,0.875,0.25
52,52,1727702401552,0.40307617,-0.12213135,-0.8826294,-0.421875,0.8125,0.140625
53,53,1727702401592,0.40014648,-0.12261963,-0.87628174,-0.1875,0.859375,0.265625
54,54,1727702401632,0.40625,-0.12359619,-0.880188,-0.25,0.4375,0.390625
55,55,1727702401672,0.40942383,-0.12286377,-0.8845825,-0.25,0.59375,0.40625
56,56,1727702401712,0.40551758,-0.11968994,-0.88116455,0.125,0.46875,0.40625
57,57,1727702401752,0.40625,-0.121398926,-0.88238525,-0.046875,0.390625,0.5
58,58,1727702401792,0.40942383,-0.121154785,-0.8814087,-0.125,0.53125,0.40625
59,59,1727702401832,0.4099121,-0.11407471,-0.8779907,-0.171875,0.34375,0.296875
60,60,1727702401872,0.40942383,-0.11651611,-0.8796997,-0.265625,0.8125,0.265625
61,61,1727702401912,0.40698242,-0.11212158,-0.8804321,-0.265625,0.703125,0.375
62,62,1727702401952,0.40893555,-0.11114502,-0.8777466,-0.265625,0.71875,0.375
63,63,1727702401992,0.41064453,-0.113098145,-0.8809204,-0.515625,0.71875,0.296875
64,64,1727702402032,0.40722656,-0.1116333,-0.87872314,-0.546875,0.5625,0.359375
65,65,1727702402072,0.4074707,-0.1182251,-0.86920166,-0.28125,0.203125,0.265625
66,66,1727702402112,0.41674805,-0.11895752,-0.8792114,-0.703125,0.40625,0.203125
67,67,1727702402152,0.40307617,-0.12017822,-0.8772583,-0.75,0.359375,0.21875
68,68,1727702402192,0.40844727,-0.121154785,-0.87286377,-0.34375,0.953125,0.40625
69,69,1727702402232,0.41064453,-0.11260986,-0.8804321,-0.4375,0.84375,0.421875
70,70,1727702402272,0.41455078,-0.11578369,-0.87823486,-0.8125,0.734375,0.25
71,71,1727702402312,0.40551758,-0.109436035,-0.87677,-0.515625,0.53125,0.21875
72,72,1727702402352,0.4128418,-0.1116333,-0.87506104,-0.609375,0.359375,0.3125
73,73,1727702402392,0.41430664,-0.11456299,-0.87872314,-0.6875,0.390625,0.5
74,74,1727702402432,0.41992188,-0.11651611,-0.88165283,-0.828125,0.421875,0.359375
75,75,1727702402472,0.41430664,-0.12579346,-0.88067627,-0.21875,0.984375,0.359375
76,76,1727702402512,0.41259766,-0.12237549,-0.8804321,-0.1875,1.15625,0.25
77,77,1727702402552,0.41308594,-0.12017822,-0.87457275,-0.296875,1.203125,0.234375
78,78,1727702402592,0.40478516,-0.11798096,-0.87579346,-0.390625,0.953125,0.265625
79,79,1727702402632,0.40966797,-0.11187744,-0.8777466,-0.515625,0.734375,0.421875
80,80,1727702402672,0.4128418,-0.113098145,-0.87750244,-0.4375,0.53125,0.40625
81,81,1727702402712,0.4091797,-0.11114502,-0.87823486,-0.609375,0.671875,0.25
82,82,1727702402752,0.41870117,-0.11212158,-0.8743286,-0.375,0.6875,0.3125
83,83,1727702402792,0.41235352,-0.113342285,-0.87628174,-0.5625,0.75,0.328125
84,84,1727702402832,0.40722656,-0.11114502,-0.86260986,-0.078125,0.796875,0.3125
85,85,1727702402872,0.41259766,-0.12017822,-0.878479,-0.78125,1.09375,0.28125
86,86,1727702402912,0.4140625,-0.11773682,-0.87872314,-0.59375,0.828125,0.21875
87,87,1727702402952,0.4074707,-0.12310791,-0.86602783,-0.40625,1.015625,0.171875
88,88,1727702402992,0.4128418,-0.11383057,-0.8814087,-0.6875,0.921875,0.265625
89,89,1727702403032,0.41357422,-0.11505127,-0.87701416,-0.515625,1.0,0.25
90,90,1727702403072,0.40844727,-0.1104126,-0.8792114,-0.265625,0.90625,0.40625
91,91,1727702403112,0.41381836,-0.10992432,-0.8814087,-0.25,0.890625,0.34375
92,92,1727702403152,0.4099121,-0.10845947,-0.87750244,-0.546875,0.734375,0.1875
93,93,1727702403192,0.41381836,-0.11407471,-0.8765259,-0.5,0.8125,0.0625
94,94,1727702403232,0.41186523,-0.11553955,-0.87164307,-0.484375,0.578125,0.21875
95,95,1727702403272,0.40356445,-0.117004395,-0.8804321,-0.421875,0.984375,0.203125
96,96,1727702403312,0.4025879,-0.1182251,-0.8789673,-0.5,1.046875,0.234375
97,97,1727702403352,0.40673828,-0.113586426,-0.87872314,-0.578125,0.921875,0.21875
98,98,1727702403392,0.39990234,-0.11187744,-0.8753052,-0.484375,1.03125,0.203125
99,99,1727702403432,0.39941406,-0.11212158,-0.8850708,-0.46875,0.96875,0.21875
100,100,1727702403472,0.39770508,-0.11114502,-0.88067627,-0.546875,0.84375,0.015625
101,101,1727702403512,0.40551758,-0.11505127,-0.88067627,-0.828125,1.234375,0.21875
102,102,1727702403552,0.39648438,-0.11798096,-0.8831177,-0.671875,0.890625,0.234375
103,103,1727702403592,0.39868164,-0.11456299,-0.8765259,-0.546875,0.96875,0.125
104,104,1727702403632,0.4008789,-0.11602783,-0.88116455,-0.546875,0.875,0.203125
105,105,1727702403672,0.40625,-0.11553955,-0.8838501,-0.515625,0.8125,0.078125
106,106,1727702403712,0.40234375,-0.11456299,-0.88848877,-0.421875,0.765625,0.171875
107,107,1727702403752,0.40966797,-0.1104126,-0.88238525,-0.5625,0.71875,0.265625
108,108,1727702403792,0.4050293,-0.11602783,-0.8838501,-0.375,0.953125,0.203125
109,109,1727702403832,0.3996582,-0.10748291,-0.8755493,-0.453125,0.875,0.34375
110,110,1727702403872,0.39868164,-0.113342285,-0.8838501,-0.375,0.9375,0.421875
111,111,1727702403912,0.40039062,-0.117004395,-0.88067627,-0.578125,0.8125,0.203125
112,112,1727702403952,0.40429688,-0.11065674,-0.87677,-0.109375,0.609375,0.390625
113,113,1727702403992,0.4013672,-0.11480713,-0.8821411,-0.3125,0.59375,0.328125
114,114,1727702404032,0.4033203,-0.11529541,-0.880188,-0.25,0.65625,0.3125
115,115,1727702404072,0.40551758,-0.117004395,-0.8779907,-0.25,0.921875,0.421875
116,116,1727702404112,0.40405273,-0.11065674,-0.8909302,-0.5625,0.609375,0.234375
117,117,1727702404152,0.40478516,-0.10992432,-0.88360596,-0.296875,0.796875,0.234375
118,118,1727702404192,0.4025879,-0.10699463,-0.8821411,-0.21875,0.609375,0.546875
119,119,1727702404232,0.40625,-0.11505127,-0.88238525,-0.453125,0.65625,0.3125
120,120,1727702404272,0.4104004,-0.11090088,-0.8796997,-0.46875,0.8125,0.203125
121,121,1727702404312,0.40673828,-0.10992432,-0.8833618,-0.59375,0.859375,0.375
122,122,1727702404352,0.40820312,-0.11480713,-0.87628174,-0.421875,0.765625,0.40625
123,123,1727702404392,0.40014648,-0.116760254,-0.878479,-0.4375,0.78125,0.28125
124,124,1727702404432,0.40576172,-0.11505127,-0.8862915,-0.453125,0.53125,0.234375
125,125,1727702404472,0.40625,-0.11383057,-0.8821411,-0.390625,0.5,0.390625
126,126,1727702404512,0.40527344,-0.105773926,-0.88238525,-0.375,0.609375,0.390625
127,127,1727702404552,0.4038086,-0.109680176,-0.8843384,-0.5,0.78125,0.28125
128,128,1727702404592,0.40478516,-0.10748291,-0.88482666,-0.578125,0.671875,0.265625
129,129,1727702404632,0.40478516,-0.10992432,-0.8772583,-0.40625,0.59375,0.3125
130,130,1727702404672,0.41186523,-0.11065674,-0.88067627,-0.625,0.703125,0.265625
131,131,1727702404712,0.41235352,-0.11456299,-0.8965454,-0.6875,0.875,0.390625
132,132,1727702404752,0.4104004,-0.11236572,-0.87994385,-0.59375,0.796875,0.28125
133,133,1727702404792,0.39819336,-0.108947754,-0.88067627,-0.671875,0.734375,0.25
134,134,1727702404832,0.4116211,-0.11065674,-0.87506104,-0.640625,0.578125,0.375
135,135,1727702404872,0.40454102,-0.113586426,-0.880188,-0.359375,1.0,0.265625
136,136,1727702404912,0.40234375,-0.1116333,-0.88287354,-0.453125,0.828125,0.296875
137,137,1727702404952,0.40625,-0.11187744,-0.87384033,-0.5,0.875,0.203125
138,138,1727702404992,0.40795898,-0.116760254,-0.87384033,-0.484375,0.6875,0.265625
139,139,1727702405032,0.40893555,-0.11553955,-0.8909302,-0.46875,0.734375,0.265625
140,140,1727702405072,0.40771484,-0.11090088,-0.8821411,-0.53125,1.015625,0.328125
141,141,1727702405112,0.4128418,-0.11138916,-0.881897,-0.4375,0.859375,0.296875
142,142,1727702405152,0.40893555,-0.11480713,-0.87164307,-0.34375,0.65625,0.34375
143,143,1727702405192,0.40893555,-0.11407471,-0.8765259,-0.546875,0.90625,0.21875
144,144,1727702405232,0.4020996,-0.11529541,-0.87823486,-0.359375,0.90625,0.265625
145,145,1727702405272,0.41430664,-0.11846924,-0.87994385,-0.3125,0.8125,0.28125
146,146,1727702405312,0.40942383,-0.11016846,-0.878479,-0.390625,0.84375,0.296875
147,147,1727702405352,0.41088867,-0.11456299,-0.8831177,-0.484375,0.765625,0.140625
148,148,1727702405392,0.40844727,-0.10992432,-0.8765259,-0.421875,0.890625,0.359375
149,149,1727702405432,0.4104004,-0.112854004,-0.8792114,-0.640625,0.8125,0.21875
150,150,1727702405472,0.4050293,-0.109680176,-0.8772583,-0.421875,0.78125,0.25
151,151,1727702405512,0.40576172,-0.10992432,-0.88067627,-0.328125,0.828125,0.453125
152,152,1727702405552,0.4165039,-0.11578369,-0.8882446,-0.78125,0.859375,0.171875
153,153,1727702405592,0.41333008,-0.11212158,-0.88287354,-0.59375,0.96875,0.28125
154,154,1727702405632,0.40893555,-0.11260986,-0.87945557,-0.5625,0.78125,0.203125
155,155,1727702405672,0.4013672,-0.113586426,-0.8718872,-0.265625,0.875,0.203125
156,156,1727702405712,0.41064453,-0.113586426,-0.8833618,-0.40625,0.984375,0.21875
157,157,1727702405752,0.41259766,-0.11236572,-0.88165283,-0.671875,0.71875,0.21875
158,158,1727702405792,0.40771484,-0.113342285,-0.87677,-0.5625,0.859375,0.1875
159,159,1727702405832,0.40625,-0.11260986,-0.8850708,-0.40625,0.65625,0.40625
160,160,1727702405872,0.41186523,-0.109680176,-0.88067627,-0.40625,0.6875,0.234375
161,161,1727702405912,0.40942383,-0.11578369,-0.8814087,-0.578125,0.828125,0.203125
162,162,1727702405952,0.41137695,-0.113586426,-0.8760376,-0.3125,0.9375,0.25
163,163,1727702405992,0.41479492,-0.11773682,-0.88116455,-0.46875,0.953125,0.234375
164,164,1727702406032,0.41259766,-0.10870361,-0.8772583,-0.328125,1.015625,0.203125
165,165,1727702406072,0.4099121,-0.11114502,-0.8809204,-0.390625,1.046875,0.40625
166,166,1727702406112,0.40844727,-0.11187744,-0.8858032,-0.484375,1.125,0.21875
167,167,1727702406152,0.40698242,-0.11383057,-0.87750244,-0.46875,1.125,0.3125
168,168,1727702406192,0.41381836,-0.11065674,-0.8855591,-0.640625,0.828125,0.265625
169,169,1727702406232,0.4074707,-0.10821533,-0.881897,-0.75,1.046875,0.140625
170,170,1727702406272,0.40698242,-0.113098145,-0.8753052,-0.609375,0.96875,0.15625
171,171,1727702406312,0.40673828,-0.11505127,-0.88116455,-0.578125,1.03125,0.1875
172,172,1727702406352,0.40576172,-0.11260986,-0.8748169,-0.421875,0.828125,0.21875
173,173,1727702406392,0.40966797,-0.11456299,-0.8867798,-0.890625,0.796875,0.1875
174,174,1727702406432,0.40649414,-0.11236572,-0.8826294,-0.671875,1.15625,0.1875
175,175,1727702406472,0.4074707,-0.11016846,-0.8755493,-0.5,1.0625,0.125
176,176,1727702406512,0.40893555,-0.109680176,-0.8723755,-0.4375,1.125,0.28125
177,177,1727702406552,0.40649414,-0.11114502,-0.88067627,-0.59375,1.265625,0.0625
178,178,1727702406592,0.40600586,-0.10699463,-0.8833618,-0.53125,0.921875,0.265625
179,179,1727702406632,0.4099121,-0.117248535,-0.8792114,-0.453125,1.015625,0.234375
180,180,1727702406672,0.40844727,-0.11578369,-0.88409424,-0.703125,0.765625,0.265625
181,181,1727702406712,0.40551758,-0.11871338,-0.8789673,-0.4375,0.65625,0.171875
182,182,1727702406752,0.4038086,-0.1182251,-0.8814087,-0.65625,0.890625,0.15625
183,183,1727702406792,0.4020996,-0.11578369,-0.8731079,-0.78125,0.703125,0.1875
184,184,1727702406832,0.40722656,-0.113586426,-0.88165283,-0.625,0.6875,0.171875
185,185,1727702406872,0.40527344,-0.11260986,-0.88409424,-0.734375,0.75,0.234375
186,186,1727702406912,0.40649414,-0.113342285,-0.88067627,-0.546875,0.859375,0.3125
187,187,1727702406952,0.40771484,-0.11505127,-0.87750244,-0.4375,0.8125,0.265625
188,188,1727702406992,0.40551758,-0.12017822,-0.8833618,-0.421875,0.828125,0.265625
189,189,1727702407032,0.4074707,-0.11187744,-0.878479,-0.390625,0.78125,0.28125
190,190,1727702407072,0.4111328,-0.12310791,-0.87872314,-0.296875,0.953125,0.140625
191,191,1727702407112,0.40429688,-0.113586426,-0.8804321,-0.3125,0.859375,0.296875
192,192,1727702407152,0.40795898,-0.120910645,-0.8772583,-0.265625,0.609375,0.09375
193,193,1727702407192,0.41137695,-0.10821533,-0.8880005,-0.5,0.703125,0.328125
194,194,1727702407232,0.40966797,-0.117248535,-0.881897,-0.5625,0.765625,0.328125
195,195,1727702407272,0.40234375,-0.11212158,-0.880188,-0.46875,0.640625,0.15625
196,196,1727702407312,0.41186523,-0.11236572,-0.87701416,-0.40625,0.578125,0.375
197,197,1727702407352,0.41186523,-0.11798096,-0.8796997,-0.328125,0.609375,0.28125
198,198,1727702407392,0.4086914,-0.11505127,-0.8862915,-0.234375,0.59375,0.296875
199,199,1727702407432,0.40673828,-0.10992432,-0.88360596,-0.390625,0.484375,0.328125
200,200,1727702407472,0.40405273,-0.11578369,-0.8850708,-0.40625,0.40625,0.234375
201,201,1727702407512,0.41015625,-0.10845947,-0.8843384,-0.625,0.375,0.21875
202,202,1727702407552,0.40405273,-0.120666504,-0.8711548,-0.421875,0.78125,0.28125
203,203,1727702407592,0.4116211,-0.113098145,-0.8718872,-0.234375,1.015625,0.34375
204,204,1727702407632,0.4140625,-0.112854004,-0.8804321,-0.25,0.90625,0.265625
205,205,1727702407672,0.41577148,-0.11505127,-0.8804321,-0.1875,0.828125,0.265625
206,206,1727702407712,0.41088867,-0.11431885,-0.87823486,-0.21875,0.71875,0.265625
207,207,1727702407752,0.41015625,-0.11553955,-0.88238525,-0.40625,0.53125,0.34375
208,208,1727702407792,0.40966797,-0.10870361,-0.87677,-0.46875,0.75,0.28125
209,209,1727702407832,0.40820312,-0.113342285,-0.87628174,-0.453125,0.828125,0.28125
210,210,1727702407872,0.40698242,-0.109680176,-0.8711548,-0.328125,0.921875,0.21875
211,211,1727702407912,0.4099121,-0.11212158,-0.88238525,-0.3125,0.765625,0.21875
212,212,1727702407952,0.41503906,-0.11627197,-0.87506104,-0.546875,0.859375,0.375
213,213,1727702407992,0.40649414,-0.113586426,-0.8748169,-0.34375,0.78125,0.203125
214,214,1727702408032,0.4116211,-0.113586426,-0.8760376,-0.59375,0.796875,0.265625
215,215,1727702408072,0.41430664,-0.11090088,-0.8753052,-0.515625,0.796875,0.296875
216,216,1727702408112,0.41308594,-0.11846924,-0.8718872,-0.921875,0.859375,0.109375
217,217,1727702408152,0.41015625,-0.11016846,-0.8743286,-0.28125,0.953125,0.375
218,218,1727702408192,0.41723633,-0.113586426,-0.88238525,-0.34375,1.015625,0.328125
219,219,1727702408232,0.41064453,-0.11529541,-0.8740845,-0.75,0.953125,0.25
220,220,1727702408272,0.40600586,-0.116760254,-0.87042236,-0.34375,0.984375,0.203125
221,221,1727702408312,0.41357422,-0.1116333,-0.8760376,-0.40625,0.796875,0.453125
222,222,1727702408352,0.4194336,-0.11407471,-0.8743286,-0.40625,0.671875,0.25
223,223,1727702408392,0.41186523,-0.113098145,-0.88409424,-0.703125,1.125,0.203125
224,224,1727702408432,0.40942383,-0.11138916,-0.8723755,-0.53125,1.09375,0.203125
225,225,1727702408472,0.41308594,-0.11798096,-0.8760376,-0.515625,1.0,0.296875
226,226,1727702408512,0.4091797,-0.11480713,-0.878479,-0.34375,1.234375,0.328125
227,227,1727702408552,0.40649414,-0.11505127,-0.8726196,-0.578125,1.140625,0.34375
228,228,1727702408592,0.41723633,-0.109436035,-0.8772583,-0.484375,1.0625,0.234375
229,229,1727702408632,0.40771484,-0.10601807,-0.8760376,-0.515625,1.3125,0.1875
230,230,1727702408672,0.41064453,-0.11651611,-0.8826294,-0.640625,1.203125,0.25
231,231,1727702408712,0.4104004,-0.112854004,-0.88287354,-0.5625,1.125,0.234375
232,232,1727702408752,0.41064453,-0.112854004,-0.87823486,-0.65625,1.109375,0.296875
233,233,1727702408792,0.4091797,-0.113342285,-0.8713989,-0.515625,1.0625,0.171875
234,234,1727702408832,0.40698242,-0.117248535,-0.8779907,-0.453125,0.734375,0.078125
235,235,1727702408872,0.4165039,-0.11431885,-0.8911743,-0.75,1.109375,0.203125
236,236,1727702408912,0.4111328,-0.11895752,-0.88360596,-0.578125,1.1875,0.25
237,237,1727702408952,0.40307617,-0.11407471,-0.8731079,-0.53125,1.125,0.21875
238,238,1727702408992,0.40478516,-0.112854004,-0.8735962,-0.28125,1.015625,0.203125
239,239,1727702409032,0.40966797,-0.11138916,-0.87750244,-0.484375,1.21875,0.203125
240,240,1727702409072,0.4050293,-0.10870361,-0.8792114,-0.59375,0.921875,0.109375
241,241,1727702409112,0.40795898,-0.11773682,-0.87750244,-0.4375,0.984375,0.21875
242,242,1727702409152,0.40478516,-0.11090088,-0.881897,-0.5625,0.890625,0.296875
243,243,1727702409192,0.40576172,-0.113098145,-0.8833618,-0.625,0.75,0.25
244,244,1727702409232,0.40649414,-0.113098145,-0.8831177,-0.703125,0.90625,0.203125
245,245,1727702409272,0.40966797,-0.1182251,-0.878479,-0.515625,1.0,0.328125
246,246,1727702409312,0.4091797,-0.12164307,-0.88360596,-0.3125,0.75,0.15625
247,247,1727702409352,0.41235352,-0.11529541,-0.87994385,-0.375,0.828125,0.15625
248,248,1727702409392,0.40795898,-0.11846924,-0.8838501,-0.359375,0.796875,0.203125
249,249,1727702409432,0.40722656,-0.116760254,-0.8809204,-0.390625,1.0625,0.265625
250,250,1727702409472,0.40673828,-0.11578369,-0.8748169,-0.359375,0.875,0.234375
251,251,1727702409512,0.40356445,-0.11065674,-0.8740845,-0.421875,0.90625,0.109375
252,252,1727702409552,0.40454102,-0.1194458,-0.87872314,-0.640625,0.984375,0.421875
253,253,1727702409592,0.40112305,-0.11505127,-0.878479,-0.1875,0.703125,0.5
254,254,1727702409632,0.40673828,-0.1194458,-0.88482666,-0.1875,0.6875,0.46875
255,255,1727702409672,0.41015625,-0.11236572,-0.88848877,-0.6875,0.8125,0.15625
256,256,1727702409712,0.4169922,-0.11602783,-0.878479,-0.359375,0.78125,0.1875
257,257,1727702409752,0.40405273,-0.109436035,-0.87579346,-0.484375,0.71875,0.1875
258,258,1727702409792,0.4074707,-0.109436035,-0.87506104,-0.28125,0.53125,0.4375
259,259,1727702409832,0.4091797,-0.113586426,-0.87994385,-0.234375,0.90625,0.53125
260,260,1727702409872,0.4025879,-0.113098145,-0.8792114,-0.28125,0.84375,0.203125
261,261,1727702409912,0.40698242,-0.11578369,-0.8777466,-0.46875,0.71875,0.265625
262,262,1727702409952,0.41064453,-0.11065674,-0.88238525,-0.4375,0.65625,0.375
263,263,1727702409992,0.4104004,-0.11260986,-0.8862915,-0.375,0.4375,0.328125
264,264,1727702410032,0.41381836,-0.11773682,-0.8838501,-0.4375,0.640625,0.265625
265,265,1727702410072,0.4091797,-0.11114502,-0.8765259,-0.453125,0.59375,0.21875
266,266,1727702410112,0.40893555,-0.11260986,-0.8755493,-0.453125,0.734375,0.390625
267,267,1727702410152,0.4099121,-0.109680176,-0.8760376,-0.4375,0.59375,0.25
268,268,1727702410192,0.41137695,-0.113586426,-0.8699341,-0.390625,0.671875,0.265625
269,269,1727702410232,0.40942383,-0.1116333,-0.878479,-0.3125,0.59375,0.28125
270,270,1727702410272,0.41235352,-0.109436035,-0.87994385,-0.328125,0.8125,0.109375
271,271,1727702410312,0.4104004,-0.11212158,-0.88116455,-0.5,0.8125,0.375
272,272,1727702410352,0.4099121,-0.109436035,-0.8753052,-0.484375,0.609375,0.1875
273,273,1727702410392,0.41430664,-0.11114502,-0.8777466,-0.484375,0.921875,0.109375
274,274,1727702410432,0.4091797,-0.10723877,-0.87579346,-0.46875,0.71875,0.125
275,275,1727702410472,0.40893555,-0.109191895,-0.86920166,-0.265625,0.703125,0.3125
276,276,1727702410512,0.41723633,-0.10845947,-0.89019775,-0.828125,0.78125,0.21875
277,277,1727702410552,0.41845703,-0.10845947,-0.8862915,-0.578125,1.078125,0.171875
278,278,1727702410592,0.41015625,-0.113586426,-0.87872314,-0.609375,0.859375,0.34375
279,279,1727702410632,0.41870117,-0.11846924,-0.8687134,-0.4375,0.84375,0.296875
280,280,1727702410672,0.41455078,-0.11212158,-0.8796997,-0.484375,1.015625,0.421875
281,281,1727702410712,0.4116211,-0.11260986,-0.87579346,-0.53125,0.71875,0.140625
282,282,1727702410752,0.40820312,-0.10748291,-0.8726196,-0.421875,0.90625,0.1875
283,283,1727702410792,0.41503906,-0.108947754,-0.88067627,-0.4375,0.9375,0.375
284,284,1727702410832,0.41357422,-0.11212158,-0.88116455,-0.390625,0.84375,0.328125
285,285,1727702410872,0.41088867,-0.10675049,-0.88067627,-0.59375,0.859375,0.28125
286,286,1727702410912,0.41137695,-0.113098145,-0.8772583,-0.515625,1.0625,0.21875
287,287,1727702410952,0.41259766,-0.1116333,-0.87872314,-0.421875,0.890625,0.359375
288,288,1727702410992,0.40722656,-0.113342285,-0.8743286,-0.484375,1.0625,0.265625
289,289,1727702411032,0.41186523,-0.11480713,-0.8748169,-0.578125,1.09375,0.21875
290,290,1727702411072,0.41381836,-0.10821533,-0.8796997,-0.703125,1.0625,0.15625
291,291,1727702411112,0.40478516,-0.11431885,-0.8804321,-0.75,1.09375,0.1875
292,292,1727702411152,0.41259766,-0.113098145,-0.880188,-0.6875,1.09375,0.3125
293,293,1727702411192,0.41235352,-0.10723877,-0.8838501,-0.53125,1.1875,0.328125
294,294,1727702411232,0.40771484,-0.11651611,-0.88238525,-0.640625,0.984375,0.21875
295,295,1727702411272,0.4116211,-0.112854004,-0.87677,-0.21875,1.046875,0.25
296,296,1727702411312,0.41137695,-0.11480713,-0.8814087,-0.296875,1.109375,0.28125
297,297,1727702411352,0.41015625,-0.11212158,-0.8779907,-0.421875,0.953125,0.09375
298,298,1727702411392,0.4091797,-0.10797119,-0.8882446,-0.640625,1.046875,0.15625
299,299,1727702411432,0.4020996,-0.109191895,-0.8711548,-0.59375,1.296875,0.15625
300,300,1727702411472,0.40844727,-0.11895752,-0.8789673,-0.5,1.171875,0.265625
301,301,1727702411512,0.40576172,-0.10821533,-0.87628174,-0.625,1.03125,0.21875
302,302,1727702411552,0.40673828,-0.11456299,-0.87457275,-0.5625,0.90625,0.1875
303,303,1727702411592,0.40600586,-0.11236572,-0.8772583,-0.625,0.96875,0.203125
304,304,1727702411632,0.40722656,-0.11431885,-0.87945557,-0.46875,0.84375,0.3125
305,305,1727702411672,0.40893555,-0.11627197,-0.87823486,-0.421875,0.65625,0.328125
306,306,1727702411712,0.40673828,-0.116760254,-0.87945557,-0.609375,0.8125,0.234375
307,307,1727702411752,0.40527344,-0.117248535,-0.88067627,-0.421875,0.875,0.15625
308,308,1727702411792,0.41333008,-0.11456299,-0.8804321,-0.4375,0.8125,0.515625
309,309,1727702411832,0.40771484,-0.11383057,-0.87823486,-0.546875,0.71875,0.328125
310,310,1727702411872,0.40893555,-0.11505127,-0.88116455,-0.328125,0.9375,0.265625
311,311,1727702411912,0.4194336,-0.105529785,-0.8858032,-0.28125,0.765625,0.25
312,312,1727702411952,0.41235352,-0.11529541,-0.8833618,-0.390625,0.75,0.21875
313,313,1727702411992,0.41503906,-0.11480713,-0.88165283,-0.40625,0.640625,0.40625
314,314,1727702412032,0.41137695,-0.11236572,-0.8804321,-0.3125,0.734375,0.4375
315,315,1727702412072,0.4086914,-0.11114502,-0.8777466,-0.4375,0.6875,0.34375
316,316,1727702412112,0.4099121,-0.11846924,-0.8731079,-0.21875,0.5625,0.359375
317,317,1727702412152,0.40966797,-0.11578369,-0.87945557,-0.546875,0.484375,0.15625
318,318,1727702412192,0.41430664,-0.112854004,-0.88482666,-0.609375,0.671875,0.15625
319,319,1727702412232,0.40795898,-0.109680176,-0.87628174,-0.40625,0.765625,0.328125
320,320,1727702412272,0.40893555,-0.11383057,-0.87042236,-0.234375,0.828125,0.46875
321,321,1727702412312,0.40893555,-0.113586426,-0.8777466,-0.34375,0.84375,0.25
322,322,1727702412352,0.41601562,-0.11407471,-0.8796997,-0.4375,0.6875,0.21875
323,323,1727702412392,0.4074707,-0.10723877,-0.87335205,-0.40625,0.71875,0.359375
324,324,1727702412432,0.4177246,-0.11016846,-0.88067627,-0.46875,0.625,0.25
325,325,1727702412472,0.40966797,-0.10699463,-0.87872314,-0.5,0.53125,0.34375
326,326,1727702412512,0.41064453,-0.109680176,-0.88067627,-0.53125,0.890625,0.296875
327,327,1727702412552,0.41625977,-0.11456299,-0.8804321,-0.53125,0.671875,0.34375
328,328,1727702412592,0.4111328,-0.10723877,-0.87335205,-0.328125,0.734375,0.203125
329,329,1727702412632,0.41577148,-0.11016846,-0.88067627,-0.40625,0.625,0.203125
330,330,1727702412672,0.40844727,-0.11456299,-0.87750244,-0.34375,0.6875,0.40625
331,331,1727702412712,0.4091797,-0.113586426,-0.8735962,-0.25,0.546875,0.28125
332,332,1727702412752,0.40405273,-0.10723877,-0.878479,-0.484375,0.9375,0.421875
333,333,1727702412792,0.4182129,-0.1104126,-0.8809204,-0.4375,0.78125,0.171875
334,334,1727702412832,0.41308594,-0.11529541,-0.87823486,-0.28125,0.78125,0.21875
335,335,1727702412872,0.41235352,-0.10992432,-0.880188,-0.46875,0.796875,0.28125
336,336,1727702412912,0.41015625,-0.105529785,-0.878479,-0.546875,0.75,0.328125
337,337,1727702412952,0.40625,-0.10992432,-0.88067627,-0.5,0.578125,0.25
338,338,1727702412992,0.4099121,-0.11383057,-0.86309814,-0.265625,0.5,0.3125
339,339,1727702413032,0.4128418,-0.113098145,-0.8850708,-0.578125,0.796875,0.328125
340,340,1727702413072,0.41674805,-0.11016846,-0.880188,-0.5,0.859375,0.15625
341,341,1727702413112,0.4128418,-0.11212158,-0.87384033,-0.4375,0.828125,0.484375
342,342,1727702413152,0.41186523,-0.11016846,-0.88238525,-0.703125,0.859375,0.21875
343,343,1727702413192,0.41845703,-0.113586426,-0.87750244,-0.578125,0.859375,0.265625
344,344,1727702413232,0.41577148,-0.11505127,-0.87994385,-0.421875,0.71875,0.296875
345,345,1727702413272,0.41137695,-0.11456299,-0.87506104,-0.453125,0.640625,0.265625
346,346,1727702413312,0.40966797,-0.11260986,-0.8789673,-0.5625,0.671875,0.265625
347,347,1727702413352,0.40942383,-0.117004395,-0.87213135,-0.640625,1.046875,0.171875
348,348,1727702413392,0.41357422,-0.11602783,-0.8796997,-0.296875,0.875,0.3125
349,349,1727702413432,0.41357422,-0.10870361,-0.881897,-0.296875,0.796875,0.296875
350,350,1727702413472,0.4177246,-0.116760254,-0.87579346,-0.40625,0.8125,0.296875
351,351,1727702413512,0.41503906,-0.1104126,-0.8723755,-0.546875,0.8125,0.15625
352,352,1727702413552,0.41235352,-0.10870361,-0.8701782,-0.46875,0.9375,0.28125
353,353,1727702413592,0.41430664,-0.117248535,-0.8789673,-0.4375,0.921875,0.375
354,354,1727702413632,0.41577148,-0.1104126,-0.8814087,-0.4375,0.859375,0.109375
355,355,1727702413672,0.41845703,-0.10723877,-0.88482666,-0.65625,0.984375,0.25
356,356,1727702413712,0.4169922,-0.11431885,-0.8743286,-0.71875,0.734375,0.25
357,357,1727702413752,0.4074707,-0.11065674,-0.8740845,-0.484375,0.96875,0.234375
358,358,1727702413792,0.41088867,-0.10870361,-0.87457275,-0.5625,0.9375,0.375
359,359,1727702413832,0.40795898,-0.113098145,-0.87677,-0.546875,1.0625,0.28125
360,360,1727702413872,0.41748047,-0.11212158,-0.88067627,-0.796875,1.234375,0.140625
361,361,1727702413912,0.4086914,-0.10821533,-0.87823486,-0.453125,1.25,0.015625
362,362,1727702413952,0.41235352,-0.11871338,-0.8748169,-0.453125,1.359375,0.171875
363,363,1727702413992,0.40942383,-0.11431885,-0.8789673,-0.640625,1.40625,0.109375
364,364,1727702414032,0.40014648,-0.10748291,-0.87506104,-0.5625,1.078125,0.21875
365,365,1727702414072,0.41064453,-0.11529541,-0.87457275,-0.390625,1.28125,0.25
366,366,1727702414112,0.40429688,-0.11138916,-0.8726196,-0.46875,0.984375,0.171875
367,367,1727702414152,0.41235352,-0.11627197,-0.8814087,-0.671875,0.65625,0.203125
368,368,1727702414192,0.41601562,-0.109680176,-0.881897,-0.625,0.640625,0.296875
369,369,1727702414232,0.41210938,-0.10870361,-0.8804321,-0.703125,0.65625,0.15625
370,370,1727702414272,0.4091797,-0.11407471,-0.88067627,-0.859375,0.71875,0.296875
371,371,1727702414312,0.40600586,-0.109680176,-0.87286377,-0.78125,0.90625,0.1875
372,372,1727702414352,0.41064453,-0.117248535,-0.87750244,-0.5,1.09375,0.265625
373,373,1727702414392,0.40649414,-0.113098145,-0.88287354,-0.359375,1.0625,0.234375
374,374,1727702414432,0.41503906,-0.109680176,-0.8831177,-0.453125,0.984375,0.265625
375,375,1727702414472,0.40600586,-0.113342285,-0.8755493,-0.5625,1.015625,0.171875
376,376,1727702414512,0.4111328,-0.11627197,-0.87506104,-0.578125,0.765625,0.25
377,377,1727702414552,0.40307617,-0.11065674,-0.8731079,-0.5,0.796875,0.140625
378,378,1727702414592,0.4165039,-0.11260986,-0.87701416,-0.3125,0.953125,0.1875
379,379,1727702414632,0.4104004,-0.11578369,-0.88946533,-0.75,1.09375,0.265625
380,380,1727702414672,0.40771484,-0.1116333,-0.88531494,-0.421875,1.015625,0.234375
381,381,1727702414712,0.4033203,-0.117248535,-0.8755493,-0.46875,0.921875,0.28125
382,382,1727702414752,0.4104004,-0.11529541,-0.8765259,-0.4375,0.90625,0.140625
383,383,1727702414792,0.40942383,-0.11578369,-0.87872314,-0.34375,0.859375,0.28125
384,384,1727702414832,0.4104004,-0.117492676,-0.8779907,-0.25,0.5625,0.515625
385,385,1727702414872,0.4111328,-0.11871338,-0.88067627,-0.40625,0.6875,0.21875
386,386,1727702414912,0.41455078,-0.11578369,-0.881897,-0.40625,0.578125,0.359375
387,387,1727702414952,0.41455078,-0.11505127,-0.8779907,-0.359375,0.40625,0.359375
388,388,1727702414992,0.41235352,-0.11236572,-0.8748169,-0.40625,0.703125,0.46875
389,389,1727702415032,0.41088867,-0.113586426,-0.87457275,-0.46875,0.734375,0.4375
390,390,1727702415072,0.40771484,-0.11578369,-0.8858032,-0.328125,0.59375,0.21875
391,391,1727702415112,0.41186523,-0.11383057,-0.88116455,-0.4375,0.78125,0.359375
392,392,1727702415152,0.41357422,-0.10797119,-0.8833618,-0.390625,0.5,0.265625
393,393,1727702415192,0.4104004,-0.1038208,-0.87823486,-0.375,0.65625,0.28125
394,394,1727702415232,0.4050293,-0.11431885,-0.8682251,-0.203125,0.65625,0.34375
395,395,1727702415272,0.41088867,-0.10772705,-0.8779907,-0.453125,0.765625,0.40625
396,396,1727702415312,0.41357422,-0.10870361,-0.88238525,-0.59375,0.828125,0.3125
397,397,1727702415352,0.41064453,-0.11578369,-0.87677,-0.46875,0.71875,0.328125
398,398,1727702415392,0.41357422,-0.11383057,-0.87579346,-0.328125,0.796875,0.359375
399,399,1727702415432,0.41088867,-0.11090088,-0.8887329,-0.828125,0.90625,0.28125
400,400,1727702415472,0.41674805,-0.11505127,-0.8772583,-0.46875,0.734375,0.34375
401,401,1727702415512,0.40966797,-0.112854004,-0.8713989,-0.609375,0.796875,0.203125
402,402,1727702415552,0.41357422,-0.11602783,-0.87750244,-0.25,0.59375,0.3125
403,403,1727702415592,0.41455078,-0.1116333,-0.8740845,-0.421875,0.90625,0.34375
404,404,1727702415632,0.41577148,-0.11065674,-0.87579346,-0.59375,0.734375,0.1875
405,405,1727702415672,0.40942383,-0.11236572,-0.8701782,-0.609375,0.953125,0.1875
406,406,1727702415712,0.41430664,-0.11090088,-0.88116455,-0.453125,0.765625,0.1875
407,407,1727702415752,0.41601562,-0.117492676,-0.88409424,-0.5625,0.78125,0.25
408,408,1727702415792,0.41577148,-0.11090088,-0.8740845,-0.546875,0.921875,0.296875
409,409,1727702415832,0.41137695,-0.1104126,-0.8740845,-0.484375,0.6875,0.359375
410,410,1727702415872,0.41210938,-0.10870361,-0.87506104,-0.5,1.015625,0.328125
411,411,1727702415912,0.4165039,-0.113586426,-0.8740845,-0.453125,0.796875,0.25
412,412,1727702415952,0.40942383,-0.10992432,-0.87164307,-0.4375,0.859375,0.25
413,413,1727702415992,0.41308594,-0.1116333,-0.87579346,-0.4375,0.890625,0.28125
414,414,1727702416032,0.41259766,-0.10748291,-0.87628174,-0.296875,0.828125,0.171875
415,415,1727702416072,0.41235352,-0.11065674,-0.8753052,-0.40625,0.984375,0.296875
416,416,1727702416112,0.41186523,-0.11212158,-0.8713989,-0.46875,0.84375,0.296875
417,417,1727702416152,0.41308594,-0.109191895,-0.8789673,-0.53125,0.890625,0.234375
418,418,1727702416192,0.41992188,-0.11480713,-0.87628174,-0.375,0.859375,0.296875
419,419,1727702416232,0.41381836,-0.117004395,-0.87042236,-0.421875,0.75,0.25
420,420,1727702416272,0.42016602,-0.11236572,-0.8845825,-0.859375,0.890625,0.234375
421,421,1727702416312,0.4248047,-0.109436035,-0.8777466,-0.5,0.890625,0.1875
422,422,1727702416352,0.41870117,-0.11529541,-0.8755493,-0.515625,0.828125,0.15625
423,423,1727702416392,0.41333008,-0.11602783,-0.8687134,-0.4375,0.875,0.328125
424,424,1727702416432,0.41723633,-0.11578369,-0.87457275,-0.453125,0.921875,0.25
425,425,1727702416472,0.40551758,-0.10626221,-0.87579346,-0.609375,0.71875,0.21875
426,426,1727702416512,0.41210938,-0.11187744,-0.8735962,-0.4375,0.859375,0.359375
427,427,1727702416552,0.41333008,-0.11065674,-0.8777466,-0.640625,0.640625,0.1875
428,428,1727702416592,0.42016602,-0.10723877,-0.88409424,-0.484375,0.734375,0.375
429,429,1727702416632,0.41796875,-0.11090088,-0.8723755,-0.578125,1.140625,0.25
430,430,1727702416672,0.4182129,-0.10479736,-0.8713989,-0.4375,0.984375,0.1875
431,431,1727702416712,0.42041016,-0.11480713,-0.87335205,-0.390625,0.859375,0.28125
432,432,1727702416752,0.41381836,-0.11187744,-0.8723755,-0.359375,0.984375,0.359375
433,433,1727702416792,0.4182129,-0.101135254,-0.88067627,-0.53125,1.0,0.296875
434,434,1727702416832,0.4140625,-0.11407471,-0.88360596,-0.484375,0.90625,0.296875
435,435,1727702416872,0.41137695,-0.11138916,-0.8772583,-0.609375,0.859375,0.203125
436,436,1727702416912,0.4140625,-0.11529541,-0.8765259,-0.625,1.046875,0.296875
437,437,1727702416952,0.4169922,-0.10675049,-0.87872314,-0.6875,1.265625,0.265625
438,438,1727702416992,0.41625977,-0.11480713,-0.87677,-0.53125,1.015625,0.21875
439,439,1727702417032,0.41259766,-0.11553955,-0.87579346,-0.671875,1.0,0.15625
440,440,1727702417072,0.41259766,-0.113098145,-0.8772583,-0.625,0.953125,0.3125
441,441,1727702417112,0.40844727,-0.113342285,-0.86187744,-0.3125,0.65625,0.328125
442,442,1727702417152,0.42114258,-0.10992432,-0.8831177,-0.515625,1.015625,0.328125
443,443,1727702417192,0.40844727,-0.11456299,-0.8755493,-0.421875,1.359375,0.203125
444,444,1727702417232,0.41625977,-0.10870361,-0.8777466,-0.484375,1.40625,0.21875
445,445,1727702417272,0.4074707,-0.105529785,-0.8814087,-0.734375,1.3125,-0.015625
446,446,1727702417312,0.41333008,-0.117004395,-0.8753052,-0.546875,1.109375,0.140625
447,447,1727702417352,0.41186523,-0.11383057,-0.87750244,-0.546875,0.921875,0.15625
448,448,1727702417392,0.40820312,-0.109191895,-0.8743286,-0.46875,0.671875,0.1875
449,449,1727702417432,0.41748047,-0.11407471,-0.87506104,-0.75,0.734375,0.25
450,450,1727702417472,0.41308594,-0.11260986,-0.87579346,-0.421875,1.03125,0.03125
451,451,1727702417512,0.40698242,-0.11602783,-0.87701416,-0.578125,1.015625,0.171875
452,452,1727702417552,0.4104004,-0.113098145,-0.88067627,-0.5,0.90625,0.265625
453,453,1727702417592,0.41577148,-0.11383057,-0.87945557,-0.4375,1.046875,0.125
454,454,1727702417632,0.41625977,-0.10675049,-0.8748169,-0.546875,1.046875,0.34375
455,455,1727702417672,0.41455078,-0.11383057,-0.88165283,-0.53125,0.984375,0.203125
456,456,1727702417712,0.40820312,-0.121154785,-0.8809204,-0.453125,1.046875,0.125
457,457,1727702417752,0.4111328,-0.11798096,-0.8804321,-0.453125,0.78125,0.234375
458,458,1727702417792,0.41210938,-0.10675049,-0.8753052,-0.28125,0.8125,0.296875
459,459,1727702417832,0.40942383,-0.113098145,-0.87506104,-0.421875,0.84375,0.21875
460,460,1727702417872,0.40600586,-0.11236572,-0.8718872,-0.296875,0.78125,0.421875
461,461,1727702417912,0.41577148,-0.11431885,-0.8640747,-0.375,0.546875,0.40625
462,462,1727702417952,0.41455078,-0.1116333,-0.88165283,-0.515625,0.84375,0.359375
463,463,1727702417992,0.41015625,-0.11456299,-0.8706665,-0.28125,0.75,0.375
464,464,1727702418032,0.40600586,-0.11407471,-0.8743286,-0.359375,0.890625,0.171875
465,465,1727702418072,0.40722656,-0.11456299,-0.8833618,-0.40625,1.109375,0.21875
466,466,1727702418112,0.41137695,-0.10699463,-0.8814087,-0.53125,0.71875,0.375
467,467,1727702418152,0.41577148,-0.11505127,-0.87457275,-0.328125,0.71875,0.375
468,468,1727702418192,0.41064453,-0.11187744,-0.87628174,-0.421875,0.5625,0.234375
469,469,1727702418232,0.40893555,-0.109680176,-0.8821411,-0.609375,0.53125,0.203125
470,470,1727702418272,0.40893555,-0.11553955,-0.8789673,-0.53125,0.65625,0.234375
471,471,1727702418312,0.40771484,-0.11627197,-0.8779907,-0.515625,0.609375,0.265625
472,472,1727702418352,0.41015625,-0.11773682,-0.8831177,-0.3125,0.5625,0.359375
473,473,1727702418392,0.41357422,-0.11236572,-0.88067627,-0.40625,0.65625,0.3125
474,474,1727702418432,0.40795898,-0.113342285,-0.8760376,-0.5,0.765625,0.46875
475,475,1727702418472,0.40722656,-0.105773926,-0.87286377,-0.484375,0.625,0.328125
476,476,1727702418512,0.4169922,-0.109436035,-0.8765259,-0.5,0.71875,0.171875
477,477,1727702418552,0.41674805,-0.11114502,-0.87506104,-0.484375,0.765625,0.328125
478,478,1727702418592,0.41479492,-0.109436035,-0.87994385,-0.59375,0.90625,0.234375
479,479,1727702418632,0.41210938,-0.1116333,-0.87213135,-0.484375,0.765625,0.171875
480,480,1727702418672,0.42016602,-0.10675049,-0.8792114,-0.546875,0.609375,0.3125
481,481,1727702418712,0.41503906,-0.11773682,-0.8687134,-0.390625,0.5,0.265625
482,482,1727702418752,0.41577148,-0.11431885,-0.8765259,-0.59375,0.859375,0.28125
483,483,1727702418792,0.4177246,-0.10870361,-0.8760376,-0.375,0.734375,0.328125
484,484,1727702418832,0.4128418,-0.113342285,-0.8706665,-0.3125,0.703125,0.421875
485,485,1727702418872,0.42089844,-0.120666504,-0.87750244,-0.515625,0.890625,0.28125
486,486,1727702418912,0.4169922,-0.11260986,-0.8772583,-0.5625,0.6875,0.359375
487,487,1727702418952,0.41870117,-0.117004395,-0.8760376,-0.484375,0.90625,0.265625
488,488,1727702418992,0.41381836,-0.10699463,-0.8765259,-0.421875,0.71875,0.40625
489,489,1727702419032,0.4128418,-0.11431885,-0.8765259,-0.359375,0.765625,0.453125
490,490,1727702419072,0.41796875,-0.11383057,-0.87701416,-0.484375,0.890625,0.3125
491,491,1727702419112,0.4165039,-0.109191895,-0.87286377,-0.359375,0.734375,0.3125
492,492,1727702419152,0.4206543,-0.1182251,-0.87384033,-0.34375,0.828125,0.140625
493,493,1727702419192,0.41577148,-0.1182251,-0.87628174,-0.3125,0.640625,0.328125
494,494,1727702419232,0.42138672,-0.113586426,-0.87457275,-0.375,0.890625,0.28125
495,495,1727702419272,0.41674805,-0.10870361,-0.8772583,-0.34375,0.890625,0.15625
496,496,1727702419312,0.41674805,-0.11407471,-0.8740845,-0.359375,1.078125,0.203125
497,497,1727702419352,0.41674805,-0.11236572,-0.8779907,-0.6875,0.828125,0.234375
498,498,1727702419392,0.41723633,-0.10675049,-0.8748169,-0.703125,1.09375,0.125
499,499,1727702419432,0.41625977,-0.10675049,-0.88116455,-0.515625,0.828125,0.34375
500,500,1727702419472,0.4182129,-0.1116333,-0.8753052,-0.5,0.828125,0.15625
501,501,1727702419512,0.41601562,-0.11431885,-0.8777466,-0.4375,0.734375,0.265625
502,502,1727702419552,0.41967773,-0.11383057,-0.8713989,-0.3125,0.6875,0.078125
503,503,1727702419592,0.42089844,-0.112854004,-0.87628174,-0.65625,0.765625,0.4375
504,504,1727702419632,0.4169922,-0.11480713,-0.87384033,-0.359375,0.90625,0.375
505,505,1727702419672,0.41479492,-0.11212158,-0.8687134,-0.21875,0.984375,0.390625
506,506,1727702419712,0.41552734,-0.11236572,-0.8804321,-0.375,0.953125,0.234375
507,507,1727702419752,0.4177246,-0.11114502,-0.87286377,-0.5625,0.9375,0.21875
508,508,1727702419792,0.41625977,-0.11187744,-0.8718872,-0.421875,0.921875,0.140625
509,509,1727702419832,0.41918945,-0.10870361,-0.87579346,-0.453125,0.625,0.25
510,510,1727702419872,0.4206543,-0.10992432,-0.8772583,-0.5,0.765625,0.265625
511,511,1727702419912,0.41870117,-0.11016846,-0.8753052,-0.59375,0.71875,0.125
512,512,1727702419952,0.4116211,-0.11431885,-0.8748169,-0.5,0.765625,0.1875
513,513,1727702419992,0.41674805,-0.11407471,-0.8765259,-0.46875,0.953125,0.390625
514,514,1727702420032,0.4189453,-0.11187744,-0.87506104,-0.484375,0.953125,0.28125
515,515,1727702420072,0.42089844,-0.1104126,-0.87506104,-0.3125,0.953125,0.171875
516,516,1727702420112,0.42138672,-0.105529785,-0.8682251,-0.4375,0.984375,0.203125
517,517,1727702420152,0.4177246,-0.112854004,-0.8772583,-0.375,0.9375,0.1875
518,518,1727702420192,0.41479492,-0.11431885,-0.878479,-0.5,0.859375,0.34375
519,519,1727702420232,0.41210938,-0.109680176,-0.8718872,-0.53125,1.109375,0.234375
520,520,1727702420272,0.41308594,-0.108947754,-0.8753052,-0.5625,0.890625,0.3125
521,521,1727702420312,0.41674805,-0.112854004,-0.8753052,-0.640625,0.96875,0.3125
522,522,1727702420352,0.41308594,-0.11383057,-0.8665161,-0.421875,0.8125,0.328125
523,523,1727702420392,0.4099121,-0.11627197,-0.85943604,-0.484375,0.8125,0.453125
524,524,1727702420432,0.4206543,-0.11383057,-0.8838501,-0.671875,0.9375,0.328125
525,525,1727702420472,0.4169922,-0.11627197,-0.8731079,-0.46875,1.0,0.203125
526,526,1727702420512,0.41259766,-0.117492676,-0.8755493,-0.59375,1.328125,0.140625
527,527,1727702420552,0.41577148,-0.11138916,-0.880188,-0.6875,1.15625,0.234375
528,528,1727702420592,0.41308594,-0.11236572,-0.87945557,-0.75,1.09375,0.296875
529,529,1727702420632,0.41479492,-0.11407471,-0.8777466,-0.546875,1.03125,0.203125
530,530,1727702420672,0.41064453,-0.11651611,-0.87384033,-0.375,0.796875,0.203125
531,531,1727702420712,0.4140625,-0.117492676,-0.87872314,-0.6875,0.90625,0.15625
532,532,1727702420752,0.4116211,-0.11456299,-0.87701416,-0.625,0.828125,0.09375
533,533,1727702420792,0.41259766,-0.12017822,-0.8772583,-0.4375,0.921875,0.3125
534,534,1727702420832,0.41577148,-0.11968994,-0.8792114,-0.375,0.78125,0.265625
535,535,1727702420872,0.4152832,-0.11212158,-0.8755493,-0.453125,1.03125,0.265625
536,536,1727702420912,0.41357422,-0.109680176,-0.8779907,-0.484375,1.03125,0.25
537,537,1727702420952,0.41357422,-0.11529541,-0.87579346,-0.5625,1.015625,0.28125
538,538,1727702420992,0.41577148,-0.11383057,-0.87335205,-0.484375,1.015625,0.328125
539,539,1727702421032,0.4116211,-0.11602783,-0.8755493,-0.640625,0.984375,0.203125
540,540,1727702421072,0.41137695,-0.117492676,-0.8789673,-0.6875,1.03125,0.125
541,541,1727702421112,0.41479492,-0.11407471,-0.87677,-0.765625,1.109375,0.140625
542,542,1727702421152,0.41137695,-0.11529541,-0.88116455,-0.6875,0.90625,0.109375
543,543,1727702421192,0.4152832,-0.10992432,-0.88067627,-0.734375,0.9375,0.21875
544,544,1727702421232,0.4099121,-0.116760254,-0.87750244,-0.421875,0.6875,0.171875
545,545,1727702421272,0.42333984,-0.11798096,-0.8870239,-0.625,1.078125,0.234375
546,546,1727702421312,0.4116211,-0.117492676,-0.87750244,-0.40625,0.828125,0.328125
547,547,1727702421352,0.4182129,-0.112854004,-0.8789673,-0.359375,1.03125,0.34375
548,548,1727702421392,0.41381836,-0.11187744,-0.87677,-0.578125,0.8125,0.21875
549,549,1727702421432,0.41064453,-0.120666504,-0.87335205,-0.296875,0.828125,0.375
550,550,1727702421472,0.40966797,-0.113586426,-0.87872314,-0.25,0.765625,0.25
551,551,1727702421512,0.41479492,-0.11456299,-0.8814087,-0.125,0.6875,0.4375
552,552,1727702421552,0.41137695,-0.113342285,-0.8796997,-0.390625,0.5625,0.359375
553,553,1727702421592,0.41796875,-0.11627197,-0.8726196,-0.453125,0.46875,0.3125
554,554,1727702421632,0.4104004,-0.11090088,-0.87579346,-0.1875,0.78125,0.453125
555,555,1727702421672,0.4128418,-0.117004395,-0.8765259,-0.296875,0.6875,0.234375
556,556,1727702421712,0.41259766,-0.11529541,-0.8777466,-0.296875,0.484375,0.421875
557,557,1727702421752,0.41723633,-0.108947754,-0.8804321,-0.109375,0.578125,0.328125
558,558,1727702421792,0.41552734,-0.108947754,-0.8755493,-0.359375,0.65625,0.375
559,559,1727702421832,0.41333008,-0.11236572,-0.880188,-0.34375,0.796875,0.375
560,560,1727702421872,0.42114258,-0.1104126,-0.87823486,-0.5,0.78125,0.265625
561,561,1727702421912,0.4182129,-0.109436035,-0.87286377,-0.59375,0.734375,0.28125
562,562,1727702421952,0.41723633,-0.11212158,-0.8677368,-0.375,0.671875,0.34375
563,563,1727702421992,0.41870117,-0.11236572,-0.87335205,-0.296875,0.59375,0.40625
564,564,1727702422032,0.41601562,-0.11383057,-0.87994385,-0.6875,0.78125,0.234375
565,565,1727702422072,0.42114258,-0.113586426,-0.8740845,-0.484375,0.671875,0.375
566,566,1727702422112,0.4169922,-0.109436035,-0.87286377,-0.421875,0.671875,0.15625
567,567,1727702422152,0.41381836,-0.11627197,-0.86724854,-0.25,0.75,0.296875
568,568,1727702422192,0.41601562,-0.109680176,-0.87457275,-0.546875,0.96875,0.234375
569,569,1727702422232,0.40966797,-0.113098145,-0.880188,-0.515625,0.578125,0.3125
570,570,1727702422272,0.41992188,-0.10748291,-0.8777466,-0.46875,0.59375,0.203125
571,571,1727702422312,0.42407227,-0.113586426,-0.8772583,-0.53125,0.71875,0.3125
572,572,1727702422352,0.4206543,-0.113586426,-0.8809204,-0.375,0.484375,0.359375
573,573,1727702422392,0.4152832,-0.11602783,-0.8796997,-0.515625,0.8125,0.265625
574,574,1727702422432,0.42211914,-0.1116333,-0.8748169,-0.5625,0.671875,0.421875
575,575,1727702422472,0.41796875,-0.11431885,-0.8723755,-0.390625,0.828125,0.328125
576,576,1727702422512,0.4189453,-0.11431885,-0.8765259,-0.421875,0.734375,0.453125
577,577,1727702422552,0.4169922,-0.109680176,-0.8748169,-0.40625,0.875,0.21875
578,578,1727702422592,0.4169922,-0.11090088,-0.8726196,-0.390625,0.765625,0.453125
579,579,1727702422632,0.41796875,-0.109191895,-0.87701416,-0.359375,0.828125,0.359375
580,580,1727702422672,0.42138672,-0.113342285,-0.87677,-0.453125,1.0,0.3125
581,581,1727702422712,0.41503906,-0.109436035,-0.8731079,-0.546875,0.921875,0.21875
582,582,1727702422752,0.41357422,-0.11260986,-0.8731079,-0.46875,0.890625,0.234375
583,583,1727702422792,0.4116211,-0.11480713,-0.8748169,-0.46875,0.875,0.328125
584,584,1727702422832,0.41674805,-0.109680176,-0.8755493,-0.40625,0.78125,0.125
585,585,1727702422872,0.4260254,-0.11260986,-0.8838501,-0.890625,0.8125,0.203125
586,586,1727702422912,0.42285156,-0.10650635,-0.87750244,-0.59375,0.859375,0.25
587,587,1727702422952,0.41748047,-0.11016846,-0.87213135,-0.5625,0.984375,0.25
588,588,1727702422992,0.4194336,-0.11456299,-0.87091064,-0.53125,0.796875,0.171875
589,589,1727702423032,0.4177246,-0.10845947,-0.87994385,-0.578125,1.125,0.125
590,590,1727702423072,0.41503906,-0.11456299,-0.8699341,-0.5625,0.8125,0.171875
591,591,1727702423112,0.41748047,-0.11114502,-0.878479,-0.453125,0.953125,0.3125
592,592,1727702423152,0.4248047,-0.11383057,-0.880188,-0.4375,0.9375,0.28125
593,593,1727702423192,0.4177246,-0.11016846,-0.8740845,-0.40625,0.8125,0.265625
594,594,1727702423232,0.42236328,-0.11236572,-0.87994385,-0.609375,1.015625,0.1875
595,595,1727702423272,0.4140625,-0.113098145,-0.87091064,-0.53125,0.96875,0.265625
596,596,1727702423312,0.41503906,-0.113586426,-0.8760376,-0.484375,0.90625,0.328125
597,597,1727702423352,0.41918945,-0.109680176,-0.878479,-0.46875,1.03125,0.25
598,598,1727702423392,0.4165039,-0.1104126,-0.8760376,-0.421875,0.96875,0.296875
599,599,1727702423432,0.41748047,-0.10650635,-0.8753052,-0.5,1.046875,0.265625
600,600,1727702423472,0.41918945,-0.10748291,-0.87579346,-0.453125,1.078125,0.296875
601,601,1727702423512,0.4140625,-0.11090088,-0.8792114,-0.578125,1.109375,0.15625
602,602,1727702423552,0.4165039,-0.11090088,-0.8760376,-0.59375,1.234375,0.25
603,603,1727702423592,0.41357422,-0.112854004,-0.8753052,-0.515625,1.046875,0.171875
604,604,1727702423632,0.41503906,-0.11578369,-0.8753052,-0.4375,1.09375,0.1875
605,605,1727702423672,0.41796875,-0.117492676,-0.8826294,-0.46875,1.046875,0.3125
606,606,1727702423712,0.4169922,-0.10992432,-0.8755493,-0.8125,0.953125,0.109375
607,607,1727702423752,0.41601562,-0.113342285,-0.88067627,-0.796875,1.03125,0.171875
608,608,1727702423792,0.41601562,-0.10479736,-0.86968994,-0.484375,0.9375,0.21875
609,609,1727702423832,0.4104004,-0.1116333,-0.87213135,-0.3125,1.0,0.171875
610,610,1727702423872,0.4169922,-0.11090088,-0.880188,-0.609375,1.125,0.25
611,611,1727702423912,0.41333008,-0.11212158,-0.8735962,-0.4375,0.953125,0.3125
612,612,1727702423952,0.4182129,-0.11846924,-0.8748169,-0.46875,0.875,0.328125
613,613,1727702423992,0.41430664,-0.11553955,-0.8755493,-0.46875,0.78125,0.203125
614,614,1727702424032,0.4189453,-0.11090088,-0.87164307,-0.390625,0.765625,0.09375
615,615,1727702424072,0.40844727,-0.1104126,-0.8765259,-0.609375,1.046875,0.0625
616,616,1727702424112,0.41235352,-0.121154785,-0.8743286,-0.5,0.8125,0.203125
617,617,1727702424152,0.4111328,-0.11529541,-0.8760376,-0.34375,0.8125,0.328125
618,618,1727702424192,0.41577148,-0.11016846,-0.88287354,-0.265625,0.84375,0.390625
619,619,1727702424232,0.41381836,-0.112854004,-0.8735962,-0.34375,0.875,0.09375
620,620,1727702424272,0.41723633,-0.11236572,-0.87701416,-0.234375,0.921875,0.265625
621,621,1727702424312,0.4152832,-0.112854004,-0.878479,-0.296875,0.859375,0.359375
622,622,1727702424352,0.41210938,-0.1104126,-0.87579346,-0.40625,0.8125,0.203125
623,623,1727702424392,0.41796875,-0.11505127,-0.8765259,-0.578125,0.921875,0.296875
624,624,1727702424432,0.40771484,-0.11529541,-0.8670044,-0.34375,0.78125,0.28125
625,625,1727702424472,0.4152832,-0.11383057,-0.87579346,-0.171875,0.53125,0.40625
626,626,1727702424512,0.4169922,-0.109436035,-0.8777466,-0.4375,0.640625,0.140625
627,627,1727702424552,0.42260742,-0.11602783,-0.88067627,-0.46875,0.75,0.234375
628,628,1727702424592,0.41577148,-0.11456299,-0.8726196,-0.484375,1.03125,0.3125
629,629,1727702424632,0.41748047,-0.11187744,-0.86968994,-0.234375,0.859375,0.265625
630,630,1727702424672,0.4189453,-0.11505127,-0.87823486,-0.46875,0.765625,0.328125
631,631,1727702424712,0.41259766,-0.1194458,-0.8706665,-0.515625,0.734375,0.3125
632,632,1727702424752,0.41333008,-0.11065674,-0.878479,-0.375,0.71875,0.359375
633,633,1727702424792,0.41503906,-0.10992432,-0.88653564,-0.4375,0.734375,0.265625
634,634,1727702424832,0.41723633,-0.1182251,-0.87457275,-0.25,0.515625,0.328125
635,635,1727702424872,0.41479492,-0.11627197,-0.87457275,-0.59375,0.953125,0.296875
636,636,1727702424912,0.41479492,-0.113342285,-0.87335205,-0.234375,0.703125,0.203125
637,637,1727702424952,0.4169922,-0.1116333,-0.8772583,-0.546875,0.828125,0.265625
638,638,1727702424992,0.41796875,-0.10870361,-0.8753052,-0.40625,0.71875,0.3125
639,639,1727702425032,0.4177246,-0.11529541,-0.8731079,-0.375,0.734375,0.328125
640,640,1727702425072,0.41674805,-0.11212158,-0.87164307,-0.34375,0.8125,0.375
641,641,1727702425112,0.4189453,-0.113098145,-0.8755493,-0.421875,0.734375,0.125
642,642,1727702425152,0.4182129,-0.109680176,-0.88165283,-0.546875,0.890625,0.15625
643,643,1727702425192,0.41259766,-0.109191895,-0.8777466,-0.53125,0.75,0.390625
644,644,1727702425232,0.4182129,-0.11553955,-0.8713989,-0.375,0.71875,0.21875
645,645,1727702425272,0.41552734,-0.11431885,-0.87823486,-0.53125,0.75,0.296875
646,646,1727702425312,0.41992188,-0.113586426,-0.8748169,-0.46875,0.78125,0.453125
647,647,1727702425352,0.41235352,-0.108947754,-0.87042236,-0.203125,0.578125,0.296875
648,648,1727702425392,0.421875,-0.10870361,-0.87579346,-0.65625,0.75,0.21875
649,649,1727702425432,0.4189453,-0.11065674,-0.87628174,-0.4375,0.828125,0.28125
650,650,1727702425472,0.42114258,-0.113098145,-0.8740845,-0.453125,1.046875,0.359375
651,651,1727702425512,0.41601562,-0.11138916,-0.8777466,-0.71875,0.859375,0.234375
652,652,1727702425552,0.41918945,-0.11065674,-0.8726196,-0.453125,0.9375,0.234375
653,653,1727702425592,0.42114258,-0.11065674,-0.87945557,-0.46875,0.9375,0.234375
654,654,1727702425632,0.42163086,-0.11602783,-0.87872314,-0.359375,0.734375,0.296875
655,655,1727702425672,0.4140625,-0.11456299,-0.87384033,-0.65625,0.828125,0.21875
656,656,1727702425712,0.4182129,-0.11383057,-0.87384033,-0.625,0.859375,0.28125
657,657,1727702425752,0.41381836,-0.11505127,-0.87579346,-0.328125,0.828125,0.328125
658,658,1727702425792,0.42016602,-0.11798096,-0.8789673,-0.484375,0.9375,0.28125
659,659,1727702425832,0.41674805,-0.112854004,-0.878479,-0.40625,1.109375,0.328125
660,660,1727702425872,0.41748047,-0.109436035,-0.8760376,-0.28125,1.09375,0.296875
661,661,1727702425912,0.42041016,-0.10992432,-0.87579346,-0.46875,1.03125,0.296875
662,662,1727702425952,0.42333984,-0.10699463,-0.8789673,-0.4375,1.109375,0.328125
663,663,1727702425992,0.41357422,-0.10723877,-0.88238525,-0.625,1.015625,0.21875
664,664,1727702426032,0.4189453,-0.1182251,-0.87872314,-0.625,1.125,0.203125
665,665,1727702426072,0.41235352,-0.11090088,-0.8740845,-0.453125,0.953125,0.171875
666,666,1727702426112,0.41430664,-0.11236572,-0.8804321,-0.578125,1.015625,0.1875
667,667,1727702426152,0.41845703,-0.10992432,-0.8760376,-0.78125,0.953125,0.328125
668,668,1727702426192,0.41137695,-0.1116333,-0.87945557,-0.59375,0.875,0.171875
669,669,1727702426232,0.41601562,-0.11236572,-0.8777466,-0.78125,1.0625,0.1875
670,670,1727702426272,0.41723633,-0.12017822,-0.87823486,-0.46875,1.03125,0.21875
671,671,1727702426312,0.41479492,-0.1116333,-0.8789673,-0.4375,1.140625,0.234375
672,672,1727702426352,0.41748047,-0.11187744,-0.87750244,-0.625,1.140625,0.28125
673,673,1727702426392,0.41796875,-0.1194458,-0.8731079,-0.578125,1.15625,0.140625
674,674,1727702426432,0.4165039,-0.11920166,-0.8779907,-0.6875,1.0,0.28125
675,675,1727702426472,0.4128418,-0.101379395,-0.8862915,-0.53125,0.6875,0.171875
676,676,1727702426512,0.4111328,-0.11529541,-0.8789673,-0.6875,0.90625,0.1875
677,677,1727702426552,0.41723633,-0.11895752,-0.8765259,-0.546875,0.984375,0.453125
678,678,1727702426592,0.41601562,-0.113342285,-0.8726196,-0.46875,0.828125,0.28125
679,679,1727702426632,0.4140625,-0.11456299,-0.8779907,-0.578125,0.921875,0.21875
680,680,1727702426672,0.41430664,-0.12164307,-0.87457275,-0.390625,0.828125,0.296875
681,681,1727702426712,0.41967773,-0.11553955,-0.880188,-0.484375,0.8125,0.25
682,682,1727702426752,0.41235352,-0.108947754,-0.87945557,-0.359375,0.859375,0.25
683,683,1727702426792,0.41723633,-0.113586426,-0.8765259,-0.4375,1.03125,0.140625
684,684,1727702426832,0.41723633,-0.11016846,-0.8772583,-0.515625,0.921875,0.21875
685,685,1727702426872,0.41503906,-0.11407471,-0.8765259,-0.4375,1.0,0.234375
686,686,1727702426912,0.4165039,-0.113342285,-0.87872314,-0.359375,0.859375,0.265625
687,687,1727702426952,0.41503906,-0.11138916,-0.8713989,-0.390625,0.765625,0.28125
688,688,1727702426992,0.4116211,-0.10992432,-0.85943604,-0.265625,0.734375,0.296875
689,689,1727702427032,0.41333008,-0.113586426,-0.8821411,-0.53125,0.78125,0.21875
690,690,1727702427072,0.41259766,-0.11895752,-0.87384033,-0.296875,0.8125,0.390625
691,691,1727702427112,0.4169922,-0.105529785,-0.87042236,-0.265625,0.859375,0.328125
692,692,1727702427152,0.41845703,-0.11431885,-0.880188,-0.46875,0.859375,0.359375
693,693,1727702427192,0.40966797,-0.11114502,-0.87506104,-0.375,0.640625,0.109375
694,694,1727702427232,0.41577148,-0.11529541,-0.8792114,-0.5625,0.765625,0.296875
695,695,1727702427272,0.4189453,-0.112854004,-0.8753052,-0.28125,0.59375,0.359375
696,696,1727702427312,0.4165039,-0.113586426,-0.8765259,-0.421875,0.71875,0.390625
697,697,1727702427352,0.41625977,-0.11553955,-0.8753052,-0.609375,0.78125,0.234375
698,698,1727702427392,0.4152832,-0.117492676,-0.87335205,-0.265625,0.6875,0.296875
699,699,1727702427432,0.41674805,-0.109191895,-0.87506104,-0.375,0.671875,0.328125
700,700,1727702427472,0.41381836,-0.11260986,-0.87628174,-0.40625,0.796875,0.328125
701,701,1727702427512,0.4165039,-0.11260986,-0.880188,-0.25,0.6875,0.25
702,702,1727702427552,0.41845703,-0.11456299,-0.8743286,-0.296875,0.734375,0.296875
703,703,1727702427592,0.42089844,-0.108947754,-0.8743286,-0.421875,0.765625,0.3125
704,704,1727702427632,0.4140625,-0.10748291,-0.8740845,-0.484375,0.8125,0.328125
705,705,1727702427672,0.4128418,-0.11090088,-0.8753052,-0.625,0.671875,0.28125
706,706,1727702427712,0.4177246,-0.11236572,-0.87091064,-0.53125,0.75,0.203125
707,707,1727702427752,0.4104004,-0.11505127,-0.87335205,-0.46875,0.75,0.328125
708,708,1727702427792,0.4128418,-0.10699463,-0.87042236,-0.40625,0.671875,0.3125
709,709,1727702427832,0.4169922,-0.11529541,-0.86920166,-0.25,0.578125,0.34375
710,710,1727702427872,0.42382812,-0.11114502,-0.8838501,-0.609375,0.578125,0.296875
711,711,1727702427912,0.41992188,-0.108947754,-0.87823486,-0.421875,0.875,0.203125
712,712,1727702427952,0.41967773,-0.11260986,-0.8706665,-0.515625,0.765625,0.328125
713,713,1727702427992,0.41577148,-0.10845947,-0.88116455,-0.53125,0.8125,0.1875
714,714,1727702428032,0.41992188,-0.10406494,-0.8735962,-0.5,0.890625,0.3125
715,715,1727702428072,0.42041016,-0.11407471,-0.8735962,-0.453125,0.890625,0.265625
716,716,1727702428112,0.41748047,-0.10821533,-0.88067627,-0.4375,0.703125,0.328125
717,717,1727702428152,0.42407227,-0.11236572,-0.878479,-0.609375,0.65625,0.234375
718,718,1727702428192,0.42041016,-0.113098145,-0.8735962,-0.5,0.890625,0.140625
719,719,1727702428232,0.42211914,-0.113586426,-0.8760376,-0.34375,0.875,0.1875
720,720,1727702428272,0.41992188,-0.116760254,-0.878479,-0.4375,0.828125,0.375
721,721,1727702428312,0.41845703,-0.11651611,-0.8792114,-0.46875,0.8125,0.234375
722,722,1727702428352,0.42114258,-0.11651611,-0.8753052,-0.546875,0.78125,0.25
723,723,1727702428392,0.42285156,-0.10406494,-0.8765259,-0.46875,0.734375,0.25
724,724,1727702428432,0.4182129,-0.11138916,-0.87579346,-0.4375,0.859375,0.34375
725,725,1727702428472,0.42163086,-0.10748291,-0.8740845,-0.484375,0.96875,0.296875
726,726,1727702428512,0.4182129,-0.105773926,-0.8713989,-0.609375,0.859375,0.296875
727,727,1727702428552,0.41723633,-0.11114502,-0.8723755,-0.5625,0.75,0.328125
728,728,1727702428592,0.42333984,-0.11212158,-0.8760376,-0.3125,0.90625,0.3125
729,729,1727702428632,0.42114258,-0.10626221,-0.86798096,-0.453125,0.65625,0.4375
730,730,1727702428672,0.4248047,-0.10821533,-0.86065674,-0.46875,0.625,0.40625
731,731,1727702428712,0.4230957,-0.11016846,-0.88116455,-0.546875,0.859375,0.1875
732,732,1727702428752,0.41796875,-0.109191895,-0.8748169,-0.46875,1.0,0.296875
733,733,1727702428792,0.4128418,-0.11138916,-0.86920166,-0.390625,0.96875,0.296875
734,734,1727702428832,0.41625977,-0.1104126,-0.87384033,-0.5,0.828125,0.15625
735,735,1727702428872,0.41503906,-0.1104126,-0.87579346,-0.640625,0.71875,0.109375
736,736,1727702428912,0.4194336,-0.11114502,-0.8743286,-0.421875,0.703125,0.359375
737,737,1727702428952,0.42163086,-0.1104126,-0.8777466,-0.421875,0.8125,0.234375
738,738,1727702428992,0.41503906,-0.11016846,-0.87457275,-0.546875,0.78125,0.359375
739,739,1727702429032,0.41723633,-0.109436035,-0.8740845,-0.578125,1.109375,0.171875
740,740,1727702429072,0.41845703,-0.11260986,-0.8694458,-0.34375,0.921875,0.28125
741,741,1727702429112,0.41674805,-0.11138916,-0.87213135,-0.453125,0.890625,0.328125
742,742,1727702429152,0.41796875,-0.11407471,-0.8735962,-0.53125,1.0,0.21875
743,743,1727702429192,0.41845703,-0.11236572,-0.8753052,-0.640625,0.984375,0.21875
744,744,1727702429232,0.42041016,-0.11090088,-0.8711548,-0.484375,0.796875,0.03125
745,745,1727702429272,0.42138672,-0.10748291,-0.87628174,-0.5,1.15625,0.140625
746,746,1727702429312,0.41455078,-0.10406494,-0.8804321,-0.671875,0.984375,0.15625
747,747,1727702429352,0.41577148,-0.10992432,-0.8718872,-0.71875,1.046875,0.375
748,748,1727702429392,0.41967773,-0.112854004,-0.87213135,-0.46875,1.0,0.265625
749,749,1727702429432,0.41503906,-0.11138916,-0.8772583,-0.625,1.078125,0.296875
750,750,1727702429472,0.41723633,-0.113342285,-0.87213135,-0.515625,0.9375,0.1875
751,751,1727702429512,0.41455078,-0.11212158,-0.8809204,-0.6875,1.0,0.078125
752,752,1727702429552,0.42114258,-0.11065674,-0.8809204,-0.703125,1.1875,0.15625
753,753,1727702429592,0.4169922,-0.11407471,-0.87213135,-0.578125,1.15625,0.265625
754,754,1727702429632,0.41845703,-0.11529541,-0.8713989,-0.28125,1.109375,0.25
755,755,1727702429672,0.41259766,-0.11065674,-0.8792114,-0.53125,1.171875,0.046875
756,756,1727702429712,0.41992188,-0.109436035,-0.8755493,-0.71875,0.96875,0.109375
757,757,1727702429752,0.4128418,-0.11016846,-0.8713989,-0.65625,0.984375,0.125
758,758,1727702429792,0.41674805,-0.113586426,-0.878479,-0.53125,1.0,0.15625
759,759,1727702429832,0.41601562,-0.11383057,-0.87823486,-0.46875,0.734375,0.3125
