,Unnamed: 0,timestamp,accel_x,accel_y,accel_z,gyro_x,gyro_y,gyro_z
0,0,1727978595953,0.12548828,-0.054992676,-0.98760986,0.078125,-0.09375,-0.421875
1,1,1727978595998,0.1237793,-0.054260254,-0.99420166,0.203125,0.25,-0.59375
2,2,1727978596049,0.12646484,-0.050598145,-0.987854,0.234375,-0.0625,-0.546875
3,3,1727978596074,0.12060547,-0.047912598,-0.9890747,0.390625,0.21875,-0.484375
4,4,1727978596126,0.12719727,-0.047668457,-0.99053955,0.40625,0.109375,-0.53125
5,5,1727978596162,0.12524414,-0.042541504,-0.9961548,0.078125,-0.171875,-0.546875
6,6,1727978596193,0.12060547,-0.050109863,-0.9973755,0.03125,-0.046875,-0.46875
7,7,1727978596240,0.13012695,-0.050354004,-0.991272,-0.28125,-0.21875,-0.625
8,8,1727978596283,0.122558594,-0.05230713,-0.99102783,0.015625,-0.234375,-0.453125
9,9,1727978596313,0.123046875,-0.047912598,-0.98321533,0.078125,0.046875,-0.453125
10,10,1727978596358,0.1262207,-0.046447754,-1.005188,-0.234375,0.015625,-0.53125
11,11,1727978596402,0.118652344,-0.044006348,-0.991272,-0.0625,-0.3125,-0.46875
12,12,1727978596434,0.12548828,-0.047424316,-0.99176025,-0.140625,-0.0625,-0.515625
13,13,1727978596478,0.123046875,-0.050109863,-0.9939575,-0.046875,-0.015625,-0.453125
14,14,1727978596509,0.13085938,-0.047180176,-0.9902954,-0.234375,0.015625,-0.421875
15,15,1727978596554,0.12426758,-0.04547119,-0.991272,-0.015625,0.140625,-0.46875
16,16,1727978596600,0.12011719,-0.051086426,-0.98809814,-0.015625,-0.046875,-0.515625
17,17,1727978596629,0.12695312,-0.05279541,-0.9985962,-0.234375,-0.0625,-0.53125
18,18,1727978596674,0.12158203,-0.051330566,-0.9873657,-0.09375,-0.046875,-0.4375
19,19,1727978596719,0.12231445,-0.0491333,-0.99053955,-0.125,0.03125,-0.46875
20,20,1727978596747,0.12988281,-0.054992676,-0.99591064,-0.046875,-0.078125,-0.5
21,21,1727978596793,0.12597656,-0.046447754,-0.9915161,-0.203125,-0.046875,-0.4375
22,22,1727978596827,0.1237793,-0.04937744,-0.99420166,-0.125,-0.09375,-0.375
23,23,1727978596867,0.12817383,-0.054748535,-0.9927368,-0.140625,-0.265625,-0.4375
24,24,1727978596914,0.12719727,-0.051086426,-0.99224854,-0.1875,-0.078125,-0.53125
25,25,1727978596943,0.12768555,-0.05255127,-0.9866333,-0.078125,-0.03125,-0.484375
26,26,1727978596994,0.13061523,-0.050109863,-0.98883057,-0.21875,-0.03125,-0.53125
27,27,1727978597033,0.12719727,-0.047912598,-0.9898071,-0.09375,0.0,-0.3125
28,28,1727978597068,0.1274414,-0.042297363,-0.9961548,0.171875,0.0,-0.484375
29,29,1727978597107,0.1262207,-0.051818848,-0.99224854,-0.203125,-0.109375,-0.4375
30,30,1727978597153,0.12573242,-0.04425049,-0.9907837,-0.25,-0.171875,-0.453125
31,31,1727978597183,0.1237793,-0.04522705,-0.98931885,-0.140625,-0.1875,-0.5
32,32,1727978597230,0.12402344,-0.050842285,-0.9932251,-0.1875,-0.125,-0.421875
33,33,1727978597275,0.12670898,-0.050598145,-0.9927368,-0.046875,-0.078125,-0.53125
34,34,1727978597308,0.12841797,-0.050354004,-0.9937134,-0.25,-0.125,-0.578125
35,35,1727978597350,0.12451172,-0.05328369,-0.9829712,-0.1875,-0.078125,-0.546875
36,36,1727978597380,0.125,-0.046691895,-0.9902954,-0.25,-0.265625,-0.578125
37,37,1727978597422,0.12695312,-0.051818848,-0.9841919,-0.140625,-0.203125,-0.34375
38,38,1727978597469,0.12573242,-0.05596924,-0.9963989,-0.171875,0.125,-0.46875
39,39,1727978597498,0.13208008,-0.051330566,-0.991272,-0.140625,-0.046875,-0.390625
40,40,1727978597547,0.12792969,-0.04888916,-0.99346924,-0.046875,0.09375,-0.453125
41,41,1727978597587,0.12719727,-0.051086426,-0.99542236,-0.140625,-0.046875,-0.453125
42,42,1727978597620,0.1274414,-0.05621338,-0.99102783,-0.03125,-0.0625,-0.5625
43,43,1727978597663,0.12817383,-0.05596924,-0.9976196,-0.1875,-0.015625,-0.359375
44,44,1727978597709,0.12597656,-0.054992676,-0.9871216,-0.03125,0.0,-0.46875
45,45,1727978597739,0.12963867,-0.050598145,-0.9920044,0.015625,0.0,-0.578125
46,46,1727978597797,0.12939453,-0.053771973,-0.989563,-0.015625,-0.1875,-0.609375
47,47,1727978597828,0.12890625,-0.04937744,-0.989563,-0.15625,-0.125,-0.453125
48,48,1727978597860,0.12646484,-0.04522705,-0.9920044,0.046875,0.171875,-0.453125
49,49,1727978597903,0.12866211,-0.049865723,-0.9924927,-0.109375,-0.203125,-0.59375
50,50,1727978597933,0.13012695,-0.051574707,-0.99053955,-0.109375,-0.015625,-0.453125
51,51,1727978597980,0.12670898,-0.054016113,-0.99346924,-0.03125,0.0,-0.296875
52,52,1727978598023,0.12841797,-0.04547119,-0.99005127,-0.046875,-0.0625,-0.453125
53,53,1727978598052,0.12451172,-0.054016113,-0.99420166,-0.09375,0.03125,-0.546875
54,54,1727978598098,0.12182617,-0.05303955,-0.9902954,-0.09375,0.046875,-0.375
55,55,1727978598148,0.125,-0.053771973,-0.99542236,0.03125,0.0625,-0.375
56,56,1727978598172,0.13012695,-0.050598145,-0.9937134,0.0,0.03125,-0.4375
57,57,1727978598219,0.12646484,-0.050842285,-0.98809814,-0.0625,-0.015625,-0.46875
58,58,1727978598263,0.13354492,-0.054504395,-1.0012817,-0.28125,0.328125,-0.453125
59,59,1727978598295,0.12524414,-0.051574707,-1.0025024,-0.125,0.234375,-0.46875
60,60,1727978598339,0.12475586,-0.050842285,-0.9939575,-0.171875,-0.046875,-0.53125
61,61,1727978598368,0.123291016,-0.05279541,-0.9871216,-0.296875,0.265625,-0.40625
62,62,1727978598415,0.12988281,-0.05206299,-0.9949341,-0.09375,0.171875,-0.484375
63,63,1727978598459,0.12158203,-0.049865723,-0.99298096,-0.046875,0.0625,-0.5
64,64,1727978598491,0.1274414,-0.05328369,-0.9883423,-0.09375,-0.015625,-0.4375
65,65,1727978598534,0.12988281,-0.054016113,-0.99957275,-0.0625,0.09375,-0.390625
66,66,1727978598578,0.12548828,-0.057678223,-0.99542236,-0.046875,-0.09375,-0.40625
67,67,1727978598609,0.12524414,-0.04864502,-0.9890747,-0.046875,-0.171875,-0.5625
68,68,1727978598653,0.12768555,-0.04937744,-0.9937134,0.03125,0.1875,-0.421875
69,69,1727978598700,0.13061523,-0.051574707,-0.9939575,0.046875,-0.140625,-0.453125
70,70,1727978598729,0.12988281,-0.05328369,-0.987854,-0.0625,0.09375,-0.546875
71,71,1727978598774,0.12646484,-0.051330566,-0.9885864,0.140625,-0.1875,-0.375
72,72,1727978598820,0.1237793,-0.05230713,-0.9927368,-0.109375,-0.09375,-0.53125
73,73,1727978598848,0.12573242,-0.055480957,-0.9949341,-0.140625,-0.109375,-0.4375
74,74,1727978598893,0.13208008,-0.05621338,-0.98565674,-0.09375,-0.078125,-0.453125
75,75,1727978598925,0.12158203,-0.049621582,-0.9937134,-0.109375,-0.03125,-0.578125
76,76,1727978598970,0.12573242,-0.049865723,-0.99053955,-0.1875,0.0,-0.53125
77,77,1727978599014,0.13500977,-0.04937744,-0.99420166,-0.15625,-0.234375,-0.421875
78,78,1727978599044,0.12109375,-0.0569458,-0.9927368,0.046875,0.125,-0.5
79,79,1727978599090,0.119140625,-0.050842285,-0.987854,0.015625,-0.03125,-0.359375
80,80,1727978599134,0.13305664,-0.051574707,-0.9932251,-0.265625,0.078125,-0.4375
81,81,1727978599164,0.12817383,-0.05718994,-1.0010376,-0.328125,-0.046875,-0.578125
82,82,1727978599209,0.12524414,-0.054016113,-0.9854126,-0.078125,-0.046875,-0.6875
83,83,1727978599269,0.12646484,-0.057434082,-0.99591064,-0.25,0.15625,-0.484375
84,84,1727978599284,0.13208008,-0.055236816,-0.9961548,-0.34375,0.09375,-0.53125
85,85,1727978599327,0.12597656,-0.04937744,-0.9846802,-0.125,0.0625,-0.421875
86,86,1727978599358,0.12597656,-0.053771973,-0.99346924,-0.09375,0.015625,-0.453125
87,87,1727978599409,0.12182617,-0.05206299,-0.9907837,-0.171875,-0.03125,-0.546875
88,88,1727978599450,0.125,-0.050354004,-0.9937134,-0.171875,0.015625,-0.484375
89,89,1727978599479,0.12158203,-0.06304932,-0.987854,0.09375,-0.0625,-0.53125
90,90,1727978599524,0.13085938,-0.051818848,-0.9866333,0.171875,0.0625,-0.484375
91,91,1727978599567,0.1237793,-0.05303955,-0.99664307,0.046875,0.015625,-0.46875
92,92,1727978599597,0.12841797,-0.051818848,-0.9920044,0.015625,0.015625,-0.578125
93,93,1727978599643,0.12695312,-0.05718994,-0.9939575,-0.015625,-0.0625,-0.5
94,94,1727978599688,0.12890625,-0.05206299,-0.991272,-0.09375,-0.125,-0.5
95,95,1727978599718,0.12084961,-0.05596924,-0.98760986,-0.125,-0.09375,-0.546875
96,96,1727978599765,0.12988281,-0.055725098,-0.9968872,-0.15625,0.03125,-0.4375
97,97,1727978599808,0.1274414,-0.050598145,-0.9915161,0.109375,-0.046875,-0.484375
98,98,1727978599839,0.125,-0.04815674,-0.9924927,0.015625,0.0625,-0.484375
99,99,1727978599883,0.13208008,-0.050598145,-0.99346924,-0.015625,-0.078125,-0.46875
100,100,1727978599915,0.13305664,-0.051086426,-0.9837036,-0.140625,-0.234375,-0.390625
101,101,1727978599959,0.12548828,-0.0491333,-0.99957275,-0.15625,0.125,-0.546875
102,102,1727978600005,0.12597656,-0.054992676,-0.9837036,-0.125,-0.21875,-0.453125
103,103,1727978600034,0.12841797,-0.054504395,-0.99542236,-0.125,0.109375,-0.59375
104,104,1727978600079,0.12939453,-0.049621582,-0.99176025,-0.265625,0.078125,-0.5
105,105,1727978600123,0.13183594,-0.047912598,-0.99224854,0.0,0.1875,-0.546875
106,106,1727978600169,0.125,-0.04815674,-0.986145,0.109375,-0.09375,-0.53125
107,107,1727978600199,0.12988281,-0.053771973,-0.9871216,0.046875,0.0,-0.484375
108,108,1727978600244,0.13012695,-0.04937744,-1.000061,-0.1875,0.03125,-0.484375
109,109,1727978600273,0.12866211,-0.051818848,-0.9883423,0.140625,-0.015625,-0.46875
110,110,1727978600319,0.12548828,-0.054260254,-0.98809814,0.265625,-0.109375,-0.3125
111,111,1727978600363,0.12451172,-0.0569458,-0.99713135,0.15625,-0.078125,-0.5625
112,112,1727978600407,0.12695312,-0.055480957,-0.99420166,-0.015625,0.015625,-0.53125
113,113,1727978600439,0.12719727,-0.05206299,-0.99224854,-0.0625,0.0,-0.375
114,114,1727978600469,0.12866211,-0.04840088,-0.99005127,-0.140625,0.078125,-0.484375
115,115,1727978600514,0.12451172,-0.05718994,-0.987854,0.015625,-0.09375,-0.546875
116,116,1727978600560,0.12915039,-0.046936035,-0.99420166,0.09375,0.015625,-0.421875
117,117,1727978600590,0.1303711,-0.050598145,-0.9932251,0.140625,0.03125,-0.390625
118,118,1727978600633,0.125,-0.04840088,-0.99591064,-0.015625,0.078125,-0.390625
119,119,1727978600679,0.12402344,-0.051574707,-0.99053955,0.015625,-0.234375,-0.484375
120,120,1727978600709,0.13232422,-0.04547119,-0.9898071,-0.09375,0.078125,-0.390625
121,121,1727978600754,0.12573242,-0.04937744,-0.9956665,0.03125,-0.171875,-0.484375
122,122,1727978600800,0.12670898,-0.05328369,-0.99224854,-0.140625,-0.09375,-0.546875
123,123,1727978600835,0.12963867,-0.055480957,-0.99468994,-0.09375,0.046875,-0.484375
124,124,1727978600875,0.125,-0.053771973,-0.9937134,-0.21875,0.015625,-0.59375
125,125,1727978600905,0.12866211,-0.051330566,-0.9932251,-0.171875,-0.03125,-0.515625
126,126,1727978600952,0.12768555,-0.051574707,-0.9890747,0.03125,-0.078125,-0.5
127,127,1727978601009,0.12182617,-0.04498291,-0.98760986,-0.125,-0.03125,-0.390625
128,128,1727978601070,0.13183594,-0.053771973,-0.99664307,0.0,-0.234375,-0.53125
129,129,1727978601076,0.1328125,-0.04888916,-0.9854126,-0.015625,-0.203125,-0.5625
130,130,1727978601115,0.1303711,-0.047668457,-0.9939575,0.046875,-0.109375,-0.53125
131,131,1727978601146,0.13012695,-0.05230713,-0.9968872,0.015625,-0.078125,-0.359375
132,132,1727978601190,0.122802734,-0.04864502,-0.9927368,-0.015625,0.09375,-0.453125
133,133,1727978601234,0.13378906,-0.050842285,-0.9939575,-0.046875,0.015625,-0.546875
134,134,1727978601264,0.12768555,-0.050842285,-0.99053955,-0.015625,-0.125,-0.53125
135,135,1727978601311,0.12402344,-0.047180176,-0.9898071,0.0,-0.09375,-0.4375
136,136,1727978601353,0.12695312,-0.04864502,-0.9937134,-0.078125,-0.15625,-0.4375
137,137,1727978601382,0.13232422,-0.055236816,-0.99420166,-0.171875,-0.046875,-0.53125
138,138,1727978601429,0.12719727,-0.054016113,-0.99224854,-0.125,-0.09375,-0.515625
139,139,1727978601459,0.13574219,-0.05255127,-0.9885864,-0.203125,-0.1875,-0.578125
140,140,1727978601503,0.13012695,-0.04840088,-0.9890747,-0.203125,-0.140625,-0.46875
141,141,1727978601564,0.12451172,-0.051818848,-0.99468994,-0.140625,-0.09375,-0.359375
142,142,1727978601578,0.12670898,-0.051330566,-0.9924927,-0.015625,-0.078125,-0.484375
143,143,1727978601624,0.13110352,-0.04498291,-0.99224854,-0.078125,-0.078125,-0.578125
144,144,1727978601668,0.13549805,-0.05670166,-0.9932251,0.078125,-0.015625,-0.5
145,145,1727978601700,0.12890625,-0.050354004,-0.98931885,-0.0625,0.015625,-0.484375
146,146,1727978601744,0.12573242,-0.051086426,-0.9890747,0.0625,-0.109375,-0.375
147,147,1727978601789,0.12768555,-0.046447754,-0.99176025,-0.078125,0.0625,-0.359375
148,148,1727978601820,0.13110352,-0.051818848,-1.0003052,-0.109375,0.28125,-0.59375
149,149,1727978601865,0.12573242,-0.047180176,-0.99664307,-0.21875,-0.1875,-0.40625
150,150,1727978601893,0.12890625,-0.05328369,-0.9907837,-0.046875,0.0,-0.375
151,151,1727978601940,0.12939453,-0.051574707,-0.9927368,-0.046875,0.0,-0.46875
152,152,1727978601984,0.12792969,-0.05230713,-0.99176025,-0.046875,-0.140625,-0.5625
153,153,1727978602014,0.12890625,-0.04888916,-0.9961548,0.03125,-0.09375,-0.5625
154,154,1727978602059,0.12939453,-0.054992676,-0.9956665,-0.0625,-0.125,-0.484375
155,155,1727978602108,0.12426758,-0.046936035,-0.9932251,-0.21875,-0.265625,-0.515625
156,156,1727978602134,0.12939453,-0.059143066,-0.9885864,-0.0625,-0.109375,-0.4375
157,157,1727978602180,0.12475586,-0.05206299,-0.9854126,0.03125,-0.03125,-0.375
158,158,1727978602225,0.12915039,-0.058166504,-0.9907837,-0.03125,0.0625,-0.5
159,159,1727978602253,0.12548828,-0.047912598,-0.99005127,-0.015625,0.0625,-0.65625
160,160,1727978602300,0.12573242,-0.05206299,-0.9973755,-0.125,-0.15625,-0.4375
161,161,1727978602344,0.12817383,-0.054260254,-0.9885864,-0.21875,-0.015625,-0.453125
162,162,1727978602372,0.12988281,-0.05645752,-0.99346924,-0.125,-0.1875,-0.546875
163,163,1727978602420,0.13012695,-0.05206299,-0.9949341,-0.21875,-0.03125,-0.4375
164,164,1727978602448,0.13085938,-0.05206299,-0.9902954,-0.171875,-0.09375,-0.421875
165,165,1727978602494,0.13549805,-0.053527832,-0.99298096,-0.03125,0.0,-0.421875
166,166,1727978602551,0.1352539,-0.055480957,-0.9920044,-0.125,0.03125,-0.40625
167,167,1727978602569,0.13061523,-0.049865723,-0.99298096,-0.015625,0.0,-0.4375
168,168,1727978602614,0.12207031,-0.054992676,-0.9915161,-0.1875,-0.046875,-0.34375
169,169,1727978602659,0.13427734,-0.053527832,-0.99053955,-0.046875,-0.109375,-0.515625
170,170,1727978602689,0.12548828,-0.04888916,-0.9898071,-0.078125,0.078125,-0.46875
171,171,1727978602735,0.1303711,-0.051086426,-0.99102783,-0.203125,-0.046875,-0.421875
172,172,1727978602779,0.13232422,-0.053527832,-0.9924927,-0.140625,-0.046875,-0.609375
173,173,1727978602809,0.12915039,-0.051330566,-1.0032349,-0.25,-0.125,-0.5
174,174,1727978602855,0.12890625,-0.04888916,-0.9963989,0.109375,0.109375,-0.5
175,175,1727978602898,0.12963867,-0.050109863,-0.9944458,-0.203125,0.078125,-0.578125
176,176,1727978602928,0.12158203,-0.047180176,-0.9873657,-0.140625,0.03125,-0.390625
177,177,1727978602974,0.12817383,-0.0491333,-0.991272,-0.125,0.234375,-0.484375
178,178,1727978603003,0.12817383,-0.047424316,-0.9924927,-0.0625,0.015625,-0.53125
179,179,1727978603052,0.13012695,-0.04937744,-0.9944458,-0.09375,-0.125,-0.546875
180,180,1727978603095,0.12939453,-0.05230713,-0.9976196,-0.203125,0.125,-0.359375
181,181,1727978603124,0.12792969,-0.05718994,-0.99346924,-0.1875,-0.09375,-0.34375
182,182,1727978603169,0.12670898,-0.05255127,-0.9873657,-0.015625,-0.234375,-0.546875
183,183,1727978603213,0.12841797,-0.046691895,-0.9898071,0.109375,-0.109375,-0.46875
184,184,1727978603258,0.12597656,-0.051574707,-0.9927368,-0.0625,-0.09375,-0.4375
185,185,1727978603288,0.12988281,-0.050842285,-0.99664307,0.171875,-0.0625,-0.46875
186,186,1727978603335,0.12963867,-0.047912598,-0.9939575,-0.078125,-0.03125,-0.5625
187,187,1727978603364,0.13012695,-0.055725098,-0.99468994,-0.125,-0.015625,-0.515625
188,188,1727978603409,0.12670898,-0.050354004,-0.9956665,0.015625,-0.078125,-0.703125
189,189,1727978603439,0.12719727,-0.051086426,-0.991272,-0.046875,-0.171875,-0.4375
190,190,1727978603484,0.13354492,-0.053771973,-0.9937134,-0.140625,0.03125,-0.4375
191,191,1727978603529,0.12841797,-0.04498291,-0.9927368,0.0,-0.078125,-0.5
192,192,1727978603604,0.12451172,-0.04937744,-0.9890747,-0.0625,-0.1875,-0.515625
193,193,1727978603613,0.1328125,-0.049621582,-0.99005127,-0.125,-0.015625,-0.625
194,194,1727978603648,0.13085938,-0.047668457,-0.9932251,-0.078125,0.109375,-0.4375
195,195,1727978603679,0.12841797,-0.053527832,-0.9920044,-0.0625,-0.046875,-0.34375
196,196,1727978603723,0.12915039,-0.050842285,-0.9817505,0.078125,-0.0625,-0.546875
197,197,1727978603768,0.13061523,-0.04473877,-0.99957275,-0.203125,0.0625,-0.234375
198,198,1727978603800,0.12548828,-0.05621338,-0.99005127,-0.21875,-0.171875,-0.515625
199,199,1727978603844,0.13061523,-0.054016113,-0.99542236,-0.21875,0.28125,-0.453125
200,200,1727978603889,0.13110352,-0.050598145,-0.99420166,-0.125,0.0625,-0.484375
201,201,1727978603933,0.12646484,-0.04888916,-0.9937134,-0.140625,0.015625,-0.609375
202,202,1727978603964,0.12475586,-0.05596924,-0.9890747,0.0625,-0.0625,-0.5625
203,203,1727978603995,0.12524414,-0.054992676,-0.98931885,-0.234375,-0.0625,-0.703125
204,204,1727978604039,0.13427734,-0.054748535,-0.9968872,-0.1875,-0.0625,-0.421875
205,205,1727978604087,0.12963867,-0.051330566,-0.9924927,0.015625,-0.109375,-0.578125
206,206,1727978604114,0.12768555,-0.05255127,-0.99468994,0.015625,0.125,-0.5
207,207,1727978604159,0.13085938,-0.054748535,-0.99468994,0.0,-0.015625,-0.546875
208,208,1727978604204,0.1315918,-0.04547119,-0.99176025,-0.046875,-0.109375,-0.546875
209,209,1727978604235,0.12988281,-0.046691895,-0.99224854,-0.171875,-0.03125,-0.5625
210,210,1727978604279,0.13085938,-0.055725098,-0.9932251,-0.140625,-0.140625,-0.578125
211,211,1727978604326,0.12646484,-0.04840088,-0.9939575,-0.078125,-0.1875,-0.46875
212,212,1727978604354,0.125,-0.053527832,-0.9976196,-0.15625,-0.0625,-0.5625
213,213,1727978604399,0.13183594,-0.051330566,-0.99224854,-0.09375,-0.09375,-0.546875
214,214,1727978604429,0.12963867,-0.050842285,-0.9907837,-0.15625,0.171875,-0.5
215,215,1727978604474,0.13183594,-0.051818848,-0.99542236,-0.015625,-0.140625,-0.46875
216,216,1727978604519,0.12963867,-0.04840088,-0.9837036,0.078125,-0.09375,-0.453125
217,217,1727978604548,0.13110352,-0.05328369,-0.9973755,-0.09375,0.140625,-0.5
218,218,1727978604593,0.12817383,-0.054504395,-0.9924927,-0.171875,-0.078125,-0.484375
219,219,1727978604638,0.12963867,-0.04864502,-0.9961548,-0.15625,0.140625,-0.515625
220,220,1727978604670,0.12915039,-0.05328369,-0.9915161,-0.171875,-0.078125,-0.390625
221,221,1727978604714,0.13183594,-0.049621582,-0.99224854,0.03125,0.171875,-0.515625
222,222,1727978604759,0.12792969,-0.047180176,-0.99298096,-0.046875,0.046875,-0.53125
223,223,1727978604790,0.123535156,-0.05328369,-0.9837036,-0.078125,0.15625,-0.40625
224,224,1727978604834,0.12890625,-0.053527832,-1.0066528,-0.046875,0.203125,-0.5625
225,225,1727978604879,0.123046875,-0.05645752,-0.9898071,0.0625,0.046875,-0.390625
226,226,1727978604908,0.12988281,-0.051086426,-0.9932251,0.109375,-0.046875,-0.46875
227,227,1727978604955,0.1274414,-0.051086426,-0.99468994,0.078125,0.0625,-0.484375
228,228,1727978604983,0.12548828,-0.047424316,-0.99005127,0.03125,0.0625,-0.59375
229,229,1727978605044,0.1274414,-0.047424316,-0.9927368,-0.1875,0.046875,-0.453125
230,230,1727978605073,0.12182617,-0.05230713,-0.99420166,0.03125,-0.015625,-0.5625
231,231,1727978605103,0.12890625,-0.05303955,-0.99346924,-0.046875,-0.203125,-0.515625
232,232,1727978605150,0.12670898,-0.054016113,-0.9949341,-0.125,0.140625,-0.546875
233,233,1727978605193,0.12670898,-0.046203613,-0.98809814,0.15625,0.015625,-0.453125
234,234,1727978605226,0.12866211,-0.050354004,-0.9920044,-0.046875,0.140625,-0.53125
235,235,1727978605268,0.1274414,-0.047912598,-0.99664307,0.015625,0.171875,-0.46875
236,236,1727978605315,0.1315918,-0.050109863,-0.9890747,-0.125,-0.21875,-0.546875
237,237,1727978605345,0.12524414,-0.050109863,-0.99053955,-0.0625,-0.03125,-0.484375
238,238,1727978605390,0.1237793,-0.04815674,-0.98809814,-0.21875,0.078125,-0.4375
239,239,1727978605433,0.12695312,-0.054016113,-0.99591064,-0.078125,-0.15625,-0.625
240,240,1727978605465,0.12719727,-0.046447754,-0.9924927,-0.046875,-0.015625,-0.484375
241,241,1727978605508,0.13061523,-0.049621582,-0.9956665,0.078125,-0.09375,-0.671875
242,242,1727978605541,0.12866211,-0.054992676,-0.9907837,-0.1875,-0.1875,-0.53125
243,243,1727978605583,0.1262207,-0.050842285,-0.9944458,-0.171875,-0.21875,-0.703125
244,244,1727978605629,0.12915039,-0.05255127,-0.9898071,0.046875,-0.109375,-0.578125
245,245,1727978605658,0.12988281,-0.05230713,-0.9932251,-0.078125,-0.03125,-0.4375
246,246,1727978605710,0.12890625,-0.055480957,-0.9932251,0.0625,0.078125,-0.4375
247,247,1727978605749,0.12426758,-0.05206299,-0.99468994,-0.15625,-0.03125,-0.453125
248,248,1727978605781,0.12719727,-0.05303955,-0.9915161,-0.109375,-0.09375,-0.40625
249,249,1727978605829,0.12182617,-0.049865723,-0.99468994,-0.21875,-0.03125,-0.453125
250,250,1727978605869,0.12524414,-0.04888916,-0.9932251,-0.046875,-0.21875,-0.5
251,251,1727978605900,0.12475586,-0.045715332,-0.9949341,0.0625,-0.03125,-0.546875
252,252,1727978605949,0.12451172,-0.05230713,-0.9956665,-0.03125,-0.046875,-0.515625
253,253,1727978605973,0.13085938,-0.047912598,-0.99420166,0.03125,0.078125,-0.484375
254,254,1727978606021,0.12670898,-0.046691895,-0.9890747,0.078125,0.078125,-0.40625
255,255,1727978606063,0.12670898,-0.050598145,-0.9944458,-0.109375,0.0625,-0.4375
256,256,1727978606140,0.123291016,-0.051330566,-0.9885864,-0.15625,-0.03125,-0.34375
257,257,1727978606154,0.13452148,-0.049865723,-0.9927368,-0.171875,-0.015625,-0.609375
258,258,1727978606182,0.1315918,-0.050109863,-0.99468994,-0.203125,0.015625,-0.453125
259,259,1727978606215,0.12475586,-0.050109863,-0.989563,-0.03125,-0.078125,-0.4375
260,260,1727978606259,0.12646484,-0.049865723,-0.991272,-0.0625,-0.234375,-0.359375
261,261,1727978606310,0.12939453,-0.047180176,-0.9873657,-0.140625,0.015625,-0.421875
262,262,1727978606334,0.12963867,-0.051330566,-0.9993286,-0.125,0.234375,-0.609375
263,263,1727978606380,0.12817383,-0.04864502,-0.9871216,-0.09375,0.03125,-0.421875
264,264,1727978606425,0.12597656,-0.04547119,-0.9902954,-0.21875,-0.015625,-0.484375
265,265,1727978606454,0.12866211,-0.047424316,-0.9927368,-0.25,0.015625,-0.625
266,266,1727978606498,0.1340332,-0.047180176,-0.99298096,-0.125,0.078125,-0.46875
267,267,1727978606527,0.12451172,-0.051818848,-0.99176025,-0.09375,0.015625,-0.453125
268,268,1727978606573,0.12817383,-0.054260254,-0.9920044,-0.03125,0.109375,-0.59375
269,269,1727978606618,0.12817383,-0.047424316,-0.99835205,0.03125,-0.09375,-0.421875
270,270,1727978606648,0.12915039,-0.051574707,-0.9956665,-0.046875,-0.125,-0.515625
271,271,1727978606695,0.12402344,-0.051086426,-0.987854,0.125,-0.109375,-0.375
272,272,1727978606753,0.12841797,-0.0491333,-0.9968872,0.0,-0.078125,-0.40625
273,273,1727978606767,0.1303711,-0.053527832,-0.99346924,-0.078125,-0.03125,-0.546875
274,274,1727978606814,0.12817383,-0.05303955,-0.9902954,-0.1875,-0.046875,-0.546875
275,275,1727978606860,0.13208008,-0.050109863,-0.9924927,-0.03125,0.015625,-0.390625
276,276,1727978606887,0.12524414,-0.045959473,-0.99102783,-0.15625,-0.09375,-0.453125
277,277,1727978606934,0.12524414,-0.050598145,-0.9939575,0.09375,0.015625,-0.40625
278,278,1727978606967,0.12646484,-0.046936035,-0.99298096,-0.109375,0.078125,-0.546875
279,279,1727978607010,0.12817383,-0.04864502,-0.9949341,-0.0625,-0.140625,-0.484375
280,280,1727978607054,0.13110352,-0.047424316,-0.9951782,0.015625,0.0625,-0.515625
281,281,1727978607083,0.12475586,-0.04888916,-0.9907837,-0.140625,-0.015625,-0.453125
282,282,1727978607130,0.12646484,-0.05328369,-0.99664307,0.109375,0.234375,-0.453125
283,283,1727978607175,0.13330078,-0.05303955,-0.9898071,-0.234375,-0.078125,-0.46875
284,284,1727978607206,0.12939453,-0.055480957,-0.9963989,-0.21875,0.125,-0.453125
285,285,1727978607249,0.12548828,-0.057434082,-0.9898071,0.03125,0.09375,-0.453125
286,286,1727978607294,0.12451172,-0.046447754,-0.9902954,-0.140625,-0.078125,-0.640625
287,287,1727978607325,0.13134766,-0.055725098,-0.9898071,-0.15625,-0.046875,-0.421875
288,288,1727978607368,0.12817383,-0.047424316,-0.99713135,-0.125,0.015625,-0.546875
289,289,1727978607445,0.12817383,-0.054992676,-0.98516846,-0.15625,-0.140625,-0.53125
290,290,1727978607453,0.12792969,-0.046203613,-0.9968872,-0.140625,0.078125,-0.40625
291,291,1727978607489,0.12573242,-0.04937744,-0.9937134,-0.171875,0.109375,-0.53125
292,292,1727978607518,0.12207031,-0.046447754,-0.99346924,0.03125,0.078125,-0.546875
293,293,1727978607568,0.12768555,-0.04864502,-0.99664307,0.0,0.0,-0.40625
294,294,1727978607610,0.12841797,-0.051086426,-0.9939575,-0.09375,0.15625,-0.484375
295,295,1727978607639,0.1262207,-0.050354004,-0.99957275,-0.1875,0.171875,-0.40625
296,296,1727978607683,0.12084961,-0.053771973,-0.99835205,-0.09375,-0.171875,-0.5625
297,297,1727978607730,0.12109375,-0.050598145,-0.98931885,0.015625,-0.078125,-0.421875
298,298,1727978607769,0.13085938,-0.046447754,-0.9985962,-0.28125,-0.109375,-0.46875
299,299,1727978607804,0.12524414,-0.050598145,-0.991272,0.03125,-0.078125,-0.390625
300,300,1727978607849,0.13134766,-0.04864502,-0.989563,-0.234375,-0.109375,-0.546875
301,301,1727978607880,0.12768555,-0.053771973,-0.99298096,-0.15625,-0.15625,-0.59375
302,302,1727978607929,0.125,-0.04815674,-0.9927368,0.015625,-0.1875,-0.546875
303,303,1727978607970,0.12695312,-0.051818848,-0.99346924,0.109375,-0.0625,-0.5
304,304,1727978608000,0.12548828,-0.053527832,-0.9920044,-0.078125,-0.203125,-0.453125
305,305,1727978608048,0.12939453,-0.050354004,-0.99957275,-0.0625,0.015625,-0.515625
306,306,1727978608074,0.12915039,-0.051574707,-0.99005127,-0.09375,0.046875,-0.484375
307,307,1727978608121,0.12573242,-0.050842285,-0.9949341,0.09375,-0.03125,-0.375
308,308,1727978608162,0.13183594,-0.05328369,-0.986145,-0.0625,0.046875,-0.671875
309,309,1727978608195,0.12426758,-0.050842285,-0.9937134,-0.109375,-0.1875,-0.5
310,310,1727978608241,0.12207031,-0.04425049,-0.9924927,0.03125,0.1875,-0.296875
311,311,1727978608287,0.12402344,-0.047180176,-0.99591064,-0.015625,0.0625,-0.4375
312,312,1727978608315,0.12890625,-0.047912598,-0.987854,0.0625,0.140625,-0.53125
313,313,1727978608361,0.12792969,-0.05328369,-0.9924927,-0.171875,0.234375,-0.5625
314,314,1727978608408,0.12890625,-0.042297363,-0.99102783,0.0,0.078125,-0.4375
315,315,1727978608434,0.13085938,-0.053527832,-0.99053955,0.125,0.03125,-0.515625
316,316,1727978608494,0.12573242,-0.04937744,-0.9937134,-0.046875,-0.046875,-0.59375
317,317,1727978608509,0.123046875,-0.047668457,-0.98931885,0.046875,-0.015625,-0.484375
318,318,1727978608553,0.13085938,-0.05255127,-0.9998169,-0.125,0.0,-0.578125
319,319,1727978608598,0.13183594,-0.043273926,-0.9902954,0.203125,-0.078125,-0.53125
320,320,1727978608630,0.123535156,-0.046447754,-0.99468994,0.125,0.03125,-0.4375
321,321,1727978608674,0.12890625,-0.04498291,-0.9973755,0.015625,-0.03125,-0.59375
322,322,1727978608719,0.11816406,-0.04473877,-0.9949341,-0.046875,-0.03125,-0.65625
323,323,1727978608748,0.12475586,-0.04815674,-0.9927368,-0.125,-0.125,-0.5
324,324,1727978608795,0.12817383,-0.050354004,-0.9937134,-0.171875,0.0,-0.390625
325,325,1727978608839,0.13671875,-0.04425049,-0.9924927,-0.171875,0.0,-0.4375
326,326,1727978608887,0.12866211,-0.042785645,-0.9951782,-0.046875,0.015625,-0.515625
327,327,1727978608915,0.12524414,-0.05206299,-0.99005127,-0.03125,0.015625,-0.453125
328,328,1727978608963,0.12573242,-0.050842285,-0.99664307,-0.09375,-0.234375,-0.6875
329,329,1727978608990,0.12963867,-0.04840088,-1.0003052,-0.078125,0.0625,-0.703125
330,330,1727978609035,0.123535156,-0.051086426,-0.9944458,-0.15625,-0.34375,-0.328125
331,331,1727978609064,0.13134766,-0.04498291,-0.9937134,0.046875,0.078125,-0.3125
332,332,1727978609109,0.12597656,-0.04815674,-0.98931885,-0.015625,-0.109375,-0.640625
333,333,1727978609153,0.12451172,-0.047668457,-0.9937134,0.171875,-0.046875,-0.578125
334,334,1727978609184,0.12841797,-0.050842285,-0.9963989,-0.09375,0.171875,-0.375
335,335,1727978609230,0.12768555,-0.043273926,-0.98883057,-0.1875,0.171875,-0.578125
336,336,1727978609275,0.1237793,-0.0491333,-0.9883423,0.015625,0.0,-0.484375
337,337,1727978609305,0.12597656,-0.047912598,-0.9944458,0.015625,-0.171875,-0.484375
338,338,1727978609348,0.11694336,-0.04864502,-0.9829712,0.0,0.078125,-0.46875
339,339,1727978609396,0.1237793,-0.051330566,-0.9993286,-0.015625,-0.0625,-0.5625
340,340,1727978609425,0.12915039,-0.045959473,-0.98809814,-0.046875,-0.0625,-0.4375
341,341,1727978609468,0.12670898,-0.051574707,-0.99420166,0.140625,0.109375,-0.421875
342,342,1727978609500,0.12817383,-0.047424316,-0.9902954,-0.078125,-0.046875,-0.328125
343,343,1727978609543,0.12597656,-0.04937744,-0.9907837,0.0,-0.046875,-0.375
344,344,1727978609590,0.12817383,-0.051086426,-0.99176025,0.015625,-0.03125,-0.515625
345,345,1727978609620,0.12451172,-0.046447754,-0.9944458,-0.03125,0.03125,-0.296875
346,346,1727978609664,0.12719727,-0.046691895,-0.9951782,-0.078125,-0.03125,-0.4375
347,347,1727978609710,0.1262207,-0.04498291,-0.9951782,0.015625,-0.140625,-0.4375
348,348,1727978609738,0.12036133,-0.042541504,-0.987854,-0.03125,-0.140625,-0.484375
349,349,1727978609783,0.12133789,-0.04815674,-0.991272,-0.03125,-0.171875,-0.375
350,350,1727978609830,0.1274414,-0.042297363,-0.9924927,0.078125,-0.140625,-0.5
351,351,1727978609859,0.12890625,-0.046691895,-0.99298096,-0.09375,-0.03125,-0.4375
352,352,1727978609904,0.12475586,-0.05328369,-1.0015259,-0.0625,0.0,-0.40625
353,353,1727978609980,0.1274414,-0.046447754,-0.989563,-0.203125,-0.125,-0.5
354,354,1727978609994,0.1237793,-0.05230713,-0.9873657,-0.140625,-0.078125,-0.6875
355,355,1727978610039,0.12915039,-0.05328369,-0.99298096,-0.171875,-0.09375,-0.390625
356,356,1727978610053,0.1340332,-0.04840088,-0.9907837,-0.234375,-0.03125,-0.453125
357,357,1727978610098,0.12548828,-0.04498291,-0.9873657,0.03125,0.015625,-0.53125
358,358,1727978610143,0.12719727,-0.047180176,-0.99713135,0.015625,-0.03125,-0.484375
359,359,1727978610174,0.12841797,-0.0491333,-0.9890747,0.015625,-0.234375,-0.421875
360,360,1727978610219,0.12792969,-0.046691895,-0.9956665,-0.03125,-0.109375,-0.390625
361,361,1727978610264,0.12548828,-0.044006348,-0.98638916,-0.09375,-0.109375,-0.453125
362,362,1727978610294,0.12573242,-0.04937744,-0.9902954,-0.125,0.03125,-0.421875
363,363,1727978610340,0.12695312,-0.047180176,-0.9976196,-0.109375,-0.203125,-0.46875
364,364,1727978610388,0.13330078,-0.04937744,-0.9944458,-0.046875,-0.03125,-0.484375
365,365,1727978610414,0.12963867,-0.04522705,-0.99053955,-0.140625,-0.046875,-0.484375
366,366,1727978610463,0.12646484,-0.041809082,-0.989563,-0.28125,-0.03125,-0.4375
367,367,1727978610506,0.12963867,-0.04815674,-0.9924927,-0.1875,-0.046875,-0.3125
368,368,1727978610533,0.12768555,-0.0491333,-0.9951782,0.03125,0.0,-0.4375
369,369,1727978610580,0.12719727,-0.04083252,-0.99224854,0.0,0.015625,-0.5625
370,370,1727978610614,0.12646484,-0.050354004,-0.99102783,0.03125,-0.234375,-0.453125
371,371,1727978610655,0.13110352,-0.043273926,-0.991272,-0.03125,-0.125,-0.640625
372,372,1727978610698,0.1274414,-0.046691895,-0.9907837,0.078125,-0.046875,-0.40625
373,373,1727978610730,0.12646484,-0.051330566,-0.9902954,-0.03125,0.03125,-0.5625
374,374,1727978610775,0.12695312,-0.04522705,-0.99420166,-0.421875,0.03125,-0.640625
375,375,1727978610818,0.12548828,-0.046447754,-0.99786377,0.0,0.34375,-0.453125
376,376,1727978610850,0.12890625,-0.04425049,-0.99224854,-0.234375,-0.046875,-0.296875
377,377,1727978610894,0.13305664,-0.04864502,-0.99346924,-0.203125,0.0625,-0.546875
378,378,1727978610939,0.12841797,-0.046936035,-0.9939575,-0.078125,0.046875,-0.5625
379,379,1727978610968,0.125,-0.051086426,-0.9956665,-0.15625,0.109375,-0.5625
380,380,1727978611015,0.12792969,-0.04498291,-0.9898071,-0.03125,-0.140625,-0.390625
381,381,1727978611045,0.12841797,-0.04547119,-0.99420166,-0.015625,-0.015625,-0.40625
382,382,1727978611090,0.12719727,-0.05230713,-0.99542236,-0.140625,-0.140625,-0.359375
383,383,1727978611150,0.13110352,-0.04888916,-0.9907837,0.03125,0.03125,-0.40625
384,384,1727978611167,0.123535156,-0.047668457,-0.987854,-0.03125,-0.015625,-0.421875
385,385,1727978611209,0.123291016,-0.047180176,-0.9885864,-0.046875,-0.125,-0.5
386,386,1727978611254,0.12426758,-0.047424316,-0.9973755,-0.015625,-0.140625,-0.671875
387,387,1727978611286,0.12915039,-0.045959473,-0.9915161,-0.125,0.0,-0.625
388,388,1727978611329,0.1262207,-0.042297363,-0.9939575,-0.125,-0.125,-0.5
389,389,1727978611372,0.12768555,-0.046447754,-0.9924927,-0.125,0.015625,-0.46875
390,390,1727978611405,0.12915039,-0.042297363,-0.99542236,-0.046875,-0.09375,-0.484375
391,391,1727978611447,0.123291016,-0.043762207,-0.9968872,0.015625,-0.09375,-0.5
392,392,1727978611495,0.12670898,-0.046691895,-0.9932251,-0.078125,0.03125,-0.546875
393,393,1727978611528,0.13061523,-0.043273926,-0.9920044,-0.15625,-0.140625,-0.59375
394,394,1727978611570,0.12597656,-0.04107666,-0.9951782,-0.015625,-0.03125,-0.546875
395,395,1727978611600,0.12866211,-0.04522705,-0.9890747,-0.1875,0.140625,-0.421875
396,396,1727978611649,0.123046875,-0.04449463,-0.9907837,-0.09375,0.109375,-0.609375
397,397,1727978611687,0.12768555,-0.046936035,-0.9902954,-0.078125,0.0,-0.5
398,398,1727978611719,0.123291016,-0.04840088,-0.9976196,-0.21875,0.078125,-0.40625
399,399,1727978611769,0.13232422,-0.045715332,-0.9902954,-0.328125,-0.171875,-0.359375
400,400,1727978611810,0.13330078,-0.05328369,-0.99005127,-0.265625,0.109375,-0.53125
401,401,1727978611853,0.12719727,-0.051086426,-0.99346924,-0.21875,0.140625,-0.53125
402,402,1727978611890,0.12695312,-0.047180176,-0.99005127,0.046875,0.0,-0.59375
403,403,1727978611944,0.12207031,-0.04522705,-0.9949341,0.03125,-0.109375,-0.5
404,404,1727978611960,0.12695312,-0.047424316,-0.9937134,-0.140625,-0.046875,-0.578125
405,405,1727978612003,0.1237793,-0.049621582,-0.9973755,-0.171875,0.109375,-0.375
406,406,1727978612033,0.12695312,-0.05645752,-0.9915161,-0.109375,-0.015625,-0.5
407,407,1727978612078,0.12158203,-0.051086426,-0.9920044,0.03125,0.03125,-0.5
408,408,1727978612125,0.12426758,-0.04547119,-0.9920044,0.0,0.109375,-0.5
409,409,1727978612155,0.12768555,-0.05255127,-0.99468994,-0.125,-0.109375,-0.390625
410,410,1727978612198,0.1237793,-0.050109863,-0.9890747,-0.046875,-0.0625,-0.484375
411,411,1727978612246,0.13183594,-0.043029785,-0.99346924,-0.25,0.0625,-0.53125
412,412,1727978612274,0.12475586,-0.050842285,-0.9924927,0.015625,0.078125,-0.46875
413,413,1727978612318,0.12182617,-0.046691895,-0.99224854,-0.125,-0.046875,-0.421875
414,414,1727978612367,0.12133789,-0.04522705,-0.9939575,-0.125,-0.09375,-0.421875
415,415,1727978612395,0.123291016,-0.047912598,-0.9949341,-0.15625,-0.046875,-0.40625
416,416,1727978612440,0.123291016,-0.04425049,-0.9939575,-0.1875,-0.046875,-0.40625
417,417,1727978612515,0.12426758,-0.051086426,-0.9939575,-0.265625,-0.125,-0.4375
418,418,1727978612522,0.12792969,-0.0491333,-0.991272,0.03125,0.078125,-0.484375
419,419,1727978612559,0.12036133,-0.047668457,-0.99102783,-0.21875,-0.03125,-0.484375
420,420,1727978612614,0.12646484,-0.050842285,-0.9939575,0.03125,-0.015625,-0.40625
421,421,1727978612635,0.12524414,-0.0491333,-0.9944458,-0.171875,0.234375,-0.40625
422,422,1727978612694,0.12890625,-0.051818848,-0.99224854,0.0625,-0.015625,-0.5
423,423,1727978612708,0.12133789,-0.040100098,-0.989563,-0.078125,0.03125,-0.453125
424,424,1727978612755,0.12548828,-0.047668457,-0.9907837,-0.140625,-0.015625,-0.5625
425,425,1727978612798,0.13061523,-0.053771973,-0.9920044,-0.203125,0.078125,-0.5
426,426,1727978612829,0.123046875,-0.050842285,-0.99298096,-0.15625,0.109375,-0.5
427,427,1727978612875,0.12768555,-0.05206299,-0.98883057,0.0,-0.046875,-0.515625
428,428,1727978612919,0.122802734,-0.04449463,-0.9990845,-0.015625,-0.015625,-0.46875
429,429,1727978612949,0.12670898,-0.04547119,-0.9968872,0.015625,-0.03125,-0.5
430,430,1727978612994,0.12841797,-0.049621582,-0.9976196,-0.078125,0.0,-0.4375
431,431,1727978613039,0.12182617,-0.046203613,-0.99005127,0.015625,-0.1875,-0.53125
432,432,1727978613069,0.12524414,-0.051330566,-0.98809814,-0.140625,-0.265625,-0.515625
433,433,1727978613114,0.1315918,-0.047180176,-0.9968872,-0.21875,-0.09375,-0.5
434,434,1727978613145,0.12866211,-0.05206299,-0.99713135,-0.171875,-0.03125,-0.421875
435,435,1727978613189,0.12231445,-0.043762207,-0.9915161,0.109375,0.03125,-0.5
436,436,1727978613234,0.12182617,-0.047912598,-0.99176025,-0.0625,-0.078125,-0.484375
437,437,1727978613265,0.12426758,-0.05303955,-0.9949341,-0.140625,-0.046875,-0.375
438,438,1727978613311,0.12841797,-0.045715332,-0.99591064,-0.21875,0.140625,-0.421875
439,439,1727978613354,0.11743164,-0.04937744,-0.9944458,-0.109375,-0.171875,-0.390625
440,440,1727978613383,0.13232422,-0.050109863,-0.99053955,-0.25,0.109375,-0.4375
441,441,1727978613430,0.12963867,-0.04840088,-0.9944458,-0.15625,0.3125,-0.59375
442,442,1727978613473,0.12573242,-0.042053223,-0.9907837,-0.296875,-0.015625,-0.5
443,443,1727978613504,0.118652344,-0.043762207,-0.99591064,0.109375,-0.015625,-0.390625
444,444,1727978613550,0.12695312,-0.051086426,-0.99542236,-0.109375,-0.109375,-0.59375
445,445,1727978613579,0.123535156,-0.04815674,-0.99713135,0.03125,0.046875,-0.359375
446,446,1727978613628,0.125,-0.047180176,-0.9924927,-0.078125,-0.25,-0.484375
447,447,1727978613668,0.12646484,-0.04522705,-0.99468994,0.140625,0.21875,-0.453125
448,448,1727978613700,0.12060547,-0.047180176,-0.9944458,0.109375,-0.078125,-0.453125
449,449,1727978613763,0.12548828,-0.04473877,-0.99713135,-0.09375,-0.171875,-0.546875
450,450,1727978613789,0.1262207,-0.04083252,-0.991272,-0.078125,0.03125,-0.515625
451,451,1727978613818,0.12109375,-0.04473877,-0.99591064,-0.03125,-0.09375,-0.5
452,452,1727978613865,0.12109375,-0.05255127,-0.99298096,0.0,0.0,-0.53125
453,453,1727978613910,0.12792969,-0.05303955,-0.9944458,-0.046875,-0.09375,-0.390625
454,454,1727978613939,0.12426758,-0.049865723,-0.99591064,-0.109375,0.09375,-0.578125
455,455,1727978613984,0.12915039,-0.046691895,-0.99224854,-0.015625,-0.109375,-0.640625
456,456,1727978614028,0.12182617,-0.044006348,-0.9944458,-0.1875,-0.078125,-0.390625
457,457,1727978614060,0.1237793,-0.047424316,-0.99420166,-0.125,-0.140625,-0.484375
458,458,1727978614106,0.13012695,-0.043273926,-0.99468994,0.09375,0.21875,-0.484375
459,459,1727978614135,0.125,-0.043029785,-0.99542236,-0.140625,-0.078125,-0.3125
460,460,1727978614180,0.125,-0.050842285,-0.9885864,-0.0625,0.078125,-0.578125
461,461,1727978614226,0.1262207,-0.04815674,-0.9993286,-0.0625,0.078125,-0.453125
462,462,1727978614271,0.12768555,-0.0491333,-0.98931885,-0.125,0.125,-0.375
463,463,1727978614299,0.12060547,-0.047912598,-0.9902954,-0.078125,0.0,-0.46875
464,464,1727978614345,0.12768555,-0.05303955,-0.9973755,-0.25,0.0625,-0.5
465,465,1727978614373,0.12451172,-0.05255127,-0.9944458,-0.015625,-0.125,-0.421875
466,466,1727978614420,0.13134766,-0.051574707,-0.9932251,0.03125,-0.03125,-0.640625
467,467,1727978614469,0.12524414,-0.04156494,-0.99005127,0.171875,-0.015625,-0.546875
468,468,1727978614494,0.12548828,-0.04864502,-0.9963989,0.109375,-0.140625,-0.578125
469,469,1727978614540,0.1262207,-0.0491333,-0.9951782,0.03125,-0.078125,-0.65625
470,470,1727978614571,0.12451172,-0.04888916,-0.99224854,-0.21875,-0.078125,-0.453125
471,471,1727978614615,0.12524414,-0.043273926,-0.99591064,-0.203125,-0.203125,-0.59375
472,472,1727978614658,0.12890625,-0.051818848,-0.9927368,-0.078125,-0.046875,-0.515625
473,473,1727978614688,0.12768555,-0.04815674,-0.9985962,-0.09375,-0.09375,-0.515625
474,474,1727978614733,0.1303711,-0.044006348,-0.9920044,-0.234375,-0.09375,-0.59375
475,475,1727978614779,0.12475586,-0.046447754,-0.9937134,-0.03125,0.0,-0.640625
476,476,1727978614825,0.12524414,-0.051330566,-0.9973755,-0.046875,-0.109375,-0.375
477,477,1727978614854,0.12426758,-0.04522705,-0.99420166,-0.078125,-0.125,-0.546875
478,478,1727978614899,0.12719727,-0.04498291,-0.9924927,0.046875,-0.203125,-0.453125
479,479,1727978614930,0.12231445,-0.050842285,-0.9956665,-0.125,-0.03125,-0.4375
480,480,1727978614975,0.13061523,-0.051086426,-1.0003052,-0.15625,0.078125,-0.59375
481,481,1727978615048,0.12768555,-0.042785645,-0.9968872,-0.046875,0.078125,-0.421875
482,482,1727978615052,0.123291016,-0.049865723,-0.989563,0.03125,0.03125,-0.46875
483,483,1727978615095,0.12597656,-0.05255127,-0.9961548,0.03125,-0.140625,-0.390625
484,484,1727978615134,0.1237793,-0.051330566,-0.99005127,-0.140625,-0.171875,-0.546875
485,485,1727978615168,0.12548828,-0.04815674,-0.9951782,-0.1875,0.0,-0.5
486,486,1727978615215,0.12426758,-0.047424316,-0.989563,-0.25,-0.140625,-0.46875
487,487,1727978615255,0.1274414,-0.046936035,-0.9920044,-0.09375,-0.09375,-0.5
488,488,1727978615290,0.12231445,-0.050354004,-0.9949341,0.015625,-0.03125,-0.5625
489,489,1727978615335,0.125,-0.047180176,-0.99053955,-0.203125,-0.078125,-0.65625
490,490,1727978615367,0.12426758,-0.05328369,-0.9968872,-0.171875,-0.140625,-0.359375
491,491,1727978615410,0.12890625,-0.050354004,-0.9854126,0.0,-0.234375,-0.5
492,492,1727978615453,0.1274414,-0.04473877,-0.99957275,-0.015625,0.0625,-0.546875
493,493,1727978615485,0.1262207,-0.045959473,-0.9944458,0.046875,-0.015625,-0.375
494,494,1727978615531,0.12646484,-0.046936035,-0.9883423,-0.21875,0.078125,-0.375
495,495,1727978615575,0.13110352,-0.04425049,-0.9927368,-0.15625,-0.078125,-0.5
496,496,1727978615605,0.125,-0.04888916,-0.9920044,-0.03125,0.0,-0.390625
497,497,1727978615648,0.1274414,-0.051818848,-0.9927368,-0.03125,-0.125,-0.515625
498,498,1727978615679,0.12670898,-0.053771973,-0.99835205,-0.03125,-0.140625,-0.328125
499,499,1727978615722,0.1303711,-0.047668457,-0.9976196,-0.09375,0.0625,-0.421875
500,500,1727978615768,0.13061523,-0.05230713,-0.9963989,-0.09375,0.0,-0.40625
501,501,1727978615800,0.1303711,-0.045715332,-0.9951782,-0.109375,0.0,-0.484375
502,502,1727978615844,0.12939453,-0.051818848,-0.9949341,-0.125,-0.078125,-0.359375
503,503,1727978615888,0.1237793,-0.046203613,-0.99102783,-0.015625,0.015625,-0.515625
504,504,1727978615919,0.12866211,-0.04425049,-0.99468994,-0.109375,-0.15625,-0.53125
505,505,1727978615964,0.1315918,-0.042053223,-0.9920044,-0.09375,-0.0625,-0.4375
506,506,1727978616017,0.12792969,-0.04937744,-0.9932251,-0.09375,0.125,-0.546875
507,507,1727978616038,0.12890625,-0.047668457,-0.98931885,0.015625,0.015625,-0.609375
508,508,1727978616089,0.13061523,-0.051086426,-0.9951782,-0.125,-0.15625,-0.5
509,509,1727978616115,0.1274414,-0.04547119,-0.9963989,-0.046875,0.1875,-0.609375
510,510,1727978616160,0.12866211,-0.04888916,-0.99713135,-0.21875,-0.21875,-0.546875
511,511,1727978616203,0.12719727,-0.047424316,-0.99102783,0.015625,-0.171875,-0.40625
512,512,1727978616235,0.12768555,-0.051574707,-0.99224854,-0.21875,0.21875,-0.59375
513,513,1727978616278,0.12451172,-0.047180176,-0.9898071,-0.078125,0.140625,-0.4375
514,514,1727978616328,0.12548828,-0.04937744,-0.9924927,0.0,0.0,-0.46875
515,515,1727978616354,0.12597656,-0.043029785,-0.99468994,-0.015625,0.0625,-0.421875
516,516,1727978616401,0.125,-0.046691895,-0.99591064,-0.0625,-0.109375,-0.46875
517,517,1727978616444,0.12182617,-0.051330566,-1.0003052,-0.171875,0.0,-0.625
518,518,1727978616475,0.12670898,-0.05206299,-0.99224854,0.15625,-0.078125,-0.5625
519,519,1727978616528,0.1262207,-0.04937744,-0.9927368,-0.015625,0.15625,-0.375
520,520,1727978616595,0.1262207,-0.042053223,-0.99298096,0.09375,0.046875,-0.484375
521,521,1727978616604,0.12597656,-0.051086426,-0.98883057,-0.015625,-0.078125,-0.578125
522,522,1727978616638,0.12548828,-0.047180176,-0.9951782,0.0,-0.03125,-0.46875
523,523,1727978616667,0.12768555,-0.046936035,-0.99664307,-0.296875,-0.09375,-0.53125
524,524,1727978616714,0.1237793,-0.04937744,-0.9915161,-0.125,-0.140625,-0.515625
525,525,1727978616758,0.12939453,-0.049865723,-0.9944458,-0.09375,0.125,-0.671875
526,526,1727978616789,0.12768555,-0.04547119,-0.99224854,0.03125,-0.03125,-0.484375
527,527,1727978616834,0.12768555,-0.05255127,-0.9949341,-0.03125,-0.0625,-0.53125
528,528,1727978616883,0.125,-0.04937744,-0.991272,-0.140625,-0.09375,-0.421875
529,529,1727978616908,0.12768555,-0.047180176,-0.99102783,0.078125,0.0,-0.3125
530,530,1727978616956,0.1237793,-0.046447754,-0.99786377,-0.140625,-0.015625,-0.40625
531,531,1727978616998,0.12670898,-0.047180176,-0.9915161,-0.109375,0.09375,-0.453125
532,532,1727978617027,0.12109375,-0.042297363,-0.9939575,-0.171875,0.078125,-0.359375
533,533,1727978617073,0.123291016,-0.05303955,-0.99542236,-0.046875,0.0625,-0.375
534,534,1727978617103,0.125,-0.050842285,-0.99835205,-0.046875,0.28125,-0.390625
535,535,1727978617149,0.12768555,-0.046447754,-0.9927368,-0.1875,0.171875,-0.46875
536,536,1727978617209,0.12573242,-0.050354004,-0.9898071,0.0625,0.03125,-0.5
537,537,1727978617224,0.1262207,-0.05279541,-0.9951782,-0.046875,0.0625,-0.4375
538,538,1727978617268,0.12792969,-0.04522705,-0.99102783,-0.140625,0.140625,-0.421875
539,539,1727978617327,0.12646484,-0.051330566,-0.99713135,-0.203125,0.078125,-0.671875
540,540,1727978617342,0.12231445,-0.05255127,-0.99176025,0.078125,-0.0625,-0.5625
541,541,1727978617390,0.12719727,-0.05255127,-0.99420166,0.015625,-0.03125,-0.5
542,542,1727978617435,0.12695312,-0.046447754,-0.99884033,-0.21875,-0.15625,-0.484375
543,543,1727978617465,0.1262207,-0.04425049,-0.9990845,-0.0625,-0.078125,-0.515625
544,544,1727978617509,0.12915039,-0.046203613,-0.9944458,-0.046875,0.03125,-0.53125
545,545,1727978617589,0.13012695,-0.051330566,-0.99102783,-0.078125,-0.109375,-0.515625
546,546,1727978617597,0.122558594,-0.045715332,-0.99053955,-0.0625,-0.015625,-0.53125
547,547,1727978617630,0.12915039,-0.045959473,-0.98809814,-0.125,0.0,-0.4375
548,548,1727978617659,0.12963867,-0.04840088,-0.9883423,-0.03125,0.015625,-0.53125
549,549,1727978617704,0.12426758,-0.04864502,-0.99420166,-0.125,-0.125,-0.625
550,550,1727978617749,0.1315918,-0.046691895,-0.9829712,0.0625,-0.015625,-0.484375
551,551,1727978617779,0.1340332,-0.047424316,-0.9866333,-0.15625,0.234375,-0.296875
552,552,1727978617825,0.12817383,-0.050109863,-0.9898071,-0.328125,-0.09375,-0.59375
553,553,1727978617870,0.1237793,-0.04498291,-0.99884033,-0.296875,0.265625,-0.5
554,554,1727978617899,0.12890625,-0.055480957,-0.9949341,-0.109375,0.15625,-0.5
555,555,1727978617945,0.13110352,-0.04937744,-0.9939575,0.0,-0.125,-0.59375
556,556,1727978617988,0.125,-0.047424316,-0.9932251,-0.03125,-0.171875,-0.4375
557,557,1727978618019,0.12890625,-0.053527832,-0.9890747,0.015625,0.109375,-0.5
558,558,1727978618064,0.12695312,-0.04815674,-0.9939575,-0.09375,0.03125,-0.40625
559,559,1727978618108,0.12109375,-0.05206299,-0.98687744,0.03125,0.125,-0.46875
560,560,1727978618140,0.12426758,-0.04840088,-0.9963989,0.09375,-0.015625,-0.5
561,561,1727978618184,0.12792969,-0.049865723,-0.9990845,0.03125,-0.140625,-0.59375
562,562,1727978618214,0.12768555,-0.049865723,-0.98687744,0.046875,-0.140625,-0.484375
563,563,1727978618259,0.12036133,-0.05279541,-0.99298096,-0.125,0.0,-0.46875
564,564,1727978618303,0.122802734,-0.050842285,-0.99005127,-0.078125,0.078125,-0.328125
565,565,1727978618350,0.13085938,-0.04937744,-0.99224854,0.0,-0.125,-0.515625
566,566,1727978618378,0.12670898,-0.045959473,-0.9915161,-0.03125,0.046875,-0.546875
567,567,1727978618425,0.12719727,-0.049621582,-0.9907837,-0.0625,0.015625,-0.53125
568,568,1727978618453,0.12548828,-0.042541504,-1.0029907,-0.265625,-0.140625,-0.421875
569,569,1727978618500,0.12402344,-0.049621582,-0.99713135,-0.03125,0.328125,-0.5
570,570,1727978618543,0.13183594,-0.051818848,-0.9866333,-0.078125,-0.03125,-0.46875
571,571,1727978618575,0.12548828,-0.05206299,-0.9937134,-0.125,0.1875,-0.515625
572,572,1727978618620,0.12182617,-0.04840088,-0.991272,-0.28125,0.125,-0.46875
573,573,1727978618650,0.123046875,-0.04547119,-0.9939575,0.109375,0.0625,-0.453125
574,574,1727978618694,0.12402344,-0.042053223,-0.99346924,0.03125,-0.109375,-0.46875
575,575,1727978618738,0.12768555,-0.050109863,-0.99664307,0.046875,0.09375,-0.453125
576,576,1727978618770,0.12915039,-0.051086426,-0.98883057,0.0,0.09375,-0.546875
577,577,1727978618814,0.12426758,-0.05596924,-0.9924927,-0.125,-0.125,-0.421875
578,578,1727978618858,0.1237793,-0.045715332,-0.98687744,0.171875,0.078125,-0.453125
579,579,1727978618890,0.1237793,-0.045715332,-0.99713135,0.140625,0.03125,-0.546875
580,580,1727978618933,0.123535156,-0.047912598,-0.99468994,0.0625,0.09375,-0.484375
581,581,1727978618980,0.12768555,-0.044006348,-0.99835205,0.046875,-0.046875,-0.40625
582,582,1727978619010,0.11767578,-0.055236816,-0.9920044,-0.09375,0.109375,-0.53125
583,583,1727978619055,0.12402344,-0.04498291,-0.9961548,0.03125,-0.140625,-0.46875
584,584,1727978619128,0.12426758,-0.051086426,-0.99346924,-0.0625,-0.078125,-0.421875
585,585,1727978619134,0.125,-0.039367676,-0.9961548,-0.0625,-0.21875,-0.390625
586,586,1727978619175,0.12646484,-0.047912598,-0.9963989,-0.15625,-0.0625,-0.578125
587,587,1727978619205,0.12597656,-0.042053223,-0.989563,0.015625,-0.3125,-0.53125
588,588,1727978619247,0.123291016,-0.04840088,-0.9890747,0.21875,0.0625,-0.390625
589,589,1727978619295,0.122802734,-0.043762207,-0.9915161,-0.15625,-0.015625,-0.328125
590,590,1727978619324,0.12573242,-0.051574707,-0.9932251,-0.140625,-0.046875,-0.453125
591,591,1727978619371,0.13061523,-0.049865723,-0.9956665,-0.078125,0.03125,-0.484375
592,592,1727978619413,0.12768555,-0.042297363,-0.99298096,-0.171875,-0.015625,-0.390625
593,593,1727978619449,0.12451172,-0.04522705,-0.99298096,-0.03125,-0.078125,-0.453125
594,594,1727978619491,0.12573242,-0.04522705,-0.99053955,-0.015625,-0.046875,-0.53125
595,595,1727978619536,0.125,-0.044006348,-0.99713135,-0.03125,0.15625,-0.5
596,596,1727978619563,0.119140625,-0.0491333,-1.0022583,-0.1875,0.0625,-0.4375
597,597,1727978619610,0.12670898,-0.050354004,-0.99591064,-0.0625,-0.125,-0.390625
598,598,1727978619639,0.12792969,-0.055480957,-0.98760986,0.0625,-0.09375,-0.46875
599,599,1727978619685,0.12866211,-0.04449463,-0.99835205,-0.03125,0.015625,-0.59375
600,600,1727978619729,0.13134766,-0.044006348,-0.9866333,0.15625,-0.109375,-0.484375
601,601,1727978619761,0.1315918,-0.049621582,-0.9920044,-0.125,-0.078125,-0.453125
602,602,1727978619818,0.1262207,-0.051574707,-0.9885864,-0.046875,-0.09375,-0.484375
603,603,1727978619850,0.122558594,-0.04888916,-0.9932251,-0.140625,-0.25,-0.4375
604,604,1727978619880,0.123291016,-0.050842285,-0.9968872,0.03125,-0.015625,-0.53125
605,605,1727978619924,0.13012695,-0.045715332,-0.99053955,-0.234375,-0.046875,-0.421875
606,606,1727978619968,0.12768555,-0.047180176,-0.9907837,-0.140625,-0.078125,-0.46875
607,607,1727978620001,0.11987305,-0.04107666,-0.9973755,-0.03125,-0.140625,-0.453125
608,608,1727978620044,0.12402344,-0.04840088,-0.9951782,0.03125,-0.03125,-0.5
609,609,1727978620118,0.12915039,-0.050842285,-0.99420166,-0.09375,-0.140625,-0.4375
610,610,1727978620133,0.1274414,-0.046203613,-0.99102783,-0.15625,-0.015625,-0.453125
611,611,1727978620163,0.12841797,-0.046447754,-0.99468994,-0.0625,-0.109375,-0.390625
612,612,1727978620194,0.13012695,-0.047912598,-0.99346924,0.015625,-0.125,-0.546875
613,613,1727978620240,0.13330078,-0.04547119,-0.9920044,0.015625,-0.21875,-0.515625
614,614,1727978620282,0.1237793,-0.042785645,-0.9951782,-0.140625,-0.03125,-0.53125
615,615,1727978620315,0.119140625,-0.047424316,-0.9944458,-0.15625,-0.3125,-0.5
616,616,1727978620359,0.12817383,-0.049865723,-0.9924927,0.09375,0.125,-0.53125
617,617,1727978620407,0.12060547,-0.04840088,-0.9976196,-0.140625,-0.1875,-0.40625
618,618,1727978620434,0.13134766,-0.051574707,-0.98394775,-0.140625,-0.171875,-0.46875
619,619,1727978620481,0.12670898,-0.047424316,-0.9907837,-0.25,0.109375,-0.546875
620,620,1727978620523,0.13012695,-0.050842285,-0.99298096,-0.1875,0.015625,-0.40625
621,621,1727978620555,0.12402344,-0.04864502,-0.9915161,-0.125,0.03125,-0.4375
622,622,1727978620614,0.12011719,-0.043029785,-0.99468994,0.0,-0.1875,-0.234375
623,623,1727978620644,0.12573242,-0.04864502,-0.99591064,-0.078125,0.03125,-0.65625
624,624,1727978620677,0.12084961,-0.047912598,-0.9993286,-0.015625,-0.125,-0.46875
625,625,1727978620719,0.12792969,-0.047668457,-0.9907837,-0.078125,-0.25,-0.46875
626,626,1727978620749,0.12451172,-0.043273926,-0.9902954,-0.015625,-0.03125,-0.46875
627,627,1727978620795,0.13134766,-0.047424316,-0.99713135,-0.09375,-0.078125,-0.484375
628,628,1727978620838,0.12768555,-0.04473877,-0.99420166,0.0625,0.015625,-0.515625
629,629,1727978620868,0.12963867,-0.047668457,-0.99884033,0.0,0.0625,-0.53125
630,630,1727978620916,0.123535156,-0.049865723,-0.99957275,-0.078125,0.03125,-0.390625
631,631,1727978620958,0.12646484,-0.049865723,-0.9949341,0.0625,-0.078125,-0.484375
632,632,1727978620990,0.12817383,-0.04547119,-0.9998169,-0.28125,-0.171875,-0.578125
633,633,1727978621033,0.12475586,-0.046691895,-0.99786377,-0.09375,0.03125,-0.453125
634,634,1727978621080,0.12817383,-0.047180176,-0.99176025,-0.03125,-0.046875,-0.5625
635,635,1727978621109,0.12548828,-0.04815674,-0.9961548,-0.109375,0.0,-0.484375
636,636,1727978621153,0.1237793,-0.051086426,-0.9944458,-0.078125,0.03125,-0.265625
637,637,1727978621186,0.12573242,-0.04449463,-0.99420166,-0.03125,-0.03125,-0.5
638,638,1727978621229,0.12988281,-0.05303955,-0.9924927,-0.078125,-0.078125,-0.34375
639,639,1727978621274,0.119384766,-0.046447754,-0.9976196,-0.15625,0.078125,-0.671875
640,640,1727978621304,0.13183594,-0.050598145,-0.99420166,-0.03125,0.125,-0.484375
641,641,1727978621349,0.13110352,-0.046691895,-0.99468994,-0.1875,-0.140625,-0.484375
642,642,1727978621393,0.12646484,-0.050109863,-0.9871216,0.078125,0.140625,-0.59375
643,643,1727978621423,0.12963867,-0.054016113,-0.99468994,-0.15625,0.046875,-0.34375
644,644,1727978621471,0.1262207,-0.04937744,-0.9915161,-0.015625,-0.265625,-0.390625
645,645,1727978621514,0.1274414,-0.050354004,-0.9976196,-0.171875,0.15625,-0.453125
646,646,1727978621550,0.1274414,-0.050598145,-0.9883423,-0.09375,0.125,-0.5
647,647,1727978621590,0.12451172,-0.04498291,-0.99664307,-0.171875,-0.046875,-0.546875
648,648,1727978621635,0.1237793,-0.041809082,-0.9956665,-0.171875,0.125,-0.375
649,649,1727978621668,0.12695312,-0.049621582,-0.99786377,-0.140625,0.046875,-0.390625
650,650,1727978621709,0.12646484,-0.047424316,-0.9939575,0.015625,0.046875,-0.421875
651,651,1727978621740,0.12060547,-0.04937744,-0.9924927,-0.234375,-0.09375,-0.46875
652,652,1727978621786,0.12402344,-0.0413208,-0.9937134,0.0,0.078125,-0.515625
653,653,1727978621829,0.13623047,-0.053527832,-0.99053955,-0.03125,0.015625,-0.5
654,654,1727978621860,0.12768555,-0.045715332,-0.9944458,-0.046875,-0.015625,-0.390625
655,655,1727978621904,0.11987305,-0.050598145,-0.9932251,-0.015625,0.0,-0.484375
656,656,1727978621948,0.12646484,-0.045715332,-0.9951782,-0.140625,-0.234375,-0.546875
657,657,1727978621978,0.12792969,-0.053771973,-0.9968872,-0.140625,0.0,-0.578125
658,658,1727978622025,0.12915039,-0.04449463,-0.99713135,-0.125,-0.109375,-0.5
659,659,1727978622069,0.123291016,-0.04840088,-0.9944458,-0.125,-0.078125,-0.484375
660,660,1727978622105,0.12402344,-0.047912598,-0.99420166,-0.09375,0.015625,-0.4375
661,661,1727978622149,0.12890625,-0.043762207,-0.99298096,-0.125,-0.140625,-0.515625
662,662,1727978622175,0.12915039,-0.051086426,-0.99176025,0.0,0.0,-0.609375
663,663,1727978622220,0.12158203,-0.051330566,-0.9915161,-0.078125,0.03125,-0.453125
664,664,1727978622262,0.13061523,-0.04840088,-0.99005127,-0.046875,-0.046875,-0.453125
665,665,1727978622293,0.12597656,-0.046203613,-0.9990845,-0.46875,-0.109375,-0.59375
666,666,1727978622338,0.12792969,-0.0491333,-0.9990845,-0.34375,0.234375,-0.390625
667,667,1727978622383,0.1237793,-0.0491333,-0.98321533,-0.203125,-0.171875,-0.421875
668,668,1727978622415,0.125,-0.047180176,-0.9981079,-0.203125,0.046875,-0.4375
669,669,1727978622458,0.12792969,-0.050842285,-0.9973755,-0.28125,0.03125,-0.546875
670,670,1727978622509,0.125,-0.046447754,-0.991272,-0.109375,0.015625,-0.625
671,671,1727978622534,0.125,-0.043273926,-0.99224854,0.015625,-0.0625,-0.53125
672,672,1727978622589,0.122558594,-0.050354004,-0.9963989,-0.203125,-0.109375,-0.46875
673,673,1727978622623,0.12988281,-0.046447754,-1.0022583,-0.09375,-0.015625,-0.53125
674,674,1727978622654,0.12670898,-0.05303955,-0.9932251,-0.109375,-0.171875,-0.453125
675,675,1727978622708,0.123535156,-0.04840088,-0.98565674,0.0625,-0.109375,-0.484375
676,676,1727978622730,0.13061523,-0.047424316,-0.99713135,0.171875,-0.078125,-0.546875
677,677,1727978622775,0.118652344,-0.04425049,-0.99591064,-0.21875,0.078125,-0.390625
678,678,1727978622822,0.123046875,-0.053771973,-0.99542236,-0.203125,0.015625,-0.484375
679,679,1727978622849,0.1274414,-0.04425049,-0.9956665,-0.203125,-0.015625,-0.484375
680,680,1727978622895,0.12817383,-0.05645752,-0.9949341,0.0,0.109375,-0.546875
681,681,1727978622938,0.123291016,-0.051330566,-0.99420166,-0.203125,0.015625,-0.421875
682,682,1727978622970,0.1315918,-0.050354004,-0.98931885,-0.078125,-0.015625,-0.4375
683,683,1727978623016,0.13330078,-0.047180176,-0.99542236,-0.21875,0.0625,-0.5
684,684,1727978623059,0.12646484,-0.046447754,-0.99298096,-0.03125,-0.328125,-0.5
685,685,1727978623091,0.12670898,-0.045715332,-0.99102783,0.015625,0.0625,-0.5625
686,686,1727978623134,0.125,-0.050842285,-0.99542236,0.0,-0.015625,-0.46875
687,687,1727978623181,0.1262207,-0.047180176,-0.9920044,-0.296875,-0.078125,-0.453125
688,688,1727978623210,0.12548828,-0.050354004,-0.9981079,-0.046875,0.0625,-0.46875
689,689,1727978623255,0.12792969,-0.051086426,-0.9924927,-0.15625,0.0,-0.390625
690,690,1727978623285,0.12792969,-0.04937744,-0.9871216,0.078125,0.0625,-0.46875
691,691,1727978623329,0.12817383,-0.054016113,-0.9902954,-0.015625,-0.03125,-0.5
692,692,1727978623375,0.1237793,-0.050842285,-0.99420166,-0.234375,0.15625,-0.453125
693,693,1727978623405,0.123535156,-0.047912598,-0.9976196,-0.21875,-0.03125,-0.4375
694,694,1727978623450,0.13061523,-0.04864502,-0.991272,-0.046875,-0.046875,-0.421875
695,695,1727978623495,0.13354492,-0.053527832,-0.9985962,0.234375,-0.046875,-0.484375
696,696,1727978623526,0.12573242,-0.049865723,-0.9956665,0.09375,0.015625,-0.578125
697,697,1727978623570,0.13012695,-0.043518066,-0.9927368,0.109375,0.0625,-0.515625
698,698,1727978623613,0.12939453,-0.05279541,-0.9951782,-0.09375,-0.109375,-0.53125
699,699,1727978623644,0.12695312,-0.050109863,-0.99298096,0.078125,-0.09375,-0.5
700,700,1727978623690,0.1262207,-0.051330566,-0.9949341,0.171875,-0.09375,-0.453125
701,701,1727978623721,0.12548828,-0.05255127,-0.9937134,0.109375,-0.03125,-0.546875
702,702,1727978623763,0.12768555,-0.04815674,-0.9985962,0.0,-0.109375,-0.46875
703,703,1727978623811,0.12695312,-0.049621582,-0.9939575,0.0,0.046875,-0.453125
704,704,1727978623841,0.12524414,-0.05279541,-0.99542236,-0.125,-0.21875,-0.359375
705,705,1727978623885,0.1274414,-0.055236816,-0.9951782,-0.09375,-0.125,-0.328125
706,706,1727978623930,0.12548828,-0.04547119,-0.9920044,0.09375,0.078125,-0.4375
707,707,1727978623960,0.12890625,-0.043762207,-0.9990845,-0.078125,0.03125,-0.484375
708,708,1727978624009,0.12890625,-0.050842285,-0.99005127,-0.0625,-0.140625,-0.40625
709,709,1727978624049,0.1303711,-0.04547119,-0.9927368,-0.078125,-0.1875,-0.4375
710,710,1727978624079,0.12597656,-0.04156494,-0.98883057,-0.03125,-0.15625,-0.609375
711,711,1727978624125,0.1262207,-0.051330566,-0.99053955,0.0,-0.015625,-0.4375
712,712,1727978624170,0.123046875,-0.04498291,-0.98883057,0.15625,0.03125,-0.421875
713,713,1727978624199,0.12231445,-0.04937744,-0.9949341,0.1875,-0.046875,-0.53125
714,714,1727978624245,0.1274414,-0.049865723,-0.99468994,0.0625,0.015625,-0.4375
715,715,1727978624275,0.12402344,-0.04864502,-0.99664307,-0.125,0.0,-0.640625
716,716,1727978624319,0.12646484,-0.043762207,-0.9907837,-0.1875,-0.28125,-0.5625
717,717,1727978624365,0.12402344,-0.04864502,-0.99102783,-0.109375,-0.125,-0.515625
718,718,1727978624395,0.12426758,-0.04449463,-0.9883423,0.078125,-0.25,-0.46875
719,719,1727978624442,0.12573242,-0.042785645,-0.99542236,-0.0625,-0.046875,-0.46875
