,Unnamed: 0,timestamp,accel_x,accel_y,accel_z,gyro_x,gyro_y,gyro_z
0,0,1727909986755,0.9863281,-0.028137207,0.093933105,-8.078125,9.3125,-4.265625
1,1,1727909986795,1.0,-0.06109619,0.12200928,-12.421875,-1.46875,-4.265625
2,2,1727909986835,1.0476074,-0.0020141602,0.14056396,-2.328125,-5.46875,-2.34375
3,3,1727909986875,0.9716797,-0.018371582,0.13763428,0.609375,-9.484375,2.40625
4,4,1727909986915,0.967041,0.054626465,0.089538574,-4.609375,-15.6875,6.140625
5,5,1727909986955,0.98461914,0.15106201,0.19134521,9.171875,-14.015625,15.265625
6,6,1727909986995,0.9265137,0.13104248,0.16986084,6.6875,-10.40625,25.265625
7,7,1727909987035,0.80444336,0.1593628,0.21746826,14.140625,7.046875,29.3125
8,8,1727909987075,0.6804199,0.184021,0.26556396,4.171875,6.9375,24.703125
9,9,1727909987115,0.9770508,0.3078003,0.42645264,-5.609375,-8.203125,14.390625
10,10,1727909987155,1.130127,0.26605225,0.48431396,17.984375,-0.125,27.484375
11,11,1727909987195,0.8823242,0.0602417,0.44256592,-10.921875,17.21875,3.75
12,12,1727909987235,0.8144531,0.21258545,0.25238037,-30.265625,12.3125,-16.03125
13,13,1727909987275,0.7548828,0.31878662,0.22845459,-6.328125,14.546875,-1.671875
14,14,1727909987315,0.7832031,0.25335693,0.29803467,-7.90625,8.375,1.28125
15,15,1727909987355,0.8166504,0.27703857,0.2694702,-13.8125,8.703125,-3.859375
16,16,1727909987395,0.79052734,0.34613037,0.20916748,-19.984375,12.5,-5.71875
17,17,1727909987435,0.88623047,0.3300171,0.17327881,-23.984375,16.5,-7.765625
18,18,1727909987475,1.0695801,0.30706787,0.20452881,-6.203125,17.328125,-7.890625
19,19,1727909987515,1.0905762,0.24871826,0.15228271,-19.515625,22.78125,-10.6875
20,20,1727909987555,1.0056152,0.14178467,-0.05230713,-25.0,21.0,-16.15625
21,21,1727909987595,0.94262695,0.18499756,-0.015686035,-20.484375,18.234375,-16.921875
22,22,1727909987635,1.0529785,0.18475342,0.057800293,2.53125,7.0625,-12.171875
23,23,1727909987675,1.1794434,0.20892334,0.08294678,7.578125,-7.46875,-11.9375
24,24,1727909987715,1.1196289,0.12835693,-0.11236572,10.984375,-11.765625,4.546875
25,25,1727909987755,1.2194824,-0.024719238,-0.12701416,-9.515625,-10.28125,0.109375
26,26,1727909987795,1.201416,0.04852295,-0.08135986,11.84375,-6.8125,-0.875
27,27,1727909987835,1.0959473,0.11102295,-0.14678955,8.921875,-5.28125,-1.296875
28,28,1727909987875,0.9284668,0.032165527,-0.07183838,8.1875,-5.6875,4.71875
29,29,1727909987915,1.0007324,-0.05718994,0.06561279,-3.921875,-6.90625,-1.546875
30,30,1727909987955,0.89282227,-0.066223145,-0.02130127,12.328125,-16.171875,-1.765625
31,31,1727909987995,0.8005371,-0.07940674,-0.11846924,5.234375,-21.28125,-9.578125
32,32,1727909988035,0.9238281,-0.061828613,-0.013977051,-2.90625,-12.640625,-23.9375
33,33,1727909988075,1.0090332,0.19793701,0.04901123,13.796875,-4.546875,-18.390625
34,34,1727909988115,0.84106445,0.07562256,0.030456543,-9.9375,-0.9375,-0.28125
35,35,1727909988155,0.94506836,-0.07672119,0.058044434,9.78125,-10.515625,-2.84375
36,36,1727909988195,1.0163574,0.03338623,0.035583496,24.59375,1.296875,-11.09375
37,37,1727909988235,0.95581055,0.10784912,0.06488037,15.40625,1.078125,4.34375
38,38,1727909988275,0.9321289,0.003112793,0.066833496,7.984375,1.0625,10.375
39,39,1727909988315,0.99902344,-0.054504395,0.05316162,7.328125,1.625,5.015625
40,40,1727909988355,0.970459,-0.038391113,0.03729248,8.625,0.25,6.609375
41,41,1727909988395,1.012207,-0.109191895,0.055603027,-1.9375,-1.421875,2.671875
42,42,1727909988435,1.0512695,0.00091552734,0.062927246,8.203125,6.34375,-4.375
43,43,1727909988475,1.0053711,0.19525146,0.07318115,-1.640625,9.859375,-0.109375
44,44,1727909988515,1.0686035,0.0927124,0.121520996,-7.0625,-2.5,11.671875
45,45,1727909988555,1.0205078,-0.08062744,0.12249756,1.390625,-19.546875,9.625
46,46,1727909988595,0.9523926,0.014099121,0.13275146,-6.453125,-21.234375,5.21875
47,47,1727909988635,0.8703613,0.043151855,0.10101318,-9.296875,-18.515625,7.5625
48,48,1727909988675,0.9189453,0.04925537,0.12347412,-8.421875,-10.90625,3.484375
49,49,1727909988715,0.9477539,0.22015381,0.27166748,10.234375,-13.265625,4.546875
50,50,1727909988755,0.9160156,0.15057373,0.20159912,-8.140625,-13.78125,7.828125
51,51,1727909988795,0.82470703,0.1083374,0.22698975,6.6875,-2.296875,7.984375
52,52,1727909988835,0.8989258,0.15618896,0.33685303,-3.234375,-6.875,3.65625
53,53,1727909988875,0.9675293,0.16595459,0.30682373,-1.28125,1.109375,5.984375
54,54,1727909988915,0.9013672,0.078063965,0.4022827,9.125,4.6875,5.6875
55,55,1727909988955,0.8874512,0.19134521,0.33416748,-14.84375,-4.5,-5.6875
56,56,1727909988995,0.8874512,0.21624756,0.2543335,1.875,4.546875,0.140625
57,57,1727909989035,0.8676758,0.0836792,0.34246826,1.953125,10.484375,-0.671875
58,58,1727909989075,0.8557129,0.16668701,0.2711792,-15.671875,7.15625,-9.34375
59,59,1727909989115,0.8474121,0.2531128,0.24017334,-5.09375,14.890625,-2.8125
60,60,1727909989155,0.9003906,0.16595459,0.2946167,-0.5,15.625,-6.90625
61,61,1727909989195,0.8859863,0.24066162,0.25238037,-2.359375,14.453125,-7.71875
62,62,1727909989235,0.94384766,0.17230225,0.21307373,0.46875,11.390625,-7.515625
63,63,1727909989275,0.98876953,0.16937256,0.15301514,-0.359375,12.703125,-9.96875
64,64,1727909989315,1.027832,0.18988037,0.12225342,4.171875,11.46875,-2.03125
65,65,1727909989355,0.9382324,0.023376465,0.07318115,12.3125,0.078125,-2.65625
66,66,1727909989395,1.0131836,-0.034240723,0.08074951,27.46875,-6.8125,-6.03125
67,67,1727909989435,1.015625,0.12249756,0.031921387,11.890625,8.75,-4.984375
68,68,1727909989475,1.0449219,0.11151123,0.030456543,7.40625,20.046875,0.390625
69,69,1727909989515,1.0703125,0.06781006,0.03387451,10.40625,9.21875,4.078125
70,70,1727909989555,1.0986328,0.030456543,-0.07110596,7.71875,3.390625,5.578125
71,71,1727909989595,1.0949707,0.046813965,-0.05645752,4.171875,1.375,5.265625
72,72,1727909989635,1.1035156,0.02923584,-0.010559082,-0.453125,6.234375,6.828125
73,73,1727909989675,1.0544434,-0.019104004,-0.024475098,1.171875,1.15625,3.59375
74,74,1727909989715,1.0664062,0.013122559,-0.07525635,1.75,-4.3125,-1.171875
75,75,1727909989755,0.9953613,0.11077881,-0.07940674,0.53125,-3.5625,-4.265625
76,76,1727909989795,0.92700195,0.05706787,-0.065979004,-8.78125,-4.5625,-4.359375
77,77,1727909989835,0.9511719,-0.017150879,-0.10992432,3.046875,-14.4375,-6.421875
78,78,1727909989875,1.010498,0.010192871,-0.08282471,9.15625,-8.375,-8.890625
79,79,1727909989915,0.9758301,0.024108887,-0.045959473,0.875,-1.25,-8.015625
80,80,1727909989955,0.9628906,0.010681152,-0.0071411133,2.296875,-9.140625,-5.578125
81,81,1727909989995,0.9938965,0.019226074,0.03289795,1.125,-20.0625,-3.625
82,82,1727909990035,0.99121094,-0.034973145,0.023132324,-1.8125,-21.3125,-1.84375
83,83,1727909990075,0.96606445,0.028015137,0.020935059,0.921875,-19.96875,-3.734375
84,84,1727909990115,0.9423828,0.04046631,0.039001465,1.109375,-15.515625,-0.5625
85,85,1727909990155,0.986084,0.035827637,0.07904053,0.78125,-9.859375,-1.359375
86,86,1727909990195,0.95825195,0.06414795,0.085632324,7.65625,-4.640625,4.484375
87,87,1727909990235,0.9404297,-6.1035156e-05,0.090026855,4.40625,-1.421875,6.53125
88,88,1727909990275,0.951416,-0.0015258789,0.097351074,2.09375,-2.59375,5.3125
89,89,1727909990315,0.96875,0.04876709,0.11029053,-0.234375,2.71875,7.328125
90,90,1727909990355,0.953125,0.024108887,0.11077881,-6.109375,5.53125,11.078125
91,91,1727909990395,0.95336914,0.08758545,0.21380615,-0.046875,7.296875,7.890625
92,92,1727909990435,0.91186523,0.047546387,0.23382568,-14.734375,-16.203125,8.78125
93,93,1727909990475,0.92944336,0.1149292,0.1437378,-4.203125,-14.53125,8.453125
94,94,1727909990515,0.8930664,0.20697021,0.2218628,1.78125,-3.5625,6.875
95,95,1727909990555,0.9445801,0.105651855,0.28460693,4.59375,-7.953125,11.703125
96,96,1727909990595,0.90405273,0.17572021,0.22821045,-2.25,-10.265625,9.46875
97,97,1727909990635,0.9555664,0.17718506,0.28338623,8.71875,-0.65625,12.0
98,98,1727909990675,0.88671875,0.152771,0.3007202,0.59375,1.453125,8.109375
99,99,1727909990715,0.9038086,0.17840576,0.3085327,2.953125,0.640625,5.0
100,100,1727909990755,0.92041016,0.18670654,0.33392334,-1.953125,1.9375,2.734375
101,101,1727909990795,0.93725586,0.19720459,0.36590576,4.28125,3.609375,1.953125
102,102,1727909990835,0.9003906,0.18133545,0.3378296,-1.71875,0.78125,-3.0625
103,103,1727909990875,0.8769531,0.2086792,0.28460693,-1.15625,4.265625,-2.859375
104,104,1727909990915,0.88183594,0.15814209,0.31903076,-0.59375,6.765625,-3.3125
105,105,1727909990955,0.89331055,0.21356201,0.31292725,-11.125,5.59375,-5.46875
106,106,1727909990995,0.8630371,0.2387085,0.23480225,-5.890625,5.796875,-5.609375
107,107,1727909991035,0.89331055,0.22698975,0.2909546,2.28125,13.015625,-2.71875
108,108,1727909991075,0.9343262,0.16497803,0.31170654,-8.34375,6.984375,-6.0625
109,109,1727909991115,0.95043945,0.21966553,0.23651123,-6.453125,8.765625,-9.359375
110,110,1727909991155,0.95703125,0.17840576,0.20697021,0.90625,12.890625,-8.28125
111,111,1727909991195,1.0466309,0.1906128,0.15594482,-3.265625,16.640625,-10.203125
112,112,1727909991235,0.91845703,0.13641357,0.097595215,10.15625,15.234375,-2.53125
113,113,1727909991275,0.88256836,0.053894043,0.09832764,23.09375,3.03125,-7.0625
114,114,1727909991315,0.99780273,0.08294678,0.11663818,10.34375,0.09375,-10.90625
115,115,1727909991355,0.94555664,0.17816162,0.09197998,11.703125,-5.234375,-4.734375
116,116,1727909991395,0.9584961,0.11956787,0.00970459,-9.265625,-6.921875,1.0
117,117,1727909991435,1.0405273,0.07684326,-0.051574707,19.125,8.1875,2.78125
118,118,1727909991475,1.1142578,0.05218506,0.09197998,7.828125,24.453125,3.34375
119,119,1727909991515,0.92089844,0.1539917,-0.0154418945,8.40625,10.828125,2.09375
120,120,1727909991555,1.0393066,0.048034668,-0.09942627,8.671875,-0.90625,3.46875
121,121,1727909991595,1.03125,0.0211792,-0.117004395,8.3125,4.140625,1.5
122,122,1727909991635,1.0319824,0.048034668,-0.08673096,-0.796875,7.359375,5.421875
123,123,1727909991675,1.043457,0.028015137,-0.093566895,3.421875,6.28125,0.25
124,124,1727909991715,1.0563965,0.09173584,-0.09991455,1.078125,0.640625,-0.125
125,125,1727909991755,1.0581055,0.0446167,-0.09039307,-3.25,-6.078125,-0.875
126,126,1727909991795,1.0705566,0.02532959,-0.10870361,-6.453125,-9.625,-0.484375
127,127,1727909991835,1.0629883,0.038757324,-0.089904785,-4.234375,-7.46875,-4.53125
128,128,1727909991875,1.0048828,0.054138184,-0.055236816,-5.96875,-6.421875,-4.609375
129,129,1727909991915,0.9577637,0.06585693,-0.0071411133,-4.90625,-17.1875,-2.1875
130,130,1727909991955,0.9655762,0.081970215,0.016540527,-0.40625,-25.453125,-4.890625
131,131,1727909991995,0.9675293,0.08123779,-0.018127441,-3.21875,-28.078125,-2.203125
132,132,1727909992035,0.9890137,0.024108887,-0.00030517578,1.03125,-13.96875,-0.796875
133,133,1727909992075,0.9699707,0.04827881,0.026794434,-5.34375,-5.03125,-1.765625
134,134,1727909992115,0.9616699,0.10272217,0.08709717,-1.53125,-2.03125,0.28125
135,135,1727909992155,0.9211426,0.059265137,0.07537842,-4.21875,-7.65625,6.953125
136,136,1727909992195,0.87939453,0.0079956055,0.07098389,-1.734375,-8.84375,5.6875
137,137,1727909992235,0.8786621,0.06512451,0.0680542,-3.609375,-12.3125,2.953125
138,138,1727909992275,0.9909668,0.08538818,0.112976074,-9.453125,-7.84375,6.234375
139,139,1727909992315,0.99658203,0.09637451,0.12542725,-5.109375,8.734375,7.0625
140,140,1727909992355,0.9428711,0.109558105,0.13739014,-11.765625,19.125,7.90625
141,141,1727909992395,0.8779297,0.13446045,0.31878662,9.34375,-10.5625,15.578125
142,142,1727909992435,0.8979492,0.1593628,0.13104248,-30.453125,-19.46875,-0.140625
143,143,1727909992475,0.875,0.21038818,0.09906006,-8.203125,-7.28125,-4.875
144,144,1727909992515,0.95214844,0.2645874,0.3414917,21.609375,9.15625,12.171875
145,145,1727909992555,0.904541,0.17352295,0.4237671,-15.65625,-9.359375,3.25
146,146,1727909992595,0.9279785,0.25286865,0.2543335,-5.375,-7.3125,3.953125
147,147,1727909992635,0.8979492,0.11883545,0.3324585,-1.171875,-2.953125,2.828125
148,148,1727909992675,0.92285156,0.23504639,0.2741089,-7.96875,-3.875,-1.734375
149,149,1727909992715,0.90527344,0.23040771,0.25408936,-3.359375,3.90625,0.703125
150,150,1727909992755,0.8754883,0.22821045,0.26385498,-4.171875,5.578125,-0.34375
151,151,1727909992795,0.90356445,0.2531128,0.2772827,-0.734375,3.875,-1.625
152,152,1727909992835,0.90234375,0.2477417,0.2579956,-3.53125,2.34375,-2.390625
153,153,1727909992875,0.92041016,0.24700928,0.25579834,-1.671875,6.21875,-0.359375
154,154,1727909992915,0.9069824,0.24798584,0.26312256,0.171875,6.984375,0.015625
155,155,1727909992955,0.92089844,0.22918701,0.230896,-3.765625,8.296875,-2.578125
156,156,1727909992995,0.9248047,0.2218628,0.23822021,3.515625,11.703125,-2.296875
157,157,1727909993035,0.9399414,0.2062378,0.23358154,-1.484375,13.28125,-5.375
158,158,1727909993075,0.8989258,0.22698975,0.16400146,-0.84375,14.6875,-7.03125
159,159,1727909993115,0.9133301,0.19671631,0.1786499,7.234375,17.140625,-3.6875
160,160,1727909993155,0.9338379,0.20794678,0.14593506,3.1875,16.34375,-5.625
161,161,1727909993195,0.9621582,0.14324951,0.12054443,2.890625,14.515625,-6.046875
162,162,1727909993235,0.9641113,0.17572021,0.11273193,10.109375,6.6875,2.46875
163,163,1727909993275,0.98657227,0.08660889,0.10858154,7.671875,-2.53125,-5.53125
164,164,1727909993315,0.9831543,0.1696167,0.081970215,14.765625,-5.9375,-6.578125
165,165,1727909993355,0.9189453,0.17327881,-0.018859863,11.046875,0.609375,0.578125
166,166,1727909993395,0.9055176,0.16522217,-0.05230713,14.90625,10.640625,0.015625
167,167,1727909993435,0.9355469,0.14447021,-0.06695557,9.171875,13.34375,3.5
168,168,1727909993475,1.0935059,0.018493652,-0.08306885,5.4375,13.015625,2.171875
169,169,1727909993515,1.0646973,0.07879639,-0.121398926,11.4375,19.65625,-0.421875
170,170,1727909993555,1.0793457,0.06390381,-0.13824463,10.125,12.484375,0.53125
171,171,1727909993595,1.1462402,0.08099365,-0.082092285,10.0625,4.328125,-2.546875
172,172,1727909993635,1.0539551,0.097351074,-0.13092041,5.28125,-6.453125,-1.203125
173,173,1727909993675,1.125,0.04901123,-0.1897583,9.1875,-8.046875,-2.71875
174,174,1727909993715,1.064209,0.11590576,-0.13775635,6.890625,-7.84375,-5.890625
175,175,1727909993755,1.0480957,0.0927124,-0.15777588,-0.390625,-10.65625,-2.265625
176,176,1727909993795,0.9904785,0.09075928,-0.11895752,4.09375,-5.296875,-4.09375
177,177,1727909993835,0.9423828,0.06463623,-0.11016846,-2.90625,-5.734375,-2.515625
178,178,1727909993875,0.9387207,0.00970459,-0.11065674,1.015625,-11.203125,-2.515625
179,179,1727909993915,0.96533203,0.0524292,-0.07305908,3.6875,-16.640625,-4.15625
180,180,1727909993955,0.9716797,0.06951904,-0.061828613,1.125,-20.671875,-4.84375
181,181,1727909993995,0.96313477,0.049987793,-0.027648926,4.390625,-20.4375,-4.578125
182,182,1727909994035,0.97509766,0.046081543,-0.018859863,4.640625,-20.71875,-4.515625
183,183,1727909994075,1.0029297,0.06512451,0.025817871,4.09375,-11.71875,-3.09375
184,184,1727909994115,0.9538574,0.043151855,0.046569824,2.5,-9.640625,-0.15625
185,185,1727909994155,0.9567871,0.011413574,0.06976318,-0.53125,-7.125,1.828125
186,186,1727909994195,0.8925781,0.024841309,0.0692749,-6.28125,-11.078125,2.53125
187,187,1727909994235,0.9313965,0.053649902,0.09222412,-7.9375,-13.9375,3.546875
188,188,1727909994275,0.9550781,0.086364746,0.10418701,-12.0625,-11.359375,5.234375
189,189,1727909994315,0.95654297,0.09197998,0.12054443,-14.609375,-2.734375,7.578125
190,190,1727909994355,0.9382324,0.13934326,0.1239624,-13.921875,9.65625,7.078125
191,191,1727909994395,0.9206543,0.17059326,0.12689209,-17.734375,17.65625,9.890625
192,192,1727909994435,0.8984375,0.08343506,0.2819214,5.90625,-9.15625,10.671875
193,193,1727909994475,0.94433594,0.19232178,0.14910889,-23.390625,-17.34375,3.296875
194,194,1727909994515,0.8996582,0.17132568,0.12445068,-11.4375,-1.34375,5.640625
195,195,1727909994555,0.88842773,0.24359131,0.3300171,11.609375,2.625,13.5
196,196,1727909994595,0.8967285,0.21575928,0.24945068,-22.5625,-8.375,4.125
197,197,1727909994635,0.9550781,0.18060303,0.19085693,5.046875,7.453125,6.8125
198,198,1727909994675,0.9470215,0.3319702,0.4628296,7.703125,3.125,12.125
199,199,1727909994715,0.99780273,0.2946167,0.30023193,-23.359375,-14.1875,-0.390625
200,200,1727909994755,0.87475586,0.23577881,0.13616943,2.484375,1.53125,2.203125
201,201,1727909994795,0.87841797,0.19281006,0.29656982,6.453125,8.296875,6.625
202,202,1727909994835,0.8666992,0.24993896,0.24603271,-16.609375,0.46875,1.71875
203,203,1727909994875,0.8671875,0.27093506,0.21868896,-3.984375,6.78125,0.5625
204,204,1727909994915,0.8659668,0.26971436,0.2423706,-5.109375,7.90625,-3.015625
205,205,1727909994955,0.890625,0.28704834,0.22113037,-7.46875,7.65625,-3.203125
206,206,1727909994995,0.9082031,0.291687,0.22113037,-2.53125,12.0,-2.75
207,207,1727909995035,0.9057617,0.27288818,0.21063232,-4.859375,11.421875,-6.125
208,208,1727909995075,0.9248047,0.24871826,0.20037842,3.6875,15.28125,-5.828125
209,209,1727909995115,0.9304199,0.26531982,0.17279053,-5.515625,15.015625,-8.3125
210,210,1727909995155,0.89086914,0.23040771,0.13909912,3.8125,14.796875,-5.6875
211,211,1727909995195,0.8737793,0.2111206,0.1005249,-8.8125,-2.609375,-9.9375
212,212,1727909995235,1.0859375,0.17108154,0.109313965,9.484375,-4.953125,-11.1875
213,213,1727909995275,0.9560547,0.19232178,0.066833496,-0.40625,-8.234375,-4.671875
214,214,1727909995315,0.96435547,0.13226318,0.039245605,12.21875,-21.359375,-3.71875
215,215,1727909995355,1.0234375,0.22088623,-0.028625488,13.640625,-11.5625,-9.8125
216,216,1727909995395,1.0151367,0.22113037,-0.01763916,7.546875,6.390625,-0.609375
217,217,1727909995435,1.0126953,0.113464355,0.039489746,9.75,4.984375,3.625
218,218,1727909995475,1.0566406,0.19158936,-0.053527832,16.921875,6.15625,0.15625
219,219,1727909995515,1.0605469,0.14764404,-0.028381348,2.640625,5.21875,3.484375
220,220,1727909995555,1.1027832,0.09832764,-0.023254395,2.25,13.28125,4.734375
221,221,1727909995595,1.045166,0.08001709,-0.0881958,0.375,8.671875,2.6875
222,222,1727909995635,1.0373535,0.06463623,-0.06890869,7.53125,7.328125,3.78125
223,223,1727909995675,1.0214844,0.10028076,-0.054992676,-0.78125,-1.546875,1.453125
224,224,1727909995715,0.9724121,0.11444092,-0.08062744,3.625,-12.078125,-0.984375
225,225,1727909995755,0.98046875,0.11541748,-0.13726807,-0.546875,-12.609375,-2.625
226,226,1727909995795,1.0114746,0.07318115,-0.06890869,-2.890625,-5.03125,-2.1875
227,227,1727909995835,0.9995117,0.09661865,-0.010070801,-3.953125,-7.265625,-4.53125
228,228,1727909995875,1.0029297,0.1786499,0.018493652,-0.359375,-13.59375,-7.734375
229,229,1727909995915,0.9875488,0.0993042,-0.018859863,-9.015625,-18.921875,-1.53125
230,230,1727909995955,0.97802734,0.11273193,-0.045715332,-1.796875,-15.046875,-4.5625
231,231,1727909995995,0.9616699,0.14031982,-0.0115356445,-5.96875,-15.8125,-4.5625
232,232,1727909996035,0.9609375,0.12762451,0.019958496,-0.59375,-12.96875,-1.3125
233,233,1727909996075,0.970459,0.06585693,0.066101074,-4.03125,-11.390625,-1.234375
234,234,1727909996115,0.9440918,0.08758545,0.08270264,1.46875,-10.90625,-3.546875
235,235,1727909996155,0.91186523,0.11077881,0.09051514,1.90625,-11.75,-0.953125
236,236,1727909996195,0.9169922,0.11199951,0.10223389,-1.703125,-7.296875,1.0625
237,237,1727909996235,0.9030762,0.090270996,0.105407715,-2.59375,3.28125,1.5625
238,238,1727909996275,0.9160156,0.13397217,0.11981201,-6.140625,10.078125,2.578125
239,239,1727909996315,1.0063477,0.15081787,0.14105225,-7.40625,22.265625,5.0
240,240,1727909996355,0.8894043,0.077819824,0.37835693,-11.15625,-14.328125,3.078125
241,241,1727909996395,0.90405273,0.14324951,0.15374756,-7.125,-25.9375,0.703125
242,242,1727909996435,0.89331055,0.15570068,0.13421631,-6.515625,-1.0,2.84375
243,243,1727909996475,0.8977051,0.2008667,0.34368896,33.9375,2.84375,12.453125
244,244,1727909996515,0.8955078,0.17791748,0.29241943,-16.578125,-11.34375,-0.859375
245,245,1727909996555,0.94799805,0.21185303,0.27044678,10.1875,0.21875,8.25
246,246,1727909996595,0.93115234,0.20892334,0.39105225,-1.375,-4.25,6.25
247,247,1727909996635,0.967041,0.18743896,0.3085327,-7.140625,-5.75,3.6875
248,248,1727909996675,0.9091797,0.17816162,0.27947998,-2.625,-0.671875,3.734375
249,249,1727909996715,0.8833008,0.20721436,0.30169678,-6.6875,0.546875,3.03125
250,250,1727909996755,0.89501953,0.23919678,0.26141357,-11.8125,0.203125,2.9375
251,251,1727909996795,0.8972168,0.25360107,0.2909546,-5.09375,4.25,5.234375
252,252,1727909996835,0.8798828,0.26971436,0.2982788,-10.859375,1.359375,2.75
253,253,1727909996875,0.8911133,0.2687378,0.25238037,-6.734375,2.390625,1.53125
254,254,1727909996915,0.88916016,0.2753296,0.2694702,-3.03125,5.203125,2.109375
255,255,1727909996955,0.89086914,0.26556396,0.2748413,-4.609375,6.96875,0.859375
256,256,1727909996995,0.8959961,0.2477417,0.25042725,-4.203125,5.203125,-2.4375
257,257,1727909997035,0.91796875,0.28289795,0.26922607,-1.203125,10.3125,-2.453125
258,258,1727909997075,0.89868164,0.26849365,0.24310303,-7.59375,8.546875,-2.96875
259,259,1727909997115,0.9428711,0.25701904,0.22918701,-2.015625,13.796875,-4.125
260,260,1727909997155,0.8947754,0.24407959,0.20550537,-3.3125,13.953125,-4.125
261,261,1727909997195,0.9189453,0.2255249,0.16693115,-2.015625,12.46875,-5.328125
262,262,1727909997235,0.95751953,0.23016357,0.13568115,0.5,16.3125,-7.1875
263,263,1727909997275,0.94189453,0.20697021,0.11199951,2.734375,22.40625,-3.640625
264,264,1727909997315,0.9160156,0.16131592,0.11541748,5.421875,11.4375,-0.828125
265,265,1727909997355,0.9313965,0.1852417,0.101745605,10.0,-7.84375,-6.40625
266,266,1727909997395,0.984375,0.21307373,0.051696777,11.265625,-25.828125,-2.53125
267,267,1727909997435,0.96362305,0.22064209,-0.08673096,0.296875,-13.328125,-1.796875
268,268,1727909997475,1.0048828,0.22161865,-0.101623535,8.6875,7.703125,-0.078125
269,269,1727909997515,1.0439453,0.20037842,-0.037902832,10.3125,24.078125,4.6875
270,270,1727909997555,0.9992676,0.06951904,-0.10333252,-4.734375,18.03125,4.96875
271,271,1727909997595,1.1567383,0.026794434,-0.105773926,14.015625,22.0625,-1.953125
272,272,1727909997635,1.1079102,0.12322998,-0.04425049,0.921875,15.796875,-1.9375
273,273,1727909997675,1.0705566,0.105651855,-0.07281494,-1.78125,-11.78125,-3.8125
274,274,1727909997715,1.0830078,0.13519287,-0.14190674,13.875,-20.296875,-10.203125
275,275,1727909997755,1.046875,0.20404053,-0.15167236,4.8125,-14.296875,-5.796875
276,276,1727909997795,1.0205078,0.10369873,-0.11920166,3.859375,-8.28125,-2.53125
277,277,1727909997835,0.9812012,0.11077881,-0.054992676,3.984375,-8.953125,-4.1875
278,278,1727909997875,0.9868164,0.11077881,-0.04034424,4.15625,-13.578125,-5.03125
279,279,1727909997915,0.9890137,0.047546387,-0.024719238,2.640625,-10.53125,-5.1875
280,280,1727909997955,0.94921875,0.04510498,-0.019104004,-1.328125,-13.71875,-6.09375
281,281,1727909997995,0.95874023,0.07171631,-0.0134887695,0.546875,-14.8125,-6.03125
282,282,1727909998035,0.9501953,0.101257324,0.012390137,-0.03125,-13.765625,-5.65625
283,283,1727909998075,0.9494629,0.121276855,0.034606934,2.765625,-12.703125,-1.796875
284,284,1727909998115,0.9116211,0.116882324,0.039978027,2.25,-11.0,-0.203125
285,285,1727909998155,0.8996582,0.07659912,0.030456543,-2.421875,-12.546875,1.625
286,286,1727909998195,0.92407227,0.105163574,0.070739746,4.296875,-9.40625,2.359375
287,287,1727909998235,0.93115234,0.11517334,0.097839355,-0.828125,-6.640625,7.359375
288,288,1727909998275,0.967041,0.05657959,0.113464355,-6.546875,-2.3125,7.671875
289,289,1727909998315,0.97265625,0.12347412,0.12200928,-2.9375,8.40625,4.03125
290,290,1727909998355,0.8918457,0.19744873,0.1239624,-5.703125,13.8125,10.140625
291,291,1727909998395,0.8989258,0.06365967,0.24725342,26.296875,-3.15625,15.625
292,292,1727909998435,0.8996582,0.13421631,0.17376709,-31.234375,-14.546875,6.53125
293,293,1727909998475,0.9560547,0.29779053,0.1642456,-13.8125,-3.390625,4.59375
294,294,1727909998515,0.94140625,0.23480225,0.26507568,-2.03125,1.359375,15.609375
295,295,1727909998555,0.95996094,0.23968506,0.31878662,-9.421875,-3.984375,7.609375
296,296,1727909998595,0.9645996,0.2904663,0.29412842,-11.390625,-7.140625,5.515625
297,297,1727909998635,0.9157715,0.29144287,0.21307373,-11.03125,-2.15625,5.59375
298,298,1727909998675,0.8911133,0.26605225,0.25897217,-2.140625,3.25,5.515625
299,299,1727909998715,0.91845703,0.32025146,0.26678467,-12.671875,-0.640625,2.234375
300,300,1727909998755,0.9172363,0.3085327,0.25091553,-7.015625,1.328125,3.609375
301,301,1727909998795,0.8977051,0.30023193,0.25360107,-6.796875,1.625,0.765625
302,302,1727909998835,0.8811035,0.3287964,0.22015381,-7.453125,2.109375,0.203125
303,303,1727909998875,0.8701172,0.33831787,0.2086792,-5.0625,3.546875,-0.296875
304,304,1727909998915,0.88671875,0.33221436,0.21380615,-0.1875,4.203125,-1.296875
305,305,1727909998955,0.8769531,0.34417725,0.20721436,-2.09375,4.421875,-3.71875
306,306,1727909998995,0.9250488,0.32196045,0.20648193,4.234375,8.296875,-2.984375
307,307,1727909999035,0.9182129,0.30267334,0.24603271,5.953125,8.4375,-4.625
308,308,1727909999075,0.9069824,0.2838745,0.22161865,1.859375,6.71875,-7.15625
309,309,1727909999115,0.88305664,0.29486084,0.1798706,0.953125,7.53125,-6.96875
310,310,1727909999155,0.89282227,0.28070068,0.19012451,6.703125,13.34375,-5.5
311,311,1727909999195,0.9655762,0.23138428,0.15789795,-5.734375,8.671875,-7.984375
312,312,1727909999235,0.9460449,0.22747803,0.1449585,11.578125,10.234375,-3.75
313,313,1727909999275,0.9116211,0.22601318,0.11590576,3.171875,7.171875,-4.109375
314,314,1727909999315,0.92041016,0.17889404,0.0927124,9.109375,-9.875,-2.796875
315,315,1727909999355,0.94873047,0.18890381,0.0770874,15.015625,-20.96875,-5.21875
316,316,1727909999395,0.97924805,0.21356201,-0.11456299,1.0625,-8.75,-4.015625
317,317,1727909999435,1.0004883,0.20477295,-0.02545166,4.796875,13.84375,0.203125
318,318,1727909999475,1.0319824,0.18865967,0.021911621,0.125,21.140625,4.953125
319,319,1727909999515,1.0539551,0.11126709,0.01751709,4.765625,13.96875,4.453125
320,320,1727909999555,1.027832,0.15472412,-0.023254395,11.421875,7.078125,2.71875
321,321,1727909999595,1.0112305,0.16912842,-0.08087158,3.296875,-2.5,1.15625
322,322,1727909999635,1.0708008,0.18841553,-0.11602783,6.765625,-0.203125,-0.09375
323,323,1727909999675,1.032959,0.2008667,-0.057678223,0.109375,2.109375,0.109375
324,324,1727909999715,1.0717773,0.1671753,-0.065979004,1.09375,-0.625,-3.09375
325,325,1727909999755,1.0822754,0.11541748,-0.08355713,-0.75,0.5625,-2.546875
326,326,1727909999795,1.0214844,0.124938965,-0.06817627,2.046875,-1.875,-3.421875
327,327,1727909999835,0.97680664,0.11834717,-0.055480957,0.078125,-6.40625,-6.0625
328,328,1727909999875,0.97680664,0.12371826,-0.035461426,-1.71875,-10.03125,-5.59375
329,329,1727909999915,0.97143555,0.14886475,-0.013244629,-2.40625,-20.03125,-9.34375
330,330,1727909999955,0.96850586,0.17474365,-0.049621582,0.703125,-20.265625,-8.171875
331,331,1727909999995,0.93969727,0.15325928,-0.047424316,3.046875,-17.203125,-6.34375
332,332,1727910000035,0.94433594,0.14813232,-0.014709473,3.765625,-11.234375,-7.5
333,333,1727910000075,0.9194336,0.10662842,0.029724121,2.4375,-8.140625,-4.703125
334,334,1727910000115,0.91186523,0.07098389,0.062683105,4.359375,-5.515625,-4.109375
335,335,1727910000155,0.8835449,0.10662842,0.06878662,5.734375,-9.359375,-2.59375
336,336,1727910000195,0.90063477,0.07757568,0.06903076,4.5625,-10.3125,0.859375
337,337,1727910000235,1.0048828,0.059509277,0.11175537,0.8125,-2.953125,0.15625
338,338,1727910000275,1.0107422,0.12298584,0.12835693,-3.59375,7.375,2.4375
339,339,1727910000315,0.9482422,0.11566162,0.12738037,-7.53125,12.21875,7.5625
340,340,1727910000355,0.8991699,0.0927124,0.12322998,-9.515625,13.828125,6.609375
341,341,1727910000395,0.8178711,0.06951904,0.21868896,-16.390625,-13.234375,1.578125
342,342,1727910000435,0.9560547,0.13397217,0.16033936,-8.0,-13.71875,5.640625
343,343,1727910000475,1.0097656,0.21160889,0.27020264,3.0,-3.140625,5.546875
344,344,1727910000515,0.9489746,0.19158936,0.2868042,-18.59375,-8.65625,5.03125
345,345,1727910000555,0.9484863,0.19329834,0.18426514,-13.171875,-9.203125,4.828125
346,346,1727910000595,0.92578125,0.2111206,0.2723999,-1.203125,-0.875,6.75
347,347,1727910000635,0.89501953,0.2008667,0.25628662,-17.671875,-7.359375,4.21875
348,348,1727910000675,0.9057617,0.24139404,0.2008667,-8.921875,-2.28125,6.9375
349,349,1727910000715,0.90771484,0.26678467,0.309021,-3.8125,1.125,9.21875
350,350,1727910000755,0.9099121,0.2789917,0.28656006,-15.0,-4.6875,4.25
351,351,1727910000795,0.92211914,0.3078003,0.25701904,-7.90625,-0.828125,4.953125
352,352,1727910000835,0.91430664,0.2592163,0.28607178,-7.46875,2.5,6.375
353,353,1727910000875,0.88183594,0.26800537,0.22869873,-16.734375,-0.53125,1.15625
354,354,1727910000915,0.88256836,0.3085327,0.22576904,-6.125,6.75,3.859375
355,355,1727910000955,0.86743164,0.32269287,0.25628662,-11.03125,4.890625,2.765625
356,356,1727910000995,0.88427734,0.31585693,0.23284912,-9.375,4.390625,-0.34375
357,357,1727910001035,0.85375977,0.34124756,0.2074585,-6.09375,6.09375,-2.5625
358,358,1727910001075,0.86035156,0.35980225,0.23480225,-1.765625,8.34375,-1.015625
359,359,1727910001115,0.8840332,0.3085327,0.23040771,-5.359375,5.59375,-2.984375
360,360,1727910001155,0.8967285,0.32391357,0.1984253,-2.328125,9.015625,-5.96875
361,361,1727910001195,0.9355469,0.307312,0.22064209,1.0,9.9375,-5.265625
362,362,1727910001235,0.9848633,0.2994995,0.14422607,-6.5625,7.4375,-5.984375
363,363,1727910001275,0.97924805,0.24945068,0.105163574,19.484375,10.40625,-8.234375
364,364,1727910001315,0.87475586,0.32977295,0.10467529,9.71875,3.359375,-1.71875
365,365,1727910001355,0.93652344,0.16595459,0.097595215,11.15625,-18.15625,-0.515625
366,366,1727910001395,0.9470215,0.21356201,0.034851074,19.71875,-18.09375,-6.546875
367,367,1727910001435,0.9902344,0.23822021,-0.097473145,11.265625,-1.03125,-0.125
368,368,1727910001475,1.0053711,0.21038818,0.026062012,3.921875,15.75,2.34375
369,369,1727910001515,1.0322266,0.2164917,0.03338623,3.296875,15.28125,2.515625
370,370,1727910001555,1.03125,0.15863037,0.022399902,6.828125,7.703125,2.40625
371,371,1727910001595,1.0324707,0.1671753,-0.101135254,13.015625,0.53125,2.84375
372,372,1727910001635,1.0820312,0.17156982,-0.07232666,1.875,8.984375,-1.140625
373,373,1727910001675,1.0820312,0.25164795,0.0021362305,1.0,8.0,-0.875
374,374,1727910001715,1.0415039,0.16033936,-0.1194458,-1.34375,-3.5625,-1.3125
375,375,1727910001755,1.0668945,0.09246826,-0.15118408,3.078125,-2.953125,-3.953125
376,376,1727910001795,0.99731445,0.14715576,-0.09429932,-1.140625,3.421875,-5.421875
377,377,1727910001835,0.97631836,0.13421631,-0.038146973,0.15625,-9.25,-3.984375
378,378,1727910001875,1.0114746,0.18109131,0.02532959,-5.34375,-15.40625,-7.515625
379,379,1727910001915,0.95947266,0.16326904,0.028259277,4.203125,-30.359375,-6.546875
380,380,1727910001955,0.9953613,0.15203857,-0.011291504,1.703125,-27.125,-5.828125
381,381,1727910001995,0.9440918,0.18475342,0.0006713867,1.703125,-19.359375,-5.515625
382,382,1727910002035,0.96850586,0.1461792,0.023376465,1.171875,-10.265625,-2.375
383,383,1727910002075,0.9230957,0.12640381,0.032409668,0.90625,-3.375,-0.765625
384,384,1727910002115,0.8745117,0.097595215,0.070251465,-0.25,-3.6875,0.234375
385,385,1727910002155,0.9160156,0.0914917,0.093688965,-1.875,-3.078125,-1.96875
386,386,1727910002195,0.95214844,0.18548584,0.10467529,-0.078125,-3.265625,-2.828125
387,387,1727910002235,0.9934082,0.20306396,0.12225342,-1.96875,3.375,3.890625
388,388,1727910002275,0.9296875,0.19085693,0.13543701,-1.953125,14.28125,5.375
389,389,1727910002315,0.88916016,0.17938232,0.28216553,23.15625,-3.8125,11.671875
390,390,1727910002355,0.91015625,0.16815186,0.21551514,-11.484375,-12.734375,-0.453125
391,391,1727910002395,0.9194336,0.17596436,0.18719482,0.984375,-7.25,4.25
392,392,1727910002435,0.93408203,0.2682495,0.338562,7.203125,-3.328125,8.859375
393,393,1727910002475,0.8757324,0.20159912,0.22918701,-14.015625,-8.078125,5.984375
394,394,1727910002515,0.8522949,0.23358154,0.21307373,5.359375,-2.328125,7.1875
395,395,1727910002555,0.91967773,0.23138428,0.35150146,5.8125,-3.734375,3.828125
396,396,1727910002595,0.98461914,0.29803467,0.34100342,-4.171875,-8.3125,0.625
397,397,1727910002635,0.9355469,0.24481201,0.29559326,2.96875,0.921875,6.171875
398,398,1727910002675,0.89697266,0.24578857,0.32635498,-3.46875,-0.21875,5.484375
399,399,1727910002715,0.90405273,0.24481201,0.29364014,-4.125,-0.40625,4.484375
400,400,1727910002755,0.89086914,0.23431396,0.2897339,-0.484375,1.046875,2.078125
401,401,1727910002795,0.90283203,0.25360107,0.31536865,0.5625,-1.4375,0.0
402,402,1727910002835,0.89819336,0.2958374,0.28240967,-6.890625,0.734375,0.25
403,403,1727910002875,0.8967285,0.27508545,0.29437256,-2.609375,2.96875,2.734375
404,404,1727910002915,0.88671875,0.27313232,0.29534912,-2.59375,2.59375,1.703125
405,405,1727910002955,0.8859863,0.28704834,0.27069092,-4.5,1.859375,-0.234375
406,406,1727910002995,0.8852539,0.29974365,0.2789917,-1.09375,5.828125,0.0
407,407,1727910003035,0.8828125,0.2723999,0.2958374,-0.25,5.4375,-1.5625
408,408,1727910003075,0.87475586,0.28729248,0.27630615,-4.296875,3.546875,-4.203125
409,409,1727910003115,0.90625,0.27288818,0.2670288,-0.9375,6.359375,-3.53125
410,410,1727910003155,0.9099121,0.2748413,0.24969482,-4.21875,8.046875,-3.734375
411,411,1727910003195,0.8886719,0.27459717,0.19012451,-6.765625,10.5625,-3.703125
412,412,1727910003235,0.9086914,0.26068115,0.18133545,-2.140625,11.65625,-3.203125
413,413,1727910003275,0.98168945,0.2711792,0.13983154,-3.09375,17.5,-2.859375
414,414,1727910003315,0.8796387,0.22991943,0.11395264,-0.421875,12.578125,0.078125
415,415,1727910003355,0.9104004,0.2518921,0.11151123,-0.09375,13.28125,0.703125
416,416,1727910003395,0.9350586,0.24481201,0.117370605,2.671875,6.8125,0.09375
417,417,1727910003435,0.9226074,0.27459717,0.1005249,2.953125,0.921875,1.546875
418,418,1727910003475,0.9313965,0.25286865,0.074157715,5.53125,-7.5,4.03125
419,419,1727910003515,0.9584961,0.22894287,0.021911621,2.34375,-3.5,4.375
420,420,1727910003555,0.9445801,0.2538452,-0.030334473,2.4375,5.078125,4.359375
421,421,1727910003595,0.95581055,0.2411499,-0.050598145,-1.734375,10.25,4.890625
422,422,1727910003635,1.0686035,0.23040771,-0.010559082,-2.234375,7.828125,4.0625
423,423,1727910003675,1.0532227,0.26287842,-0.023254395,3.40625,9.6875,1.640625
424,424,1727910003715,1.0222168,0.25286865,-0.062805176,-2.96875,2.90625,2.125
425,425,1727910003755,1.041748,0.24163818,-0.1350708,7.59375,2.765625,-0.390625
426,426,1727910003795,1.0290527,0.26434326,-0.11529541,1.765625,0.5625,-1.03125
427,427,1727910003835,1.0539551,0.24163818,-0.097961426,-2.84375,-1.71875,-2.125
428,428,1727910003875,1.0744629,0.19281006,-0.10284424,-3.203125,-5.46875,-3.453125
429,429,1727910003915,1.0410156,0.16741943,-0.11236572,-2.796875,-5.09375,-6.375
430,430,1727910003955,0.98706055,0.17401123,-0.113586426,-7.109375,-5.59375,-7.734375
431,431,1727910003995,0.9067383,0.17352295,-0.058410645,-7.171875,-6.484375,-2.921875
432,432,1727910004035,0.9074707,0.1473999,-0.0413208,-6.4375,-20.4375,-3.25
433,433,1727910004075,0.9760742,0.215271,-0.018859863,-0.390625,-33.9375,-10.78125
434,434,1727910004115,0.9992676,0.2538452,-0.0068969727,2.71875,-37.25,-5.8125
435,435,1727910004155,1.0009766,0.17010498,-0.012268066,7.203125,-24.875,-2.921875
436,436,1727910004195,0.9772949,0.23040771,0.08050537,4.453125,-11.375,-4.921875
437,437,1727910004235,0.93237305,0.22406006,0.06951904,-2.25,0.4375,2.203125
438,438,1727910004275,0.92626953,0.1605835,0.08856201,-9.140625,13.765625,5.734375
439,439,1727910004315,0.83496094,0.17547607,0.10369873,-6.125,8.5625,2.328125
440,440,1727910004355,0.8635254,0.21063232,0.1161499,-6.546875,7.359375,3.625
441,441,1727910004395,0.9836426,0.28118896,0.3361206,4.140625,5.578125,3.3125
442,442,1727910004435,0.9260254,0.26141357,0.31610107,-22.453125,-18.09375,2.890625
443,443,1727910004475,0.9428711,0.24603271,0.14959717,2.40625,-16.40625,0.25
444,444,1727910004515,0.8339844,0.32440186,0.13128662,-2.734375,-0.921875,2.859375
445,445,1727910004555,0.9123535,0.291687,0.27850342,20.171875,2.921875,6.390625
446,446,1727910004595,0.9165039,0.2958374,0.2682495,-7.765625,-7.875,1.09375
447,447,1727910004635,0.91796875,0.30291748,0.16766357,0.640625,-1.796875,5.375
448,448,1727910004675,0.9289551,0.22528076,0.25701904,9.609375,4.578125,5.546875
449,449,1727910004715,0.91748047,0.293396,0.2723999,-3.546875,-5.53125,0.921875
450,450,1727910004755,0.91845703,0.28704834,0.24749756,2.859375,-3.0,4.90625
451,451,1727910004795,0.9145508,0.2423706,0.30584717,3.5625,-5.171875,2.734375
452,452,1727910004835,0.91918945,0.3065796,0.28875732,-7.953125,-7.921875,0.578125
453,453,1727910004875,0.9538574,0.2802124,0.28704834,-3.0625,-2.359375,5.578125
454,454,1727910004915,0.90063477,0.2682495,0.30194092,-3.09375,-2.53125,3.828125
455,455,1727910004955,0.89575195,0.28704834,0.27508545,-5.734375,-3.140625,1.15625
456,456,1727910004995,0.88012695,0.3241577,0.27069092,-5.078125,-2.75,2.0625
457,457,1727910005035,0.8876953,0.31243896,0.2843628,-3.546875,-1.765625,2.375
458,458,1727910005075,0.8876953,0.33026123,0.26971436,-6.625,-0.984375,0.8125
459,459,1727910005115,0.8811035,0.32244873,0.27947998,-3.296875,3.03125,2.453125
460,460,1727910005155,0.8835449,0.3143921,0.2958374,-4.828125,2.5625,0.609375
461,461,1727910005195,0.8798828,0.30975342,0.26263428,-5.0,0.921875,-1.65625
462,462,1727910005235,0.8847656,0.31658936,0.25872803,-3.484375,3.75,-2.28125
463,463,1727910005275,0.8635254,0.33221436,0.27679443,-4.390625,5.734375,-2.359375
464,464,1727910005315,0.86694336,0.3053589,0.2592163,-6.171875,4.640625,-3.25
465,465,1727910005355,0.8574219,0.3312378,0.25897217,-6.75,6.96875,-4.1875
466,466,1727910005395,0.8781738,0.33319092,0.24725342,-7.453125,8.21875,-4.453125
467,467,1727910005435,0.8886719,0.31610107,0.22943115,-4.265625,10.75,-3.515625
468,468,1727910005475,0.9470215,0.32000732,0.18865967,-9.34375,9.46875,-6.8125
469,469,1727910005515,0.8874512,0.32806396,0.120788574,-3.1875,15.96875,-3.734375
470,470,1727910005555,0.84814453,0.29534912,0.10882568,-0.40625,22.578125,-4.171875
471,471,1727910005595,0.8288574,0.2897339,0.11590576,6.125,15.78125,-6.546875
472,472,1727910005635,0.8515625,0.33465576,0.10809326,4.359375,6.390625,-6.46875
473,473,1727910005675,0.9321289,0.30291748,0.1005249,7.34375,-4.453125,-1.828125
474,474,1727910005715,0.9641113,0.25823975,0.08929443,11.90625,-11.390625,-3.484375
475,475,1727910005755,0.9206543,0.2958374,-0.07208252,21.9375,1.171875,-1.5
476,476,1727910005795,0.97143555,0.246521,-0.061340332,-0.265625,22.8125,0.796875
477,477,1727910005835,0.98461914,0.2255249,0.0138549805,11.640625,23.203125,0.03125
478,478,1727910005875,1.0146484,0.2501831,-0.0049438477,6.90625,12.75,-2.484375
479,479,1727910005915,1.0566406,0.23382568,-0.10308838,13.34375,8.296875,-3.609375
480,480,1727910005955,1.0727539,0.24505615,-0.11895752,7.5,9.734375,-1.984375
481,481,1727910005995,1.1689453,0.16204834,-0.09527588,2.765625,4.234375,-3.359375
482,482,1727910006035,1.0847168,0.18792725,-0.12261963,6.9375,-1.625,-5.71875
483,483,1727910006075,1.0217285,0.20721436,-0.17144775,6.796875,-11.6875,-4.453125
484,484,1727910006115,1.0739746,0.18841553,-0.11798096,7.0625,-10.734375,-6.75
485,485,1727910006155,1.0600586,0.1852417,-0.06109619,-3.375,-9.234375,-8.046875
486,486,1727910006195,0.9724121,0.121520996,-0.14215088,0.515625,-12.203125,-7.9375
487,487,1727910006235,0.9863281,0.0993042,-0.101867676,-0.21875,-10.453125,-10.40625
488,488,1727910006275,1.0014648,0.120788574,-0.012512207,-2.171875,-10.359375,-9.09375
489,489,1727910006315,0.9460449,0.13690186,-0.024719238,-5.890625,-21.296875,-8.765625
490,490,1727910006355,0.9289551,0.18914795,-0.03326416,0.9375,-25.34375,-10.09375
491,491,1727910006395,0.95532227,0.18109131,0.0026245117,-2.75,-22.5,-8.109375
492,492,1727910006435,0.93359375,0.12445068,0.006286621,1.21875,-18.953125,-3.90625
493,493,1727910006475,0.97998047,0.09246826,0.046813965,4.65625,-13.625,-5.453125
494,494,1727910006515,0.95288086,0.1227417,0.08026123,-0.828125,-10.171875,-2.234375
495,495,1727910006555,0.93310547,0.06878662,0.09100342,-2.359375,-5.4375,2.28125
496,496,1727910006595,0.9008789,0.06854248,0.09515381,-0.75,-5.640625,0.453125
497,497,1727910006635,0.90063477,0.13421631,0.09564209,-1.25,-5.640625,1.109375
498,498,1727910006675,0.94799805,0.13934326,0.11102295,-2.875,1.203125,4.953125
499,499,1727910006715,0.95092773,0.101501465,0.11053467,-5.515625,9.171875,5.28125
500,500,1727910006755,0.9484863,0.14105225,0.121520996,-7.015625,18.109375,4.46875
501,501,1727910006795,0.8774414,0.13079834,0.29071045,-2.625,-7.578125,8.03125
502,502,1727910006835,0.9187012,0.17352295,0.13446045,-19.515625,-21.515625,1.6875
503,503,1727910006875,0.9042969,0.21014404,0.12322998,-11.21875,-2.46875,1.0625
504,504,1727910006915,0.9362793,0.15081787,0.2772827,9.890625,-0.21875,9.78125
505,505,1727910006955,0.93237305,0.19110107,0.28338623,-15.390625,-6.125,2.625
506,506,1727910006995,0.88134766,0.22747803,0.24407959,-4.03125,-2.078125,4.65625
507,507,1727910007035,0.89697266,0.21600342,0.31707764,-2.78125,-2.4375,6.75
508,508,1727910007075,0.951416,0.25579834,0.3283081,-8.9375,-6.171875,5.828125
509,509,1727910007115,0.9211426,0.2699585,0.30389404,-2.828125,-3.75,6.078125
510,510,1727910007155,0.9458008,0.20550537,0.34857178,-0.015625,-2.09375,5.796875
511,511,1727910007195,0.9165039,0.22479248,0.32781982,-5.578125,-3.03125,2.65625
512,512,1727910007235,0.8930664,0.2333374,0.28582764,-2.171875,0.484375,0.578125
513,513,1727910007275,0.88305664,0.21380615,0.30877686,0.328125,3.28125,0.5
514,514,1727910007315,0.89331055,0.24554443,0.30560303,-4.3125,2.78125,-1.1875
515,515,1727910007355,0.8779297,0.2819214,0.28411865,-6.15625,4.484375,-0.921875
516,516,1727910007395,0.9038086,0.27044678,0.27972412,-6.15625,4.671875,0.40625
517,517,1727910007435,0.89208984,0.2814331,0.28533936,-0.453125,5.4375,0.875
518,518,1727910007475,0.9003906,0.25506592,0.2765503,-2.234375,5.984375,-1.59375
519,519,1727910007515,0.8972168,0.2838745,0.24749756,-4.03125,6.640625,-3.65625
520,520,1727910007555,0.9008789,0.26483154,0.26898193,3.390625,9.546875,-2.6875
521,521,1727910007595,0.89746094,0.26361084,0.25482178,-2.703125,8.40625,-4.703125
522,522,1727910007635,0.9157715,0.2843628,0.24725342,3.125,11.0,-3.203125
523,523,1727910007675,0.9267578,0.25823975,0.2453003,2.1875,10.671875,-3.609375
524,524,1727910007715,0.9321289,0.2789917,0.1786499,1.828125,13.890625,-3.921875
525,525,1727910007755,0.92211914,0.21795654,0.14154053,5.84375,17.6875,-3.046875
526,526,1727910007795,0.85058594,0.20672607,0.07659912,6.765625,18.453125,-1.859375
527,527,1727910007835,0.8781738,0.15838623,0.090026855,6.53125,2.21875,1.140625
528,528,1727910007875,0.9526367,0.16400146,0.089782715,14.46875,-6.171875,-5.71875
529,529,1727910007915,0.9343262,0.25775146,-0.008117676,18.515625,-2.765625,-1.140625
530,530,1727910007955,0.99365234,0.15789795,-0.06573486,3.265625,14.3125,4.8125
531,531,1727910007995,1.013916,0.13763428,-0.03668213,3.078125,20.75,4.75
532,532,1727910008035,1.0136719,0.17523193,0.00970459,8.53125,13.828125,0.0625
533,533,1727910008075,1.052002,0.22039795,-0.10675049,16.34375,4.890625,1.25
534,534,1727910008115,1.0749512,0.17059326,-0.13653564,7.21875,8.703125,3.234375
535,535,1727910008155,1.0446777,0.20013428,-0.070129395,5.0625,6.203125,1.671875
536,536,1727910008195,1.0568848,0.16766357,-0.12286377,7.78125,-2.71875,0.421875
537,537,1727910008235,1.0307617,0.16986084,-0.16339111,6.6875,-4.546875,-0.015625
538,538,1727910008275,1.0383301,0.15789795,-0.11627197,-1.328125,-1.3125,-1.296875
539,539,1727910008315,1.0458984,0.14154053,-0.089660645,-7.1875,-4.09375,-2.625
540,540,1727910008355,1.0344238,0.1564331,-0.09063721,-4.40625,-7.296875,-3.0625
541,541,1727910008395,1.026123,0.14886475,-0.06109619,-7.328125,-11.953125,-5.28125
542,542,1727910008435,0.9873047,0.18353271,-0.051574707,-5.609375,-16.109375,-5.1875
543,543,1727910008475,1.0026855,0.14984131,-0.02130127,-5.234375,-22.0625,-7.0625
544,544,1727910008515,0.96191406,0.16497803,-0.0071411133,-3.046875,-24.609375,-7.59375
545,545,1727910008555,0.9543457,0.1515503,0.008239746,-2.90625,-23.75,-6.390625
546,546,1727910008595,0.921875,0.15570068,0.043640137,-4.359375,-20.015625,-5.75
547,547,1727910008635,0.89160156,0.15228271,0.042419434,1.484375,-18.0625,-1.609375
548,548,1727910008675,0.8911133,0.14276123,0.047302246,2.71875,-14.90625,-1.03125
549,549,1727910008715,0.9343262,0.15203857,0.042419434,0.046875,-8.34375,0.484375
550,550,1727910008755,0.9655762,0.15960693,0.07733154,-2.65625,4.484375,2.78125
551,551,1727910008795,0.94677734,0.14154053,0.09320068,-3.9375,9.96875,6.234375
552,552,1727910008835,0.9104004,0.12200928,0.10345459,-8.875,12.03125,4.6875
553,553,1727910008875,0.95458984,0.0211792,0.22479248,17.875,-6.203125,4.75
554,554,1727910008915,0.9458008,0.16473389,0.15960693,-22.265625,-21.546875,-2.796875
555,555,1727910008955,0.9016113,0.14959717,0.093688965,-8.734375,-9.328125,4.390625
556,556,1727910008995,0.921875,0.20843506,0.23260498,4.578125,-3.578125,4.9375
557,557,1727910009035,0.8869629,0.20819092,0.2506714,-18.140625,-13.046875,2.8125
558,558,1727910009075,0.90112305,0.23602295,0.19525146,-12.4375,-11.90625,3.703125
559,559,1727910009115,0.91064453,0.30755615,0.260437,-4.25,-4.296875,6.546875
560,560,1727910009155,0.9001465,0.31414795,0.29144287,-11.046875,-6.890625,7.046875
561,561,1727910009195,0.9067383,0.33172607,0.28363037,-4.40625,-5.84375,6.828125
562,562,1727910009235,0.9375,0.26385498,0.32562256,-8.609375,-5.71875,5.25
563,563,1727910009275,0.92822266,0.25701904,0.3312378,-5.9375,-5.75,4.515625
564,564,1727910009315,0.9108887,0.30047607,0.26849365,-7.359375,-6.578125,1.953125
565,565,1727910009355,0.9050293,0.2843628,0.31536865,-18.171875,-4.0625,3.078125
566,566,1727910009395,0.8652344,0.30584717,0.28460693,-17.328125,-2.34375,1.515625
567,567,1727910009435,0.86938477,0.32269287,0.28631592,-13.703125,-1.78125,0.515625
568,568,1727910009475,0.82543945,0.36419678,0.24676514,-12.625,-2.453125,-1.796875
569,569,1727910009515,0.8522949,0.3883667,0.28656006,0.40625,1.859375,-1.640625
570,570,1727910009555,0.8901367,0.30633545,0.30145264,-5.609375,-2.484375,-1.296875
571,571,1727910009595,0.87646484,0.3546753,0.26971436,-2.796875,2.71875,-3.03125
572,572,1727910009635,0.8754883,0.30511475,0.3085327,2.171875,3.234375,-3.359375
573,573,1727910009675,0.88256836,0.30950928,0.28753662,0.390625,4.78125,-5.984375
574,574,1727910009715,0.8586426,0.29730225,0.28948975,-1.484375,5.1875,-5.671875
575,575,1727910009755,0.88378906,0.33148193,0.28582764,1.171875,9.59375,-5.5625
576,576,1727910009795,0.97802734,0.3139038,0.2584839,3.59375,5.484375,-6.984375
577,577,1727910009835,0.8886719,0.30023193,0.2074585,1.109375,11.765625,-2.484375
578,578,1727910009875,0.8769531,0.24041748,0.13348389,-3.84375,17.25,-3.640625
579,579,1727910009915,0.8798828,0.22088623,0.1630249,5.59375,22.03125,-4.125
580,580,1727910009955,0.9301758,0.20111084,0.17889404,8.140625,17.359375,-6.453125
581,581,1727910009995,0.95996094,0.22943115,0.11932373,2.34375,11.8125,-6.53125
582,582,1727910010035,0.954834,0.2958374,0.09710693,0.71875,13.5,1.359375
583,583,1727910010075,0.9658203,0.21795654,0.047302246,-1.125,13.5625,-2.296875
584,584,1727910010115,1.0134277,0.17449951,0.034118652,6.171875,13.484375,-3.765625
585,585,1727910010155,1.0019531,0.1720581,-0.009338379,13.625,7.265625,-3.984375
586,586,1727910010195,1.027832,0.15570068,-0.045715332,12.90625,2.640625,-2.703125
587,587,1727910010235,0.97558594,0.19134521,-0.0960083,11.296875,4.21875,-3.328125
588,588,1727910010275,1.0058594,0.20135498,-0.07330322,5.671875,4.734375,-1.53125
589,589,1727910010315,0.99731445,0.20770264,-0.04937744,9.90625,0.109375,-0.984375
590,590,1727910010355,1.0522461,0.1708374,-0.078430176,14.21875,-6.65625,0.25
591,591,1727910010395,1.0266113,0.17327881,-0.116760254,14.640625,-2.0,-1.109375
592,592,1727910010435,1.0517578,0.13104248,-0.09039307,4.90625,2.890625,-1.65625
593,593,1727910010475,1.0192871,0.13690186,-0.07330322,7.359375,0.15625,-1.953125
594,594,1727910010515,1.0178223,0.097351074,-0.07208252,2.015625,-1.390625,-3.8125
595,595,1727910010555,0.98950195,0.12689209,-0.07598877,5.390625,-4.796875,-4.875
596,596,1727910010595,0.99365234,0.13787842,-0.053527832,-1.0,-7.40625,-5.03125
597,597,1727910010635,1.0251465,0.1281128,0.05340576,-6.71875,-6.90625,-7.71875
598,598,1727910010675,0.97021484,0.19158936,0.08026123,9.984375,-21.296875,-8.625
599,599,1727910010715,0.9567871,0.13128662,0.043151855,16.5,-37.359375,-6.9375
600,600,1727910010755,0.95581055,0.13665771,-0.11553955,13.390625,-16.359375,-8.640625
601,601,1727910010795,0.9082031,0.11029053,0.053649902,-3.53125,-3.109375,-6.234375
602,602,1727910010835,0.9038086,0.047790527,0.08270264,1.015625,3.1875,-5.734375
603,603,1727910010875,0.9133301,0.023132324,0.08831787,6.15625,0.8125,-9.578125
604,604,1727910010915,1.017334,0.04901123,0.0993042,0.0,-0.46875,-12.46875
605,605,1727910010955,1.0620117,0.15887451,0.11004639,6.25,11.5625,-11.15625
606,606,1727910010995,0.93725586,0.14398193,0.1408081,-3.25,9.359375,3.921875
607,607,1727910011035,0.88134766,-0.022277832,0.14984131,-12.78125,-13.609375,-4.640625
608,608,1727910011075,0.9460449,0.06317139,0.11224365,7.09375,-22.9375,1.28125
609,609,1727910011115,1.0070801,0.022155762,0.12005615,-1.40625,-13.03125,-2.53125
610,610,1727910011155,0.97314453,0.09197998,0.105407715,-0.828125,3.609375,1.421875
611,611,1727910011195,0.9562988,0.09564209,0.2411499,24.265625,0.375,9.578125
612,612,1727910011235,0.93481445,0.09173584,0.18109131,-18.15625,-13.34375,4.390625
613,613,1727910011275,0.9716797,0.0602417,0.1408081,3.6875,-5.796875,8.28125
614,614,1727910011315,0.9406738,0.13250732,0.25335693,4.28125,-3.859375,8.890625
615,615,1727910011355,0.9499512,0.09588623,0.18963623,-9.890625,-8.8125,7.03125
616,616,1727910011395,0.9382324,0.14031982,0.19769287,3.640625,-0.625,10.28125
617,617,1727910011435,0.91918945,0.12322998,0.27557373,0.46875,0.5,10.5625
618,618,1727910011475,0.8964844,0.14178467,0.22039795,-9.3125,-4.140625,7.53125
619,619,1727910011515,0.94750977,0.18963623,0.23358154,2.671875,0.15625,7.359375
620,620,1727910011555,0.93725586,0.15325928,0.24505615,-1.453125,-3.6875,6.9375
621,621,1727910011595,0.9440918,0.17938232,0.22894287,3.203125,-0.15625,5.875
622,622,1727910011635,0.9350586,0.20184326,0.25628662,2.734375,0.5625,7.328125
623,623,1727910011675,0.9238281,0.23944092,0.260437,0.546875,-0.265625,7.4375
624,624,1727910011715,0.90844727,0.21575928,0.25531006,4.984375,2.671875,7.359375
625,625,1727910011755,0.8996582,0.21844482,0.2880249,5.5,6.359375,6.21875
626,626,1727910011795,0.91259766,0.17791748,0.28704834,4.078125,-0.46875,2.9375
627,627,1727910011835,0.96875,0.1930542,0.3131714,10.84375,5.953125,2.046875
628,628,1727910011875,0.9379883,0.1906128,0.3295288,1.796875,4.390625,-1.609375
629,629,1727910011915,0.9355469,0.20257568,0.29803467,-3.65625,5.125,-1.546875
630,630,1727910011955,0.88623047,0.20111084,0.24285889,-6.0,5.140625,0.015625
631,631,1727910011995,0.87719727,0.22161865,0.25335693,-8.078125,8.4375,1.5
632,632,1727910012035,0.8991699,0.23406982,0.26531982,-7.1875,6.4375,0.5
633,633,1727910012075,0.923584,0.25286865,0.25531006,-8.296875,7.75,-0.515625
634,634,1727910012115,0.92163086,0.24578857,0.2477417,-10.875,5.21875,-0.15625
635,635,1727910012155,0.9511719,0.23968506,0.20501709,-10.8125,6.796875,-0.84375
636,636,1727910012195,0.93847656,0.26385498,0.17767334,-10.046875,9.21875,-0.359375
637,637,1727910012235,0.9338379,0.23187256,0.15570068,-7.046875,8.625,0.328125
638,638,1727910012275,0.95092773,0.22943115,0.11102295,-9.671875,9.0625,-1.875
639,639,1727910012315,0.8869629,0.2411499,0.08074951,-1.140625,9.640625,-0.5625
640,640,1727910012355,0.9104004,0.20721436,0.081726074,-9.15625,10.15625,1.1875
641,641,1727910012395,0.92285156,0.18939209,0.06829834,-1.4375,3.25,-2.515625
642,642,1727910012435,0.9655762,0.27581787,0.051452637,0.78125,2.546875,-4.1875
643,643,1727910012475,0.9904785,0.2633667,-0.003967285,0.109375,0.984375,0.609375
644,644,1727910012515,0.9711914,0.23187256,-0.06573486,6.5,0.578125,0.078125
645,645,1727910012555,1.067627,0.22064209,-0.08795166,-1.640625,5.6875,-2.0
646,646,1727910012595,1.1013184,0.22943115,-0.0044555664,-4.15625,11.265625,-1.1875
647,647,1727910012635,1.0605469,0.21282959,-0.012512207,6.421875,-0.796875,-0.296875
648,648,1727910012675,1.0664062,0.19256592,-0.0803833,5.078125,-7.46875,-1.953125
649,649,1727910012715,1.0100098,0.19281006,-0.0881958,5.734375,-8.203125,-0.671875
650,650,1727910012755,0.99975586,0.21551514,-0.085510254,4.296875,-10.3125,-1.203125
651,651,1727910012795,1.0148926,0.18719482,-0.086242676,6.609375,-14.28125,-1.1875
652,652,1727910012835,0.9807129,0.21844482,-0.046691895,-1.109375,-8.640625,-0.96875
653,653,1727910012875,0.9992676,0.14202881,-0.023742676,-0.875,-9.484375,-1.640625
654,654,1727910012915,0.9909668,0.11077881,-0.049621582,2.0625,-5.1875,-4.75
655,655,1727910012955,0.9423828,0.10736084,-0.03741455,2.421875,-4.09375,-5.0
656,656,1727910012995,0.923584,0.13372803,0.026550293,0.703125,-7.640625,-4.5
657,657,1727910013035,0.96191406,0.12249756,0.049987793,-0.90625,-13.984375,-6.234375
658,658,1727910013075,0.93359375,0.13104248,0.039245605,3.203125,-23.703125,-6.078125
659,659,1727910013115,0.9785156,0.14398193,0.026306152,2.875,-22.828125,-4.78125
660,660,1727910013155,0.9523926,0.15911865,0.070495605,3.203125,-12.1875,-2.09375
661,661,1727910013195,0.92626953,0.15374756,0.09124756,2.234375,-6.546875,2.046875
662,662,1727910013235,0.90527344,0.13690186,0.09881592,2.40625,1.015625,2.9375
663,663,1727910013275,0.9313965,0.12322998,0.0927124,-2.0,4.546875,5.609375
664,664,1727910013315,0.9707031,0.13616943,0.1071167,-0.515625,10.421875,5.375
665,665,1727910013355,1.0039062,0.25531006,0.3493042,37.109375,3.3125,15.859375
666,666,1727910013395,0.93481445,0.25164795,0.19793701,-30.078125,-16.46875,4.34375
667,667,1727910013435,0.9470215,0.17547607,0.08294678,11.21875,-4.875,6.25
668,668,1727910013475,0.90478516,0.22747803,0.2741089,17.921875,-2.78125,12.890625
669,669,1727910013515,0.8959961,0.24090576,0.2477417,-12.515625,-11.734375,1.265625
670,670,1727910013555,0.9260254,0.22845459,0.18035889,-2.203125,-3.9375,7.703125
671,671,1727910013595,0.9121094,0.24871826,0.28533936,0.40625,1.109375,9.75
672,672,1727910013635,0.9321289,0.27264404,0.2748413,-8.515625,-4.9375,4.234375
673,673,1727910013675,0.9104004,0.27801514,0.22064209,-1.546875,-2.15625,3.203125
674,674,1727910013715,0.8964844,0.30218506,0.24847412,-0.484375,-1.109375,5.046875
675,675,1727910013755,0.91918945,0.3131714,0.2518921,-1.625,-1.640625,4.140625
676,676,1727910013795,0.92871094,0.30926514,0.2970581,4.09375,0.515625,5.546875
677,677,1727910013835,0.8666992,0.29852295,0.26727295,-7.234375,-1.390625,1.453125
678,678,1727910013875,0.8874512,0.29144287,0.21795654,-3.03125,0.296875,2.234375
679,679,1727910013915,0.9152832,0.29144287,0.2819214,3.9375,6.3125,2.921875
680,680,1727910013955,0.9111328,0.26654053,0.32391357,-3.015625,3.203125,-1.5
681,681,1727910013995,0.9074707,0.27215576,0.26409912,-7.328125,1.921875,-5.171875
682,682,1727910014035,0.89624023,0.2909546,0.277771,-1.515625,4.1875,-3.71875
683,683,1727910014075,0.8745117,0.2880249,0.25946045,-11.671875,-0.578125,-4.78125
684,684,1727910014115,0.86987305,0.29925537,0.21160889,-12.328125,3.4375,-3.078125
685,685,1727910014155,0.8823242,0.30584717,0.2579956,-7.53125,5.6875,-2.25
686,686,1727910014195,0.90527344,0.291687,0.22235107,-15.640625,3.265625,-5.171875
687,687,1727910014235,0.96069336,0.35076904,0.23675537,-8.015625,9.15625,-4.890625
688,688,1727910014275,0.9382324,0.30682373,0.24627686,-9.0625,9.296875,-3.796875
689,689,1727910014315,0.8684082,0.23114014,0.11395264,-5.953125,4.328125,-12.578125
690,690,1727910014355,0.9121094,0.3139038,0.1281128,-9.671875,9.5,-8.390625
691,691,1727910014395,0.939209,0.25360107,0.11785889,-4.71875,9.140625,-5.703125
692,692,1727910014435,0.9123535,0.2543335,0.121032715,-0.765625,10.390625,-4.203125
693,693,1727910014475,0.89868164,0.22625732,0.11199951,2.015625,8.40625,-5.3125
694,694,1727910014515,0.85595703,0.23114014,0.10809326,2.9375,2.90625,-5.859375
695,695,1727910014555,0.94873047,0.22723389,0.10028076,3.953125,-3.5625,-5.859375
696,696,1727910014595,0.94628906,0.2374878,0.09442139,6.078125,-8.78125,-4.0625
697,697,1727910014635,0.9663086,0.22650146,0.08660889,6.953125,-10.59375,-2.890625
698,698,1727910014675,1.0214844,0.20062256,-0.023498535,15.671875,2.890625,-2.015625
699,699,1727910014715,1.0209961,0.19012451,0.04144287,-3.78125,17.265625,-0.75
700,700,1727910014755,1.0390625,0.19329834,0.07293701,4.53125,16.4375,-0.296875
701,701,1727910014795,1.0898438,0.15252686,0.05609131,0.375,13.25,-0.171875
702,702,1727910014835,1.0961914,0.11566162,0.04901123,6.09375,-1.4375,-1.390625
703,703,1727910014875,1.0588379,0.168396,-0.009338379,6.9375,-11.171875,-3.9375
704,704,1727910014915,0.99194336,0.168396,-0.078186035,3.671875,-17.5,-0.6875
705,705,1727910014955,1.0412598,0.1486206,-0.077697754,7.703125,-14.6875,-1.703125
706,706,1727910014995,1.0205078,0.199646,-0.031311035,3.140625,-7.15625,-3.8125
707,707,1727910015035,1.0058594,0.12420654,-0.036193848,-1.15625,-2.390625,-1.796875
708,708,1727910015075,0.986084,0.06951904,-0.03253174,-6.171875,3.84375,-2.640625
709,709,1727910015115,0.9213867,0.062438965,0.00018310547,-2.40625,1.859375,-4.78125
710,710,1727910015155,0.95703125,0.061706543,0.030456543,-5.03125,-6.15625,-8.984375
711,711,1727910015195,0.9868164,0.13079834,0.035827637,-5.46875,-15.15625,-10.328125
712,712,1727910015235,0.93237305,0.13665771,0.0067749023,-4.84375,-27.359375,-4.546875
713,713,1727910015275,0.9719238,0.12005615,-0.0051879883,-0.125,-22.90625,-5.484375
714,714,1727910015315,0.9650879,0.11419678,-0.0115356445,4.4375,-10.171875,-3.984375
715,715,1727910015355,0.97143555,0.14422607,0.06732178,0.390625,4.921875,-6.265625
716,716,1727910015395,0.9301758,0.14471436,0.070495605,2.5,1.5625,0.390625
717,717,1727910015435,0.939209,0.066101074,0.08392334,3.125,0.625,1.703125
718,718,1727910015475,0.89941406,0.062438965,0.08270264,1.859375,-4.625,-1.359375
719,719,1727910015515,0.9946289,0.0692749,0.1083374,3.734375,-9.171875,-0.875
720,720,1727910015555,1.079834,0.093933105,0.12957764,-1.46875,6.53125,0.28125
721,721,1727910015595,0.9824219,0.13446045,0.12542725,-5.0,20.609375,4.78125
722,722,1727910015635,0.8959961,0.017028809,0.2970581,11.296875,-11.09375,8.53125
723,723,1727910015675,0.93725586,0.07269287,0.1473999,-19.59375,-26.125,-2.046875
724,724,1727910015715,0.90649414,0.09710693,0.11004639,-3.125,-13.796875,-0.78125
725,725,1727910015755,0.90063477,0.21282959,0.20648193,10.046875,-2.296875,6.46875
726,726,1727910015795,0.94873047,0.10418701,0.23602295,-4.96875,-4.0625,8.09375
727,727,1727910015835,0.9379883,0.12884521,0.23382568,2.625,-5.3125,3.78125
728,728,1727910015875,0.93652344,0.15301514,0.25775146,0.40625,-5.125,3.296875
729,729,1727910015915,0.9091797,0.1876831,0.21600342,-3.296875,-1.578125,4.765625
730,730,1727910015955,0.91137695,0.17889404,0.27215576,5.25,3.109375,9.84375
731,731,1727910015995,0.90234375,0.17303467,0.2802124,-3.5625,1.0,6.609375
732,732,1727910016035,0.8911133,0.2140503,0.2531128,-1.75,5.03125,6.40625
733,733,1727910016075,0.8937988,0.24749756,0.2748413,-1.625,4.671875,6.265625
734,734,1727910016115,0.9436035,0.215271,0.33538818,3.40625,7.90625,6.90625
735,735,1727910016155,0.9680176,0.16082764,0.37493896,-5.609375,1.875,4.328125
736,736,1727910016195,0.94750977,0.21038818,0.28582764,-6.71875,0.3125,-2.25
737,737,1727910016235,0.89868164,0.1876831,0.27801514,-1.453125,4.5,-1.546875
738,738,1727910016275,0.87939453,0.16546631,0.2526245,-9.265625,3.078125,-4.640625
739,739,1727910016315,0.8779297,0.21966553,0.23260498,-10.109375,7.15625,-4.53125
740,740,1727910016355,0.83251953,0.23309326,0.23138428,-15.53125,8.75,-4.421875
741,741,1727910016395,0.8984375,0.24383545,0.22625732,-13.625,10.609375,-3.375
742,742,1727910016435,0.91748047,0.2814331,0.24798584,-10.28125,13.578125,-3.015625
743,743,1727910016475,0.98828125,0.24945068,0.21697998,3.234375,15.046875,-3.109375
744,744,1727910016515,1.0029297,0.1954956,0.1828003,-4.171875,11.453125,-6.796875
745,745,1727910016555,0.9172363,0.23504639,0.06903076,-10.484375,7.890625,-7.84375
746,746,1727910016595,0.93115234,0.24285889,0.03778076,-10.96875,12.109375,0.703125
747,747,1727910016635,0.89868164,0.16448975,0.081970215,0.34375,11.0,-3.703125
748,748,1727910016675,0.90649414,0.17767334,0.08050537,7.234375,3.25,-5.328125
749,749,1727910016715,1.0405273,0.21673584,0.020935059,21.34375,2.390625,-3.515625
750,750,1727910016755,1.0358887,0.21429443,-0.011779785,0.109375,16.890625,-0.8125
751,751,1727910016795,1.034668,0.1954956,-0.0029907227,1.984375,21.71875,1.59375
752,752,1727910016835,1.0744629,0.124694824,-0.0005493164,6.078125,13.34375,3.609375
753,753,1727910016875,1.0129395,0.13739014,-0.06915283,7.546875,5.734375,1.75
754,754,1727910016915,1.0234375,0.11199951,-0.14630127,6.25,3.921875,-0.953125
755,755,1727910016955,0.97998047,0.12322998,-0.19146729,3.0,3.96875,-0.375
756,756,1727910016995,1.0183105,0.06439209,-0.20123291,-4.1875,3.578125,1.6875
757,757,1727910017035,0.9970703,0.13153076,-0.1560669,-6.734375,-0.015625,-0.40625
758,758,1727910017075,0.96972656,0.18475342,-0.2053833,-2.0625,-8.109375,-0.140625
759,759,1727910017115,1.0285645,0.13543701,-0.255188,-3.3125,-10.4375,-1.9375
