,Unnamed: 0,timestamp,accel_x,accel_y,accel_z,gyro_x,gyro_y,gyro_z
0,0,1727462092291,0.38256836,0.9244995,0.26385498,0.890625,0.46875,-0.1875
1,1,1727462092331,0.3852539,0.9052124,0.2880249,-0.5625,-1.28125,0.59375
2,2,1727462092371,0.41259766,0.9100952,0.30218506,8.890625,-5.84375,0.0
3,3,1727462092411,0.4025879,0.96209717,0.1930542,2.125,-2.9375,5.828125
4,4,1727462092451,0.4272461,0.8661499,0.28656006,-2.25,-2.8125,5.515625
5,5,1727462092491,0.4074707,0.91937256,0.26776123,-0.046875,-10.140625,6.75
6,6,1727462092531,0.3449707,0.9242554,0.32489014,0.421875,-1.015625,5.875
7,7,1727462092571,0.43579102,0.9244995,0.28948975,8.328125,-10.34375,7.890625
8,8,1727462092611,0.39160156,0.87420654,0.24993896,-1.6875,-3.21875,4.046875
9,9,1727462092651,0.3725586,0.9015503,0.3373413,-3.984375,-3.0,2.078125
10,10,1727462092691,0.3713379,0.887146,0.28704834,0.8125,-4.546875,1.375
11,11,1727462092731,0.37890625,0.89471436,0.32635498,-2.65625,0.703125,0.734375
12,12,1727462092771,0.45483398,0.9310913,0.33099365,4.359375,-5.921875,0.796875
13,13,1727462092811,0.43847656,0.8829956,0.24334717,-1.984375,-1.25,-0.53125
14,14,1727462092851,0.3544922,0.8661499,0.33709717,-4.0625,-1.921875,0.828125
15,15,1727462092891,0.3828125,0.8278198,0.29656982,7.671875,-9.4375,2.90625
16,16,1727462092931,0.3947754,0.9520874,0.2843628,4.8125,1.90625,2.09375
17,17,1727462092971,0.14038086,1.0636597,0.15057373,17.4375,8.34375,0.859375
18,18,1727462093011,-0.16040039,0.9320679,0.291687,-20.203125,9.515625,16.390625
19,19,1727462093051,0.140625,1.1559448,0.57244873,-2.8125,1.15625,32.078125
20,20,1727462093091,0.31835938,1.1659546,0.44866943,11.140625,14.015625,5.484375
21,21,1727462093131,0.072509766,1.0565796,0.27801514,1.859375,4.984375,6.265625
22,22,1727462093171,0.29785156,0.932312,0.37347412,-14.6875,-1.171875,7.71875
23,23,1727462093211,0.31713867,0.86834717,0.46258545,1.640625,1.390625,-5.09375
24,24,1727462093251,0.3322754,0.88031006,0.1942749,5.8125,-12.3125,-9.21875
25,25,1727462093291,0.068603516,1.0631714,0.20379639,-0.125,-1.390625,-10.609375
26,26,1727462093331,-0.019042969,1.1132202,0.43377686,3.109375,9.984375,2.609375
27,27,1727462093371,0.27197266,0.8817749,0.28167725,6.328125,-3.34375,6.203125
28,28,1727462093411,0.36621094,0.7941284,0.10882568,5.640625,10.390625,-9.03125
29,29,1727462093451,0.20922852,1.0158081,0.1642456,-7.109375,17.5,-15.15625
30,30,1727462093491,0.29956055,0.99554443,0.4328003,-13.453125,8.875,-5.75
31,31,1727462093531,0.45361328,0.8810425,0.23236084,17.859375,-13.328125,-4.515625
32,32,1727462093571,0.28686523,0.86883545,0.066345215,-10.03125,-0.75,-9.828125
33,33,1727462093611,0.5136719,0.97991943,0.35101318,-8.03125,-6.53125,-2.65625
34,34,1727462093651,0.359375,1.0075073,0.11834717,5.59375,-4.90625,-11.0
35,35,1727462093691,0.28051758,0.99017334,0.29925537,-6.375,-0.84375,-1.96875
36,36,1727462093731,0.35253906,0.8981323,0.23846436,6.96875,-6.96875,-0.046875
37,37,1727462093771,0.4345703,0.86761475,0.2880249,-4.46875,-1.390625,-3.8125
38,38,1727462093811,0.33789062,0.94281006,0.30682373,5.5,-5.65625,-2.015625
39,39,1727462093851,0.40893555,0.9118042,0.28363037,7.59375,0.109375,3.015625
40,40,1727462093891,0.44628906,0.9076538,0.20355225,4.78125,-3.359375,-1.4375
41,41,1727462093931,0.3828125,0.84490967,0.2802124,-3.5,3.828125,0.59375
42,42,1727462093971,0.40063477,0.83709717,0.2567749,11.671875,3.546875,-0.296875
43,43,1727462094011,0.4711914,0.8397827,0.25213623,3.125,3.140625,0.578125
44,44,1727462094051,0.33398438,0.79437256,0.2592163,6.3125,-0.609375,0.03125
45,45,1727462094091,0.15820312,0.8805542,0.21624756,2.96875,4.484375,5.5625
46,46,1727462094131,-0.0146484375,0.9891968,0.26556396,-12.453125,12.921875,16.734375
47,47,1727462094171,0.32592773,1.1132202,0.61224365,-9.15625,12.296875,20.703125
48,48,1727462094211,0.5058594,1.1703491,0.27972412,24.734375,1.984375,-1.84375
49,49,1727462094251,0.15234375,1.194519,0.21453857,-19.921875,12.578125,-0.890625
50,50,1727462094291,0.32421875,1.1278687,0.62713623,-20.65625,2.125,11.515625
51,51,1727462094331,0.21826172,0.90838623,0.24847412,24.1875,-5.4375,7.171875
52,52,1727462094371,0.13452148,0.87371826,0.15496826,-9.25,4.625,6.53125
53,53,1727462094411,0.25268555,0.91400146,0.37615967,-5.265625,6.140625,0.234375
54,54,1727462094451,0.38012695,1.0214233,0.3078003,-5.03125,-3.09375,-4.40625
55,55,1727462094491,0.31298828,1.0060425,0.20892334,3.546875,-13.875,-10.59375
56,56,1727462094531,0.09643555,0.98724365,0.22747803,-8.609375,-9.71875,-2.5625
57,57,1727462094571,0.2253418,0.93255615,0.371521,2.328125,-9.78125,3.578125
58,58,1727462094611,0.2890625,0.9328003,0.2658081,15.140625,-3.625,-6.3125
59,59,1727462094651,0.24121094,0.916687,0.22821045,-2.734375,-1.859375,-7.734375
60,60,1727462094691,0.37158203,0.9086304,0.3078003,-1.71875,-6.671875,-7.5
61,61,1727462094731,0.44262695,0.88397217,0.23529053,1.375,-7.109375,-12.171875
62,62,1727462094771,0.4284668,0.946228,0.21209717,-1.40625,-16.71875,-8.453125
63,63,1727462094811,0.32666016,0.9520874,0.25604248,-4.78125,-12.90625,-6.140625
64,64,1727462094851,0.40039062,0.9291382,0.30828857,-0.84375,-15.71875,-1.1875
65,65,1727462094891,0.36743164,0.8756714,0.19720459,1.90625,-8.09375,-3.1875
66,66,1727462094931,0.32641602,0.89056396,0.29241943,-2.8125,-6.609375,-3.421875
67,67,1727462094971,0.3503418,0.91986084,0.30218506,6.40625,-7.859375,-1.8125
68,68,1727462095011,0.38989258,0.8903198,0.26409912,-2.296875,2.125,0.734375
69,69,1727462095051,0.40307617,0.87786865,0.30023193,2.609375,-2.3125,-0.828125
70,70,1727462095091,0.4465332,0.8644409,0.28753662,0.40625,-0.4375,-1.84375
71,71,1727462095131,0.4309082,0.8600464,0.2682495,0.21875,-1.390625,-1.390625
72,72,1727462095171,0.4152832,0.85809326,0.32562256,-1.171875,-1.1875,0.390625
73,73,1727462095211,0.36132812,0.80023193,0.23944092,5.421875,-0.65625,-0.703125
74,74,1727462095251,0.23852539,0.80682373,0.25653076,1.75,7.59375,2.4375
75,75,1727462095291,0.084472656,1.0101929,0.22528076,17.890625,21.15625,6.21875
76,76,1727462095331,0.1706543,1.2238159,0.4430542,-17.40625,30.09375,16.28125
77,77,1727462095371,0.3857422,1.1278687,0.5463257,16.90625,-0.671875,8.078125
78,78,1727462095411,0.33496094,1.1520386,0.12322998,3.640625,11.109375,4.4375
79,79,1727462095451,0.21850586,1.0975952,0.38641357,-18.21875,24.84375,6.703125
80,80,1727462095491,0.2512207,0.9723511,0.4352417,7.03125,-4.140625,11.0625
81,81,1727462095531,0.19482422,0.81829834,0.18499756,1.484375,1.78125,6.0625
82,82,1727462095571,0.15991211,0.8788452,0.35784912,-5.046875,1.75,3.359375
83,83,1727462095611,0.18823242,0.92474365,0.3439331,-0.171875,-3.78125,2.71875
84,84,1727462095651,0.42163086,0.99432373,0.32977295,3.546875,-8.203125,-4.4375
85,85,1727462095691,0.099365234,1.0643921,0.19451904,7.3125,-8.53125,-3.453125
86,86,1727462095731,0.21459961,0.94403076,0.38861084,-1.921875,-1.890625,8.0625
87,87,1727462095771,0.43554688,0.88739014,0.17059326,10.96875,-4.1875,-5.078125
88,88,1727462095811,0.2199707,0.95184326,0.19354248,-7.703125,3.875,-8.3125
89,89,1727462095851,0.35424805,0.9882202,0.3390503,4.03125,5.9375,-3.25
90,90,1727462095891,0.33544922,0.8915405,0.19134521,4.140625,-2.921875,-9.78125
91,91,1727462095931,0.3515625,0.9345093,0.22064209,-4.140625,1.265625,0.5
92,92,1727462095971,0.39208984,0.98358154,0.25506592,-0.75,-6.5625,-5.28125
93,93,1727462096011,0.39575195,0.8390503,0.19525146,-7.578125,-5.765625,-5.84375
94,94,1727462096051,0.3408203,0.95477295,0.30975342,0.265625,-4.359375,-1.71875
95,95,1727462096091,0.3425293,0.9254761,0.22528076,2.5625,-0.734375,1.078125
96,96,1727462096131,0.36206055,0.91400146,0.3102417,-0.984375,2.1875,2.203125
97,97,1727462096171,0.3190918,0.9279175,0.31658936,8.78125,5.765625,2.421875
98,98,1727462096211,0.4194336,0.8825073,0.2567749,7.921875,11.375,4.359375
99,99,1727462096251,0.50390625,0.852478,0.23431396,0.71875,7.15625,-2.8125
100,100,1727462096291,0.44580078,0.91693115,0.2819214,1.09375,3.484375,-2.78125
101,101,1727462096331,0.42333984,0.86639404,0.17767334,4.3125,-1.734375,-2.046875
102,102,1727462096371,0.34057617,0.84246826,0.14666748,-3.859375,-1.90625,-4.609375
103,103,1727462096411,0.1965332,0.901062,0.23162842,-1.1875,3.25,-0.578125
104,104,1727462096451,0.02758789,0.8685913,0.17596436,0.0625,2.28125,7.953125
105,105,1727462096491,-0.034423828,0.8668823,0.35931396,-21.5,8.921875,18.203125
106,106,1727462096531,0.6315918,1.2059937,0.59783936,-7.859375,10.515625,16.296875
107,107,1727462096571,0.45214844,1.2697144,0.24847412,10.0,-0.59375,-12.828125
108,108,1727462096611,0.11791992,1.2750854,0.32537842,-21.1875,-5.375,4.84375
109,109,1727462096651,0.47387695,0.9887085,0.5026245,9.9375,-17.015625,9.09375
110,110,1727462096691,0.23486328,0.7435913,0.058776855,9.71875,-22.15625,-9.046875
111,111,1727462096731,0.122558594,0.8410034,0.2819214,-31.796875,-10.578125,-8.5
112,112,1727462096771,0.47021484,1.1098022,0.5338745,6.78125,-13.6875,-7.421875
113,113,1727462096811,0.115478516,1.0424194,0.09686279,22.59375,-19.0625,-19.609375
114,114,1727462096851,0.012939453,0.9320679,0.2789917,-17.03125,-11.375,8.09375
115,115,1727462096891,0.55322266,0.87542725,0.35198975,10.046875,-15.953125,1.25
116,116,1727462096931,0.28857422,0.8461304,-0.024230957,5.5625,-12.0,-14.890625
117,117,1727462096971,0.34204102,1.0160522,0.230896,-22.515625,9.0625,-7.140625
118,118,1727462097011,0.43432617,1.0162964,0.3078003,9.484375,-7.109375,-7.25
119,119,1727462097051,0.2788086,0.82684326,0.07366943,0.453125,-7.390625,-5.125
120,120,1727462097091,0.3720703,0.90252686,0.23284912,-6.75,1.90625,-2.265625
121,121,1727462097131,0.3486328,0.90057373,0.22625732,1.421875,1.953125,-6.015625
122,122,1727462097171,0.39672852,0.91693115,0.24749756,-1.125,-0.8125,-1.78125
123,123,1727462097211,0.4597168,0.94573975,0.28118896,0.734375,1.203125,-0.875
124,124,1727462097251,0.41601562,0.94818115,0.26263428,3.109375,-3.6875,-1.3125
125,125,1727462097291,0.38549805,0.89105225,0.25750732,1.0625,-0.59375,2.03125
126,126,1727462097331,0.41625977,0.86834717,0.276062,4.25,2.90625,0.984375
127,127,1727462097371,0.49780273,0.90448,0.25213623,1.5,-0.484375,0.875
128,128,1727462097411,0.34643555,0.8624878,0.19158936,3.625,-1.15625,0.71875
129,129,1727462097451,0.38330078,0.8641968,0.24847412,5.234375,4.53125,5.453125
130,130,1727462097491,0.4182129,0.80340576,0.24334717,1.453125,4.71875,4.15625
131,131,1727462097531,0.33911133,0.78240967,0.27142334,6.84375,-0.453125,4.25
132,132,1727462097571,0.36645508,0.9833374,0.2880249,15.640625,14.265625,1.703125
133,133,1727462097611,0.3828125,1.0646362,0.338562,-6.140625,18.96875,3.03125
134,134,1727462097651,0.19482422,1.0582886,0.37835693,9.78125,-21.140625,9.4375
135,135,1727462097691,0.20166016,0.9628296,0.3817749,6.484375,-5.09375,11.390625
136,136,1727462097731,0.3137207,0.93133545,0.2682495,-0.8125,6.09375,10.375
137,137,1727462097771,0.30249023,1.008728,0.37615967,-8.609375,9.21875,2.359375
138,138,1727462097811,0.22485352,1.0480347,0.43719482,-3.890625,1.421875,4.53125
139,139,1727462097851,0.24902344,0.95184326,0.34344482,2.390625,-0.28125,6.84375
140,140,1727462097891,0.21777344,0.9244995,0.37347412,-2.859375,1.453125,4.0
141,141,1727462097931,0.24169922,0.9105835,0.3234253,1.0625,2.015625,1.578125
142,142,1727462097971,0.27441406,0.9164429,0.3468628,-5.25,-1.609375,-1.71875
143,143,1727462098011,0.2541504,0.92230225,0.35687256,-5.453125,-3.59375,-4.140625
144,144,1727462098051,0.4033203,0.9904175,0.37713623,-0.34375,-8.515625,-4.640625
145,145,1727462098091,0.30566406,0.98431396,0.1605835,7.109375,-15.296875,-8.84375
146,146,1727462098131,0.20996094,0.9606323,0.20892334,-10.359375,-4.578125,-8.171875
147,147,1727462098171,0.4970703,0.97210693,0.13201904,-8.71875,-8.0,-5.265625
148,148,1727462098211,0.3046875,0.96868896,0.18426514,-13.140625,-5.78125,-13.0
149,149,1727462098251,0.30444336,1.0067749,0.27801514,-0.203125,-6.484375,-3.296875
150,150,1727462098291,0.45263672,0.87420654,0.15692139,-2.84375,-6.3125,-3.265625
151,151,1727462098331,0.33081055,0.8480835,0.116882324,-9.09375,-7.75,-6.09375
152,152,1727462098371,0.29418945,0.9760132,0.25164795,-3.984375,2.453125,-2.140625
153,153,1727462098411,0.41308594,0.9706421,0.22991943,6.1875,1.953125,0.03125
154,154,1727462098451,0.3779297,0.92303467,0.19696045,-0.625,0.671875,1.703125
155,155,1727462098491,0.38110352,0.9237671,0.2675171,1.90625,3.015625,2.40625
156,156,1727462098531,0.47265625,0.87957764,0.15692139,6.21875,1.578125,1.078125
157,157,1727462098571,0.39892578,0.8847046,0.17156982,-0.875,7.5625,-1.046875
158,158,1727462098611,0.4013672,0.8488159,0.2567749,6.625,2.890625,0.921875
159,159,1727462098651,0.31640625,0.81707764,0.21673584,14.015625,1.296875,1.171875
160,160,1727462098691,0.23217773,0.93914795,0.23944092,18.0,13.671875,3.4375
161,161,1727462098731,0.34228516,0.97821045,0.26556396,4.75,18.515625,3.984375
162,162,1727462098771,0.37060547,0.9945679,0.37420654,-1.15625,-3.875,2.0625
163,163,1727462098811,0.27563477,0.99823,0.3756714,12.328125,-15.515625,3.4375
164,164,1727462098851,0.2866211,1.0214233,0.30682373,10.65625,-6.296875,6.609375
165,165,1727462098891,0.2644043,1.0040894,0.3793335,0.625,-5.109375,4.625
166,166,1727462098931,0.19506836,1.0021362,0.387146,7.265625,-6.9375,9.53125
167,167,1727462098971,0.1328125,0.9677124,0.3234253,4.109375,0.375,12.0
168,168,1727462099011,0.2775879,0.9923706,0.43548584,-4.40625,11.796875,10.234375
169,169,1727462099051,0.24658203,0.9594116,0.38006592,1.5625,6.953125,5.5625
170,170,1727462099091,0.28100586,0.9406128,0.35394287,-10.046875,6.234375,5.9375
171,171,1727462099131,0.28515625,0.92767334,0.4257202,-8.453125,2.671875,1.921875
172,172,1727462099171,0.24511719,0.8781128,0.3463745,-2.421875,-1.46875,-1.03125
173,173,1727462099211,0.23852539,0.9137573,0.39031982,-8.796875,-2.265625,-4.96875
174,174,1727462099251,0.2800293,0.97406006,0.39959717,3.84375,-14.40625,-0.640625
175,175,1727462099291,0.2553711,0.99383545,0.19158936,8.4375,-4.515625,-6.0
176,176,1727462099331,0.17041016,1.0619507,0.3336792,3.5625,5.359375,-2.09375
177,177,1727462099371,0.41308594,0.977478,0.2892456,12.609375,-1.703125,-2.578125
178,178,1727462099411,0.40551758,0.8956909,0.21136475,-3.90625,-1.28125,-9.28125
179,179,1727462099451,0.35302734,0.92108154,0.28704834,-0.734375,-4.34375,-7.203125
180,180,1727462099491,0.37817383,0.9100952,0.24993896,2.59375,-1.34375,-8.53125
181,181,1727462099531,0.35424805,0.8944702,0.20794678,0.0625,-11.015625,-6.4375
182,182,1727462099571,0.36523438,0.9130249,0.19036865,-6.84375,-1.6875,-4.671875
183,183,1727462099611,0.35668945,0.93304443,0.24676514,-7.84375,-1.34375,-5.4375
184,184,1727462099651,0.4206543,0.91815186,0.19134521,-7.25,-1.90625,-3.640625
185,185,1727462099691,0.4453125,0.9244995,0.28778076,-12.984375,-3.625,-3.296875
186,186,1727462099731,0.46948242,0.94281006,0.2687378,-3.796875,-16.71875,-2.734375
187,187,1727462099771,0.36767578,0.89959717,0.24456787,-4.25,-11.875,0.09375
188,188,1727462099811,0.39892578,0.88568115,0.2772827,-3.375,-9.78125,3.046875
189,189,1727462099851,0.40600586,0.8383179,0.23529053,-3.109375,-8.203125,1.0625
190,190,1727462099891,0.3720703,0.8444214,0.2897339,0.3125,-4.03125,-0.515625
191,191,1727462099931,0.32861328,0.838562,0.26849365,6.421875,-4.546875,1.203125
192,192,1727462099971,0.22241211,0.89276123,0.19818115,10.625,7.265625,3.0
193,193,1727462100011,0.23413086,0.8991089,0.23406982,-6.296875,14.609375,5.453125
194,194,1727462100051,0.12963867,0.9747925,0.28167725,-2.75,3.4375,8.4375
195,195,1727462100091,0.12988281,1.1539917,0.48114014,-1.96875,9.25,12.140625
196,196,1727462100131,0.40844727,1.1622925,0.3866577,9.203125,6.265625,8.515625
197,197,1727462100171,0.28295898,1.1520386,0.27313232,-0.75,4.8125,1.078125
198,198,1727462100211,0.2956543,1.149353,0.48944092,-1.296875,4.46875,7.234375
199,199,1727462100251,0.2331543,0.9735718,0.32781982,9.859375,-2.6875,5.875
200,200,1727462100291,0.17529297,0.869812,0.2946167,2.515625,-0.703125,3.875
201,201,1727462100331,0.15527344,0.8488159,0.324646,-2.15625,1.484375,3.671875
202,202,1727462100371,0.19238281,0.852478,0.32244873,0.6875,6.03125,2.328125
203,203,1727462100411,0.22094727,0.93914795,0.37176514,-0.265625,10.234375,-1.703125
204,204,1727462100451,0.47607422,1.0045776,0.36419678,5.65625,0.984375,-6.296875
205,205,1727462100491,0.3569336,0.9923706,0.09515381,8.09375,-7.296875,-16.234375
206,206,1727462100531,0.06689453,0.94647217,0.20111084,-7.90625,9.453125,-3.796875
207,207,1727462100571,0.44628906,0.9816284,0.37469482,0.0,7.5625,-0.46875
208,208,1727462100611,0.3803711,0.95184326,0.19110107,15.234375,-4.640625,-5.890625
209,209,1727462100651,0.36108398,0.9484253,0.20404053,-7.0,2.09375,-4.28125
210,210,1727462100691,0.39624023,0.9203491,0.28826904,-7.921875,-4.9375,-4.984375
211,211,1727462100731,0.34350586,0.9520874,0.22698975,1.828125,-7.265625,-1.84375
212,212,1727462100771,0.3083496,0.934021,0.22576904,-1.046875,-0.03125,0.203125
213,213,1727462100811,0.33520508,0.9076538,0.18353271,-4.65625,-5.4375,1.65625
214,214,1727462100851,0.31030273,0.90618896,0.2243042,-8.546875,3.53125,3.46875
215,215,1727462100891,0.38378906,0.9266968,0.28216553,-3.953125,3.0,3.203125
216,216,1727462100931,0.3779297,0.9242554,0.22454834,1.359375,2.53125,2.59375
217,217,1727462100971,0.3630371,0.8932495,0.25115967,3.3125,8.484375,3.9375
218,218,1727462101011,0.39379883,0.8253784,0.27752686,6.3125,12.328125,-0.140625
219,219,1727462101051,0.37402344,0.89056396,0.3475952,18.1875,10.984375,-4.421875
220,220,1727462101091,0.24536133,0.8878784,0.1954956,17.046875,15.640625,-4.0625
221,221,1727462101131,0.072265625,1.001648,0.33099365,-4.328125,4.6875,6.265625
222,222,1727462101171,0.3137207,1.0636597,0.38006592,10.25,4.265625,9.515625
223,223,1727462101211,0.26489258,1.0787964,0.27264404,6.109375,17.21875,0.390625
224,224,1727462101251,0.3791504,1.0770874,0.35321045,-6.453125,10.5,4.0625
225,225,1727462101291,0.34814453,1.0021362,0.37860107,5.328125,1.921875,-0.59375
226,226,1727462101331,0.26245117,0.99749756,0.3366089,0.015625,2.421875,4.546875
227,227,1727462101371,0.30615234,0.899353,0.36834717,-0.359375,1.171875,2.421875
228,228,1727462101411,0.20263672,0.81585693,0.30413818,0.75,-3.84375,-0.359375
229,229,1727462101451,0.22583008,0.857605,0.3143921,-7.796875,3.0,-0.4375
230,230,1727462101491,0.40405273,1.0551147,0.3703003,-1.796875,2.5625,-3.890625
231,231,1727462101531,0.31347656,1.0497437,0.19451904,6.109375,-12.703125,-7.90625
232,232,1727462101571,0.1430664,0.8641968,0.20257568,-3.703125,-11.296875,6.296875
233,233,1727462101611,0.49780273,0.8751831,0.22088623,3.140625,5.828125,6.9375
234,234,1727462101651,0.3713379,0.97991943,0.18475342,-1.203125,3.875,-9.046875
235,235,1727462101691,0.38476562,1.0817261,0.29241943,-4.1875,-0.375,0.453125
236,236,1727462101731,0.44555664,0.96698,0.2255249,2.15625,-4.59375,-1.453125
237,237,1727462101771,0.35864258,0.8981323,0.19378662,-5.34375,1.828125,-4.546875
238,238,1727462101811,0.33569336,0.9159546,0.23431396,-6.234375,-1.53125,-1.328125
239,239,1727462101851,0.3569336,0.8969116,0.21234131,-1.90625,-0.515625,-1.375
240,240,1727462101891,0.40307617,0.91156006,0.20184326,1.21875,-1.953125,-0.109375
241,241,1727462101931,0.37158203,0.89886475,0.17279053,0.546875,-1.09375,-0.59375
242,242,1727462101971,0.38232422,0.8930054,0.22064209,0.0,0.796875,1.1875
243,243,1727462102011,0.38256836,0.8522339,0.19378662,3.4375,2.75,1.25
244,244,1727462102051,0.30737305,0.83099365,0.20550537,5.03125,6.3125,0.875
245,245,1727462102091,0.29589844,0.86712646,0.25335693,7.671875,12.578125,2.90625
246,246,1727462102131,0.41918945,1.0092163,0.25408936,5.890625,13.609375,-0.4375
247,247,1727462102171,0.21899414,1.0253296,0.2687378,0.453125,4.53125,3.5
248,248,1727462102211,0.2241211,1.015564,0.34588623,0.625,0.140625,8.203125
249,249,1727462102251,0.3474121,1.046814,0.37493896,10.1875,3.3125,6.34375
250,250,1727462102291,0.32885742,1.0065308,0.2423706,0.984375,4.109375,4.875
251,251,1727462102331,0.30615234,1.0536499,0.37225342,-0.640625,4.765625,2.390625
252,252,1727462102371,0.2397461,1.0482788,0.36102295,3.15625,0.8125,5.1875
253,253,1727462102411,0.25439453,0.93670654,0.33319092,-0.203125,2.859375,4.1875
254,254,1727462102451,0.16040039,0.91033936,0.33416748,3.640625,4.09375,2.75
255,255,1727462102491,0.24169922,0.8397827,0.31585693,-1.109375,3.75,5.515625
256,256,1727462102531,0.24707031,0.809021,0.2584839,0.296875,1.828125,-3.25
257,257,1727462102571,0.28686523,0.9413452,0.37005615,-3.34375,-3.328125,-4.109375
258,258,1727462102611,0.53271484,1.1481323,0.32635498,15.71875,-1.453125,-10.0625
259,259,1727462102651,0.14404297,1.0394897,0.2062378,8.046875,-10.109375,-5.734375
260,260,1727462102691,0.43896484,0.85980225,0.3007202,-4.109375,-5.03125,3.65625
261,261,1727462102731,0.4362793,0.8805542,0.17523193,7.109375,-0.984375,-9.65625
262,262,1727462102771,0.25585938,1.0038452,0.2543335,-4.671875,-2.421875,-6.6875
263,263,1727462102811,0.38720703,0.97283936,0.27557373,2.421875,-4.625,-2.171875
264,264,1727462102851,0.38793945,0.8895874,0.17523193,0.90625,-4.453125,-2.125
265,265,1727462102891,0.39868164,0.91986084,0.24383545,-3.546875,0.09375,-3.75
266,266,1727462102931,0.38598633,0.9179077,0.21673584,-2.46875,-3.140625,-3.65625
267,267,1727462102971,0.36401367,0.91204834,0.21038818,-4.125,2.328125,-1.171875
268,268,1727462103011,0.4404297,0.92230225,0.28118896,-2.625,-0.796875,-0.8125
269,269,1727462103051,0.41430664,0.8876343,0.215271,-1.65625,-6.5,-2.390625
270,270,1727462103091,0.38842773,0.9100952,0.2597046,-0.5625,-1.796875,0.59375
271,271,1727462103131,0.38330078,0.86273193,0.1942749,3.1875,1.78125,1.515625
272,272,1727462103171,0.41503906,0.8390503,0.2267456,-4.125,4.03125,1.265625
273,273,1727462103211,0.4477539,0.77142334,0.1876831,-2.65625,-2.640625,-2.828125
274,274,1727462103251,0.30395508,0.7706909,0.19354248,-3.796875,1.296875,-4.609375
275,275,1727462103291,0.17211914,0.8366089,0.33319092,0.90625,8.59375,3.828125
276,276,1727462103331,0.24682617,1.0758667,0.41033936,17.71875,9.046875,12.796875
277,277,1727462103371,0.5024414,1.156189,0.23822021,11.46875,16.453125,2.734375
278,278,1727462103411,0.12866211,1.1786499,0.2489624,-0.609375,5.25,-3.3125
279,279,1727462103451,0.28125,1.104187,0.49749756,-1.59375,7.34375,9.875
280,280,1727462103491,0.4584961,1.0448608,0.38690186,16.8125,4.234375,8.1875
281,281,1727462103531,0.20507812,0.9574585,0.28704834,2.078125,1.265625,0.875
282,282,1727462103571,0.24804688,0.9887085,0.44036865,-1.75,4.28125,9.921875
283,283,1727462103611,0.2253418,0.8925171,0.27069092,8.671875,5.09375,5.546875
284,284,1727462103651,0.16821289,0.855896,0.3287964,-8.96875,12.5625,5.765625
285,285,1727462103691,0.30249023,0.81243896,0.38494873,-0.71875,3.125,0.6875
286,286,1727462103731,0.29052734,0.84173584,0.2814331,-0.640625,-0.875,-4.90625
287,287,1727462103771,0.42138672,0.8908081,0.28778076,-1.890625,0.015625,-3.640625
288,288,1727462103811,0.34448242,0.98651123,0.24432373,4.765625,-8.8125,-11.96875
289,289,1727462103851,0.16674805,1.0446167,0.2675171,13.71875,-1.75,1.0
290,290,1727462103891,0.47192383,0.9852905,0.22015381,5.609375,4.09375,4.375
291,291,1727462103931,0.4831543,1.0299683,0.28778076,1.265625,2.96875,-6.5
292,292,1727462103971,0.3857422,0.99823,0.26849365,2.5625,-5.578125,-4.140625
293,293,1727462104011,0.45117188,0.91082764,0.230896,-1.703125,-6.203125,-0.625
294,294,1727462104051,0.37060547,0.92352295,0.20428467,-0.828125,-5.34375,-1.953125
295,295,1727462104091,0.35302734,0.9364624,0.23968506,-7.015625,-1.4375,-0.578125
296,296,1727462104131,0.37548828,0.90130615,0.22576904,-4.203125,-6.4375,0.5
297,297,1727462104171,0.3713379,0.88323975,0.24261475,-8.359375,-1.265625,0.765625
298,298,1727462104211,0.4086914,0.90057373,0.26385498,-5.3125,-3.3125,-0.359375
299,299,1727462104251,0.36865234,0.8734741,0.24334717,-3.3125,-3.46875,0.125
300,300,1727462104291,0.4248047,0.86883545,0.26312256,-2.90625,0.75,0.421875
301,301,1727462104331,0.39770508,0.8632202,0.27044678,0.765625,-0.59375,-1.09375
302,302,1727462104371,0.39257812,0.8710327,0.2538452,9.5625,0.84375,-1.484375
303,303,1727462104411,0.36743164,0.81781006,0.24920654,3.0625,3.71875,-0.796875
304,304,1727462104451,0.33862305,0.8295288,0.34832764,9.359375,1.71875,2.0625
305,305,1727462104491,0.3486328,0.8883667,0.22039795,16.890625,7.328125,-0.03125
306,306,1727462104531,0.35009766,0.9633179,0.23138428,-3.78125,11.78125,0.09375
307,307,1727462104571,0.2998047,1.0514526,0.36029053,7.234375,2.375,0.109375
308,308,1727462104611,0.16333008,1.0983276,0.3727417,4.140625,0.921875,6.71875
309,309,1727462104651,0.28027344,1.0360718,0.43914795,8.203125,-1.75,16.46875
310,310,1727462104691,0.40893555,0.99261475,0.27581787,3.75,7.078125,3.640625
311,311,1727462104731,0.2788086,1.0739136,0.43011475,-5.03125,9.0,-0.8125
312,312,1727462104771,0.23388672,0.9918823,0.38983154,2.828125,-3.5625,5.125
313,313,1727462104811,0.31860352,0.91571045,0.3998413,-0.375,-1.140625,4.359375
314,314,1727462104851,0.21435547,0.89349365,0.3366089,1.0625,-4.421875,2.046875
315,315,1727462104891,0.1743164,0.92474365,0.3805542,-0.578125,-3.265625,4.734375
316,316,1727462104931,0.2409668,0.9281616,0.36541748,2.484375,2.109375,1.203125
317,317,1727462104971,0.30615234,0.87005615,0.40496826,-1.03125,2.9375,-4.109375
318,318,1727462105011,0.3474121,0.9052124,0.36834717,15.9375,-1.25,-12.890625
319,319,1727462105051,0.23583984,0.93255615,0.25408936,7.234375,2.53125,-7.671875
320,320,1727462105091,0.25610352,0.91204834,0.32366943,8.875,-5.453125,1.5
321,321,1727462105131,0.42163086,0.85980225,0.23138428,4.015625,5.234375,-0.125
322,322,1727462105171,0.53149414,0.9191284,0.28411865,-5.703125,5.1875,-7.921875
323,323,1727462105211,0.43359375,1.0028687,0.28094482,-9.359375,-9.234375,-8.640625
324,324,1727462105251,0.375,0.94866943,0.30804443,-5.859375,-9.328125,-4.046875
325,325,1727462105291,0.38012695,0.8822632,0.18963623,-4.515625,-11.765625,0.390625
326,326,1727462105331,0.37670898,0.93011475,0.29608154,-10.5625,-3.953125,-0.046875
327,327,1727462105371,0.41064453,0.918396,0.3060913,-4.1875,-9.828125,0.53125
328,328,1727462105411,0.4284668,0.90423584,0.2477417,-7.46875,-9.0,-0.875
329,329,1727462105451,0.38208008,0.92840576,0.2958374,-7.21875,-5.0,-0.640625
330,330,1727462105491,0.42626953,0.9020386,0.28167725,-2.40625,-6.125,-0.796875
331,331,1727462105531,0.37451172,0.84295654,0.28753662,-2.640625,-4.0625,0.046875
332,332,1727462105571,0.34179688,0.80804443,0.29681396,0.703125,-3.8125,1.53125
333,333,1727462105611,0.35888672,0.8407593,0.32806396,6.5,0.34375,3.671875
334,334,1727462105651,0.35986328,0.86639404,0.28533936,11.75,9.296875,2.890625
335,335,1727462105691,0.39111328,0.96209717,0.3475952,11.703125,15.578125,-1.84375
336,336,1727462105731,0.24267578,0.88079834,0.25335693,6.234375,5.078125,-0.34375
337,337,1727462105771,0.16674805,0.8239136,0.26434326,-1.828125,-1.140625,5.671875
338,338,1727462105811,0.21850586,0.95892334,0.41644287,3.171875,5.0625,7.171875
339,339,1727462105851,0.3347168,1.1088257,0.40618896,15.0625,-2.5625,4.28125
340,340,1727462105891,0.33007812,1.0790405,0.37322998,-3.109375,2.90625,1.609375
341,341,1727462105931,0.3449707,1.0734253,0.4911499,-8.546875,-0.59375,1.984375
342,342,1727462105971,0.29614258,1.0043335,0.37713623,-0.0625,2.015625,1.65625
343,343,1727462106011,0.23876953,0.9804077,0.3829956,-5.421875,5.578125,1.71875
344,344,1727462106051,0.23828125,0.90301514,0.41156006,-1.125,8.953125,1.03125
345,345,1727462106091,0.2692871,0.86590576,0.36395264,-3.65625,5.359375,1.984375
346,346,1727462106131,0.22827148,0.83514404,0.33099365,-0.953125,2.28125,-1.640625
347,347,1727462106171,0.20336914,0.7892456,0.3944702,-2.859375,1.546875,-4.65625
348,348,1727462106211,0.52856445,0.9857788,0.36395264,5.5,-0.9375,-4.484375
349,349,1727462106251,0.12573242,0.91815186,0.19354248,12.765625,-3.5,-10.640625
350,350,1727462106291,0.29882812,0.91937256,0.3065796,-5.5,-0.25,6.59375
351,351,1727462106331,0.49780273,0.8864136,0.2345581,6.84375,1.390625,-3.90625
352,352,1727462106371,0.40356445,0.9833374,0.23260498,-1.5,1.234375,-7.25
353,353,1727462106411,0.41357422,1.022644,0.3143921,-2.328125,1.1875,-2.984375
354,354,1727462106451,0.36206055,0.9196167,0.2616577,0.625,-6.546875,-0.328125
355,355,1727462106491,0.35864258,0.9291382,0.29364014,-1.9375,-1.9375,4.0
356,356,1727462106531,0.35961914,0.97039795,0.27435303,1.15625,2.375,2.46875
357,357,1727462106571,0.40112305,0.8966675,0.22894287,-4.21875,4.078125,0.546875
358,358,1727462106611,0.4104004,0.885437,0.27191162,-4.90625,3.234375,0.765625
359,359,1727462106651,0.4428711,0.9047241,0.28900146,0.328125,0.59375,0.359375
360,360,1727462106691,0.42626953,0.9015503,0.28851318,-1.21875,-0.609375,-0.921875
361,361,1727462106731,0.42626953,0.8744507,0.3324585,2.0625,-4.84375,1.46875
362,362,1727462106771,0.36816406,0.8204956,0.25164795,7.734375,-5.296875,1.171875
363,363,1727462106811,0.35253906,0.84295654,0.26605225,1.859375,2.71875,4.546875
364,364,1727462106851,0.30664062,0.80633545,0.29144287,11.421875,7.90625,3.671875
365,365,1727462106891,0.19677734,0.85858154,0.36444092,15.875,10.90625,6.640625
366,366,1727462106931,0.37768555,0.9840698,0.3012085,10.46875,17.03125,5.96875
367,367,1727462106971,0.35961914,1.0333862,0.3793335,0.25,5.59375,-2.453125
368,368,1727462107011,0.15698242,1.1173706,0.3703003,9.046875,5.53125,2.171875
369,369,1727462107051,0.27929688,1.1317749,0.54315186,-4.578125,4.625,10.59375
370,370,1727462107091,0.3383789,0.97088623,0.39959717,10.546875,-1.59375,8.640625
371,371,1727462107131,0.25927734,0.9845581,0.36932373,-2.140625,8.828125,4.671875
372,372,1727462107171,0.27075195,0.97283936,0.4315796,1.859375,8.46875,4.40625
373,373,1727462107211,0.21875,0.90423584,0.34368896,-1.09375,7.359375,3.375
374,374,1727462107251,0.21704102,0.8720093,0.39520264,-1.296875,5.53125,2.59375
375,375,1727462107291,0.23730469,0.85565186,0.36151123,-0.84375,0.90625,1.859375
376,376,1727462107331,0.22363281,0.8312378,0.3307495,-2.453125,-3.546875,-0.578125
377,377,1727462107371,0.2956543,0.92523193,0.38909912,-6.046875,-8.78125,-1.703125
378,378,1727462107411,0.53686523,1.0827026,0.35028076,1.578125,-6.921875,-10.765625
379,379,1727462107451,0.10668945,1.0014038,0.1906128,8.59375,-9.9375,-11.4375
380,380,1727462107491,0.2932129,0.9537964,0.3925171,-15.0625,-2.75,6.734375
381,381,1727462107531,0.50683594,0.90008545,0.37054443,14.796875,-4.234375,-4.0625
382,382,1727462107571,0.32910156,0.94158936,0.15203857,2.515625,-2.0625,-4.140625
383,383,1727462107611,0.3803711,0.9303589,0.3300171,-9.359375,1.0625,-2.1875
384,384,1727462107651,0.40722656,0.87664795,0.2765503,-0.90625,-2.796875,-1.75
385,385,1727462107691,0.33251953,0.9413452,0.2741089,-3.875,-0.984375,0.46875
386,386,1727462107731,0.45214844,0.96136475,0.3529663,-2.71875,0.578125,0.546875
387,387,1727462107771,0.39526367,0.89642334,0.26556396,-3.3125,-3.25,-2.484375
388,388,1727462107811,0.3869629,0.89520264,0.28778076,-6.828125,-2.40625,1.640625
389,389,1727462107851,0.34204102,0.8739624,0.27093506,-5.421875,3.578125,2.4375
390,390,1727462107891,0.39868164,0.8739624,0.32611084,-4.109375,2.203125,3.265625
391,391,1727462107931,0.40429688,0.8661499,0.28900146,-0.203125,1.5625,2.265625
392,392,1727462107971,0.36547852,0.85198975,0.30145264,-0.578125,5.21875,2.09375
393,393,1727462108011,0.30371094,0.79486084,0.28631592,5.21875,3.578125,4.53125
394,394,1727462108051,0.16552734,0.75701904,0.2177124,16.796875,12.15625,4.765625
395,395,1727462108091,0.19091797,0.81536865,0.23919678,3.3125,19.890625,5.015625
396,396,1727462108131,0.3544922,1.1005249,0.2819214,-13.109375,8.328125,4.890625
397,397,1727462108171,0.16308594,1.257019,0.4257202,15.296875,-2.0625,-3.71875
398,398,1727462108211,0.30371094,1.2750854,0.39471436,-4.703125,13.140625,12.84375
399,399,1727462108251,0.45581055,1.1498413,0.35076904,6.328125,9.171875,2.625
400,400,1727462108291,0.28857422,1.1166382,0.37322998,-1.390625,2.96875,3.71875
401,401,1727462108331,0.2668457,0.95599365,0.3295288,2.234375,0.71875,8.8125
402,402,1727462108371,0.22875977,0.8390503,0.30975342,-6.671875,-4.5,8.4375
403,403,1727462108411,0.11376953,0.80267334,0.3156128,-5.71875,-5.125,6.1875
404,404,1727462108451,0.18725586,0.84783936,0.33294678,-5.859375,-0.640625,7.265625
405,405,1727462108491,0.23535156,0.9064331,0.307312,-3.890625,1.609375,-2.296875
406,406,1727462108531,0.25805664,0.9320679,0.4064331,-6.5,-4.859375,-6.0
407,407,1727462108571,0.3647461,1.0084839,0.26800537,11.5625,-11.21875,-11.1875
408,408,1727462108611,0.122802734,0.97406006,0.2453003,4.515625,3.15625,-8.390625
409,409,1727462108651,0.36621094,0.930603,0.22332764,6.734375,2.09375,-0.421875
410,410,1727462108691,0.3696289,0.90740967,0.21136475,5.0,1.734375,-11.5625
411,411,1727462108731,0.26049805,0.97283936,0.17132568,3.15625,12.734375,-4.5
412,412,1727462108771,0.39013672,0.95599365,0.35687256,-0.640625,8.234375,-0.921875
413,413,1727462108811,0.40576172,0.90301514,0.21136475,7.125,-5.90625,-1.734375
414,414,1727462108851,0.34423828,0.9423218,0.18353271,-1.71875,3.984375,-1.890625
415,415,1727462108891,0.42333984,1.0150757,0.27435303,1.671875,5.890625,-3.84375
416,416,1727462108931,0.40625,0.9503784,0.24041748,-2.078125,-1.5625,-2.796875
417,417,1727462108971,0.41625977,0.9142456,0.26800537,-0.859375,-3.765625,-1.703125
418,418,1727462109011,0.35864258,0.8998413,0.24700928,-0.375,-3.0625,-1.34375
419,419,1727462109051,0.33666992,0.9008179,0.24432373,-0.171875,-1.8125,3.21875
420,420,1727462109091,0.31347656,0.9220581,0.22747803,1.9375,4.203125,2.359375
421,421,1727462109131,0.32958984,0.9528198,0.2321167,5.015625,12.390625,3.796875
422,422,1727462109171,0.4411621,0.8727417,0.2694702,2.734375,12.15625,3.015625
423,423,1727462109211,0.32739258,0.79901123,0.28411865,18.046875,7.09375,0.65625
424,424,1727462109251,0.25170898,0.8529663,0.28240967,13.21875,16.1875,8.140625
425,425,1727462109291,0.33496094,1.0136108,0.22943115,23.328125,19.703125,6.953125
426,426,1727462109331,0.21899414,0.9923706,0.21697998,-3.984375,21.828125,3.875
427,427,1727462109371,0.20703125,0.9472046,0.39349365,-5.3125,13.84375,10.671875
428,428,1727462109411,0.4099121,0.99334717,0.4142456,-1.328125,6.9375,6.09375
429,429,1727462109451,0.36206055,1.0773315,0.32684326,3.890625,4.140625,-1.953125
430,430,1727462109491,0.20166016,1.0922241,0.38323975,-4.859375,-1.78125,1.328125
431,431,1727462109531,0.30297852,0.9581909,0.43792725,-2.125,-2.96875,6.1875
432,432,1727462109571,0.25341797,0.9164429,0.30828857,-0.28125,-3.5,1.203125
433,433,1727462109611,0.21826172,0.8956909,0.29412842,-6.5625,0.0,-1.953125
434,434,1727462109651,0.23876953,0.91986084,0.3414917,-7.0,-0.046875,-6.03125
435,435,1727462109691,0.32836914,0.9779663,0.4100952,-4.65625,-6.578125,-8.015625
436,436,1727462109731,0.3876953,0.96917725,0.3163452,6.828125,-17.40625,-10.859375
437,437,1727462109771,0.22998047,0.9364624,0.19036865,-3.765625,-15.515625,-11.78125
438,438,1727462109811,0.26538086,0.9137573,0.29730225,-2.78125,-2.765625,-1.046875
439,439,1727462109851,0.35717773,0.9110718,0.20965576,0.140625,-7.5625,-4.015625
440,440,1727462109891,0.28320312,0.9904175,0.21234131,2.984375,-1.75,-2.921875
441,441,1727462109931,0.36791992,0.9891968,0.2477417,2.015625,2.71875,-1.28125
442,442,1727462109971,0.49194336,0.91082764,0.18988037,-2.265625,-0.890625,-1.578125
443,443,1727462110011,0.44604492,0.9225464,0.2399292,-3.828125,-1.859375,-4.546875
444,444,1727462110051,0.40307617,0.92767334,0.28704834,0.0,-1.40625,-1.546875
445,445,1727462110091,0.38427734,0.89056396,0.24920654,3.328125,-1.96875,1.65625
446,446,1727462110131,0.4033203,0.8954468,0.2741089,0.203125,0.640625,2.671875
447,447,1727462110171,0.4165039,0.8847046,0.29119873,0.59375,0.59375,0.953125
448,448,1727462110211,0.4182129,0.87957764,0.24383545,-0.390625,2.53125,1.9375
449,449,1727462110251,0.4206543,0.91864014,0.29632568,3.890625,6.328125,1.078125
450,450,1727462110291,0.39526367,0.9359741,0.21160889,5.546875,7.890625,1.4375
451,451,1727462110331,0.40405273,0.8851929,0.33441162,-0.828125,8.25,3.1875
452,452,1727462110371,0.40429688,0.82562256,0.29486084,13.21875,6.1875,2.5
453,453,1727462110411,0.46704102,0.8793335,0.2946167,8.578125,6.953125,2.84375
454,454,1727462110451,0.41259766,0.89105225,0.20428467,9.578125,4.734375,-0.484375
455,455,1727462110491,0.33862305,0.9076538,0.21551514,-0.78125,0.859375,1.5625
456,456,1727462110531,0.21508789,0.9293823,0.22991943,3.5625,1.78125,7.0625
457,457,1727462110571,0.21826172,0.91864014,0.29779053,2.078125,8.5625,9.9375
458,458,1727462110611,0.1899414,0.85198975,0.29388428,-4.625,5.671875,7.671875
459,459,1727462110651,0.45825195,0.95721436,0.46258545,-10.46875,-1.046875,5.109375
460,460,1727462110691,0.28100586,1.0634155,0.29656982,3.53125,-7.671875,-5.078125
461,461,1727462110731,0.21411133,1.0844116,0.3817749,-9.390625,-6.40625,5.140625
462,462,1727462110771,0.31396484,1.0719604,0.49920654,4.953125,-3.3125,6.59375
463,463,1727462110811,0.27319336,1.0292358,0.39471436,2.8125,-2.125,5.09375
464,464,1727462110851,0.2565918,0.94525146,0.3522339,-2.609375,-0.703125,3.859375
465,465,1727462110891,0.25732422,0.899353,0.3944702,-7.171875,3.3125,0.671875
466,466,1727462110931,0.22338867,0.85687256,0.34710693,0.78125,-1.4375,-5.96875
467,467,1727462110971,0.24023438,0.8690796,0.3463745,-10.53125,-5.15625,-2.921875
468,468,1727462111011,0.46557617,1.0897827,0.30804443,9.84375,-4.921875,-8.015625
469,469,1727462111051,0.19897461,1.0551147,0.11248779,4.609375,-4.90625,-8.640625
470,470,1727462111091,0.40356445,0.9022827,0.07269287,-13.53125,1.0625,2.78125
471,471,1727462111131,0.44750977,0.9291382,0.24505615,-6.0,4.78125,-8.34375
472,472,1727462111171,0.33911133,0.963562,0.18475342,1.5625,0.53125,-3.09375
473,473,1727462111211,0.4597168,0.91619873,0.25579834,-4.71875,-3.953125,-4.5625
474,474,1727462111251,0.3630371,0.9008179,0.16107178,1.5,-7.828125,-6.296875
475,475,1727462111291,0.32617188,0.90667725,0.21429443,-3.3125,1.078125,-1.921875
476,476,1727462111331,0.33422852,0.90667725,0.2675171,6.1875,-0.109375,-1.046875
477,477,1727462111371,0.38012695,0.8920288,0.23895264,3.625,1.421875,2.59375
478,478,1727462111411,0.4362793,0.89715576,0.21917725,5.578125,4.546875,-1.015625
479,479,1727462111451,0.32861328,0.87127686,0.2020874,7.28125,6.96875,-2.78125
480,480,1727462111491,0.43701172,0.9100952,0.3007202,3.171875,7.828125,4.15625
481,481,1727462111531,0.5197754,0.8744507,0.20965576,9.1875,5.15625,-1.21875
482,482,1727462111571,0.40893555,0.8859253,0.18621826,-1.0625,-1.40625,1.0
483,483,1727462111611,0.45141602,0.8998413,0.21136475,0.015625,4.53125,1.53125
484,484,1727462111651,0.41577148,0.9315796,0.20721436,3.34375,-0.59375,-1.375
485,485,1727462111691,0.25561523,0.9159546,0.19085693,1.421875,1.3125,3.75
486,486,1727462111731,0.40478516,0.9472046,0.31610107,3.609375,8.484375,6.625
487,487,1727462111771,0.25024414,0.9100952,0.21942139,10.3125,0.609375,0.953125
488,488,1727462111811,0.083496094,0.871521,0.30633545,-8.59375,2.5625,11.953125
489,489,1727462111851,0.4248047,0.9154663,0.36810303,3.859375,8.328125,12.265625
490,490,1727462111891,0.31933594,1.062439,0.24041748,5.375,5.46875,-6.703125
491,491,1727462111931,0.20629883,1.2108765,0.5922241,-22.609375,2.546875,8.703125
492,492,1727462111971,0.32177734,1.078064,0.4640503,17.796875,-8.25,19.484375
493,493,1727462112011,0.35229492,0.9784546,0.31048584,-1.6875,-3.203125,14.0625
494,494,1727462112051,0.3503418,1.0494995,0.47650146,-5.734375,5.203125,4.578125
495,495,1727462112091,0.32202148,0.8744507,0.34173584,4.078125,-13.90625,-4.375
496,496,1727462112131,0.22241211,0.83514404,0.30511475,-5.875,-13.140625,-5.28125
497,497,1727462112171,0.37280273,1.0114136,0.35980225,6.53125,-13.953125,-8.46875
498,498,1727462112211,0.029052734,1.0119019,0.19818115,8.515625,-10.9375,-10.03125
499,499,1727462112251,0.31567383,0.8734741,0.3366089,-6.296875,-8.140625,3.6875
500,500,1727462112291,0.45385742,0.8512573,0.11273193,14.609375,-12.03125,-11.015625
501,501,1727462112331,0.13720703,0.93963623,0.14837646,-3.78125,5.34375,-6.703125
502,502,1727462112371,0.46166992,1.0219116,0.4262085,-1.140625,6.625,-4.4375
503,503,1727462112411,0.35595703,0.8739624,0.16033936,7.34375,-10.234375,-8.234375
504,504,1727462112451,0.22729492,0.90740967,0.23138428,-6.296875,2.765625,-0.515625
505,505,1727462112491,0.3828125,1.0023804,0.4159546,1.9375,4.96875,0.75
506,506,1727462112531,0.36376953,0.88739014,0.22113037,7.828125,-1.59375,-0.984375
507,507,1727462112571,0.32421875,0.8920288,0.22381592,-3.0,5.5625,1.640625
508,508,1727462112611,0.4362793,0.8900757,0.32025146,-0.78125,4.375,-3.296875
509,509,1727462112651,0.3088379,0.90252686,0.23773193,9.5625,1.390625,-3.15625
510,510,1727462112691,0.43017578,0.887146,0.3024292,-6.1875,4.421875,2.828125
511,511,1727462112731,0.46142578,0.95355225,0.32318115,5.953125,-1.984375,-3.796875
512,512,1727462112771,0.27197266,0.87323,0.14764404,2.90625,1.125,-1.0
513,513,1727462112811,0.39624023,0.8016968,0.3131714,-3.140625,5.640625,2.09375
514,514,1727462112851,0.47705078,0.871521,0.3151245,9.6875,-2.640625,-4.203125
515,515,1727462112891,0.30517578,0.8859253,0.22235107,3.078125,-0.359375,-2.890625
516,516,1727462112931,0.29052734,0.9867554,0.33392334,0.1875,-3.484375,2.0
517,517,1727462112971,0.18969727,1.0307007,0.37542725,-5.296875,-5.859375,7.71875
518,518,1727462113011,0.25585938,1.001648,0.47088623,4.734375,-6.28125,11.265625
519,519,1727462113051,0.45092773,0.9064331,0.33050537,-3.90625,-2.703125,3.546875
520,520,1727462113091,0.34375,0.93426514,0.32025146,-10.640625,-12.375,-0.5625
521,521,1727462113131,0.15185547,1.0568237,0.40179443,-10.421875,-12.125,8.484375
522,522,1727462113171,0.21386719,1.0292358,0.4689331,5.265625,-5.109375,14.078125
523,523,1727462113211,0.2861328,0.963562,0.38690186,7.234375,-6.71875,8.578125
524,524,1727462113251,0.22802734,1.0221558,0.41082764,-7.40625,-1.953125,4.953125
525,525,1727462113291,0.22021484,1.0553589,0.4821167,-3.953125,1.671875,1.875
526,526,1727462113331,0.27319336,0.9347534,0.38885498,-6.140625,0.84375,-1.53125
527,527,1727462113371,0.30810547,0.9425659,0.40911865,-6.453125,0.671875,-5.78125
528,528,1727462113411,0.2902832,0.8275757,0.3673706,-6.109375,-7.71875,-9.265625
529,529,1727462113451,0.24267578,0.79681396,0.3348999,-3.6875,-15.546875,-9.140625
530,530,1727462113491,0.26416016,0.98358154,0.21502686,12.984375,-1.96875,-8.703125
531,531,1727462113531,0.09375,1.0524292,0.22625732,-0.359375,4.609375,-3.75
532,532,1727462113571,0.48950195,0.97821045,0.26727295,1.953125,-3.375,-1.0
533,533,1727462113611,0.3503418,0.91448975,0.16693115,-4.296875,0.421875,-8.25
534,534,1727462113651,0.34277344,0.9579468,0.36639404,-3.71875,1.765625,-1.140625
535,535,1727462113691,0.43017578,0.86468506,0.16229248,2.578125,-3.234375,-5.359375
536,536,1727462113731,0.37524414,0.95062256,0.18304443,-11.390625,1.578125,-5.09375
537,537,1727462113771,0.3322754,0.9723511,0.3612671,-6.359375,3.234375,-1.859375
538,538,1727462113811,0.32470703,0.91693115,0.24456787,12.546875,-0.5,1.328125
539,539,1727462113851,0.43652344,0.899353,0.2514038,-4.9375,11.515625,2.890625
540,540,1727462113891,0.4765625,0.9633179,0.31610107,8.03125,3.21875,-2.84375
541,541,1727462113931,0.32177734,0.86834717,0.17425537,4.265625,4.625,0.421875
542,542,1727462113971,0.4724121,0.88446045,0.3007202,-0.953125,11.921875,3.890625
543,543,1727462114011,0.5234375,0.86151123,0.16229248,10.671875,-0.71875,-5.78125
544,544,1727462114051,0.39111328,0.81829834,0.19744873,-9.328125,-2.125,-2.796875
545,545,1727462114091,0.4206543,0.83807373,0.34075928,5.609375,-4.9375,-6.1875
546,546,1727462114131,0.12817383,0.9122925,0.2892456,4.984375,-5.359375,0.65625
547,547,1727462114171,0.32226562,1.0814819,0.28875732,9.96875,4.421875,4.796875
548,548,1727462114211,0.17407227,0.96868896,0.16082764,-1.984375,-4.0625,5.28125
549,549,1727462114251,0.12939453,0.9550171,0.3463745,-9.984375,15.140625,10.671875
550,550,1727462114291,0.43286133,1.109314,0.5026245,-0.5,5.328125,8.375
551,551,1727462114331,0.23510742,1.0458374,0.25482178,9.328125,-2.65625,0.25
552,552,1727462114371,0.2692871,1.0914917,0.50579834,-14.09375,5.859375,10.171875
553,553,1727462114411,0.31079102,0.97528076,0.36297607,13.4375,-0.3125,4.46875
554,554,1727462114451,0.19555664,0.93499756,0.24432373,-7.328125,2.96875,6.1875
555,555,1727462114491,0.30371094,0.96917725,0.4537964,0.546875,8.828125,2.859375
556,556,1727462114531,0.30419922,0.8637085,0.32318115,5.046875,-2.796875,-6.78125
557,557,1727462114571,0.2529297,0.8395386,0.3619995,-6.25,-6.34375,-6.375
558,558,1727462114611,0.39160156,0.9591675,0.46868896,6.234375,-13.921875,-4.4375
559,559,1727462114651,0.30273438,1.0082397,0.26019287,9.203125,-10.25,-13.0
560,560,1727462114691,0.118652344,0.996521,0.29925537,-7.59375,-10.5,0.78125
561,561,1727462114731,0.33862305,0.8720093,0.33416748,-0.703125,-7.40625,1.90625
562,562,1727462114771,0.3569336,0.8517456,0.17156982,-1.359375,-7.546875,-4.25
563,563,1727462114811,0.25878906,0.96307373,0.25457764,-6.109375,-1.59375,-5.734375
564,564,1727462114851,0.30371094,0.9960327,0.35687256,2.78125,0.40625,-1.453125
565,565,1727462114891,0.42504883,0.9467163,0.2477417,4.0,-3.078125,-0.609375
566,566,1727462114931,0.390625,0.901062,0.2218628,-6.671875,4.25,-7.296875
567,567,1727462114971,0.3798828,0.92645264,0.26898193,0.984375,-4.4375,-6.4375
568,568,1727462115011,0.37548828,0.9130249,0.22137451,-2.59375,5.078125,-1.5
569,569,1727462115051,0.37451172,0.9371948,0.30340576,1.78125,0.703125,0.109375
570,570,1727462115091,0.43310547,0.918396,0.25286865,-0.265625,-1.984375,-2.484375
571,571,1727462115131,0.3413086,0.8961792,0.16156006,-2.359375,0.53125,-1.53125
572,572,1727462115171,0.4243164,0.93011475,0.2975464,-9.09375,6.171875,-0.984375
573,573,1727462115211,0.4387207,0.9369507,0.2645874,0.28125,-4.890625,-2.8125
574,574,1727462115251,0.3881836,0.90130615,0.19110107,-2.859375,0.53125,-0.03125
575,575,1727462115291,0.40771484,0.90374756,0.24749756,-6.84375,4.21875,-0.125
576,576,1727462115331,0.41552734,0.90789795,0.26385498,-3.5625,-1.71875,-1.390625
577,577,1727462115371,0.3894043,0.869812,0.24456787,-2.046875,-2.21875,0.671875
578,578,1727462115411,0.41210938,0.84368896,0.2999878,-1.015625,-2.5,3.546875
579,579,1727462115451,0.44726562,0.89056396,0.2387085,5.546875,-2.15625,1.9375
580,580,1727462115491,0.37719727,0.888855,0.2321167,5.84375,4.546875,0.09375
581,581,1727462115531,0.32104492,0.9291382,0.28118896,17.328125,6.015625,1.796875
582,582,1727462115571,0.4753418,0.97991943,0.2543335,5.625,8.015625,0.453125
583,583,1727462115611,0.19946289,0.98114014,0.20257568,0.265625,-0.84375,2.109375
584,584,1727462115651,0.07299805,0.8920288,0.3151245,-4.109375,13.921875,11.84375
585,585,1727462115691,0.4777832,1.0512085,0.59295654,-2.625,3.421875,10.671875
586,586,1727462115731,0.37426758,1.0236206,0.28533936,17.546875,-7.421875,-2.9375
587,587,1727462115771,0.23583984,1.0409546,0.26287842,-9.640625,-4.015625,1.03125
588,588,1727462115811,0.37426758,1.0038452,0.49066162,-4.46875,-0.1875,3.90625
589,589,1727462115851,0.24584961,0.965271,0.28216553,10.09375,-3.84375,0.375
590,590,1727462115891,0.12011719,0.9879761,0.3619995,4.71875,9.21875,1.78125
591,591,1727462115931,0.31274414,0.887146,0.50115967,-3.296875,-0.125,-1.859375
592,592,1727462115971,0.50268555,0.86395264,0.41815186,8.625,-9.859375,-6.84375
593,593,1727462116011,0.4033203,0.8551636,0.08001709,1.078125,-15.296875,-12.15625
594,594,1727462116051,0.20092773,0.9401245,0.19134521,-13.78125,-6.0,-6.625
595,595,1727462116091,0.2524414,0.9266968,0.1786499,11.28125,-8.0,-0.78125
596,596,1727462116131,0.43945312,0.9122925,0.13909912,-10.578125,5.1875,0.1875
597,597,1727462116171,0.4165039,0.97454834,0.24212646,-8.28125,-2.828125,-10.546875
598,598,1727462116211,0.30615234,0.9557495,0.22625732,-6.421875,-1.640625,-3.671875
599,599,1727462116251,0.4296875,0.9262085,0.23675537,-3.328125,-1.140625,-0.8125
600,600,1727462116291,0.33520508,0.91986084,0.2086792,-6.546875,0.53125,-1.890625
601,601,1727462116331,0.42382812,0.89642334,0.26141357,-5.765625,-3.046875,1.03125
602,602,1727462116371,0.39379883,0.87786865,0.16766357,-3.4375,0.1875,-1.359375
603,603,1727462116411,0.44580078,0.949646,0.23480225,-5.8125,-0.53125,-2.015625
604,604,1727462116451,0.42504883,0.9022827,0.27093506,-1.78125,-7.40625,-0.140625
605,605,1727462116491,0.5007324,0.88397217,0.25872803,1.34375,-9.421875,2.4375
606,606,1727462116531,0.48413086,0.9411011,0.19451904,0.21875,-7.078125,-1.9375
607,607,1727462116571,0.4807129,0.97772217,0.29852295,-1.203125,-7.984375,-1.71875
608,608,1727462116611,0.38183594,0.8727417,0.22381592,3.328125,-12.8125,1.296875
609,609,1727462116651,0.27148438,0.7782593,0.22039795,4.140625,-6.78125,5.296875
610,610,1727462116691,0.22387695,0.76483154,0.2897339,4.5,0.84375,10.703125
611,611,1727462116731,0.32421875,0.9994507,0.23602295,18.640625,14.90625,9.375
612,612,1727462116771,0.2631836,1.1383667,0.31097412,1.015625,20.171875,0.09375
613,613,1727462116811,0.19628906,1.0165405,0.28533936,-7.53125,6.09375,10.46875
614,614,1727462116851,0.31079102,0.9696655,0.5145874,-2.640625,4.03125,14.984375
615,615,1727462116891,0.45263672,1.0526733,0.40716553,13.953125,7.84375,7.21875
616,616,1727462116931,0.35864258,1.0592651,0.33270264,1.109375,-1.71875,2.75
617,617,1727462116971,0.23535156,0.96673584,0.42523193,-5.796875,-5.328125,6.125
618,618,1727462117011,0.28564453,0.9269409,0.3925171,6.09375,-1.28125,3.9375
619,619,1727462117051,0.19897461,0.8539429,0.25726318,1.0,1.265625,-3.03125
620,620,1727462117091,0.21411133,0.85198975,0.43450928,-9.21875,-4.609375,-4.59375
621,621,1727462117131,0.34472656,0.8822632,0.39886475,9.515625,-19.6875,-5.734375
622,622,1727462117171,0.26171875,0.9882202,0.21942139,5.46875,-4.328125,-10.625
623,623,1727462117211,0.20703125,1.0978394,0.39642334,4.25,2.828125,-5.484375
624,624,1727462117251,0.39233398,0.90008545,0.25531006,3.75,-4.171875,-4.109375
625,625,1727462117291,0.42578125,0.822937,0.13494873,0.09375,-2.15625,-8.015625
626,626,1727462117331,0.41333008,0.96209717,0.24822998,-4.3125,3.21875,-9.890625
627,627,1727462117371,0.40356445,0.9779663,0.26239014,-2.140625,-2.703125,-5.75
628,628,1727462117411,0.38500977,0.93133545,0.2501831,-0.890625,-6.921875,-2.234375
629,629,1727462117451,0.4267578,0.9213257,0.25115967,-7.671875,1.25,-0.71875
630,630,1727462117491,0.44677734,0.8949585,0.29364014,-6.328125,-4.90625,-3.859375
631,631,1727462117531,0.40771484,0.89642334,0.24432373,-6.140625,-4.796875,-1.484375
632,632,1727462117571,0.40161133,0.9039917,0.26190186,-2.140625,-3.390625,0.390625
633,633,1727462117611,0.38061523,0.8810425,0.21746826,-2.890625,-2.953125,1.421875
634,634,1727462117651,0.38623047,0.8583374,0.2765503,-3.5,0.421875,2.359375
635,635,1727462117691,0.42089844,0.83343506,0.22113037,3.90625,0.34375,-0.21875
636,636,1727462117731,0.4194336,0.8942261,0.25286865,-3.359375,3.984375,0.421875
637,637,1727462117771,0.44189453,0.8903198,0.32513428,5.09375,3.65625,0.453125
638,638,1727462117811,0.4111328,0.9110718,0.37957764,9.265625,-3.921875,2.140625
639,639,1727462117851,0.33544922,0.9298706,0.21844482,27.546875,-2.734375,2.5625
640,640,1727462117891,0.35986328,0.8942261,0.22845459,-8.5,5.796875,3.5625
641,641,1727462117931,0.2578125,0.98895264,0.31536865,1.8125,-9.546875,-0.328125
642,642,1727462117971,0.059570312,0.98895264,0.3480835,5.8125,-1.296875,9.203125
643,643,1727462118011,0.3244629,0.9088745,0.38885498,-2.515625,4.484375,17.234375
644,644,1727462118051,0.4489746,0.9254761,0.43011475,-2.90625,-4.140625,2.453125
645,645,1727462118091,0.25952148,1.0375366,0.2958374,-2.484375,-3.34375,0.390625
646,646,1727462118131,0.26635742,1.0551147,0.44281006,-14.1875,-2.25,8.140625
647,647,1727462118171,0.32470703,0.93426514,0.3727417,4.609375,-3.65625,4.625
648,648,1727462118211,0.21411133,0.9623413,0.34173584,-7.625,1.546875,3.296875
649,649,1727462118251,0.24975586,0.9520874,0.42425537,-4.15625,-0.40625,2.046875
650,650,1727462118291,0.2524414,0.8878784,0.39007568,0.59375,-0.359375,-2.9375
651,651,1727462118331,0.32080078,0.8607788,0.32659912,-4.5625,-0.4375,-3.71875
652,652,1727462118371,0.32958984,0.9804077,0.27874756,1.125,-7.15625,-6.8125
653,653,1727462118411,0.14892578,1.0670776,0.25946045,3.390625,-0.109375,-4.75
654,654,1727462118451,0.27001953,0.98114014,0.27801514,0.671875,2.40625,2.453125
655,655,1727462118491,0.36865234,0.8505249,0.21160889,-1.25,-3.15625,-3.78125
656,656,1727462118531,0.31567383,0.92596436,0.24725342,-0.140625,5.03125,-7.578125
657,657,1727462118571,0.3630371,0.9867554,0.25994873,-1.921875,0.578125,-4.75
658,658,1727462118611,0.40478516,0.93084717,0.19793701,-1.75,-5.703125,-4.5
659,659,1727462118651,0.41064453,0.90545654,0.18914795,-3.0,-6.75,-3.453125
660,660,1727462118691,0.39501953,0.93914795,0.23968506,-7.359375,-4.046875,-4.046875
661,661,1727462118731,0.38891602,0.9454956,0.24993896,-2.390625,-9.515625,-4.40625
662,662,1727462118771,0.3544922,0.9533081,0.18597412,-4.25,-9.53125,-2.046875
663,663,1727462118811,0.43701172,0.93621826,0.23187256,-13.109375,-1.28125,-1.4375
664,664,1727462118851,0.44335938,0.92352295,0.20770264,-4.0625,-7.171875,-4.15625
665,665,1727462118891,0.40698242,0.914978,0.19866943,-9.25,-8.75,-1.828125
666,666,1727462118931,0.41967773,0.9254761,0.24359131,-2.671875,-7.9375,-0.96875
667,667,1727462118971,0.4272461,0.8978882,0.22039795,-4.53125,-8.21875,-1.125
668,668,1727462119011,0.42749023,0.89715576,0.24139404,-2.625,-7.625,-0.375
669,669,1727462119051,0.4416504,0.87908936,0.2230835,1.4375,-8.265625,-1.78125
670,670,1727462119091,0.4321289,0.8270874,0.21502686,2.578125,-11.734375,-3.28125
671,671,1727462119131,0.24194336,0.8798218,0.22747803,8.703125,-7.84375,1.890625
672,672,1727462119171,0.34594727,1.0541382,0.26434326,7.796875,7.84375,0.828125
673,673,1727462119211,0.28979492,0.90667725,0.29632568,-3.484375,-3.84375,-1.75
674,674,1727462119251,0.10986328,0.8109741,0.2772827,-6.796875,-15.328125,6.75
675,675,1727462119291,0.39770508,1.0089722,0.47235107,-2.21875,0.609375,7.1875
676,676,1727462119331,0.38134766,1.0512085,0.28118896,17.21875,0.21875,-10.515625
677,677,1727462119371,0.1381836,1.0704956,0.3241577,-12.265625,-8.1875,3.34375
678,678,1727462119411,0.39404297,1.0048218,0.5307007,0.828125,-1.8125,6.375
679,679,1727462119451,0.27807617,0.9813843,0.28582764,6.90625,-2.90625,-1.734375
680,680,1727462119491,0.23632812,0.96380615,0.34417725,-7.796875,1.359375,-1.40625
681,681,1727462119531,0.33325195,0.9447632,0.43988037,-2.515625,-5.515625,-0.9375
682,682,1727462119571,0.3095703,0.89837646,0.37713623,-2.96875,-8.84375,-2.90625
683,683,1727462119611,0.4177246,0.9105835,0.44281006,-1.125,-15.328125,-7.234375
684,684,1727462119651,0.3010254,0.88031006,0.2477417,1.421875,-17.640625,-9.96875
685,685,1727462119691,0.21166992,0.98431396,0.22625732,-5.015625,-9.0625,-1.65625
686,686,1727462119731,0.29907227,0.94573975,0.2982788,2.390625,-6.8125,-1.40625
687,687,1727462119771,0.43310547,0.85614014,0.15692139,-6.625,-6.390625,-0.015625
688,688,1727462119811,0.45239258,0.8981323,0.23529053,-10.125,-7.96875,-10.171875
689,689,1727462119851,0.41430664,0.977478,0.18084717,-5.046875,-12.203125,-8.171875
690,690,1727462119891,0.43041992,0.90423584,0.2321167,-7.890625,-14.28125,-4.15625
691,691,1727462119931,0.37890625,0.90667725,0.22918701,-0.578125,-14.84375,-2.515625
692,692,1727462119971,0.38305664,0.9105835,0.22381592,-10.125,-6.703125,2.65625
693,693,1727462120011,0.4416504,0.9164429,0.2609253,-2.8125,-11.359375,-0.1875
694,694,1727462120051,0.38549805,0.88983154,0.20159912,-7.140625,-8.078125,0.953125
695,695,1727462120091,0.43481445,0.90374756,0.22747803,-1.921875,-3.453125,-0.40625
696,696,1727462120131,0.47143555,0.8915405,0.26361084,-3.75,-6.828125,0.03125
697,697,1727462120171,0.4296875,0.8944702,0.15887451,1.421875,-6.671875,-0.75
698,698,1727462120211,0.39672852,0.92303467,0.2218628,-2.484375,-0.453125,1.515625
699,699,1727462120251,0.49438477,0.9274292,0.27874756,2.359375,-3.9375,-0.328125
700,700,1727462120291,0.40673828,0.8529663,0.1708374,0.78125,-5.484375,-1.359375
701,701,1727462120331,0.24267578,0.72650146,0.15985107,-4.046875,-5.59375,2.46875
702,702,1727462120371,0.21313477,0.6141968,0.093444824,-2.609375,0.515625,7.28125
703,703,1727462120411,0.21435547,0.91326904,0.1876831,1.375,2.203125,3.4375
704,704,1727462120451,0.37890625,1.1825562,0.5050659,-33.84375,5.09375,1.328125
705,705,1727462120491,0.40185547,1.3314819,0.65960693,22.875,-21.984375,-3.65625
706,706,1727462120531,0.27807617,1.1644897,0.26605225,5.3125,-14.40625,4.53125
707,707,1727462120571,0.4555664,1.020935,0.39813232,-5.09375,-9.828125,3.890625
708,708,1727462120611,0.28149414,0.9725952,0.33514404,-3.5,-13.25,-3.34375
709,709,1727462120651,0.24902344,0.93792725,0.33929443,-4.34375,-8.078125,-1.328125
710,710,1727462120691,0.2163086,0.90448,0.26678467,-6.4375,-13.59375,-4.5
711,711,1727462120731,0.22509766,0.9088745,0.4508667,-12.046875,-13.375,-0.125
712,712,1727462120771,0.26000977,0.87176514,0.35125732,6.640625,-13.46875,-2.9375
713,713,1727462120811,0.22827148,0.8331909,0.27288818,-6.234375,-15.734375,-4.21875
714,714,1727462120851,0.18481445,0.9220581,0.4081421,-0.96875,-13.796875,-0.96875
715,715,1727462120891,0.17138672,1.0189819,0.30316162,13.1875,-1.34375,0.421875
716,716,1727462120931,0.3256836,1.0397339,0.34906006,11.5,9.5,1.5
717,717,1727462120971,0.40063477,0.9501343,0.22650146,6.8125,3.78125,-5.84375
718,718,1727462121011,0.41430664,0.9086304,0.3131714,-8.5,-4.0,-5.421875
719,719,1727462121051,0.40014648,0.84173584,0.2074585,1.765625,-9.6875,-4.875
720,720,1727462121091,0.38916016,0.9105835,0.19573975,-8.328125,-10.0625,-5.375
721,721,1727462121131,0.3701172,0.9135132,0.21160889,-6.90625,-8.515625,-5.4375
722,722,1727462121171,0.4416504,0.93499756,0.23260498,-11.546875,-6.109375,-6.75
723,723,1727462121211,0.4099121,0.9489136,0.24627686,-10.859375,-8.578125,-8.625
724,724,1727462121251,0.3605957,0.93377686,0.22479248,-7.375,-9.125,-4.0625
725,725,1727462121291,0.44506836,0.9147339,0.24017334,-6.296875,-4.328125,-2.46875
726,726,1727462121331,0.39624023,0.92767334,0.23651123,-6.25,-6.953125,-3.390625
727,727,1727462121371,0.33007812,0.91619873,0.24359131,-5.21875,-5.296875,1.40625
728,728,1727462121411,0.37475586,0.89276123,0.24627686,-1.859375,-1.203125,3.5625
729,729,1727462121451,0.41088867,0.88446045,0.23480225,-0.75,4.78125,2.5625
730,730,1727462121491,0.4814453,0.9020386,0.24969482,-1.171875,4.5,0.21875
731,731,1727462121531,0.4519043,0.84661865,0.23236084,0.140625,1.671875,-1.21875
732,732,1727462121571,0.34375,0.8036499,0.19354248,5.046875,-2.921875,0.59375
733,733,1727462121611,0.19067383,0.7650757,0.16204834,2.078125,7.125,6.5625
734,734,1727462121651,0.19311523,0.7850952,0.2904663,9.078125,15.390625,13.265625
735,735,1727462121691,0.3474121,1.020935,0.13470459,11.3125,14.0,5.765625
736,736,1727462121731,0.34106445,1.1730347,0.41448975,-11.921875,20.28125,-0.46875
737,737,1727462121771,0.37280273,1.2028198,0.5429077,-0.21875,-8.796875,4.765625
738,738,1727462121811,0.48754883,1.1112671,0.33880615,10.1875,-4.890625,1.59375
739,739,1727462121851,0.34643555,1.0307007,0.30340576,-10.875,-11.78125,-0.671875
740,740,1727462121891,0.36767578,1.0145874,0.43572998,2.765625,-17.703125,2.03125
741,741,1727462121931,0.2602539,0.8812866,0.20599365,-3.515625,-7.9375,-2.40625
742,742,1727462121971,0.27807617,0.91571045,0.33953857,-14.296875,-9.046875,-5.296875
743,743,1727462122011,0.24169922,0.8759155,0.36102295,-5.15625,-21.734375,-8.78125
744,744,1727462122051,0.17138672,0.89105225,0.34490967,-5.390625,-18.125,-5.296875
745,745,1727462122091,0.32788086,0.9254761,0.38201904,-2.515625,-14.125,-2.640625
746,746,1727462122131,0.28076172,0.97650146,0.22650146,7.515625,-13.78125,-11.6875
747,747,1727462122171,0.23950195,0.97039795,0.27288818,-8.84375,-5.796875,-3.53125
748,748,1727462122211,0.34960938,0.9450073,0.27996826,3.765625,-7.609375,-4.515625
749,749,1727462122251,0.34985352,0.9371948,0.24285889,1.3125,-4.09375,-6.453125
750,750,1727462122291,0.39208984,0.90448,0.23431396,-0.296875,-7.421875,-4.53125
751,751,1727462122331,0.37768555,0.8878784,0.17669678,-3.1875,-8.703125,-5.234375
752,752,1727462122371,0.39672852,0.9244995,0.21282959,-3.28125,-8.71875,-3.1875
753,753,1727462122411,0.40600586,0.92767334,0.20916748,-1.953125,-6.640625,-1.671875
754,754,1727462122451,0.4597168,0.9179077,0.2189331,-2.921875,-8.515625,-1.96875
755,755,1727462122491,0.3708496,0.8956909,0.1954956,-6.09375,-6.5625,-1.765625
756,756,1727462122531,0.4111328,0.8986206,0.24554443,-4.328125,-3.6875,0.34375
757,757,1727462122571,0.43774414,0.89178467,0.19354248,-3.90625,-6.109375,-0.265625
758,758,1727462122611,0.39770508,0.90252686,0.17791748,-5.0,-7.03125,-0.90625
759,759,1727462122651,0.50024414,0.94403076,0.2802124,-5.75,-5.671875,0.578125
760,760,1727462122691,0.42358398,0.92596436,0.20428467,-2.375,-4.859375,-1.765625
761,761,1727462122731,0.46899414,0.93426514,0.3065796,-4.515625,-4.859375,0.0
762,762,1727462122771,0.41845703,0.887146,0.22943115,0.78125,-6.015625,-0.734375
763,763,1727462122811,0.42333984,0.8739624,0.25579834,-0.40625,-1.125,1.234375
764,764,1727462122851,0.40356445,0.83392334,0.23065186,1.78125,2.421875,1.359375
765,765,1727462122891,0.41308594,0.8187866,0.22625732,5.9375,-0.328125,1.53125
766,766,1727462122931,0.3635254,0.8060913,0.24383545,7.96875,2.34375,2.234375
767,767,1727462122971,0.28808594,0.8602905,0.2255249,14.234375,9.890625,4.4375
768,768,1727462123011,0.21704102,0.9225464,0.20941162,2.1875,12.9375,3.828125
769,769,1727462123051,0.2783203,0.9838257,0.36517334,-12.046875,-0.953125,8.109375
770,770,1727462123091,0.36914062,1.1366577,0.5321655,8.40625,2.40625,4.15625
771,771,1727462123131,0.5205078,1.2042847,0.44622803,9.453125,-0.0625,-0.265625
772,772,1727462123171,0.35083008,1.0343628,0.31121826,-0.9375,-11.03125,-0.53125
