,Unnamed: 0,timestamp,accel_x,accel_y,accel_z,gyro_x,gyro_y,gyro_z
0,0,1727440577697,0.010986328,-0.9849243,0.11981201,1.375,-0.046875,0.484375
1,1,1727440577737,-0.095703125,-0.9470825,-0.013000488,2.84375,-23.609375,6.1875
2,2,1727440577777,-0.060546875,-0.91363525,-0.08111572,2.515625,-29.90625,3.84375
3,3,1727440577817,-0.14038086,-1.0203247,-0.0020141602,0.625,-26.75,1.75
4,4,1727440577857,-0.18286133,-1.0662231,-0.027404785,1.03125,-24.828125,-4.28125
5,5,1727440577897,-0.095458984,-1.1514282,0.034851074,-2.96875,-16.65625,-6.640625
6,6,1727440577937,-0.123046875,-1.111145,0.058044434,-5.25,-6.15625,-6.46875
7,7,1727440577977,-0.08520508,-1.0750122,-0.022521973,-4.140625,9.09375,-9.265625
8,8,1727440578017,0.07861328,-0.97662354,-0.1182251,-5.84375,5.71875,-8.78125
9,9,1727440578057,0.08178711,-0.99786377,-0.10406494,-4.734375,5.40625,-6.28125
10,10,1727440578097,0.1394043,-1.0054321,-0.11090088,-3.25,0.671875,-5.3125
11,11,1727440578137,0.21777344,-0.97076416,-0.09844971,-3.484375,-3.9375,-1.4375
12,12,1727440578177,0.20825195,-0.9417114,-0.05645752,-2.65625,-13.5625,2.875
13,13,1727440578217,0.21240234,-0.9783325,-0.07745361,4.25,-20.71875,6.25
14,14,1727440578257,0.1003418,-1.0237427,-0.0491333,1.984375,-23.421875,6.828125
15,15,1727440578297,0.10229492,-0.9380493,0.0602417,-1.28125,-16.46875,6.234375
16,16,1727440578337,-0.006591797,-1.0100708,0.00091552734,3.765625,-18.34375,2.21875
17,17,1727440578377,-0.063964844,-0.98638916,0.04559326,-5.484375,-15.78125,3.421875
18,18,1727440578417,0.013183594,-0.7798462,0.055603027,-6.078125,-10.78125,0.265625
19,19,1727440578457,0.087402344,-0.89190674,0.09979248,-5.84375,-12.125,1.65625
20,20,1727440578497,0.04711914,-0.9019165,0.13641357,-1.984375,-7.75,6.171875
21,21,1727440578537,-0.10083008,-1.0388794,0.09051514,4.78125,-4.890625,3.921875
22,22,1727440578577,-0.103027344,-1.1436157,0.08465576,6.59375,6.484375,3.703125
23,23,1727440578617,-0.07739258,-1.0332642,0.14520264,0.140625,18.859375,3.515625
24,24,1727440578657,-0.030761719,-1.0425415,0.11517334,2.859375,23.859375,5.421875
25,25,1727440578697,0.015136719,-0.98687744,0.105651855,4.078125,23.890625,7.328125
26,26,1727440578737,0.06298828,-0.9302368,0.10247803,8.734375,20.609375,7.921875
27,27,1727440578777,0.057861328,-0.9507446,0.12298584,4.515625,15.859375,6.078125
28,28,1727440578817,-0.0075683594,-0.84625244,0.15545654,2.90625,13.671875,3.046875
29,29,1727440578857,-0.05029297,-0.8171997,0.17449951,0.453125,10.78125,-3.75
30,30,1727440578897,0.0690918,-0.8845825,-0.017150879,-0.578125,2.859375,-12.34375
31,31,1727440578937,0.10888672,-1.1292114,-0.37286377,4.109375,-11.5,-15.296875
32,32,1727440578977,0.2529297,-1.7319946,0.11151123,-10.828125,1.125,-14.625
33,33,1727440579017,-0.10546875,-1.2932739,-0.06842041,-25.09375,-3.234375,-17.421875
34,34,1727440579057,0.052734375,-0.8989868,-0.06500244,-12.4375,7.84375,-7.859375
35,35,1727440579097,0.2915039,-0.8206177,-0.11065674,-0.421875,20.40625,2.5
36,36,1727440579137,0.1743164,-0.7630005,-0.15216064,1.984375,20.375,10.109375
37,37,1727440579177,0.09326172,-0.89263916,-0.07159424,0.640625,15.703125,5.796875
38,38,1727440579217,0.057617188,-0.9390259,-0.15484619,9.78125,6.75,1.015625
39,39,1727440579257,0.048339844,-0.8887329,-0.16021729,5.875,1.078125,-1.5
40,40,1727440579297,0.00390625,-0.93878174,-0.06378174,-1.5,-0.859375,-4.875
41,41,1727440579337,-0.016113281,-0.99884033,0.051696777,-2.28125,-7.671875,-3.859375
42,42,1727440579377,0.026123047,-1.0283813,-0.003479004,0.15625,-13.640625,-3.46875
43,43,1727440579417,0.017089844,-1.0322876,-0.027893066,1.25,-13.75,-2.625
44,44,1727440579457,-0.03125,-0.99713135,-0.05596924,3.109375,-13.125,0.59375
45,45,1727440579497,-0.005859375,-0.96954346,-0.034729004,5.28125,-15.84375,1.765625
46,46,1727440579537,-0.036865234,-0.9824829,0.004333496,3.25,-16.453125,3.125
47,47,1727440579577,-0.060058594,-0.94537354,0.01751709,1.890625,-19.125,1.484375
48,48,1727440579617,-0.07080078,-0.960022,0.03778076,4.125,-22.0625,1.671875
49,49,1727440579657,-0.115478516,-0.95318604,0.036071777,1.421875,-22.734375,0.296875
50,50,1727440579697,-0.12451172,-0.940979,0.011169434,2.15625,-24.75,-2.125
51,51,1727440579737,-0.092041016,-0.96099854,0.019226074,0.21875,-25.125,-3.171875
52,52,1727440579777,-0.15942383,-1.0442505,0.06903076,-0.40625,-24.5,-5.359375
53,53,1727440579817,-0.12182617,-1.1577759,0.026550293,0.171875,-18.96875,-5.421875
54,54,1727440579857,-0.123046875,-1.1084595,0.074401855,-1.53125,-11.015625,-4.796875
55,55,1727440579897,-0.013427734,-1.1021118,0.0028686523,-4.71875,1.953125,-4.109375
56,56,1727440579937,-0.07543945,-1.0159302,-0.021057129,-4.03125,7.328125,-2.328125
57,57,1727440579977,0.09448242,-0.9192505,-0.1506958,-2.25,9.65625,-1.8125
58,58,1727440580017,0.20288086,-0.89312744,-0.18878174,6.125,5.84375,2.421875
59,59,1727440580057,0.33154297,-0.9373169,-0.17803955,7.15625,-3.859375,8.09375
60,60,1727440580097,0.21801758,-1.0794067,-0.12310791,9.5,-10.078125,14.21875
61,61,1727440580137,0.001953125,-1.1680298,-0.024230957,2.34375,-4.984375,13.78125
62,62,1727440580177,-0.03857422,-1.0606079,0.02532959,-0.921875,4.96875,9.890625
63,63,1727440580217,0.043945312,-0.9885864,0.047302246,-4.515625,16.3125,10.078125
64,64,1727440580257,0.06567383,-0.9365845,-0.03668213,-7.625,17.796875,9.515625
65,65,1727440580297,0.119140625,-0.8899536,-0.008361816,-7.109375,19.53125,8.421875
66,66,1727440580337,0.14941406,-0.928772,-0.0022583008,-1.03125,16.234375,7.765625
67,67,1727440580377,0.18920898,-0.9368286,-0.0056762695,-1.546875,12.859375,8.796875
68,68,1727440580417,0.13696289,-0.9273071,0.055847168,-2.6875,12.03125,9.28125
69,69,1727440580457,0.11010742,-0.9011841,0.05609131,-1.421875,10.515625,7.234375
70,70,1727440580497,0.0871582,-0.9356079,0.08880615,1.03125,11.390625,5.1875
71,71,1727440580537,0.016601562,-0.9282837,0.105895996,2.421875,12.78125,3.609375
72,72,1727440580577,0.061523438,-0.9319458,0.07220459,3.140625,14.890625,2.265625
73,73,1727440580617,0.055664062,-0.9273071,0.098083496,3.1875,14.875,0.96875
74,74,1727440580657,0.046875,-0.90045166,0.055603027,5.03125,13.046875,-1.28125
75,75,1727440580697,0.06958008,-0.9522095,0.074157715,4.96875,12.78125,-1.6875
76,76,1727440580737,0.023925781,-0.95440674,0.08929443,2.140625,13.328125,-3.859375
77,77,1727440580777,-0.036376953,-0.9578247,0.14447021,-2.71875,14.671875,-10.28125
78,78,1727440580817,0.22290039,-1.2546997,-0.3237915,15.6875,-9.46875,-16.390625
79,79,1727440580857,0.28955078,-1.3345337,-0.1921997,0.09375,-15.53125,-11.359375
80,80,1727440580897,0.032714844,-1.1465454,-0.058898926,-9.40625,-14.40625,-17.75
81,81,1727440580937,0.29736328,-1.1924438,-0.051574707,-3.890625,-13.0625,-11.96875
82,82,1727440580977,0.20825195,-0.9602661,-0.15509033,-4.46875,-9.1875,-6.703125
83,83,1727440581017,0.12207031,-0.83477783,-0.1807251,2.3125,-8.34375,-3.171875
84,84,1727440581057,0.17407227,-0.85528564,-0.1585083,2.453125,-4.015625,-2.046875
85,85,1727440581097,0.17236328,-0.89508057,-0.1716919,0.5,-3.546875,-3.046875
86,86,1727440581137,0.11328125,-0.95391846,-0.16192627,-1.28125,-8.96875,-2.09375
87,87,1727440581177,0.037597656,-0.9260864,-0.109680176,-3.484375,-12.53125,-3.328125
88,88,1727440581217,0.032226562,-0.9690552,-0.08258057,-3.53125,-12.203125,-3.484375
89,89,1727440581257,0.004638672,-0.95977783,-0.07208252,-2.4375,-14.296875,-2.65625
90,90,1727440581297,-0.011962891,-1.0020142,0.007751465,-1.1875,-13.546875,-2.625
91,91,1727440581337,0.0056152344,-0.9937134,0.01361084,2.875,-14.609375,-1.546875
92,92,1727440581377,-0.041015625,-0.94073486,0.035095215,3.390625,-13.03125,-1.09375
93,93,1727440581417,-0.095947266,-0.96759033,-0.003967285,5.734375,-10.625,-0.640625
94,94,1727440581457,-0.114990234,-0.96881104,-0.014221191,4.75,-6.546875,-0.296875
95,95,1727440581497,-0.13378906,-0.96661377,-0.027893066,4.15625,-2.75,0.09375
96,96,1727440581537,-0.119628906,-0.9434204,-0.00030517578,1.375,-1.328125,-0.59375
97,97,1727440581577,-0.044677734,-0.90997314,-0.06842041,2.5,-3.953125,-0.28125
98,98,1727440581617,-0.0068359375,-0.93341064,-0.003479004,-2.75,-3.5,0.875
99,99,1727440581657,-0.13452148,-1.0545044,0.06439209,-4.1875,-4.484375,-0.921875
100,100,1727440581697,-0.03515625,-1.2522583,0.07196045,-6.15625,0.703125,-3.75
101,101,1727440581737,-0.027832031,-1.232727,-0.007873535,-10.65625,-0.703125,-4.0
102,102,1727440581777,0.1274414,-1.1675415,-0.07501221,-7.25,-3.390625,-7.53125
103,103,1727440581817,0.16088867,-1.0154419,-0.16680908,-6.53125,-2.671875,-6.046875
104,104,1727440581857,0.11303711,-0.8765259,-0.11480713,-7.609375,-3.125,-2.8125
105,105,1727440581897,0.17529297,-0.81866455,-0.11016846,1.859375,-5.921875,0.015625
106,106,1727440581937,0.19042969,-0.8623657,-0.09210205,5.59375,-8.0,2.53125
107,107,1727440581977,0.05859375,-1.0462036,-0.0881958,6.6875,-8.21875,6.1875
108,108,1727440582017,0.009521484,-1.0401001,-0.04937744,-0.359375,-0.265625,4.5
109,109,1727440582057,0.018554688,-0.9981079,0.021911621,-3.546875,4.703125,3.4375
110,110,1727440582097,0.087890625,-0.9187622,0.030212402,-1.640625,2.578125,4.078125
111,111,1727440582137,0.07739258,-0.89508057,0.03338623,0.921875,1.78125,6.5625
112,112,1727440582177,0.048339844,-0.9819946,0.04876709,3.84375,1.578125,6.109375
113,113,1727440582217,0.040527344,-0.9812622,0.066345215,2.234375,4.1875,4.484375
114,114,1727440582257,-0.011474609,-0.9849243,0.078063965,1.40625,7.578125,1.453125
115,115,1727440582297,0.0087890625,-0.9841919,0.11834717,-1.265625,8.890625,-0.71875
116,116,1727440582337,0.0078125,-0.9937134,0.10809326,-2.390625,11.625,-2.0
117,117,1727440582377,-0.0068359375,-0.9678345,0.13812256,-3.234375,13.15625,-3.140625
118,118,1727440582417,-0.0021972656,-0.94366455,0.12225342,-6.125,15.703125,-5.375
119,119,1727440582457,0.063964844,-0.9776001,0.15374756,-5.625,16.859375,-6.296875
120,120,1727440582497,0.05859375,-1.0349731,0.18963623,-7.359375,12.78125,-8.015625
121,121,1727440582537,0.06616211,-1.0449829,0.117126465,-8.625,7.84375,-10.015625
122,122,1727440582577,0.0859375,-1.1636353,-0.053527832,-3.5,-7.015625,-11.640625
123,123,1727440582617,0.016113281,-1.0691528,0.047546387,-12.640625,-11.796875,-8.828125
124,124,1727440582657,-0.1105957,-1.0003052,-0.02178955,-9.3125,-18.0625,-10.78125
125,125,1727440582697,-0.0012207031,-1.0352173,0.030944824,-7.0625,-19.8125,-4.890625
126,126,1727440582737,-0.14501953,-0.9085083,0.006286621,-6.234375,-13.15625,-6.296875
127,127,1727440582777,-0.079833984,-0.94488525,-0.18878174,13.546875,-8.953125,-0.375
128,128,1727440582817,0.09716797,-0.98223877,-0.19000244,8.8125,-0.828125,5.59375
129,129,1727440582857,0.12695312,-1.1213989,-0.022766113,4.234375,-0.421875,8.625
130,130,1727440582897,0.012451172,-1.0442505,-0.004699707,4.15625,-9.640625,6.5625
131,131,1727440582937,-0.091796875,-0.8587036,-0.02154541,6.4375,-20.546875,2.15625
132,132,1727440582977,-0.08642578,-0.84747314,-0.07501221,12.34375,-23.796875,-1.140625
133,133,1727440583017,-0.092285156,-0.91192627,-0.045959473,9.609375,-20.796875,1.0
134,134,1727440583057,-0.119140625,-0.9963989,-0.006652832,3.90625,-15.921875,2.03125
135,135,1727440583097,-0.06762695,-1.0110474,-0.0049438477,2.359375,-14.734375,1.546875
136,136,1727440583137,-0.10668945,-1.0071411,0.024108887,2.8125,-14.0,0.09375
137,137,1727440583177,-0.02709961,-0.9885864,-0.042053223,2.34375,-14.390625,1.40625
138,138,1727440583217,-0.067871094,-1.005188,0.0446167,-1.375,-17.609375,1.578125
139,139,1727440583257,-0.1772461,-1.102356,0.06317139,-1.84375,-18.71875,-2.65625
140,140,1727440583297,-0.24414062,-1.1069946,0.082214355,2.9375,-20.125,-3.90625
141,141,1727440583337,-0.28271484,-1.0484009,0.038024902,7.625,-13.234375,-2.953125
142,142,1727440583377,-0.21850586,-0.89068604,-0.025939941,11.203125,0.78125,3.65625
143,143,1727440583417,-0.40405273,-0.94415283,0.015563965,12.5,17.0,4.0
144,144,1727440583457,-0.13354492,-0.9234009,-0.039855957,6.3125,30.484375,9.015625
145,145,1727440583497,-0.07128906,-0.8074341,-0.04156494,-6.484375,27.890625,11.0
146,146,1727440583537,0.06640625,-0.76348877,-0.010559082,-17.46875,11.0,-0.203125
147,147,1727440583577,0.28198242,-1.548645,-0.17340088,9.140625,16.34375,-11.6875
148,148,1727440583617,0.46533203,-1.1577759,-0.20367432,-6.4375,-0.390625,0.015625
149,149,1727440583657,0.1262207,-1.0723267,-0.12261963,-0.109375,-11.09375,-1.703125
150,150,1727440583697,0.08227539,-1.0703735,-0.21588135,9.8125,-22.28125,2.859375
151,151,1727440583737,0.034179688,-1.0169067,-0.13067627,4.140625,-11.21875,8.65625
152,152,1727440583777,-0.083496094,-0.91192627,-0.018371582,2.484375,-2.90625,9.578125
153,153,1727440583817,-0.076660156,-0.8010864,0.03387451,-1.484375,5.609375,7.46875
154,154,1727440583857,0.013671875,-0.76031494,0.00091552734,-0.296875,10.265625,8.125
155,155,1727440583897,0.020751953,-0.82159424,0.009216309,2.171875,11.5625,9.1875
156,156,1727440583937,-0.009765625,-0.9299927,0.07293701,-2.03125,17.0,7.921875
157,157,1727440583977,-0.018310547,-0.92755127,0.089782715,-1.53125,19.25,3.953125
158,158,1727440584017,0.03100586,-0.91973877,0.08099365,-0.765625,18.59375,0.578125
159,159,1727440584057,0.029052734,-0.9338989,0.026794434,-2.5625,17.484375,-2.25
160,160,1727440584097,-0.028808594,-0.9573364,0.14349365,-12.3125,18.65625,-6.4375
161,161,1727440584137,-0.12939453,-1.0266724,0.08270264,-12.625,21.0625,-14.328125
162,162,1727440584177,0.19628906,-1.3709106,-0.2954712,-0.453125,2.640625,-16.75
163,163,1727440584217,0.052246094,-1.2302856,0.09466553,-22.671875,3.171875,-13.015625
164,164,1727440584257,-0.13989258,-1.1245728,-0.18780518,-14.03125,-4.28125,-20.8125
165,165,1727440584297,0.15185547,-1.0662231,-0.061340332,-10.140625,2.59375,-7.984375
166,166,1727440584337,0.02758789,-1.0110474,-0.13873291,-6.90625,4.703125,-5.28125
167,167,1727440584377,0.067871094,-0.9741821,-0.1843872,7.375,6.171875,-0.5
168,168,1727440584417,0.052734375,-0.97857666,-0.19976807,10.015625,3.90625,1.71875
169,169,1727440584457,0.05126953,-0.9573364,-0.1362915,6.40625,5.765625,3.0
170,170,1727440584497,-0.0048828125,-0.91851807,-0.06011963,5.21875,0.921875,3.046875
171,171,1727440584537,-0.056396484,-0.90289307,-0.03741455,5.828125,-1.609375,2.734375
172,172,1727440584577,-0.0056152344,-0.928772,-0.070373535,10.28125,-4.953125,2.9375
173,173,1727440584617,-0.038085938,-0.95318604,-0.057922363,8.78125,-6.984375,3.796875
174,174,1727440584657,-0.057861328,-0.9951782,-0.042785645,6.015625,-10.953125,2.4375
175,175,1727440584697,-0.03466797,-0.9595337,-0.019348145,2.515625,-15.15625,1.359375
176,176,1727440584737,-0.07788086,-0.95684814,0.0045776367,0.90625,-16.953125,-0.109375
177,177,1727440584777,-0.06323242,-0.9402466,0.00018310547,-0.796875,-23.671875,-1.6875
178,178,1727440584817,-0.057373047,-0.9788208,-0.0010375977,-0.859375,-25.28125,-1.421875
179,179,1727440584857,-0.088134766,-1.0227661,-0.010803223,-1.484375,-24.453125,-0.4375
180,180,1727440584897,-0.11767578,-1.0213013,0.019714355,-1.75,-25.65625,-0.3125
181,181,1727440584937,-0.119140625,-1.0308228,0.039001465,-5.296875,-27.28125,-0.65625
182,182,1727440584977,-0.16015625,-0.99664307,0.058776855,-7.96875,-28.90625,-1.484375
183,183,1727440585017,-0.17382812,-0.9883423,0.13226318,-11.015625,-32.375,-4.71875
184,184,1727440585057,-0.19311523,-1.1582642,0.0848999,-4.4375,-23.203125,-6.921875
185,185,1727440585097,-0.09082031,-1.0249634,-0.02520752,1.890625,-15.375,-5.421875
186,186,1727440585137,-0.08520508,-0.9883423,-0.03302002,-1.78125,-9.546875,-4.265625
187,187,1727440585177,-0.048828125,-1.0298462,-0.00982666,-1.375,-6.96875,-5.703125
188,188,1727440585217,0.040527344,-1.0029907,-0.10430908,0.203125,-6.296875,-4.8125
189,189,1727440585257,0.14331055,-1.0530396,-0.062316895,-1.359375,-6.09375,-1.984375
190,190,1727440585297,0.12109375,-0.9067993,-0.07305908,1.828125,-13.375,3.1875
191,191,1727440585337,0.040527344,-0.8994751,-0.066223145,8.140625,-16.625,3.828125
192,192,1727440585377,-0.11376953,-1.0630493,-0.050109863,10.4375,-10.09375,3.671875
193,193,1727440585417,-0.051757812,-1.0923462,-0.0647583,3.078125,2.625,7.078125
194,194,1727440585457,0.027832031,-0.9702759,0.022155762,-4.765625,9.796875,9.046875
195,195,1727440585497,0.024169922,-0.92974854,0.028259277,-4.0,8.75,9.171875
196,196,1727440585537,0.0048828125,-0.91241455,0.023864746,0.484375,8.65625,8.71875
197,197,1727440585577,-0.012207031,-0.94366455,0.015075684,4.0,11.40625,7.734375
198,198,1727440585617,-0.046142578,-0.98150635,0.02557373,2.515625,15.75,6.515625
199,199,1727440585657,-0.09741211,-0.98272705,0.05609131,-0.46875,21.96875,4.4375
200,200,1727440585697,-0.057128906,-0.9507446,0.074401855,1.859375,25.546875,3.1875
201,201,1727440585737,-0.07104492,-0.96661377,0.045837402,0.0625,27.25,1.875
202,202,1727440585777,-0.03930664,-0.9522095,0.046813965,0.03125,30.609375,1.609375
203,203,1727440585817,-0.06933594,-1.0010376,0.09613037,-4.15625,34.046875,-0.515625
204,204,1727440585857,-0.07788086,-0.9961548,0.078063965,-5.84375,33.609375,-3.375
205,205,1727440585897,-0.03466797,-1.0012817,0.11419678,-10.59375,31.515625,-6.421875
206,206,1727440585937,-0.049560547,-1.0918579,-0.011047363,-10.59375,22.21875,-10.421875
207,207,1727440585977,0.018798828,-1.1721802,0.047058105,-12.625,19.0,-8.90625
208,208,1727440586017,-0.10864258,-1.1113892,-0.07476807,-12.34375,14.078125,-11.671875
209,209,1727440586057,0.10913086,-1.1878052,0.089538574,-10.71875,15.15625,-2.96875
210,210,1727440586097,-0.032958984,-1.005188,0.014099121,-10.203125,16.578125,-5.140625
211,211,1727440586137,-0.0021972656,-0.8936157,-0.097473145,9.734375,14.796875,-1.5
212,212,1727440586177,0.0073242188,-0.8731079,-0.17901611,16.40625,18.96875,-0.09375
213,213,1727440586217,0.11645508,-0.93048096,-0.24053955,14.5625,19.359375,3.078125
214,214,1727440586257,0.05444336,-0.9883423,-0.101379395,5.671875,21.03125,3.765625
215,215,1727440586297,-0.03125,-0.9678345,-0.034484863,1.734375,15.90625,1.140625
216,216,1727440586337,-0.083496094,-0.9234009,-0.018859863,2.453125,10.796875,-1.515625
217,217,1727440586377,-0.0024414062,-0.927063,-0.07623291,5.828125,5.15625,-1.75
218,218,1727440586417,0.04736328,-0.9624634,-0.07891846,0.15625,0.125,0.96875
219,219,1727440586457,0.021728516,-0.97125244,0.00579834,1.15625,-5.640625,2.4375
220,220,1727440586497,-0.016601562,-0.9849243,0.014587402,1.609375,-12.9375,2.640625
221,221,1727440586537,-0.051513672,-0.97076416,-0.012756348,3.859375,-19.859375,2.34375
222,222,1727440586577,-0.078125,-0.9631958,0.04095459,0.140625,-24.90625,1.359375
223,223,1727440586617,-0.10571289,-0.9805298,0.039001465,0.359375,-29.296875,-0.59375
224,224,1727440586657,-0.11254883,-1.0005493,0.048034668,-2.703125,-33.171875,-1.5
225,225,1727440586697,-0.19921875,-1.0505981,0.059509277,-5.453125,-34.484375,-3.21875
226,226,1727440586737,-0.21728516,-1.0120239,0.10882568,-6.4375,-34.75,-4.890625
227,227,1727440586777,-0.22045898,-1.0054321,0.124694824,-10.046875,-32.578125,-7.234375
228,228,1727440586817,-0.25561523,-1.0271606,0.1630249,-10.609375,-28.25,-9.4375
229,229,1727440586857,-0.2163086,-1.1087036,0.0836792,-5.109375,-17.109375,-10.71875
230,230,1727440586897,0.01586914,-1.1106567,0.043884277,-7.140625,-14.40625,-10.0625
231,231,1727440586937,-0.06518555,-1.0515747,-0.031066895,2.734375,-9.0,-4.015625
232,232,1727440586977,0.05444336,-0.8765259,-0.036193848,-0.609375,-9.875,-4.765625
233,233,1727440587017,0.016845703,-0.92852783,-0.07232666,6.1875,-14.171875,-0.59375
234,234,1727440587057,0.1027832,-0.90411377,-0.05206299,3.9375,-16.0625,4.890625
235,235,1727440587097,0.07006836,-0.9907837,0.010437012,6.296875,-17.921875,7.4375
236,236,1727440587137,-0.015380859,-1.1106567,-0.008605957,7.96875,-15.515625,8.921875
237,237,1727440587177,-0.008300781,-1.050354,0.04559326,-0.140625,-4.296875,11.4375
238,238,1727440587217,0.0041503906,-0.9661255,0.059509277,-0.65625,-2.15625,11.140625
239,239,1727440587257,0.033447266,-0.8826294,0.053894043,-1.234375,-2.984375,11.171875
240,240,1727440587297,0.07348633,-0.8255005,0.12030029,0.5,-2.234375,10.8125
241,241,1727440587337,-0.14648438,-1.0552368,0.04901123,4.65625,-0.078125,4.75
242,242,1727440587377,-0.13500977,-1.0361938,0.047058105,4.59375,11.828125,7.609375
243,243,1727440587417,0.033203125,-0.9224243,0.030456543,4.46875,15.25,3.859375
244,244,1727440587457,0.068359375,-1.0022583,0.009460449,4.75,12.390625,9.390625
245,245,1727440587497,0.09472656,-0.9951782,0.0848999,5.125,11.90625,9.546875
246,246,1727440587537,0.009765625,-0.98687744,0.10369873,5.265625,9.078125,7.25
247,247,1727440587577,-0.04638672,-0.97979736,0.105651855,3.8125,10.609375,3.484375
248,248,1727440587617,-0.04736328,-0.9077759,0.14007568,-1.46875,14.421875,1.53125
249,249,1727440587657,-0.10449219,-0.8862915,0.15203857,-3.96875,15.71875,-1.359375
250,250,1727440587697,-0.03491211,-0.9126587,0.17108154,-7.90625,17.140625,-5.171875
251,251,1727440587737,-0.12475586,-0.91900635,0.23846436,-12.390625,19.28125,-10.78125
252,252,1727440587777,-0.13891602,-1.046936,-0.022277832,-0.703125,11.96875,-15.71875
253,253,1727440587817,0.26879883,-1.4800415,-0.08892822,0.8125,6.0625,-17.328125
254,254,1727440587857,-0.15820312,-1.1970825,-0.008605957,-16.953125,12.546875,-14.53125
255,255,1727440587897,0.31030273,-1.2810669,-0.09283447,-4.8125,6.78125,-10.328125
256,256,1727440587937,0.06982422,-0.99542236,-0.15460205,-8.6875,14.609375,-4.71875
257,257,1727440587977,-0.025878906,-0.8533325,-0.12384033,1.03125,18.0,0.328125
258,258,1727440588017,0.06542969,-0.9546509,-0.1116333,3.328125,18.6875,-0.984375
259,259,1727440588057,-0.013427734,-0.8272095,-0.12408447,4.0,17.25,0.921875
260,260,1727440588097,-0.04663086,-0.942688,-0.105773926,4.125,13.90625,0.40625
261,261,1727440588137,-0.013183594,-0.9866333,-0.045715332,2.34375,16.140625,1.5
262,262,1727440588177,-0.06225586,-0.9846802,-0.011047363,0.546875,13.640625,1.734375
263,263,1727440588217,0.018310547,-0.94781494,-0.018127441,1.53125,8.875,2.328125
264,264,1727440588257,-0.014160156,-0.9282837,0.022155762,0.859375,4.890625,2.796875
265,265,1727440588297,-0.06665039,-0.9421997,0.016296387,1.59375,0.515625,2.765625
266,266,1727440588337,-0.064453125,-0.95269775,0.024108887,0.625,-1.640625,2.921875
267,267,1727440588377,-0.09692383,-0.97198486,0.017028809,-1.296875,-4.21875,2.46875
268,268,1727440588417,-0.091552734,-0.9331665,0.05316162,-1.953125,-7.5625,2.390625
269,269,1727440588457,-0.06347656,-0.93170166,0.030212402,0.078125,-8.875,2.046875
270,270,1727440588497,-0.07885742,-0.97003174,0.06121826,1.59375,-13.328125,1.9375
271,271,1727440588537,-0.1171875,-1.0278931,0.06561279,0.984375,-17.59375,2.1875
272,272,1727440588577,-0.23071289,-1.0930786,0.12420654,-2.015625,-15.953125,-0.328125
273,273,1727440588617,-0.20898438,-1.1116333,0.19696045,-5.65625,-14.8125,-4.8125
274,274,1727440588657,-0.12133789,-1.1502075,0.09173584,-1.53125,-10.828125,-6.09375
275,275,1727440588697,-0.052001953,-1.11969,0.008728027,-2.15625,-3.34375,-5.0625
276,276,1727440588737,0.040771484,-1.1279907,-0.0010375977,-5.375,1.046875,-6.1875
277,277,1727440588777,0.05859375,-1.0322876,-0.06378174,-2.65625,3.109375,-4.703125
278,278,1727440588817,0.1694336,-0.86798096,-0.09674072,0.375,0.828125,-6.125
279,279,1727440588857,0.16015625,-0.8213501,-0.11138916,3.53125,-3.234375,-0.5625
280,280,1727440588897,0.19580078,-1.0130005,-0.09454346,4.65625,-8.0625,2.890625
281,281,1727440588937,0.10571289,-1.0794067,-0.0256958,-0.453125,-10.671875,6.359375
282,282,1727440588977,-0.033203125,-0.986145,0.050964355,-3.234375,-9.515625,3.609375
283,283,1727440589017,-0.014160156,-0.9578247,0.06976318,0.234375,-11.03125,1.046875
284,284,1727440589057,-0.059326172,-0.911438,0.07928467,-0.984375,-4.984375,2.671875
285,285,1727440589097,-0.021728516,-0.9133911,0.0914917,-1.390625,1.3125,3.875
286,286,1727440589137,-0.055908203,-0.96759033,0.13201904,-0.0625,4.796875,3.8125
287,287,1727440589177,-0.0012207031,-0.94854736,0.11077881,1.109375,7.890625,2.125
288,288,1727440589217,-0.03930664,-0.9627075,0.11444092,2.28125,7.5625,0.96875
289,289,1727440589257,-0.052734375,-0.92193604,0.1473999,1.046875,9.625,0.234375
290,290,1727440589297,-0.037841797,-0.9458618,0.1227417,2.328125,10.40625,-2.15625
291,291,1727440589337,-0.029541016,-1.0359497,0.14886475,0.796875,9.8125,-1.640625
292,292,1727440589377,-0.060302734,-1.0772095,0.18792725,-3.171875,12.75,-2.109375
293,293,1727440589417,-0.07348633,-1.0205688,0.17889404,-4.65625,10.21875,-4.5
294,294,1727440589457,-0.011474609,-1.0252075,0.16497803,-5.65625,4.0,-5.375
295,295,1727440589497,-0.036132812,-1.0535278,0.08026123,-4.453125,-6.015625,-7.578125
296,296,1727440589537,-0.064697266,-1.0886841,-0.006652832,-0.96875,-9.890625,-7.46875
297,297,1727440589577,0.07836914,-1.144104,0.07293701,-3.6875,-10.25,-2.40625
298,298,1727440589617,-0.055419922,-0.8826294,0.019470215,-6.578125,-6.71875,-5.65625
299,299,1727440589657,0.015380859,-0.8518677,-0.089416504,5.234375,-3.8125,0.453125
300,300,1727440589697,0.02709961,-0.9326782,-0.1038208,8.078125,0.4375,0.546875
301,301,1727440589737,0.0703125,-1.0276489,-0.09942627,5.203125,2.703125,2.171875
302,302,1727440589777,-0.06713867,-1.0857544,-0.007385254,1.6875,1.5625,-0.453125
303,303,1727440589817,-0.095703125,-0.9614868,0.010681152,0.671875,2.265625,-1.84375
304,304,1727440589857,-0.08251953,-0.9319458,0.017028809,1.171875,3.46875,-0.828125
305,305,1727440589897,-0.041992188,-0.94317627,-0.007873535,3.453125,1.4375,1.359375
306,306,1727440589937,-0.033691406,-0.9585571,-0.016174316,4.890625,-2.6875,2.796875
307,307,1727440589977,-0.057373047,-0.98028564,0.010437012,4.078125,-6.09375,1.578125
308,308,1727440590017,-0.1027832,-0.97052,0.020935059,3.71875,-10.546875,1.65625
309,309,1727440590057,-0.1105957,-1.0161743,0.02947998,4.40625,-13.671875,0.46875
310,310,1727440590097,-0.119384766,-0.99420166,0.008239746,6.53125,-13.71875,1.3125
311,311,1727440590137,-0.08959961,-0.9998169,0.038269043,3.921875,-17.03125,2.640625
312,312,1727440590177,-0.18847656,-1.0586548,0.13250732,-0.828125,-17.078125,0.578125
313,313,1727440590217,-0.28515625,-1.0576782,0.09466553,1.6875,-13.015625,-2.34375
314,314,1727440590257,-0.18823242,-1.0305786,0.14422607,-0.109375,-16.21875,-2.84375
315,315,1727440590297,-0.19262695,-0.98101807,-0.02520752,5.96875,-8.21875,-0.71875
316,316,1727440590337,0.064697266,-0.96539307,-0.08917236,5.46875,-1.109375,-0.046875
317,317,1727440590377,-0.0024414062,-0.9890747,-0.02960205,3.5,-0.25,2.4375
318,318,1727440590417,0.079589844,-0.90631104,-0.07720947,4.078125,1.4375,1.484375
319,319,1727440590457,0.107666016,-0.9702759,-0.04864502,5.734375,-1.234375,4.265625
320,320,1727440590497,0.13623047,-1.0230103,-0.06817627,5.75,-4.296875,7.421875
321,321,1727440590537,0.06591797,-1.1270142,0.009216309,1.859375,-5.609375,9.78125
322,322,1727440590577,0.087890625,-1.1099243,0.04876709,1.359375,-5.953125,10.421875
323,323,1727440590617,0.040283203,-1.0125122,0.07293701,0.484375,-10.671875,8.859375
324,324,1727440590657,-0.028564453,-0.94317627,0.09075928,1.625,-9.8125,6.171875
325,325,1727440590697,-0.11352539,-0.8897095,0.14764404,0.265625,-1.828125,3.875
326,326,1727440590737,-0.099853516,-0.8831177,0.19744873,-4.0,4.015625,0.96875
327,327,1727440590777,-0.07543945,-0.83062744,0.19989014,-10.34375,10.0,-1.359375
328,328,1727440590817,-0.05517578,-0.8032837,0.18353271,-12.765625,16.21875,-5.859375
329,329,1727440590857,-0.019042969,-0.8858032,0.025817871,-10.734375,16.65625,-11.984375
330,330,1727440590897,0.23608398,-1.5029907,-0.21002197,-1.6875,-4.171875,-15.640625
331,331,1727440590937,-0.13354492,-1.2229614,-0.13067627,-20.265625,8.640625,-10.71875
332,332,1727440590977,-0.044921875,-0.9651489,-0.046203613,-4.703125,16.734375,-8.671875
333,333,1727440591017,0.032226562,-1.0564575,-0.16656494,3.640625,17.96875,-6.234375
334,334,1727440591057,-0.029785156,-1.0393677,-0.22491455,3.375,22.90625,-2.890625
335,335,1727440591097,0.044189453,-1.0244751,-0.15264893,3.15625,25.171875,-2.671875
336,336,1727440591137,0.02709961,-0.9607544,-0.113098145,3.8125,21.53125,-0.671875
337,337,1727440591177,-0.040283203,-0.93829346,-0.08843994,4.328125,17.921875,-0.921875
338,338,1727440591217,-0.056396484,-0.91070557,-0.08843994,10.265625,17.515625,-0.015625
339,339,1727440591257,-0.09448242,-0.9475708,-0.09161377,9.265625,15.328125,-1.75
340,340,1727440591297,-0.051757812,-0.9534302,-0.0803833,7.40625,12.328125,-0.84375
341,341,1727440591337,-0.018798828,-0.9829712,-0.070129395,5.734375,8.0625,0.390625
342,342,1727440591377,-0.03491211,-0.9927368,-0.054992676,4.09375,4.21875,2.265625
343,343,1727440591417,-0.071777344,-0.9805298,-0.061584473,5.8125,-1.65625,2.234375
344,344,1727440591457,-0.064453125,-0.9890747,-0.03302002,3.78125,-3.4375,2.765625
345,345,1727440591497,-0.095458984,-0.9680786,-0.011291504,1.171875,-6.90625,2.828125
346,346,1727440591537,-0.09887695,-0.96466064,-0.002746582,3.375,-9.484375,2.875
347,347,1727440591577,-0.14038086,-0.9727173,0.0004272461,2.9375,-12.84375,1.234375
348,348,1727440591617,-0.13647461,-0.9673462,-0.024719238,2.96875,-15.0625,0.921875
349,349,1727440591657,-0.13134766,-0.9949341,0.00579834,-0.109375,-15.609375,0.625
350,350,1727440591697,-0.13256836,-0.96832275,0.007019043,-3.90625,-19.0625,0.734375
351,351,1727440591737,-0.16357422,-0.9067993,0.027526855,-7.640625,-22.28125,0.109375
352,352,1727440591777,-0.26416016,-0.928772,0.113708496,-12.296875,-25.984375,-4.46875
353,353,1727440591817,-0.19482422,-1.0735474,0.19036865,-17.0625,-27.09375,-8.46875
354,354,1727440591857,-0.07373047,-1.3345337,0.086120605,-6.71875,-13.015625,-9.53125
355,355,1727440591897,-0.022705078,-1.0501099,-0.058898926,-8.15625,-8.375,-2.296875
356,356,1727440591937,-0.017333984,-0.90216064,0.016540527,-7.296875,-8.390625,-6.4375
357,357,1727440591977,0.06665039,-1.0513306,-0.085510254,1.234375,-7.296875,-5.859375
358,358,1727440592017,0.21289062,-1.083313,-0.112854004,0.859375,-10.296875,-3.46875
359,359,1727440592057,0.0390625,-1.1126099,-0.03375244,-0.796875,-12.171875,0.109375
360,360,1727440592097,0.015136719,-0.96099854,-0.018127441,0.578125,-7.984375,4.3125
361,361,1727440592137,-0.057128906,-0.9163208,0.05999756,3.21875,-4.0625,4.515625
362,362,1727440592177,-0.022460938,-0.9710083,0.010192871,3.984375,3.8125,7.15625
363,363,1727440592217,0.029785156,-0.8858032,0.059020996,-2.5625,13.890625,9.359375
364,364,1727440592257,0.026855469,-0.93756104,0.026794434,2.515625,11.453125,7.3125
365,365,1727440592297,0.056884766,-0.95928955,0.04119873,2.90625,10.703125,7.65625
366,366,1727440592337,0.032958984,-0.8899536,0.09613037,3.546875,12.203125,7.453125
367,367,1727440592377,-0.14697266,-1.0952759,0.06121826,6.125,13.890625,1.3125
368,368,1727440592417,-0.12475586,-1.038147,0.070495605,2.640625,23.375,3.9375
369,369,1727440592457,0.015380859,-0.90289307,0.043884277,4.546875,24.9375,2.96875
370,370,1727440592497,0.07470703,-0.97125244,-0.019592285,6.703125,19.953125,6.046875
371,371,1727440592537,0.10595703,-0.94610596,0.0060424805,5.84375,17.1875,7.9375
372,372,1727440592577,0.01977539,-0.9859009,0.09686279,1.5625,16.65625,6.578125
373,373,1727440592617,-0.03930664,-0.9763794,0.10784912,1.78125,12.328125,2.046875
374,374,1727440592657,-0.07055664,-0.895813,0.13861084,-0.703125,15.03125,-0.9375
375,375,1727440592697,-0.04248047,-0.9209595,0.121032715,-1.171875,14.515625,-3.046875
376,376,1727440592737,-0.08105469,-0.98028564,0.14422607,-5.671875,15.796875,-5.890625
377,377,1727440592777,-0.10205078,-0.991272,0.16522217,-11.640625,17.21875,-9.5625
378,378,1727440592817,-0.12768555,-1.1130981,0.031921387,-8.359375,10.671875,-14.765625
379,379,1727440592857,0.122802734,-1.2456665,-0.039367676,-4.59375,5.484375,-11.03125
380,380,1727440592897,-0.10668945,-1.0474243,0.0033569336,-13.40625,8.1875,-11.46875
381,381,1727440592937,0.13842773,-1.1445923,-0.08526611,-1.828125,1.4375,-8.09375
382,382,1727440592977,0.0021972656,-0.9673462,-0.13238525,-5.140625,8.03125,-3.71875
383,383,1727440593017,0.03930664,-0.94073486,-0.17340088,3.796875,8.578125,1.8125
384,384,1727440593057,0.06567383,-1.0083618,-0.074279785,7.1875,13.90625,4.203125
385,385,1727440593097,-0.018798828,-0.93951416,-0.062561035,2.34375,11.125,2.40625
386,386,1727440593137,-0.052490234,-0.8999634,-0.036193848,4.828125,9.375,1.71875
387,387,1727440593177,-0.071777344,-0.9011841,-0.06304932,7.671875,5.234375,2.640625
388,388,1727440593217,-0.0063476562,-0.9356079,-0.059143066,6.375,2.53125,2.84375
389,389,1727440593257,-0.030761719,-1.0064087,-0.0029907227,4.234375,-1.921875,4.265625
390,390,1727440593297,-0.017578125,-0.9546509,0.007019043,2.046875,-8.15625,3.6875
391,391,1727440593337,-0.061523438,-0.9302368,0.022155762,0.890625,-12.125,3.125
392,392,1727440593377,-0.08911133,-0.95806885,-0.0037231445,4.046875,-15.4375,1.65625
393,393,1727440593417,-0.0690918,-0.9685669,0.015808105,3.5625,-16.953125,1.3125
394,394,1727440593457,-0.10864258,-0.99835205,0.017028809,-0.53125,-16.015625,-0.15625
395,395,1727440593497,-0.1508789,-1.0100708,0.028259277,-3.5,-18.515625,-2.421875
396,396,1727440593537,-0.19091797,-1.0337524,0.06951904,-5.078125,-17.71875,-3.640625
397,397,1727440593577,-0.19018555,-1.0325317,0.097839355,-9.53125,-15.453125,-4.984375
398,398,1727440593617,-0.10473633,-1.1152954,0.1161499,-6.40625,-14.171875,-5.203125
399,399,1727440593657,-0.08300781,-1.1819458,0.0048217773,-1.953125,-7.859375,-3.40625
400,400,1727440593697,-0.05493164,-1.0342407,0.008972168,-6.390625,-0.765625,-3.859375
401,401,1727440593737,0.12670898,-1.0545044,-0.051086426,-0.65625,-2.140625,-5.0625
402,402,1727440593777,0.10107422,-0.96759033,-0.061828613,1.328125,-0.8125,0.0625
403,403,1727440593817,0.12402344,-0.9326782,-0.046691895,3.96875,0.78125,2.375
404,404,1727440593857,0.10498047,-0.9026489,-0.06427002,5.4375,0.359375,4.53125
405,405,1727440593897,0.052978516,-0.97442627,-0.03326416,4.640625,1.46875,4.28125
406,406,1727440593937,0.056640625,-0.9758911,0.008239746,2.1875,1.40625,4.234375
407,407,1727440593977,0.04345703,-0.95196533,0.0072631836,0.578125,-0.796875,3.78125
408,408,1727440594017,0.021240234,-0.98394775,0.0119018555,3.4375,-1.609375,3.3125
409,409,1727440594057,-0.01586914,-0.99005127,0.039489746,2.625,-0.671875,3.125
410,410,1727440594097,-0.0053710938,-0.9854126,0.04925537,2.96875,0.453125,2.21875
411,411,1727440594137,-0.03125,-0.97491455,0.08026123,0.59375,2.734375,1.921875
412,412,1727440594177,-0.032470703,-0.9612427,0.07611084,2.078125,3.375,0.4375
413,413,1727440594217,-0.026367188,-0.96221924,0.098083496,0.671875,3.09375,0.09375
414,414,1727440594257,-0.0036621094,-0.9373169,0.0914917,0.65625,2.390625,-1.078125
415,415,1727440594297,-0.010009766,-0.9680786,0.117370605,-1.34375,2.21875,-1.0
416,416,1727440594337,-0.02709961,-0.944397,0.13128662,-1.171875,2.203125,-1.296875
417,417,1727440594377,-0.06591797,-0.9390259,0.11785889,-0.359375,1.875,-2.34375
418,418,1727440594417,-0.07714844,-0.99786377,0.13568115,-0.59375,5.125,-3.8125
419,419,1727440594457,-0.1171875,-1.0178833,0.14031982,-3.203125,9.140625,-5.484375
420,420,1727440594497,-0.059326172,-1.1494751,0.02923584,-3.5,4.65625,-8.890625
421,421,1727440594537,0.06591797,-1.1738892,0.003112793,-4.734375,-2.703125,-5.796875
422,422,1727440594577,-0.030517578,-1.0237427,0.073913574,-10.734375,-7.71875,-3.78125
423,423,1727440594617,-0.13085938,-1.0681763,-0.031311035,-5.734375,-11.015625,-7.953125
424,424,1727440594657,0.023925781,-1.0838013,-0.002746582,-5.953125,-3.734375,0.625
425,425,1727440594697,-0.07055664,-0.9492798,-0.04864502,-5.046875,-0.203125,-1.890625
426,426,1727440594737,-0.00048828125,-0.9024048,-0.109436035,3.21875,0.671875,0.359375
427,427,1727440594777,0.107421875,-0.9951782,-0.14093018,5.796875,4.421875,3.40625
428,428,1727440594817,-0.004638672,-1.0408325,-0.061340332,5.0625,7.875,5.640625
429,429,1727440594857,-0.0546875,-0.98028564,-0.042541504,1.671875,10.578125,2.671875
430,430,1727440594897,-0.056152344,-0.9338989,-0.03765869,2.671875,10.421875,0.765625
431,431,1727440594937,-0.06347656,-0.91607666,-0.04425049,4.8125,8.25,1.078125
432,432,1727440594977,-0.0107421875,-0.95806885,-0.05670166,4.78125,5.75,3.296875
433,433,1727440595017,-0.03466797,-0.98931885,0.016540527,2.546875,2.859375,3.890625
434,434,1727440595057,-0.046142578,-0.97125244,0.016540527,1.640625,1.09375,2.84375
435,435,1727440595097,-0.06665039,-1.0029907,0.024108887,1.15625,-4.15625,1.234375
436,436,1727440595137,-0.06933594,-0.958313,0.035827637,0.0625,-6.75,1.765625
437,437,1727440595177,-0.095214844,-0.9636841,0.062927246,-0.328125,-9.625,0.46875
438,438,1727440595217,-0.11328125,-0.97125244,0.04949951,-0.8125,-14.109375,-0.796875
439,439,1727440595257,-0.095703125,-0.9649048,0.04437256,-2.078125,-17.734375,-0.734375
440,440,1727440595297,-0.13916016,-0.9993286,0.089782715,-3.25,-22.203125,-2.046875
441,441,1727440595337,-0.17797852,-1.0151978,0.07513428,-3.515625,-23.203125,-3.25
442,442,1727440595377,-0.20019531,-1.048645,0.11956787,-2.84375,-20.40625,-4.578125
443,443,1727440595417,-0.16772461,-1.1172485,0.10101318,0.625,-10.75,-4.875
444,444,1727440595457,-0.12060547,-1.0420532,0.062438965,-3.703125,-5.90625,-5.5625
445,445,1727440595497,0.03930664,-1.1565552,0.03778076,-0.921875,-4.703125,-5.984375
446,446,1727440595537,0.030029297,-1.0134888,-0.013977051,-0.203125,0.75,-1.4375
447,447,1727440595577,0.08276367,-0.9265747,-0.015930176,-2.78125,4.359375,-2.90625
448,448,1727440595617,0.115478516,-0.92071533,-0.081848145,7.65625,-3.421875,-0.234375
449,449,1727440595657,0.1459961,-0.9470825,-0.08453369,7.265625,-5.5,2.59375
450,450,1727440595697,0.07348633,-0.9920044,-0.059387207,5.484375,-4.984375,5.1875
451,451,1727440595737,0.04638672,-1.0049438,-0.032287598,3.703125,-3.234375,5.203125
452,452,1727440595777,0.011962891,-1.02594,0.014831543,1.28125,-3.984375,4.890625
453,453,1727440595817,0.057373047,-0.95758057,0.0211792,-0.5,-0.640625,5.890625
454,454,1727440595857,0.08325195,-0.9417114,0.031921387,-1.046875,-4.1875,7.4375
455,455,1727440595897,-0.08325195,-1.0691528,-0.0178833,5.703125,-5.375,3.921875
456,456,1727440595937,0.01977539,-0.9351196,0.039978027,-1.3125,4.5625,5.0625
457,457,1727440595977,-0.060546875,-0.9776001,0.08856201,1.984375,3.53125,3.0625
458,458,1727440596017,0.020263672,-0.9990845,0.07611084,0.34375,5.15625,4.640625
459,459,1727440596057,-0.03515625,-0.9458618,0.13323975,0.671875,11.015625,6.09375
460,460,1727440596097,-0.015136719,-0.97442627,0.097595215,4.9375,14.640625,5.390625
461,461,1727440596137,0.00024414062,-0.97979736,0.070251465,3.4375,18.15625,6.09375
462,462,1727440596177,0.056152344,-0.9492798,0.058776855,6.5,22.171875,7.203125
463,463,1727440596217,0.060058594,-0.9885864,0.109069824,2.5625,25.28125,6.78125
464,464,1727440596257,-0.099365234,-1.0112915,0.1618042,2.609375,29.34375,3.3125
465,465,1727440596297,-0.07299805,-1.0039673,0.15325928,0.34375,34.125,0.359375
466,466,1727440596337,0.04711914,-0.9631958,0.17547607,-4.765625,33.609375,-1.6875
467,467,1727440596377,0.043701172,-0.9182739,0.058532715,-2.15625,20.6875,-3.5
468,468,1727440596417,0.33374023,-1.1421509,-0.14093018,1.359375,-5.4375,-8.09375
469,469,1727440596457,0.0859375,-1.2962036,0.04437256,-13.953125,-3.234375,-7.453125
470,470,1727440596497,-0.0703125,-1.0708618,-0.019592285,-7.390625,-5.671875,-9.859375
471,471,1727440596537,0.07519531,-1.0838013,-0.085754395,-3.265625,-2.234375,-2.828125
472,472,1727440596577,-0.056640625,-0.8609009,-0.109191895,-3.328125,5.921875,-0.859375
473,473,1727440596617,-0.100097656,-0.79229736,-0.16998291,12.09375,9.875,2.75
474,474,1727440596657,0.09643555,-0.9158325,-0.21490479,9.84375,14.6875,3.421875
475,475,1727440596697,0.12719727,-1.0422974,-0.13995361,5.984375,10.0,1.484375
476,476,1727440596737,-0.030761719,-1.0449829,-0.06109619,3.546875,5.296875,-1.140625
477,477,1727440596777,-0.08886719,-0.9209595,-0.08770752,11.0,-0.71875,-1.90625
478,478,1727440596817,-0.072021484,-0.8897095,-0.113586426,13.109375,-0.796875,-1.109375
479,479,1727440596857,-0.038330078,-0.95147705,-0.11480713,6.984375,0.96875,0.8125
480,480,1727440596897,-0.030273438,-0.9771118,-0.08892822,3.125,-1.90625,2.34375
481,481,1727440596937,-0.015625,-0.96466064,-0.06500244,2.3125,-6.203125,1.390625
482,482,1727440596977,-0.012207031,-1.0130005,-0.05596924,0.6875,-12.59375,1.609375
483,483,1727440597017,-0.07763672,-0.98760986,-0.018371582,-1.03125,-14.734375,2.28125
484,484,1727440597057,-0.10571289,-1.0010376,0.013366699,-3.65625,-16.984375,-0.53125
485,485,1727440597097,-0.19702148,-1.0252075,0.058044434,-3.296875,-17.046875,-2.421875
486,486,1727440597137,-0.18457031,-1.0056763,0.06463623,-8.734375,-13.625,-4.859375
487,487,1727440597177,-0.21899414,-1.010315,0.12054443,-9.6875,-13.140625,-7.890625
488,488,1727440597217,-0.10961914,-1.1521606,0.042175293,-5.8125,-12.328125,-10.796875
489,489,1727440597257,0.020507812,-1.1565552,-0.06109619,-6.078125,-6.171875,-5.609375
490,490,1727440597297,0.111572266,-1.055481,-0.07745361,-8.375,-2.890625,-4.015625
491,491,1727440597337,0.07836914,-1.0230103,-0.13165283,-0.90625,-5.171875,-2.15625
492,492,1727440597377,0.15454102,-0.89971924,-0.12579346,-1.734375,-3.109375,-0.609375
493,493,1727440597417,0.076660156,-0.92926025,-0.07525635,-1.75,-2.328125,2.3125
494,494,1727440597457,0.045410156,-0.9973755,-0.101623535,1.3125,-6.953125,2.796875
495,495,1727440597497,0.06323242,-0.97198486,-0.069885254,-1.28125,-4.359375,4.421875
496,496,1727440597537,0.040039062,-0.975647,-0.024230957,-5.15625,-1.28125,6.96875
497,497,1727440597577,0.06323242,-0.94781494,0.022888184,-5.46875,-0.75,7.1875
498,498,1727440597617,0.1015625,-0.9590454,0.028747559,-3.59375,0.046875,7.90625
499,499,1727440597657,0.03125,-0.98321533,0.13153076,-2.703125,3.40625,7.078125
500,500,1727440597697,-0.107421875,-1.0344849,0.027526855,6.90625,1.8125,3.53125
501,501,1727440597737,0.103515625,-0.93218994,0.04071045,5.453125,11.171875,4.625
502,502,1727440597777,0.07006836,-0.93048096,0.031433105,2.4375,7.28125,6.8125
503,503,1727440597817,0.13769531,-0.90338135,0.038024902,3.984375,2.125,6.546875
504,504,1727440597857,0.106933594,-0.95635986,0.13348389,0.921875,-0.921875,4.65625
505,505,1727440597897,-0.053710938,-1.0559692,0.1774292,-3.8125,-2.15625,-0.234375
506,506,1727440597937,-0.03173828,-1.0147095,0.23919678,-7.0,4.046875,-2.53125
507,507,1727440597977,-0.018554688,-1.0020142,0.22332764,-8.28125,2.5625,-5.09375
508,508,1727440598017,-0.045166016,-0.9644165,0.18328857,-8.984375,1.0625,-9.421875
509,509,1727440598057,-0.0063476562,-1.2207642,-0.089904785,-2.53125,-14.25,-14.796875
510,510,1727440598097,-0.024902344,-1.078186,0.03778076,-12.46875,-2.6875,-7.828125
511,511,1727440598137,-0.060546875,-0.8538208,-0.043273926,-1.046875,1.75,-10.46875
512,512,1727440598177,0.1184082,-0.93878174,-0.22076416,13.140625,4.4375,-1.078125
513,513,1727440598217,0.12524414,-1.0942993,-0.19854736,10.40625,8.0,2.25
514,514,1727440598257,0.08569336,-1.1382446,-0.06768799,10.578125,7.984375,4.53125
515,515,1727440598297,-0.037353516,-1.0108032,-0.007385254,7.640625,5.375,3.015625
516,516,1727440598337,-0.0769043,-0.864563,-0.0068969727,13.265625,4.453125,1.359375
517,517,1727440598377,-0.09057617,-0.829895,-0.06866455,12.65625,5.109375,0.65625
518,518,1727440598417,-0.041015625,-0.8501587,-0.06817627,9.46875,5.015625,1.828125
519,519,1727440598457,-0.0769043,-0.9031372,-0.014465332,4.4375,0.484375,1.953125
520,520,1727440598497,-0.072509766,-0.90411377,0.026062012,0.171875,-5.671875,-1.09375
521,521,1727440598537,-0.17016602,-0.92974854,0.018737793,2.6875,-11.203125,-3.859375
522,522,1727440598577,-0.14892578,-1.0274048,0.017028809,0.671875,-13.15625,-6.265625
523,523,1727440598617,-0.1977539,-1.0442505,0.08392334,-7.421875,-10.703125,-6.90625
524,524,1727440598657,-0.040527344,-1.197815,0.14154053,-7.1875,-11.328125,-10.484375
525,525,1727440598697,0.029785156,-1.3989868,-0.055480957,5.71875,-4.828125,-7.203125
526,526,1727440598737,0.053710938,-1.0613403,-0.159729,2.984375,3.1875,-1.015625
527,527,1727440598777,0.2409668,-0.98150635,-0.26031494,5.0,7.28125,3.390625
528,528,1727440598817,0.12182617,-0.9487915,-0.18243408,7.0,6.859375,6.9375
529,529,1727440598857,0.21728516,-1.029602,-0.20172119,11.46875,7.125,10.0625
530,530,1727440598897,0.24389648,-0.9673462,-0.15435791,3.578125,1.78125,8.09375
531,531,1727440598937,0.12988281,-0.8557739,-0.101379395,0.734375,-5.765625,4.25
532,532,1727440598977,0.114990234,-0.82940674,-0.08526611,0.890625,-11.46875,1.8125
533,533,1727440599017,0.064941406,-0.8452759,-0.02178955,1.4375,-12.25,2.625
534,534,1727440599057,0.02709961,-0.92144775,0.0018920898,2.078125,-8.109375,2.53125
535,535,1727440599097,0.0026855469,-0.9837036,0.046081543,-0.34375,0.5625,2.546875
536,536,1727440599137,-0.013916016,-0.991272,0.105163574,-3.796875,7.65625,0.828125
537,537,1727440599177,-0.030273438,-1.0232544,0.16644287,-4.828125,11.984375,-2.734375
538,538,1727440599217,-0.013671875,-0.9729614,0.13983154,-4.234375,13.75,-5.0
539,539,1727440599257,-0.061035156,-1.0090942,0.16204834,-7.890625,15.921875,-6.921875
540,540,1727440599297,-0.021484375,-0.9710083,0.15252686,-8.671875,13.15625,-9.046875
541,541,1727440599337,0.036865234,-1.1018677,-0.04937744,-6.59375,3.03125,-11.078125
542,542,1727440599377,0.11816406,-1.2271118,0.00579834,-5.953125,-5.9375,-7.265625
543,543,1727440599417,-0.20605469,-1.0928345,-0.054260254,-10.625,-6.109375,-11.890625
544,544,1727440599457,0.10180664,-1.2305298,-0.15020752,1.125,-11.734375,-7.9375
545,545,1727440599497,0.007080078,-0.99102783,-0.15582275,-6.703125,-2.03125,-5.96875
546,546,1727440599537,0.024658203,-0.8826294,-0.13653564,4.375,3.234375,-0.828125
547,547,1727440599577,0.045410156,-0.9092407,-0.16925049,2.359375,0.3125,-3.03125
548,548,1727440599617,0.025146484,-0.8648071,-0.16900635,3.140625,0.28125,-4.0625
549,549,1727440599657,-0.0126953125,-0.9627075,-0.15802002,1.84375,-3.546875,-5.859375
550,550,1727440599697,-0.014404297,-0.9505005,-0.13043213,1.515625,-6.8125,-5.625
551,551,1727440599737,-0.060058594,-0.94659424,-0.1182251,1.484375,-8.859375,-4.65625
552,552,1727440599777,-0.055908203,-0.9663696,-0.06719971,0.703125,-10.640625,-3.296875
553,553,1727440599817,-0.06323242,-0.95880127,-0.07623291,3.734375,-14.90625,-1.96875
554,554,1727440599857,-0.083984375,-0.94000244,-0.07647705,4.4375,-18.0,0.140625
555,555,1727440599897,-0.12670898,-0.9356079,-0.04498291,5.9375,-19.640625,0.796875
556,556,1727440599937,-0.13891602,-0.9607544,-0.03717041,8.203125,-21.25,1.34375
557,557,1727440599977,-0.123046875,-0.9495239,-0.020568848,4.9375,-21.0625,2.15625
558,558,1727440600017,-0.14038086,-0.9241333,0.01751709,2.671875,-22.578125,2.3125
559,559,1727440600057,-0.17285156,-0.89630127,0.04949951,1.796875,-22.84375,1.078125
560,560,1727440600097,-0.18334961,-0.9319458,0.04144287,0.140625,-21.4375,-0.0625
561,561,1727440600137,-0.19360352,-0.95513916,0.0138549805,-2.109375,-21.078125,0.25
562,562,1727440600177,-0.24365234,-0.9944458,0.06390381,-5.71875,-18.65625,-0.296875
563,563,1727440600217,-0.28442383,-0.9734497,0.093688965,-9.96875,-17.171875,-1.6875
564,564,1727440600257,-0.107910156,-1.083313,0.17034912,-9.640625,-16.546875,-5.265625
565,565,1727440600297,-0.06689453,-1.2144165,-0.120910645,4.3125,-12.5,-0.6875
566,566,1727440600337,0.07739258,-1.2200317,-0.17633057,-0.25,-2.5,1.359375
567,567,1727440600377,-0.048095703,-1.2495728,-0.19488525,1.671875,-3.859375,3.03125
568,568,1727440600417,0.07910156,-1.0371704,-0.20684814,-5.328125,-3.34375,1.8125
569,569,1727440600457,0.10180664,-0.9949341,-0.14361572,-4.875,-4.203125,4.703125
570,570,1727440600497,0.013671875,-0.9451294,-0.11798096,-2.0,-2.03125,3.78125
571,571,1727440600537,0.013671875,-0.95635986,-0.10040283,-3.890625,3.828125,3.484375
572,572,1727440600577,0.0126953125,-0.9338989,-0.057678223,-7.671875,10.5625,1.0625
573,573,1727440600617,0.040771484,-0.9155884,-0.03717041,-8.75,13.71875,-0.046875
574,574,1727440600657,0.0036621094,-0.90460205,-0.012023926,-8.28125,14.484375,-0.53125
575,575,1727440600697,-0.025634766,-0.9522095,-0.02960205,-4.25,13.03125,-1.109375
576,576,1727440600737,-0.033691406,-0.960022,0.028015137,-5.421875,15.09375,-0.15625
577,577,1727440600777,-0.05517578,-0.9385376,0.051940918,-4.203125,16.390625,0.375
578,578,1727440600817,-0.014892578,-0.94000244,0.07757568,-2.03125,16.5625,1.78125
579,579,1727440600857,-0.037841797,-0.97442627,0.1005249,-2.0625,17.703125,1.5
580,580,1727440600897,-0.064697266,-1.0005493,0.11932373,0.09375,18.375,2.0
581,581,1727440600937,-0.06982422,-0.9729614,0.14788818,0.9375,17.375,2.75
582,582,1727440600977,-0.09716797,-0.9656372,0.1618042,3.203125,16.859375,1.5
583,583,1727440601017,-0.072021484,-0.95758057,0.17718506,3.34375,18.046875,1.796875
584,584,1727440601057,-0.09887695,-0.93048096,0.19769287,0.828125,19.546875,-0.609375
585,585,1727440601097,-0.11987305,-0.93585205,0.2189331,-2.25,18.6875,-4.75
586,586,1727440601137,-0.095214844,-0.9636841,0.109313965,-3.234375,16.640625,-8.328125
587,587,1727440601177,0.057128906,-1.1907349,-0.051086426,0.546875,5.6875,-11.203125
588,588,1727440601217,-0.15039062,-1.0967407,0.050231934,-12.546875,7.4375,-9.015625
589,589,1727440601257,-0.030273438,-1.2090454,0.05609131,-4.859375,7.390625,-10.71875
590,590,1727440601297,-0.095458984,-1.0652466,-0.04449463,-9.28125,14.03125,-6.515625
591,591,1727440601337,-0.037597656,-0.9639282,-0.10723877,2.96875,15.296875,0.125
592,592,1727440601377,-0.020996094,-0.98687744,-0.1375122,5.71875,20.0,0.5
593,593,1727440601417,-0.051757812,-0.9319458,-0.09283447,5.09375,18.859375,0.109375
594,594,1727440601457,-0.0925293,-0.9404907,-0.09039307,4.09375,15.90625,-1.671875
595,595,1727440601497,-0.076660156,-0.90582275,-0.074035645,4.03125,15.015625,-0.4375
596,596,1727440601537,-0.08154297,-0.9343872,-0.06793213,5.203125,10.09375,-0.28125
597,597,1727440601577,-0.080322266,-0.96099854,-0.062805176,7.09375,5.328125,0.0
598,598,1727440601617,-0.05908203,-0.95928955,-0.034484863,6.15625,2.359375,1.15625
599,599,1727440601657,-0.08862305,-0.95269775,-0.011291504,7.359375,-1.46875,1.453125
600,600,1727440601697,-0.12133789,-1.00177,-0.018127441,7.03125,-4.0,2.078125
601,601,1727440601737,-0.1328125,-0.95684814,-0.005432129,5.578125,-5.359375,1.921875
602,602,1727440601777,-0.12060547,-0.97662354,-0.0051879883,4.21875,-8.96875,2.03125
603,603,1727440601817,-0.12768555,-0.9710083,0.008483887,3.6875,-10.96875,2.796875
604,604,1727440601857,-0.12573242,-0.9924927,0.026062012,0.265625,-12.53125,3.59375
605,605,1727440601897,-0.17504883,-0.9800415,0.086364746,-2.296875,-15.9375,3.421875
606,606,1727440601937,-0.21118164,-0.9343872,0.07244873,-2.84375,-17.765625,2.453125
607,607,1727440601977,-0.22998047,-0.9717407,0.089782715,-4.609375,-16.421875,0.28125
608,608,1727440602017,-0.2553711,-1.02594,0.11883545,-6.609375,-14.96875,-2.6875
609,609,1727440602057,-0.15673828,-1.1538696,0.090270996,-5.640625,-11.9375,-4.984375
610,610,1727440602097,-0.07080078,-1.1387329,0.045837402,-9.9375,-8.53125,-2.328125
611,611,1727440602137,-0.044921875,-1.1294556,0.032409668,-12.71875,-4.15625,-3.328125
612,612,1727440602177,0.0847168,-0.9771118,-0.014953613,-9.453125,-13.8125,-4.546875
613,613,1727440602217,0.05810547,-0.92315674,-0.07501221,1.09375,-14.140625,-3.9375
614,614,1727440602257,0.1105957,-0.9404907,-0.08746338,3.578125,-12.859375,0.890625
615,615,1727440602297,0.05908203,-1.065979,-0.05279541,1.84375,-12.046875,3.078125
616,616,1727440602337,0.07397461,-1.0723267,0.03778076,-7.53125,-10.328125,5.203125
617,617,1727440602377,0.026123047,-0.9295044,0.11663818,-9.328125,-10.203125,4.125
618,618,1727440602417,-0.052734375,-0.894104,0.11444092,-2.3125,-11.234375,1.078125
619,619,1727440602457,-0.052978516,-0.9038696,0.08270264,3.265625,-8.140625,2.453125
620,620,1727440602497,-0.05908203,-0.9026489,0.090270996,4.984375,-1.15625,2.765625
621,621,1727440602537,-0.045654297,-0.9714966,0.09613037,5.453125,4.875,3.859375
622,622,1727440602577,-0.06225586,-0.96954346,0.12738037,3.78125,9.65625,3.53125
623,623,1727440602617,-0.07104492,-0.99005127,0.14764404,4.328125,13.84375,2.21875
624,624,1727440602657,-0.12548828,-0.9561157,0.13787842,1.953125,17.828125,0.71875
625,625,1727440602697,-0.111572266,-0.95269775,0.14910889,2.359375,20.765625,0.109375
626,626,1727440602737,-0.12597656,-0.9585571,0.16619873,0.25,23.0,-0.953125
627,627,1727440602777,-0.11230469,-0.956604,0.20721436,-0.53125,25.0,-2.8125
628,628,1727440602817,-0.1381836,-0.9788208,0.23699951,-2.625,25.140625,-4.671875
629,629,1727440602857,-0.13867188,-0.97613525,0.20135498,-1.984375,22.765625,-7.1875
630,630,1727440602897,-0.07739258,-1.2085571,0.016296387,0.53125,12.8125,-9.53125
631,631,1727440602937,-0.012451172,-1.1421509,0.058532715,-5.015625,9.765625,-4.859375
632,632,1727440602977,-0.16186523,-1.00177,0.13812256,-6.046875,8.0625,-7.546875
633,633,1727440603017,0.056152344,-1.161438,-0.07159424,-1.1875,0.796875,-8.3125
634,634,1727440603057,-0.0012207031,-1.0496216,-0.0713501,-6.203125,3.96875,-1.21875
635,635,1727440603097,-0.044433594,-0.92755127,-0.0569458,0.84375,3.140625,-1.765625
636,636,1727440603137,-0.013183594,-0.9529419,-0.06573486,4.671875,3.640625,0.875
637,637,1727440603177,-0.011962891,-0.89801025,-0.07183838,6.109375,6.546875,2.6875
638,638,1727440603217,-0.01977539,-0.97442627,-0.03277588,3.65625,10.25,2.375
639,639,1727440603257,-0.09033203,-0.99420166,-0.023498535,2.84375,11.171875,0.515625
640,640,1727440603297,-0.13012695,-0.96466064,-0.02520752,5.0,10.734375,-0.75
641,641,1727440603337,-0.10961914,-0.9282837,-0.006652832,5.4375,12.140625,0.53125
642,642,1727440603377,-0.047607422,-0.94976807,-0.019104004,7.3125,12.140625,3.65625
643,643,1727440603417,-0.041259766,-0.99713135,-0.02545166,10.1875,10.859375,5.578125
644,644,1727440603457,0.0126953125,-0.96759033,-0.036193848,12.296875,4.765625,5.453125
645,645,1727440603497,-0.023925781,-0.97857666,-0.014709473,10.0,0.59375,5.578125
646,646,1727440603537,-0.07373047,-0.9883423,-0.0020141602,7.734375,-4.453125,4.84375
647,647,1727440603577,-0.11303711,-0.97540283,0.021911621,4.40625,-8.03125,3.65625
648,648,1727440603617,-0.12988281,-0.960022,0.043395996,3.734375,-11.40625,2.90625
649,649,1727440603657,-0.11206055,-0.97198486,0.005554199,2.734375,-12.828125,2.28125
650,650,1727440603697,-0.09790039,-0.93951416,-0.0037231445,0.828125,-13.0,2.9375
651,651,1727440603737,-0.12548828,-0.9963989,0.035583496,-1.390625,-13.09375,0.328125
652,652,1727440603777,-0.18115234,-1.0286255,0.04925537,-4.65625,-13.75,-1.46875
653,653,1727440603817,-0.21923828,-0.98150635,0.10882568,-7.265625,-13.09375,-4.578125
654,654,1727440603857,-0.14892578,-1.1211548,0.13250732,-10.421875,-13.703125,-9.5
655,655,1727440603897,-0.13183594,-1.2158813,0.08099365,-5.890625,-8.921875,-8.0625
656,656,1727440603937,-0.040283203,-1.0662231,-0.03741455,-6.90625,-3.75,-7.34375
657,657,1727440603977,0.02319336,-1.0029907,0.007507324,-12.296875,-5.71875,-5.625
658,658,1727440604017,0.13110352,-1.0440063,-0.054748535,-4.34375,-3.640625,-4.90625
659,659,1727440604057,0.14257812,-0.98809814,-0.07867432,-1.78125,-7.9375,-0.296875
660,660,1727440604097,0.061523438,-0.93585205,-0.02545166,-1.15625,-4.40625,3.171875
661,661,1727440604137,0.041748047,-1.0210571,-0.039611816,1.046875,-4.0,3.484375
662,662,1727440604177,0.03930664,-0.9673462,0.0006713867,-1.8125,-1.4375,5.46875
663,663,1727440604217,0.032226562,-0.94244385,0.058776855,-2.0625,-0.828125,6.3125
664,664,1727440604257,0.008544922,-0.9475708,0.048034668,-0.859375,-2.0625,5.921875
665,665,1727440604297,0.009277344,-0.94488525,0.0680542,1.5625,-2.28125,5.75
666,666,1727440604337,-0.0036621094,-0.99468994,0.086120605,1.3125,-0.234375,5.125
667,667,1727440604377,-0.0031738281,-0.97735596,0.09857178,1.15625,0.546875,4.421875
668,668,1727440604417,-0.029052734,-0.94659424,0.13421631,1.3125,3.921875,3.359375
669,669,1727440604457,-0.03930664,-0.94732666,0.13568115,1.921875,4.703125,2.109375
670,670,1727440604497,-0.020996094,-0.93878174,0.16253662,2.921875,6.203125,1.421875
671,671,1727440604537,-0.0043945312,-0.93829346,0.13787842,0.03125,8.75,-0.25
672,672,1727440604577,-0.03955078,-0.9673462,0.17034912,0.765625,7.359375,-2.90625
673,673,1727440604617,-0.023925781,-0.94317627,0.16912842,0.59375,8.84375,-4.5
674,674,1727440604657,-0.052734375,-0.9768677,0.184021,-0.453125,8.65625,-6.09375
675,675,1727440604697,-0.03149414,-0.9981079,0.22454834,-2.15625,10.125,-7.046875
676,676,1727440604737,-0.05517578,-1.0767212,0.17572021,-3.859375,8.0,-7.921875
677,677,1727440604777,0.036376953,-1.1785278,0.051696777,-1.546875,0.65625,-8.9375
678,678,1727440604817,0.07006836,-1.1050415,0.04437256,-4.125,-5.5,-4.71875
679,679,1727440604857,-0.061279297,-1.0322876,0.12567139,-6.265625,-9.890625,-4.078125
680,680,1727440604897,-0.13842773,-1.0073853,0.070495605,-4.703125,-10.5625,-6.265625
681,681,1727440604937,0.02319336,-1.081604,-0.073791504,-1.234375,-11.96875,-5.203125
682,682,1727440604977,-0.06665039,-0.9883423,-0.0881958,-3.65625,-9.859375,-2.125
683,683,1727440605017,-0.08691406,-0.90411377,-0.06842041,3.78125,-9.9375,-1.390625
684,684,1727440605057,-0.052490234,-0.9216919,-0.09844971,7.5625,-4.109375,0.484375
685,685,1727440605097,-0.05029297,-0.94317627,-0.09503174,8.015625,-2.625,1.328125
686,686,1727440605137,-0.061279297,-0.9829712,-0.05670166,6.34375,0.0625,0.0625
687,687,1727440605177,-0.087890625,-0.96417236,-0.034729004,6.96875,-1.046875,0.75
688,688,1727440605217,-0.16113281,-0.93218994,-0.010314941,7.109375,1.09375,0.0625
689,689,1727440605257,-0.10571289,-0.9788208,-0.022277832,7.25,1.734375,0.9375
690,690,1727440605297,-0.075927734,-0.99176025,-0.009094238,4.9375,0.828125,2.6875
691,691,1727440605337,-0.083496094,-0.99176025,0.005065918,4.203125,-3.109375,2.53125
692,692,1727440605377,-0.050048828,-0.97540283,-0.0076293945,6.953125,-6.5,3.578125
693,693,1727440605417,-0.106933594,-0.9805298,0.0045776367,6.625,-8.609375,3.234375
694,694,1727440605457,-0.13330078,-0.97784424,0.013122559,4.671875,-8.546875,2.234375
695,695,1727440605497,-0.17895508,-0.9336548,0.022888184,2.75,-10.015625,2.0
696,696,1727440605537,-0.1538086,-0.96539307,0.010681152,1.109375,-8.421875,1.203125
697,697,1727440605577,-0.14160156,-0.9456177,0.009460449,-1.625,-8.828125,1.765625
698,698,1727440605617,-0.09277344,-0.95977783,0.024353027,-2.546875,-12.6875,1.5625
699,699,1727440605657,-0.16772461,-0.9998169,0.06976318,-5.171875,-15.203125,0.4375
700,700,1727440605697,-0.2019043,-1.062561,0.061462402,-5.5,-17.015625,-3.125
701,701,1727440605737,-0.19580078,-1.1782837,0.07562256,-5.65625,-14.34375,-5.25
702,702,1727440605777,-0.16796875,-1.1487427,0.05267334,-6.625,-5.75,-3.109375
703,703,1727440605817,-0.1352539,-1.0164185,0.025817871,-4.546875,2.4375,-1.984375
704,704,1727440605857,-0.040527344,-0.9795532,-0.035217285,-3.28125,-1.78125,-2.515625
705,705,1727440605897,-0.055908203,-1.0449829,-0.043029785,-4.6875,1.265625,-3.25
706,706,1727440605937,0.078125,-1.0264282,-0.054260254,-3.859375,-3.8125,-2.375
707,707,1727440605977,0.041503906,-0.9585571,-0.038879395,-2.5625,-2.796875,2.671875
708,708,1727440606017,0.048095703,-0.9102173,-0.06744385,2.90625,-4.890625,4.578125
709,709,1727440606057,0.110839844,-0.9229126,-0.06573486,4.609375,-3.796875,7.25
710,710,1727440606097,0.03930664,-1.076477,-0.04473877,2.421875,-3.0625,7.109375
711,711,1727440606137,0.0234375,-1.0161743,-0.010559082,-1.140625,-0.78125,7.359375
712,712,1727440606177,0.04248047,-0.9673462,0.020690918,-1.765625,-2.46875,6.53125
713,713,1727440606217,0.0061035156,-0.9546509,0.031188965,-2.359375,-3.484375,8.09375
714,714,1727440606257,0.0041503906,-0.9417114,0.07684326,-1.046875,-1.421875,8.0625
715,715,1727440606297,-0.0034179688,-0.97076416,0.08441162,-0.921875,2.265625,6.625
716,716,1727440606337,-0.033203125,-0.9663696,0.1227417,-2.5,6.984375,4.21875
717,717,1727440606377,-0.01953125,-0.94903564,0.07122803,2.4375,9.65625,1.984375
718,718,1727440606417,-0.0146484375,-0.9734497,0.13128662,0.390625,14.234375,2.859375
719,719,1727440606457,-0.103027344,-1.0137329,0.16912842,0.21875,21.296875,0.734375
720,720,1727440606497,-0.09008789,-0.97540283,0.17791748,-1.921875,27.125,-0.6875
721,721,1727440606537,0.072021484,-0.9871216,0.15765381,2.28125,25.609375,-0.671875
722,722,1727440606577,0.021728516,-1.0049438,0.11273193,2.640625,22.03125,-0.421875
723,723,1727440606617,-0.045166016,-0.9446411,0.168396,2.796875,22.5,-2.46875
724,724,1727440606657,-0.059570312,-0.95147705,0.19256592,-0.203125,26.125,-5.234375
725,725,1727440606697,-0.07836914,-0.8933716,0.21160889,-5.34375,28.609375,-6.671875
726,726,1727440606737,-0.10888672,-0.9920044,0.055114746,-2.390625,26.03125,-11.890625
727,727,1727440606777,0.12646484,-1.2981567,-0.13848877,3.359375,13.96875,-13.484375
728,728,1727440606817,-0.049316406,-1.1848755,0.07562256,-9.765625,13.859375,-9.140625
729,729,1727440606857,-0.080078125,-0.94903564,0.013366699,-8.25,9.0625,-11.6875
730,730,1727440606897,0.011962891,-1.0908813,-0.27105713,4.4375,-5.0,-8.921875
731,731,1727440606937,0.009521484,-1.071106,-0.16314697,-0.34375,4.609375,-1.484375
732,732,1727440606977,-0.053222656,-0.9192505,-0.1350708,0.984375,5.703125,-3.0
733,733,1727440607017,0.032714844,-0.9644165,-0.1375122,6.09375,4.5,0.28125
734,734,1727440607057,0.016845703,-0.9365845,-0.13531494,7.5,5.25,1.46875
735,735,1727440607097,-0.011962891,-0.9573364,-0.13311768,8.71875,-1.6875,0.546875
736,736,1727440607137,-0.052978516,-0.9663696,-0.105773926,8.265625,-5.875,-0.0625
737,737,1727440607177,-0.061035156,-0.97540283,-0.08502197,4.546875,-9.09375,1.15625
738,738,1727440607217,-0.08203125,-0.98150635,-0.017150879,5.359375,-12.28125,2.171875
739,739,1727440607257,-0.07885742,-0.9871216,-0.047424316,6.359375,-12.09375,3.0
740,740,1727440607297,-0.08569336,-0.96539307,-0.024719238,6.640625,-12.34375,3.890625
741,741,1727440607337,-0.09716797,-0.9961548,-0.015930176,5.0,-11.1875,4.203125
742,742,1727440607377,-0.096191406,-0.9873657,-0.0049438477,3.390625,-12.140625,3.46875
743,743,1727440607417,-0.13134766,-0.942688,-0.0017700195,2.8125,-12.046875,2.9375
744,744,1727440607457,-0.13574219,-0.9492798,-6.1035156e-05,2.65625,-12.78125,1.796875
745,745,1727440607497,-0.11425781,-0.95562744,0.010437012,0.90625,-13.609375,0.90625
746,746,1727440607537,-0.12011719,-0.9595337,0.016540527,-0.828125,-13.296875,0.203125
747,747,1727440607577,-0.11352539,-0.98223877,0.0053100586,-1.84375,-13.953125,-0.5625
748,748,1727440607617,-0.1394043,-0.9651489,0.0018920898,-3.390625,-14.359375,-1.5
749,749,1727440607657,-0.15527344,-0.9758911,0.031921387,-7.84375,-15.0,-3.15625
750,750,1727440607697,-0.099121094,-1.1775513,0.061950684,-8.359375,-17.09375,-6.25
751,751,1727440607737,-0.064941406,-1.232727,-0.0010375977,-8.4375,-13.84375,-3.609375
752,752,1727440607777,-0.055908203,-1.0791626,0.014831543,-11.640625,-9.03125,-1.0625
753,753,1727440607817,-0.06591797,-0.99053955,0.0446167,-9.578125,-10.421875,-3.21875
754,754,1727440607857,0.0063476562,-1.0186157,-0.085754395,0.296875,-3.703125,-4.0625
755,755,1727440607897,0.03540039,-0.9624634,-0.057434082,-1.546875,0.734375,-3.75
756,756,1727440607937,-0.011230469,-0.9116821,-0.040100098,1.703125,3.03125,-2.140625
757,757,1727440607977,0.061523438,-0.8652954,-0.066711426,0.875,5.796875,-1.890625
758,758,1727440608017,0.06323242,-0.91729736,-0.019104004,0.515625,5.09375,-0.109375
759,759,1727440608057,0.044433594,-1.0422974,-0.03253174,1.609375,4.640625,0.25
