,Unnamed: 0,timestamp,accel_x,accel_y,accel_z,gyro_x,gyro_y,gyro_z
0,0,1727175020091,-0.04321289,-0.7744751,0.045837402,-23.71875,22.65625,-14.609375
1,1,1727175020131,-0.31054688,-0.9470825,-0.047668457,-6.46875,17.0,-2.71875
2,2,1727175020171,-0.22802734,-1.048645,-0.46270752,3.625,13.765625,1.625
3,3,1727175020211,-0.234375,-1.1216431,-0.32110596,20.0,15.546875,-8.703125
4,4,1727175020251,0.040039062,-1.284729,-0.17022705,10.5625,-18.265625,-4.515625
5,5,1727175020291,-0.34326172,-0.986145,0.06878662,26.984375,15.765625,6.953125
6,6,1727175020331,-0.27807617,-0.9343872,-0.09234619,23.8125,16.390625,0.1875
7,7,1727175020371,-0.13671875,-0.83721924,-0.12408447,21.890625,2.640625,-4.0
8,8,1727175020411,-0.20800781,-0.9368286,-0.17584229,15.546875,-2.375,0.015625
9,9,1727175020451,-0.1418457,-1.078186,-0.31695557,0.953125,-5.71875,8.359375
10,10,1727175020491,-0.15405273,-1.0049438,-0.16168213,-0.359375,4.71875,6.3125
11,11,1727175020531,-0.09399414,-1.0725708,-0.1375122,-5.03125,-4.578125,2.328125
12,12,1727175020571,-0.1303711,-0.89678955,-0.19244385,-3.921875,-20.875,3.515625
13,13,1727175020611,-0.052001953,-0.9143677,-0.17218018,-3.921875,-5.046875,1.75
14,14,1727175020651,-0.036132812,-1.0078735,-0.21392822,-8.375,-10.578125,3.53125
15,15,1727175020691,-0.07373047,-0.99298096,-0.13800049,-2.203125,-13.390625,5.046875
16,16,1727175020731,-0.104003906,-1.0735474,-0.16534424,-3.421875,2.125,3.5625
17,17,1727175020771,0.005126953,-1.006897,-0.1873169,-0.875,-4.53125,4.84375
18,18,1727175020811,0.12060547,-0.9421997,-0.121154785,3.3125,-4.15625,7.421875
19,19,1727175020851,-0.041259766,-1.0252075,-0.11651611,-3.75,-2.671875,7.546875
20,20,1727175020891,-0.021972656,-1.0349731,-0.11627197,-1.828125,-0.984375,3.40625
21,21,1727175020931,0.017333984,-1.0137329,-0.11383057,-4.5,3.828125,0.84375
22,22,1727175020971,0.079589844,-0.9973755,-0.14459229,-3.484375,-4.8125,-0.03125
23,23,1727175021011,0.016845703,-1.0669556,-0.13189697,-2.8125,0.3125,1.109375
24,24,1727175021051,0.07836914,-1.0435181,-0.0010375977,0.109375,3.46875,-2.59375
25,25,1727175021091,0.034179688,-1.1026001,-0.105041504,-7.640625,-5.984375,-4.34375
26,26,1727175021131,0.024414062,-1.0459595,0.07904053,5.015625,-0.46875,-4.5625
27,27,1727175021171,-0.026123047,-0.90167236,0.021911621,-8.078125,4.421875,-7.265625
28,28,1727175021211,0.008300781,-0.7144165,0.053649902,-17.625,23.5625,-10.375
29,29,1727175021251,-0.0703125,-0.598938,0.10272217,-8.53125,10.0625,-15.515625
30,30,1727175021291,-0.17944336,-0.6782837,0.09197998,3.125,5.84375,-11.84375
31,31,1727175021331,-0.39990234,-1.1089478,-0.35455322,-3.75,-11.046875,-11.46875
32,32,1727175021371,-0.38378906,-1.5908813,-0.3242798,-11.40625,3.453125,-15.8125
33,33,1727175021411,-0.072753906,-1.2991333,-0.0037231445,-5.0,22.90625,-2.90625
34,34,1727175021451,-0.02368164,-0.9458618,-0.12335205,-7.03125,29.015625,-2.84375
35,35,1727175021491,-0.21411133,-0.69537354,-0.13800049,17.015625,11.4375,5.765625
36,36,1727175021531,-0.39526367,-0.82159424,-0.24761963,19.375,3.46875,1.5625
37,37,1727175021571,-0.23266602,-0.9927368,-0.237854,15.90625,18.375,-2.3125
38,38,1727175021611,-0.17407227,-1.048645,-0.12017822,16.515625,11.4375,5.90625
39,39,1727175021651,-0.18481445,-0.9812622,-0.18780518,16.546875,8.625,10.109375
40,40,1727175021691,-0.1977539,-1.053772,-0.2546997,6.078125,6.0,5.375
41,41,1727175021731,-0.12060547,-1.0144653,-0.15264893,3.859375,1.546875,4.953125
42,42,1727175021771,-0.2631836,-0.9439087,-0.117248535,0.59375,3.21875,4.453125
43,43,1727175021811,-0.16357422,-0.9368286,-0.17242432,-5.921875,-0.1875,2.015625
44,44,1727175021851,-0.09448242,-0.92755127,-0.20855713,-0.171875,-10.296875,5.328125
45,45,1727175021891,-0.20214844,-0.9585571,-0.120666504,2.53125,-9.390625,5.984375
46,46,1727175021931,-0.13696289,-1.1343384,-0.17901611,-15.546875,-5.546875,0.515625
47,47,1727175021971,-0.11621094,-0.89630127,-0.11798096,-1.890625,4.046875,5.21875
48,48,1727175022011,0.016845703,-0.9631958,-0.15167236,-2.328125,-6.09375,6.09375
49,49,1727175022051,-0.01977539,-0.95635986,-0.12554932,2.28125,-7.359375,6.625
50,50,1727175022091,-0.0056152344,-0.99005127,-0.09674072,4.453125,-9.125,7.578125
51,51,1727175022131,-0.076416016,-1.0303345,-0.08868408,2.078125,-7.65625,5.390625
52,52,1727175022171,-0.06982422,-1.0877075,-0.093322754,-6.484375,-0.28125,1.65625
53,53,1727175022211,0.0078125,-1.0630493,-0.09552002,-7.640625,1.015625,0.015625
54,54,1727175022251,-0.033203125,-1.045227,-0.14996338,-4.609375,0.703125,0.5625
55,55,1727175022291,0.08618164,-1.0779419,-0.22857666,-9.59375,-3.65625,1.875
56,56,1727175022331,0.10864258,-1.0718384,-0.121154785,-0.625,-2.4375,2.25
57,57,1727175022371,0.048583984,-1.0864868,-0.14361572,-5.5,-9.515625,1.84375
58,58,1727175022411,0.008300781,-0.94366455,0.0289917,-2.484375,-0.53125,-3.75
59,59,1727175022451,0.01586914,-0.86846924,-0.031799316,0.921875,-2.109375,-4.578125
60,60,1727175022491,-0.0017089844,-0.7930298,0.011413574,2.78125,-0.828125,-8.15625
61,61,1727175022531,-0.064453125,-0.81378174,0.0060424805,-0.5625,4.296875,-9.5
62,62,1727175022571,-0.1237793,-0.88165283,-0.028625488,-10.515625,2.6875,-16.3125
63,63,1727175022611,-0.088378906,-1.0862427,-0.1819458,-17.421875,4.359375,-15.578125
64,64,1727175022651,-0.4309082,-1.1484985,-0.121398926,-19.65625,12.140625,-11.4375
65,65,1727175022691,-0.16064453,-1.0838013,-0.41046143,-15.75,13.5,-12.40625
66,66,1727175022731,-0.03466797,-0.9973755,-0.11505127,8.140625,2.015625,-3.09375
67,67,1727175022771,-0.26538086,-1.0281372,-0.0491333,2.109375,-2.71875,-1.03125
68,68,1727175022811,-0.30566406,-0.93170166,-0.012512207,14.09375,1.40625,-3.296875
69,69,1727175022851,-0.24731445,-0.8701782,-0.19586182,13.421875,14.390625,-0.078125
70,70,1727175022891,-0.16625977,-0.87335205,-0.13287354,10.328125,-1.96875,-0.265625
71,71,1727175022931,-0.23291016,-0.98638916,-0.17633057,5.671875,-1.953125,3.984375
72,72,1727175022971,-0.16186523,-1.0464478,-0.19903564,2.640625,-4.546875,4.96875
73,73,1727175023011,-0.18652344,-1.0789185,-0.05670166,5.09375,-3.5,5.5
74,74,1727175023051,-0.2697754,-0.9343872,-0.06549072,0.921875,-2.609375,9.546875
75,75,1727175023091,-0.2614746,-0.8870239,-0.12237549,-4.75,-9.3125,0.421875
76,76,1727175023131,-0.30322266,-1.00177,-0.16119385,-2.453125,1.046875,-0.5
77,77,1727175023171,-0.17651367,-1.0073853,-0.28619385,1.1875,6.46875,0.15625
78,78,1727175023211,-0.15576172,-0.9067993,-0.15557861,15.734375,-0.859375,5.5625
79,79,1727175023251,-0.13793945,-1.0357056,-0.10235596,4.171875,8.0,7.171875
80,80,1727175023291,-0.057861328,-0.9661255,-0.13726807,5.109375,-0.140625,10.421875
81,81,1727175023331,-0.14697266,-0.9841919,-0.078186035,4.140625,8.140625,10.203125
82,82,1727175023371,-0.088134766,-0.9656372,-0.20880127,1.21875,5.390625,8.53125
83,83,1727175023411,0.018066406,-1.003479,-0.17510986,4.203125,10.765625,9.46875
84,84,1727175023451,0.07080078,-1.038147,-0.1831665,0.359375,3.6875,10.984375
85,85,1727175023491,0.016357422,-0.9727173,-0.14337158,-0.671875,-3.734375,9.078125
86,86,1727175023531,-0.01586914,-1.0601196,-0.109191895,-6.84375,3.1875,6.828125
87,87,1727175023571,-0.0107421875,-1.0586548,-0.012512207,-1.640625,7.296875,4.015625
88,88,1727175023611,0.013183594,-1.1248169,-0.17803955,-14.609375,0.90625,3.65625
89,89,1727175023651,0.040771484,-1.102356,-0.019348145,-0.78125,4.84375,2.515625
90,90,1727175023691,0.07080078,-1.1170044,-0.08868408,-3.3125,4.203125,4.796875
91,91,1727175023731,0.095947266,-1.0149536,-0.0154418945,-0.53125,0.6875,1.1875
92,92,1727175023771,0.06225586,-0.894104,-0.028381348,-3.265625,-1.140625,-0.203125
93,93,1727175023811,0.049316406,-0.78692627,0.029968262,-5.8125,-1.28125,-3.984375
94,94,1727175023851,-0.044677734,-0.7437134,0.07733154,-3.5,0.90625,-8.765625
95,95,1727175023891,-0.055419922,-0.67510986,0.18011475,0.90625,13.265625,-12.75
96,96,1727175023931,-0.26000977,-1.0169067,-0.364563,17.09375,-14.046875,-8.65625
97,97,1727175023971,-0.50024414,-1.4400024,-0.51397705,0.6875,2.734375,-11.25
98,98,1727175024011,-0.06542969,-1.2549438,-0.50079346,-27.125,14.078125,-6.421875
99,99,1727175024051,0.0703125,-0.8323364,0.042175293,0.703125,15.046875,-0.46875
100,100,1727175024091,-0.12109375,-0.81378174,-0.13531494,9.609375,8.09375,4.546875
101,101,1727175024131,-0.17700195,-0.84210205,-0.22833252,4.703125,-0.90625,0.328125
102,102,1727175024171,-0.18408203,-1.03302,-0.28424072,1.125,-5.71875,-5.859375
103,103,1727175024211,-0.21459961,-1.097229,-0.12628174,4.21875,-6.5625,-5.171875
104,104,1727175024251,-0.13623047,-0.9812622,-0.11578369,3.515625,-12.125,-2.234375
105,105,1727175024291,-0.23999023,-0.96295166,-0.085754395,0.21875,-7.359375,-2.640625
106,106,1727175024331,-0.21362305,-1.0254517,-0.15631104,-4.921875,-6.875,-0.046875
107,107,1727175024371,-0.19555664,-1.00177,-0.15167236,-9.265625,-4.125,0.953125
108,108,1727175024411,-0.18359375,-0.97247314,-0.08770752,-3.484375,-4.8125,0.703125
109,109,1727175024451,-0.041992188,-1.0217896,-0.10821533,-7.375,-8.5,1.359375
110,110,1727175024491,-0.18969727,-1.0078735,-0.04498291,-7.375,-15.453125,3.34375
111,111,1727175024531,-0.29418945,-0.96099854,-0.08526611,-5.671875,-11.25,-0.984375
112,112,1727175024571,-0.10546875,-0.9854126,-0.12896729,2.46875,4.5625,0.90625
113,113,1727175024611,-0.057373047,-0.97125244,-0.117492676,-1.234375,-3.046875,4.96875
114,114,1727175024651,-0.12573242,-1.0288696,-0.034973145,2.71875,-1.53125,6.265625
115,115,1727175024691,-0.0546875,-1.0147095,-0.101379395,1.6875,3.8125,8.703125
116,116,1727175024731,0.018554688,-0.98028564,-0.090148926,2.609375,1.078125,10.125
117,117,1727175024771,-0.010009766,-0.9949341,-0.128479,2.046875,2.453125,11.078125
118,118,1727175024811,0.014892578,-0.95635986,-0.0012817383,3.375,2.234375,5.734375
119,119,1727175024851,-0.016113281,-1.0195923,-0.08013916,-1.09375,3.703125,9.0
120,120,1727175024891,0.06323242,-1.0073853,-0.08404541,1.5625,-5.71875,6.734375
121,121,1727175024931,0.047607422,-0.9871216,-0.12701416,-3.6875,-1.125,4.90625
122,122,1727175024971,0.10058594,-0.94854736,-0.08453369,-3.9375,-6.953125,1.8125
123,123,1727175025011,0.049804688,-1.0200806,0.0119018555,-1.578125,-9.984375,1.890625
124,124,1727175025051,0.026855469,-1.0813599,-0.039123535,-1.703125,-4.46875,0.859375
125,125,1727175025091,0.048339844,-1.0977173,-0.031555176,-2.15625,-5.0,-0.6875
126,126,1727175025131,0.028808594,-1.0730591,-0.07891846,-0.640625,-2.25,-0.8125
127,127,1727175025171,0.09814453,-1.0484009,-0.066467285,3.96875,2.640625,0.015625
128,128,1727175025211,0.12036133,-1.0291138,0.04852295,4.546875,-2.953125,-1.5
129,129,1727175025251,0.013427734,-0.94195557,0.06048584,-0.453125,0.234375,-3.203125
130,130,1727175025291,-0.015625,-0.8115845,0.031433105,1.921875,5.203125,-5.453125
131,131,1727175025331,-0.068115234,-0.81256104,0.08782959,2.75,32.15625,-6.890625
132,132,1727175025371,-0.1262207,-0.802063,-0.0647583,2.390625,12.765625,-13.40625
133,133,1727175025411,-0.15283203,-1.0291138,-0.569397,9.9375,9.421875,-6.625
134,134,1727175025451,-0.15185547,-1.2525024,-0.41778564,-15.140625,19.109375,-12.59375
135,135,1727175025491,-0.07470703,-1.1987915,-0.059143066,-10.15625,14.140625,-12.34375
136,136,1727175025531,-0.08203125,-1.0762329,0.030212402,0.796875,11.078125,0.4375
137,137,1727175025571,-0.16918945,-0.81500244,-0.24957275,8.40625,12.734375,3.609375
138,138,1727175025611,-0.099365234,-0.94415283,-0.2029419,4.1875,-4.203125,-4.65625
139,139,1727175025651,-0.22094727,-0.93585205,-0.08673096,12.15625,-1.03125,0.109375
140,140,1727175025691,-0.15185547,-0.9204712,-0.22735596,4.734375,-9.953125,-0.234375
141,141,1727175025731,-0.13305664,-1.0220337,-0.18707275,9.234375,-10.328125,3.5
142,142,1727175025771,-0.10913086,-0.9890747,-0.17144775,4.484375,-4.984375,4.484375
143,143,1727175025811,-0.20239258,-1.0100708,-0.14215088,6.40625,-15.671875,2.703125
144,144,1727175025851,-0.10839844,-0.9993286,-0.16168213,-0.53125,-14.53125,-0.46875
145,145,1727175025891,-0.1977539,-0.9890747,-0.17974854,4.0,-16.234375,2.921875
146,146,1727175025931,-0.23657227,-0.9717407,-0.16363525,-0.734375,-9.453125,-1.40625
147,147,1727175025971,-0.118652344,-0.9890747,-0.23248291,-0.984375,-5.953125,1.296875
148,148,1727175026011,-0.017333984,-0.9746704,-0.27618408,-3.21875,0.640625,3.625
149,149,1727175026051,0.045410156,-0.9373169,-0.042541504,1.875,-2.09375,2.3125
150,150,1727175026091,0.08911133,-1.1043091,-0.23614502,-14.25,-16.0,3.421875
151,151,1727175026131,0.119628906,-1.0454712,-0.10479736,0.203125,-17.046875,3.671875
152,152,1727175026171,0.0009765625,-1.112854,-0.058410645,-0.25,-16.828125,2.984375
153,153,1727175026211,-0.08227539,-1.098938,-0.13140869,-8.40625,-11.71875,-2.0
154,154,1727175026251,0.16088867,-0.9956665,-0.27838135,-13.125,-4.515625,-4.703125
155,155,1727175026291,0.24267578,-0.94244385,-0.23297119,-12.484375,-12.765625,-3.359375
156,156,1727175026331,-0.03564453,-0.8401489,-0.06085205,-7.296875,-4.265625,-5.671875
157,157,1727175026371,-0.025146484,-0.8870239,-0.12506104,-11.0625,1.625,-7.828125
158,158,1727175026411,-0.049804688,-0.940979,-0.07330322,-1.078125,9.359375,-3.03125
159,159,1727175026451,-0.20605469,-0.80303955,0.12322998,-3.921875,10.921875,-12.453125
160,160,1727175026491,-0.024414062,-0.97735596,-0.23297119,-19.40625,-0.140625,-15.4375
161,161,1727175026531,-0.203125,-1.0410767,0.0067749023,-1.375,-10.890625,-1.015625
162,162,1727175026571,-0.07763672,-1.1116333,-0.25177002,-14.109375,21.625,-3.3125
163,163,1727175026611,-0.018066406,-1.010315,-0.11578369,3.0625,-4.765625,-3.375
164,164,1727175026651,-0.111083984,-1.0430298,-0.058410645,10.484375,-2.90625,-0.921875
165,165,1727175026691,-0.1784668,-0.94903564,-0.11505127,6.328125,-5.515625,-0.25
166,166,1727175026731,-0.28637695,-0.9883423,-0.1338501,9.15625,2.921875,0.53125
167,167,1727175026771,-0.19042969,-1.0166626,-0.11505127,7.03125,3.890625,-0.0625
168,168,1727175026811,-0.15649414,-0.9783325,-0.11993408,7.484375,-1.171875,-0.453125
169,169,1727175026851,-0.22607422,-0.9661255,-0.14849854,3.015625,4.34375,2.328125
170,170,1727175026891,-0.12451172,-0.9649048,-0.06744385,4.59375,14.234375,2.125
171,171,1727175026931,-0.17700195,-1.0054321,-0.13726807,-5.453125,-3.6875,3.171875
172,172,1727175026971,-0.2175293,-0.96661377,-0.008361816,0.921875,11.109375,5.96875
173,173,1727175027011,-0.18725586,-0.9151001,-0.15826416,-2.734375,1.09375,4.828125
174,174,1727175027051,-0.1875,-0.9692993,-0.08306885,0.40625,3.609375,3.671875
175,175,1727175027091,-0.19848633,-0.9170532,-0.061584473,0.640625,-4.703125,4.484375
176,176,1727175027131,-0.1887207,-0.9351196,-0.0791626,3.234375,-8.265625,6.09375
177,177,1727175027171,-0.17651367,-0.84332275,0.0018920898,2.625,-6.953125,6.625
178,178,1727175027211,-0.07763672,-0.77667236,-0.010070801,4.28125,-20.09375,11.1875
179,179,1727175027251,-0.052001953,-1.1316528,-0.5923462,1.234375,-36.0625,5.4375
180,180,1727175027291,0.44702148,-1.4807739,0.79241943,-12.28125,48.515625,7.09375
181,181,1727175027331,0.008300781,-1.2278442,-0.41680908,14.265625,-20.0,15.171875
182,182,1727175027371,0.3178711,-1.2437134,-0.050842285,5.21875,-23.96875,15.796875
183,183,1727175027411,-0.14477539,-1.2173462,-0.13604736,-9.75,7.96875,0.03125
184,184,1727175027451,0.21582031,-0.69610596,-0.17901611,0.015625,-3.8125,-0.34375
185,185,1727175027491,0.3305664,-0.6956177,-0.25567627,-0.859375,-12.40625,6.4375
186,186,1727175027531,-0.056396484,-0.79034424,-0.18927002,6.328125,-12.875,-1.375
187,187,1727175027571,0.08520508,-0.84259033,-0.18682861,0.46875,-15.234375,-7.53125
188,188,1727175027611,0.03881836,-0.9998169,-0.13043213,3.875,-16.046875,-5.875
189,189,1727175027651,-0.04248047,-1.0117798,-0.12384033,0.578125,3.84375,-8.015625
190,190,1727175027691,0.08642578,-0.9834595,-0.09576416,-5.765625,5.03125,-11.546875
191,191,1727175027731,0.11694336,-1.0703735,-0.13092041,-5.671875,1.8125,-11.875
192,192,1727175027771,0.016357422,-0.93341064,-0.16607666,-5.71875,0.421875,-8.1875
193,193,1727175027811,0.084472656,-0.9121704,-0.20147705,2.53125,1.546875,-5.109375
194,194,1727175027851,0.20703125,-0.95147705,-0.1104126,7.375,0.46875,-0.46875
195,195,1727175027891,-0.034423828,-0.9795532,-0.09454346,8.765625,-2.59375,1.84375
196,196,1727175027931,-0.10668945,-0.9968872,-0.1338501,-8.21875,-0.515625,-10.671875
197,197,1727175027971,-0.045654297,-0.9446411,-0.19244385,-1.96875,7.21875,-5.5
198,198,1727175028011,-0.088134766,-0.9368286,-0.1572876,5.1875,3.125,-5.59375
199,199,1727175028051,-0.19970703,-1.0535278,-0.10650635,6.0,1.3125,-5.671875
200,200,1727175028091,-0.22485352,-0.9963989,-0.20196533,2.375,18.421875,-2.359375
201,201,1727175028131,-0.125,-0.8567505,-0.034484863,9.953125,11.953125,-2.078125
202,202,1727175028171,-0.20776367,-1.046936,-0.18902588,-1.890625,4.875,-2.28125
203,203,1727175028211,-0.22851562,-1.0557251,-0.07476807,3.96875,3.109375,-0.765625
204,204,1727175028251,-0.22460938,-1.029602,-0.16119385,-1.359375,14.96875,-1.765625
205,205,1727175028291,-0.23291016,-0.9541626,-0.12261963,3.671875,6.109375,-2.265625
206,206,1727175028331,-0.26782227,-1.022522,-0.17974854,0.3125,13.578125,-1.578125
207,207,1727175028371,-0.2175293,-0.9817505,-0.16021729,2.5,12.3125,-0.28125
208,208,1727175028411,-0.23876953,-0.98931885,-0.08331299,4.734375,12.609375,2.234375
209,209,1727175028451,-0.26489258,-0.9619751,-0.08892822,1.8125,12.078125,3.890625
210,210,1727175028491,-0.22924805,-0.8855591,-0.06427002,-0.53125,11.21875,5.953125
211,211,1727175028531,-0.20874023,-0.8518677,-0.035705566,-0.90625,12.328125,10.453125
212,212,1727175028571,-0.07788086,-0.6211548,-0.17974854,8.046875,3.53125,8.171875
213,213,1727175028611,0.1418457,-0.6121216,-0.35333252,17.59375,-21.390625,11.921875
214,214,1727175028651,0.29077148,-1.5899048,-0.30108643,9.078125,-22.03125,12.515625
215,215,1727175028691,-0.12548828,-1.7368774,-0.7810669,-10.59375,13.59375,12.28125
216,216,1727175028731,0.2409668,-1.2151489,-0.00079345703,-9.578125,-2.546875,3.171875
217,217,1727175028771,-0.075927734,-0.97247314,-0.20709229,-10.90625,-10.265625,2.046875
218,218,1727175028811,0.140625,-0.8970337,-0.1687622,-9.5625,1.640625,0.484375
219,219,1727175028851,0.11621094,-0.59820557,-0.16973877,0.625,-10.3125,3.734375
220,220,1727175028891,0.053222656,-0.6643677,-0.1831665,2.828125,-18.921875,2.34375
221,221,1727175028931,0.014404297,-0.8164673,-0.1873169,-1.46875,-10.828125,-1.46875
222,222,1727175028971,0.017822266,-0.84039307,-0.11383057,-0.25,-5.609375,-5.375
223,223,1727175029011,0.13061523,-1.1275024,-0.22003174,-22.453125,-13.734375,-10.90625
224,224,1727175029051,-0.103271484,-1.1690063,0.08709717,-12.609375,2.453125,-7.4375
225,225,1727175029091,-0.1171875,-1.0278931,-0.073791504,-27.828125,18.046875,-17.671875
226,226,1727175029131,0.063964844,-0.92193604,-0.06817627,-13.03125,13.078125,-10.671875
227,227,1727175029171,-0.036865234,-0.91070557,-0.11138916,2.859375,5.15625,-1.796875
228,228,1727175029211,-0.0859375,-1.0283813,-0.14239502,3.859375,-2.59375,-5.9375
229,229,1727175029251,-0.103027344,-1.020813,-0.117492676,8.15625,-2.890625,-4.390625
230,230,1727175029291,-0.17871094,-0.95562744,-0.11431885,8.453125,3.75,-5.828125
231,231,1727175029331,-0.17333984,-0.96539307,-0.15802002,8.359375,8.546875,-2.3125
232,232,1727175029371,-0.23095703,-0.9678345,-0.12286377,8.296875,7.234375,-3.3125
233,233,1727175029411,-0.22338867,-1.0772095,-0.0803833,7.1875,7.421875,-4.09375
234,234,1727175029451,-0.20239258,-0.99664307,-0.06817627,-9.421875,4.1875,-4.703125
235,235,1727175029491,-0.1508789,-1.0161743,-0.18414307,-4.75,12.390625,-1.1875
236,236,1727175029531,-0.20996094,-0.9417114,-0.08306885,-3.8125,8.640625,-0.828125
237,237,1727175029571,-0.24121094,-0.9553833,-0.097473145,-0.796875,7.4375,-2.78125
238,238,1727175029611,-0.27270508,-1.0010376,-0.10015869,4.765625,5.953125,-0.0625
239,239,1727175029651,-0.21166992,-0.9939575,-0.11407471,1.015625,6.125,0.78125
240,240,1727175029691,-0.22875977,-0.9561157,-0.09039307,3.859375,6.015625,5.671875
241,241,1727175029731,-0.27319336,-0.96881104,-0.05230713,1.21875,5.03125,5.75
242,242,1727175029771,-0.20800781,-0.9338989,-0.11968994,2.0625,5.609375,6.84375
243,243,1727175029811,-0.13134766,-0.8291626,0.02166748,6.296875,-0.21875,8.515625
244,244,1727175029851,-0.19946289,-0.96832275,-0.062805176,-5.578125,-8.140625,7.546875
245,245,1727175029891,-0.072509766,-0.86676025,-0.08135986,2.015625,-12.78125,8.640625
246,246,1727175029931,0.049316406,-1.1680298,-0.33673096,-2.265625,-27.046875,8.53125
247,247,1727175029971,-0.056152344,-1.2295532,0.085632324,10.375,-3.65625,9.640625
248,248,1727175030011,0.1003418,-1.0401001,-0.3040161,-8.90625,-17.671875,4.03125
249,249,1727175030051,0.052001953,-1.0493774,0.020202637,8.21875,-11.234375,8.859375
250,250,1727175030091,-0.08325195,-1.1624146,-0.12994385,-6.984375,-8.984375,0.90625
251,251,1727175030131,0.09375,-1.0064087,-0.16070557,-3.796875,6.0,4.046875
252,252,1727175030171,0.07836914,-0.9209595,-0.13458252,-2.6875,1.125,1.28125
253,253,1727175030211,0.17382812,-0.88946533,-0.1026001,1.625,-7.5,2.5
254,254,1727175030251,0.08154297,-0.83843994,-0.12017822,3.15625,-11.140625,1.875
255,255,1727175030291,0.010253906,-0.8858032,-0.18487549,7.875,-16.9375,-1.453125
256,256,1727175030331,0.07104492,-1.0742798,-0.20977783,5.15625,-2.671875,-4.359375
257,257,1727175030371,0.03149414,-0.9209595,-0.04864502,7.046875,8.921875,-1.96875
258,258,1727175030411,-0.1796875,-0.9314575,-0.032287598,-2.515625,5.921875,-10.265625
259,259,1727175030451,0.11352539,-1.1008911,-0.18560791,-6.421875,1.734375,-11.328125
260,260,1727175030491,-0.036621094,-0.98150635,-0.13116455,-0.171875,6.5625,-1.875
261,261,1727175030531,-0.027832031,-0.95440674,-0.23858643,-0.84375,7.21875,-2.453125
262,262,1727175030571,-0.06738281,-0.8569946,-0.15460205,5.46875,3.359375,-1.421875
263,263,1727175030611,-0.072265625,-1.0037231,-0.21661377,2.71875,3.703125,-2.8125
264,264,1727175030651,-0.03100586,-0.9194946,-0.082092285,10.78125,6.96875,-1.0625
265,265,1727175030691,-0.13745117,-0.94732666,-0.25152588,-1.453125,0.03125,0.640625
266,266,1727175030731,-0.1484375,-0.9151001,-0.128479,7.234375,-0.265625,-1.953125
267,267,1727175030771,-0.2084961,-0.98687744,-0.25030518,6.265625,6.46875,1.5625
268,268,1727175030811,-0.1784668,-0.9805298,-0.20489502,5.234375,7.265625,-0.171875
269,269,1727175030851,-0.12475586,-1.0361938,-0.21954346,5.96875,4.0,-0.375
270,270,1727175030891,-0.15844727,-1.0117798,-0.20440674,3.890625,4.734375,1.171875
271,271,1727175030931,-0.21459961,-1.0137329,-0.1873169,4.78125,5.671875,0.765625
272,272,1727175030971,-0.15600586,-1.0064087,-0.24273682,3.28125,7.234375,1.5
273,273,1727175031011,-0.20458984,-1.0134888,-0.22589111,2.75,9.203125,2.640625
274,274,1727175031051,-0.18261719,-1.0405884,-0.18096924,-0.171875,6.140625,1.40625
275,275,1727175031091,-0.24511719,-1.0444946,-0.15509033,-1.796875,7.25,4.59375
276,276,1727175031131,-0.22680664,-0.9529419,-0.058654785,-11.875,6.4375,2.84375
277,277,1727175031171,-0.21069336,-0.8826294,-0.077941895,-24.78125,18.5625,4.046875
278,278,1727175031211,-0.11450195,-0.7925415,-0.04058838,-21.15625,5.46875,4.453125
279,279,1727175031251,-0.06323242,-0.7932739,-0.15216064,-10.59375,-13.359375,5.171875
280,280,1727175031291,0.09643555,-0.7686157,-0.10723877,3.515625,-16.703125,13.34375
281,281,1727175031331,0.25170898,-1.4483032,-0.32281494,0.234375,-49.515625,4.53125
282,282,1727175031371,-0.16992188,-1.4783325,-0.48980713,-16.515625,13.34375,-5.546875
283,283,1727175031411,0.14916992,-1.178772,-0.11456299,-10.859375,6.25,-0.078125
284,284,1727175031451,0.03125,-0.9495239,-0.077941895,-0.21875,-12.921875,1.15625
285,285,1727175031491,0.04321289,-0.8201294,0.02923584,5.1875,4.234375,3.9375
286,286,1727175031531,0.07348633,-0.73565674,-0.2456665,-9.265625,1.84375,0.359375
287,287,1727175031571,0.12646484,-0.798645,-0.13531494,9.578125,-5.640625,-0.359375
288,288,1727175031611,0.045166016,-0.913147,-0.101135254,1.53125,-5.59375,-4.03125
289,289,1727175031651,-0.07739258,-1.1328735,-0.07696533,-6.109375,8.15625,-10.125
290,290,1727175031691,0.0126953125,-1.0872192,-0.08062744,-1.5,14.3125,-3.71875
291,291,1727175031731,-0.018310547,-0.958313,-0.013244629,-4.0625,7.859375,-6.890625
292,292,1727175031771,0.030761719,-0.9920044,-0.06085205,-3.421875,5.5,-6.078125
293,293,1727175031811,0.043701172,-0.9976196,-0.16998291,-1.09375,4.84375,-4.234375
294,294,1727175031851,0.001953125,-0.88409424,-0.16412354,5.0625,1.734375,-1.421875
295,295,1727175031891,-0.10107422,-0.9072876,-0.050109863,11.0,-2.703125,-0.8125
296,296,1727175031931,-0.12841797,-0.98760986,-0.1819458,3.515625,-0.578125,0.6875
297,297,1727175031971,-0.15405273,-0.9595337,-0.10821533,13.265625,-5.609375,-1.6875
298,298,1727175032011,-0.21533203,-1.0354614,-0.13873291,5.53125,14.34375,-0.421875
299,299,1727175032051,-0.18432617,-0.9717407,-0.11871338,7.59375,1.9375,-0.28125
300,300,1727175032091,-0.19067383,-1.1187134,-0.07647705,2.84375,2.53125,-3.84375
301,301,1727175032131,-0.18969727,-1.0879517,-0.11895752,1.8125,3.53125,-3.53125
302,302,1727175032171,-0.13696289,-1.0010376,-0.1116333,5.765625,2.609375,-0.578125
303,303,1727175032211,-0.21948242,-0.96539307,-0.12286377,6.40625,5.40625,0.03125
304,304,1727175032251,-0.23657227,-0.9800415,-0.1326294,6.015625,2.765625,-0.234375
305,305,1727175032291,-0.22265625,-1.0332642,-0.2144165,3.171875,5.703125,-0.09375
306,306,1727175032331,-0.22290039,-0.9824829,-0.1416626,2.015625,6.640625,0.375
307,307,1727175032371,-0.20678711,-1.0064087,-0.16168213,-6.21875,2.984375,1.1875
308,308,1727175032411,-0.2319336,-0.9763794,0.043151855,-0.625,-5.9375,4.140625
309,309,1727175032451,-0.21166992,-0.90826416,-0.040100098,-7.6875,2.140625,6.984375
310,310,1727175032491,-0.10058594,-0.7112427,-0.085998535,-9.5625,-4.78125,6.40625
311,311,1727175032531,-0.02758789,-0.6860962,-0.07281494,-2.953125,-19.625,14.046875
312,312,1727175032571,0.13012695,-1.1521606,-0.6934204,11.265625,-75.9375,4.1875
313,313,1727175032611,-0.01977539,-1.5120239,-0.16925049,-19.359375,33.875,0.0625
314,314,1727175032651,0.061035156,-1.3052368,-0.09136963,-10.90625,25.515625,-2.65625
315,315,1727175032691,-0.055908203,-0.64385986,-0.06304932,-3.8125,-5.859375,11.40625
316,316,1727175032731,0.2277832,-0.9180298,-0.10308838,1.6875,-3.859375,1.015625
317,317,1727175032771,0.0637207,-0.8760376,-0.22442627,0.015625,-5.15625,8.25
318,318,1727175032811,0.11279297,-0.8809204,-0.16851807,8.046875,-8.203125,3.171875
319,319,1727175032851,0.041748047,-0.9487915,-0.2234497,7.96875,-1.1875,3.78125
320,320,1727175032891,0.014404297,-0.95806885,-0.13775635,8.734375,-0.09375,0.078125
321,321,1727175032931,0.01171875,-0.98687744,-0.18585205,2.546875,5.671875,-1.375
322,322,1727175032971,-0.043945312,-0.9692993,-0.081848145,1.953125,12.78125,-3.6875
323,323,1727175033011,0.114746094,-1.0391235,-0.16900635,0.09375,10.015625,-3.1875
324,324,1727175033051,0.11694336,-0.91534424,-0.13775635,5.515625,8.40625,-1.5
325,325,1727175033091,-0.107177734,-0.99468994,-0.22467041,-0.671875,6.453125,-3.921875
326,326,1727175033131,0.05053711,-0.91778564,-0.27911377,5.28125,3.84375,-2.25
327,327,1727175033171,-0.13623047,-0.9146118,-0.20855713,13.59375,7.953125,-1.171875
328,328,1727175033211,-0.028564453,-1.000061,-0.31671143,0.53125,0.734375,-3.734375
329,329,1727175033251,-0.09106445,-0.9224243,-0.12921143,8.609375,12.78125,0.6875
330,330,1727175033291,-0.2019043,-0.9085083,-0.23834229,8.140625,6.3125,-0.1875
331,331,1727175033331,-0.09692383,-0.99102783,-0.26715088,6.453125,12.125,-0.296875
332,332,1727175033371,-0.17944336,-0.9932251,-0.22784424,3.640625,11.515625,1.84375
333,333,1727175033411,-0.19506836,-1.0205688,-0.2131958,-0.78125,13.109375,-1.296875
334,334,1727175033451,-0.13012695,-1.0388794,-0.17364502,-1.1875,9.140625,0.84375
335,335,1727175033491,-0.25024414,-0.97052,-0.34381104,1.484375,8.828125,-0.0625
336,336,1727175033531,-0.119628906,-0.99835205,-0.2522583,-1.734375,20.796875,-3.1875
337,337,1727175033571,-0.14404297,-0.9168091,-0.10845947,5.15625,10.203125,0.9375
338,338,1727175033611,-0.25268555,-1.0352173,-0.3225708,-3.546875,11.0625,3.28125
339,339,1727175033651,-0.13476562,-0.9751587,-0.21514893,3.53125,4.640625,-0.1875
340,340,1727175033691,-0.20776367,-1.0652466,-0.20343018,-3.84375,11.265625,4.578125
341,341,1727175033731,-0.21191406,-0.9295044,-0.06549072,-9.671875,10.484375,4.78125
342,342,1727175033771,-0.10986328,-0.89141846,-0.11236572,-20.34375,12.21875,6.890625
343,343,1727175033811,-0.030517578,-0.74786377,-0.16241455,-17.859375,0.78125,8.59375
344,344,1727175033851,0.1105957,-0.788147,-0.16900635,0.078125,-16.65625,10.40625
345,345,1727175033891,0.3828125,-1.1524048,-0.41461182,-2.328125,-62.890625,7.28125
346,346,1727175033931,-0.11010742,-1.256897,-0.4072876,7.921875,8.34375,13.3125
347,347,1727175033971,0.0021972656,-1.2095337,-0.32281494,-7.46875,5.640625,-1.75
348,348,1727175034011,0.016357422,-1.0159302,-0.1572876,4.8125,9.65625,1.375
349,349,1727175034051,0.17529297,-0.8526001,-0.1519165,-1.46875,-8.25,-0.921875
350,350,1727175034091,0.049804688,-0.76446533,-0.08355713,10.46875,10.109375,6.40625
351,351,1727175034131,0.099609375,-0.7383423,-0.36798096,-4.375,4.796875,-2.078125
352,352,1727175034171,0.11206055,-0.8262329,-0.2300415,5.6875,-3.609375,-4.1875
353,353,1727175034211,0.0041503906,-0.92437744,-0.15045166,0.46875,-5.125,-9.109375
354,354,1727175034251,0.08251953,-1.0784302,-0.27911377,-8.34375,4.40625,-12.828125
355,355,1727175034291,-0.12451172,-1.0064087,-0.036193848,-1.109375,12.375,-5.890625
356,356,1727175034331,-0.32666016,-1.1585083,-0.2637329,-15.71875,25.984375,-11.453125
357,357,1727175034371,0.099121094,-0.9072876,-0.33111572,2.53125,0.09375,-1.328125
358,358,1727175034411,-0.04248047,-0.8530884,-0.21295166,9.484375,0.453125,-2.40625
359,359,1727175034451,-0.13305664,-0.94610596,-0.21246338,1.890625,-2.765625,1.3125
360,360,1727175034491,-0.14355469,-0.91656494,-0.17340088,8.78125,-4.515625,-1.21875
361,361,1727175034531,-0.18310547,-1.0298462,-0.24639893,2.515625,1.8125,-4.0
362,362,1727175034571,-0.20922852,-0.958313,-0.24273682,3.40625,-2.84375,-4.4375
363,363,1727175034611,-0.14428711,-0.9812622,-0.29400635,2.8125,8.515625,-4.515625
364,364,1727175034651,-0.17407227,-0.93414307,-0.2715454,5.0625,14.515625,0.703125
365,365,1727175034691,-0.15771484,-0.96832275,-0.23687744,6.9375,11.265625,0.9375
366,366,1727175034731,-0.1628418,-1.0264282,-0.29083252,8.5625,5.75,3.90625
367,367,1727175034771,-0.22021484,-1.0100708,-0.2925415,5.03125,10.578125,3.796875
368,368,1727175034811,-0.2446289,-0.99298096,-0.24102783,0.859375,10.5,3.046875
369,369,1727175034851,-0.21264648,-0.96417236,-0.25811768,4.234375,16.9375,3.953125
370,370,1727175034891,-0.1850586,-1.0579224,-0.33258057,-4.453125,7.515625,6.28125
371,371,1727175034931,-0.17041016,-1.1238403,-0.269104,-11.5625,14.84375,7.640625
372,372,1727175034971,-0.171875,-1.0488892,-0.18048096,-24.046875,5.109375,7.90625
373,373,1727175035011,-0.12792969,-0.9343872,-0.18145752,-45.9375,7.015625,2.453125
374,374,1727175035051,-0.09741211,-0.7739868,0.008728027,-45.84375,24.578125,5.71875
375,375,1727175035091,0.06542969,-0.7564087,-0.050354004,-25.390625,0.96875,17.671875
376,376,1727175035131,0.2434082,-0.91534424,-0.08526611,-0.578125,-19.546875,13.890625
377,377,1727175035171,-0.1472168,-1.2383423,-0.13653564,7.3125,-33.625,3.734375
378,378,1727175035211,0.017333984,-1.4072876,-0.16656494,3.828125,-14.046875,-2.125
379,379,1727175035251,0.11279297,-0.8386841,0.00091552734,22.59375,1.21875,8.4375
380,380,1727175035291,0.016113281,-0.8233032,0.0072631836,12.421875,-7.265625,4.421875
381,381,1727175035331,0.014892578,-0.8464966,0.08734131,18.8125,-9.703125,5.421875
382,382,1727175035371,0.067871094,-0.8867798,-0.16680908,7.203125,-2.234375,2.359375
383,383,1727175035411,0.10424805,-0.87506104,-0.1326294,6.796875,-6.6875,-8.296875
384,384,1727175035451,-0.025634766,-1.1680298,-0.21417236,1.890625,-0.90625,-10.703125
385,385,1727175035491,0.03564453,-1.0796509,-0.15093994,0.921875,6.53125,-5.625
386,386,1727175035531,-0.18286133,-1.0166626,-0.105773926,-0.875,10.0,-7.984375
387,387,1727175035571,-0.083984375,-0.94317627,-0.2366333,2.1875,12.859375,-10.796875
388,388,1727175035611,-0.08496094,-0.8904419,-0.21759033,0.046875,16.0,-12.796875
389,389,1727175035651,-0.05126953,-1.0071411,-0.25958252,8.984375,9.0,-4.09375
390,390,1727175035691,-0.1081543,-0.98565674,-0.2612915,3.796875,5.9375,-4.25
391,391,1727175035731,-0.2553711,-1.0410767,-0.32720947,1.890625,3.3125,-5.09375
392,392,1727175035771,-0.13647461,-1.0371704,-0.24493408,3.015625,9.703125,-3.03125
393,393,1727175035811,-0.14916992,-0.94537354,-0.24591064,3.140625,-0.890625,-2.109375
394,394,1727175035851,-0.19970703,-1.0264282,-0.25958252,0.484375,0.9375,-0.8125
395,395,1727175035891,-0.15893555,-1.010315,-0.31866455,1.328125,-4.1875,-1.0
396,396,1727175035931,-0.20019531,-1.02594,-0.23297119,-1.921875,3.546875,-0.828125
397,397,1727175035971,-0.18701172,-0.98394775,-0.23468018,-4.0,2.09375,1.65625
398,398,1727175036011,-0.22631836,-0.94732666,-0.18536377,-3.9375,3.21875,1.484375
399,399,1727175036051,-0.19580078,-1.017395,-0.2564087,-4.8125,8.96875,2.578125
400,400,1727175036091,-0.15917969,-0.93341064,-0.081604004,-1.140625,3.59375,2.125
401,401,1727175036131,-0.19873047,-0.99346924,-0.2756958,-16.71875,5.390625,4.09375
402,402,1727175036171,-0.07128906,-0.92803955,-0.06866455,-9.65625,-7.84375,1.25
403,403,1727175036211,-0.24853516,-0.99420166,-0.018859863,-24.375,9.609375,6.21875
404,404,1727175036251,-0.078125,-0.61431885,-0.013977051,-62.640625,7.359375,-3.0
405,405,1727175036291,0.020019531,-0.3892212,-0.16900635,-8.484375,-7.609375,17.0
406,406,1727175036331,0.23608398,-1.27594,-0.14190674,-13.328125,-60.3125,6.15625
407,407,1727175036371,0.024414062,-1.8899536,0.1305542,-5.953125,-36.671875,3.015625
408,408,1727175036411,-0.49291992,-1.2146606,-0.0044555664,2.21875,-5.71875,3.84375
409,409,1727175036451,-0.1274414,-0.70196533,-0.043518066,-2.578125,7.765625,-3.84375
410,410,1727175036491,0.13378906,-0.7984009,0.06341553,9.9375,-1.796875,1.671875
411,411,1727175036531,0.031982422,-0.88897705,-0.02911377,20.265625,-18.6875,5.484375
412,412,1727175036571,0.011962891,-0.9951782,0.038513184,20.0,-11.78125,2.46875
413,413,1727175036611,-0.0061035156,-1.1152954,-0.008850098,15.25,-2.34375,2.796875
414,414,1727175036651,-0.061279297,-0.94122314,0.05316162,14.03125,3.765625,1.140625
415,415,1727175036691,-0.1862793,-0.9849243,0.06854248,5.65625,14.609375,-3.890625
416,416,1727175036731,-0.15234375,-1.1611938,-0.14312744,5.1875,18.375,-7.640625
417,417,1727175036771,0.028808594,-0.9993286,-0.37774658,7.515625,16.859375,-0.734375
418,418,1727175036811,0.021728516,-0.84381104,-0.2720337,15.28125,12.296875,1.59375
419,419,1727175036851,-0.12988281,-0.8994751,-0.26153564,14.875,9.59375,-4.265625
420,420,1727175036891,-0.072753906,-0.91778564,-0.23370361,10.921875,7.75,-4.78125
421,421,1727175036931,-0.22363281,-0.9524536,-0.18560791,13.375,10.34375,-5.875
422,422,1727175036971,-0.17211914,-1.0422974,-0.3340454,-4.34375,3.71875,-8.328125
423,423,1727175037011,-0.15429688,-0.99005127,-0.1807251,2.625,17.234375,-3.90625
424,424,1727175037051,-0.20996094,-0.9216919,-0.16265869,7.1875,8.953125,0.734375
425,425,1727175037091,-0.2421875,-0.9429321,-0.16607666,-1.265625,11.125,0.484375
426,426,1727175037131,-0.18115234,-0.9963989,-0.32061768,1.203125,-1.515625,0.984375
427,427,1727175037171,-0.16967773,-1.0769653,-0.3201294,-6.609375,-0.71875,-3.3125
428,428,1727175037211,-0.123046875,-1.0283813,-0.26690674,-1.203125,8.203125,2.46875
429,429,1727175037251,-0.30981445,-1.0476685,-0.1897583,-12.390625,5.828125,2.625
430,430,1727175037291,-0.16064453,-0.99591064,-0.22442627,-19.765625,10.21875,0.5625
431,431,1727175037331,-0.17041016,-0.9573364,0.007019043,-22.21875,1.515625,3.6875
432,432,1727175037371,-0.13671875,-0.8862915,-0.113342285,-23.640625,-0.171875,10.171875
433,433,1727175037411,-0.030517578,-0.710022,-0.007385254,-23.5625,-24.90625,13.203125
434,434,1727175037451,0.009033203,-0.6956177,-0.22467041,-25.703125,-26.3125,15.5625
435,435,1727175037491,0.13793945,-1.1577759,-0.050109863,-25.875,-52.578125,6.421875
436,436,1727175037531,-0.18383789,-1.4883423,0.070495605,-12.484375,-23.65625,-0.046875
437,437,1727175037571,-0.23999023,-1.2141724,-0.09210205,-3.875,-3.1875,2.71875
438,438,1727175037611,-0.09277344,-0.94073486,-0.023742676,7.109375,-1.34375,0.859375
439,439,1727175037651,0.07470703,-0.9512329,-0.003479004,14.53125,3.25,4.21875
440,440,1727175037691,0.040283203,-0.848938,-0.055236816,12.53125,-0.0625,4.515625
441,441,1727175037731,0.08569336,-0.88238525,-0.09844971,10.03125,1.125,3.84375
442,442,1727175037771,0.12866211,-0.9932251,0.0138549805,13.28125,1.6875,0.328125
443,443,1727175037811,-0.014160156,-1.0618286,-0.07598877,4.796875,-6.40625,1.859375
444,444,1727175037851,-0.0625,-0.97198486,0.09979248,3.265625,6.203125,-0.453125
445,445,1727175037891,-0.05834961,-0.99884033,-0.03326416,-4.875,7.546875,-5.875
446,446,1727175037931,0.12841797,-1.0134888,-0.051086426,-1.671875,3.609375,-8.109375
447,447,1727175037971,0.107910156,-1.0046997,-0.05303955,1.46875,7.0,0.671875
448,448,1727175038011,-0.19482422,-1.036438,-0.08770752,-2.734375,-0.5625,-7.796875
449,449,1727175038051,0.021728516,-1.0379028,-0.18878174,6.71875,5.90625,-2.25
450,450,1727175038091,-0.15405273,-0.95562744,-0.07940674,8.671875,2.546875,-5.453125
451,451,1727175038131,-0.075927734,-0.9644165,-0.10650635,7.484375,5.984375,-4.6875
452,452,1727175038171,-0.060791016,-0.986145,-0.1482544,7.09375,1.21875,-0.59375
453,453,1727175038211,-0.20166016,-0.96759033,-0.17559814,4.796875,5.75,-1.515625
454,454,1727175038251,-0.118896484,-0.93878174,-0.21295166,1.96875,-1.65625,-1.03125
455,455,1727175038291,-0.19702148,-1.0481567,-0.15679932,3.546875,4.953125,0.9375
456,456,1727175038331,-0.10546875,-1.0562134,-0.1716919,0.671875,-2.34375,0.578125
457,457,1727175038371,-0.13330078,-1.0303345,-0.23101807,1.484375,-2.796875,0.828125
458,458,1727175038411,-0.12231445,-1.0383911,-0.2756958,-3.28125,-4.4375,-2.078125
459,459,1727175038451,-0.1772461,-1.0178833,-0.18389893,0.53125,-2.328125,-0.671875
460,460,1727175038491,-0.20581055,-1.0305786,-0.14605713,-0.921875,2.1875,-0.0625
461,461,1727175038531,-0.16674805,-0.99468994,-0.10748291,-1.203125,3.15625,1.03125
462,462,1727175038571,-0.15576172,-1.0357056,-0.17877197,-9.40625,4.171875,1.5
463,463,1727175038611,-0.076416016,-0.9295044,-0.062316895,-6.9375,2.484375,1.3125
464,464,1727175038651,-0.14892578,-0.9053345,-0.10284424,-31.3125,-5.28125,-0.015625
465,465,1727175038691,-0.23632812,-0.61431885,0.1618042,-22.71875,15.0,1.53125
466,466,1727175038731,0.0007324219,-0.5396118,-0.04107666,-15.734375,-3.75,5.9375
467,467,1727175038771,0.22973633,-0.6489868,-0.07501221,-0.484375,-34.09375,5.125
468,468,1727175038811,0.016113281,-1.6531372,-0.0012817383,-19.625,-33.171875,-5.046875
469,469,1727175038851,-0.06713867,-1.7300415,-0.10650635,-17.296875,-2.234375,-2.46875
470,470,1727175038891,-0.17260742,-0.93951416,0.03656006,0.046875,1.015625,2.5625
471,471,1727175038931,-0.006591797,-0.8323364,0.093688965,5.09375,-4.640625,-3.8125
472,472,1727175038971,0.056884766,-0.98028564,0.024841309,25.578125,-12.03125,4.046875
473,473,1727175039011,0.076660156,-0.88897705,-0.024230957,24.90625,-12.296875,2.890625
474,474,1727175039051,0.05517578,-0.95758057,0.050476074,27.921875,-11.0,3.125
475,475,1727175039091,0.017822266,-0.9216919,-0.15460205,12.9375,-8.71875,0.265625
476,476,1727175039131,-0.024658203,-1.0278931,-0.018615723,1.1875,12.875,-6.3125
477,477,1727175039171,0.032958984,-0.9951782,0.04144287,-0.671875,4.96875,-4.28125
478,478,1727175039211,-0.3046875,-0.96417236,0.04168701,-0.359375,7.8125,-4.515625
479,479,1727175039251,-0.24682617,-1.2373657,-0.34747314,-14.671875,25.21875,-13.75
480,480,1727175039291,0.11425781,-0.9373169,-0.22296143,3.765625,5.1875,0.46875
481,481,1727175039331,-0.16357422,-0.8838501,-0.10479736,6.046875,-1.046875,-3.640625
482,482,1727175039371,-0.2019043,-1.06427,-0.11968994,2.71875,3.859375,-6.484375
483,483,1727175039411,-0.11010742,-1.0210571,-0.21392822,-1.28125,2.53125,-5.515625
484,484,1727175039451,-0.06762695,-1.0076294,-0.08502197,2.984375,-10.046875,-3.359375
485,485,1727175039491,-0.26489258,-0.9578247,-0.10601807,-0.421875,-2.5,-1.625
486,486,1727175039531,-0.22753906,-0.87677,-0.097473145,6.234375,-2.390625,-1.53125
487,487,1727175039571,-0.21289062,-0.9854126,-0.18170166,0.453125,7.0625,-2.359375
488,488,1727175039611,-0.16357422,-1.0098267,-0.13653564,1.828125,-0.921875,-0.640625
489,489,1727175039651,-0.20507812,-1.0061646,-0.105529785,-2.140625,6.21875,-1.515625
490,490,1727175039691,-0.17016602,-0.99346924,-0.1716919,-4.25,4.234375,-0.078125
491,491,1727175039731,-0.18334961,-1.0081177,-0.12359619,-3.3125,0.609375,0.1875
492,492,1727175039771,-0.2199707,-1.0110474,-0.11529541,-3.234375,2.125,1.0
493,493,1727175039811,-0.19799805,-1.0098267,-0.14581299,-3.140625,-2.234375,1.6875
494,494,1727175039851,-0.18017578,-1.0427856,-0.15509033,-3.890625,1.765625,1.78125
495,495,1727175039891,-0.21899414,-1.0115356,-0.026428223,2.71875,2.84375,2.5
496,496,1727175039931,-0.19824219,-0.99005127,-0.13555908,-5.578125,1.890625,3.5625
497,497,1727175039971,-0.20898438,-1.0015259,-0.006164551,-6.15625,4.375,2.328125
498,498,1727175040011,-0.1274414,-0.9109497,-0.094055176,-13.109375,2.5625,3.921875
499,499,1727175040051,-0.11303711,-0.8320923,0.097595215,-16.578125,2.21875,3.4375
500,500,1727175040091,-0.13916016,-0.66851807,-0.085754395,-20.6875,-2.546875,8.015625
501,501,1727175040131,0.084228516,-0.72442627,-0.18658447,3.734375,-29.53125,10.8125
502,502,1727175040171,0.23071289,-1.3355103,-0.023010254,-15.90625,-43.828125,1.59375
503,503,1727175040211,-0.4951172,-1.6658325,0.061950684,0.75,-8.828125,1.265625
504,504,1727175040251,-0.19604492,-1.1687622,-0.10650635,-14.15625,12.5625,-1.4375
505,505,1727175040291,0.0075683594,-0.69537354,-0.07598877,-1.15625,15.34375,2.671875
506,506,1727175040331,0.1015625,-0.8196411,-0.0029907227,14.984375,-0.046875,3.84375
507,507,1727175040371,0.056884766,-0.96417236,0.01751709,12.3125,-6.09375,5.234375
508,508,1727175040411,0.04321289,-1.000061,0.0079956055,14.578125,6.28125,6.390625
509,509,1727175040451,0.07885742,-0.86724854,0.03265381,7.421875,-3.96875,0.9375
510,510,1727175040491,-0.08642578,-0.9175415,0.062683105,6.484375,8.25,-2.28125
511,511,1727175040531,-0.0048828125,-1.0745239,-0.018859863,3.171875,5.890625,-4.578125
512,512,1727175040571,-0.19311523,-1.2173462,-0.18560791,3.78125,3.375,-7.171875
513,513,1727175040611,-0.16992188,-1.1021118,-0.21905518,3.484375,17.328125,-1.390625
514,514,1727175040651,-0.038330078,-0.89556885,-0.1506958,5.640625,12.640625,-4.75
515,515,1727175040691,-0.024414062,-0.9505005,-0.11016846,10.921875,12.0,-1.5625
516,516,1727175040731,-0.19189453,-0.94781494,-0.094055176,7.984375,4.8125,-4.40625
517,517,1727175040771,-0.1418457,-1.005188,-0.25909424,7.71875,2.46875,-3.453125
518,518,1727175040811,-0.20019531,-0.9155884,-0.11480713,8.75,1.40625,-4.015625
519,519,1727175040851,-0.12158203,-1.0159302,-0.20831299,11.046875,2.140625,0.890625
520,520,1727175040891,-0.13671875,-0.9187622,-0.16680908,11.546875,3.515625,0.75
521,521,1727175040931,-0.17626953,-0.9678345,-0.20758057,11.421875,1.59375,1.5
522,522,1727175040971,-0.14453125,-0.98931885,-0.19683838,6.46875,0.171875,0.015625
523,523,1727175041011,-0.16992188,-0.99102783,-0.18658447,3.5,2.28125,0.3125
524,524,1727175041051,-0.19042969,-0.99298096,-0.20904541,2.4375,0.84375,0.25
525,525,1727175041091,-0.16210938,-0.9817505,-0.2600708,1.75,0.0,-0.53125
526,526,1727175041131,-0.17602539,-0.9846802,-0.19415283,1.828125,2.75,0.796875
527,527,1727175041171,-0.18920898,-0.958313,-0.10772705,-4.765625,2.234375,-1.890625
528,528,1727175041211,-0.20336914,-1.0864868,-0.3381958,-5.1875,-7.421875,2.265625
529,529,1727175041251,-0.1887207,-1.0681763,-0.14117432,-6.859375,3.84375,-0.828125
530,530,1727175041291,-0.18701172,-1.0918579,-0.20050049,-13.09375,7.15625,2.953125
531,531,1727175041331,-0.119384766,-1.0078735,-0.1716919,-21.03125,1.921875,3.203125
532,532,1727175041371,-0.1953125,-0.9258423,-0.12677002,-33.578125,8.6875,0.59375
533,533,1727175041411,-0.15429688,-0.8521118,0.061462402,-39.953125,11.421875,-0.109375
534,534,1727175041451,-0.1328125,-0.66485596,0.020446777,-33.46875,3.09375,5.296875
535,535,1727175041491,0.100097656,-0.58599854,-0.0335083,-25.21875,-6.46875,7.265625
536,536,1727175041531,0.19824219,-1.0891724,0.08807373,-20.640625,-37.046875,11.453125
537,537,1727175041571,-0.28710938,-1.5081177,0.26409912,0.375,-11.34375,2.171875
538,538,1727175041611,-0.35498047,-1.4043579,0.054870605,1.359375,10.125,-3.09375
539,539,1727175041651,0.013427734,-0.8609009,-0.053771973,4.46875,2.671875,5.015625
540,540,1727175041691,0.05078125,-0.79693604,0.10443115,19.234375,-0.609375,-0.296875
541,541,1727175041731,0.009765625,-0.9043579,0.04510498,23.796875,-7.125,4.484375
542,542,1727175041771,0.091308594,-0.8936157,0.039489746,21.15625,-7.515625,4.90625
543,543,1727175041811,-0.057373047,-0.9522095,-0.07110596,10.328125,1.703125,1.8125
544,544,1727175041851,0.100097656,-0.94976807,0.081970215,3.890625,7.328125,-2.671875
545,545,1727175041891,-0.16455078,-0.8731079,0.14227295,-3.765625,9.515625,-5.640625
546,546,1727175041931,-0.171875,-1.3626099,-0.20050049,-5.828125,4.796875,-13.015625
547,547,1727175041971,-0.07910156,-1.3418579,-0.2420044,-1.71875,11.1875,8.453125
548,548,1727175042011,-0.38232422,-0.82818604,-0.051086426,-1.203125,14.234375,-8.28125
549,549,1727175042051,-0.0087890625,-0.95977783,-0.041809082,10.578125,12.859375,-9.984375
550,550,1727175042091,-0.17651367,-0.9351196,-0.12652588,3.9375,5.875,-1.96875
551,551,1727175042131,-0.20458984,-0.8982544,-0.13922119,7.28125,11.34375,-5.53125
552,552,1727175042171,-0.16601562,-0.92755127,-0.1609497,10.3125,1.75,-3.15625
553,553,1727175042211,-0.19750977,-0.98883057,-0.17071533,10.09375,6.234375,-1.71875
554,554,1727175042251,-0.19189453,-0.9932251,-0.20269775,9.0,6.828125,-2.5
555,555,1727175042291,-0.14501953,-0.991272,-0.1194458,6.859375,3.640625,-1.09375
556,556,1727175042331,-0.23217773,-1.0112915,-0.11431885,6.25,3.40625,-0.828125
557,557,1727175042371,-0.17480469,-0.9590454,-0.11383057,2.34375,4.34375,-0.4375
558,558,1727175042411,-0.18701172,-0.96099854,-0.14361572,2.09375,1.640625,1.484375
559,559,1727175042451,-0.1694336,-0.9763794,-0.1362915,0.375,-6.0625,2.40625
560,560,1727175042491,-0.22265625,-1.0776978,-0.20074463,-1.6875,-2.8125,2.546875
561,561,1727175042531,-0.2319336,-1.0325317,-0.13482666,-4.46875,-8.734375,0.28125
562,562,1727175042571,-0.18066406,-1.0562134,-0.20196533,-1.0625,1.46875,5.578125
563,563,1727175042611,-0.20922852,-1.022522,-0.21612549,1.8125,-5.09375,3.90625
564,564,1727175042651,-0.22460938,-1.0982056,-0.21002197,1.734375,-4.28125,4.140625
565,565,1727175042691,-0.22998047,-1.0249634,-0.15582275,-1.765625,-1.09375,2.828125
566,566,1727175042731,-0.19165039,-0.9338989,-0.04864502,-5.046875,9.3125,3.34375
567,567,1727175042771,-0.23071289,-0.7476196,-0.028381348,-3.1875,14.390625,7.53125
568,568,1727175042811,-0.084228516,-0.65509033,-0.036193848,-6.03125,9.140625,8.8125
569,569,1727175042851,0.024169922,-0.4883423,-0.1326294,-5.0,-0.578125,12.203125
570,570,1727175042891,0.12988281,-1.0122681,-0.12945557,-13.796875,-36.25,8.765625
571,571,1727175042931,-0.19726562,-1.8765259,0.21844482,-29.40625,-27.75,-4.1875
572,572,1727175042971,-0.33032227,-1.5112915,-0.020080566,-23.609375,11.234375,-4.765625
573,573,1727175043011,0.12133789,-0.86920166,-0.059387207,-20.671875,8.984375,1.90625
574,574,1727175043051,0.080078125,-0.82891846,-0.03375244,-0.125,3.265625,5.59375
575,575,1727175043091,0.048583984,-0.82940674,-0.016906738,8.171875,-9.359375,6.984375
576,576,1727175043131,0.0043945312,-0.9024048,0.022644043,15.3125,-7.171875,6.78125
577,577,1727175043171,-0.057617188,-0.8960571,-0.020568848,16.109375,1.046875,3.578125
578,578,1727175043211,0.05419922,-0.99176025,-0.09674072,8.75,-10.234375,-1.265625
579,579,1727175043251,-0.008056641,-1.0796509,-0.007385254,3.859375,-1.0625,-1.46875
580,580,1727175043291,-0.1430664,-0.9968872,0.039978027,1.859375,6.109375,-3.15625
581,581,1727175043331,-0.0063476562,-0.954895,0.070495605,5.03125,11.640625,-6.625
582,582,1727175043371,0.007080078,-1.1091919,-0.11651611,-5.59375,3.046875,-5.625
583,583,1727175043411,0.05834961,-1.1138306,0.007019043,5.0625,0.453125,-0.25
584,584,1727175043451,-0.010253906,-0.94000244,-0.11065674,4.578125,-6.6875,0.296875
585,585,1727175043491,-0.12548828,-0.92437744,0.008728027,9.796875,-5.28125,-3.421875
586,586,1727175043531,-0.11694336,-0.96466064,-0.10357666,6.46875,-0.515625,-6.59375
587,587,1727175043571,-0.122558594,-1.0166626,-0.144104,3.25,0.34375,-8.015625
588,588,1727175043611,-0.1850586,-1.029602,-0.09991455,5.09375,3.859375,-8.375
589,589,1727175043651,-0.13891602,-0.9495239,-0.12701416,6.296875,7.5625,-3.96875
590,590,1727175043691,-0.21923828,-0.9072876,-0.15118408,7.21875,3.578125,-5.203125
591,591,1727175043731,-0.17578125,-1.0076294,-0.13604736,-0.125,8.453125,-4.234375
592,592,1727175043771,-0.2109375,-1.0623169,-0.21295166,-5.8125,5.453125,-3.125
593,593,1727175043811,-0.16308594,-1.000061,-0.15264893,-0.515625,-11.140625,-1.140625
594,594,1727175043851,-0.24291992,-1.0186157,-0.13189697,-1.84375,9.0625,-2.15625
595,595,1727175043891,-0.15283203,-0.9492798,-0.17974854,3.515625,0.984375,-0.375
596,596,1727175043931,-0.23266602,-1.0320435,-0.22027588,1.796875,3.375,0.53125
597,597,1727175043971,-0.1928711,-1.0203247,-0.1741333,-1.859375,0.921875,-0.09375
598,598,1727175044011,-0.24658203,-1.0606079,-0.12896729,-0.046875,-1.765625,-0.4375
599,599,1727175044051,-0.23144531,-1.0420532,-0.1272583,-3.09375,4.875,3.015625
600,600,1727175044091,-0.22924805,-0.9763794,-0.11090088,-4.28125,5.71875,1.984375
601,601,1727175044131,-0.19140625,-0.9483032,-0.066467285,-7.21875,2.046875,1.359375
602,602,1727175044171,-0.18383789,-0.8262329,0.042663574,-10.109375,-0.609375,2.921875
603,603,1727175044211,-0.19262695,-0.7979126,-0.12628174,-10.671875,-0.921875,7.890625
604,604,1727175044251,0.118652344,-0.7017212,-0.17022705,-5.515625,-23.453125,6.609375
605,605,1727175044291,0.1015625,-0.9246216,-0.08673096,-2.703125,-41.734375,9.953125
606,606,1727175044331,-0.15649414,-1.567688,-0.034729004,2.921875,-40.484375,4.828125
607,607,1727175044371,-0.19824219,-1.3718872,-0.32159424,-2.03125,-23.28125,7.4375
608,608,1727175044411,-0.0026855469,-1.0188599,-0.12213135,-4.015625,-6.96875,-0.03125
609,609,1727175044451,-0.095458984,-1.0186157,-0.050354004,3.703125,-7.9375,3.328125
610,610,1727175044491,-0.040771484,-0.84820557,-0.035949707,5.9375,-1.390625,4.734375
611,611,1727175044531,0.049072266,-0.80963135,-0.10723877,6.375,-2.78125,4.0625
612,612,1727175044571,0.09448242,-0.9524536,-0.13018799,7.484375,0.265625,2.84375
613,613,1727175044611,-0.005126953,-0.9500122,0.015075684,14.765625,6.25,2.21875
614,614,1727175044651,-0.0034179688,-0.9312134,-0.2263794,-4.90625,1.125,-3.203125
615,615,1727175044691,0.08081055,-1.100647,-0.057678223,1.734375,10.921875,-6.40625
616,616,1727175044731,-0.026367188,-0.9534302,-0.06915283,3.65625,5.5625,0.15625
617,617,1727175044771,-0.10644531,-0.928772,-0.04547119,6.875,11.359375,-1.609375
618,618,1727175044811,-0.12036133,-1.0579224,-0.18756104,-0.65625,12.421875,-5.515625
619,619,1727175044851,-0.03466797,-1.0081177,-0.17803955,5.265625,7.75,-2.171875
620,620,1727175044891,-0.12109375,-0.9522095,-0.17193604,5.890625,11.359375,-2.1875
621,621,1727175044931,-0.0690918,-0.96295166,-0.2197876,5.6875,7.390625,-2.265625
622,622,1727175044971,-0.13989258,-0.9663696,-0.22711182,6.921875,3.4375,-2.09375
623,623,1727175045011,-0.12890625,-1.0039673,-0.20025635,0.53125,0.53125,-4.640625
624,624,1727175045051,-0.17651367,-1.0325317,-0.19073486,6.984375,-0.78125,-0.828125
625,625,1727175045091,-0.17504883,-0.9951782,-0.2444458,-5.1875,-6.5,-4.5625
626,626,1727175045131,-0.18920898,-1.0310669,-0.18048096,-2.609375,2.453125,-3.296875
627,627,1727175045171,-0.20263672,-0.9234009,-0.15899658,1.359375,1.6875,-2.140625
628,628,1727175045211,-0.1694336,-0.95635986,-0.24664307,1.328125,1.015625,-2.359375
629,629,1727175045251,-0.13696289,-1.0115356,-0.23028564,-1.796875,-0.984375,-1.5
630,630,1727175045291,-0.22167969,-0.95318604,-0.16363525,-1.9375,-0.8125,-1.796875
631,631,1727175045331,-0.2277832,-1.0073853,-0.16217041,-2.296875,0.828125,-1.1875
632,632,1727175045371,-0.16748047,-1.0720825,-0.22198486,-5.59375,-0.984375,-2.078125
633,633,1727175045411,-0.18237305,-1.0249634,-0.18951416,-7.140625,-3.078125,1.734375
634,634,1727175045451,-0.18920898,-1.0725708,-0.11505127,-9.8125,-5.0625,-0.125
635,635,1727175045491,-0.20703125,-0.9871216,-0.13970947,-14.171875,4.046875,2.453125
636,636,1727175045531,-0.20996094,-0.8279419,-0.0134887695,-12.890625,-10.484375,5.171875
637,637,1727175045571,-0.24804688,-0.82281494,-0.11651611,-6.953125,1.140625,5.359375
638,638,1727175045611,-0.020751953,-0.75567627,-0.12506104,-9.0,-6.609375,5.125
639,639,1727175045651,0.1381836,-0.8604126,0.062194824,-2.4375,-22.46875,1.3125
640,640,1727175045691,0.12768555,-1.361145,-0.1416626,4.25,-50.671875,1.125
641,641,1727175045731,-0.16992188,-1.2036743,-0.21295166,-8.203125,-25.828125,2.53125
642,642,1727175045771,-0.044189453,-1.0420532,-0.13165283,2.3125,-12.3125,5.078125
643,643,1727175045811,-0.28588867,-1.0488892,-0.1807251,-2.03125,-9.859375,2.125
644,644,1727175045851,0.095703125,-1.0112915,-0.14874268,-4.34375,8.078125,-1.84375
645,645,1727175045891,0.115722656,-0.79229736,-0.014465332,7.40625,-0.984375,12.765625
646,646,1727175045931,0.024658203,-0.829895,-0.13702393,8.46875,3.75,6.1875
647,647,1727175045971,0.12084961,-0.8250122,-0.317688,8.671875,-12.265625,2.265625
648,648,1727175046011,-0.068359375,-1.1729126,-0.21368408,5.15625,-1.125,-1.234375
649,649,1727175046051,-0.1772461,-1.0256958,-0.046203613,8.328125,17.0625,-0.6875
650,650,1727175046091,0.047607422,-0.94366455,-0.14898682,-1.515625,11.5,-6.96875
651,651,1727175046131,-0.006591797,-0.956604,-0.15948486,5.734375,9.265625,-0.6875
652,652,1727175046171,-0.033447266,-0.95269775,-0.21270752,2.671875,17.015625,-4.5
653,653,1727175046211,-0.048828125,-0.91729736,-0.2144165,10.3125,6.109375,-2.640625
654,654,1727175046251,-0.14331055,-0.96099854,-0.18756104,9.8125,7.578125,-4.265625
655,655,1727175046291,-0.07104492,-0.97784424,-0.24224854,9.421875,8.46875,-4.6875
656,656,1727175046331,-0.118652344,-0.9859009,-0.17437744,7.140625,6.265625,-2.8125
657,657,1727175046371,-0.12866211,-0.96759033,-0.20977783,6.21875,9.890625,-1.828125
658,658,1727175046411,-0.14526367,-0.9585571,-0.32110596,2.359375,0.796875,-2.578125
659,659,1727175046451,-0.19750977,-0.9985962,-0.21759033,4.296875,11.953125,-0.703125
660,660,1727175046491,-0.1496582,-0.9927368,-0.27545166,4.90625,8.84375,1.765625
661,661,1727175046531,-0.13964844,-1.0076294,-0.21124268,7.40625,-0.015625,0.984375
662,662,1727175046571,-0.2211914,-1.0210571,-0.28277588,3.46875,0.875,1.859375
663,663,1727175046611,-0.15136719,-1.0213013,-0.30621338,1.40625,0.328125,-0.375
664,664,1727175046651,-0.23852539,-0.9932251,-0.25543213,1.609375,4.90625,-0.625
665,665,1727175046691,-0.25830078,-0.9639282,-0.19805908,1.75,7.671875,0.53125
666,666,1727175046731,-0.19824219,-1.0178833,-0.28497314,-2.609375,7.40625,2.34375
667,667,1727175046771,-0.18188477,-1.0432739,-0.21417236,-7.046875,2.671875,1.65625
668,668,1727175046811,-0.24023438,-1.029602,-0.17315674,-7.546875,6.359375,4.453125
669,669,1727175046851,-0.2631836,-0.9402466,-0.12042236,-38.03125,1.71875,-2.09375
670,670,1727175046891,-0.23999023,-0.8106079,-0.06427002,-31.578125,11.453125,4.1875
671,671,1727175046931,-0.20166016,-0.6602173,-0.05279541,-19.9375,13.390625,4.546875
672,672,1727175046971,0.17016602,-0.79400635,-0.3789673,-6.671875,-8.015625,7.5625
673,673,1727175047011,0.16821289,-1.3757935,-0.2727661,-8.875,-24.4375,6.3125
674,674,1727175047051,-0.2927246,-1.5032349,-0.48321533,1.015625,-0.15625,3.90625
675,675,1727175047091,0.036376953,-1.0581665,-0.20147705,0.140625,7.0,5.109375
676,676,1727175047131,0.009033203,-0.9067993,-0.14361572,5.4375,4.765625,8.21875
677,677,1727175047171,0.046142578,-0.89678955,-0.14605713,4.390625,-0.34375,6.75
678,678,1727175047211,0.06347656,-0.835022,-0.18829346,4.984375,-8.125,7.375
679,679,1727175047251,0.044189453,-0.9158325,-0.13482666,13.15625,-11.265625,4.265625
680,680,1727175047291,0.07104492,-0.9529419,-0.3809204,-1.078125,-19.09375,1.546875
681,681,1727175047331,0.0,-1.0523071,-0.09259033,3.046875,-3.625,0.375
682,682,1727175047371,0.056640625,-1.0193481,-0.121154785,-0.796875,-7.75,0.578125
683,683,1727175047411,0.027832031,-0.97735596,-0.1272583,-1.421875,-7.515625,-1.046875
684,684,1727175047451,-0.02709961,-0.93951416,-0.13409424,-5.25,-1.421875,-4.21875
685,685,1727175047491,-0.045654297,-0.99298096,-0.089416504,-8.53125,6.6875,-5.109375
686,686,1727175047531,0.028564453,-0.92852783,-0.124816895,-5.65625,9.640625,-4.296875
687,687,1727175047571,0.11254883,-0.94781494,-0.14141846,-0.5625,3.75,-1.9375
688,688,1727175047611,-0.04248047,-1.0361938,-0.14678955,0.0625,0.625,-2.765625
689,689,1727175047651,-0.028808594,-1.0437622,-0.21832275,-2.09375,7.34375,-1.640625
690,690,1727175047691,-0.014892578,-0.95977783,-0.09503174,10.828125,3.546875,-2.046875
691,691,1727175047731,-0.080566406,-0.9429321,-0.16998291,-5.75,3.03125,-5.796875
692,692,1727175047771,-0.1574707,-0.9102173,-0.023742676,4.59375,13.984375,-4.1875
693,693,1727175047811,-0.12573242,-0.9282837,-0.17706299,3.6875,10.390625,-7.078125
694,694,1727175047851,-0.12670898,-1.0444946,-0.17022705,6.203125,6.828125,-7.140625
695,695,1727175047891,-0.1418457,-1.0147095,-0.20367432,5.953125,10.78125,-1.515625
696,696,1727175047931,-0.23168945,-0.91119385,-0.1687622,2.65625,16.84375,1.109375
697,697,1727175047971,-0.107421875,-1.0322876,-0.19830322,2.46875,9.328125,-3.078125
698,698,1727175048011,-0.21411133,-0.9834595,-0.20318604,7.5625,-4.0625,-0.515625
699,699,1727175048051,-0.2397461,-0.9961548,-0.2649536,6.953125,8.5,-1.125
700,700,1727175048091,-0.19750977,-1.0046997,-0.24249268,4.71875,4.328125,-2.65625
701,701,1727175048131,-0.22094727,-0.9961548,-0.09576416,10.078125,3.25,-2.109375
702,702,1727175048171,-0.17211914,-1.038147,-0.23052979,-5.171875,2.796875,1.234375
703,703,1727175048211,-0.2109375,-0.98101807,-0.047180176,0.109375,-0.609375,3.46875
704,704,1727175048251,-0.23657227,-0.9927368,-0.15704346,-4.40625,2.390625,5.078125
705,705,1727175048291,-0.13500977,-0.9199829,-0.09625244,-7.484375,2.734375,3.59375
706,706,1727175048331,-0.15112305,-0.8530884,-0.08258057,-27.9375,2.71875,3.09375
707,707,1727175048371,-0.092285156,-0.69195557,-0.0032348633,-21.75,-4.59375,7.6875
708,708,1727175048411,0.12988281,-0.65704346,-0.14752197,-6.6875,-29.640625,16.25
709,709,1727175048451,0.052978516,-1.1223755,-0.23834229,-1.671875,-38.96875,7.671875
710,710,1727175048491,-0.21459961,-1.6914673,-0.19805908,-7.84375,-9.109375,-5.640625
711,711,1727175048531,-0.07397461,-1.1668091,-0.23687744,-0.421875,14.609375,8.28125
712,712,1727175048571,0.09326172,-0.78326416,-0.08355713,11.421875,10.3125,5.453125
713,713,1727175048611,0.024169922,-0.92559814,-0.1116333,1.078125,-4.6875,5.15625
714,714,1727175048651,0.045166016,-0.9312134,-0.10821533,8.015625,7.171875,5.5
715,715,1727175048691,0.017333984,-0.8682251,-0.24176025,8.28125,4.921875,5.6875
716,716,1727175048731,0.1159668,-0.99176025,-0.20733643,11.96875,5.796875,4.046875
717,717,1727175048771,-0.010498047,-0.9612427,-0.17047119,8.0625,7.484375,1.828125
718,718,1727175048811,0.025878906,-1.0046997,-0.11407471,3.921875,12.109375,1.34375
719,719,1727175048851,-0.0017089844,-0.9536743,-0.08306885,-3.578125,16.140625,-2.953125
720,720,1727175048891,0.083984375,-0.94732666,0.031433105,-3.3125,14.09375,-7.15625
721,721,1727175048931,0.03173828,-1.0012817,-0.0049438477,-13.015625,3.515625,-4.5625
722,722,1727175048971,0.040527344,-0.9961548,-0.24273682,4.1875,10.15625,-4.4375
723,723,1727175049011,-0.31958008,-0.90704346,-0.05279541,7.34375,11.5625,-3.484375
724,724,1727175049051,-0.28076172,-1.0237427,-0.4212036,-18.875,24.3125,-19.5625
725,725,1727175049091,0.107421875,-0.89923096,-0.19537354,12.3125,11.984375,-6.328125
726,726,1727175049131,-0.061767578,-0.9053345,-0.25128174,9.9375,-2.84375,-0.03125
727,727,1727175049171,-0.20263672,-1.0239868,-0.12945557,16.0,0.625,-5.859375
728,728,1727175049211,-0.1574707,-1.1287231,-0.2210083,6.328125,1.84375,-4.859375
729,729,1727175049251,-0.21533203,-0.9541626,-0.30914307,3.0,-1.859375,-2.015625
730,730,1727175049291,-0.23046875,-0.9121704,-0.26202393,0.28125,8.296875,-3.0625
