,Unnamed: 0,timestamp,accel_x,accel_y,accel_z,gyro_x,gyro_y,gyro_z
0,0,1727972219287,0.02368164,-1.0791626,-0.12823486,-23.28125,-11.578125,-8.5625
1,1,1727972219327,0.08984375,-1.1707153,-0.18121338,-6.171875,0.25,-8.671875
2,2,1727972219367,0.18554688,-1.0134888,-0.25567627,4.4375,-12.03125,3.5
3,3,1727972219407,0.03540039,-1.0767212,-0.051818848,11.53125,-19.65625,-0.609375
4,4,1727972219447,0.0703125,-1.2454224,0.047790527,-0.609375,-32.6875,6.890625
5,5,1727972219487,0.0026855469,-1.0261841,0.039489746,19.265625,-21.28125,17.3125
6,6,1727972219527,0.004638672,-0.8538208,-0.051818848,8.59375,-7.828125,8.796875
7,7,1727972219567,0.011474609,-0.87335205,0.014831543,17.546875,-15.375,13.03125
8,8,1727972219607,-0.017822266,-0.7600708,0.090270996,9.671875,-15.296875,13.1875
9,9,1727972219647,-0.05810547,-0.73687744,0.07879639,11.578125,-11.125,12.71875
10,10,1727972219687,-0.063964844,-0.7424927,0.109802246,2.09375,-8.1875,11.46875
11,11,1727972219727,-0.099853516,-0.72979736,0.090270996,-5.671875,-8.53125,9.8125
12,12,1727972219767,-0.1730957,-0.7620239,-0.26104736,-7.1875,-27.765625,6.796875
13,13,1727972219807,0.38867188,-1.227356,-0.24810791,-14.125,-19.265625,-0.78125
14,14,1727972219847,0.8161621,-1.7566528,0.01776123,-11.984375,-2.453125,-0.203125
15,15,1727972219887,0.12475586,-1.3787231,-0.22833252,0.640625,0.0625,2.546875
16,16,1727972219927,0.41870117,-1.5115356,-0.09503174,-5.34375,7.53125,-9.78125
17,17,1727972219967,0.2548828,-1.2976685,0.032409668,0.453125,17.09375,-3.734375
18,18,1727972220007,0.119384766,-0.9854126,-6.1035156e-05,-0.46875,22.625,-8.640625
19,19,1727972220047,0.22314453,-0.8230591,0.054382324,0.90625,14.8125,-1.6875
20,20,1727972220087,0.08544922,-0.7529907,0.124938965,-0.640625,13.03125,-0.796875
21,21,1727972220127,-0.012939453,-0.73443604,0.10394287,3.234375,17.1875,-7.09375
22,22,1727972220167,0.03491211,-0.6734009,0.11541748,2.1875,20.640625,-5.65625
23,23,1727972220207,0.08569336,-0.57281494,0.07977295,-1.4375,31.015625,-11.234375
24,24,1727972220247,0.18310547,-0.6189575,0.007507324,-10.1875,4.359375,-9.78125
25,25,1727972220287,0.048583984,-1.1436157,-0.17218018,-24.9375,-2.125,-6.375
26,26,1727972220327,0.28076172,-1.4129028,-0.29180908,-12.375,2.921875,-4.3125
27,27,1727972220367,0.27124023,-1.107727,-0.05328369,15.234375,-16.0,11.796875
28,28,1727972220407,0.076171875,-1.085022,-0.015197754,12.4375,-16.84375,1.21875
29,29,1727972220447,0.12182617,-1.1734009,-0.08746338,10.125,-16.46875,6.265625
30,30,1727972220487,0.11694336,-0.96051025,-0.08428955,17.90625,-14.3125,6.6875
31,31,1727972220527,-0.0073242188,-0.81329346,0.023132324,19.078125,-14.65625,5.609375
32,32,1727972220567,-0.061767578,-0.81036377,0.07513428,18.09375,-9.75,8.296875
33,33,1727972220607,-0.044677734,-0.75982666,0.11932373,21.328125,-12.125,10.84375
34,34,1727972220647,-0.10083008,-0.74005127,0.024108887,11.640625,-15.625,16.53125
35,35,1727972220687,0.048095703,-0.76031494,-0.014709473,-0.96875,-23.484375,9.375
36,36,1727972220727,0.06323242,-0.8357544,0.05682373,-4.609375,-19.59375,7.046875
37,37,1727972220767,-0.075683594,-0.68536377,-0.42926025,-1.828125,-36.796875,4.34375
38,38,1727972220807,0.39282227,-1.204895,-0.16070557,-7.71875,-11.6875,-2.359375
39,39,1727972220847,0.6879883,-1.7371216,-0.065979004,-0.78125,15.0,4.6875
40,40,1727972220887,-0.111816406,-1.1704712,-0.42974854,7.046875,17.765625,15.90625
41,41,1727972220927,0.35717773,-1.286438,-0.17437744,-3.34375,21.28125,-8.828125
42,42,1727972220967,0.3125,-1.217102,-0.18414307,-9.96875,27.640625,1.171875
43,43,1727972221007,0.24731445,-0.88287354,-0.17559814,-6.375,28.96875,-8.28125
44,44,1727972221047,0.3046875,-0.8699341,-0.034240723,-0.953125,20.3125,0.4375
45,45,1727972221087,0.047607422,-0.7866821,-0.02935791,0.0,18.765625,1.375
46,46,1727972221127,-0.045166016,-0.73321533,0.010681152,3.96875,24.9375,-6.84375
47,47,1727972221167,-0.083984375,-0.79156494,-0.09918213,-12.734375,16.671875,-9.40625
48,48,1727972221207,0.11279297,-0.8201294,0.11883545,-8.546875,32.390625,-20.203125
49,49,1727972221247,0.19091797,-0.84625244,-0.2588501,-25.21875,4.1875,-16.71875
50,50,1727972221287,0.18920898,-1.473938,-0.16778564,-27.140625,34.15625,-5.671875
51,51,1727972221327,0.37939453,-1.4190063,-0.35723877,-8.765625,-2.984375,-0.421875
52,52,1727972221367,0.36816406,-1.1401978,-0.041809082,5.046875,-7.625,5.015625
53,53,1727972221407,0.18041992,-1.107727,-0.24053955,13.015625,-0.0625,1.609375
54,54,1727972221447,0.060546875,-0.8201294,-0.21466064,25.390625,-2.125,7.859375
55,55,1727972221487,0.06518555,-0.7131958,-0.13800049,18.25,-7.125,4.359375
56,56,1727972221527,0.12451172,-0.6616821,-0.12506104,15.984375,-14.890625,7.203125
57,57,1727972221567,0.020507812,-0.663147,-0.059143066,11.390625,-10.203125,9.765625
58,58,1727972221607,-0.0043945312,-0.75323486,-0.057678223,3.421875,-7.75,10.984375
59,59,1727972221647,-0.0053710938,-0.79034424,-0.073791504,-1.453125,-20.421875,13.46875
60,60,1727972221687,0.0871582,-0.77008057,-0.10406494,-6.875,-20.328125,10.640625
61,61,1727972221727,-0.017333984,-0.90704346,-0.14898682,-5.125,-28.84375,4.984375
62,62,1727972221767,0.21875,-0.9976196,-0.4439087,2.796875,-30.015625,-2.40625
63,63,1727972221807,0.27807617,-0.9036255,0.050720215,-4.4375,21.421875,23.265625
64,64,1727972221847,0.14819336,-1.1026001,-0.22418213,-15.53125,0.453125,12.890625
65,65,1727972221887,0.35595703,-1.0518188,-0.01373291,-8.40625,3.25,2.046875
66,66,1727972221927,0.26367188,-1.1201782,-0.21392822,-4.359375,8.203125,-1.796875
67,67,1727972221967,0.18457031,-1.1223755,-0.09893799,0.375,25.90625,-3.34375
68,68,1727972222007,0.2788086,-1.0730591,-0.014709473,-8.03125,24.0625,-12.421875
69,69,1727972222047,0.07714844,-1.190979,0.08270264,-2.890625,15.78125,-12.609375
70,70,1727972222087,0.19213867,-1.1055298,0.0680542,-0.171875,29.3125,-14.921875
71,71,1727972222127,0.11328125,-0.83721924,0.027038574,8.078125,27.96875,-14.96875
72,72,1727972222167,-0.095458984,-0.8401489,0.090026855,13.0,37.21875,-21.421875
73,73,1727972222207,-0.09838867,-0.66607666,0.1239624,-3.359375,39.171875,-34.46875
74,74,1727972222247,0.21777344,-0.7871704,-0.13067627,-7.890625,4.890625,-36.09375
75,75,1727972222287,0.3618164,-1.2932739,-0.4697876,-66.0625,-55.09375,3.203125
76,76,1727972222327,0.4116211,-2.0,-0.3352661,-1.9375,-24.203125,-2.140625
77,77,1727972222367,-0.1953125,-1.1543579,-0.15948486,16.578125,-13.15625,-12.328125
78,78,1727972222407,0.41967773,-0.97613525,-0.0947876,-8.59375,-12.1875,12.46875
79,79,1727972222447,0.1352539,-1.006897,-0.20953369,25.671875,-5.140625,10.28125
80,80,1727972222487,-0.21191406,-0.7605591,-0.112854004,17.46875,2.328125,13.59375
81,81,1727972222527,0.059814453,-0.72198486,-0.17974854,0.640625,-6.1875,7.328125
82,82,1727972222567,0.076171875,-0.7888794,-0.1609497,1.84375,-15.5,9.890625
83,83,1727972222607,-0.015380859,-0.89019775,-0.08868408,-4.765625,-7.75,11.296875
84,84,1727972222647,-0.05834961,-0.87091064,-0.04107666,-10.734375,-5.09375,6.5
85,85,1727972222687,-0.053710938,-0.7136841,-0.04815674,-5.640625,-5.046875,13.0625
86,86,1727972222727,0.011962891,-0.7490845,-0.08843994,-14.109375,-16.875,12.203125
87,87,1727972222767,0.123535156,-0.8257446,-0.0256958,-15.859375,-15.453125,11.34375
88,88,1727972222807,0.1550293,-0.6140747,-0.00592041,3.3125,-13.828125,21.6875
89,89,1727972222847,0.030273438,-0.7966919,-0.26446533,-14.015625,-41.21875,18.625
90,90,1727972222887,0.29785156,-1.2788696,0.21453857,3.65625,15.0625,17.890625
91,91,1727972222927,0.31591797,-1.1206665,0.16986084,-1.765625,5.421875,24.5625
92,92,1727972222967,0.29760742,-1.2236938,-0.055480957,-19.734375,27.84375,15.765625
93,93,1727972223007,0.22753906,-1.1917114,-0.074279785,4.03125,3.421875,10.109375
94,94,1727972223047,0.47045898,-1.1724243,0.14276123,9.578125,15.515625,-0.484375
95,95,1727972223087,0.23242188,-0.94488525,-0.0095825195,11.203125,19.96875,1.109375
96,96,1727972223127,0.24975586,-0.9751587,0.121520996,6.46875,16.515625,-5.015625
97,97,1727972223167,0.21679688,-0.9199829,0.066589355,10.78125,17.875,-12.765625
98,98,1727972223207,0.15625,-0.75787354,0.014099121,5.140625,8.265625,-17.15625
99,99,1727972223247,-0.008300781,-0.8303833,0.22991943,3.015625,29.265625,-25.015625
100,100,1727972223287,-0.1105957,-0.8088989,-0.15704346,13.0,20.4375,-35.03125
101,101,1727972223327,0.5251465,-1.1548462,-0.6045532,-40.125,-38.96875,-11.78125
102,102,1727972223367,0.9868164,-1.8286743,-0.26763916,0.453125,-13.921875,3.03125
103,103,1727972223407,-0.30419922,-0.9649048,-0.1494751,-2.671875,-38.25,-22.375
104,104,1727972223447,0.52001953,-0.98321533,-0.23248291,-0.265625,-15.453125,-9.5625
105,105,1727972223487,0.12841797,-0.9446411,-0.22833252,11.859375,-18.984375,-3.875
106,106,1727972223527,-0.1262207,-0.737854,-0.07867432,8.90625,-10.484375,-10.953125
107,107,1727972223567,0.009277344,-0.7190552,-0.12310791,8.328125,-13.546875,-2.296875
108,108,1727972223607,-0.13549805,-0.6721802,-0.058654785,8.890625,0.359375,1.859375
109,109,1727972223647,-0.13549805,-0.6838989,-0.031311035,7.25,5.75,2.671875
110,110,1727972223687,-0.031982422,-0.7180786,-0.005432129,-1.890625,4.359375,5.65625
111,111,1727972223727,0.038330078,-0.8167114,0.007751465,-4.171875,-3.265625,9.453125
112,112,1727972223767,0.046875,-0.864563,-0.043762207,-15.203125,-15.1875,7.140625
113,113,1727972223807,0.08862305,-0.8609009,0.027282715,-7.734375,-13.890625,9.828125
114,114,1727972223847,0.23266602,-1.2825317,-0.5750122,-15.40625,-56.1875,6.75
115,115,1727972223887,0.31030273,-1.6001587,-0.06524658,-16.46875,27.390625,-1.1875
116,116,1727972223927,0.26708984,-1.1316528,-0.018127441,-7.640625,34.546875,9.6875
117,117,1727972223967,-0.0034179688,-1.0557251,-0.12164307,3.953125,22.609375,8.671875
118,118,1727972224007,0.048339844,-1.2493286,0.02557373,-2.78125,9.6875,9.046875
119,119,1727972224047,0.33276367,-1.0217896,-0.19146729,7.421875,30.796875,2.046875
120,120,1727972224087,0.23803711,-0.79815674,-0.175354,6.65625,25.421875,3.671875
121,121,1727972224127,0.20141602,-0.9338989,0.06097412,10.203125,21.40625,-4.953125
122,122,1727972224167,0.15673828,-0.81427,-0.062316895,11.140625,18.125,-9.40625
123,123,1727972224207,0.2163086,-0.6929321,-0.018615723,12.53125,19.03125,-14.640625
124,124,1727972224247,0.023925781,-0.7925415,-0.051574707,-2.421875,7.671875,-20.0625
125,125,1727972224287,0.11425781,-0.75201416,-0.13873291,-3.046875,2.578125,-25.671875
126,126,1727972224327,0.21728516,-0.91412354,-0.16949463,-12.90625,-14.296875,-10.21875
127,127,1727972224367,0.2861328,-1.2778931,-0.4758911,-0.703125,-24.953125,-8.796875
128,128,1727972224407,0.24975586,-1.3462524,-0.19000244,-7.0,-45.03125,-6.15625
129,129,1727972224447,0.3083496,-1.286438,-0.06378174,-9.265625,-61.421875,-3.3125
130,130,1727972224487,0.13623047,-1.0857544,-0.22808838,8.4375,-48.640625,3.671875
131,131,1727972224527,0.10424805,-0.95562744,-0.18341064,13.0625,-45.28125,2.375
132,132,1727972224567,0.01977539,-0.9898071,-0.09259033,10.234375,-54.09375,6.53125
133,133,1727972224607,0.027832031,-0.8479614,-0.09063721,2.53125,-53.40625,9.203125
134,134,1727972224647,-0.15405273,-0.74835205,-0.081604004,-2.34375,-34.328125,11.046875
135,135,1727972224687,0.40795898,-1.9714966,0.4262085,31.71875,-8.9375,7.453125
136,136,1727972224727,0.4716797,-1.1328735,-0.7913208,-19.921875,43.171875,16.90625
137,137,1727972224767,0.28857422,-1.0559692,0.06439209,-14.546875,40.109375,-4.0625
138,138,1727972224807,0.17919922,-1.0742798,-0.08013916,4.109375,40.15625,11.6875
139,139,1727972224847,0.18066406,-0.7954712,0.020202637,11.5,41.453125,8.53125
140,140,1727972224887,0.18481445,-0.71295166,0.024841309,8.71875,32.859375,4.65625
141,141,1727972224927,0.09692383,-0.6585083,0.054138184,10.359375,31.078125,-0.03125
142,142,1727972224967,0.048583984,-0.569397,-0.0012817383,16.125,29.53125,-8.03125
143,143,1727972225007,0.1550293,-0.6638794,0.03363037,9.109375,17.90625,-13.296875
144,144,1727972225047,0.09887695,-0.8657837,0.18353271,-6.203125,32.59375,-22.828125
145,145,1727972225087,-0.106933594,-0.78863525,0.09222412,-25.609375,39.515625,-34.1875
146,146,1727972225127,0.13647461,-0.8609009,-0.45928955,-29.4375,-6.390625,-26.09375
147,147,1727972225167,0.54248047,-1.6018677,-0.67022705,-30.5625,-29.015625,-17.8125
148,148,1727972225207,0.59399414,-1.6826782,0.028503418,5.78125,-50.609375,7.6875
149,149,1727972225247,-0.1430664,-1.1524048,0.21844482,24.03125,-50.96875,-0.78125
150,150,1727972225287,-0.06347656,-1.2678833,-0.21490479,15.390625,-42.34375,-3.40625
151,151,1727972225327,0.18017578,-1.0713501,-0.22808838,16.9375,-32.296875,2.03125
152,152,1727972225367,-0.092285156,-0.9199829,-0.0178833,8.4375,-38.03125,1.953125
153,153,1727972225407,-0.2644043,-0.88409424,0.015075684,3.09375,-30.96875,2.46875
154,154,1727972225447,-0.1472168,-0.7131958,0.010681152,-13.765625,-14.09375,2.90625
155,155,1727972225487,-0.024169922,-0.6453247,0.034362793,-20.203125,-6.0,2.390625
156,156,1727972225527,-0.057373047,-0.7114868,0.05706787,-22.90625,-10.359375,4.453125
157,157,1727972225567,-0.09082031,-0.6729126,-0.1362915,-9.765625,-5.578125,7.3125
158,158,1727972225607,-0.00024414062,-0.44781494,-0.21246338,-5.171875,2.59375,5.390625
159,159,1727972225647,0.13208008,-1.2590942,-0.31207275,-0.90625,-26.46875,2.203125
160,160,1727972225687,0.3918457,-2.0,0.027038574,-8.609375,31.8125,4.09375
161,161,1727972225727,0.29125977,-1.3721313,-0.24908447,-5.515625,41.234375,19.96875
162,162,1727972225767,0.24511719,-1.1780396,-0.035705566,-0.390625,32.484375,5.265625
163,163,1727972225807,0.4111328,-0.96832275,0.014343262,2.234375,35.90625,11.359375
164,164,1727972225847,0.0769043,-0.6350708,-0.19049072,13.8125,24.28125,14.09375
165,165,1727972225887,0.18286133,-0.4956665,-0.058410645,11.359375,14.03125,5.703125
166,166,1727972225927,0.23608398,-0.7439575,-0.015930176,8.515625,2.625,2.0625
167,167,1727972225967,0.18798828,-0.8272095,-0.062805176,11.890625,-4.46875,-3.796875
168,168,1727972226007,0.2644043,-0.9116821,-0.03668213,9.625,-9.15625,-8.734375
169,169,1727972226047,0.22973633,-0.9138794,0.024108887,16.953125,-4.71875,-14.78125
170,170,1727972226087,0.052001953,-0.9024048,-0.031799316,15.21875,-5.734375,-15.265625
171,171,1727972226127,0.1303711,-0.9624634,-0.0025024414,8.46875,-11.578125,-19.125
172,172,1727972226167,0.04736328,-1.2329712,-0.15557861,1.921875,-20.96875,-15.0625
173,173,1727972226207,0.4140625,-1.1343384,-0.3772583,9.140625,-19.25,1.21875
174,174,1727972226247,0.15185547,-1.3279419,-0.30474854,14.578125,-31.515625,-2.953125
175,175,1727972226287,-0.23510742,-1.2966919,-0.23370361,8.578125,-20.015625,-6.578125
176,176,1727972226327,0.123291016,-1.2088013,-0.25665283,2.921875,-10.15625,1.515625
177,177,1727972226367,-0.027832031,-1.0178833,-0.25323486,2.234375,-0.765625,0.84375
178,178,1727972226407,-0.03564453,-0.9468384,-0.14971924,-1.921875,-0.125,2.53125
179,179,1727972226447,0.047607422,-0.8850708,-0.12042236,-4.84375,-2.78125,7.0
180,180,1727972226487,-0.03100586,-0.8267212,-0.10675049,-5.046875,-9.78125,12.0625
181,181,1727972226527,0.016113281,-0.6704712,-0.16851807,-10.671875,-15.734375,2.09375
182,182,1727972226567,-0.021972656,-0.75616455,-0.10455322,-18.46875,-14.359375,3.375
183,183,1727972226607,0.026611328,-0.7022095,-0.06109619,-23.5,-11.828125,3.078125
184,184,1727972226647,-0.20654297,-0.7822876,0.003112793,-9.609375,-16.890625,6.3125
185,185,1727972226687,-0.19702148,-0.9295044,-0.13018799,-13.140625,-20.3125,-1.078125
186,186,1727972226727,0.5559082,-0.9951782,-0.34039307,-21.46875,-10.734375,-5.8125
187,187,1727972226767,0.60058594,-1.2625122,0.15960693,-14.09375,22.90625,17.765625
188,188,1727972226807,-0.17626953,-1.128479,-0.19537354,-3.53125,-5.6875,4.5625
189,189,1727972226847,0.28955078,-1.3035278,-0.022766113,-8.78125,17.53125,-10.03125
190,190,1727972226887,0.3149414,-1.3403931,-0.009094238,-2.140625,18.59375,2.1875
191,191,1727972226927,0.140625,-1.0061646,-0.023986816,0.859375,18.46875,-0.171875
192,192,1727972226967,0.23461914,-0.9866333,0.029968262,5.359375,14.125,-1.9375
193,193,1727972227007,0.27978516,-0.98687744,0.08538818,5.421875,14.71875,-9.0625
194,194,1727972227047,0.025634766,-0.802063,0.007507324,4.953125,14.96875,-4.515625
195,195,1727972227087,0.025390625,-0.60284424,-0.005432129,-1.390625,27.5,-9.734375
196,196,1727972227127,0.16186523,-0.46148682,-0.05230713,-13.34375,28.375,-17.46875
197,197,1727972227167,0.17285156,-0.6670532,0.039001465,-8.0,-4.046875,-8.8125
198,198,1727972227207,-0.052490234,-1.3015747,-0.16436768,-29.40625,-22.9375,-21.53125
199,199,1727972227247,0.08569336,-1.2356567,-0.25933838,-0.6875,-8.609375,-6.78125
200,200,1727972227287,-0.107666016,-0.99298096,0.011169434,2.1875,-23.703125,-5.296875
201,201,1727972227327,0.076171875,-1.1919556,-0.062072754,-13.75,-18.78125,-15.609375
202,202,1727972227367,0.11303711,-1.1484985,-0.14801025,7.59375,-18.40625,7.40625
203,203,1727972227407,-0.08935547,-0.9390259,-0.035461426,17.296875,-17.921875,-0.75
204,204,1727972227447,-0.171875,-1.0132446,-0.08843994,4.53125,-12.5,4.46875
205,205,1727972227487,-0.052490234,-0.9937134,-0.00982666,14.484375,-7.84375,8.25
206,206,1727972227527,-0.08178711,-0.864563,0.00091552734,13.015625,-5.296875,13.046875
207,207,1727972227567,-0.076660156,-0.6939087,0.04168701,16.421875,1.484375,16.40625
208,208,1727972227607,-0.087890625,-0.6987915,-0.019592285,1.90625,-1.4375,15.5
209,209,1727972227647,-0.012451172,-0.7012329,0.008239746,-13.515625,-5.015625,11.375
210,210,1727972227687,-0.14233398,-0.7505493,0.06097412,-20.953125,-7.671875,9.828125
211,211,1727972227727,-0.1821289,-0.87628174,-0.44708252,-23.0,-22.734375,2.578125
212,212,1727972227767,0.5600586,-1.27594,0.10736084,-13.171875,14.6875,2.234375
213,213,1727972227807,0.68188477,-1.6917114,0.09881592,-41.34375,17.4375,8.953125
214,214,1727972227847,0.07470703,-1.3289185,-0.019348145,-3.890625,-0.328125,12.21875
215,215,1727972227887,0.3869629,-1.4485474,0.1618042,-7.140625,4.328125,-9.15625
216,216,1727972227927,0.17089844,-1.0979614,-0.0335083,5.984375,21.578125,-3.953125
217,217,1727972227967,0.13574219,-0.68218994,0.0004272461,8.8125,22.21875,-6.515625
218,218,1727972228007,0.22021484,-0.7295532,0.094177246,4.984375,12.125,-5.53125
219,219,1727972228047,0.14746094,-0.7041626,0.043395996,5.296875,11.359375,-10.03125
220,220,1727972228087,0.010986328,-0.5947876,0.055358887,5.78125,14.09375,-9.4375
221,221,1727972228127,-0.029296875,-0.612854,0.09515381,3.984375,18.75,-16.109375
222,222,1727972228167,0.09277344,-0.73931885,0.137146,2.90625,15.265625,-19.0625
223,223,1727972228207,0.05883789,-0.81915283,0.18475342,-1.140625,1.90625,-14.796875
224,224,1727972228247,-0.010253906,-1.0567017,-0.074035645,-11.15625,-16.90625,-15.359375
225,225,1727972228287,0.024658203,-1.625061,-0.13897705,-28.0,-4.640625,-39.921875
226,226,1727972228327,0.24487305,-1.2959595,-0.030334473,9.1875,-12.9375,4.65625
227,227,1727972228367,-0.010009766,-0.74957275,0.058532715,19.15625,-9.125,-10.875
228,228,1727972228407,-0.23608398,-1.18927,-0.13775635,-4.5,-10.46875,-12.34375
229,229,1727972228447,0.056640625,-1.2576294,-0.11651611,12.46875,-13.546875,5.171875
230,230,1727972228487,-0.08325195,-0.90411377,-0.058898926,21.8125,-11.703125,8.875
231,231,1727972228527,-0.12451172,-0.94903564,-0.04425049,9.8125,-9.6875,12.1875
232,232,1727972228567,-0.07006836,-0.8880005,0.0004272461,8.453125,-4.234375,12.5625
233,233,1727972228607,-0.18554688,-0.8279419,0.050231934,7.921875,0.234375,18.125
234,234,1727972228647,-0.17114258,-0.8460083,0.055847168,2.78125,-3.859375,16.5625
235,235,1727972228687,-0.030517578,-0.8418579,-0.020568848,-14.0625,-13.046875,14.765625
236,236,1727972228727,0.0075683594,-0.8377075,0.04071045,-2.65625,-15.390625,10.921875
237,237,1727972228767,-0.15991211,-0.880188,0.06365967,7.765625,-0.71875,15.8125
238,238,1727972228807,-0.2355957,-0.7866821,-0.22662354,-8.234375,-8.6875,23.359375
239,239,1727972228847,0.3774414,-1.1311646,-0.007385254,-11.78125,-6.859375,16.125
240,240,1727972228887,0.4411621,-1.7285767,0.057800293,-19.390625,7.390625,5.671875
241,241,1727972228927,0.19750977,-1.3289185,-0.159729,2.0,10.34375,7.015625
242,242,1727972228967,0.2614746,-1.3154907,-0.06085205,3.859375,12.71875,-6.28125
243,243,1727972229007,0.27392578,-1.02594,-0.07965088,4.84375,16.5,-0.671875
244,244,1727972229047,0.32641602,-0.831604,-0.06109619,4.828125,12.90625,0.71875
245,245,1727972229087,0.25561523,-0.75372314,-0.023986816,-0.28125,5.59375,-3.15625
246,246,1727972229127,0.052490234,-0.644104,0.020446777,7.1875,5.375,-4.84375
247,247,1727972229167,0.07836914,-0.5574341,0.0072631836,-2.90625,5.296875,-5.546875
248,248,1727972229207,0.092285156,-0.6050415,0.13543701,-3.953125,7.109375,-6.390625
249,249,1727972229247,0.055908203,-0.6860962,0.14959717,-10.3125,-7.421875,-10.59375
250,250,1727972229287,0.2019043,-0.8123169,0.13690186,-16.359375,-13.75,-13.84375
251,251,1727972229327,0.21118164,-1.2839966,-0.16461182,-19.390625,-21.921875,-3.65625
252,252,1727972229367,0.109375,-1.8616333,-0.2185669,-9.84375,-2.71875,-11.0
253,253,1727972229407,0.15112305,-1.0916138,0.12713623,9.453125,-17.84375,3.109375
254,254,1727972229447,-0.08105469,-0.987854,-0.09649658,6.140625,-1.84375,-5.4375
255,255,1727972229487,-0.028076172,-1.2061157,-0.17681885,2.90625,-4.984375,2.046875
256,256,1727972229527,0.14501953,-0.99176025,-0.0947876,12.421875,-0.484375,1.359375
257,257,1727972229567,-0.12524414,-0.8999634,-0.08135986,12.625,7.59375,10.5625
258,258,1727972229607,-0.06738281,-0.87701416,-0.07550049,9.703125,14.640625,2.6875
259,259,1727972229647,-0.01977539,-0.8533325,-0.0713501,9.703125,14.078125,4.328125
260,260,1727972229687,0.014892578,-0.8364868,-0.02960205,8.25,15.234375,7.078125
261,261,1727972229727,0.013671875,-0.84039307,0.020202637,4.640625,10.953125,4.453125
262,262,1727972229767,-0.017578125,-0.8245239,0.019958496,-0.703125,5.9375,4.6875
263,263,1727972229807,-0.09790039,-0.82110596,-0.024719238,-6.25,3.640625,4.40625
264,264,1727972229847,-0.092285156,-0.86187744,-0.062805176,-6.953125,-2.984375,0.25
265,265,1727972229887,0.009033203,-1.1851196,-0.13067627,-11.234375,-11.921875,-2.0625
266,266,1727972229927,0.20385742,-1.1272583,-0.10479736,-3.796875,2.84375,-1.34375
267,267,1727972229967,0.20947266,-1.0564575,-0.2156372,3.9375,2.4375,1.953125
268,268,1727972230007,0.3479004,-1.2405396,0.023132324,-2.09375,-4.34375,-6.734375
269,269,1727972230047,0.10913086,-1.208313,-0.13336182,11.125,-1.375,-7.171875
270,270,1727972230087,0.051513672,-1.1248169,-0.13140869,5.890625,7.703125,-7.421875
271,271,1727972230127,0.3173828,-0.94732666,-0.13580322,4.921875,8.390625,-0.609375
272,272,1727972230167,0.19897461,-0.9036255,0.0368042,10.765625,3.4375,2.78125
273,273,1727972230207,0.001953125,-0.8377075,0.020690918,12.9375,1.0625,7.125
274,274,1727972230247,0.11254883,-0.7893677,0.06317139,11.0,0.375,5.921875
275,275,1727972230287,0.2199707,-0.6902466,0.043151855,10.296875,-2.59375,1.171875
276,276,1727972230327,0.13305664,-0.6917114,-0.0032348633,-4.671875,-4.34375,-2.015625
277,277,1727972230367,0.27685547,-0.85040283,-0.04473877,-10.46875,-16.390625,-10.25
278,278,1727972230407,-0.045410156,-1.0286255,-0.3040161,-28.34375,-20.28125,-1.015625
279,279,1727972230447,-0.024658203,-1.5632935,-0.27178955,-15.03125,-10.359375,-15.796875
280,280,1727972230487,0.091796875,-1.3408813,-0.057678223,6.265625,-17.53125,6.21875
281,281,1727972230527,-0.16845703,-1.2932739,-0.14263916,-7.953125,-9.53125,-4.328125
282,282,1727972230567,0.072265625,-1.2417603,-0.13604736,1.828125,-2.109375,7.609375
283,283,1727972230607,0.10107422,-0.94854736,-0.17901611,8.09375,-5.75,12.40625
284,284,1727972230647,-0.09863281,-0.8311157,-0.14776611,9.78125,-1.203125,9.328125
285,285,1727972230687,-0.036621094,-0.72052,-0.09918213,8.46875,1.640625,9.515625
286,286,1727972230727,-0.022705078,-0.6428833,-0.07745361,9.6875,5.328125,11.96875
287,287,1727972230767,-0.042236328,-0.65704346,0.014587402,6.265625,10.46875,9.421875
288,288,1727972230807,-0.028808594,-0.7007446,0.026306152,1.203125,6.546875,10.25
289,289,1727972230847,0.03149414,-0.6790161,-0.073791504,5.546875,1.203125,8.953125
290,290,1727972230887,0.16210938,-0.62823486,-0.15460205,0.640625,-9.8125,9.46875
291,291,1727972230927,0.38378906,-0.78448486,-0.55914307,0.109375,-43.375,6.0
292,292,1727972230967,0.12915039,-1.9605103,0.11175537,-3.796875,25.421875,-12.734375
293,293,1727972231007,0.39404297,-1.4837036,-0.26812744,-10.65625,42.546875,17.9375
294,294,1727972231047,0.42822266,-1.1536255,-0.2156372,-7.984375,22.46875,17.328125
295,295,1727972231087,0.17993164,-0.99298096,-0.055236816,-16.0,10.71875,0.84375
296,296,1727972231127,0.29248047,-1.0481567,-0.13336182,-4.375,21.546875,7.125
297,297,1727972231167,0.09448242,-0.6087036,-0.17462158,-0.3125,25.09375,-2.0
298,298,1727972231207,0.25805664,-0.65289307,-0.02178955,-2.953125,17.015625,-7.796875
299,299,1727972231247,0.2607422,-0.8008423,-0.06304932,-0.5,5.484375,-8.5625
300,300,1727972231287,0.27783203,-0.6939087,-0.04498291,-1.65625,-6.578125,-14.5625
301,301,1727972231327,0.16796875,-0.7752075,0.034118652,-1.578125,-10.3125,-20.390625
302,302,1727972231367,0.15014648,-0.8154907,0.09979248,-4.640625,-11.640625,-20.9375
303,303,1727972231407,0.2475586,-0.74176025,0.08001709,-6.0625,-16.359375,-23.234375
304,304,1727972231447,0.012451172,-0.8045044,-0.026672363,-8.234375,-23.78125,-21.328125
305,305,1727972231487,-0.17211914,-1.3811646,-0.30841064,-34.046875,-14.484375,-13.875
306,306,1727972231527,0.32861328,-1.467102,-0.18878174,-7.03125,-31.96875,-6.296875
307,307,1727972231567,0.08154297,-1.2922974,0.027038574,1.546875,-25.53125,-2.484375
308,308,1727972231607,-0.3713379,-1.3591919,-0.014709473,-1.84375,0.328125,-10.359375
309,309,1727972231647,-0.029785156,-1.2776489,0.005554199,8.140625,9.296875,10.828125
310,310,1727972231687,0.1262207,-0.83721924,-0.13604736,9.828125,7.390625,9.875
311,311,1727972231727,-0.046142578,-0.8386841,-0.14996338,10.96875,2.046875,11.5
312,312,1727972231767,0.0234375,-0.8201294,-0.20196533,16.484375,15.390625,11.9375
313,313,1727972231807,-0.05419922,-0.7385864,-0.004211426,18.453125,6.265625,22.109375
314,314,1727972231847,-0.06616211,-0.7942505,-0.0022583008,13.28125,1.90625,22.78125
315,315,1727972231887,-0.06982422,-0.7107544,-0.062072754,3.90625,-11.296875,20.34375
316,316,1727972231927,0.041748047,-0.75445557,-0.038879395,1.15625,-22.84375,15.5625
317,317,1727972231967,0.071777344,-0.7866821,0.0368042,-5.1875,-18.421875,18.453125
318,318,1727972232007,0.13598633,-0.5923462,-0.25006104,1.015625,-31.75,14.390625
319,319,1727972232047,0.033447266,-1.0154419,-0.1194458,13.671875,-25.859375,5.0625
320,320,1727972232087,0.46020508,-1.4473267,-0.08135986,-10.609375,-15.1875,-1.359375
321,321,1727972232127,0.2163086,-1.5188599,-0.15386963,3.25,2.46875,18.6875
322,322,1727972232167,0.12719727,-1.2097778,-0.09259033,-2.375,11.296875,-11.015625
323,323,1727972232207,0.5239258,-1.3135376,-0.15679932,0.734375,15.53125,-4.140625
324,324,1727972232247,0.21704102,-0.98687744,-0.19195557,11.40625,24.96875,0.921875
325,325,1727972232287,0.21313477,-0.9126587,-0.07159424,6.03125,15.140625,-10.9375
326,326,1727972232327,0.1262207,-0.8677368,-0.07330322,-2.15625,28.421875,-4.859375
327,327,1727972232367,0.115722656,-0.6543579,-0.006652832,5.53125,23.3125,-8.015625
328,328,1727972232407,-0.008300781,-0.58721924,0.025817871,-1.9375,14.3125,-11.59375
329,329,1727972232447,-0.07714844,-0.6355591,0.10223389,-7.078125,14.96875,-15.875
330,330,1727972232487,0.076660156,-0.6790161,0.12347412,-20.1875,7.546875,-20.765625
331,331,1727972232527,0.08496094,-0.80596924,-0.32281494,-27.671875,0.625,-15.171875
332,332,1727972232567,0.55126953,-1.6951294,-0.79888916,-34.578125,-10.671875,-17.9375
333,333,1727972232607,0.40625,-1.6731567,0.09442139,13.515625,-29.515625,11.421875
334,334,1727972232647,-0.29760742,-0.93170166,-0.14923096,-4.984375,-6.921875,-13.71875
335,335,1727972232687,0.1706543,-1.5274048,-0.30133057,-14.34375,7.5,-9.765625
336,336,1727972232727,0.29858398,-1.1431274,-0.105773926,17.203125,3.59375,14.34375
337,337,1727972232767,-0.13305664,-0.83184814,-0.07159424,2.96875,5.6875,0.203125
338,338,1727972232807,-0.013183594,-0.86505127,-0.032287598,3.71875,8.09375,6.859375
339,339,1727972232847,-0.09301758,-0.6934204,0.029724121,6.765625,18.4375,10.09375
340,340,1727972232887,-0.15527344,-0.59869385,0.031921387,7.953125,21.890625,15.546875
341,341,1727972232927,0.036621094,-0.39923096,-0.101379395,1.546875,5.03125,15.78125
342,342,1727972232967,0.06567383,-0.46929932,-0.12945557,-9.609375,-7.40625,12.046875
343,343,1727972233007,-0.087646484,-0.67974854,0.012878418,-8.921875,-3.734375,9.234375
344,344,1727972233047,0.0024414062,-1.0088501,-0.30426025,-31.859375,-7.59375,12.15625
345,345,1727972233087,0.48413086,-1.5015259,0.25360107,-17.359375,20.9375,6.5625
346,346,1727972233127,0.4423828,-1.4053345,-0.14752197,-10.921875,10.203125,15.453125
347,347,1727972233167,0.30273438,-1.4185181,0.097595215,-11.765625,11.96875,-0.96875
348,348,1727972233207,0.23828125,-1.4353638,0.0119018555,3.5625,1.328125,-9.359375
349,349,1727972233247,0.2836914,-1.079895,-0.1038208,9.59375,9.28125,-11.546875
350,350,1727972233287,0.23657227,-0.9065552,-0.010070801,16.1875,10.1875,-7.078125
351,351,1727972233327,0.17944336,-0.82647705,-0.003967285,10.328125,4.203125,-11.03125
352,352,1727972233367,0.078125,-0.772522,-0.05206299,13.15625,8.09375,-11.953125
353,353,1727972233407,0.009033203,-0.73931885,0.027770996,7.828125,19.625,-9.28125
354,354,1727972233447,0.013916016,-0.6279907,-0.05230713,5.625,16.328125,-8.921875
355,355,1727972233487,0.12768555,-0.6524048,0.005554199,3.171875,9.671875,-10.78125
356,356,1727972233527,0.092285156,-0.81036377,0.0079956055,0.140625,23.3125,-15.359375
357,357,1727972233567,-0.08227539,-0.84088135,-0.13067627,-1.890625,21.40625,-10.484375
358,358,1727972233607,0.13891602,-1.003479,-0.24493408,-13.203125,9.671875,-12.25
359,359,1727972233647,0.31884766,-1.1506958,-0.3201294,-9.25,-8.484375,-1.578125
360,360,1727972233687,0.07397461,-1.3450317,-0.14434814,12.578125,-19.890625,-9.828125
361,361,1727972233727,-0.17407227,-1.3914185,-0.066467285,3.6875,-20.109375,-2.65625
362,362,1727972233767,-0.06958008,-1.2918091,-0.21124268,14.28125,-10.546875,10.015625
363,363,1727972233807,0.032714844,-1.050354,-0.15899658,17.8125,-9.71875,13.109375
364,364,1727972233847,0.011474609,-1.1043091,-0.046936035,12.75,-18.046875,12.46875
365,365,1727972233887,0.032470703,-0.93048096,-0.08062744,5.15625,-11.5625,16.9375
366,366,1727972233927,-0.057861328,-0.67633057,-0.07208252,3.84375,-4.796875,13.59375
367,367,1727972233967,-0.0234375,-0.58673096,-0.046203613,-4.625,-9.859375,10.59375
368,368,1727972234007,-0.017333984,-0.68951416,-0.050598145,-11.8125,-16.09375,10.328125
369,369,1727972234047,0.027832031,-0.77716064,-0.13848877,-16.390625,-21.171875,8.71875
370,370,1727972234087,0.05029297,-0.8413696,-0.030334473,-8.5625,-10.3125,9.1875
371,371,1727972234127,0.20336914,-0.92071533,-0.20611572,-21.078125,-31.8125,7.1875
372,372,1727972234167,0.14038086,-0.9932251,0.05731201,-9.40625,-9.5625,8.75
373,373,1727972234207,-0.07006836,-1.1809692,-0.2822876,-0.28125,-2.71875,2.078125
374,374,1727972234247,0.39086914,-1.3184204,-0.015686035,-17.578125,5.1875,0.390625
375,375,1727972234287,0.20263672,-1.4334106,-0.08013916,-7.125,9.390625,5.4375
376,376,1727972234327,0.18334961,-1.1992798,-0.09210205,-5.796875,19.125,-4.90625
377,377,1727972234367,0.29174805,-1.09552,-0.022033691,3.6875,22.953125,-2.390625
378,378,1727972234407,0.21142578,-0.95318604,0.009460449,9.109375,23.9375,0.734375
379,379,1727972234447,0.07446289,-0.7698364,0.021911621,15.1875,25.78125,-1.734375
380,380,1727972234487,0.0871582,-0.5811157,-0.039367676,9.015625,21.953125,-6.265625
381,381,1727972234527,-0.043945312,-0.6043091,-0.017150879,11.0,21.90625,-7.875
382,382,1727972234567,0.032958984,-0.68218994,-0.020324707,-3.46875,13.546875,-15.453125
383,383,1727972234607,0.23095703,-0.769104,0.19354248,-7.8125,11.828125,-16.953125
384,384,1727972234647,-0.012451172,-0.8052368,0.028259277,-7.375,-3.390625,-11.765625
385,385,1727972234687,-0.01953125,-1.3569946,-0.32891846,-42.28125,-14.796875,-11.671875
386,386,1727972234727,0.53686523,-1.7637329,-0.30010986,6.859375,-27.46875,2.703125
387,387,1727972234767,0.18286133,-1.2871704,0.06097412,22.046875,-40.953125,4.9375
388,388,1727972234807,-0.1081543,-1.185852,-0.07086182,-7.671875,-11.46875,-10.171875
389,389,1727972234847,0.012207031,-1.2122192,-0.2576294,12.453125,-6.234375,4.609375
390,390,1727972234887,0.24243164,-0.8850708,-0.22613525,18.625,-14.546875,8.703125
391,391,1727972234927,0.110839844,-1.0200806,-0.16705322,15.53125,-6.21875,13.0625
392,392,1727972234967,-0.030029297,-0.7131958,-0.17633057,23.5625,5.453125,16.953125
393,393,1727972235007,-0.048095703,-0.50006104,-0.029846191,16.59375,4.84375,14.734375
394,394,1727972235047,-0.05126953,-0.663147,0.030456543,3.109375,-5.03125,17.125
395,395,1727972235087,0.060058594,-0.7151489,-0.09576416,0.328125,-7.4375,14.390625
396,396,1727972235127,0.15478516,-0.690979,-0.19830322,-4.515625,-14.578125,14.15625
397,397,1727972235167,0.107177734,-0.65093994,-0.05621338,1.21875,-23.1875,13.75
398,398,1727972235207,-0.05908203,-0.6343384,-0.53790283,-9.53125,-31.625,12.6875
399,399,1727972235247,0.23779297,-1.2109985,-0.051086426,-24.6875,13.296875,-6.796875
400,400,1727972235287,0.9470215,-1.7920532,-0.054992676,-26.9375,-1.5625,-4.78125
401,401,1727972235327,0.0925293,-1.2905884,-0.19586182,-14.109375,19.375,17.671875
402,402,1727972235367,0.36083984,-1.3135376,-0.04156494,-17.296875,9.09375,-16.5625
403,403,1727972235407,0.48828125,-1.2617798,-0.1326294,-4.140625,18.3125,2.4375
404,404,1727972235447,0.1965332,-0.8726196,-0.06793213,0.0625,20.171875,1.40625
405,405,1727972235487,0.19262695,-0.68927,-0.027404785,4.03125,17.0,-5.140625
406,406,1727972235527,0.1743164,-0.57647705,0.044128418,11.640625,14.6875,-6.515625
407,407,1727972235567,-0.0107421875,-0.59039307,0.02557373,16.25,5.390625,-9.6875
408,408,1727972235607,-0.05834961,-0.71295166,0.11395264,7.453125,13.75,-18.703125
409,409,1727972235647,0.095458984,-0.6902466,-0.06011963,8.984375,15.46875,-24.015625
410,410,1727972235687,0.17602539,-0.8616333,-0.23370361,9.09375,-4.40625,-20.6875
411,411,1727972235727,0.2854004,-1.229065,-0.59161377,-1.984375,-11.84375,-14.859375
412,412,1727972235767,0.14697266,-1.420227,-0.23297119,19.28125,-21.890625,-8.21875
413,413,1727972235807,0.5197754,-1.260315,-0.1831665,18.703125,-29.015625,-5.015625
414,414,1727972235847,0.015625,-1.2859497,-0.286438,24.359375,-27.890625,4.921875
415,415,1727972235887,-0.17871094,-1.0535278,-0.2715454,25.96875,-12.6875,3.5
416,416,1727972235927,0.05834961,-0.9783325,-0.24957275,11.375,-7.921875,2.046875
417,417,1727972235967,0.02709961,-0.93414307,-0.14337158,3.328125,-5.4375,5.015625
418,418,1727972236007,-0.025146484,-0.8135376,-0.06719971,-6.875,0.0625,7.109375
419,419,1727972236047,-0.0014648438,-0.6314087,-0.00982666,-10.453125,8.65625,14.046875
420,420,1727972236087,-0.046875,-0.5093384,-0.014953613,-17.734375,5.890625,16.28125
421,421,1727972236127,-0.023925781,-0.52130127,-0.040100098,-35.8125,-5.375,15.8125
422,422,1727972236167,-0.052490234,-0.6548462,-0.21636963,-30.46875,-16.75,16.828125
423,423,1727972236207,0.2788086,-1.3909302,-0.2078247,-45.390625,-9.859375,-3.0625
424,424,1727972236247,0.8684082,-2.0,-0.29156494,-20.09375,4.5625,6.125
425,425,1727972236287,0.26416016,-1.2954712,-0.35113525,12.03125,30.296875,19.34375
426,426,1727972236327,0.08911133,-1.2542114,-0.22149658,-2.046875,27.0625,-8.859375
427,427,1727972236367,0.23608398,-1.156311,-0.010803223,-1.734375,36.859375,-2.0625
428,428,1727972236407,0.1496582,-0.79107666,-0.04498291,7.34375,35.5625,-3.25
429,429,1727972236447,0.13378906,-0.6177368,-0.019104004,-2.484375,28.1875,-10.109375
430,430,1727972236487,0.12866211,-0.6165161,0.05316162,-7.015625,28.734375,-22.6875
431,431,1727972236527,-0.13427734,-0.42633057,-0.015686035,-5.21875,38.53125,-18.453125
432,432,1727972236567,-0.009033203,-0.10479736,-0.09234619,-1.203125,34.96875,-17.671875
433,433,1727972236607,0.28588867,-0.3381958,-0.25323486,-12.34375,12.375,-19.359375
434,434,1727972236647,0.20825195,-1.1870728,-0.7893677,-22.125,-29.90625,-13.234375
435,435,1727972236687,0.4675293,-1.9815063,-0.67681885,2.34375,-47.453125,-10.265625
436,436,1727972236727,0.15258789,-1.2390747,0.0033569336,32.3125,-32.625,1.015625
437,437,1727972236767,-0.43969727,-1.0899048,-0.113342285,-5.3125,-16.46875,-19.28125
438,438,1727972236807,0.24414062,-1.2930298,-0.26983643,6.078125,-18.0625,4.390625
439,439,1727972236847,0.22753906,-0.9495239,-0.1428833,22.765625,-27.234375,6.109375
440,440,1727972236887,-0.29516602,-1.0015259,-0.15753174,10.828125,-20.984375,6.84375
441,441,1727972236927,-0.13574219,-0.9612427,-0.09820557,1.0,-9.03125,3.09375
442,442,1727972236967,0.01928711,-0.8027954,-0.07989502,0.796875,-2.90625,8.9375
443,443,1727972237007,-0.09082031,-0.835022,-0.05621338,-4.390625,-5.34375,10.78125
444,444,1727972237047,0.033447266,-0.82598877,-0.0015258789,-12.25,-12.0,5.9375
445,445,1727972237087,0.1262207,-0.8147583,0.015563965,-13.09375,-19.203125,7.0
446,446,1727972237127,0.022216797,-0.76885986,0.074157715,-17.484375,-31.6875,1.671875
447,447,1727972237167,-0.21386719,-0.73687744,0.02166748,-19.25,-20.484375,2.515625
448,448,1727972237207,-0.0068359375,-1.0012817,-0.19732666,-15.421875,-7.078125,-4.734375
449,449,1727972237247,0.4206543,-1.4749146,-0.09844971,-20.640625,-12.265625,13.484375
450,450,1727972237287,-0.04345703,-1.545227,-0.3460083,-6.859375,7.296875,14.25
451,451,1727972237327,0.025390625,-1.2293091,-0.022766113,-3.5,21.96875,-3.109375
452,452,1727972237367,0.35668945,-1.269104,-0.0064086914,-6.421875,17.90625,-1.3125
453,453,1727972237407,0.092285156,-0.9065552,-0.12261963,13.96875,23.234375,6.5625
454,454,1727972237447,0.11328125,-0.6929321,-0.05279541,15.578125,24.84375,5.90625
455,455,1727972237487,0.1772461,-0.7859497,-0.033996582,20.84375,18.125,0.671875
456,456,1727972237527,0.092041016,-0.71954346,-0.06036377,22.671875,13.21875,-0.265625
457,457,1727972237567,0.057861328,-0.69659424,-0.05670166,22.625,14.125,-2.09375
458,458,1727972237607,0.052001953,-0.72320557,-0.03326416,19.65625,14.859375,-5.03125
459,459,1727972237647,0.17041016,-0.7476196,-0.06304932,11.890625,0.0625,-6.140625
460,460,1727972237687,0.16992188,-0.82354736,0.07562256,8.078125,-2.375,-11.0625
461,461,1727972237727,0.016601562,-1.0681763,-0.18096924,-11.453125,-8.578125,-12.84375
462,462,1727972237767,0.34472656,-1.4404907,-0.9224243,-28.390625,-14.890625,-11.84375
463,463,1727972237807,0.45751953,-1.5715942,-0.094055176,7.296875,-21.21875,4.65625
464,464,1727972237847,-0.22167969,-1.1238403,-0.16265869,6.546875,-18.21875,-4.953125
465,465,1727972237887,-0.26220703,-1.2349243,-0.26470947,-16.4375,4.734375,-0.484375
466,466,1727972237927,0.22485352,-1.0891724,-0.2263794,10.109375,2.328125,12.140625
467,467,1727972237967,0.024902344,-0.9175415,-0.17755127,2.265625,-7.234375,2.515625
468,468,1727972238007,-0.043945312,-0.9402466,-0.15386963,-2.953125,-2.171875,11.421875
469,469,1727972238047,-0.028076172,-0.7842407,-0.070129395,-7.328125,6.640625,6.59375
470,470,1727972238087,0.049316406,-0.6826782,-0.09918213,-14.234375,2.828125,3.453125
471,471,1727972238127,-0.04248047,-0.6152954,-0.05328369,-15.484375,-0.25,1.265625
472,472,1727972238167,-0.03125,-0.54766846,-0.07208252,-15.6875,-0.6875,3.75
473,473,1727972238207,-0.0546875,-0.53448486,-0.14996338,-17.84375,-0.1875,10.4375
474,474,1727972238247,0.11987305,-0.6826782,-0.39727783,-17.421875,-9.0,7.625
475,475,1727972238287,0.32421875,-1.5044556,0.18060303,-19.84375,14.4375,2.671875
476,476,1727972238327,0.42382812,-1.4758911,-0.23883057,-2.609375,2.671875,9.6875
477,477,1727972238367,0.1821289,-1.3816528,-0.00982666,5.484375,4.1875,0.25
478,478,1727972238407,0.22827148,-1.3601685,-0.032043457,3.40625,6.625,-2.859375
479,479,1727972238447,0.15283203,-0.96710205,-0.13702393,10.96875,14.140625,1.796875
480,480,1727972238487,0.19360352,-0.7234497,-0.089904785,8.421875,14.046875,0.453125
481,481,1727972238527,0.25610352,-0.6956177,-0.062316895,6.296875,9.3125,-1.203125
482,482,1727972238567,0.13867188,-0.69122314,-0.02545166,12.375,4.6875,-1.359375
483,483,1727972238607,0.0925293,-0.73101807,-0.010070801,5.421875,-1.09375,-11.625
484,484,1727972238647,-0.01928711,-0.77471924,0.021911621,11.59375,-1.125,-8.5625
485,485,1727972238687,0.0546875,-0.800354,0.07147217,4.078125,-6.1875,-15.546875
486,486,1727972238727,0.107421875,-0.8833618,0.14593506,4.140625,-13.1875,-19.203125
487,487,1727972238767,0.07739258,-1.0918579,-0.13922119,-9.375,-17.625,-18.296875
488,488,1727972238807,0.1875,-1.5303345,-0.4920044,-25.890625,0.859375,-13.84375
489,489,1727972238847,0.3359375,-1.4590454,0.04046631,10.671875,-9.859375,2.703125
490,490,1727972238887,-0.079833984,-1.0591431,-0.08526611,6.015625,-5.5,6.140625
491,491,1727972238927,-0.21948242,-1.385315,-0.20025635,-13.796875,6.859375,-5.78125
492,492,1727972238967,0.10449219,-0.97247314,-0.17486572,3.59375,14.390625,3.875
493,493,1727972239007,0.060546875,-0.8062134,-0.13653564,1.90625,12.078125,2.625
494,494,1727972239047,0.024169922,-0.8587036,-0.015686035,9.0,11.765625,10.390625
495,495,1727972239087,0.00048828125,-0.6939087,0.01776123,5.59375,6.421875,13.046875
496,496,1727972239127,-0.040283203,-0.59942627,-0.065979004,0.765625,0.03125,14.59375
497,497,1727972239167,-0.016601562,-0.6038208,-0.082092285,-6.0625,-0.25,11.78125
498,498,1727972239207,0.0871582,-0.6121216,-0.09039307,-9.421875,-0.171875,11.390625
499,499,1727972239247,-0.008544922,-0.5823364,-0.21026611,-8.453125,-16.4375,12.9375
500,500,1727972239287,0.53759766,-1.0125122,-0.13433838,-14.546875,-15.875,-1.625
501,501,1727972239327,0.44335938,-1.6651001,-0.12188721,-2.859375,-15.140625,1.546875
502,502,1727972239367,-0.07763672,-1.359436,-0.23077393,18.109375,1.3125,15.6875
503,503,1727972239407,0.24731445,-1.4334106,-0.10089111,11.359375,0.90625,-6.328125
504,504,1727972239447,0.24609375,-1.3850708,-0.105773926,16.3125,5.296875,10.03125
505,505,1727972239487,-0.011230469,-0.97052,-0.16070557,17.828125,11.65625,6.75
506,506,1727972239527,0.16723633,-0.769104,-0.07159424,17.40625,16.53125,-2.09375
507,507,1727972239567,0.08959961,-0.72735596,-0.005432129,18.234375,20.40625,-2.125
508,508,1727972239607,-0.038085938,-0.7144165,0.0211792,9.34375,27.515625,3.8125
509,509,1727972239647,0.041259766,-0.80792236,-0.09527588,-6.015625,16.078125,-0.921875
510,510,1727972239687,0.26586914,-0.7686157,-0.04840088,-0.890625,17.109375,-9.4375
511,511,1727972239727,0.21362305,-0.70635986,-0.03765869,-10.140625,11.0,-16.5625
512,512,1727972239767,0.25512695,-0.9102173,-0.28619385,-7.859375,-3.859375,-10.53125
513,513,1727972239807,0.084228516,-1.2197876,-0.4487915,-15.078125,-11.53125,-4.578125
514,514,1727972239847,0.421875,-1.2297974,-0.39923096,-11.296875,-28.140625,-9.703125
515,515,1727972239887,0.14575195,-1.24469,-0.22540283,7.59375,-37.890625,-3.59375
516,516,1727972239927,-0.07299805,-1.3198853,-0.2859497,3.703125,-33.0625,6.515625
517,517,1727972239967,0.1184082,-1.024231,-0.30255127,15.9375,-19.828125,10.703125
518,518,1727972240007,0.013427734,-0.94781494,-0.16802979,12.453125,-19.25,7.453125
519,519,1727972240047,-0.03515625,-0.8196411,-0.07940674,11.578125,-14.28125,11.703125
520,520,1727972240087,-0.079589844,-0.5393677,-0.023986816,8.09375,-3.59375,13.0625
521,521,1727972240127,-0.03100586,-0.48687744,-0.045715332,-1.890625,0.8125,14.125
522,522,1727972240167,0.016601562,-0.42974854,-0.003967285,-12.28125,-12.078125,17.984375
523,523,1727972240207,-0.25927734,-0.33648682,-0.16412354,-7.953125,-6.953125,25.109375
524,524,1727972240247,-0.2434082,-0.9331665,-0.51446533,-27.328125,7.90625,4.71875
525,525,1727972240287,1.9506836,-2.0,-0.013977051,-41.15625,2.703125,-20.546875
526,526,1727972240327,0.22290039,-1.4190063,-0.26690674,5.65625,7.40625,28.1875
527,527,1727972240367,0.15014648,-1.0574341,-0.31427002,-8.984375,0.03125,-22.5
528,528,1727972240407,0.6203613,-1.5012817,-0.0010375977,-9.96875,8.03125,-6.796875
529,529,1727972240447,0.15161133,-0.9602661,-0.07330322,0.015625,17.3125,-8.171875
530,530,1727972240487,0.11743164,-0.6934204,-0.012268066,-1.53125,13.1875,-15.6875
531,531,1727972240527,0.15209961,-0.6980591,0.012390137,-7.1875,8.625,-17.34375
532,532,1727972240567,0.014892578,-0.598938,-0.03741455,-4.90625,8.625,-19.15625
533,533,1727972240607,-0.06201172,-0.4277954,-0.04425049,-5.25,15.125,-18.265625
534,534,1727972240647,0.125,-0.4258423,-0.037902832,-7.859375,5.765625,-19.765625
535,535,1727972240687,0.15185547,-0.55548096,0.027038574,-5.40625,0.421875,-19.9375
536,536,1727972240727,0.022460938,-0.9402466,-0.32940674,-20.5,-28.453125,-20.828125
537,537,1727972240767,0.32788086,-1.7061157,-0.07745361,-21.296875,-10.046875,-27.546875
538,538,1727972240807,0.4501953,-1.295227,-0.20318604,13.765625,-13.6875,5.890625
539,539,1727972240847,-0.31860352,-1.048645,-0.03302002,8.953125,-9.625,-7.328125
540,540,1727972240887,0.06201172,-1.3911743,-0.13531494,-0.03125,-8.5625,-10.203125
541,541,1727972240927,0.13720703,-1.1245728,-0.07647705,15.90625,-5.359375,8.453125
542,542,1727972240967,-0.2705078,-0.97613525,-0.18951416,12.65625,-0.125,12.078125
543,543,1727972241007,-0.030517578,-0.97979736,-0.10821533,10.828125,2.3125,11.9375
544,544,1727972241047,0.06616211,-0.88946533,-0.0491333,10.671875,1.640625,18.53125
545,545,1727972241087,-0.046875,-0.85113525,0.0993042,7.078125,-4.390625,20.078125
546,546,1727972241127,0.05810547,-0.80963135,-0.02154541,11.4375,-8.15625,27.4375
547,547,1727972241167,0.16503906,-0.7649536,-0.12164307,6.03125,-17.625,18.9375
548,548,1727972241207,0.20092773,-0.64971924,-0.03741455,12.46875,-12.28125,16.203125
549,549,1727972241247,-0.07910156,-0.54888916,-0.10797119,2.109375,-31.34375,27.5625
550,550,1727972241287,-0.13598633,-0.8555298,-0.29840088,-5.0,-44.6875,7.15625
551,551,1727972241327,0.31396484,-1.5923462,-0.15020752,-6.9375,-1.5625,-11.703125
552,552,1727972241367,0.81103516,-1.6870728,-0.13018799,-14.3125,11.25,4.703125
553,553,1727972241407,0.07080078,-1.4016724,-0.12335205,-6.546875,5.984375,-8.1875
554,554,1727972241447,0.2524414,-1.1467896,-0.07086182,0.125,4.140625,-16.1875
555,555,1727972241487,0.2121582,-0.9404907,-0.07476807,-1.96875,11.828125,-7.15625
556,556,1727972241527,0.037109375,-0.71099854,-0.010314941,1.375,18.109375,-5.28125
557,557,1727972241567,0.05810547,-0.58721924,-0.06304932,1.90625,20.796875,-8.390625
558,558,1727972241607,0.025146484,-0.5371704,-0.12994385,7.078125,27.171875,-7.03125
559,559,1727972241647,0.17749023,-0.57476807,-0.03741455,-1.453125,31.734375,-10.671875
560,560,1727972241687,0.21313477,-0.692688,0.031921387,-3.40625,21.84375,-15.40625
561,561,1727972241727,0.19848633,-0.7258911,0.081726074,-3.09375,5.265625,-11.921875
562,562,1727972241767,0.012451172,-1.1704712,-0.3399048,-16.34375,-11.96875,-12.078125
563,563,1727972241807,0.13427734,-1.6113892,-0.347229,-13.453125,3.90625,-20.421875
564,564,1727972241847,0.2565918,-1.1799927,-0.21002197,11.03125,-15.75,3.6875
565,565,1727972241887,0.0390625,-1.159729,-0.2522583,-7.40625,-13.9375,-11.296875
566,566,1727972241927,0.049560547,-1.3103638,-0.27642822,8.40625,-13.375,-2.109375
567,567,1727972241967,0.044677734,-1.0493774,-0.14971924,15.3125,-13.890625,2.234375
568,568,1727972242007,-0.14575195,-0.8936157,-0.13140869,10.625,-5.859375,6.34375
569,569,1727972242047,-0.06323242,-0.81622314,-0.077697754,3.59375,-0.796875,5.484375
570,570,1727972242087,0.011962891,-0.78009033,-0.027893066,1.03125,-1.28125,10.859375
571,571,1727972242127,-0.036376953,-0.7317505,0.009460449,2.015625,-3.609375,13.90625
572,572,1727972242167,-0.06982422,-0.74786377,-0.070373535,-3.578125,-5.78125,18.03125
573,573,1727972242207,0.07397461,-0.753479,-0.057434082,-15.65625,-11.3125,12.265625
574,574,1727972242247,0.23266602,-0.62628174,-0.109680176,-20.53125,-25.34375,6.625
575,575,1727972242287,-0.055419922,-0.7710571,-0.11383057,-22.65625,-26.84375,12.21875
576,576,1727972242327,0.02709961,-1.5679321,0.046325684,-38.8125,-10.171875,-0.5
577,577,1727972242367,0.13964844,-1.5913696,-0.06939697,-22.265625,24.65625,22.125
578,578,1727972242407,0.23120117,-1.1619263,0.011657715,-10.421875,24.328125,2.515625
579,579,1727972242447,0.34814453,-1.3843384,0.10076904,-4.90625,12.203125,5.1875
580,580,1727972242487,0.14550781,-1.0806274,-0.0012817383,16.796875,22.375,0.625
581,581,1727972242527,0.22143555,-0.7180786,0.012145996,21.375,19.703125,-2.53125
582,582,1727972242567,0.29833984,-0.784729,0.13079834,18.1875,8.796875,-2.96875
583,583,1727972242607,0.061279297,-0.7612915,-0.0022583008,18.96875,0.328125,-14.15625
584,584,1727972242647,0.005859375,-0.56500244,-0.003479004,27.140625,2.09375,-21.921875
585,585,1727972242687,-0.056396484,-0.51275635,-0.10089111,14.59375,14.90625,-22.640625
586,586,1727972242727,0.0859375,-0.56256104,0.012390137,3.140625,21.234375,-24.765625
587,587,1727972242767,0.122558594,-1.1494751,-0.51446533,-25.9375,-27.015625,-27.5625
588,588,1727972242807,0.1430664,-1.6707153,-0.5015259,-11.171875,3.3125,-25.421875
589,589,1727972242847,0.12792969,-1.4302368,-0.028381348,3.296875,-25.1875,-4.0
590,590,1727972242887,0.2368164,-0.9829712,0.050964355,-6.828125,-29.125,-16.609375
591,591,1727972242927,0.083496094,-1.2908325,-0.395813,8.625,-16.234375,3.71875
592,592,1727972242967,-0.13330078,-0.87091064,-0.09503174,13.1875,-16.09375,4.09375
593,593,1727972243007,-0.04663086,-0.9795532,-0.1116333,-1.234375,-11.359375,3.8125
594,594,1727972243047,-0.083984375,-0.97906494,-0.12237549,-1.65625,-7.5,11.828125
595,595,1727972243087,-0.12084961,-0.7854614,-0.07354736,2.671875,-3.265625,15.859375
596,596,1727972243127,-0.0703125,-0.73150635,-0.0335083,-8.546875,-1.703125,13.890625
597,597,1727972243167,-0.022460938,-0.7324829,0.019470215,-0.5,0.3125,16.5
598,598,1727972243207,-0.11425781,-0.72613525,0.011657715,-10.328125,4.75,19.140625
599,599,1727972243247,-0.0007324219,-0.69488525,-0.0869751,-15.859375,-6.625,13.984375
600,600,1727972243287,0.111328125,-0.58721924,0.018005371,-16.59375,-7.78125,10.53125
601,601,1727972243327,0.001953125,-0.6511841,-0.2774048,-11.09375,-15.640625,19.0625
602,602,1727972243367,0.072021484,-1.208313,-0.04058838,-17.984375,0.0625,14.953125
603,603,1727972243407,0.46679688,-1.694397,0.06317139,-35.328125,22.03125,3.40625
604,604,1727972243447,0.22338867,-1.428772,-0.09234619,-1.375,16.15625,4.578125
605,605,1727972243487,0.39282227,-1.505188,0.20281982,-9.671875,7.15625,-10.625
606,606,1727972243527,0.31030273,-1.3284302,0.01361084,-0.75,11.796875,-4.578125
607,607,1727972243567,0.22485352,-1.0134888,0.059020996,8.40625,11.140625,-6.578125
608,608,1727972243607,0.15478516,-0.85772705,0.11981201,10.90625,10.46875,-9.9375
609,609,1727972243647,-0.123535156,-0.59576416,0.08148193,15.28125,16.078125,-13.140625
610,610,1727972243687,-0.13964844,-0.35064697,-0.06573486,3.34375,20.375,-16.609375
611,611,1727972243727,-0.02758789,-0.46099854,0.0758667,-3.015625,18.09375,-18.3125
612,612,1727972243767,0.12084961,-0.5574341,0.23284912,-5.46875,20.03125,-19.421875
613,613,1727972243807,0.020996094,-0.66534424,-0.222229,-8.359375,-3.75,-15.484375
614,614,1727972243847,0.17163086,-1.6502075,-0.45880127,-28.75,-1.953125,-18.359375
615,615,1727972243887,0.37670898,-1.9639282,-0.06719971,6.109375,0.296875,-2.34375
616,616,1727972243927,-0.15136719,-1.1304321,0.11248779,5.046875,10.546875,-1.734375
617,617,1727972243967,0.1472168,-1.3963013,-0.0960083,-0.296875,-0.09375,-8.21875
618,618,1727972244007,-0.115478516,-1.2825317,0.028747559,25.78125,13.0,17.265625
619,619,1727972244047,-0.07861328,-0.9180298,-0.01373291,13.296875,9.328125,4.421875
620,620,1727972244087,0.064941406,-0.95098877,-0.024963379,6.203125,-1.953125,6.171875
621,621,1727972244127,-0.009277344,-0.78302,0.02142334,8.453125,-5.34375,5.625
622,622,1727972244167,-0.052734375,-0.61431885,0.027282715,11.5,-7.390625,8.484375
623,623,1727972244207,-0.01928711,-0.45025635,0.061950684,14.3125,-7.609375,14.40625
624,624,1727972244247,0.033935547,-0.43756104,-0.020812988,3.78125,-11.828125,18.421875
625,625,1727972244287,0.068847656,-0.53131104,-0.02911377,-4.625,-25.25,13.546875
626,626,1727972244327,0.096191406,-0.52423096,0.025817871,-8.15625,-28.6875,6.4375
627,627,1727972244367,0.057617188,-0.6008911,-0.505188,-7.21875,-55.390625,10.875
628,628,1727972244407,0.016845703,-1.5820923,0.0836792,-13.578125,18.96875,-14.859375
629,629,1727972244447,1.0427246,-2.0,-0.02545166,-26.625,1.859375,3.71875
630,630,1727972244487,-0.2397461,-1.4592896,-0.13433838,7.078125,-6.28125,12.8125
631,631,1727972244527,0.12817383,-1.524231,0.03753662,-13.03125,-20.984375,-32.984375
632,632,1727972244567,0.3400879,-1.420227,-0.003967285,10.71875,0.53125,-3.125
633,633,1727972244607,-0.115234375,-0.755188,-0.10699463,10.28125,-0.96875,-5.328125
634,634,1727972244647,0.05053711,-0.76763916,0.0368042,5.15625,2.703125,-14.234375
635,635,1727972244687,0.087402344,-0.72369385,0.07513428,5.84375,3.71875,-8.53125
636,636,1727972244727,-0.09765625,-0.51031494,0.05609131,2.265625,-0.34375,-6.53125
637,637,1727972244767,-0.08886719,-0.49127197,0.021911621,-1.984375,2.6875,-6.125
638,638,1727972244807,0.20922852,-0.60894775,-0.08526611,-13.484375,11.15625,-8.140625
639,639,1727972244847,0.2541504,-0.62042236,-0.101379395,0.359375,-12.328125,0.03125
640,640,1727972244887,-0.08227539,-1.2576294,-0.2300415,-8.859375,-16.125,-3.8125
641,641,1727972244927,0.12939453,-1.6333618,-0.28692627,-13.15625,-15.875,-1.609375
642,642,1727972244967,0.099121094,-1.3770142,-0.019104004,9.296875,-8.15625,14.109375
643,643,1727972245007,0.06347656,-1.1792603,-0.016174316,8.25,-6.734375,7.78125
644,644,1727972245047,0.20654297,-1.3372192,-0.1519165,10.4375,2.875,8.109375
645,645,1727972245087,-0.13354492,-1.0127563,-0.16778564,14.71875,5.8125,11.40625
646,646,1727972245127,-0.09790039,-0.91851807,-0.057434082,6.0,10.90625,6.890625
647,647,1727972245167,0.068359375,-0.8086548,0.034362793,8.328125,24.796875,12.234375
648,648,1727972245207,-0.06762695,-0.6331177,-0.011291504,6.046875,26.6875,17.453125
649,649,1727972245247,-0.06665039,-0.5947876,0.010925293,-3.265625,23.21875,17.40625
650,650,1727972245287,-0.018066406,-0.7073364,0.06878662,-6.03125,11.984375,16.546875
651,651,1727972245327,-0.05444336,-0.82769775,0.07122803,-12.96875,21.375,20.90625
652,652,1727972245367,-0.02758789,-0.5679321,-0.20806885,-15.59375,0.484375,23.984375
653,653,1727972245407,0.26245117,-0.6670532,-0.19439697,-25.78125,-14.5,17.234375
654,654,1727972245447,0.3618164,-1.6931763,-0.034973145,-38.609375,-6.8125,-12.28125
655,655,1727972245487,0.3955078,-1.6316528,-0.04547119,-7.8125,27.828125,10.328125
656,656,1727972245527,0.46655273,-1.3648071,0.11639404,-17.375,25.859375,-1.8125
657,657,1727972245567,0.14282227,-1.3865356,0.034851074,-0.09375,22.046875,0.515625
658,658,1727972245607,0.24316406,-1.0852661,0.13275146,9.109375,24.109375,-9.65625
659,659,1727972245647,0.1862793,-0.9116821,0.1281128,7.953125,24.671875,-10.921875
660,660,1727972245687,0.072509766,-0.70318604,0.14105225,7.0,21.59375,-11.4375
661,661,1727972245727,-0.005859375,-0.45977783,0.08441162,9.65625,7.0,-16.546875
662,662,1727972245767,-0.103027344,-0.37628174,0.055603027,8.328125,6.84375,-25.390625
663,663,1727972245807,0.08691406,-0.39605713,-0.10089111,-6.109375,3.75,-19.171875
664,664,1727972245847,0.41308594,-0.8220825,-0.3633423,-12.125,-59.84375,-14.140625
665,665,1727972245887,0.0068359375,-1.7307739,-0.48516846,-9.265625,-18.609375,-17.796875
666,666,1727972245927,0.22973633,-1.354065,-0.10430908,7.734375,-13.828125,7.953125
667,667,1727972245967,0.44335938,-1.260315,-0.037902832,-1.875,-30.4375,-1.6875
668,668,1727972246007,0.14550781,-1.461731,-0.09893799,18.125,-20.8125,8.203125
669,669,1727972246047,0.099853516,-1.0615845,-0.08062744,22.0,-20.75,9.75
670,670,1727972246087,-0.009033203,-1.0244751,-0.07989502,17.9375,-17.453125,6.625
671,671,1727972246127,0.0007324219,-0.9768677,-0.0037231445,9.25,-12.546875,5.859375
672,672,1727972246167,-0.00390625,-0.7959595,0.054626465,6.921875,-9.515625,10.34375
673,673,1727972246207,-0.08203125,-0.64141846,-0.0095825195,1.28125,-6.09375,11.984375
674,674,1727972246247,-0.087402344,-0.5796509,-0.019592285,-7.3125,-5.171875,9.171875
675,675,1727972246287,0.11279297,-0.52716064,-0.019104004,-20.203125,-22.0,2.75
676,676,1727972246327,0.09863281,-0.5960083,0.07366943,-26.015625,-25.34375,5.328125
677,677,1727972246367,-0.23339844,-0.7962036,0.020690918,-28.171875,-9.125,7.6875
678,678,1727972246407,0.068115234,-1.2966919,-0.105773926,-22.390625,10.921875,0.03125
679,679,1727972246447,0.7182617,-1.7005005,0.07879639,-24.328125,24.734375,5.21875
680,680,1727972246487,0.17016602,-1.305481,0.014587402,-9.515625,27.09375,12.6875
681,681,1727972246527,0.20751953,-1.2876587,0.11248779,-8.484375,26.65625,2.21875
682,682,1727972246567,0.28295898,-1.1255493,0.08050537,2.890625,27.125,0.671875
683,683,1727972246607,0.2705078,-0.8953247,0.07366943,10.15625,27.328125,-1.65625
684,684,1727972246647,0.27490234,-0.76690674,0.06390381,14.203125,16.234375,-2.140625
685,685,1727972246687,0.09643555,-0.7463989,0.062927246,19.953125,12.828125,-6.6875
686,686,1727972246727,-0.009765625,-0.60284424,0.042175293,20.84375,12.828125,-11.734375
687,687,1727972246767,-0.0703125,-0.55841064,-0.078430176,13.015625,17.578125,-12.40625
688,688,1727972246807,0.05102539,-0.70025635,-0.043518066,3.53125,7.921875,-17.125
689,689,1727972246847,0.18896484,-0.9492798,-0.16339111,3.328125,-20.984375,-21.53125
690,690,1727972246887,-0.0107421875,-1.2507935,-0.40826416,-6.234375,-13.546875,-14.171875
691,691,1727972246927,0.5991211,-1.3967896,-0.09942627,8.3125,-26.375,-4.40625
692,692,1727972246967,0.31884766,-1.3735962,-0.20880127,12.421875,-34.0625,-0.515625
693,693,1727972247007,-0.09741211,-1.3706665,-0.16778564,17.328125,-21.828125,6.0
694,694,1727972247047,0.0029296875,-1.2471313,-0.19586182,10.578125,-9.75,1.71875
695,695,1727972247087,-0.08251953,-1.1123657,-0.11138916,8.90625,1.453125,3.3125
696,696,1727972247127,-0.022949219,-0.9837036,0.005554199,0.703125,7.828125,2.953125
697,697,1727972247167,-0.0087890625,-0.7485962,-0.05279541,-13.734375,5.171875,10.0625
698,698,1727972247207,-0.30566406,-0.600647,0.10443115,-8.53125,22.109375,9.203125
699,699,1727972247247,-0.31469727,-0.519104,0.024597168,-14.578125,22.765625,2.984375
700,700,1727972247287,0.15942383,-0.5130005,-0.093566895,-18.90625,21.71875,-1.34375
701,701,1727972247327,0.17382812,-0.55548096,-0.15386963,-22.03125,0.734375,2.578125
702,702,1727972247367,0.087402344,-0.6734009,-0.0960083,-19.453125,-8.125,1.640625
703,703,1727972247407,0.20507812,-1.4483032,0.023132324,-23.125,12.640625,-5.65625
704,704,1727972247447,0.43725586,-1.8132935,-0.22003174,-1.484375,18.0,10.953125
705,705,1727972247487,0.47338867,-1.2512817,-0.021057129,6.125,20.25,10.984375
706,706,1727972247527,0.2644043,-1.4712524,0.015319824,5.109375,5.328125,4.828125
707,707,1727972247567,0.234375,-1.1433716,-0.018127441,8.296875,0.703125,2.484375
708,708,1727972247607,0.1862793,-0.78448486,0.005554199,14.296875,4.78125,2.234375
709,709,1727972247647,0.11352539,-0.68927,0.04949951,11.203125,-0.78125,0.890625
710,710,1727972247687,-0.06274414,-0.5252075,0.038269043,13.890625,-0.953125,-4.71875
711,711,1727972247727,-0.11743164,-0.39849854,-0.047912598,22.5,4.53125,-11.171875
712,712,1727972247767,-0.072265625,-0.5261841,0.11834717,9.828125,10.296875,-18.640625
713,713,1727972247807,0.38793945,-0.74884033,-0.08135986,-4.40625,-16.484375,-23.296875
714,714,1727972247847,0.13110352,-1.388977,-0.10675049,-9.3125,-18.03125,-12.921875
715,715,1727972247887,0.071777344,-1.8169556,-0.18218994,-5.015625,-15.625,-12.515625
716,716,1727972247927,0.24194336,-1.3682251,-0.16778564,5.578125,-12.375,3.515625
717,717,1727972247967,0.07373047,-1.4319458,-0.2852173,2.171875,-5.5625,0.328125
718,718,1727972248007,0.08276367,-1.3528442,-0.17877197,20.421875,1.546875,14.4375
719,719,1727972248047,0.10229492,-1.0723267,-0.18878174,21.640625,4.03125,18.5
720,720,1727972248087,-0.13867188,-0.9397583,0.014343262,10.484375,6.640625,6.265625
721,721,1727972248127,0.09106445,-0.65045166,-0.089660645,-1.234375,9.4375,11.015625
722,722,1727972248167,0.078125,-0.4487915,-0.062072754,0.296875,-1.625,13.421875
723,723,1727972248207,-0.171875,-0.4517212,-0.031311035,-8.515625,-10.921875,5.625
724,724,1727972248247,0.016601562,-0.54278564,-0.082092285,-12.359375,-8.421875,6.5625
725,725,1727972248287,0.03930664,-0.5564575,-0.09161377,-8.25,-5.625,8.25
726,726,1727972248327,0.026123047,-0.5005493,-0.25274658,-13.640625,-10.875,8.265625
727,727,1727972248367,0.3425293,-1.1231079,-0.15240479,-32.140625,-10.0,-6.359375
728,728,1727972248407,0.6179199,-1.987854,-0.062561035,-21.890625,-8.46875,4.609375
729,729,1727972248447,0.041015625,-1.2605591,-0.26715088,-6.671875,19.484375,12.109375
730,730,1727972248487,0.3334961,-1.4295044,-0.09185791,-8.5,13.765625,-8.1875
731,731,1727972248527,0.3786621,-1.331604,-0.11456299,2.203125,16.78125,4.796875
732,732,1727972248567,0.046875,-0.89263916,-0.10845947,9.296875,22.0,3.546875
733,733,1727972248607,0.21484375,-0.8213501,-0.029846191,9.359375,21.78125,0.78125
734,734,1727972248647,0.07397461,-0.72320557,0.008239746,11.703125,20.3125,0.484375
735,735,1727972248687,-0.0859375,-0.5874634,0.04925537,15.125,27.890625,-3.84375
736,736,1727972248727,-0.0024414062,-0.48760986,-0.093322754,20.25,12.328125,-17.390625
737,737,1727972248767,0.21166992,-0.5652466,-0.027648926,15.796875,15.734375,-22.859375
738,738,1727972248807,0.39941406,-0.7300415,-0.08673096,0.59375,-17.1875,-22.859375
739,739,1727972248847,0.05908203,-1.336731,-0.4187622,-7.203125,-28.0625,-15.96875
740,740,1727972248887,-0.14819336,-1.6865845,-0.2888794,2.5625,-22.546875,-21.1875
741,741,1727972248927,0.44018555,-1.1712036,-0.21417236,4.25,-25.25,-5.90625
742,742,1727972248967,-0.008056641,-1.2966919,-0.25811768,-4.546875,-9.578125,-3.90625
743,743,1727972249007,-0.07543945,-1.2808228,-0.17779541,15.671875,-12.0,4.953125
744,744,1727972249047,0.08496094,-1.0025024,-0.22979736,7.625,-7.359375,10.4375
745,745,1727972249087,0.0034179688,-0.9234009,-0.22686768,3.109375,-8.921875,9.234375
746,746,1727972249127,-0.09301758,-0.8389282,-0.19927979,1.390625,2.015625,7.421875
747,747,1727972249167,0.072509766,-0.83843994,-0.05328369,32.40625,-75.5,36.15625
748,748,1727972249207,0.48876953,-0.45440674,0.00970459,-50.421875,38.0,13.0
749,749,1727972249247,-0.05102539,-0.13995361,0.137146,-53.265625,26.703125,5.234375
750,750,1727972249287,-0.30078125,-1.098938,-0.29766846,19.390625,14.390625,-1.21875
751,751,1727972249327,0.020751953,-0.6958618,-0.06890869,-5.671875,0.46875,15.078125
752,752,1727972249367,0.079833984,-0.63946533,-0.34918213,-20.828125,-10.28125,15.421875
753,753,1727972249407,0.30322266,-1.0962524,-0.003967285,-18.875,6.984375,3.671875
754,754,1727972249447,0.28222656,-1.6738892,-0.19659424,-11.890625,-7.8125,-3.625
755,755,1727972249487,0.25512695,-1.366272,-0.37408447,0.828125,-0.921875,-4.296875
756,756,1727972249527,0.3623047,-1.3635864,-0.15240479,-2.28125,6.703125,-1.96875
757,757,1727972249567,0.21362305,-1.1057739,-0.117248535,6.390625,3.0625,-4.53125
758,758,1727972249607,0.119628906,-0.80059814,-0.15338135,11.65625,2.625,-5.4375
759,759,1727972249647,0.18408203,-0.7139282,-0.047424316,12.03125,6.140625,-4.28125
