,Unnamed: 0,timestamp,accel_x,accel_y,accel_z,gyro_x,gyro_y,gyro_z
0,0,1728019122082,0.33203125,-0.92559814,0.008483887,13.0,-17.46875,2.1875
1,1,1728019122122,0.27172852,-0.9487915,0.009216309,10.4375,-15.5625,3.046875
2,2,1728019122162,0.3178711,-0.9336548,0.010925293,0.890625,-11.265625,0.5625
3,3,1728019122202,0.3515625,-0.91656494,0.027770996,0.328125,-4.828125,0.15625
4,4,1728019122242,0.37304688,-0.88946533,0.019958496,3.890625,-8.03125,1.3125
5,5,1728019122282,0.38256836,-0.89630127,0.02508545,4.65625,-11.65625,1.265625
6,6,1728019122322,0.3774414,-0.8796997,0.008483887,2.78125,-12.546875,-1.359375
7,7,1728019122362,0.38989258,-0.8792114,0.03314209,8.234375,-16.40625,-2.34375
8,8,1728019122402,0.3317871,-0.909729,-0.013244629,8.375,-17.875,-3.03125
9,9,1728019122442,0.32495117,-0.9866333,-0.008605957,7.5,-18.046875,-5.265625
10,10,1728019122482,0.35791016,-0.8740845,-0.014953613,1.328125,-15.515625,-6.4375
11,11,1728019122522,0.33520508,-0.8804321,0.035583496,7.96875,-13.265625,-6.265625
12,12,1728019122562,0.31982422,-0.9702759,-0.03668213,4.65625,-21.515625,-5.421875
13,13,1728019122602,0.4086914,-0.9414673,-0.0413208,1.8125,-20.046875,-5.5
14,14,1728019122642,0.24023438,-0.8916626,-0.011047363,6.25,-17.09375,-6.625
15,15,1728019122682,0.15454102,-1.022522,-0.042785645,3.96875,-17.171875,-9.875
16,16,1728019122722,0.32202148,-0.9380493,-0.02960205,-6.1875,-12.296875,-2.640625
17,17,1728019122762,0.36206055,-0.90753174,-0.014709473,0.328125,-8.015625,1.828125
18,18,1728019122802,0.3100586,-0.881897,-0.023742676,3.234375,-11.140625,-0.671875
19,19,1728019122842,0.32202148,-0.9234009,-0.03668213,7.0625,-12.578125,-0.328125
20,20,1728019122882,0.28588867,-0.9973755,-0.054748535,5.328125,-15.25,0.359375
21,21,1728019122922,0.26489258,-0.9570923,-0.026428223,3.015625,-11.984375,-0.1875
22,22,1728019122962,0.2290039,-0.8953247,-0.010803223,5.734375,-9.203125,0.8125
23,23,1728019123002,0.23876953,-0.91290283,-0.04034424,4.6875,-10.3125,0.25
24,24,1728019123042,0.265625,-0.94537354,-0.062072754,0.890625,-8.828125,0.375
25,25,1728019123082,0.25683594,-0.9680786,-0.012756348,4.5625,-5.859375,1.296875
26,26,1728019123122,0.2565918,-0.9277954,-0.032287598,3.5,-6.0,-0.15625
27,27,1728019123162,0.25756836,-0.9456177,-0.045715332,3.59375,-4.578125,0.53125
28,28,1728019123202,0.25683594,-0.93218994,-0.05718994,2.21875,-5.75,-0.546875
29,29,1728019123242,0.25390625,-0.9585571,-0.049621582,2.796875,-4.078125,0.328125
30,30,1728019123282,0.24829102,-0.9644165,-0.057434082,1.125,-5.53125,-1.140625
31,31,1728019123322,0.25073242,-0.9524536,-0.070373535,0.796875,-2.4375,-1.875
32,32,1728019123362,0.25,-0.93536377,-0.058898926,2.703125,-2.03125,-0.8125
33,33,1728019123402,0.24169922,-0.94244385,-0.057434082,2.453125,-1.296875,-1.09375
34,34,1728019123442,0.25854492,-0.9585571,-0.04937744,2.125,-0.328125,-0.671875
35,35,1728019123482,0.26733398,-0.94244385,-0.051574707,0.140625,-1.59375,-1.546875
36,36,1728019123522,0.2932129,-0.92803955,-0.055236816,0.234375,-0.890625,-1.1875
37,37,1728019123562,0.3022461,-0.90826416,-0.06915283,1.90625,-1.234375,-1.109375
38,38,1728019123602,0.30615234,-0.93292236,-0.061340332,0.953125,-3.390625,-1.921875
39,39,1728019123642,0.31689453,-0.9043579,-0.043029785,0.53125,-4.671875,-2.734375
40,40,1728019123682,0.31640625,-0.90093994,-0.028381348,3.765625,-5.609375,-1.796875
41,41,1728019123722,0.28198242,-0.9507446,-0.04107666,0.515625,-7.96875,-2.90625
42,42,1728019123762,0.29125977,-0.9829712,-0.0154418945,3.125,-11.25,-3.609375
43,43,1728019123802,0.28149414,-0.8921509,-0.022033691,0.203125,-13.125,-5.03125
44,44,1728019123842,0.21557617,-0.91192627,-0.021057129,2.078125,-16.40625,-3.453125
45,45,1728019123882,0.18701172,-0.99468994,-0.08111572,3.203125,-18.421875,-2.75
46,46,1728019123922,0.2607422,-1.055481,-0.08770752,0.15625,-17.546875,-3.0625
47,47,1728019123962,0.26904297,-0.9627075,-0.035705566,5.046875,-17.46875,-5.125
48,48,1728019124002,0.18945312,-0.9180298,-0.07110596,6.921875,-22.203125,-6.453125
49,49,1728019124042,0.20410156,-0.92926025,-0.05279541,8.515625,-22.46875,-3.90625
50,50,1728019124082,0.25463867,-0.93096924,-0.035217285,10.859375,-19.28125,-2.8125
51,51,1728019124122,0.21533203,-0.9873657,-0.08380127,9.40625,-24.234375,-1.546875
52,52,1728019124162,0.17016602,-0.9907837,-0.09112549,4.59375,-25.375,-1.484375
53,53,1728019124202,0.1550293,-0.92559814,-0.0635376,3.203125,-23.34375,-2.359375
54,54,1728019124242,0.17773438,-0.9429321,-0.031799316,3.578125,-21.28125,0.46875
55,55,1728019124282,0.12158203,-0.97613525,-0.035705566,0.671875,-22.84375,1.46875
56,56,1728019124322,0.13769531,-0.9553833,-0.0413208,-1.09375,-23.984375,-0.265625
57,57,1728019124362,0.17871094,-0.9619751,0.01727295,-0.1875,-19.6875,0.546875
58,58,1728019124402,0.15527344,-1.0022583,-0.002746582,1.984375,-22.125,2.75
59,59,1728019124442,0.12719727,-0.9866333,0.0040893555,0.390625,-22.8125,0.484375
60,60,1728019124482,0.13891602,-0.9529419,0.038513184,-1.390625,-20.875,2.671875
61,61,1728019124522,0.11694336,-0.9631958,0.00579834,0.546875,-22.59375,2.96875
62,62,1728019124562,0.14624023,-0.98321533,0.015319824,-0.140625,-25.125,3.046875
63,63,1728019124602,0.2290039,-0.99713135,0.03656006,0.875,-21.0625,2.96875
64,64,1728019124642,0.2770996,-1.0588989,0.024597168,-2.1875,-26.4375,1.03125
65,65,1728019124682,0.37158203,-1.0769653,0.048034668,7.234375,-11.53125,11.859375
66,66,1728019124722,0.44970703,-0.8838501,0.047058105,-8.09375,-10.203125,7.515625
67,67,1728019124762,0.36669922,-0.78204346,0.0065307617,8.453125,-6.921875,-1.375
68,68,1728019124802,0.34155273,-0.89923096,0.08465576,4.046875,-26.8125,9.734375
69,69,1728019124842,0.3215332,-0.95025635,0.121032715,-4.828125,-9.40625,5.4375
70,70,1728019124882,0.34960938,-0.895813,0.10760498,-0.5625,-10.890625,-0.09375
71,71,1728019124922,0.36523438,-0.85357666,0.14691162,-5.078125,-13.453125,2.203125
72,72,1728019124962,0.29467773,-1.0042114,0.2111206,-5.640625,-10.28125,2.875
73,73,1728019125002,0.32958984,-0.9680786,0.12908936,-5.5,-7.328125,-2.640625
74,74,1728019125042,0.3630371,-0.88482666,0.15594482,-13.6875,-3.265625,-0.78125
75,75,1728019125082,0.39697266,-0.8699341,0.18817139,-17.84375,7.6875,1.828125
76,76,1728019125122,0.35498047,-0.7827759,0.11199951,-10.25,6.28125,-0.28125
77,77,1728019125162,0.33007812,-0.8501587,0.23602295,-6.96875,0.421875,1.890625
78,78,1728019125202,0.3256836,-0.8682251,0.18109131,-3.328125,-4.375,-0.375
79,79,1728019125242,0.36889648,-0.9085083,0.2345581,-3.859375,-0.703125,-1.75
80,80,1728019125282,0.38110352,-0.9116821,0.2296753,-2.484375,-3.515625,-2.21875
81,81,1728019125322,0.3491211,-0.88946533,0.27557373,-3.40625,-3.375,-2.5625
82,82,1728019125362,0.26611328,-0.8904419,0.24578857,-0.703125,-4.4375,-3.09375
83,83,1728019125402,0.3347168,-0.8230591,0.24554443,-1.015625,1.0625,-2.703125
84,84,1728019125442,0.34057617,-0.86016846,0.27679443,0.234375,0.859375,-1.9375
85,85,1728019125482,0.29418945,-0.84552,0.27508545,-3.921875,2.65625,-2.90625
86,86,1728019125522,0.30029297,-0.87335205,0.355896,-4.578125,6.75,-3.359375
87,87,1728019125562,0.3083496,-0.9734497,0.27386475,-0.28125,6.359375,-7.3125
88,88,1728019125602,0.25317383,-1.0213013,0.25091553,4.5625,10.25,-6.375
89,89,1728019125642,0.34521484,-0.9212036,0.16107178,5.234375,4.953125,-0.3125
90,90,1728019125682,0.35327148,-0.8928833,0.17767334,7.828125,6.609375,-2.03125
91,91,1728019125722,0.23828125,-0.8538208,0.1642456,8.984375,3.390625,-4.75
92,92,1728019125762,0.20605469,-0.895813,0.09197998,11.78125,-5.5,-3.9375
93,93,1728019125802,0.3239746,-0.8916626,0.066833496,7.84375,-4.296875,-1.671875
94,94,1728019125842,0.29248047,-0.9470825,0.058776855,9.171875,1.015625,-0.265625
95,95,1728019125882,0.26416016,-1.0083618,0.0033569336,10.765625,-1.890625,-1.390625
96,96,1728019125922,0.28564453,-1.036438,0.038269043,5.265625,-7.578125,-3.6875
97,97,1728019125962,0.24682617,-1.0105591,0.026306152,9.765625,-9.859375,-4.125
98,98,1728019126002,0.20361328,-0.92974854,-0.013244629,8.078125,-10.625,-5.1875
99,99,1728019126042,0.17700195,-0.9299927,-0.028137207,7.8125,-10.859375,-5.46875
100,100,1728019126082,0.17480469,-1.0112915,-0.010314941,7.5625,-8.15625,-8.328125
101,101,1728019126122,0.17773438,-1.0166626,0.00091552734,-5.28125,-8.25,-10.671875
102,102,1728019126162,0.18896484,-0.95977783,0.018493652,-6.890625,-11.09375,-9.125
103,103,1728019126202,0.18237305,-0.958313,0.047058105,-1.015625,-15.296875,-6.953125
104,104,1728019126242,0.12451172,-1.0149536,0.07196045,-2.515625,-14.421875,-7.8125
105,105,1728019126282,0.08984375,-1.0090942,0.11199951,-7.609375,-14.921875,-5.203125
106,106,1728019126322,0.10473633,-0.94195557,0.10418701,-2.78125,-13.5,-2.65625
107,107,1728019126362,0.05834961,-0.9690552,0.10296631,-2.15625,-12.8125,-2.359375
108,108,1728019126402,0.0715332,-1.0213013,0.11639404,-3.421875,-13.125,0.265625
109,109,1728019126442,0.08154297,-0.9932251,0.08685303,-3.125,-13.0,0.015625
110,110,1728019126482,0.08642578,-0.9368286,0.09979248,-0.4375,-10.671875,2.421875
111,111,1728019126522,0.051513672,-0.9524536,0.09906006,-1.953125,-14.453125,3.4375
112,112,1728019126562,0.05859375,-0.95391846,0.09661865,-5.78125,-16.84375,4.28125
113,113,1728019126602,0.052734375,-0.9524536,0.13446045,-7.53125,-19.015625,6.234375
114,114,1728019126642,0.09008789,-1.0115356,0.1552124,-7.125,-22.515625,6.296875
115,115,1728019126682,0.19360352,-1.0293579,0.14276123,-5.953125,-27.84375,8.3125
116,116,1728019126722,0.2919922,-1.067688,0.19866943,-0.828125,-24.25,11.5625
117,117,1728019126762,0.25268555,-1.0015259,0.22869873,9.546875,-13.3125,12.078125
118,118,1728019126802,0.20532227,-0.94000244,0.21502686,4.140625,-14.5,9.265625
119,119,1728019126842,0.17480469,-0.78790283,0.1359253,5.765625,-14.703125,8.75
120,120,1728019126882,0.19042969,-0.85235596,0.21551514,6.84375,-6.734375,11.421875
121,121,1728019126922,0.22998047,-0.9483032,0.29144287,1.21875,-8.34375,4.828125
122,122,1728019126962,0.3852539,-1.0383911,0.08074951,-9.84375,14.234375,-0.890625
123,123,1728019127002,0.20996094,-1.0244751,0.30706787,-3.4375,12.203125,-10.546875
124,124,1728019127042,0.20117188,-0.78302,0.3168335,-1.9375,-1.8125,0.828125
125,125,1728019127082,0.32055664,-0.8892212,0.293396,-5.328125,-1.796875,8.859375
126,126,1728019127122,0.25805664,-0.9859009,0.2838745,-0.796875,9.15625,3.171875
127,127,1728019127162,0.22583008,-0.87677,0.24139404,2.046875,7.8125,2.171875
128,128,1728019127202,0.3564453,-0.78253174,0.27825928,1.4375,13.84375,11.75
129,129,1728019127242,0.30395508,-0.8994751,0.27825928,2.265625,7.15625,6.875
130,130,1728019127282,0.296875,-0.9368286,0.2699585,-2.640625,7.265625,2.625
131,131,1728019127322,0.30932617,-0.9248657,0.29071045,0.4375,8.90625,2.515625
132,132,1728019127362,0.3330078,-0.8909302,0.2645874,-3.6875,8.8125,-0.9375
133,133,1728019127402,0.28442383,-0.87579346,0.3463745,-1.59375,19.0625,-3.796875
134,134,1728019127442,0.10961914,-0.9807739,0.34539795,12.890625,1.546875,-18.234375
135,135,1728019127482,0.10864258,-0.82110596,0.32757568,3.578125,11.421875,-19.859375
136,136,1728019127522,0.2529297,-0.65338135,0.1906128,2.84375,16.125,-16.53125
137,137,1728019127562,0.36694336,-0.85113525,0.24359131,2.765625,9.59375,-11.6875
138,138,1728019127602,0.32080078,-1.3567505,0.17547607,-3.59375,-9.265625,-14.515625
139,139,1728019127642,0.28393555,-1.4785767,0.06488037,28.125,-16.046875,-11.890625
140,140,1728019127682,0.017333984,-0.60943604,0.04144287,-1.40625,23.71875,-10.3125
141,141,1728019127722,0.04321289,-0.5811157,0.15252686,19.75,12.078125,10.046875
142,142,1728019127762,0.20458984,-1.1384888,0.11639404,-5.140625,-5.296875,13.9375
143,143,1728019127802,0.34838867,-1.1807251,-0.0012817383,-1.09375,-0.359375,-3.9375
144,144,1728019127842,0.17285156,-0.9155884,0.035095215,5.6875,0.734375,-12.671875
145,145,1728019127882,-0.01953125,-0.86309814,-0.042297363,3.640625,-0.1875,-0.703125
146,146,1728019127922,0.15014648,-0.9902954,0.050231934,4.09375,10.6875,1.234375
147,147,1728019127962,0.21289062,-1.0977173,0.051696777,5.953125,4.328125,-4.703125
148,148,1728019128002,0.13354492,-0.9717407,-0.054260254,2.671875,-1.953125,-0.078125
149,149,1728019128042,0.052978516,-0.86968994,0.0036010742,9.4375,-1.578125,0.171875
150,150,1728019128082,0.05908203,-0.9199829,-0.0017700195,6.15625,-3.28125,4.265625
151,151,1728019128122,0.2055664,-1.0286255,0.0021362305,2.734375,-4.015625,4.046875
152,152,1728019128162,0.1303711,-1.0706177,0.020935059,-1.359375,-6.25,-5.625
153,153,1728019128202,0.056396484,-1.0044556,0.023864746,-5.734375,-13.3125,-6.65625
154,154,1728019128242,0.09765625,-0.9385376,0.03314209,-5.140625,-9.140625,-2.578125
155,155,1728019128282,0.13208008,-0.94122314,0.024597168,-4.421875,-8.375,0.1875
156,156,1728019128322,0.11376953,-0.9973755,0.047058105,-4.21875,-10.859375,-1.390625
157,157,1728019128362,0.06518555,-1.0232544,0.07171631,-2.421875,-11.578125,-1.734375
158,158,1728019128402,0.057128906,-0.9668579,0.04827881,-2.6875,-12.515625,-1.96875
159,159,1728019128442,0.07055664,-0.9871216,0.053649902,-1.421875,-10.421875,0.6875
160,160,1728019128482,0.06274414,-0.98101807,0.066833496,-5.78125,-10.9375,0.59375
161,161,1728019128522,0.044677734,-1.0132446,0.06121826,-5.578125,-10.828125,0.515625
162,162,1728019128562,0.07470703,-1.0481567,0.13568115,-4.359375,-13.75,-1.921875
163,163,1728019128602,0.076171875,-0.9793091,0.08270264,-10.375,-12.4375,-2.234375
164,164,1728019128642,0.0625,-0.91900635,0.00970459,-11.109375,-12.640625,5.96875
165,165,1728019128682,0.033447266,-0.90826416,0.10028076,-6.09375,-16.65625,7.765625
166,166,1728019128722,0.03149414,-0.95977783,0.10076904,-4.734375,-16.703125,9.8125
167,167,1728019128762,0.08300781,-0.9985962,0.09222412,-6.078125,-15.65625,10.40625
168,168,1728019128802,0.084228516,-0.9924927,0.14691162,-4.859375,-15.140625,12.875
169,169,1728019128842,0.09790039,-0.98321533,0.17132568,-2.734375,-13.109375,14.453125
170,170,1728019128882,0.16796875,-1.050354,0.23675537,2.140625,-0.265625,14.078125
171,171,1728019128922,0.29296875,-0.972229,0.24163818,-2.765625,-2.65625,12.609375
172,172,1728019128962,0.28759766,-0.8731079,0.19525146,-1.03125,-2.640625,9.65625
173,173,1728019129002,0.2006836,-0.9697876,0.291687,0.375,2.171875,9.8125
174,174,1728019129042,0.26464844,-0.9343872,0.21624756,-6.8125,-6.921875,10.03125
175,175,1728019129082,0.35107422,-0.8284302,0.2526245,-4.484375,5.203125,11.21875
176,176,1728019129122,0.3083496,-0.9324341,0.2645874,0.390625,0.203125,10.0625
177,177,1728019129162,0.33789062,-0.9146118,0.30145264,-2.328125,3.25,8.65625
178,178,1728019129202,0.3696289,-0.80010986,0.2633667,6.609375,-0.453125,10.734375
179,179,1728019129242,0.38256836,-0.81988525,0.26141357,-0.53125,-0.046875,12.359375
180,180,1728019129282,0.37719727,-0.942688,0.27093506,3.640625,2.84375,7.1875
181,181,1728019129322,0.40600586,-0.9458618,0.28900146,2.484375,4.21875,4.4375
182,182,1728019129362,0.32006836,-0.82940674,0.26605225,0.890625,5.734375,1.703125
183,183,1728019129402,0.3239746,-0.79571533,0.246521,-1.859375,3.828125,2.671875
184,184,1728019129442,0.32299805,-0.8609009,0.2772827,-3.78125,8.53125,2.46875
185,185,1728019129482,0.33447266,-0.9199829,0.30926514,-3.828125,14.296875,-0.28125
186,186,1728019129522,0.30541992,-0.8887329,0.3156128,-5.75,16.140625,-8.140625
187,187,1728019129562,0.25463867,-0.83135986,0.26312256,-6.71875,18.4375,-12.375
188,188,1728019129602,0.23364258,-0.69659424,0.32904053,3.578125,31.796875,-11.28125
189,189,1728019129642,0.23095703,-0.77545166,0.3163452,-5.078125,29.046875,-5.859375
190,190,1728019129682,0.36889648,-1.0232544,0.35443115,-13.609375,15.265625,-8.140625
191,191,1728019129722,0.45947266,-1.3023071,0.1461792,0.203125,16.875,-2.75
192,192,1728019129762,0.36523438,-1.1106567,0.18353271,10.671875,20.71875,-8.4375
193,193,1728019129802,0.27783203,-0.74884033,0.19403076,-0.3125,27.375,-10.265625
194,194,1728019129842,0.2854004,-0.6084595,0.09466553,0.96875,17.21875,4.59375
195,195,1728019129882,0.36865234,-0.9146118,0.07928467,-1.65625,6.359375,9.71875
196,196,1728019129922,0.48168945,-1.1314087,0.07611084,1.28125,3.484375,-2.390625
197,197,1728019129962,0.40454102,-0.96099854,0.08929443,1.125,2.03125,-12.75
198,198,1728019130002,0.22827148,-0.866272,0.07635498,5.046875,0.53125,-9.125
199,199,1728019130042,0.21118164,-0.91607666,0.023864746,3.609375,-2.84375,-0.59375
200,200,1728019130082,0.2536621,-0.9976196,0.039733887,9.875,-2.90625,0.046875
201,201,1728019130122,0.30664062,-0.9458618,0.019958496,8.421875,-2.953125,-6.703125
202,202,1728019130162,0.23022461,-0.95147705,0.014831543,8.46875,-3.125,-6.875
203,203,1728019130202,0.21850586,-0.975647,0.0099487305,6.953125,-8.0625,-5.6875
204,204,1728019130242,0.20361328,-0.9385376,-0.004699707,6.953125,-7.671875,-6.609375
205,205,1728019130282,0.2097168,-0.9524536,-0.015930176,6.53125,-6.3125,-5.78125
206,206,1728019130322,0.20214844,-0.97442627,-0.0025024414,3.546875,-8.46875,-5.234375
207,207,1728019130362,0.2529297,-0.9138794,-0.023254395,-1.109375,-6.5,-5.515625
208,208,1728019130402,0.24560547,-0.989563,0.030212402,0.8125,-6.8125,-5.171875
209,209,1728019130442,0.18896484,-0.99835205,0.024353027,1.265625,-12.03125,-5.671875
210,210,1728019130482,0.17456055,-0.9800415,0.008483887,-1.296875,-14.28125,-6.015625
211,211,1728019130522,0.19946289,-0.96417236,0.04510498,0.125,-11.578125,-5.75
212,212,1728019130562,0.16845703,-0.96417236,0.027770996,1.703125,-14.5,-4.703125
213,213,1728019130602,0.15478516,-0.99884033,0.039245605,-0.953125,-16.40625,-4.03125
214,214,1728019130642,0.15966797,-0.96881104,0.02142334,-0.65625,-15.484375,-5.328125
215,215,1728019130682,0.122802734,-0.9871216,0.021911621,1.765625,-15.265625,-3.625
216,216,1728019130722,0.11279297,-0.97369385,0.062683105,-0.59375,-22.109375,-2.34375
217,217,1728019130762,0.115722656,-0.95391846,0.025817871,1.84375,-18.21875,-1.015625
218,218,1728019130802,0.09643555,-0.9458618,0.039733887,-3.25,-17.4375,1.3125
219,219,1728019130842,0.076660156,-0.99176025,0.057556152,0.53125,-19.828125,2.34375
220,220,1728019130882,0.08618164,-1.0232544,0.06439209,-2.59375,-18.75,2.8125
221,221,1728019130922,0.07055664,-0.94781494,0.050720215,-5.046875,-17.734375,2.25
222,222,1728019130962,0.052001953,-0.96099854,0.08099365,-3.734375,-18.09375,4.34375
223,223,1728019131002,0.027832031,-0.97052,0.105163574,-6.4375,-11.21875,4.796875
224,224,1728019131042,0.07373047,-0.9956665,0.093933105,-8.84375,-12.515625,5.234375
225,225,1728019131082,0.08935547,-1.0698853,0.12249756,-3.421875,-5.53125,7.421875
226,226,1728019131122,0.11987305,-1.0098267,0.13079834,-4.625,-3.828125,7.328125
227,227,1728019131162,0.1652832,-0.91412354,0.11810303,-0.984375,3.625,11.734375
228,228,1728019131202,0.2290039,-0.97857666,0.14984131,1.375,5.390625,10.796875
229,229,1728019131242,0.26586914,-0.9483032,0.15008545,0.828125,6.0625,8.796875
230,230,1728019131282,0.30688477,-0.9241333,0.19818115,-3.25,8.671875,11.96875
231,231,1728019131322,0.3203125,-0.9282837,0.17694092,-0.59375,9.40625,9.6875
232,232,1728019131362,0.31152344,-0.97052,0.19110107,-5.6875,7.25,9.59375
233,233,1728019131402,0.3137207,-0.8970337,0.2189331,-3.890625,10.90625,8.28125
234,234,1728019131442,0.36328125,-0.8953247,0.20916748,-5.890625,8.4375,8.578125
235,235,1728019131482,0.3935547,-0.9138794,0.20159912,-5.109375,5.75,8.34375
236,236,1728019131522,0.39331055,-0.8826294,0.2086792,-5.625,3.859375,9.828125
237,237,1728019131562,0.38012695,-0.8826294,0.23773193,-6.46875,4.75,8.734375
238,238,1728019131602,0.35327148,-0.86676025,0.277771,-7.484375,9.59375,6.65625
239,239,1728019131642,0.37036133,-0.8623657,0.30682373,-7.3125,9.4375,6.3125
240,240,1728019131682,0.38330078,-0.8526001,0.2645874,-9.6875,8.734375,4.0
241,241,1728019131722,0.3815918,-0.8599243,0.22723389,-10.25,13.765625,3.453125
242,242,1728019131762,0.46728516,-0.725647,0.25994873,-12.4375,25.71875,3.921875
243,243,1728019131802,0.4428711,-0.84332275,0.2267456,-8.078125,18.875,4.34375
244,244,1728019131842,0.3479004,-0.9002075,0.25042725,-2.609375,18.53125,-1.09375
245,245,1728019131882,0.4296875,-0.8562622,0.2609253,-5.5,11.46875,-2.375
246,246,1728019131922,0.42993164,-0.83062744,0.28460693,-3.6875,14.1875,-2.796875
247,247,1728019131962,0.40722656,-0.8386841,0.24163818,-0.5625,14.96875,-3.1875
248,248,1728019132002,0.36376953,-0.8189087,0.27313232,-1.890625,14.65625,-5.296875
249,249,1728019132042,0.3330078,-0.8423462,0.26776123,-0.875,16.140625,-8.578125
250,250,1728019132082,0.36572266,-0.8364868,0.2855835,-3.703125,18.03125,-11.765625
251,251,1728019132122,0.36791992,-0.8635864,0.260437,-3.890625,15.25,-15.515625
252,252,1728019132162,0.40161133,-0.9505005,0.2597046,-3.375,18.859375,-13.953125
253,253,1728019132202,0.42626953,-1.0996704,0.18792725,0.0625,13.84375,-11.6875
254,254,1728019132242,0.4946289,-1.0830688,0.11224365,-2.484375,6.609375,-9.5625
255,255,1728019132282,0.3137207,-0.8064575,0.14788818,-6.0,13.578125,-10.703125
256,256,1728019132322,0.20581055,-0.710022,0.08392334,6.859375,-1.78125,-3.828125
257,257,1728019132362,0.33129883,-0.9470825,0.08441162,-2.203125,-5.046875,-2.234375
258,258,1728019132402,0.40039062,-1.0618286,0.06951904,3.171875,1.203125,-5.203125
259,259,1728019132442,0.3425293,-0.93341064,0.046081543,2.640625,-7.59375,-10.234375
260,260,1728019132482,0.19995117,-0.9048462,0.054870605,4.578125,-5.640625,-8.53125
261,261,1728019132522,0.19506836,-0.92266846,0.034851074,-0.703125,-2.609375,-5.59375
262,262,1728019132562,0.265625,-0.9290161,0.06512451,4.46875,-2.40625,-4.03125
263,263,1728019132602,0.27392578,-0.9714966,0.046813965,5.171875,-8.5625,-5.125
264,264,1728019132642,0.24047852,-0.94122314,0.043151855,7.21875,-6.484375,-4.0625
265,265,1728019132682,0.20751953,-0.94781494,0.06951904,8.703125,-5.90625,-6.109375
266,266,1728019132722,0.20166016,-0.9746704,0.034118652,6.828125,-13.0,-4.875
267,267,1728019132762,0.17236328,-0.973938,0.038513184,9.40625,-11.203125,-4.78125
268,268,1728019132802,0.15112305,-0.97540283,0.034362793,3.96875,-12.03125,-4.390625
269,269,1728019132842,0.16015625,-0.973938,0.028015137,0.390625,-11.890625,-3.1875
270,270,1728019132882,0.16186523,-0.98687744,0.038024902,-0.984375,-10.5625,-3.5625
271,271,1728019132922,0.1586914,-1.0171509,0.07904053,-4.59375,-8.59375,-2.375
272,272,1728019132962,0.14428711,-0.97125244,0.085632324,-2.734375,-6.515625,-3.96875
273,273,1728019133002,0.09375,-0.9558716,0.09246826,0.125,-5.3125,-1.8125
274,274,1728019133042,0.10449219,-0.9639282,0.09466553,-2.0625,-7.640625,0.546875
275,275,1728019133082,0.16064453,-0.97125244,0.085876465,-1.8125,-7.203125,1.21875
276,276,1728019133122,0.16210938,-1.0134888,0.101989746,1.0,-8.03125,2.484375
277,277,1728019133162,0.12597656,-0.9763794,0.08465576,-2.65625,-11.078125,2.21875
278,278,1728019133202,0.14331055,-0.97125244,0.10443115,-1.28125,-12.09375,3.8125
279,279,1728019133242,0.12060547,-0.9746704,0.12030029,-4.546875,-15.53125,3.375
280,280,1728019133282,0.07470703,-0.98760986,0.14227295,-12.078125,-18.65625,2.171875
281,281,1728019133322,0.109375,-0.99786377,0.12640381,-6.296875,-16.6875,5.28125
282,282,1728019133362,0.13134766,-0.9841919,0.16033936,-6.5,-14.09375,6.203125
283,283,1728019133402,0.13745117,-0.954895,0.17547607,-5.265625,-12.609375,5.296875
284,284,1728019133442,0.15234375,-0.9570923,0.14154053,-4.765625,-10.890625,6.1875
285,285,1728019133482,0.18774414,-1.0171509,0.1539917,-5.53125,-6.140625,4.8125
286,286,1728019133522,0.23730469,-0.9492798,0.2267456,0.53125,6.359375,7.28125
287,287,1728019133562,0.296875,-0.91851807,0.2453003,-4.4375,0.09375,6.21875
288,288,1728019133602,0.29614258,-0.94122314,0.27874756,-1.359375,-0.875,5.0
289,289,1728019133642,0.29760742,-0.92926025,0.2658081,-5.328125,-2.6875,6.9375
290,290,1728019133682,0.29101562,-0.87579346,0.24481201,-1.375,1.125,4.484375
291,291,1728019133722,0.31567383,-0.8460083,0.18548584,1.46875,4.765625,5.46875
292,292,1728019133762,0.27856445,-0.94610596,0.27093506,-0.375,5.890625,4.515625
293,293,1728019133802,0.33666992,-0.8989868,0.28485107,-5.359375,5.609375,4.140625
294,294,1728019133842,0.32910156,-0.84942627,0.3139038,-6.625,5.21875,4.703125
295,295,1728019133882,0.29907227,-0.9468384,0.3156128,-6.359375,6.375,2.453125
296,296,1728019133922,0.30419922,-0.9146118,0.2921753,-6.90625,6.375,0.078125
297,297,1728019133962,0.31152344,-0.84210205,0.2687378,-5.28125,7.875,1.015625
298,298,1728019134002,0.3239746,-0.81256104,0.29022217,-4.546875,12.75,1.6875
299,299,1728019134042,0.30444336,-0.90509033,0.28997803,-3.484375,11.671875,1.3125
300,300,1728019134082,0.29711914,-0.90167236,0.32855225,-4.34375,11.703125,-1.84375
301,301,1728019134122,0.3125,-0.8789673,0.29144287,-3.640625,11.8125,-1.140625
302,302,1728019134162,0.3310547,-0.86065674,0.29656982,1.09375,13.078125,0.078125
303,303,1728019134202,0.3388672,-0.86065674,0.31756592,4.4375,13.234375,1.6875
304,304,1728019134242,0.35205078,-0.8731079,0.27947998,4.546875,9.65625,1.09375
305,305,1728019134282,0.41137695,-0.8311157,0.27093506,-1.375,7.671875,1.46875
306,306,1728019134322,0.32373047,-0.93292236,0.3007202,2.15625,10.796875,-0.75
307,307,1728019134362,0.27490234,-0.8977661,0.2682495,2.15625,9.5,-2.921875
308,308,1728019134402,0.29345703,-0.86846924,0.2850952,1.0625,12.296875,-3.0
309,309,1728019134442,0.31030273,-0.86016846,0.3114624,0.40625,12.15625,-4.125
310,310,1728019134482,0.33789062,-0.86553955,0.29412842,-5.90625,10.28125,-4.03125
311,311,1728019134522,0.31713867,-0.9085083,0.246521,2.4375,9.625,-3.921875
312,312,1728019134562,0.42333984,-0.96099854,0.18255615,0.5625,6.5625,-2.953125
313,313,1728019134602,0.44262695,-1.0466919,0.12322998,1.9375,5.171875,0.71875
314,314,1728019134642,0.31445312,-0.9404907,0.14154053,9.5625,9.125,-5.203125
315,315,1728019134682,0.21484375,-0.81378174,0.109313965,3.53125,11.09375,-5.5
316,316,1728019134722,0.2866211,-0.8406372,0.11151123,-2.515625,7.921875,-0.484375
317,317,1728019134762,0.35888672,-0.97076416,0.086364746,-2.125,5.890625,-2.125
318,318,1728019134802,0.3310547,-1.0037231,0.12005615,2.203125,6.125,-5.390625
319,319,1728019134842,0.26831055,-0.9295044,0.089782715,4.125,3.703125,-6.578125
320,320,1728019134882,0.23901367,-0.9338989,0.06317139,3.34375,-0.078125,-5.296875
321,321,1728019134922,0.28051758,-0.9390259,0.010925293,4.859375,-0.140625,-3.53125
322,322,1728019134962,0.2902832,-0.92437744,0.0211792,4.890625,1.328125,-3.625
323,323,1728019135002,0.24731445,-0.9282837,0.030456543,7.34375,-0.609375,-4.46875
324,324,1728019135042,0.22314453,-1.0098267,0.042419434,5.25,-3.890625,-6.546875
325,325,1728019135082,0.19311523,-0.9890747,0.032165527,7.109375,-8.71875,-9.203125
326,326,1728019135122,0.19091797,-0.9487915,0.02947998,5.28125,-10.15625,-9.484375
327,327,1728019135162,0.19897461,-0.9378052,0.015319824,2.84375,-11.265625,-7.046875
328,328,1728019135202,0.19677734,-0.9795532,0.030212402,4.265625,-12.3125,-3.78125
329,329,1728019135242,0.21582031,-0.9741821,0.028503418,2.0625,-15.390625,-4.171875
330,330,1728019135282,0.20214844,-0.97906494,0.0524292,1.1875,-15.703125,-3.546875
331,331,1728019135322,0.19189453,-0.9780884,0.05633545,2.625,-18.0,-3.25
332,332,1728019135362,0.15698242,-0.9727173,0.054870605,4.203125,-18.53125,-3.0
333,333,1728019135402,0.1081543,-0.97198486,0.08880615,3.8125,-15.34375,-1.359375
334,334,1728019135442,0.10058594,-0.9758911,0.038269043,1.4375,-16.703125,2.3125
335,335,1728019135482,0.16088867,-0.9390259,0.0067749023,4.15625,-14.625,5.734375
336,336,1728019135522,0.12548828,-0.9837036,0.06463623,3.640625,-16.015625,6.234375
337,337,1728019135562,0.15307617,-1.0234985,0.070495605,-0.671875,-16.703125,5.09375
338,338,1728019135602,0.13793945,-0.9846802,0.082458496,-2.296875,-18.828125,5.15625
339,339,1728019135642,0.14233398,-0.9692993,0.074401855,-5.4375,-21.484375,6.515625
340,340,1728019135682,0.09790039,-0.97491455,0.089538574,-5.734375,-22.203125,5.796875
341,341,1728019135722,0.12109375,-1.0120239,0.07269287,-5.046875,-21.171875,5.078125
342,342,1728019135762,0.15209961,-1.0090942,0.11224365,-4.21875,-20.296875,6.65625
343,343,1728019135802,0.14379883,-0.97540283,0.14788818,-10.03125,-18.90625,5.0
344,344,1728019135842,0.22241211,-0.95196533,0.14788818,-2.03125,-10.609375,9.484375
345,345,1728019135882,0.3232422,-0.8777466,0.17694092,2.9375,-5.296875,9.3125
346,346,1728019135922,0.33813477,-0.89678955,0.19989014,1.03125,-3.015625,4.21875
347,347,1728019135962,0.27270508,-0.92755127,0.20648193,-0.671875,-2.953125,6.140625
348,348,1728019136002,0.25170898,-0.9512329,0.22698975,-2.8125,-5.3125,8.265625
349,349,1728019136042,0.31347656,-0.94537354,0.22039795,-9.140625,-7.0,5.3125
350,350,1728019136082,0.3137207,-0.8970337,0.23773193,-6.625,-0.09375,3.578125
351,351,1728019136122,0.31274414,-0.92803955,0.24505615,-4.6875,-0.78125,3.6875
352,352,1728019136162,0.32836914,-0.8845825,0.24847412,-5.359375,1.09375,0.609375
353,353,1728019136202,0.31079102,-0.8467407,0.2555542,-4.5625,3.4375,0.921875
354,354,1728019136242,0.3173828,-0.9019165,0.2723999,-6.09375,2.1875,0.328125
355,355,1728019136282,0.3203125,-0.9053345,0.29656982,-7.515625,4.65625,-1.578125
356,356,1728019136322,0.34155273,-0.8904419,0.3048706,-7.296875,3.625,-2.40625
357,357,1728019136362,0.31567383,-0.90509033,0.30560303,-7.09375,4.734375,-1.671875
358,358,1728019136402,0.27734375,-0.8994751,0.32269287,-6.359375,6.640625,-2.296875
359,359,1728019136442,0.28588867,-0.85162354,0.3324585,-5.671875,8.484375,-2.078125
360,360,1728019136482,0.29003906,-0.8579712,0.28851318,-9.21875,10.90625,0.21875
361,361,1728019136522,0.29467773,-0.8880005,0.31854248,-5.71875,12.859375,-1.65625
362,362,1728019136562,0.328125,-0.89141846,0.30560303,-4.9375,12.34375,-2.203125
363,363,1728019136602,0.3232422,-0.8621216,0.32977295,-2.34375,14.28125,-2.296875
364,364,1728019136642,0.3083496,-0.86602783,0.32855225,-2.203125,12.890625,-2.328125
365,365,1728019136682,0.29736328,-0.85235596,0.3366089,-1.890625,12.640625,-2.734375
366,366,1728019136722,0.25341797,-0.8609009,0.34051514,-2.09375,14.78125,-5.203125
367,367,1728019136762,0.22363281,-0.8567505,0.33221436,-2.046875,17.25,-7.796875
368,368,1728019136802,0.25024414,-0.88067627,0.26141357,1.109375,15.5,-12.34375
369,369,1728019136842,0.3371582,-0.8880005,0.30291748,1.125,20.75,-13.53125
370,370,1728019136882,0.31958008,-0.9651489,0.3463745,0.9375,19.046875,-12.46875
371,371,1728019136922,0.3527832,-0.9365845,0.26800537,3.046875,12.28125,-10.515625
372,372,1728019136962,0.32104492,-0.9314575,0.23602295,2.9375,9.0625,-7.78125
373,373,1728019137002,0.22265625,-0.92071533,0.22015381,4.640625,10.71875,-7.3125
374,374,1728019137042,0.24243164,-0.90338135,0.17254639,2.359375,10.65625,-4.375
375,375,1728019137082,0.26708984,-0.973938,0.21063232,3.625,7.953125,-3.203125
376,376,1728019137122,0.28881836,-0.9505005,0.18695068,0.15625,5.40625,-3.875
377,377,1728019137162,0.24633789,-0.94781494,0.15594482,0.609375,3.765625,-4.25
378,378,1728019137202,0.20458984,-0.958313,0.15228271,3.03125,-0.640625,-6.796875
379,379,1728019137242,0.19970703,-0.956604,0.11883545,1.671875,-4.203125,-4.671875
380,380,1728019137282,0.19897461,-0.9524536,0.09222412,4.25,-5.453125,-4.03125
381,381,1728019137322,0.20166016,-0.9590454,0.10101318,6.75,-6.75,-5.0
382,382,1728019137362,0.12402344,-0.9866333,0.13104248,7.78125,-5.28125,-8.28125
383,383,1728019137402,0.13696289,-1.0027466,0.08782959,8.203125,-11.875,-6.59375
384,384,1728019137442,0.13720703,-0.97052,0.06317139,8.8125,-12.234375,-5.46875
385,385,1728019137482,0.11767578,-0.99468994,0.048034668,11.515625,-12.6875,-5.640625
386,386,1728019137522,0.083496094,-0.97320557,0.06365967,10.046875,-12.984375,-3.96875
387,387,1728019137562,0.08618164,-0.9673462,0.042907715,5.71875,-12.140625,-2.25
388,388,1728019137602,0.118896484,-0.9846802,0.047302246,5.46875,-11.53125,-1.453125
389,389,1728019137642,0.103027344,-0.99224854,0.04925537,1.8125,-10.890625,-0.75
390,390,1728019137682,0.09667969,-1.0115356,0.04852295,1.796875,-10.5625,-1.703125
391,391,1728019137722,0.072021484,-1.0115356,0.070739746,1.078125,-10.4375,-1.65625
392,392,1728019137762,0.087890625,-1.0122681,0.08392334,-1.90625,-14.640625,-2.140625
393,393,1728019137802,0.047851562,-0.9998169,0.093688965,-2.484375,-14.078125,-1.859375
394,394,1728019137842,0.050048828,-1.0105591,0.070251465,-3.4375,-14.390625,-0.59375
395,395,1728019137882,0.0715332,-0.97198486,0.05633545,-3.96875,-17.21875,1.28125
396,396,1728019137922,0.07080078,-0.95391846,0.07196045,-7.71875,-17.71875,4.625
397,397,1728019137962,0.027832031,-1.0169067,0.11590576,-11.734375,-16.859375,3.421875
398,398,1728019138002,0.03930664,-1.0335083,0.17840576,-12.125,-13.40625,2.234375
399,399,1728019138042,0.059814453,-1.0081177,0.18450928,-8.84375,-10.8125,3.765625
400,400,1728019138082,0.0715332,-0.94244385,0.152771,-6.59375,-7.296875,5.8125
401,401,1728019138122,0.1171875,-0.9229126,0.15814209,-3.796875,-1.609375,6.390625
402,402,1728019138162,0.14746094,-0.91656494,0.16937256,-2.984375,2.25,5.140625
403,403,1728019138202,0.12109375,-0.97198486,0.18817139,-0.765625,-0.578125,8.46875
404,404,1728019138242,0.13989258,-0.9890747,0.17547607,-4.140625,-3.46875,10.828125
405,405,1728019138282,0.1862793,-0.9492798,0.20379639,-4.875,1.890625,9.75
406,406,1728019138322,0.18139648,-0.9187622,0.22381592,-4.171875,3.671875,9.265625
407,407,1728019138362,0.20166016,-0.9649048,0.20550537,-2.6875,3.453125,10.671875
408,408,1728019138402,0.2211914,-0.95562744,0.25164795,-5.15625,5.484375,7.921875
409,409,1728019138442,0.23657227,-0.9133911,0.26312256,-4.421875,3.078125,8.546875
410,410,1728019138482,0.24023438,-0.8989868,0.22772217,-2.296875,4.296875,9.359375
411,411,1728019138522,0.21655273,-0.956604,0.2819214,-7.703125,8.40625,11.359375
412,412,1728019138562,0.24926758,-0.9558716,0.2753296,-9.03125,9.25,8.546875
413,413,1728019138602,0.3022461,-0.8755493,0.28607178,-3.203125,14.0,6.609375
414,414,1728019138642,0.3774414,-0.91729736,0.24700928,-2.328125,26.09375,6.984375
415,415,1728019138682,0.45581055,-0.786438,0.38250732,-5.609375,17.6875,3.984375
416,416,1728019138722,0.3256836,-0.91534424,0.35638428,-2.109375,7.125,7.6875
417,417,1728019138762,0.35839844,-0.98565674,0.34197998,-11.421875,6.671875,7.953125
418,418,1728019138802,0.3310547,-0.864563,0.3583374,-6.21875,13.625,4.75
419,419,1728019138842,0.2590332,-0.8543091,0.33538818,-3.828125,12.265625,2.15625
420,420,1728019138882,0.3720703,-0.81329346,0.3209839,-3.28125,10.296875,2.578125
421,421,1728019138922,0.39575195,-0.76031494,0.36297607,-2.1875,14.78125,0.734375
422,422,1728019138962,0.3857422,-0.82232666,0.31829834,-3.109375,9.328125,2.09375
423,423,1728019139002,0.4086914,-0.80963135,0.32440186,-1.3125,9.8125,1.25
424,424,1728019139042,0.37475586,-0.7810669,0.3336792,-0.78125,10.96875,-2.546875
425,425,1728019139082,0.28222656,-0.7803345,0.32562256,0.328125,10.953125,-6.34375
426,426,1728019139122,0.29858398,-0.8411255,0.32489014,-6.453125,9.953125,-9.03125
427,427,1728019139162,0.40429688,-0.9590454,0.30438232,-0.046875,13.125,-10.140625
428,428,1728019139202,0.45825195,-1.0491333,0.23382568,2.625,7.515625,-8.109375
429,429,1728019139242,0.4116211,-0.91900635,0.20404053,7.609375,6.046875,-8.53125
430,430,1728019139282,0.27075195,-0.80010986,0.15765381,7.4375,11.671875,-10.140625
431,431,1728019139322,0.2709961,-0.8447876,0.15496826,2.546875,10.0,-4.6875
432,432,1728019139362,0.37646484,-0.956604,0.18914795,2.984375,2.640625,-4.75
433,433,1728019139402,0.3774414,-0.9619751,0.1593628,5.125,-2.78125,-12.359375
434,434,1728019139442,0.30029297,-0.892395,0.11444092,12.234375,-7.796875,-16.5625
435,435,1728019139482,0.25073242,-0.9026489,0.11395264,14.890625,-12.546875,-17.34375
436,436,1728019139522,0.2133789,-1.029602,0.14837646,17.078125,-14.515625,-14.609375
437,437,1728019139562,0.19946289,-1.0369263,0.09051514,12.953125,-19.234375,-11.625
438,438,1728019139602,0.17114258,-0.9326782,0.010925293,11.421875,-14.96875,-10.484375
439,439,1728019139642,0.15307617,-0.94366455,0.03387451,9.765625,-11.59375,-7.328125
440,440,1728019139682,0.17651367,-0.99176025,0.038024902,8.71875,-11.390625,-4.421875
441,441,1728019139722,0.17382812,-1.0095825,0.07513428,4.78125,-14.375,-5.0625
442,442,1728019139762,0.10620117,-0.9522095,0.06976318,8.21875,-14.9375,-4.484375
443,443,1728019139802,0.0546875,-0.9468384,0.01361084,7.15625,-15.84375,-2.21875
444,444,1728019139842,0.072021484,-0.9734497,-0.002746582,8.453125,-12.75,0.578125
445,445,1728019139882,0.06640625,-1.0134888,-0.004699707,2.875,-8.890625,1.84375
446,446,1728019139922,0.111328125,-1.0176392,-0.027404785,1.75,-5.046875,-0.796875
447,447,1728019139962,0.11401367,-0.98809814,0.01776123,-2.671875,-1.6875,-2.703125
448,448,1728019140002,0.107177734,-0.9639282,0.0053100586,-3.78125,-2.65625,-1.21875
449,449,1728019140042,0.08959961,-0.99298096,0.020202637,-5.546875,-3.28125,-1.09375
450,450,1728019140082,0.14819336,-1.053772,0.028015137,-8.703125,-9.6875,0.046875
451,451,1728019140122,0.14770508,-1.0037231,0.05218506,-11.625,-10.890625,1.171875
452,452,1728019140162,0.07446289,-0.93414307,0.08514404,-11.859375,-13.34375,5.265625
453,453,1728019140202,0.068603516,-0.9819946,0.101501465,-16.09375,-25.9375,10.125
454,454,1728019140242,0.13305664,-1.0249634,0.07757568,-17.453125,-24.375,7.375
455,455,1728019140282,0.15844727,-1.1521606,0.23846436,-11.671875,-10.796875,4.9375
456,456,1728019140322,0.19702148,-0.9590454,0.23822021,-11.1875,-10.296875,12.4375
457,457,1728019140362,0.18676758,-0.710022,0.18719482,-3.875,-19.9375,18.90625
458,458,1728019140402,0.17382812,-0.78204346,0.09320068,6.421875,-22.609375,18.203125
459,459,1728019140442,0.19799805,-1.0588989,0.20062256,-2.78125,-9.375,15.0
460,460,1728019140482,0.1862793,-1.0606079,0.28704834,-2.359375,-7.59375,11.125
461,461,1728019140522,0.26708984,-0.83673096,0.27557373,-9.359375,-6.0625,12.3125
462,462,1728019140562,0.29638672,-0.8308716,0.29632568,-1.53125,-3.21875,8.59375
463,463,1728019140602,0.22680664,-0.98394775,0.28533936,-6.875,-1.5,6.5625
464,464,1728019140642,0.24389648,-0.87677,0.2831421,-3.515625,5.15625,3.25
465,465,1728019140682,0.32861328,-0.80963135,0.30218506,-0.53125,7.375,2.34375
466,466,1728019140722,0.40478516,-0.847229,0.34051514,-1.28125,6.125,2.578125
467,467,1728019140762,0.37719727,-0.8569946,0.35369873,-1.828125,3.890625,2.3125
468,468,1728019140802,0.40039062,-0.88726807,0.33270264,-0.359375,-0.484375,3.78125
469,469,1728019140842,0.37060547,-0.90289307,0.3624878,-1.328125,1.359375,3.921875
470,470,1728019140882,0.32006836,-0.87164307,0.35638428,-0.34375,1.59375,3.390625
471,471,1728019140922,0.2668457,-0.86431885,0.35687256,-0.71875,2.0625,0.578125
472,472,1728019140962,0.24267578,-0.8850708,0.3571167,-0.390625,5.453125,-0.6875
473,473,1728019141002,0.28930664,-0.86968994,0.32318115,-0.75,8.546875,-0.609375
474,474,1728019141042,0.32714844,-0.83917236,0.3414917,-1.734375,13.453125,-1.03125
475,475,1728019141082,0.31079102,-0.8550415,0.371521,0.0625,14.421875,-1.375
476,476,1728019141122,0.31030273,-0.8279419,0.35369873,0.640625,11.734375,-4.15625
477,477,1728019141162,0.2866211,-0.7659302,0.34295654,2.140625,16.765625,-5.296875
478,478,1728019141202,0.2866211,-0.7776489,0.33221436,0.25,18.546875,-7.265625
479,479,1728019141242,0.34960938,-0.92388916,0.27679443,-5.734375,23.125,-11.84375
480,480,1728019141282,0.33496094,-1.0606079,0.30828857,-0.265625,13.34375,-16.5625
481,481,1728019141322,0.3779297,-1.2012329,0.13446045,4.6875,-0.328125,-9.046875
482,482,1728019141362,0.30444336,-0.93951416,0.20159912,6.8125,11.90625,-9.15625
483,483,1728019141402,0.08618164,-0.6873169,0.13568115,4.671875,23.3125,-14.15625
484,484,1728019141442,0.17138672,-0.92633057,0.16229248,1.421875,12.671875,-0.921875
485,485,1728019141482,0.3239746,-1.0701294,0.18963623,3.203125,2.734375,-4.59375
486,486,1728019141522,0.31201172,-0.93585205,0.12030029,3.90625,6.484375,-9.703125
487,487,1728019141562,0.2121582,-0.9680786,0.09661865,8.09375,11.140625,-10.265625
488,488,1728019141602,0.19799805,-0.9939575,0.12615967,5.984375,4.265625,-5.625
489,489,1728019141642,0.21606445,-0.95513916,0.0927124,1.65625,3.1875,-5.46875
490,490,1728019141682,0.1899414,-1.0098267,0.07293701,2.515625,6.53125,-7.8125
491,491,1728019141722,0.22192383,-0.9854126,0.073913574,0.984375,0.140625,-7.265625
492,492,1728019141762,0.22753906,-0.9758911,0.113220215,1.90625,-3.296875,-5.515625
493,493,1728019141802,0.2121582,-0.93218994,0.101989746,-2.390625,-8.96875,-4.421875
494,494,1728019141842,0.08178711,-0.9885864,0.06976318,1.6875,-7.0,-3.9375
495,495,1728019141882,0.009033203,-1.0032349,0.05316162,1.984375,-3.1875,-4.015625
496,496,1728019141922,0.13378906,-0.8760376,-0.0056762695,3.09375,7.578125,3.703125
497,497,1728019141962,0.18798828,-0.9470825,0.02923584,8.328125,8.96875,4.40625
498,498,1728019142002,0.19726562,-1.0540161,0.11907959,8.921875,3.796875,1.171875
499,499,1728019142042,0.15625,-0.9819946,0.061950684,5.546875,-3.375,1.578125
500,500,1728019142082,0.13330078,-0.93096924,0.03387451,4.6875,-6.25,3.203125
501,501,1728019142122,0.12963867,-0.9993286,0.042907715,4.171875,-5.9375,2.46875
502,502,1728019142162,0.07006836,-1.0037231,0.05731201,3.359375,-8.640625,2.640625
503,503,1728019142202,0.06665039,-0.97003174,0.014099121,0.9375,-8.6875,4.96875
504,504,1728019142242,0.15332031,-0.9661255,0.0004272461,1.046875,-8.375,6.4375
505,505,1728019142282,0.15429688,-1.0056763,0.054382324,1.265625,-9.609375,4.59375
506,506,1728019142322,0.1430664,-1.0249634,0.055847168,-4.671875,-15.359375,5.6875
507,507,1728019142362,0.17260742,-0.9829712,0.05340576,-9.140625,-18.1875,7.4375
508,508,1728019142402,0.23168945,-0.9768677,0.09564209,-8.40625,-17.53125,9.4375
509,509,1728019142442,0.21875,-0.9746704,0.11981201,-0.765625,-13.53125,11.875
510,510,1728019142482,0.22241211,-0.9546509,0.04119873,0.375,-11.890625,9.5625
511,511,1728019142522,0.30322266,-0.87945557,0.09222412,2.171875,-6.828125,8.15625
512,512,1728019142562,0.2927246,-0.8804321,0.18157959,1.0625,-6.828125,8.5
513,513,1728019142602,0.26611328,-0.96417236,0.1593628,-1.390625,-16.296875,9.5
514,514,1728019142642,0.3371582,-0.9727173,0.16278076,1.609375,-13.84375,4.453125
515,515,1728019142682,0.32641602,-1.0293579,0.17596436,6.65625,-8.453125,3.125
516,516,1728019142722,0.20996094,-0.93927,0.1515503,-12.390625,-1.46875,-1.375
517,517,1728019142762,0.20800781,-0.7913208,0.15374756,-18.65625,-6.859375,5.515625
518,518,1728019142802,0.3173828,-0.894104,0.2243042,-10.125,-0.6875,4.390625
519,519,1728019142842,0.3408203,-0.9402466,0.24700928,-8.484375,6.75,3.765625
520,520,1728019142882,0.31689453,-0.8904419,0.24847412,-8.265625,7.015625,5.0
521,521,1728019142922,0.36621094,-0.82598877,0.22821045,-4.25,6.65625,3.96875
522,522,1728019142962,0.35961914,-0.878479,0.2662964,-7.359375,8.859375,3.3125
523,523,1728019143002,0.37426758,-0.9031372,0.28631592,-8.234375,9.921875,1.828125
524,524,1728019143042,0.32910156,-0.8948364,0.31658936,-8.34375,10.046875,-0.203125
525,525,1728019143082,0.31518555,-0.86846924,0.29925537,-6.34375,11.75,-0.96875
526,526,1728019143122,0.3215332,-0.8569946,0.27069092,-5.3125,11.859375,-0.1875
527,527,1728019143162,0.35351562,-0.8740845,0.25238037,-8.4375,14.671875,-1.046875
528,528,1728019143202,0.3564453,-0.85894775,0.28094482,-4.859375,15.484375,-1.984375
529,529,1728019143242,0.36083984,-0.85528564,0.29656982,-5.578125,16.046875,-2.953125
530,530,1728019143282,0.37231445,-0.8452759,0.29266357,-5.15625,13.96875,-4.09375
531,531,1728019143322,0.37158203,-0.831604,0.31488037,-4.15625,13.65625,-4.765625
532,532,1728019143362,0.35107422,-0.85284424,0.27435303,-4.171875,9.859375,-6.21875
533,533,1728019143402,0.33251953,-0.8533325,0.30047607,-4.578125,11.6875,-10.421875
534,534,1728019143442,0.31298828,-0.8994751,0.2999878,-3.09375,11.4375,-12.0
535,535,1728019143482,0.3178711,-0.940979,0.28948975,-2.0625,11.109375,-11.03125
536,536,1728019143522,0.3618164,-1.0100708,0.20062256,2.21875,5.71875,-7.546875
537,537,1728019143562,0.38354492,-0.93218994,0.18695068,0.59375,7.953125,-5.234375
538,538,1728019143602,0.25610352,-0.8538208,0.18328857,4.25,14.265625,-7.03125
539,539,1728019143642,0.24633789,-0.84576416,0.19012451,-0.421875,13.953125,-4.84375
540,540,1728019143682,0.2980957,-0.9343872,0.21063232,2.75,9.734375,-4.078125
541,541,1728019143722,0.34594727,-0.98028564,0.1618042,1.640625,13.8125,-5.34375
542,542,1728019143762,0.25268555,-1.010315,0.14984131,8.484375,16.953125,-8.609375
543,543,1728019143802,0.20214844,-0.9561157,0.1329956,2.0625,8.5,-11.734375
544,544,1728019143842,0.23339844,-0.8899536,0.14422607,3.640625,3.765625,-5.734375
545,545,1728019143882,0.22875977,-0.95562744,0.13104248,4.28125,4.375,-4.921875
546,546,1728019143922,0.21655273,-0.99957275,0.09539795,5.4375,3.4375,-7.109375
547,547,1728019143962,0.23950195,-0.94317627,0.07098389,4.875,-1.15625,-5.28125
548,548,1728019144002,0.2626953,-0.91070557,0.059509277,3.359375,-2.859375,-3.609375
549,549,1728019144042,0.21606445,-0.9690552,0.055603027,4.484375,-5.859375,-4.859375
550,550,1728019144082,0.17749023,-0.99102783,0.029968262,4.09375,-10.671875,-6.21875
551,551,1728019144122,0.2019043,-0.98101807,0.041931152,2.65625,-14.328125,-4.875
552,552,1728019144162,0.18530273,-0.9595337,0.062194824,4.328125,-17.0625,-3.796875
553,553,1728019144202,0.1274414,-0.9817505,0.066101074,5.59375,-17.765625,-2.484375
554,554,1728019144242,0.115234375,-0.97125244,0.06756592,4.328125,-18.609375,-1.03125
555,555,1728019144282,0.1105957,-0.96417236,0.07635498,4.953125,-18.703125,0.171875
556,556,1728019144322,0.115722656,-1.0042114,0.07513428,3.921875,-17.578125,1.46875
557,557,1728019144362,0.1171875,-0.9985962,0.06536865,3.84375,-15.875,0.5625
558,558,1728019144402,0.091796875,-0.95440674,0.06536865,3.1875,-14.359375,0.34375
559,559,1728019144442,0.10229492,-0.97247314,0.0758667,2.921875,-13.078125,3.40625
560,560,1728019144482,0.12548828,-0.9920044,0.038269043,-1.578125,-15.1875,3.8125
561,561,1728019144522,0.118652344,-1.0090942,0.0993042,4.359375,-13.21875,3.328125
562,562,1728019144562,0.06958008,-0.9487915,0.09075928,-0.453125,-18.625,3.53125
563,563,1728019144602,0.07348633,-0.99005127,0.051208496,-5.609375,-16.234375,5.578125
564,564,1728019144642,0.15014648,-1.0405884,0.105407715,-7.921875,-12.375,3.75
565,565,1728019144682,0.20507812,-0.9776001,0.16815186,-4.0,-10.546875,3.40625
566,566,1728019144722,0.111083984,-0.9319458,0.14422607,-1.125,-16.796875,4.625
567,567,1728019144762,0.052490234,-0.9439087,0.081970215,1.546875,-17.515625,6.484375
568,568,1728019144802,0.16699219,-0.99542236,0.086120605,-0.6875,-10.15625,8.015625
569,569,1728019144842,0.20336914,-0.97442627,0.121032715,-1.046875,-6.53125,5.546875
570,570,1728019144882,0.19311523,-0.9800415,0.1671753,-2.15625,-5.0625,4.703125
571,571,1728019144922,0.18554688,-0.97540283,0.14300537,-5.3125,-7.25,4.109375
572,572,1728019144962,0.24853516,-0.9324341,0.15350342,-3.28125,-3.0625,5.765625
573,573,1728019145002,0.30126953,-0.9067993,0.19451904,0.265625,-0.234375,8.75
574,574,1728019145042,0.23168945,-0.9483032,0.18572998,-2.609375,-2.65625,8.15625
575,575,1728019145082,0.2355957,-0.95758057,0.21795654,-2.921875,0.921875,6.5
576,576,1728019145122,0.27392578,-0.940979,0.24090576,-4.09375,2.75,6.625
577,577,1728019145162,0.29785156,-0.9187622,0.23260498,-7.125,6.1875,7.21875
578,578,1728019145202,0.31982422,-0.8633423,0.2531128,-3.515625,8.296875,5.921875
579,579,1728019145242,0.31030273,-0.89630127,0.28045654,-3.65625,10.515625,7.109375
580,580,1728019145282,0.31689453,-0.9026489,0.24090576,-8.84375,8.359375,6.015625
581,581,1728019145322,0.37670898,-0.8838501,0.24139404,-12.65625,10.640625,3.75
582,582,1728019145362,0.35961914,-0.8609009,0.27557373,-13.75,15.390625,1.109375
583,583,1728019145402,0.35668945,-0.85894775,0.27752686,-10.953125,16.734375,1.828125
584,584,1728019145442,0.4177246,-0.8809204,0.2838745,-9.5625,16.34375,1.8125
585,585,1728019145482,0.3737793,-0.83966064,0.354187,-5.8125,15.015625,-1.0
586,586,1728019145522,0.33081055,-0.8875122,0.29364014,-9.671875,11.09375,-1.46875
587,587,1728019145562,0.38061523,-0.8633423,0.27825928,-4.515625,12.8125,-0.609375
588,588,1728019145602,0.4165039,-0.8362427,0.30511475,-2.453125,13.34375,-1.46875
589,589,1728019145642,0.40234375,-0.8257446,0.2975464,-2.609375,11.875,-1.375
590,590,1728019145682,0.39404297,-0.82354736,0.31488037,1.453125,9.96875,-0.984375
591,591,1728019145722,0.35107422,-0.7937622,0.33441162,4.046875,10.84375,-2.046875
592,592,1728019145762,0.31225586,-0.7876587,0.3156128,1.4375,8.21875,-5.09375
593,593,1728019145802,0.31103516,-0.8352661,0.27508545,2.328125,6.25,-10.40625
594,594,1728019145842,0.44799805,-1.0022583,0.29510498,-3.015625,7.15625,-8.46875
595,595,1728019145882,0.32714844,-1.1294556,0.20501709,2.984375,3.71875,-9.28125
596,596,1728019145922,0.37280273,-1.0357056,0.1227417,-0.640625,3.5,-9.703125
597,597,1728019145962,0.19311523,-0.7805786,0.15472412,9.09375,14.90625,-14.5625
598,598,1728019146002,0.20043945,-0.8389282,0.16595459,0.0625,9.296875,-3.515625
599,599,1728019146042,0.27172852,-0.9456177,0.15032959,-4.515625,3.09375,-1.90625
600,600,1728019146082,0.3684082,-0.9871216,0.117126465,-0.09375,3.28125,-5.96875
601,601,1728019146122,0.3540039,-0.9324341,0.11541748,3.921875,4.375,-8.515625
602,602,1728019146162,0.22851562,-0.93218994,0.10784912,5.671875,0.78125,-9.609375
603,603,1728019146202,0.16796875,-0.9714966,0.09222412,-3.59375,-1.203125,-9.15625
604,604,1728019146242,0.21728516,-0.991272,0.13201904,-1.375,-0.4375,-10.21875
605,605,1728019146282,0.23608398,-0.9585571,0.10784912,1.84375,-2.4375,-9.484375
606,606,1728019146322,0.21411133,-0.91973877,0.11199951,3.546875,-6.796875,-8.265625
607,607,1728019146362,0.19140625,-0.95562744,0.1305542,4.265625,-13.140625,-7.5625
608,608,1728019146402,0.14746094,-0.96343994,0.14105225,5.15625,-15.5625,-5.921875
609,609,1728019146442,0.18286133,-1.0159302,0.121032715,9.75,-15.78125,-4.78125
610,610,1728019146482,0.19750977,-1.039856,0.08538818,6.671875,-18.140625,-10.578125
611,611,1728019146522,0.10205078,-0.9348755,0.06854248,-1.78125,-14.25,-8.46875
612,612,1728019146562,0.05102539,-0.90509033,0.09100342,3.4375,-20.21875,-4.421875
613,613,1728019146602,0.03857422,-0.9536743,0.08831787,1.828125,-22.265625,-1.328125
614,614,1728019146642,0.043701172,-1.0281372,0.11102295,0.09375,-19.09375,1.046875
615,615,1728019146682,0.03466797,-0.99786377,0.117614746,-0.640625,-16.515625,1.46875
616,616,1728019146722,0.032958984,-0.9627075,0.11663818,0.546875,-14.734375,3.453125
617,617,1728019146762,0.032470703,-0.987854,0.13665771,2.21875,-11.75,4.40625
618,618,1728019146802,0.040283203,-0.97320557,0.12762451,2.375,-12.453125,5.96875
619,619,1728019146842,0.049072266,-0.99005127,0.11907959,-0.796875,-12.953125,5.859375
620,620,1728019146882,0.052001953,-1.0022583,0.13519287,-2.4375,-13.59375,4.953125
621,621,1728019146922,0.053955078,-0.99005127,0.14666748,-4.75,-14.546875,4.234375
622,622,1728019146962,0.047607422,-0.99005127,0.15106201,-6.359375,-15.75,4.765625
623,623,1728019147002,0.08642578,-1.0403442,0.16278076,-8.75,-18.921875,4.203125
624,624,1728019147042,0.083984375,-1.0186157,0.22845459,-6.265625,-14.75,2.765625
625,625,1728019147082,0.1027832,-0.95318604,0.19940186,-6.1875,-7.59375,2.953125
626,626,1728019147122,0.0690918,-0.9158325,0.16619873,-3.4375,-5.46875,5.59375
627,627,1728019147162,0.08886719,-0.9849243,0.19354248,0.484375,-1.125,8.046875
628,628,1728019147202,0.19360352,-0.9390259,0.20159912,-0.765625,-0.8125,7.296875
629,629,1728019147242,0.2919922,-0.9536743,0.24749756,-5.78125,3.6875,7.125
630,630,1728019147282,0.28295898,-0.897522,0.31878662,1.21875,4.609375,6.09375
631,631,1728019147322,0.24414062,-0.88116455,0.27801514,4.96875,4.90625,8.671875
632,632,1728019147362,0.20751953,-0.9468384,0.24212646,-0.375,2.984375,8.25
633,633,1728019147402,0.2409668,-0.928772,0.21063232,-4.15625,3.578125,8.96875
634,634,1728019147442,0.2927246,-0.92437744,0.27191162,-2.28125,4.671875,9.453125
635,635,1728019147482,0.30395508,-0.9414673,0.27435303,-4.75,4.9375,6.625
636,636,1728019147522,0.296875,-0.89434814,0.2958374,-1.140625,9.171875,5.6875
637,637,1728019147562,0.29467773,-0.8464966,0.29534912,-3.21875,6.203125,6.734375
638,638,1728019147602,0.23486328,-0.88116455,0.33685303,-3.0,6.109375,3.53125
639,639,1728019147642,0.22949219,-0.9314575,0.32489014,-1.921875,9.078125,1.0
640,640,1728019147682,0.2524414,-0.8887329,0.23822021,-1.328125,8.6875,-2.40625
641,641,1728019147722,0.30395508,-0.87384033,0.2789917,0.578125,14.921875,-2.234375
642,642,1728019147762,0.32836914,-0.8635864,0.26239014,0.25,14.984375,-0.171875
643,643,1728019147802,0.31567383,-0.9234009,0.2616577,0.734375,13.234375,1.375
644,644,1728019147842,0.3203125,-0.9360962,0.29656982,0.484375,13.59375,-0.671875
645,645,1728019147882,0.30810547,-0.8792114,0.24163818,-1.140625,13.03125,-0.625
646,646,1728019147922,0.3251953,-0.86798096,0.27288818,-2.8125,17.484375,-0.921875
647,647,1728019147962,0.3479004,-0.94317627,0.28045654,-3.546875,15.28125,-0.109375
648,648,1728019148002,0.33935547,-0.8821411,0.28778076,-8.40625,15.421875,-3.6875
649,649,1728019148042,0.25341797,-0.79229736,0.28826904,-4.5,20.140625,-6.90625
650,650,1728019148082,0.33666992,-0.8701782,0.2584839,-4.015625,15.359375,-5.609375
651,651,1728019148122,0.3491211,-0.9365845,0.29071045,-4.390625,11.703125,-5.8125
652,652,1728019148162,0.34277344,-1.0371704,0.21136475,0.328125,4.046875,-4.421875
653,653,1728019148202,0.40844727,-0.99102783,0.16571045,-1.046875,3.03125,-1.828125
654,654,1728019148242,0.3005371,-0.8477173,0.16815186,5.828125,6.5,-1.640625
655,655,1728019148282,0.22070312,-0.85943604,0.18206787,3.609375,3.71875,0.359375
656,656,1728019148322,0.26831055,-0.92852783,0.1461792,-0.078125,-3.28125,1.390625
657,657,1728019148362,0.33935547,-0.9771118,0.12005615,0.359375,0.3125,0.265625
658,658,1728019148402,0.27905273,-0.95098877,0.13128662,3.640625,-1.65625,-2.65625
659,659,1728019148442,0.21728516,-0.92974854,0.10614014,5.375,-0.671875,-3.390625
660,660,1728019148482,0.22827148,-0.96295166,0.097351074,5.1875,2.4375,-3.578125
661,661,1728019148522,0.24438477,-0.94781494,0.08050537,4.21875,-1.0,-5.5625
662,662,1728019148562,0.10522461,-0.89678955,0.07489014,11.75,7.328125,-5.140625
663,663,1728019148602,0.109375,-0.9273071,-0.042785645,0.8125,5.546875,1.0
664,664,1728019148642,0.25439453,-0.9475708,-0.014465332,4.390625,18.109375,-4.296875
665,665,1728019148682,0.38623047,-1.0740356,0.09320068,10.4375,15.484375,-6.21875
666,666,1728019148722,0.30371094,-1.0076294,0.07537842,8.109375,-0.265625,-8.859375
667,667,1728019148762,0.18188477,-0.9397583,0.07147217,5.515625,-11.640625,-8.53125
668,668,1728019148802,0.19165039,-0.9170532,0.019226074,6.8125,-20.59375,-2.109375
669,669,1728019148842,0.20141602,-0.95269775,0.028503418,4.96875,-20.46875,-1.75
670,670,1728019148882,0.16308594,-1.0037231,0.051940918,4.421875,-23.421875,-1.640625
671,671,1728019148922,0.11303711,-0.99664307,0.02166748,2.640625,-23.96875,0.96875
672,672,1728019148962,0.10253906,-0.9973755,0.031433105,2.171875,-21.578125,1.8125
673,673,1728019149002,0.12109375,-0.9751587,0.051696777,1.25,-21.84375,2.3125
674,674,1728019149042,0.1352539,-0.98931885,0.034118652,0.71875,-24.46875,3.390625
675,675,1728019149082,0.12866211,-0.9512329,0.04949951,2.1875,-22.78125,3.703125
676,676,1728019149122,0.11279297,-1.000061,0.06512451,-0.328125,-22.0,3.890625
677,677,1728019149162,0.17016602,-1.0098267,0.06536865,-1.53125,-21.828125,4.34375
678,678,1728019149202,0.18701172,-0.97052,0.09637451,0.390625,-18.53125,3.25
679,679,1728019149242,0.15478516,-0.975647,0.0770874,0.359375,-20.3125,3.703125
680,680,1728019149282,0.18945312,-0.93218994,0.066589355,5.921875,-18.46875,4.28125
681,681,1728019149322,0.21166992,-0.9614868,0.09222412,0.234375,-14.65625,4.265625
682,682,1728019149362,0.2199707,-1.039856,0.15130615,0.03125,-10.234375,3.375
683,683,1728019149402,0.20288086,-1.0003052,0.18475342,-4.046875,-7.96875,0.28125
684,684,1728019149442,0.2734375,-0.89556885,0.14910889,-7.4375,-8.3125,3.203125
685,685,1728019149482,0.3017578,-0.8838501,0.1486206,-10.65625,-1.125,6.15625
686,686,1728019149522,0.31713867,-0.94415283,0.21185303,-9.53125,-5.109375,3.828125
687,687,1728019149562,0.28125,-0.9326782,0.2255249,-4.5625,-2.921875,4.171875
688,688,1728019149602,0.3173828,-0.8855591,0.20941162,-6.0625,1.0,7.8125
689,689,1728019149642,0.34228516,-0.8484497,0.21331787,-8.640625,3.46875,9.8125
690,690,1728019149682,0.26757812,-0.866272,0.2929077,1.8125,7.234375,7.84375
691,691,1728019149722,0.24536133,-0.95928955,0.28289795,-6.078125,3.828125,3.65625
692,692,1728019149762,0.25097656,-0.9697876,0.2789917,-7.3125,9.90625,1.390625
693,693,1728019149802,0.27197266,-0.86383057,0.27264404,-8.171875,15.0625,-1.015625
694,694,1728019149842,0.3215332,-0.8621216,0.23797607,-9.234375,16.609375,1.15625
695,695,1728019149882,0.28125,-0.87628174,0.28289795,-5.171875,19.0625,2.75
696,696,1728019149922,0.30664062,-0.89727783,0.24212646,-8.0625,17.796875,4.640625
697,697,1728019149962,0.37548828,-0.8809204,0.25775146,-9.109375,16.78125,1.34375
698,698,1728019150002,0.36791992,-0.88726807,0.2675171,-4.046875,18.671875,-1.578125
699,699,1728019150042,0.37109375,-0.87701416,0.27874756,-3.90625,14.4375,-2.359375
700,700,1728019150082,0.36767578,-0.85113525,0.29779053,-3.453125,14.046875,-2.984375
701,701,1728019150122,0.32299805,-0.84869385,0.28582764,-2.53125,13.28125,-4.78125
702,702,1728019150162,0.32421875,-0.8574829,0.2753296,-3.75,10.671875,-4.203125
703,703,1728019150202,0.33935547,-0.87457275,0.29071045,-3.5625,13.125,-4.546875
704,704,1728019150242,0.3552246,-0.897522,0.30169678,-3.84375,10.90625,-6.09375
705,705,1728019150282,0.34887695,-0.9146118,0.3168335,-4.0625,10.015625,-6.046875
706,706,1728019150322,0.30639648,-0.9026489,0.3163452,-2.9375,9.21875,-7.859375
707,707,1728019150362,0.30566406,-0.96710205,0.22918701,-2.703125,4.515625,-7.671875
708,708,1728019150402,0.42407227,-1.0266724,0.12005615,2.546875,-3.015625,-1.546875
709,709,1728019150442,0.3322754,-0.87384033,0.14178467,5.265625,5.3125,-3.46875
710,710,1728019150482,0.26000977,-0.7588501,0.12030029,4.828125,9.78125,-3.078125
711,711,1728019150522,0.2536621,-0.8648071,0.15106201,4.0625,4.3125,2.328125
712,712,1728019150562,0.3190918,-1.0110474,0.14154053,5.1875,-0.703125,0.234375
713,713,1728019150602,0.32788086,-1.0061646,0.09881592,7.671875,3.28125,-3.203125
714,714,1728019150642,0.2512207,-0.9199829,0.08050537,7.765625,2.09375,-4.8125
715,715,1728019150682,0.22241211,-0.894104,0.074645996,10.09375,0.96875,-3.40625
716,716,1728019150722,0.26831055,-0.9595337,0.061706543,9.765625,-0.515625,-2.546875
717,717,1728019150762,0.28637695,-0.99005127,0.06585693,6.59375,-1.875,-4.390625
718,718,1728019150802,0.23071289,-0.98394775,0.054138184,4.875,-1.921875,-7.296875
719,719,1728019150842,0.21118164,-0.9885864,0.054626465,4.59375,-2.8125,-8.03125
720,720,1728019150882,0.21899414,-0.9558716,0.030944824,4.859375,-4.40625,-6.703125
721,721,1728019150922,0.26245117,-0.95318604,0.024597168,4.546875,-7.15625,-4.0625
722,722,1728019150962,0.22167969,-0.98223877,0.06121826,5.328125,-9.484375,-4.765625
723,723,1728019151002,0.2277832,-1.0105591,0.07098389,2.171875,-15.9375,-4.203125
724,724,1728019151042,0.18432617,-0.944397,0.058044434,4.546875,-16.1875,-3.359375
725,725,1728019151082,0.15112305,-0.9595337,0.047546387,7.578125,-16.25,-2.453125
726,726,1728019151122,0.14746094,-0.96051025,0.028503418,5.46875,-19.03125,-2.171875
727,727,1728019151162,0.1508789,-0.96539307,0.021911621,2.234375,-18.609375,-0.1875
728,728,1728019151202,0.12011719,-0.9859009,0.050231934,1.59375,-17.953125,0.21875
729,729,1728019151242,0.107421875,-0.9846802,0.041931152,-0.296875,-19.59375,1.296875
730,730,1728019151282,0.09765625,-0.96710205,0.07904053,-0.859375,-17.59375,1.03125
731,731,1728019151322,0.075927734,-1.00177,0.09246826,-3.8125,-17.21875,1.515625
732,732,1728019151362,0.091552734,-1.0271606,0.109069824,-5.515625,-16.9375,2.078125
733,733,1728019151402,0.1171875,-0.95806885,0.10491943,-7.84375,-19.046875,2.03125
734,734,1728019151442,0.11279297,-0.960022,0.11126709,-8.234375,-23.59375,2.375
735,735,1728019151482,0.13671875,-1.038147,0.12762451,-13.375,-27.75,1.625
736,736,1728019151522,0.18725586,-1.0960083,0.17327881,-9.921875,-21.46875,0.03125
737,737,1728019151562,0.26220703,-0.9558716,0.26116943,-3.578125,-6.21875,4.28125
738,738,1728019151602,0.2775879,-0.80792236,0.17474365,-4.25,-12.09375,5.8125
739,739,1728019151642,0.21655273,-0.8760376,0.16571045,-0.796875,-9.125,6.265625
740,740,1728019151682,0.20581055,-0.9824829,0.25213623,-6.390625,-6.421875,8.96875
741,741,1728019151722,0.26708984,-0.9771118,0.31243896,-2.421875,-3.203125,4.34375
742,742,1728019151762,0.2487793,-0.89556885,0.25750732,-5.96875,-2.203125,5.40625
743,743,1728019151802,0.19628906,-0.866272,0.24212646,-7.203125,2.46875,5.953125
744,744,1728019151842,0.26342773,-0.9036255,0.25506592,-4.75,3.890625,7.703125
745,745,1728019151882,0.33154297,-0.87872314,0.25897217,-3.265625,5.953125,9.453125
746,746,1728019151922,0.3251953,-0.8723755,0.26727295,-4.5625,7.4375,10.671875
747,747,1728019151962,0.30029297,-0.89801025,0.26483154,-2.21875,6.75,8.4375
748,748,1728019152002,0.3166504,-0.9077759,0.26727295,-5.0,10.71875,6.90625
749,749,1728019152042,0.32055664,-0.9053345,0.260437,-6.375,11.203125,3.5
750,750,1728019152082,0.32983398,-0.86724854,0.28216553,-6.09375,12.953125,2.140625
751,751,1728019152122,0.32983398,-0.89068604,0.3312378,-7.0625,12.90625,1.734375
752,752,1728019152162,0.2163086,-0.90338135,0.33099365,-8.4375,18.234375,-1.625
753,753,1728019152202,0.27783203,-0.8477173,0.2662964,-12.40625,17.671875,-2.5
754,754,1728019152242,0.40966797,-0.8479614,0.30462646,-13.328125,22.46875,-0.890625
755,755,1728019152282,0.38549805,-0.87701416,0.3378296,-7.453125,18.921875,-0.296875
756,756,1728019152322,0.3720703,-0.87042236,0.3336792,-6.859375,16.140625,-2.8125
757,757,1728019152362,0.3671875,-0.8340454,0.32537842,-2.296875,15.140625,-2.90625
758,758,1728019152402,0.36572266,-0.81329346,0.31610107,-1.0625,15.6875,-0.203125
759,759,1728019152442,0.3720703,-0.82696533,0.34075928,-2.28125,13.375,-1.71875
