,Unnamed: 0,timestamp,accel_x,accel_y,accel_z,gyro_x,gyro_y,gyro_z
0,0,1727875506621,-0.029541016,-0.5940552,0.8493042,-1.578125,-0.96875,-0.046875
1,1,1727875506661,-0.023925781,-0.56622314,0.85687256,-1.71875,-1.078125,-0.171875
2,2,1727875506701,-0.0146484375,-0.58013916,0.8578491,-0.15625,-0.703125,-0.578125
3,3,1727875506741,-0.021972656,-0.57476807,0.8590698,-0.375,-0.265625,0.15625
4,4,1727875506781,-0.025878906,-0.5911255,0.8546753,-0.046875,-0.25,-0.046875
5,5,1727875506821,-0.015380859,-0.585022,0.8534546,0.0,-1.0625,0.0
6,6,1727875506861,-0.019042969,-0.59503174,0.84661865,0.515625,-0.5625,-0.015625
7,7,1727875506901,-0.020996094,-0.5984497,0.8485718,-0.25,-0.4375,-0.140625
8,8,1727875506941,-0.026367188,-0.58551025,0.84710693,-0.3125,-0.625,0.1875
9,9,1727875506981,-0.01928711,-0.59503174,0.85369873,-0.34375,-0.625,0.234375
10,10,1727875507021,-0.015625,-0.59820557,0.8427124,-0.03125,-0.84375,0.328125
11,11,1727875507061,-0.010009766,-0.5977173,0.8539429,-0.828125,-0.65625,-0.03125
12,12,1727875507101,-0.014892578,-0.5940552,0.85272217,-0.59375,-0.84375,-0.171875
13,13,1727875507141,-0.028076172,-0.59552,0.8512573,-1.046875,-1.40625,-0.25
14,14,1727875507181,-0.020507812,-0.5940552,0.8390503,0.03125,-0.734375,-0.203125
15,15,1727875507221,-0.024658203,-0.58013916,0.85076904,-1.0,-0.9375,0.0
16,16,1727875507261,-0.015380859,-0.58721924,0.8590698,0.03125,-1.0,-0.21875
17,17,1727875507301,-0.020263672,-0.5996704,0.84783936,-0.265625,-1.3125,-0.03125
18,18,1727875507341,-0.03100586,-0.5979614,0.8444214,-0.859375,-0.84375,0.421875
19,19,1727875507381,-0.019042969,-0.5984497,0.8468628,-0.75,-0.9375,-0.109375
20,20,1727875507421,-0.02319336,-0.5845337,0.86053467,-0.578125,-1.0,-0.09375
21,21,1727875507461,-0.015380859,-0.59161377,0.84295654,0.0625,-1.140625,-0.09375
22,22,1727875507501,-0.028564453,-0.59576416,0.8493042,0.078125,-0.6875,0.125
23,23,1727875507541,-0.01953125,-0.59088135,0.8510132,-1.171875,-0.25,-0.09375
24,24,1727875507581,-0.010498047,-0.5889282,0.8534546,-0.375,-0.703125,-0.171875
25,25,1727875507621,-0.020507812,-0.6021118,0.8488159,-0.140625,-0.78125,0.03125
26,26,1727875507661,-0.026855469,-0.5894165,0.83148193,-0.984375,-0.9375,-0.078125
27,27,1727875507701,-0.018066406,-0.5923462,0.8602905,-0.625,-0.734375,-0.265625
28,28,1727875507741,-0.018554688,-0.5960083,0.84661865,-0.96875,-1.046875,-0.140625
29,29,1727875507781,-0.025634766,-0.5947876,0.86712646,-0.515625,-0.796875,0.203125
30,30,1727875507821,-0.019042969,-0.58551025,0.83636475,-0.734375,-0.875,-0.125
31,31,1727875507861,-0.017822266,-0.5906372,0.85565186,-0.421875,-0.578125,0.0
32,32,1727875507901,-0.011474609,-0.5918579,0.85369873,-0.46875,-0.734375,-0.25
33,33,1727875507941,-0.021240234,-0.59259033,0.84588623,-0.109375,-0.953125,0.15625
34,34,1727875507981,-0.033203125,-0.5984497,0.8461304,-0.46875,-0.671875,0.03125
35,35,1727875508021,-0.016357422,-0.59332275,0.85150146,-1.265625,-0.546875,-0.171875
36,36,1727875508061,-0.009277344,-0.58673096,0.855896,-0.59375,-0.734375,-0.09375
37,37,1727875508101,-0.025878906,-0.58966064,0.8434448,-0.40625,-0.78125,-0.09375
38,38,1727875508141,-0.026367188,-0.5996704,0.84954834,-0.671875,-0.390625,-0.140625
39,39,1727875508181,-0.013671875,-0.58795166,0.8517456,-0.828125,-0.59375,-0.03125
40,40,1727875508221,-0.021972656,-0.5899048,0.85150146,0.3125,-0.6875,-0.0625
41,41,1727875508261,-0.023925781,-0.59747314,0.8410034,-0.25,-0.6875,-0.015625
42,42,1727875508301,-0.016601562,-0.5964966,0.8551636,-0.671875,-0.5,0.046875
43,43,1727875508341,-0.012939453,-0.5964966,0.85076904,-0.6875,-0.921875,-0.171875
44,44,1727875508381,-0.029052734,-0.5996704,0.8707886,-0.453125,-1.109375,0.234375
45,45,1727875508421,-0.021728516,-0.5928345,0.83929443,-1.234375,-1.0625,-0.171875
46,46,1727875508461,-0.012207031,-0.5874634,0.854187,-0.953125,-0.828125,-0.21875
47,47,1727875508501,-0.0009765625,-0.5886841,0.8551636,-0.375,-0.59375,-0.375
48,48,1727875508541,-0.028076172,-0.5845337,0.84539795,-0.078125,-0.875,0.0
49,49,1727875508581,-0.030273438,-0.59503174,0.84661865,-0.609375,-0.484375,0.125
50,50,1727875508621,-0.013427734,-0.58258057,0.8512573,-1.296875,-0.828125,-0.25
51,51,1727875508661,-0.010498047,-0.5952759,0.8529663,-0.390625,-0.734375,-0.0625
52,52,1727875508701,-0.022705078,-0.5901489,0.8497925,-0.625,-1.015625,0.015625
53,53,1727875508741,-0.026611328,-0.59381104,0.8512573,-0.375,-0.546875,0.078125
54,54,1727875508781,-0.016601562,-0.5874634,0.85369873,-0.515625,-0.625,0.015625
55,55,1727875508821,-0.017333984,-0.59332275,0.84710693,-0.015625,-0.796875,-0.15625
56,56,1727875508861,-0.020263672,-0.60162354,0.84173584,0.0,-0.90625,-0.09375
57,57,1727875508901,-0.018554688,-0.5996704,0.85809326,-1.046875,-0.65625,0.0
58,58,1727875508941,-0.01171875,-0.58721924,0.8488159,-0.5625,-0.71875,0.015625
59,59,1727875508981,-0.03125,-0.59161377,0.8485718,-0.578125,-1.125,0.234375
60,60,1727875509021,-0.021240234,-0.5911255,0.84246826,-0.5,-0.640625,-0.21875
61,61,1727875509061,-0.018554688,-0.5930786,0.84954834,-0.875,-0.9375,0.109375
62,62,1727875509101,-0.0056152344,-0.6008911,0.86053467,-0.421875,-0.46875,-0.46875
63,63,1727875509141,-0.017578125,-0.58966064,0.8468628,-0.265625,-0.984375,-0.078125
64,64,1727875509181,-0.03125,-0.6074829,0.8500366,0.03125,-0.53125,0.15625
65,65,1727875509221,-0.017089844,-0.5899048,0.8439331,-1.265625,-0.84375,-0.125
66,66,1727875509261,-0.0087890625,-0.5935669,0.8578491,-0.328125,-0.828125,-0.03125
67,67,1727875509301,-0.020019531,-0.5911255,0.83758545,-0.28125,-0.921875,0.03125
68,68,1727875509341,-0.026611328,-0.6050415,0.84368896,-0.203125,-0.84375,-0.046875
69,69,1727875509381,-0.020019531,-0.5960083,0.8551636,-1.046875,-0.578125,-0.03125
70,70,1727875509421,-0.016357422,-0.58917236,0.8551636,-0.328125,-0.828125,0.078125
71,71,1727875509461,-0.024658203,-0.6021118,0.8422241,0.171875,-0.765625,-0.03125
72,72,1727875509501,-0.020996094,-0.5889282,0.8439331,-1.59375,-1.109375,-0.234375
73,73,1727875509541,-0.015380859,-0.59259033,0.8395386,-0.140625,-0.671875,0.078125
74,74,1727875509581,-0.018554688,-0.59088135,0.8390503,-0.3125,-1.0625,-0.0625
75,75,1727875509621,-0.017333984,-0.60528564,0.85443115,0.125,-0.5,-0.140625
76,76,1727875509661,-0.029052734,-0.5918579,0.8488159,-1.296875,-1.125,0.15625
77,77,1727875509701,-0.008300781,-0.6001587,0.86151123,-0.203125,-0.59375,-0.078125
78,78,1727875509741,-0.018554688,-0.5979614,0.8446655,-0.078125,-0.734375,-0.015625
79,79,1727875509781,-0.036621094,-0.5901489,0.84173584,-0.25,-0.828125,0.265625
80,80,1727875509821,-0.024169922,-0.5977173,0.84783936,-0.984375,-0.625,-0.109375
81,81,1727875509861,-0.0056152344,-0.58917236,0.85980225,-0.796875,-0.765625,0.078125
82,82,1727875509901,-0.011474609,-0.5923462,0.84173584,0.1875,-0.984375,-0.171875
83,83,1727875509941,-0.028564453,-0.5952759,0.8505249,-0.1875,-0.828125,0.03125
84,84,1727875509981,-0.018066406,-0.5947876,0.8468628,-1.09375,-0.578125,0.03125
85,85,1727875510021,-0.016601562,-0.5952759,0.8497925,-0.25,-0.9375,0.0
86,86,1727875510061,-0.026611328,-0.59503174,0.8480835,0.046875,-0.984375,0.171875
87,87,1727875510101,-0.02709961,-0.59747314,0.83514404,-0.578125,-0.875,-0.0625
88,88,1727875510141,-0.01953125,-0.5996704,0.85736084,-0.921875,-0.65625,-0.015625
89,89,1727875510181,-0.021240234,-0.5964966,0.8468628,-0.625,-1.015625,0.171875
90,90,1727875510221,-0.027832031,-0.5964966,0.85272217,-0.703125,-1.15625,0.015625
91,91,1727875510261,-0.018554688,-0.59820557,0.8383179,-0.359375,-0.53125,-0.1875
92,92,1727875510301,-0.016113281,-0.59259033,0.84173584,-0.96875,-1.03125,0.140625
93,93,1727875510341,-0.0024414062,-0.5979614,0.854187,-0.59375,-0.734375,-0.34375
94,94,1727875510381,-0.02368164,-0.59503174,0.85076904,-0.09375,-0.984375,0.015625
95,95,1727875510421,-0.023925781,-0.6062622,0.8493042,-0.359375,-0.640625,0.25
96,96,1727875510461,-0.014404297,-0.5928345,0.84906006,-1.28125,-0.609375,-0.28125
97,97,1727875510501,-0.009765625,-0.5911255,0.85491943,-0.484375,-0.703125,0.046875
98,98,1727875510541,-0.019042969,-0.5889282,0.83758545,-0.296875,-0.890625,0.015625
99,99,1727875510581,-0.029296875,-0.59820557,0.8475952,-0.296875,-0.578125,-0.078125
100,100,1727875510621,-0.010498047,-0.58966064,0.8475952,-0.734375,-0.53125,0.078125
101,101,1727875510661,-0.01928711,-0.5979614,0.8444214,-0.09375,-1.03125,-0.078125
102,102,1727875510701,-0.021484375,-0.59625244,0.8473511,-0.203125,-0.84375,-0.1875
103,103,1727875510741,-0.013427734,-0.597229,0.8434448,-0.6875,-0.890625,-0.09375
104,104,1727875510781,-0.011962891,-0.5967407,0.85028076,-0.625,-0.890625,-0.03125
105,105,1727875510821,-0.01977539,-0.5977173,0.84710693,-0.421875,-0.828125,0.015625
106,106,1727875510861,-0.01953125,-0.6013794,0.8456421,-0.703125,-0.796875,-0.1875
107,107,1727875510901,-0.014892578,-0.59698486,0.8497925,-0.671875,-0.78125,-0.015625
108,108,1727875510941,-0.018310547,-0.59503174,0.8485718,-0.640625,-0.828125,-0.109375
109,109,1727875510981,-0.013671875,-0.59869385,0.84710693,-0.65625,-0.921875,-0.078125
110,110,1727875511021,-0.020751953,-0.5964966,0.84710693,-0.5,-0.78125,0.0625
111,111,1727875511061,-0.021972656,-0.59942627,0.8468628,-0.640625,-0.9375,0.046875
112,112,1727875511101,-0.017578125,-0.59576416,0.84368896,-0.265625,-0.59375,-0.046875
113,113,1727875511141,-0.015136719,-0.5964966,0.8383179,-0.5625,-0.984375,-0.125
114,114,1727875511181,-0.012451172,-0.6030884,0.8644409,-0.1875,-0.765625,0.125
115,115,1727875511221,-0.020019531,-0.59161377,0.8439331,-1.5,-1.09375,0.28125
116,116,1727875511261,-0.0146484375,-0.59552,0.8563843,-0.53125,-0.578125,-0.125
117,117,1727875511301,-0.017578125,-0.59576416,0.8517456,-0.0625,-0.875,-0.234375
118,118,1727875511341,-0.031982422,-0.5952759,0.8439331,-0.375,-0.875,0.203125
119,119,1727875511381,-0.026855469,-0.5979614,0.8446655,-0.84375,-0.71875,-0.390625
120,120,1727875511421,-0.011474609,-0.59161377,0.84954834,-1.015625,-0.71875,-0.203125
121,121,1727875511461,-0.010253906,-0.5940552,0.8493042,0.203125,-0.640625,0.09375
122,122,1727875511501,-0.026611328,-0.597229,0.8497925,-0.4375,-1.078125,-0.078125
123,123,1727875511541,-0.011230469,-0.597229,0.84661865,-1.328125,-0.4375,0.0
124,124,1727875511581,-0.016113281,-0.5877075,0.85028076,-0.84375,-0.6875,0.03125
125,125,1727875511621,-0.024414062,-0.5996704,0.8497925,-0.265625,-0.75,-0.15625
126,126,1727875511661,-0.020263672,-0.59332275,0.8497925,-0.46875,-0.75,0.0625
127,127,1727875511701,-0.0107421875,-0.59625244,0.8493042,-0.640625,-1.078125,-0.03125
128,128,1727875511741,-0.020751953,-0.5964966,0.84490967,-0.65625,-0.9375,-0.015625
129,129,1727875511781,-0.016357422,-0.6018677,0.852478,-0.640625,-0.890625,-0.21875
130,130,1727875511821,-0.012451172,-0.5977173,0.8444214,-0.6875,-0.859375,-0.0625
131,131,1727875511861,-0.021972656,-0.5942993,0.85321045,-0.375,-0.796875,0.0
132,132,1727875511901,-0.02368164,-0.6026001,0.8463745,-0.703125,-0.984375,0.109375
133,133,1727875511941,-0.014892578,-0.5940552,0.84002686,-0.5625,-0.75,-0.25
134,134,1727875511981,-0.023925781,-0.5928345,0.8410034,-0.3125,-1.15625,0.0625
135,135,1727875512021,-0.015136719,-0.60040283,0.86273193,0.03125,-0.671875,0.1875
136,136,1727875512061,-0.030029297,-0.58917236,0.84832764,-1.546875,-1.453125,0.15625
137,137,1727875512101,-0.00390625,-0.6013794,0.8529663,-0.40625,-0.34375,-0.34375
138,138,1727875512141,-0.01171875,-0.5881958,0.8463745,-0.53125,-1.3125,-0.1875
139,139,1727875512181,-0.026367188,-0.59942627,0.84295654,-0.34375,-0.875,0.234375
140,140,1727875512221,-0.03100586,-0.5991821,0.8500366,-0.796875,-0.71875,0.0625
141,141,1727875512261,-0.016113281,-0.59088135,0.85076904,-1.203125,-0.9375,-0.125
142,142,1727875512301,-0.0026855469,-0.59039307,0.8497925,-0.15625,-0.65625,-0.21875
143,143,1727875512341,-0.02368164,-0.5918579,0.8500366,-0.640625,-1.078125,0.171875
144,144,1727875512381,-0.025878906,-0.59820557,0.8493042,-0.859375,-0.53125,0.203125
145,145,1727875512421,-0.011474609,-0.59381104,0.8517456,-0.53125,-0.390625,0.0
146,146,1727875512461,-0.016845703,-0.59747314,0.8410034,0.1875,-0.796875,0.34375
147,147,1727875512501,-0.015625,-0.5979614,0.8410034,-0.328125,-0.75,0.3125
148,148,1727875512541,-0.01953125,-0.59259033,0.84173584,-1.234375,-1.078125,-0.046875
149,149,1727875512581,-0.013671875,-0.600647,0.8546753,-0.46875,-0.5625,0.15625
150,150,1727875512621,-0.018554688,-0.5911255,0.8456421,-0.859375,-0.75,0.0
151,151,1727875512661,-0.024658203,-0.5996704,0.8656616,-0.75,-0.890625,0.203125
152,152,1727875512701,-0.022705078,-0.5935669,0.83929443,-0.796875,-0.875,-0.09375
153,153,1727875512741,-0.015380859,-0.5913696,0.8432007,-0.8125,-0.546875,-0.15625
154,154,1727875512781,-0.001953125,-0.59576416,0.85076904,-0.640625,-0.5,-0.1875
155,155,1727875512821,-0.025634766,-0.59820557,0.8463745,-0.3125,-0.828125,0.1875
156,156,1727875512861,-0.01953125,-0.60162354,0.84832764,-0.640625,-0.59375,-0.015625
157,157,1727875512901,-0.016113281,-0.59381104,0.84051514,-0.859375,-0.765625,-0.234375
158,158,1727875512941,-0.004638672,-0.58477783,0.8607788,-0.390625,-0.65625,-0.28125
159,159,1727875512981,-0.012939453,-0.59332275,0.8414917,-0.6875,-0.90625,-0.0625
160,160,1727875513021,-0.022460938,-0.59991455,0.84906006,-0.359375,-0.71875,0.140625
161,161,1727875513061,-0.0056152344,-0.5877075,0.85150146,-0.875,-0.578125,-0.09375
162,162,1727875513101,-0.020507812,-0.59625244,0.8427124,0.1875,-0.9375,0.109375
163,163,1727875513141,-0.020751953,-0.59869385,0.8378296,-0.875,-1.15625,-0.015625
164,164,1727875513181,-0.011474609,-0.5979614,0.8480835,-0.390625,-0.921875,-0.25
165,165,1727875513221,-0.011230469,-0.5886841,0.8397827,-0.625,-1.421875,-0.03125
166,166,1727875513261,-0.019042969,-0.59820557,0.86273193,0.171875,-0.5,0.359375
167,167,1727875513301,-0.026611328,-0.59747314,0.84539795,-1.1875,-0.84375,0.140625
168,168,1727875513341,-0.013183594,-0.5996704,0.85076904,-0.53125,-0.421875,-0.296875
169,169,1727875513381,-0.012939453,-0.59576416,0.85076904,-0.328125,-0.828125,-0.234375
170,170,1727875513421,-0.025390625,-0.59991455,0.8463745,-0.359375,-0.671875,0.078125
171,171,1727875513461,-0.017822266,-0.5947876,0.84539795,-0.84375,-0.484375,-0.109375
172,172,1727875513501,-0.010498047,-0.5960083,0.85369873,-0.765625,-0.703125,-0.3125
173,173,1727875513541,-0.0107421875,-0.597229,0.84588623,0.125,-0.71875,-0.328125
174,174,1727875513581,-0.029296875,-0.598938,0.8517456,-0.5625,-1.125,0.0625
175,175,1727875513621,-0.01586914,-0.60284424,0.8475952,-1.21875,-0.5625,-0.109375
176,176,1727875513661,-0.005126953,-0.5820923,0.8551636,-0.390625,-0.9375,0.09375
177,177,1727875513701,-0.019042969,-0.6013794,0.8512573,0.109375,-1.03125,0.0
178,178,1727875513741,-0.020019531,-0.59381104,0.8475952,-1.21875,-0.859375,0.015625
179,179,1727875513781,-0.015136719,-0.5899048,0.8432007,-0.546875,-0.734375,-0.09375
180,180,1727875513821,-0.018066406,-0.5935669,0.8410034,-0.640625,-1.265625,0.0625
181,181,1727875513861,-0.016357422,-0.5996704,0.8529663,0.21875,-0.484375,-0.125
182,182,1727875513901,-0.021972656,-0.5928345,0.8463745,-1.25,-1.046875,0.078125
183,183,1727875513941,-0.010986328,-0.59698486,0.85369873,-0.53125,-0.65625,-0.296875
184,184,1727875513981,-0.011962891,-0.5979614,0.8554077,-0.484375,-0.953125,-0.078125
185,185,1727875514021,-0.028320312,-0.5952759,0.84783936,-0.390625,-0.78125,0.203125
186,186,1727875514061,-0.01953125,-0.5889282,0.8451538,-0.90625,-0.671875,-0.109375
187,187,1727875514101,-0.011474609,-0.5940552,0.855896,-0.640625,-0.59375,0.0625
188,188,1727875514141,-0.009521484,-0.59332275,0.84783936,0.015625,-0.75,0.015625
189,189,1727875514181,-0.0234375,-0.59869385,0.84417725,-0.390625,-1.140625,0.078125
190,190,1727875514221,-0.015136719,-0.5967407,0.852478,-1.296875,-0.546875,0.09375
191,191,1727875514261,-0.015136719,-0.59259033,0.8456421,-0.375,-0.84375,-0.046875
192,192,1727875514301,-0.017089844,-0.5984497,0.8497925,0.0,-0.75,0.171875
193,193,1727875514341,-0.016845703,-0.5942993,0.83587646,-1.203125,-0.875,-0.15625
194,194,1727875514381,-0.008300781,-0.5984497,0.84832764,-0.328125,-0.578125,-0.234375
195,195,1727875514421,-0.011474609,-0.5940552,0.8468628,-0.5625,-1.265625,0.140625
196,196,1727875514461,-0.030029297,-0.5947876,0.86346436,-0.6875,-0.78125,0.125
197,197,1727875514501,-0.01928711,-0.5923462,0.8373413,-1.140625,-1.109375,-0.078125
198,198,1727875514541,-0.00048828125,-0.59210205,0.8480835,-0.40625,-0.53125,-0.03125
199,199,1727875514581,-0.0107421875,-0.5911255,0.8505249,-0.328125,-0.90625,-0.4375
200,200,1727875514621,-0.024902344,-0.5960083,0.8461304,-0.1875,-1.0625,0.171875
201,201,1727875514661,-0.02368164,-0.60113525,0.8427124,-0.546875,-0.78125,-0.015625
202,202,1727875514701,-0.013916016,-0.59576416,0.8475952,-0.90625,-0.796875,-0.1875
203,203,1727875514741,-0.0017089844,-0.5952759,0.8475952,-0.3125,-0.453125,-0.171875
204,204,1727875514781,-0.020263672,-0.58721924,0.84417725,-0.484375,-1.015625,0.171875
205,205,1727875514821,-0.021972656,-0.59332275,0.84539795,-1.0,-0.640625,0.15625
206,206,1727875514861,-0.011474609,-0.5899048,0.8529663,-0.78125,-0.890625,-0.203125
207,207,1727875514901,-0.015380859,-0.59454346,0.85150146,-0.03125,-0.90625,0.03125
208,208,1727875514941,-0.0126953125,-0.5984497,0.84368896,-0.640625,-0.859375,0.0
209,209,1727875514981,-0.018554688,-0.5911255,0.8463745,-0.359375,-0.765625,-0.046875
210,210,1727875515021,-0.012939453,-0.598938,0.84783936,-0.640625,-0.796875,0.15625
211,211,1727875515061,-0.01171875,-0.5928345,0.8395386,-0.6875,-0.84375,-0.234375
212,212,1727875515101,-0.016601562,-0.59552,0.840271,-0.6875,-1.171875,-0.171875
213,213,1727875515141,-0.021972656,-0.6104126,0.8619995,-0.140625,-0.46875,0.0625
214,214,1727875515181,-0.022949219,-0.59039307,0.84295654,-1.421875,-1.09375,0.203125
215,215,1727875515221,-0.0087890625,-0.5899048,0.8517456,-0.34375,-0.578125,-0.234375
216,216,1727875515261,-0.011230469,-0.5918579,0.8488159,-0.25,-0.734375,-0.25
217,217,1727875515301,-0.026367188,-0.6026001,0.8414917,-0.25,-0.828125,0.375
218,218,1727875515341,-0.016357422,-0.59747314,0.8446655,-0.8125,-0.796875,-0.265625
219,219,1727875515381,-0.00390625,-0.5942993,0.8539429,-0.546875,-0.8125,-0.25
220,220,1727875515421,-0.010009766,-0.5947876,0.8497925,-0.15625,-0.671875,0.046875
221,221,1727875515461,-0.021972656,-0.6013794,0.84832764,-0.359375,-0.984375,-0.0625
222,222,1727875515501,-0.01171875,-0.5923462,0.8497925,-1.1875,-0.609375,0.015625
223,223,1727875515541,-0.013427734,-0.59332275,0.8480835,-0.671875,-0.90625,0.015625
224,224,1727875515581,-0.0234375,-0.6013794,0.840271,-0.21875,-0.921875,-0.078125
225,225,1727875515621,-0.025146484,-0.59381104,0.8451538,-0.703125,-0.796875,-0.140625
226,226,1727875515661,-0.017089844,-0.59381104,0.8505249,-0.5,-0.78125,-0.09375
227,227,1727875515701,-0.01928711,-0.59503174,0.84198,-0.5625,-0.9375,0.046875
228,228,1727875515741,-0.010986328,-0.5935669,0.85369873,-0.59375,-0.578125,-0.140625
229,229,1727875515781,-0.01586914,-0.59625244,0.8432007,-0.921875,-0.984375,-0.0625
230,230,1727875515821,-0.018554688,-0.5928345,0.8439331,-0.921875,-1.484375,-0.375
231,231,1727875515861,-0.014404297,-0.59698486,0.84661865,0.015625,-0.734375,-0.234375
232,232,1727875515901,-0.022949219,-0.5935669,0.8497925,-0.890625,-1.015625,0.28125
233,233,1727875515941,-0.008544922,-0.59625244,0.85028076,-0.15625,-0.4375,-0.359375
234,234,1727875515981,-0.016357422,-0.59332275,0.84198,-0.1875,-0.953125,-0.109375
235,235,1727875516021,-0.022216797,-0.6050415,0.8451538,-0.421875,-0.84375,0.140625
236,236,1727875516061,-0.015380859,-0.59381104,0.8468628,-1.171875,-0.765625,0.015625
237,237,1727875516101,-0.0063476562,-0.5928345,0.85980225,-0.390625,-0.59375,0.078125
238,238,1727875516141,-0.0146484375,-0.5930786,0.84198,-0.25,-0.984375,0.015625
239,239,1727875516181,-0.020019531,-0.59991455,0.8390503,-0.390625,-0.90625,0.140625
240,240,1727875516221,-0.009765625,-0.5942993,0.85150146,-1.171875,-0.84375,0.03125
241,241,1727875516261,-0.016845703,-0.5952759,0.84661865,-0.25,-0.984375,0.078125
242,242,1727875516301,-0.0126953125,-0.59942627,0.8439331,-0.296875,-0.890625,0.21875
243,243,1727875516341,-0.009521484,-0.59552,0.8422241,-1.03125,-0.65625,0.171875
244,244,1727875516381,-0.014404297,-0.59625244,0.8480835,-0.421875,-0.90625,0.0
245,245,1727875516421,-0.015136719,-0.5977173,0.8571167,-0.59375,-0.1875,0.53125
246,246,1727875516461,-0.008056641,-0.5906372,0.83807373,-0.9375,-0.671875,-0.046875
247,247,1727875516501,-0.013671875,-0.5918579,0.8410034,-0.5625,-0.78125,0.265625
248,248,1727875516541,-0.009033203,-0.59698486,0.86053467,0.0,-0.09375,0.34375
249,249,1727875516581,-0.018066406,-0.59210205,0.8378296,-1.1875,-1.234375,0.34375
250,250,1727875516621,-0.009033203,-0.59332275,0.85491943,-0.34375,-0.609375,0.078125
251,251,1727875516661,-0.013427734,-0.59820557,0.8473511,-0.53125,-1.046875,-0.125
252,252,1727875516701,-0.020263672,-0.59747314,0.8480835,-0.328125,-0.875,0.40625
253,253,1727875516741,-0.017578125,-0.59991455,0.8485718,-0.1875,-0.71875,-0.140625
254,254,1727875516781,-0.013916016,-0.59210205,0.8578491,-0.4375,-0.359375,0.03125
255,255,1727875516821,0.0021972656,-0.6001587,0.8493042,-0.078125,-0.78125,-0.078125
256,256,1727875516861,-0.022216797,-0.5906372,0.8488159,-0.4375,-0.953125,0.25
257,257,1727875516901,-0.008300781,-0.5940552,0.84539795,-0.796875,-0.53125,0.03125
258,258,1727875516941,-0.009277344,-0.59869385,0.8422241,-0.109375,-1.0,0.0625
259,259,1727875516981,-0.017822266,-0.6033325,0.8512573,-0.171875,-0.75,0.109375
260,260,1727875517021,-0.013671875,-0.6018677,0.8383179,-0.5,-0.734375,-0.078125
261,261,1727875517061,-0.009033203,-0.6030884,0.8563843,-0.5,-0.6875,0.15625
262,262,1727875517101,-0.012207031,-0.59625244,0.8361206,-0.796875,-1.1875,0.0625
263,263,1727875517141,-0.011474609,-0.5977173,0.83709717,-0.546875,-0.984375,-0.171875
264,264,1727875517181,0.0053710938,-0.6013794,0.86224365,0.171875,-0.25,-0.25
265,265,1727875517221,-0.014160156,-0.5901489,0.8356323,-0.75,-1.109375,0.109375
266,266,1727875517261,-0.001953125,-0.5964966,0.8546753,-0.28125,-0.796875,-0.265625
267,267,1727875517301,-0.0126953125,-0.59698486,0.854187,-0.078125,-1.171875,-0.203125
268,268,1727875517341,-0.020751953,-0.59991455,0.84173584,-0.390625,-0.75,0.171875
269,269,1727875517381,-0.0107421875,-0.6045532,0.85076904,-0.203125,-0.609375,-0.09375
270,270,1727875517421,-0.0056152344,-0.59454346,0.8444214,-0.75,-0.546875,-0.078125
271,271,1727875517461,-0.0061035156,-0.59625244,0.8517456,-0.15625,-0.4375,-0.171875
272,272,1727875517501,-0.017578125,-0.5952759,0.8493042,-0.46875,-0.71875,-0.03125
273,273,1727875517541,-0.009033203,-0.600647,0.8461304,-0.75,-0.28125,0.09375
274,274,1727875517581,-0.009033203,-0.5923462,0.8395386,-0.375,-0.5625,-0.125
275,275,1727875517621,-0.009277344,-0.600647,0.8485718,0.015625,-0.4375,-0.140625
276,276,1727875517661,-0.011474609,-0.60284424,0.8307495,-0.390625,-0.671875,-0.15625
277,277,1727875517701,-0.0031738281,-0.6026001,0.855896,-0.703125,-0.484375,-0.0625
278,278,1727875517741,-0.010498047,-0.60479736,0.8434448,-0.953125,-0.78125,0.03125
279,279,1727875517781,-0.022460938,-0.5940552,0.8395386,-0.734375,-0.8125,-0.015625
280,280,1727875517821,-0.0031738281,-0.597229,0.8434448,-0.21875,-0.53125,-0.40625
281,281,1727875517861,-0.008544922,-0.59820557,0.83465576,-1.203125,-0.953125,0.25
282,282,1727875517901,0.0017089844,-0.6050415,0.8546753,-0.734375,-0.375,-0.3125
283,283,1727875517941,-0.011474609,-0.5952759,0.8390503,-0.078125,-0.921875,-0.015625
284,284,1727875517981,-0.017822266,-0.5996704,0.8397827,-0.421875,-0.703125,0.1875
285,285,1727875518021,-0.0075683594,-0.60235596,0.84173584,-0.984375,-0.59375,-0.1875
286,286,1727875518061,-0.0026855469,-0.5947876,0.8551636,-0.703125,-0.546875,0.078125
287,287,1727875518101,-0.0063476562,-0.59381104,0.8390503,-0.140625,-1.21875,-0.0625
288,288,1727875518141,-0.017822266,-0.6045532,0.84539795,-0.5625,-0.984375,-0.078125
289,289,1727875518181,-0.00390625,-0.59747314,0.8434448,-1.015625,-0.5,0.109375
290,290,1727875518221,-0.0043945312,-0.5952759,0.8410034,-0.265625,-0.703125,-0.125
291,291,1727875518261,-0.012451172,-0.60162354,0.8493042,-0.28125,-0.734375,-0.0625
292,292,1727875518301,-0.011474609,-0.5952759,0.82806396,-0.90625,-0.96875,0.03125
293,293,1727875518341,-0.012451172,-0.59991455,0.84832764,-0.375,-0.578125,-0.09375
294,294,1727875518381,-0.0048828125,-0.5964966,0.8517456,-1.0,-0.59375,0.09375
295,295,1727875518421,-0.009521484,-0.5984497,0.8546753,-0.84375,-0.796875,0.25
296,296,1727875518461,-0.01586914,-0.60040283,0.8341675,-0.421875,-0.859375,0.0
297,297,1727875518501,-0.00390625,-0.5923462,0.8468628,-1.109375,-0.703125,0.125
298,298,1727875518541,0.0034179688,-0.6001587,0.84954834,-0.375,-0.71875,-0.203125
299,299,1727875518581,-0.014892578,-0.5935669,0.8427124,-0.125,-0.96875,0.0
300,300,1727875518621,-0.018798828,-0.60162354,0.84710693,-0.40625,-0.59375,0.140625
301,301,1727875518661,-0.0048828125,-0.5991821,0.8468628,-0.90625,-0.671875,-0.171875
302,302,1727875518701,-0.00048828125,-0.6030884,0.8534546,-0.46875,-0.515625,-0.03125
303,303,1727875518741,-0.011474609,-0.5960083,0.8407593,-0.265625,-1.109375,-0.0625
304,304,1727875518781,-0.012939453,-0.6045532,0.840271,-0.53125,-0.625,-0.046875
305,305,1727875518821,-0.0048828125,-0.59747314,0.84783936,-0.90625,-0.515625,-0.0625
306,306,1727875518861,-0.0078125,-0.5942993,0.84173584,-0.203125,-0.84375,-0.015625
307,307,1727875518901,-0.009765625,-0.6008911,0.8473511,-0.140625,-0.890625,-0.03125
308,308,1727875518941,-0.014404297,-0.59552,0.8414917,-1.078125,-0.890625,-0.03125
309,309,1727875518981,-0.0031738281,-0.5930786,0.8475952,-0.3125,-0.671875,-0.15625
310,310,1727875519021,-0.0053710938,-0.6013794,0.85491943,-0.734375,-0.734375,-0.0625
311,311,1727875519061,-0.014892578,-0.5928345,0.84539795,-1.046875,-0.875,0.078125
312,312,1727875519101,-0.009765625,-0.5979614,0.83807373,-0.375,-0.609375,0.015625
313,313,1727875519141,-0.0043945312,-0.59454346,0.8493042,-0.921875,-0.65625,0.1875
314,314,1727875519181,0.0053710938,-0.5930786,0.85491943,-0.515625,-0.453125,-0.296875
315,315,1727875519221,-0.0041503906,-0.5984497,0.8432007,-0.265625,-0.9375,0.03125
316,316,1727875519261,-0.014160156,-0.60040283,0.84417725,-0.421875,-0.75,0.0625
317,317,1727875519301,-0.0068359375,-0.59503174,0.84368896,-0.8125,-0.765625,-0.265625
318,318,1727875519341,0.0043945312,-0.5996704,0.8517456,-0.4375,-0.59375,-0.109375
319,319,1727875519381,-0.0107421875,-0.5935669,0.8317261,-0.21875,-0.953125,-0.109375
320,320,1727875519421,-0.014404297,-0.60357666,0.84539795,-0.328125,-0.6875,0.0
321,321,1727875519461,0.00048828125,-0.5889282,0.84661865,-0.875,-0.5625,0.03125
322,322,1727875519501,-0.0075683594,-0.59820557,0.8434448,0.0,-0.828125,0.046875
323,323,1727875519541,-0.014892578,-0.60357666,0.8451538,-0.484375,-0.65625,0.015625
324,324,1727875519581,-0.010986328,-0.59820557,0.8344116,-0.75,-0.859375,0.03125
325,325,1727875519621,-0.011230469,-0.59869385,0.8512573,-0.484375,-0.65625,-0.015625
326,326,1727875519661,-0.0031738281,-0.598938,0.8493042,-0.875,-0.796875,-0.0625
327,327,1727875519701,-0.012939453,-0.59747314,0.84173584,-0.875,-0.96875,0.046875
328,328,1727875519741,-0.00390625,-0.5996704,0.8422241,-0.203125,-0.6875,-0.15625
329,329,1727875519781,-0.009033203,-0.5928345,0.84832764,-1.203125,-0.953125,0.1875
330,330,1727875519821,-0.0009765625,-0.59747314,0.8500366,-0.296875,-0.65625,-0.171875
331,331,1727875519861,-0.00390625,-0.5911255,0.8444214,-0.40625,-1.015625,-0.0625
332,332,1727875519901,-0.016845703,-0.6030884,0.8390503,-0.375,-0.8125,0.28125
333,333,1727875519941,-0.009765625,-0.5967407,0.84173584,-0.6875,-0.859375,-0.125
334,334,1727875519981,-0.001953125,-0.6001587,0.854187,-0.625,-0.53125,-0.328125
335,335,1727875520021,-0.005859375,-0.59210205,0.8397827,-0.359375,-0.828125,-0.09375
336,336,1727875520061,-0.016113281,-0.5967407,0.84661865,-0.328125,-0.765625,0.171875
337,337,1727875520101,-0.0021972656,-0.5940552,0.8432007,-1.09375,-0.796875,0.078125
338,338,1727875520141,0.0017089844,-0.59332275,0.8473511,-0.4375,-0.84375,0.03125
339,339,1727875520181,-0.012207031,-0.59552,0.8493042,-0.265625,-0.78125,-0.125
340,340,1727875520221,-0.012207031,-0.59454346,0.836853,-0.75,-0.84375,-0.015625
341,341,1727875520261,-0.00390625,-0.5960083,0.85443115,-0.625,-0.796875,-0.171875
342,342,1727875520301,-0.0068359375,-0.59503174,0.8475952,-0.640625,-0.84375,0.109375
343,343,1727875520341,-0.009765625,-0.59942627,0.8373413,-0.828125,-1.109375,-0.09375
344,344,1727875520381,-0.007080078,-0.60235596,0.83880615,0.375,-0.484375,-0.265625
345,345,1727875520421,-0.008544922,-0.59869385,0.84246826,-1.25,-1.015625,0.34375
346,346,1727875520461,-0.0007324219,-0.60406494,0.8512573,-0.296875,-0.515625,-0.46875
347,347,1727875520501,-0.010498047,-0.58966064,0.84490967,-0.375,-0.671875,-0.140625
348,348,1727875520541,-0.01586914,-0.6030884,0.8468628,-0.375,-0.984375,0.015625
349,349,1727875520581,-0.0078125,-0.60284424,0.83880615,-0.734375,-0.828125,-0.15625
350,350,1727875520621,-0.0014648438,-0.59454346,0.8480835,-0.828125,-0.6875,-0.015625
351,351,1727875520661,-0.0061035156,-0.59625244,0.8432007,-0.46875,-1.125,-0.125
352,352,1727875520701,-0.018554688,-0.5996704,0.8475952,-0.328125,-1.15625,0.21875
353,353,1727875520741,-0.0021972656,-0.5935669,0.8497925,-1.15625,-1.140625,0.09375
354,354,1727875520781,-0.0061035156,-0.59259033,0.8456421,-0.3125,-0.6875,-0.1875
355,355,1727875520821,-0.0126953125,-0.60479736,0.8534546,-0.515625,-0.9375,0.09375
356,356,1727875520861,-0.011962891,-0.58917236,0.8422241,-0.78125,-1.1875,0.125
357,357,1727875520901,-0.0007324219,-0.59332275,0.85858154,-0.296875,-0.75,-0.015625
358,358,1727875520941,-0.009277344,-0.597229,0.84710693,-0.84375,-0.78125,0.203125
359,359,1727875520981,-0.021972656,-0.5947876,0.8432007,-1.09375,-1.03125,0.296875
360,360,1727875521021,-0.0056152344,-0.60113525,0.84002686,-0.09375,-1.0625,-0.203125
361,361,1727875521061,-0.006591797,-0.5967407,0.84783936,-1.390625,-0.6875,0.484375
362,362,1727875521101,0.0078125,-0.59259033,0.8505249,-0.4375,-0.84375,-0.03125
363,363,1727875521141,-0.0048828125,-0.5942993,0.83880615,-0.125,-0.90625,0.046875
364,364,1727875521181,-0.016357422,-0.59698486,0.8475952,-0.765625,-0.671875,0.75
365,365,1727875521221,-0.010986328,-0.59991455,0.8410034,-0.4375,-1.046875,0.078125
366,366,1727875521261,-0.00390625,-0.6001587,0.8493042,-0.5,-0.4375,0.078125
367,367,1727875521301,-0.007080078,-0.5911255,0.84246826,-0.15625,-1.265625,-0.046875
368,368,1727875521341,-0.010986328,-0.59698486,0.8488159,-0.140625,-0.578125,0.46875
369,369,1727875521381,0.0061035156,-0.59454346,0.8493042,-0.4375,-0.71875,-0.09375
370,370,1727875521421,-0.0061035156,-0.5952759,0.8463745,-0.171875,-0.90625,0.3125
371,371,1727875521461,-0.0073242188,-0.6013794,0.8414917,-0.3125,-0.671875,-0.09375
372,372,1727875521501,-0.0048828125,-0.5984497,0.84783936,-0.828125,-0.484375,-0.03125
373,373,1727875521541,0.0014648438,-0.5952759,0.8361206,-0.59375,-0.875,0.0
374,374,1727875521581,-0.0021972656,-0.59454346,0.83514404,-0.609375,-0.984375,0.0
375,375,1727875521621,-0.008544922,-0.60162354,0.85614014,-0.21875,-0.328125,0.109375
376,376,1727875521661,-0.0034179688,-0.5899048,0.84368896,-1.28125,-0.96875,0.03125
377,377,1727875521701,0.0041503906,-0.5918579,0.8485718,-0.796875,-0.78125,-0.3125
378,378,1727875521741,-0.008300781,-0.60650635,0.852478,-0.078125,-1.234375,-0.234375
379,379,1727875521781,-0.013916016,-0.5979614,0.8500366,-0.453125,-0.546875,0.15625
380,380,1727875521821,-0.00390625,-0.59161377,0.85198975,-0.375,-0.796875,-0.15625
381,381,1727875521861,0.0012207031,-0.6001587,0.8517456,-0.5625,-0.28125,-0.046875
382,382,1727875521901,-0.0024414062,-0.6001587,0.83880615,0.265625,-0.96875,-0.140625
383,383,1727875521941,-0.013671875,-0.60406494,0.84539795,-0.546875,-0.984375,0.09375
384,384,1727875521981,-0.0036621094,-0.60528564,0.8500366,-0.671875,-0.53125,0.0625
385,385,1727875522021,-0.0021972656,-0.5911255,0.8475952,-0.28125,-0.84375,-0.171875
386,386,1727875522061,-0.0029296875,-0.6021118,0.8373413,0.0,-0.9375,-0.171875
387,387,1727875522101,-0.0061035156,-0.600647,0.8551636,-0.78125,-0.578125,0.125
388,388,1727875522141,-0.0036621094,-0.60284424,0.83880615,-0.578125,-0.625,0.046875
389,389,1727875522181,-0.013671875,-0.5913696,0.83636475,-0.390625,-0.984375,-0.21875
390,390,1727875522221,-0.009765625,-0.60235596,0.84539795,-0.03125,-0.578125,-0.171875
391,391,1727875522261,-0.0068359375,-0.60235596,0.84246826,-1.078125,-0.96875,-0.03125
392,392,1727875522301,0.0029296875,-0.600647,0.85028076,-0.265625,-0.34375,-0.234375
393,393,1727875522341,-0.005126953,-0.5996704,0.84832764,0.34375,-0.703125,-0.21875
394,394,1727875522381,-0.0126953125,-0.600647,0.84002686,-0.75,-0.546875,0.171875
395,395,1727875522421,-0.0021972656,-0.5940552,0.84368896,-0.390625,-0.21875,-0.234375
396,396,1727875522461,-0.00048828125,-0.6021118,0.84661865,-0.671875,-0.390625,-0.0625
397,397,1727875522501,-0.0043945312,-0.59747314,0.83343506,-0.203125,-1.09375,-0.15625
398,398,1727875522541,-0.013916016,-0.6067505,0.8505249,-0.453125,-0.71875,-0.0625
399,399,1727875522581,0.0043945312,-0.59942627,0.8432007,-0.953125,-0.453125,0.046875
400,400,1727875522621,-0.0021972656,-0.60113525,0.84198,-0.015625,-0.796875,-0.09375
401,401,1727875522661,-0.010253906,-0.6079712,0.8397827,-0.28125,-0.84375,-0.234375
402,402,1727875522701,-0.0017089844,-0.6057739,0.83807373,-1.1875,-0.484375,-0.046875
403,403,1727875522741,0.00024414062,-0.5979614,0.8451538,-0.5625,-0.765625,-0.1875
404,404,1727875522781,-0.009521484,-0.597229,0.8617554,-0.921875,-0.625,0.3125
405,405,1727875522821,-0.010009766,-0.5967407,0.83026123,-0.671875,-0.984375,-0.015625
406,406,1727875522861,0.007080078,-0.6033325,0.8427124,-1.390625,-0.8125,-0.203125
407,407,1727875522901,0.010253906,-0.60284424,0.85321045,-0.421875,-1.203125,-0.375
408,408,1727875522941,-0.008300781,-0.59869385,0.84051514,-0.234375,-0.859375,0.03125
409,409,1727875522981,-0.010498047,-0.59625244,0.85028076,-0.453125,-0.546875,-0.03125
410,410,1727875523021,-0.0048828125,-0.6043091,0.8461304,-0.53125,-0.5,-0.140625
411,411,1727875523061,0.0012207031,-0.598938,0.84198,-0.390625,-0.828125,-0.046875
412,412,1727875523101,-0.012939453,-0.5991821,0.84002686,-0.703125,-0.953125,0.125
413,413,1727875523141,-0.0053710938,-0.6021118,0.84368896,-0.6875,-0.484375,0.171875
414,414,1727875523181,0.0009765625,-0.59210205,0.84832764,-0.546875,-0.5625,-0.078125
415,415,1727875523221,-0.008300781,-0.6033325,0.8510132,0.03125,-0.671875,0.0625
416,416,1727875523261,-0.0034179688,-0.6050415,0.83270264,-0.703125,-1.03125,-0.03125
417,417,1727875523301,-0.00048828125,-0.6033325,0.8434448,-0.671875,-0.625,-0.125
418,418,1727875523341,0.0007324219,-0.59747314,0.83758545,-0.625,-1.09375,-0.015625
419,419,1727875523381,-0.0053710938,-0.612854,0.85491943,-0.03125,-0.484375,-0.1875
420,420,1727875523421,-0.011230469,-0.6043091,0.83514404,-1.53125,-1.15625,0.1875
421,421,1727875523461,0.012939453,-0.59332275,0.85321045,-1.0625,-0.4375,-0.09375
422,422,1727875523501,0.006591797,-0.6021118,0.83807373,-0.21875,-0.9375,-0.15625
423,423,1727875523541,-0.0126953125,-0.60406494,0.8432007,-0.578125,-1.0625,0.25
424,424,1727875523581,-0.0073242188,-0.6050415,0.83758545,-0.40625,-0.546875,-0.125
425,425,1727875523621,0.004638672,-0.6030884,0.84710693,-0.828125,-0.328125,0.0
426,426,1727875523661,0.0021972656,-0.60357666,0.84368896,-0.421875,-1.0625,-0.0625
427,427,1727875523701,-0.018798828,-0.6079712,0.8439331,-0.578125,-0.859375,0.109375
428,428,1727875523741,-0.0026855469,-0.60357666,0.8446655,-1.328125,-0.78125,0.28125
429,429,1727875523781,0.009277344,-0.59698486,0.8534546,-0.515625,-0.765625,0.0
430,430,1727875523821,-0.005859375,-0.60650635,0.8432007,-0.09375,-0.78125,0.015625
431,431,1727875523861,0.0024414062,-0.5979614,0.84198,-1.15625,-0.765625,-0.0625
432,432,1727875523901,0.0075683594,-0.59552,0.8422241,-0.515625,-0.546875,-0.1875
433,433,1727875523941,0.0026855469,-0.6043091,0.8348999,-0.375,-1.109375,-0.078125
434,434,1727875523981,-0.0026855469,-0.61065674,0.8583374,-0.1875,-0.53125,-0.359375
435,435,1727875524021,-0.0063476562,-0.59869385,0.84051514,-1.65625,-1.15625,0.15625
436,436,1727875524061,0.01171875,-0.5984497,0.85150146,-0.9375,-0.5,-0.09375
437,437,1727875524101,-0.005126953,-0.60235596,0.84246826,-0.1875,-1.0625,-0.171875
438,438,1727875524141,-0.014892578,-0.6013794,0.84661865,-0.484375,-0.765625,0.25
439,439,1727875524181,-0.0043945312,-0.60406494,0.8383179,-0.609375,-0.453125,-0.171875
440,440,1727875524221,0.0053710938,-0.5940552,0.84832764,-0.546875,-0.53125,-0.046875
441,441,1727875524261,-0.0012207031,-0.5991821,0.8451538,-0.078125,-0.953125,-0.140625
442,442,1727875524301,-0.013427734,-0.6033325,0.8422241,-0.625,-0.8125,0.09375
443,443,1727875524341,0.0061035156,-0.5913696,0.84661865,-1.203125,-0.453125,0.171875
444,444,1727875524381,0.0024414062,-0.5964966,0.84661865,-0.40625,-0.828125,0.046875
445,445,1727875524421,-0.0034179688,-0.600647,0.84832764,-0.046875,-0.875,-0.03125
446,446,1727875524461,-0.009521484,-0.5952759,0.8275757,-0.84375,-1.03125,-0.046875
447,447,1727875524501,0.0007324219,-0.60235596,0.84832764,-0.4375,-0.546875,-0.21875
448,448,1727875524541,0.0024414062,-0.6067505,0.84783936,-0.78125,-1.03125,0.15625
449,449,1727875524581,-0.010009766,-0.6001587,0.85321045,-0.859375,-0.8125,0.078125
450,450,1727875524621,-0.0063476562,-0.5960083,0.8290405,-0.6875,-0.859375,-0.09375
451,451,1727875524661,-0.0029296875,-0.59210205,0.8500366,-0.890625,-0.484375,-0.078125
452,452,1727875524701,0.008300781,-0.5911255,0.8534546,-0.375,-0.90625,-0.359375
453,453,1727875524741,-0.012939453,-0.60113525,0.84002686,-0.15625,-1.0,0.109375
454,454,1727875524781,-0.012451172,-0.6030884,0.8446655,-0.5625,-0.71875,0.03125
455,455,1727875524821,-0.001953125,-0.59820557,0.84124756,-0.8125,-0.8125,-0.21875
456,456,1727875524861,0.011962891,-0.60162354,0.85614014,-0.078125,-0.78125,-0.046875
457,457,1727875524901,-0.005126953,-0.5928345,0.83514404,-0.828125,-1.09375,-0.0625
458,458,1727875524941,-0.00390625,-0.5991821,0.8434448,-0.71875,-0.6875,-0.15625
459,459,1727875524981,0.010986328,-0.59747314,0.8434448,-0.84375,-0.796875,0.109375
460,460,1727875525021,-0.006591797,-0.6045532,0.8468628,0.203125,-0.921875,-0.046875
461,461,1727875525061,-0.01171875,-0.60235596,0.8451538,-0.25,-0.96875,0.09375
462,462,1727875525101,-0.0041503906,-0.60040283,0.8439331,-1.125,-1.234375,0.0
463,463,1727875525141,0.00048828125,-0.60235596,0.84002686,-0.5,-1.046875,-0.046875
464,464,1727875525181,-0.0041503906,-0.5952759,0.8397827,-0.625,-1.203125,0.03125
465,465,1727875525221,-0.0009765625,-0.61260986,0.85443115,-0.15625,-0.4375,-0.078125
466,466,1727875525261,-0.0041503906,-0.60040283,0.83587646,-1.53125,-1.078125,0.21875
467,467,1727875525301,0.009033203,-0.59820557,0.85491943,-0.296875,-0.625,-0.375
468,468,1727875525341,0.0031738281,-0.60040283,0.8427124,-0.390625,-1.078125,-0.34375
469,469,1727875525381,-0.017822266,-0.5996704,0.84002686,-0.125,-0.734375,0.125
470,470,1727875525421,-0.008056641,-0.597229,0.84490967,-0.390625,-0.46875,-0.28125
471,471,1727875525461,0.0024414062,-0.5979614,0.8505249,-0.421875,-0.5625,0.03125
472,472,1727875525501,0.005126953,-0.6008911,0.838562,-0.203125,-0.921875,-0.140625
473,473,1727875525541,-0.0007324219,-0.6018677,0.8444214,-0.59375,-0.90625,0.0625
474,474,1727875525581,0.001953125,-0.5984497,0.8434448,-1.28125,-0.796875,0.03125
475,475,1727875525621,-0.004638672,-0.59698486,0.84124756,-0.359375,-0.796875,-0.140625
476,476,1727875525661,-0.001953125,-0.6069946,0.8480835,-0.40625,-0.78125,-0.03125
477,477,1727875525701,-0.00048828125,-0.60406494,0.838562,-1.046875,-0.890625,0.046875
478,478,1727875525741,0.001953125,-0.60162354,0.84906006,0.078125,-0.703125,-0.28125
479,479,1727875525781,-0.00048828125,-0.5977173,0.84246826,-0.9375,-1.3125,0.09375
480,480,1727875525821,-0.009277344,-0.60723877,0.85491943,-0.953125,-0.8125,0.078125
481,481,1727875525861,-0.0048828125,-0.598938,0.8331909,-0.625,-0.984375,0.203125
482,482,1727875525901,0.007080078,-0.59942627,0.8505249,-1.0,-0.578125,-0.03125
483,483,1727875525941,0.010986328,-0.5967407,0.8485718,-0.4375,-0.765625,-0.28125
484,484,1727875525981,-0.010253906,-0.59942627,0.8353882,-0.21875,-1.15625,0.234375
485,485,1727875526021,-0.013427734,-0.6033325,0.84368896,-0.734375,-0.671875,0.0
486,486,1727875526061,0.0029296875,-0.59820557,0.84295654,-0.9375,-0.90625,-0.375
487,487,1727875526101,0.013427734,-0.6013794,0.85198975,-0.078125,-0.71875,0.09375
488,488,1727875526141,-0.0034179688,-0.5991821,0.8331909,-0.46875,-0.828125,0.28125
489,489,1727875526181,-0.013671875,-0.60650635,0.8378296,-1.015625,-0.65625,0.0
490,490,1727875526221,0.0063476562,-0.58843994,0.8488159,-0.703125,-0.75,0.015625
491,491,1727875526261,-0.0017089844,-0.6069946,0.8473511,0.203125,-1.0625,0.0
492,492,1727875526301,-0.008544922,-0.6001587,0.8390503,-0.9375,-1.109375,-0.03125
493,493,1727875526341,-0.0017089844,-0.60479736,0.8473511,-0.484375,-0.765625,-0.09375
494,494,1727875526381,-0.0007324219,-0.60040283,0.8434448,-0.734375,-1.453125,0.28125
495,495,1727875526421,-0.0041503906,-0.60284424,0.8600464,-0.46875,-0.625,0.09375
496,496,1727875526461,-0.012207031,-0.59747314,0.8361206,-1.4375,-1.109375,-0.046875
497,497,1727875526501,0.009033203,-0.5977173,0.85272217,-0.40625,-0.65625,-0.171875
498,498,1727875526541,-0.005126953,-0.597229,0.84783936,-0.1875,-1.40625,-0.28125
499,499,1727875526581,-0.009033203,-0.6018677,0.8383179,-0.71875,-1.21875,0.15625
500,500,1727875526621,-0.008056641,-0.6026001,0.8444214,-0.546875,-0.875,-0.140625
501,501,1727875526661,0.0,-0.5979614,0.84588623,-0.765625,-0.984375,-0.15625
502,502,1727875526701,0.0068359375,-0.5967407,0.85369873,-0.125,-0.578125,0.09375
503,503,1727875526741,-0.017333984,-0.597229,0.84954834,-0.71875,-1.15625,0.3125
504,504,1727875526781,-0.0048828125,-0.5906372,0.84417725,-1.265625,-0.65625,0.0625
505,505,1727875526821,0.0031738281,-0.5967407,0.85028076,-0.171875,-0.609375,0.015625
506,506,1727875526861,-0.007080078,-0.6074829,0.8410034,-0.171875,-1.203125,0.078125
507,507,1727875526901,0.0009765625,-0.60040283,0.8407593,-0.890625,-0.828125,-0.078125
508,508,1727875526941,-0.0009765625,-0.600647,0.8439331,-0.46875,-0.859375,-0.078125
509,509,1727875526981,-0.017822266,-0.5942993,0.857605,-1.265625,-0.953125,0.296875
510,510,1727875527021,-0.008544922,-0.597229,0.83880615,-0.40625,-1.234375,-0.25
511,511,1727875527061,-0.0026855469,-0.59381104,0.8480835,-0.65625,-0.71875,0.0625
512,512,1727875527101,0.00048828125,-0.5952759,0.8488159,-0.421875,-1.09375,-0.234375
513,513,1727875527141,-0.012207031,-0.59991455,0.84002686,-0.3125,-0.96875,0.09375
514,514,1727875527181,-0.010986328,-0.5977173,0.8461304,-0.296875,-0.640625,0.0625
515,515,1727875527221,-0.0007324219,-0.59747314,0.8432007,-0.640625,-0.640625,-0.140625
516,516,1727875527261,0.009033203,-0.59747314,0.854187,-0.421875,-0.59375,-0.03125
517,517,1727875527301,-0.013183594,-0.5967407,0.8348999,-0.65625,-0.9375,0.078125
518,518,1727875527341,-0.013183594,-0.5996704,0.8366089,-0.34375,-0.53125,-0.09375
519,519,1727875527381,0.0026855469,-0.600647,0.8451538,-0.4375,-0.671875,-0.03125
520,520,1727875527421,-0.011230469,-0.60162354,0.8475952,0.140625,-1.0,-0.046875
521,521,1727875527461,-0.010986328,-0.60650635,0.83807373,-0.671875,-0.734375,-0.234375
522,522,1727875527501,-0.0017089844,-0.6018677,0.8439331,-0.375,-0.578125,-0.1875
523,523,1727875527541,-0.0078125,-0.59820557,0.83587646,-0.53125,-0.78125,0.015625
524,524,1727875527581,-0.0041503906,-0.5996704,0.84295654,0.171875,-0.390625,-0.1875
525,525,1727875527621,-0.0126953125,-0.60650635,0.83587646,-1.0,-0.921875,0.15625
526,526,1727875527661,0.0043945312,-0.60284424,0.8480835,-1.109375,-0.46875,-0.25
527,527,1727875527701,-0.0043945312,-0.5984497,0.84417725,-0.328125,-0.984375,-0.28125
528,528,1727875527741,-0.023925781,-0.5984497,0.8434448,-0.4375,-0.4375,0.28125
529,529,1727875527781,-0.005859375,-0.6001587,0.8366089,-0.421875,-0.375,-0.203125
530,530,1727875527821,0.00024414062,-0.59747314,0.85614014,-0.59375,-0.265625,-0.125
531,531,1727875527861,0.0029296875,-0.6008911,0.82855225,-0.078125,-1.125,-0.0625
532,532,1727875527901,-0.008300781,-0.60723877,0.8434448,-0.4375,-0.921875,0.109375
533,533,1727875527941,-0.00048828125,-0.59991455,0.8390503,-0.984375,-0.546875,-0.03125
534,534,1727875527981,-0.0026855469,-0.5991821,0.8422241,-0.171875,-0.8125,0.046875
535,535,1727875528021,-0.0024414062,-0.6045532,0.83709717,-0.5,-0.984375,-0.046875
536,536,1727875528061,-0.0041503906,-0.60650635,0.8439331,-0.875,-0.625,-0.09375
537,537,1727875528101,0.0063476562,-0.5979614,0.85150146,-0.75,-0.671875,-0.09375
538,538,1727875528141,-0.013183594,-0.59869385,0.8607788,-0.71875,-0.578125,0.015625
539,539,1727875528181,-0.008300781,-0.60040283,0.8324585,-0.8125,-0.953125,0.03125
540,540,1727875528221,0.0061035156,-0.6018677,0.8510132,-1.015625,-0.765625,0.015625
541,541,1727875528261,0.011962891,-0.6021118,0.85076904,-0.359375,-0.9375,-0.390625
542,542,1727875528301,-0.008544922,-0.60357666,0.83929443,-0.5,-0.90625,0.25
543,543,1727875528341,-0.010253906,-0.6018677,0.8461304,-0.34375,-0.46875,0.15625
544,544,1727875528381,-0.0026855469,-0.6026001,0.84173584,-0.84375,-0.484375,-0.140625
545,545,1727875528421,0.008056641,-0.60040283,0.84539795,-0.421875,-0.4375,0.078125
546,546,1727875528461,-0.0063476562,-0.5996704,0.8395386,-0.75,-0.921875,-0.03125
547,547,1727875528501,-0.0056152344,-0.5979614,0.8407593,-0.96875,-0.640625,0.125
548,548,1727875528541,0.008056641,-0.59576416,0.8461304,-0.46875,-0.71875,-0.09375
549,549,1727875528581,0.0031738281,-0.6043091,0.84710693,-0.015625,-0.6875,0.21875
550,550,1727875528621,-0.0017089844,-0.600647,0.83636475,-0.21875,-1.171875,-0.046875
551,551,1727875528661,0.00390625,-0.60601807,0.8473511,-0.796875,-0.578125,-0.015625
552,552,1727875528701,0.0012207031,-0.5960083,0.8500366,-0.890625,-0.609375,0.078125
553,553,1727875528741,-0.0146484375,-0.60284424,0.85736084,-0.6875,-0.890625,0.0
554,554,1727875528781,-0.005859375,-0.6018677,0.82806396,-0.53125,-1.09375,-0.1875
555,555,1727875528821,0.001953125,-0.597229,0.8390503,-1.03125,-0.796875,0.078125
556,556,1727875528861,0.011962891,-0.59454346,0.85028076,-0.359375,-0.734375,-0.34375
557,557,1727875528901,-0.008300781,-0.6091919,0.83807373,-0.296875,-0.78125,0.140625
558,558,1727875528941,-0.0021972656,-0.6055298,0.84539795,-0.609375,-0.5,0.0625
559,559,1727875528981,-0.0048828125,-0.59991455,0.84198,-0.734375,-0.765625,-0.265625
560,560,1727875529021,0.010009766,-0.60357666,0.8475952,-0.3125,-0.546875,0.0625
561,561,1727875529061,-0.011962891,-0.5979614,0.84198,-0.6875,-1.046875,0.0625
562,562,1727875529101,-0.0029296875,-0.6038208,0.8395386,-0.734375,-0.421875,0.0625
563,563,1727875529141,0.010986328,-0.5928345,0.84417725,-0.765625,-0.625,-0.125
564,564,1727875529181,0.0031738281,-0.6018677,0.8434448,0.109375,-0.875,-0.109375
565,565,1727875529221,-0.0063476562,-0.6030884,0.8422241,-0.375,-0.84375,-0.0625
566,566,1727875529261,-0.0007324219,-0.6001587,0.8522339,-1.109375,-0.640625,0.171875
567,567,1727875529301,0.0024414062,-0.5984497,0.8361206,-0.515625,-0.6875,0.0
568,568,1727875529341,-0.009521484,-0.5984497,0.83392334,-0.46875,-1.046875,-0.140625
569,569,1727875529381,-0.005126953,-0.61724854,0.85150146,-0.03125,-0.359375,-0.140625
570,570,1727875529421,-0.0056152344,-0.598938,0.84124756,-1.578125,-1.0,0.484375
571,571,1727875529461,0.009277344,-0.59503174,0.84710693,-0.609375,-0.5625,-0.359375
572,572,1727875529501,-0.0021972656,-0.5991821,0.83880615,-0.078125,-0.90625,-0.34375
573,573,1727875529541,-0.0078125,-0.6057739,0.84661865,-0.59375,-0.78125,0.375
574,574,1727875529581,-0.0029296875,-0.5960083,0.8422241,-0.609375,-0.796875,-0.28125
575,575,1727875529621,0.009521484,-0.60357666,0.8493042,-0.5,-0.484375,-0.046875
576,576,1727875529661,0.0061035156,-0.5964966,0.83929443,-0.09375,-1.015625,-0.0625
577,577,1727875529701,-0.011962891,-0.59820557,0.8446655,-0.59375,-0.9375,0.078125
578,578,1727875529741,0.008056641,-0.59869385,0.85076904,-1.296875,-0.953125,0.03125
579,579,1727875529781,0.0021972656,-0.597229,0.84051514,-0.125,-1.0,-0.109375
580,580,1727875529821,-0.0012207031,-0.612854,0.84417725,-0.328125,-1.0625,-0.1875
581,581,1727875529861,-0.009765625,-0.60357666,0.8336792,-0.921875,-1.140625,0.125
582,582,1727875529901,0.00390625,-0.6055298,0.85150146,-0.21875,-1.0,-0.265625
583,583,1727875529941,-0.0056152344,-0.6021118,0.84661865,-1.03125,-1.328125,0.15625
584,584,1727875529981,-0.011230469,-0.5964966,0.84906006,-0.8125,-0.9375,-0.046875
585,585,1727875530021,-0.0041503906,-0.59332275,0.8295288,-0.359375,-1.28125,-0.015625
586,586,1727875530061,0.0014648438,-0.59869385,0.8473511,-1.296875,-1.0625,0.078125
587,587,1727875530101,0.0078125,-0.6008911,0.85321045,-0.296875,-1.453125,-0.484375
588,588,1727875530141,-0.011230469,-0.59576416,0.84832764,-0.421875,-1.265625,0.09375
589,589,1727875530181,-0.011962891,-0.60406494,0.8451538,-0.65625,-0.578125,0.1875
590,590,1727875530221,0.0041503906,-0.59698486,0.83929443,-0.515625,-0.859375,-0.265625
591,591,1727875530261,0.00024414062,-0.6067505,0.8517456,-0.25,-0.765625,-0.109375
592,592,1727875530301,-0.010009766,-0.59576416,0.8336792,-0.515625,-1.0,-0.109375
593,593,1727875530341,-0.01171875,-0.60528564,0.8410034,-0.28125,-0.796875,0.078125
594,594,1727875530381,0.0048828125,-0.5996704,0.84051514,-0.640625,-0.5,0.015625
595,595,1727875530421,-0.0017089844,-0.6045532,0.84173584,0.03125,-0.796875,-0.09375
596,596,1727875530461,-0.009521484,-0.60479736,0.8395386,-0.046875,-0.828125,0.0
597,597,1727875530501,-0.013183594,-0.6038208,0.8500366,-1.390625,-0.640625,0.203125
598,598,1727875530541,0.005859375,-0.5996704,0.8331909,-0.296875,-0.9375,-0.15625
599,599,1727875530581,-0.009277344,-0.60601807,0.83807373,-0.390625,-0.78125,-0.203125
600,600,1727875530621,-0.0029296875,-0.5977173,0.85809326,-0.34375,-0.5625,0.0
601,601,1727875530661,-0.015380859,-0.60113525,0.83221436,-1.046875,-1.28125,0.15625
602,602,1727875530701,0.009765625,-0.60479736,0.84783936,-0.75,-0.5,-0.359375
603,603,1727875530741,-0.0031738281,-0.600647,0.8444214,-0.015625,-1.046875,-0.25
604,604,1727875530781,-0.017822266,-0.5996704,0.8410034,-0.34375,-0.875,0.015625
605,605,1727875530821,-0.009521484,-0.6043091,0.84173584,-0.203125,-0.46875,-0.03125
606,606,1727875530861,0.00048828125,-0.60357666,0.84490967,-0.546875,-0.671875,-0.140625
607,607,1727875530901,0.0087890625,-0.6084595,0.836853,-0.03125,-0.65625,-0.046875
608,608,1727875530941,-0.017089844,-0.60723877,0.84490967,-0.890625,-0.75,0.265625
609,609,1727875530981,-0.0073242188,-0.6087036,0.8461304,-0.984375,-0.4375,0.21875
610,610,1727875531021,-0.0041503906,-0.5979614,0.84002686,-0.578125,-0.671875,-0.078125
611,611,1727875531061,-0.00024414062,-0.6045532,0.8480835,-0.171875,-0.421875,-0.125
612,612,1727875531101,-0.012939453,-0.6062622,0.82489014,-0.71875,-1.03125,0.078125
613,613,1727875531141,0.0017089844,-0.61065674,0.8480835,-0.359375,-0.46875,-0.265625
614,614,1727875531181,-0.00048828125,-0.6008911,0.84783936,-1.09375,-0.734375,0.09375
615,615,1727875531221,-0.010986328,-0.6026001,0.85614014,-0.4375,-0.734375,-0.15625
616,616,1727875531261,-0.0075683594,-0.60162354,0.82733154,-1.0,-1.125,0.015625
617,617,1727875531301,0.005126953,-0.5984497,0.8432007,-1.234375,-1.0,0.078125
618,618,1727875531341,0.007080078,-0.6099243,0.8488159,-0.390625,-1.171875,-0.375
619,619,1727875531381,-0.008056641,-0.59698486,0.83709717,-0.359375,-0.984375,0.015625
620,620,1727875531421,-0.016845703,-0.6021118,0.83758545,-0.421875,-0.3125,0.171875
621,621,1727875531461,0.0031738281,-0.5996704,0.8446655,-0.640625,-0.53125,-0.25
622,622,1727875531501,0.008544922,-0.60162354,0.8500366,-0.4375,-0.484375,-0.171875
623,623,1727875531541,-0.0146484375,-0.6008911,0.83465576,-0.765625,-0.96875,0.171875
624,624,1727875531581,-0.0048828125,-0.60284424,0.8395386,-0.6875,-0.328125,0.046875
625,625,1727875531621,0.0014648438,-0.5964966,0.83514404,-0.671875,-0.609375,-0.046875
626,626,1727875531661,-0.0024414062,-0.6013794,0.8434448,-0.0625,-0.65625,-0.140625
627,627,1727875531701,-0.0053710938,-0.59991455,0.8397827,-0.296875,-0.921875,0.0625
628,628,1727875531741,-0.0009765625,-0.60235596,0.8485718,-0.9375,-0.546875,0.0
629,629,1727875531781,0.0007324219,-0.5977173,0.8493042,-0.796875,-0.6875,0.046875
630,630,1727875531821,-0.010986328,-0.5979614,0.8356323,-0.640625,-0.984375,0.046875
631,631,1727875531861,0.0012207031,-0.6057739,0.83709717,0.046875,-0.578125,-0.109375
632,632,1727875531901,-0.0021972656,-0.6018677,0.840271,-1.390625,-0.84375,0.109375
633,633,1727875531941,0.017333984,-0.6038208,0.8488159,-0.484375,-0.625,-0.265625
634,634,1727875531981,-0.008056641,-0.6057739,0.84246826,-0.1875,-1.09375,0.03125
635,635,1727875532021,-0.012451172,-0.59942627,0.840271,-0.5625,-0.8125,0.203125
636,636,1727875532061,0.00048828125,-0.5977173,0.840271,-0.59375,-0.703125,-0.21875
637,637,1727875532101,0.010498047,-0.6079712,0.8534546,-0.328125,-0.1875,-0.015625
638,638,1727875532141,-0.0012207031,-0.5940552,0.8336792,-0.125,-1.046875,-0.046875
639,639,1727875532181,-0.0048828125,-0.60406494,0.840271,-0.453125,-0.546875,-0.046875
640,640,1727875532221,0.01171875,-0.5964966,0.84295654,-0.921875,-0.625,0.015625
641,641,1727875532261,-0.0026855469,-0.60894775,0.8475952,-0.234375,-0.9375,-0.015625
642,642,1727875532301,-0.005126953,-0.6084595,0.84198,-0.328125,-0.703125,-0.015625
643,643,1727875532341,-0.00390625,-0.6043091,0.8344116,-1.34375,-0.71875,-0.09375
644,644,1727875532381,0.0026855469,-0.60113525,0.83880615,-0.125,-0.5625,-0.15625
645,645,1727875532421,-0.0007324219,-0.60406494,0.8378296,-0.53125,-0.96875,-0.03125
646,646,1727875532461,-0.005859375,-0.60406494,0.85321045,-0.3125,-0.546875,-0.203125
647,647,1727875532501,-0.009765625,-0.59503174,0.83026123,-1.375,-0.953125,0.25
648,648,1727875532541,0.010009766,-0.6050415,0.8480835,-0.828125,-0.734375,-0.234375
649,649,1727875532581,0.0009765625,-0.60528564,0.838562,-0.125,-1.09375,-0.25
650,650,1727875532621,-0.012939453,-0.60406494,0.8373413,-0.4375,-0.84375,0.40625
651,651,1727875532661,-0.0009765625,-0.5979614,0.8439331,-0.640625,-0.65625,0.03125
652,652,1727875532701,0.008300781,-0.6038208,0.84588623,-0.515625,-0.484375,-0.03125
653,653,1727875532741,0.008300781,-0.5964966,0.8432007,-0.078125,-0.765625,-0.171875
654,654,1727875532781,-0.010253906,-0.6050415,0.8485718,-0.625,-0.90625,0.109375
655,655,1727875532821,-0.0041503906,-0.6008911,0.84295654,-1.15625,-0.875,0.015625
656,656,1727875532861,0.0087890625,-0.59332275,0.8414917,-0.75,-1.03125,-0.125
657,657,1727875532901,-0.0009765625,-0.60528564,0.84661865,-0.28125,-1.125,-0.09375
658,658,1727875532941,-0.004638672,-0.6038208,0.8353882,-0.796875,-1.078125,0.21875
659,659,1727875532981,0.0021972656,-0.6123657,0.8451538,-0.53125,-0.859375,-0.125
660,660,1727875533021,-0.0014648438,-0.598938,0.8461304,-0.96875,-1.09375,0.03125
661,661,1727875533061,-0.013671875,-0.6030884,0.8480835,-0.71875,-0.90625,-0.046875
662,662,1727875533101,-0.00048828125,-0.6084595,0.8287964,-0.75,-1.1875,-0.015625
663,663,1727875533141,0.0063476562,-0.5952759,0.8451538,-0.9375,-1.03125,0.125
664,664,1727875533181,0.008544922,-0.6021118,0.84710693,-0.4375,-1.53125,-0.625
665,665,1727875533221,-0.01586914,-0.60284424,0.8390503,-0.3125,-1.21875,0.015625
666,666,1727875533261,-0.012451172,-0.6057739,0.8463745,-0.515625,-0.71875,0.0625
667,667,1727875533301,-0.0048828125,-0.59698486,0.84002686,-0.5625,-0.734375,-0.078125
668,668,1727875533341,0.0034179688,-0.60113525,0.8588257,-0.296875,-0.609375,0.03125
669,669,1727875533381,-0.012207031,-0.6038208,0.8361206,-0.53125,-0.953125,0.09375
670,670,1727875533421,-0.0048828125,-0.59942627,0.83636475,-0.625,-0.6875,-0.15625
671,671,1727875533461,0.011962891,-0.5977173,0.84124756,-0.59375,-0.6875,0.0
672,672,1727875533501,-0.0043945312,-0.6021118,0.84246826,-0.09375,-1.125,0.125
673,673,1727875533541,-0.001953125,-0.6045532,0.83758545,-0.296875,-1.078125,-0.140625
674,674,1727875533581,-0.0024414062,-0.598938,0.84954834,-1.046875,-0.3125,0.125
675,675,1727875533621,-0.0048828125,-0.5947876,0.8341675,-0.625,-1.03125,-0.03125
676,676,1727875533661,-0.0036621094,-0.60821533,0.8341675,-0.4375,-1.046875,-0.21875
677,677,1727875533701,-0.00390625,-0.61260986,0.85076904,0.28125,-0.671875,-0.125
678,678,1727875533741,-0.0078125,-0.59454346,0.83343506,-1.34375,-1.3125,0.171875
679,679,1727875533781,0.007080078,-0.6045532,0.8529663,-0.421875,-0.71875,-0.28125
680,680,1727875533821,-0.001953125,-0.60528564,0.84588623,-0.265625,-1.078125,-0.234375
681,681,1727875533861,-0.016357422,-0.60772705,0.8383179,-0.5625,-0.78125,0.046875
682,682,1727875533901,-0.0053710938,-0.6026001,0.8407593,-0.171875,-0.609375,-0.046875
683,683,1727875533941,0.0031738281,-0.6045532,0.8446655,-0.453125,-0.375,-0.078125
684,684,1727875533981,-0.0034179688,-0.60113525,0.8336792,0.28125,-1.140625,-0.21875
685,685,1727875534021,-0.01171875,-0.6018677,0.8407593,-0.328125,-0.84375,-0.03125
686,686,1727875534061,0.0021972656,-0.59698486,0.8397827,-0.578125,-0.46875,-0.09375
687,687,1727875534101,0.0031738281,-0.6033325,0.8319702,-0.625,-0.8125,0.125
688,688,1727875534141,-0.0048828125,-0.6104126,0.84295654,-0.078125,-0.671875,-0.046875
689,689,1727875534181,-0.010009766,-0.5977173,0.83099365,-0.921875,-0.734375,0.015625
690,690,1727875534221,0.0021972656,-0.6057739,0.84051514,-0.484375,-0.75,-0.09375
691,691,1727875534261,-0.004638672,-0.6001587,0.83880615,-0.59375,-0.984375,-0.09375
692,692,1727875534301,-0.012207031,-0.60772705,0.85687256,-0.15625,-0.546875,-0.203125
693,693,1727875534341,-0.008544922,-0.59869385,0.82733154,-1.40625,-1.140625,0.25
694,694,1727875534381,0.010498047,-0.59625244,0.8414917,-0.828125,-0.8125,-0.4375
695,695,1727875534421,-0.0053710938,-0.614563,0.8517456,-0.078125,-1.203125,-0.296875
696,696,1727875534461,-0.006591797,-0.5984497,0.83587646,-0.53125,-0.640625,0.359375
697,697,1727875534501,-0.010986328,-0.60650635,0.8390503,-0.609375,-0.59375,-0.09375
698,698,1727875534541,0.0056152344,-0.59991455,0.83929443,-0.6875,-0.546875,-0.03125
699,699,1727875534581,0.00390625,-0.60406494,0.83929443,-0.140625,-0.6875,-0.015625
700,700,1727875534621,-0.013671875,-0.6018677,0.8444214,-0.9375,-0.796875,0.203125
701,701,1727875534661,-0.0012207031,-0.6030884,0.8397827,-0.859375,-0.59375,0.109375
702,702,1727875534701,0.0068359375,-0.59869385,0.840271,-0.4375,-0.734375,-0.03125
703,703,1727875534741,-0.001953125,-0.60943604,0.8378296,-0.328125,-0.640625,-0.046875
704,704,1727875534781,-0.0087890625,-0.59991455,0.8312378,-0.453125,-0.984375,-0.140625
705,705,1727875534821,0.00048828125,-0.6043091,0.8439331,-0.796875,-0.546875,-0.015625
706,706,1727875534861,0.0024414062,-0.6045532,0.8461304,-0.96875,-0.578125,0.09375
707,707,1727875534901,-0.01171875,-0.60479736,0.8432007,-0.734375,-0.796875,0.046875
708,708,1727875534941,-0.0024414062,-0.6043091,0.82147217,-0.296875,-1.015625,-0.109375
709,709,1727875534981,0.00024414062,-0.60040283,0.84783936,-1.28125,-0.71875,0.125
710,710,1727875535021,0.009521484,-0.6043091,0.84661865,-0.40625,-0.953125,-0.28125
711,711,1727875535061,-0.0053710938,-0.6026001,0.83929443,-0.453125,-1.015625,-0.09375
712,712,1727875535101,-0.008300781,-0.5996704,0.83807373,-0.6875,-0.640625,0.0
713,713,1727875535141,-0.00024414062,-0.6050415,0.8341675,-0.515625,-0.671875,-0.046875
714,714,1727875535181,0.009033203,-0.6043091,0.852478,-0.34375,-0.53125,0.125
715,715,1727875535221,-0.0087890625,-0.597229,0.83514404,-0.546875,-0.96875,0.078125
716,716,1727875535261,-0.011474609,-0.60284424,0.8356323,-0.21875,-0.625,0.09375
717,717,1727875535301,0.008544922,-0.60772705,0.84368896,-0.796875,-0.65625,-0.046875
718,718,1727875535341,0.00024414062,-0.60406494,0.8395386,-0.609375,-0.859375,-0.015625
719,719,1727875535381,-0.0017089844,-0.6030884,0.8463745,-0.1875,-0.734375,-0.15625
720,720,1727875535421,-0.0053710938,-0.6008911,0.8319702,-1.0625,-0.796875,0.03125
721,721,1727875535461,0.0043945312,-0.6069946,0.83636475,-0.40625,-0.5625,-0.171875
722,722,1727875535501,0.0068359375,-0.6018677,0.83758545,-0.65625,-1.125,-0.15625
723,723,1727875535541,-0.0078125,-0.60528564,0.8529663,-0.421875,-0.703125,-0.046875
724,724,1727875535581,-0.010986328,-0.5940552,0.8258667,-1.515625,-1.171875,0.25
725,725,1727875535621,0.014404297,-0.59576416,0.8439331,-0.71875,-0.765625,-0.140625
726,726,1727875535661,0.001953125,-0.611145,0.8432007,-0.125,-1.0625,-0.359375
727,727,1727875535701,-0.0036621094,-0.60601807,0.8410034,-0.734375,-0.71875,0.328125
728,728,1727875535741,-0.0041503906,-0.600647,0.836853,-0.4375,-0.546875,-0.15625
729,729,1727875535781,0.004638672,-0.6026001,0.84198,-0.734375,-0.640625,-0.28125
730,730,1727875535821,0.0061035156,-0.59942627,0.84490967,-0.09375,-0.65625,0.0
731,731,1727875535861,-0.008300781,-0.6074829,0.8422241,-0.859375,-0.6875,0.125
732,732,1727875535901,0.0017089844,-0.60284424,0.8410034,-1.0,-0.5625,0.015625
733,733,1727875535941,0.009033203,-0.5967407,0.8407593,-0.4375,-0.78125,-0.125
734,734,1727875535981,-0.0048828125,-0.6033325,0.8407593,-0.4375,-0.921875,-0.046875
735,735,1727875536021,-0.0024414062,-0.60772705,0.84198,-0.640625,-1.015625,0.03125
736,736,1727875536061,0.0017089844,-0.60284424,0.84539795,-1.046875,-0.90625,0.03125
737,737,1727875536101,0.0017089844,-0.6055298,0.8356323,-0.5,-1.078125,-0.03125
738,738,1727875536141,-0.0007324219,-0.59942627,0.83465576,-0.46875,-1.171875,-0.0625
739,739,1727875536181,-0.0017089844,-0.6116333,0.8475952,-0.203125,-0.6875,-0.25
740,740,1727875536221,-0.0014648438,-0.59991455,0.84002686,-1.796875,-1.484375,0.34375
741,741,1727875536261,0.015136719,-0.6021118,0.8505249,-0.625,-1.046875,-0.28125
742,742,1727875536301,0.0043945312,-0.6021118,0.8434448,-0.28125,-1.390625,-0.234375
743,743,1727875536341,-0.013916016,-0.6038208,0.8414917,-0.59375,-0.9375,0.265625
744,744,1727875536381,0.0,-0.60235596,0.84198,-0.4375,-0.890625,-0.171875
745,745,1727875536421,0.008056641,-0.5991821,0.85491943,-0.46875,-0.484375,-0.015625
746,746,1727875536461,-0.0036621094,-0.5942993,0.84002686,0.140625,-0.9375,-0.21875
747,747,1727875536501,-0.013427734,-0.5964966,0.8414917,-0.3125,-0.890625,0.078125
748,748,1727875536541,0.0041503906,-0.60528564,0.8468628,-0.90625,-0.609375,0.03125
749,749,1727875536581,0.00390625,-0.59210205,0.83880615,-0.40625,-0.796875,0.0
750,750,1727875536621,-0.005859375,-0.61138916,0.8434448,0.015625,-0.890625,-0.234375
751,751,1727875536661,-0.010498047,-0.6096802,0.8356323,-0.703125,-1.046875,0.0
752,752,1727875536701,-0.0012207031,-0.6067505,0.8500366,-0.40625,-0.5625,-0.140625
753,753,1727875536741,0.0012207031,-0.597229,0.84295654,-1.109375,-0.859375,-0.09375
754,754,1727875536781,-0.0107421875,-0.6033325,0.840271,-0.484375,-0.546875,-0.109375
755,755,1727875536821,-0.0036621094,-0.60040283,0.82611084,-0.390625,-1.125,-0.21875
756,756,1727875536861,-0.0041503906,-0.59381104,0.84295654,-1.296875,-0.578125,0.03125
757,757,1727875536901,0.009521484,-0.60772705,0.8505249,-0.453125,-1.203125,-0.40625
758,758,1727875536941,-0.013427734,-0.60235596,0.84051514,-0.21875,-1.453125,-0.0625
759,759,1727875536981,-0.009765625,-0.60113525,0.8439331,-0.5,-0.53125,0.078125
