,Unnamed: 0,timestamp,accel_x,accel_y,accel_z,gyro_x,gyro_y,gyro_z
0,0,1727346663878,-0.3046875,0.34246826,0.92059326,-1.03125,2.140625,-0.6875
1,1,1727346663918,-0.2998047,0.34710693,0.91986084,-1.109375,2.0,-0.71875
2,2,1727346663958,-0.29858398,0.34881592,0.9254761,-1.359375,1.203125,-0.421875
3,3,1727346663998,-0.28759766,0.34857178,0.91400146,-2.015625,1.203125,-0.546875
4,4,1727346664038,-0.29052734,0.34857178,0.91448975,-1.96875,0.578125,-0.28125
5,5,1727346664078,-0.28930664,0.34344482,0.9122925,-1.453125,-0.703125,0.046875
6,6,1727346664118,-0.2939453,0.33929443,0.9052124,-0.984375,-0.703125,0.078125
7,7,1727346664158,-0.30322266,0.35662842,0.92645264,-1.109375,-1.046875,0.21875
8,8,1727346664198,-0.31713867,0.35931396,0.92303467,-0.875,-1.390625,0.0625
9,9,1727346664238,-0.30078125,0.35076904,0.93133545,0.1875,-1.734375,0.078125
10,10,1727346664278,-0.30419922,0.34539795,0.90740967,0.921875,-0.3125,0.390625
11,11,1727346664318,-0.31176758,0.35931396,0.9232788,-0.796875,-0.046875,0.25
12,12,1727346664358,-0.32714844,0.35247803,0.92059326,-1.828125,-1.015625,-0.375
13,13,1727346664398,-0.29638672,0.3217163,0.9310913,0.15625,-1.390625,-0.828125
14,14,1727346664438,-0.30688477,0.35491943,0.91815186,0.84375,-1.921875,0.75
15,15,1727346664478,-0.29467773,0.34954834,0.92523193,0.6875,-1.625,-0.125
16,16,1727346664518,-0.34179688,0.33929443,0.9069214,-0.921875,-1.140625,-0.296875
17,17,1727346664558,-0.33618164,0.338562,0.91326904,-2.015625,0.265625,0.34375
18,18,1727346664598,-0.32299805,0.3529663,0.91033936,0.4375,-0.375,0.984375
19,19,1727346664638,-0.3293457,0.35638428,0.92303467,0.421875,-0.78125,0.734375
20,20,1727346664678,-0.32543945,0.35272217,0.9257202,-0.171875,-0.359375,-0.109375
21,21,1727346664718,-0.33129883,0.34661865,0.92059326,0.328125,-0.1875,-0.296875
22,22,1727346664758,-0.33520508,0.35247803,0.9244995,0.546875,-0.953125,-0.4375
23,23,1727346664798,-0.32421875,0.31072998,0.91815186,-0.484375,0.390625,-0.609375
24,24,1727346664838,-0.31713867,0.33880615,0.9237671,-1.71875,0.546875,0.078125
25,25,1727346664878,-0.32788086,0.35247803,0.9100952,-1.53125,0.90625,-0.203125
26,26,1727346664918,-0.3232422,0.3336792,0.9249878,-2.234375,0.25,0.15625
27,27,1727346664958,-0.3190918,0.3287964,0.8966675,-3.015625,2.0625,0.015625
28,28,1727346664998,-0.32592773,0.34539795,0.91033936,-2.65625,0.65625,-0.40625
29,29,1727346665038,-0.33984375,0.34979248,0.92230225,-0.828125,-1.015625,-0.171875
30,30,1727346665078,-0.33325195,0.35736084,0.91033936,-0.09375,0.21875,0.34375
31,31,1727346665118,-0.32495117,0.34857178,0.9105835,-0.6875,0.265625,-0.15625
32,32,1727346665158,-0.328125,0.34002686,0.91619873,-0.75,0.171875,-0.21875
33,33,1727346665198,-0.328125,0.33636475,0.9269409,0.078125,0.765625,0.078125
34,34,1727346665238,-0.33203125,0.3307495,0.9191284,-0.421875,1.359375,0.203125
35,35,1727346665278,-0.33691406,0.32806396,0.9203491,-1.03125,0.609375,0.15625
36,36,1727346665318,-0.32910156,0.3336792,0.9164429,-1.125,0.484375,0.1875
37,37,1727346665358,-0.3322754,0.34051514,0.91619873,-0.71875,0.53125,0.3125
38,38,1727346665398,-0.32958984,0.3427124,0.91571045,-0.421875,0.375,0.234375
39,39,1727346665438,-0.3256836,0.35491943,0.9164429,-0.03125,0.109375,-0.0625
40,40,1727346665478,-0.3305664,0.35809326,0.9105835,-0.28125,0.578125,-0.375
41,41,1727346665518,-0.3293457,0.355896,0.90911865,-0.40625,0.453125,-0.484375
42,42,1727346665558,-0.34155273,0.33538818,0.9208374,0.3125,-0.0625,-0.65625
43,43,1727346665598,-0.3310547,0.33026123,0.946228,-0.015625,-1.4375,-0.21875
44,44,1727346665638,-0.3251953,0.3258667,0.8932495,-0.765625,1.65625,-0.625
45,45,1727346665678,-0.3305664,0.322937,0.9281616,-1.5,0.78125,-0.359375
46,46,1727346665718,-0.33276367,0.33392334,0.9279175,-1.515625,0.25,-0.6875
47,47,1727346665758,-0.32666016,0.3312378,0.91326904,-0.03125,1.453125,0.09375
48,48,1727346665798,-0.3190918,0.34979248,0.91400146,-0.09375,0.796875,-0.15625
49,49,1727346665838,-0.3310547,0.3475952,0.9274292,-0.171875,0.703125,-0.625
50,50,1727346665878,-0.32763672,0.34344482,0.9188843,-0.296875,0.484375,-0.546875
51,51,1727346665918,-0.328125,0.33685303,0.9142456,0.265625,1.25,-0.484375
52,52,1727346665958,-0.33398438,0.3258667,0.918396,-0.25,0.96875,-0.515625
53,53,1727346665998,-0.32910156,0.3307495,0.9225464,-0.40625,0.46875,-0.546875
54,54,1727346666038,-0.31933594,0.32806396,0.9286499,-0.453125,0.8125,-0.25
55,55,1727346666078,-0.32104492,0.32196045,0.92401123,-0.703125,1.03125,-0.296875
56,56,1727346666118,-0.3244629,0.32928467,0.9220581,-1.0,0.9375,-0.375
57,57,1727346666158,-0.32763672,0.3336792,0.9266968,-1.109375,0.84375,-0.359375
58,58,1727346666198,-0.3239746,0.3366089,0.91278076,-1.390625,0.921875,-0.53125
59,59,1727346666238,-0.3215332,0.3390503,0.91864014,-1.390625,0.71875,-0.53125
60,60,1727346666278,-0.32763672,0.3361206,0.93011475,-1.09375,0.078125,-0.375
61,61,1727346666318,-0.3256836,0.33709717,0.93011475,-1.609375,-0.375,-0.171875
62,62,1727346666358,-0.31152344,0.33538818,0.8986206,-0.953125,1.609375,-0.5
63,63,1727346666398,-0.33007812,0.3336792,0.930603,-1.34375,1.171875,-0.375
64,64,1727346666438,-0.32910156,0.33636475,0.920105,-1.75,0.28125,-0.53125
65,65,1727346666478,-0.3178711,0.33099365,0.90740967,-1.453125,0.78125,-0.21875
66,66,1727346666518,-0.31298828,0.33514404,0.91986084,-0.21875,0.484375,0.109375
67,67,1727346666558,-0.3149414,0.34466553,0.92767334,-1.234375,0.265625,-0.265625
68,68,1727346666598,-0.31811523,0.3444214,0.91326904,-1.09375,0.25,-0.328125
69,69,1727346666638,-0.32470703,0.32806396,0.91986084,-1.078125,0.5625,-0.4375
70,70,1727346666678,-0.3251953,0.338562,0.91693115,-1.4375,0.421875,-0.21875
71,71,1727346666718,-0.3293457,0.34344482,0.920105,-1.640625,0.40625,-0.296875
72,72,1727346666758,-0.31518555,0.33831787,0.9176636,-1.1875,0.359375,-0.34375
73,73,1727346666798,-0.32104492,0.3373413,0.9196167,-1.15625,0.359375,-0.109375
74,74,1727346666838,-0.31689453,0.34295654,0.9125366,-0.953125,0.03125,-0.0625
75,75,1727346666878,-0.32128906,0.34197998,0.9179077,-0.84375,0.265625,-0.0625
76,76,1727346666918,-0.32299805,0.34246826,0.914978,-0.96875,-0.15625,0.046875
77,77,1727346666958,-0.31567383,0.34173584,0.9125366,-0.390625,0.125,0.0
78,78,1727346666998,-0.32421875,0.33270264,0.9176636,-0.328125,0.078125,-0.078125
79,79,1727346667038,-0.33398438,0.33514404,0.92059326,-0.75,0.21875,0.234375
80,80,1727346667078,-0.3310547,0.33416748,0.94085693,-1.328125,-1.03125,0.28125
81,81,1727346667118,-0.31176758,0.33636475,0.8944702,-0.828125,1.265625,-0.0625
82,82,1727346667158,-0.32836914,0.3378296,0.9244995,-1.359375,0.75,-0.234375
83,83,1727346667198,-0.33496094,0.34197998,0.9203491,-1.359375,-0.421875,-0.25
84,84,1727346667238,-0.32226562,0.3287964,0.92181396,-0.65625,0.4375,-0.078125
85,85,1727346667278,-0.3203125,0.33929443,0.9135132,0.0625,0.578125,0.171875
86,86,1727346667318,-0.32104492,0.34735107,0.9196167,-0.9375,0.390625,-0.046875
87,87,1727346667358,-0.32836914,0.34124756,0.92059326,-0.421875,0.421875,-0.03125
88,88,1727346667398,-0.32763672,0.3283081,0.9208374,-0.234375,0.546875,-0.125
89,89,1727346667438,-0.3239746,0.3373413,0.9191284,-0.625,0.40625,0.015625
90,90,1727346667478,-0.33276367,0.33514404,0.92352295,-0.3125,-0.03125,0.09375
91,91,1727346667518,-0.32861328,0.32928467,0.9171753,-0.5,0.328125,0.0625
92,92,1727346667558,-0.32421875,0.33294678,0.9147339,-0.609375,0.28125,-0.171875
93,93,1727346667598,-0.3293457,0.33148193,0.9274292,-0.484375,0.21875,-0.203125
94,94,1727346667638,-0.3322754,0.33050537,0.9227905,-0.640625,0.421875,-0.234375
95,95,1727346667678,-0.32763672,0.33441162,0.914978,-0.75,0.328125,0.0
96,96,1727346667718,-0.33203125,0.34320068,0.9266968,-0.78125,0.453125,-0.21875
97,97,1727346667758,-0.3293457,0.3366089,0.9179077,-0.59375,0.5625,-0.1875
98,98,1727346667798,-0.3269043,0.32855225,0.9176636,-0.734375,0.5625,-0.140625
99,99,1727346667838,-0.3310547,0.33099365,0.9274292,-0.578125,-0.078125,-0.21875
100,100,1727346667878,-0.328125,0.33587646,0.93621826,-0.921875,-0.546875,0.015625
101,101,1727346667918,-0.33422852,0.33636475,0.9035034,-0.59375,1.109375,-0.328125
102,102,1727346667958,-0.33154297,0.3307495,0.9293823,-1.328125,0.734375,-0.28125
103,103,1727346667998,-0.33935547,0.3336792,0.9298706,-1.265625,-0.015625,-0.4375
104,104,1727346668038,-0.32885742,0.32562256,0.920105,-0.59375,0.421875,-0.359375
105,105,1727346668078,-0.32714844,0.3451538,0.91693115,-0.171875,0.359375,-0.03125
106,106,1727346668118,-0.3334961,0.34051514,0.92767334,-0.78125,0.234375,-0.28125
107,107,1727346668158,-0.33203125,0.32684326,0.9244995,-0.25,0.484375,-0.390625
108,108,1727346668198,-0.32421875,0.32489014,0.91619873,-0.046875,1.0,-0.453125
109,109,1727346668238,-0.33374023,0.32928467,0.91864014,-0.328125,0.921875,-0.3125
110,110,1727346668278,-0.33203125,0.32489014,0.9142456,-0.078125,0.8125,-0.40625
111,111,1727346668318,-0.32641602,0.32659912,0.9262085,-0.125,0.84375,-0.53125
112,112,1727346668358,-0.33032227,0.32489014,0.9215698,-0.0625,0.765625,-0.359375
113,113,1727346668398,-0.32885742,0.3283081,0.92303467,-0.390625,1.0625,-0.5625
114,114,1727346668438,-0.32885742,0.33050537,0.9164429,-0.3125,1.4375,-0.328125
115,115,1727346668478,-0.32983398,0.32977295,0.9269409,-0.203125,1.484375,-0.453125
116,116,1727346668518,-0.32714844,0.32366943,0.92474365,-0.890625,1.125,-0.484375
117,117,1727346668558,-0.32226562,0.32977295,0.93255615,-0.5625,0.890625,-0.234375
118,118,1727346668598,-0.32006836,0.31756592,0.9159546,-0.40625,1.578125,-0.40625
119,119,1727346668638,-0.32421875,0.3319702,0.92596436,-0.90625,1.546875,-0.375
120,120,1727346668678,-0.32470703,0.3217163,0.91693115,-1.25,1.34375,-0.53125
121,121,1727346668718,-0.3239746,0.322937,0.9328003,-1.515625,0.375,-0.65625
122,122,1727346668758,-0.31054688,0.32611084,0.90374756,-1.921875,2.34375,-0.90625
123,123,1727346668798,-0.3310547,0.33172607,0.93670654,-2.671875,1.171875,-0.984375
124,124,1727346668838,-0.3154297,0.3300171,0.91693115,-2.265625,1.140625,-0.90625
125,125,1727346668878,-0.3095703,0.3295288,0.9227905,-1.65625,1.265625,-0.59375
126,126,1727346668918,-0.3071289,0.33538818,0.92303467,-1.453125,1.140625,-0.375
127,127,1727346668958,-0.31689453,0.33831787,0.92596436,-2.0625,1.34375,-0.8125
128,128,1727346668998,-0.31640625,0.3427124,0.9188843,-2.5,1.609375,-0.734375
129,129,1727346669038,-0.31176758,0.3348999,0.9315796,-1.265625,1.578125,-0.421875
130,130,1727346669078,-0.31445312,0.34100342,0.9232788,-2.15625,1.328125,-0.65625
131,131,1727346669118,-0.31274414,0.34295654,0.91815186,-1.90625,0.859375,-0.703125
132,132,1727346669158,-0.30517578,0.3390503,0.9179077,-1.734375,1.1875,-0.609375
133,133,1727346669198,-0.3046875,0.34466553,0.9225464,-2.09375,0.953125,-0.53125
134,134,1727346669238,-0.3100586,0.34490967,0.92059326,-1.734375,0.8125,-0.640625
135,135,1727346669278,-0.31225586,0.34051514,0.9171753,-1.453125,0.953125,-0.328125
136,136,1727346669318,-0.3034668,0.3456421,0.9232788,-1.046875,0.21875,-0.140625
137,137,1727346669358,-0.2980957,0.3456421,0.9142456,-0.75,-0.0625,0.140625
138,138,1727346669398,-0.3034668,0.34710693,0.9071655,-0.4375,0.109375,0.171875
139,139,1727346669438,-0.30786133,0.34783936,0.92303467,0.390625,-0.765625,0.5
140,140,1727346669478,-0.31054688,0.34588623,0.9371948,-1.046875,-1.765625,0.46875
141,141,1727346669518,-0.30810547,0.34661865,0.90545654,-1.203125,-0.375,0.25
142,142,1727346669558,-0.3178711,0.33563232,0.93865967,-0.640625,0.203125,0.0
143,143,1727346669598,-0.31811523,0.34344482,0.9203491,-0.953125,-0.875,-0.125
144,144,1727346669638,-0.30908203,0.33685303,0.914978,-0.609375,-0.546875,0.125
145,145,1727346669678,-0.31274414,0.33416748,0.9242554,0.59375,-0.765625,0.484375
146,146,1727346669718,-0.31884766,0.3505249,0.91986084,0.28125,-0.40625,0.125
147,147,1727346669758,-0.32250977,0.340271,0.91937256,0.140625,-0.484375,0.0
148,148,1727346669798,-0.32617188,0.33392334,0.91522217,0.0625,-0.03125,0.109375
149,149,1727346669838,-0.32641602,0.3361206,0.91986084,0.15625,-0.140625,0.15625
150,150,1727346669878,-0.32714844,0.33929443,0.91986084,-0.140625,-0.21875,0.25
151,151,1727346669918,-0.3251953,0.33319092,0.9266968,-0.046875,-0.359375,-0.09375
152,152,1727346669958,-0.3256836,0.32733154,0.92108154,-0.0625,0.15625,0.015625
153,153,1727346669998,-0.33007812,0.33441162,0.91937256,-0.25,0.015625,0.15625
154,154,1727346670038,-0.33129883,0.3270874,0.9237671,0.109375,0.09375,0.109375
155,155,1727346670078,-0.33032227,0.32781982,0.91986084,-0.390625,-0.375,0.15625
156,156,1727346670118,-0.33081055,0.32928467,0.9242554,-0.40625,-0.171875,-0.09375
157,157,1727346670158,-0.328125,0.3287964,0.920105,-0.59375,0.046875,-0.25
158,158,1727346670198,-0.32983398,0.3295288,0.91400146,-0.625,0.4375,0.09375
159,159,1727346670238,-0.32250977,0.3324585,0.93084717,0.34375,-1.4375,-0.015625
160,160,1727346670278,-0.32470703,0.3204956,0.90008545,-0.578125,1.21875,-0.265625
161,161,1727346670318,-0.34106445,0.32684326,0.9232788,-2.046875,0.609375,-0.109375
162,162,1727346670358,-0.34228516,0.32806396,0.93084717,-1.296875,-0.078125,-0.390625
163,163,1727346670398,-0.3269043,0.3168335,0.92230225,-1.046875,0.28125,-0.296875
164,164,1727346670438,-0.3322754,0.3373413,0.9208374,-0.375,0.265625,0.125
165,165,1727346670478,-0.33129883,0.33392334,0.9242554,-0.875,0.609375,-0.25
166,166,1727346670518,-0.33203125,0.3192749,0.9196167,-0.5,0.53125,-0.1875
167,167,1727346670558,-0.32983398,0.32489014,0.9130249,-0.515625,0.59375,-0.140625
168,168,1727346670598,-0.3310547,0.3241577,0.91986084,-0.53125,0.515625,-0.25
169,169,1727346670638,-0.3310547,0.3163452,0.9266968,-0.9375,0.265625,-0.21875
170,170,1727346670678,-0.33154297,0.32537842,0.92181396,-1.15625,0.546875,-0.1875
171,171,1727346670718,-0.3269043,0.32489014,0.916687,-0.59375,0.59375,-0.265625
172,172,1727346670758,-0.33813477,0.32513428,0.9227905,-0.78125,0.546875,-0.140625
173,173,1727346670798,-0.33447266,0.3222046,0.9196167,-1.015625,0.75,-0.21875
174,174,1727346670838,-0.3334961,0.32635498,0.9310913,-0.75,0.59375,-0.171875
175,175,1727346670878,-0.3334961,0.322937,0.920105,-0.8125,0.3125,-0.375
176,176,1727346670918,-0.33520508,0.3192749,0.9154663,-1.0,1.0625,-0.4375
177,177,1727346670958,-0.33203125,0.32537842,0.9237671,-0.796875,0.65625,-0.5
178,178,1727346670998,-0.3334961,0.32757568,0.91522217,-0.90625,1.046875,-0.390625
179,179,1727346671038,-0.3359375,0.3192749,0.93573,-0.625,-0.359375,-0.28125
180,180,1727346671078,-0.3227539,0.31976318,0.89642334,-1.03125,2.0,-0.578125
181,181,1727346671118,-0.34375,0.33270264,0.93011475,-1.640625,1.0,-0.328125
182,182,1727346671158,-0.3408203,0.3287964,0.9171753,-1.21875,0.796875,-0.765625
183,183,1727346671198,-0.31860352,0.3217163,0.9110718,-0.328125,1.234375,-0.171875
184,184,1727346671238,-0.3293457,0.33221436,0.9286499,-0.671875,0.78125,-0.125
185,185,1727346671278,-0.33203125,0.33050537,0.92352295,-1.046875,1.0625,-0.28125
186,186,1727346671318,-0.3256836,0.32147217,0.9196167,-0.828125,1.015625,-0.28125
187,187,1727346671358,-0.32592773,0.32025146,0.91937256,-0.65625,1.125,-0.28125
188,188,1727346671398,-0.33251953,0.32196045,0.92645264,-0.84375,1.234375,-0.375
189,189,1727346671438,-0.32958984,0.32318115,0.92889404,-1.1875,0.765625,-0.53125
190,190,1727346671478,-0.32250977,0.32073975,0.92230225,-1.3125,1.15625,-0.390625
191,191,1727346671518,-0.31811523,0.3300171,0.9208374,-1.171875,1.296875,-0.453125
192,192,1727346671558,-0.3305664,0.33148193,0.9266968,-1.078125,1.15625,-0.515625
193,193,1727346671598,-0.32006836,0.32537842,0.92181396,-1.375,1.453125,-0.421875
194,194,1727346671638,-0.3173828,0.3300171,0.9227905,-1.65625,1.078125,-0.4375
195,195,1727346671678,-0.3173828,0.32757568,0.9159546,-1.296875,1.265625,-0.28125
196,196,1727346671718,-0.32055664,0.31878662,0.92059326,-1.296875,1.21875,-0.46875
197,197,1727346671758,-0.32226562,0.32122803,0.93377686,-1.546875,0.515625,-0.421875
198,198,1727346671798,-0.31518555,0.3378296,0.9328003,-2.140625,0.34375,-0.421875
199,199,1727346671838,-0.30688477,0.33514404,0.9100952,-1.65625,1.71875,-0.609375
200,200,1727346671878,-0.3166504,0.3307495,0.9381714,-2.0,2.140625,-0.71875
201,201,1727346671918,-0.32177734,0.34710693,0.91619873,-2.796875,0.96875,-0.8125
202,202,1727346671958,-0.30639648,0.33026123,0.9130249,-2.4375,0.90625,-0.71875
203,203,1727346671998,-0.3046875,0.34661865,0.91937256,-0.96875,0.6875,-0.0625
204,204,1727346672038,-0.31225586,0.3444214,0.9266968,-1.015625,0.40625,-0.28125
205,205,1727346672078,-0.3112793,0.3336792,0.9203491,-0.84375,0.125,-0.171875
206,206,1727346672118,-0.31298828,0.32977295,0.9100952,-0.625,0.21875,-0.171875
207,207,1727346672158,-0.3112793,0.3366089,0.92401123,-0.53125,-0.109375,-0.046875
208,208,1727346672198,-0.3137207,0.34100342,0.92596436,-0.84375,-0.59375,0.03125
209,209,1727346672238,-0.3154297,0.34197998,0.92230225,-1.140625,-0.484375,-0.03125
210,210,1727346672278,-0.32006836,0.3373413,0.9176636,-0.59375,-0.296875,0.234375
211,211,1727346672318,-0.31689453,0.338562,0.91986084,-0.625,-0.1875,0.109375
212,212,1727346672358,-0.32373047,0.34197998,0.9176636,-0.53125,-0.484375,0.203125
213,213,1727346672398,-0.32226562,0.33538818,0.9176636,-0.328125,-0.5,0.125
214,214,1727346672438,-0.32543945,0.3324585,0.91864014,0.015625,-0.25,0.171875
215,215,1727346672478,-0.33203125,0.33392334,0.91986084,-0.3125,-0.1875,0.15625
216,216,1727346672518,-0.32348633,0.33343506,0.9303589,-0.1875,-0.640625,0.171875
217,217,1727346672558,-0.32104492,0.33172607,0.9147339,-0.921875,-0.234375,0.03125
218,218,1727346672598,-0.32495117,0.3361206,0.9142456,-0.609375,0.015625,-0.03125
219,219,1727346672638,-0.3256836,0.32537842,0.91571045,-0.59375,0.53125,-0.1875
220,220,1727346672678,-0.33276367,0.33538818,0.9203491,-1.609375,-0.546875,-0.265625
221,221,1727346672718,-0.33154297,0.33416748,0.9196167,-1.21875,-0.0625,-0.203125
222,222,1727346672758,-0.32836914,0.33148193,0.9110718,-0.4375,0.515625,-0.015625
223,223,1727346672798,-0.32348633,0.34368896,0.9203491,-0.546875,0.609375,-0.078125
224,224,1727346672838,-0.3244629,0.33685303,0.9279175,-0.71875,-0.25,-0.078125
225,225,1727346672878,-0.32885742,0.3283081,0.9220581,-0.421875,0.0,-0.046875
226,226,1727346672918,-0.3347168,0.32855225,0.9196167,-0.65625,0.390625,-0.21875
227,227,1727346672958,-0.33129883,0.33392334,0.9262085,-0.65625,0.1875,-0.09375
228,228,1727346672998,-0.32958984,0.32489014,0.9159546,-0.828125,0.234375,-0.234375
229,229,1727346673038,-0.32617188,0.32855225,0.9213257,-0.734375,0.453125,-0.078125
230,230,1727346673078,-0.32714844,0.32855225,0.91937256,-0.5625,0.5,-0.0625
231,231,1727346673118,-0.33251953,0.33343506,0.91571045,-0.359375,0.3125,-0.046875
232,232,1727346673158,-0.33203125,0.33050537,0.91693115,-0.46875,0.34375,-0.234375
233,233,1727346673198,-0.32958984,0.3283081,0.9269409,-0.90625,0.234375,-0.109375
234,234,1727346673238,-0.33007812,0.33050537,0.9142456,-0.25,0.65625,-0.09375
235,235,1727346673278,-0.3395996,0.3258667,0.9179077,-0.859375,0.46875,-0.140625
236,236,1727346673318,-0.33764648,0.3258667,0.9266968,-0.484375,0.21875,-0.25
237,237,1727346673358,-0.33203125,0.3204956,0.9401245,-1.328125,-0.71875,-0.125
238,238,1727346673398,-0.32128906,0.32855225,0.8969116,-0.6875,1.015625,-0.21875
239,239,1727346673438,-0.33325195,0.3222046,0.92962646,-1.140625,0.90625,-0.484375
240,240,1727346673478,-0.34204102,0.33172607,0.92718506,-1.171875,0.078125,-0.28125
241,241,1727346673518,-0.3317871,0.3241577,0.92059326,-0.703125,0.625,-0.4375
242,242,1727346673558,-0.32861328,0.33221436,0.9110718,-0.484375,0.671875,-0.03125
243,243,1727346673598,-0.3293457,0.3361206,0.92523193,-0.890625,0.65625,-0.390625
244,244,1727346673638,-0.33276367,0.32781982,0.9293823,-0.390625,0.625,-0.5
245,245,1727346673678,-0.33129883,0.3222046,0.91448975,-0.421875,0.84375,-0.265625
246,246,1727346673718,-0.33154297,0.32391357,0.93011475,-0.375,0.765625,-0.40625
247,247,1727346673758,-0.33447266,0.32659912,0.9257202,-0.546875,0.578125,-0.40625
248,248,1727346673798,-0.3293457,0.32073975,0.9232788,-0.4375,0.6875,-0.40625
249,249,1727346673838,-0.32836914,0.32489014,0.91741943,-0.4375,0.90625,-0.28125
250,250,1727346673878,-0.32983398,0.32635498,0.9220581,-0.609375,1.046875,-0.34375
251,251,1727346673918,-0.3317871,0.31951904,0.91986084,-0.703125,1.15625,-0.265625
252,252,1727346673958,-0.32910156,0.32635498,0.92181396,-0.953125,0.984375,-0.46875
253,253,1727346673998,-0.32666016,0.32000732,0.9242554,-1.078125,0.875,-0.4375
254,254,1727346674038,-0.3293457,0.3222046,0.91937256,-0.46875,0.859375,-0.328125
255,255,1727346674078,-0.32348633,0.32000732,0.91937256,-0.796875,1.171875,-0.390625
256,256,1727346674118,-0.32226562,0.32025146,0.9293823,-0.609375,0.859375,-0.34375
257,257,1727346674158,-0.32299805,0.32440186,0.90911865,-1.59375,1.125,-0.53125
258,258,1727346674198,-0.32763672,0.32733154,0.91522217,-0.609375,1.109375,-0.265625
259,259,1727346674238,-0.31811523,0.3217163,0.9227905,-1.0,1.96875,-0.515625
260,260,1727346674278,-0.33496094,0.3336792,0.92401123,-1.8125,1.046875,-0.640625
261,261,1727346674318,-0.31103516,0.33099365,0.92108154,-1.8125,1.359375,-0.875
262,262,1727346674358,-0.3083496,0.32757568,0.9220581,-0.71875,1.15625,-0.296875
263,263,1727346674398,-0.32080078,0.3324585,0.92645264,-0.734375,0.9375,-0.546875
264,264,1727346674438,-0.32226562,0.33587646,0.9274292,-1.6875,0.953125,-0.25
265,265,1727346674478,-0.31933594,0.3204956,0.91864014,-1.453125,1.015625,-0.453125
266,266,1727346674518,-0.31469727,0.3234253,0.92352295,-1.453125,1.0,-0.421875
267,267,1727346674558,-0.31591797,0.3324585,0.9227905,-1.96875,0.828125,-0.4375
268,268,1727346674598,-0.31152344,0.33294678,0.9274292,-1.796875,0.515625,-0.53125
269,269,1727346674638,-0.30908203,0.32855225,0.91815186,-1.46875,0.546875,-0.234375
270,270,1727346674678,-0.30932617,0.3373413,0.9220581,-1.125,0.390625,-0.234375
271,271,1727346674718,-0.3161621,0.33953857,0.91619873,-1.0,0.21875,-0.046875
272,272,1727346674758,-0.32055664,0.3319702,0.9179077,-0.640625,0.15625,-0.21875
273,273,1727346674798,-0.31518555,0.33465576,0.9227905,-0.578125,0.03125,0.03125
274,274,1727346674838,-0.3166504,0.33538818,0.92303467,-0.328125,-0.34375,0.109375
275,275,1727346674878,-0.31347656,0.3307495,0.9142456,-0.625,0.078125,-0.0625
276,276,1727346674918,-0.31933594,0.33709717,0.92523193,-0.375,0.0,0.0
277,277,1727346674958,-0.32250977,0.3287964,0.9125366,-0.8125,0.546875,0.078125
278,278,1727346674998,-0.31860352,0.33538818,0.9293823,-0.171875,-0.53125,0.09375
279,279,1727346675038,-0.31518555,0.32904053,0.9093628,-0.59375,1.015625,-0.234375
280,280,1727346675078,-0.33789062,0.3324585,0.92645264,-1.15625,0.265625,-0.328125
281,281,1727346675118,-0.32348633,0.34051514,0.91937256,-0.9375,0.09375,-0.28125
282,282,1727346675158,-0.31445312,0.3283081,0.91400146,-0.09375,0.28125,0.109375
283,283,1727346675198,-0.31884766,0.33172607,0.92401123,-0.1875,0.03125,0.0625
284,284,1727346675238,-0.32592773,0.32513428,0.9220581,-0.890625,0.171875,-0.015625
285,285,1727346675278,-0.32299805,0.32269287,0.91741943,-1.0625,0.21875,-0.09375
286,286,1727346675318,-0.31982422,0.32073975,0.9220581,-0.625,0.34375,0.078125
287,287,1727346675358,-0.32885742,0.32611084,0.9279175,-0.59375,0.0625,-0.140625
288,288,1727346675398,-0.33129883,0.3222046,0.9262085,-0.9375,-0.109375,-0.125
289,289,1727346675438,-0.3232422,0.32977295,0.91815186,-0.75,0.125,-0.140625
290,290,1727346675478,-0.32739258,0.32806396,0.918396,-0.5625,0.109375,0.0
291,291,1727346675518,-0.3269043,0.33026123,0.9254761,-0.875,0.21875,-0.125
292,292,1727346675558,-0.32666016,0.3241577,0.9220581,-0.578125,0.28125,-0.140625
293,293,1727346675598,-0.328125,0.3234253,0.9188843,-0.96875,0.21875,-0.0625
294,294,1727346675638,-0.33398438,0.32513428,0.92352295,-0.625,0.15625,-0.21875
295,295,1727346675678,-0.32714844,0.322937,0.9220581,-0.890625,0.015625,-0.140625
296,296,1727346675718,-0.3239746,0.32855225,0.92645264,-0.796875,0.203125,-0.03125
297,297,1727346675758,-0.3244629,0.32025146,0.91815186,-0.625,0.40625,-0.0625
298,298,1727346675798,-0.33496094,0.32196045,0.92889404,-0.59375,-0.171875,-0.015625
299,299,1727346675838,-0.3317871,0.33172607,0.92401123,-1.515625,-0.265625,0.015625
300,300,1727346675878,-0.3310547,0.32659912,0.91082764,-0.640625,0.53125,-0.25
301,301,1727346675918,-0.33032227,0.31951904,0.9232788,-1.015625,1.15625,-0.125
302,302,1727346675958,-0.34033203,0.3258667,0.9244995,-1.59375,0.234375,-0.359375
303,303,1727346675998,-0.33081055,0.3209839,0.91937256,-1.265625,0.296875,-0.328125
304,304,1727346676038,-0.32299805,0.3287964,0.91619873,-0.109375,0.4375,0.203125
305,305,1727346676078,-0.32788086,0.32733154,0.9232788,-0.5,0.5,0.0
306,306,1727346676118,-0.33618164,0.32635498,0.92718506,-0.6875,-0.078125,-0.0625
307,307,1727346676158,-0.32763672,0.32318115,0.91693115,-0.75,0.421875,-0.03125
308,308,1727346676198,-0.32910156,0.3192749,0.92352295,-0.578125,0.421875,-0.15625
309,309,1727346676238,-0.33422852,0.3258667,0.9266968,-0.453125,0.265625,-0.078125
310,310,1727346676278,-0.32714844,0.32196045,0.91864014,-1.0625,0.28125,-0.09375
311,311,1727346676318,-0.32861328,0.32440186,0.9203491,-0.921875,0.375,-0.25
312,312,1727346676358,-0.3388672,0.32757568,0.9208374,-0.4375,0.53125,-0.234375
313,313,1727346676398,-0.3330078,0.3180542,0.92181396,-0.703125,0.578125,0.0
314,314,1727346676438,-0.33374023,0.3258667,0.9232788,-0.609375,0.40625,-0.125
315,315,1727346676478,-0.33154297,0.32147217,0.9203491,-0.640625,0.421875,-0.234375
316,316,1727346676518,-0.33398438,0.322937,0.92840576,-0.59375,0.53125,-0.25
317,317,1727346676558,-0.33984375,0.32366943,0.9227905,-0.4375,0.359375,-0.203125
318,318,1727346676598,-0.33862305,0.3204956,0.92718506,-0.78125,0.3125,-0.375
319,319,1727346676638,-0.33081055,0.31756592,0.9215698,-0.890625,0.734375,-0.4375
320,320,1727346676678,-0.33081055,0.33026123,0.9257202,-0.796875,0.796875,-0.265625
321,321,1727346676718,-0.34448242,0.32269287,0.93084717,-0.421875,0.625,-0.453125
322,322,1727346676758,-0.33520508,0.324646,0.9369507,-1.1875,-0.6875,-0.125
323,323,1727346676798,-0.32739258,0.32244873,0.9086304,-0.609375,1.578125,-0.375
324,324,1727346676838,-0.33691406,0.3156128,0.9345093,-1.0,1.296875,-0.515625
325,325,1727346676878,-0.33618164,0.32391357,0.9262085,-1.34375,0.53125,-0.625
326,326,1727346676918,-0.32714844,0.32513428,0.91278076,-0.953125,1.046875,-0.640625
327,327,1727346676958,-0.32373047,0.32489014,0.9188843,-0.265625,0.890625,-0.0625
328,328,1727346676998,-0.3334961,0.32562256,0.92718506,-0.96875,1.109375,-0.515625
329,329,1727346677038,-0.33544922,0.32244873,0.9332886,-0.953125,0.90625,-0.421875
330,330,1727346677078,-0.33251953,0.31536865,0.914978,-0.890625,0.9375,-0.359375
331,331,1727346677118,-0.3269043,0.322937,0.92645264,-0.875,1.03125,-0.453125
332,332,1727346677158,-0.32763672,0.32611084,0.9249878,-1.234375,0.90625,-0.359375
333,333,1727346677198,-0.32641602,0.32440186,0.91986084,-1.46875,1.015625,-0.453125
334,334,1727346677238,-0.32055664,0.32684326,0.9244995,-1.328125,1.15625,-0.578125
335,335,1727346677278,-0.3154297,0.3283081,0.92645264,-1.640625,1.125,-0.546875
336,336,1727346677318,-0.32373047,0.33099365,0.92352295,-1.53125,1.1875,-0.484375
337,337,1727346677358,-0.32177734,0.33538818,0.92596436,-1.5625,1.125,-0.5
338,338,1727346677398,-0.3215332,0.3241577,0.92352295,-1.828125,1.015625,-0.5625
339,339,1727346677438,-0.31884766,0.3222046,0.91986084,-1.625,0.90625,-0.515625
340,340,1727346677478,-0.31982422,0.33441162,0.91741943,-1.78125,0.859375,-0.40625
341,341,1727346677518,-0.31176758,0.3295288,0.9203491,-1.71875,1.0,-0.4375
342,342,1727346677558,-0.31347656,0.33758545,0.9257202,-1.5,0.359375,-0.234375
343,343,1727346677598,-0.3088379,0.3319702,0.91326904,-2.25,0.765625,-0.359375
344,344,1727346677638,-0.3137207,0.3414917,0.91619873,-1.109375,0.390625,-0.25
345,345,1727346677678,-0.30981445,0.32635498,0.91278076,-1.328125,1.375,-0.390625
346,346,1727346677718,-0.3293457,0.34002686,0.9232788,-1.734375,0.171875,-0.296875
347,347,1727346677758,-0.31201172,0.34100342,0.91741943,-1.03125,0.265625,-0.359375
348,348,1727346677798,-0.31079102,0.3300171,0.916687,0.09375,-0.015625,0.234375
349,349,1727346677838,-0.31860352,0.33758545,0.9254761,-0.015625,0.15625,0.28125
350,350,1727346677878,-0.32055664,0.3348999,0.9176636,-0.9375,0.140625,-0.078125
351,351,1727346677918,-0.3227539,0.3258667,0.91033936,-0.640625,0.0,0.1875
352,352,1727346677958,-0.31958008,0.3312378,0.92474365,-0.140625,0.109375,0.109375
353,353,1727346677998,-0.32299805,0.33807373,0.9237671,-0.515625,-0.125,0.15625
354,354,1727346678038,-0.32348633,0.33465576,0.91815186,-0.8125,-0.03125,0.015625
355,355,1727346678078,-0.32104492,0.3287964,0.9159546,-0.640625,-0.015625,0.140625
356,356,1727346678118,-0.32373047,0.33416748,0.9249878,-0.546875,-0.03125,-0.125
357,357,1727346678158,-0.33081055,0.3348999,0.9213257,-0.65625,0.171875,0.015625
358,358,1727346678198,-0.32666016,0.32928467,0.91448975,-0.359375,0.171875,0.0625
359,359,1727346678238,-0.32617188,0.32733154,0.9291382,-0.328125,-0.078125,-0.09375
360,360,1727346678278,-0.33007812,0.32513428,0.92596436,0.015625,0.171875,0.0
361,361,1727346678318,-0.32373047,0.32391357,0.9164429,-0.765625,0.4375,-0.1875
362,362,1727346678358,-0.3190918,0.3287964,0.92108154,-0.265625,0.0,-0.171875
363,363,1727346678398,-0.32788086,0.32122803,0.9130249,-0.640625,0.625,-0.09375
364,364,1727346678438,-0.33422852,0.33221436,0.92840576,-0.03125,-0.640625,0.0
365,365,1727346678478,-0.31958008,0.32562256,0.9008179,-0.359375,1.109375,-0.203125
366,366,1727346678518,-0.33984375,0.3258667,0.9262085,-1.328125,0.03125,-0.15625
367,367,1727346678558,-0.33520508,0.32659912,0.92401123,-0.953125,-0.1875,-0.40625
368,368,1727346678598,-0.33007812,0.32733154,0.91741943,-0.203125,0.296875,0.015625
369,369,1727346678638,-0.32958984,0.32855225,0.9242554,0.078125,-0.09375,0.109375
370,370,1727346678678,-0.33276367,0.31976318,0.92401123,-0.9375,0.296875,-0.09375
371,371,1727346678718,-0.33642578,0.32073975,0.92181396,-0.6875,0.046875,-0.203125
372,372,1727346678758,-0.3317871,0.3126831,0.9147339,-0.40625,0.453125,-0.265625
373,373,1727346678798,-0.33813477,0.3241577,0.9225464,-0.515625,0.171875,-0.140625
374,374,1727346678838,-0.33447266,0.31903076,0.92474365,-0.90625,0.25,-0.125
375,375,1727346678878,-0.32983398,0.32928467,0.9171753,-0.828125,0.265625,-0.125
376,376,1727346678918,-0.33422852,0.32073975,0.9227905,-0.546875,0.25,-0.09375
377,377,1727346678958,-0.33203125,0.32366943,0.92059326,-0.53125,0.265625,-0.1875
378,378,1727346678998,-0.33276367,0.31854248,0.9249878,-0.40625,0.421875,0.046875
379,379,1727346679038,-0.33325195,0.32611084,0.9220581,-0.703125,0.421875,0.0625
380,380,1727346679078,-0.33154297,0.3234253,0.9225464,-0.8125,0.359375,-0.046875
381,381,1727346679118,-0.33325195,0.3163452,0.9242554,-0.578125,0.265625,-0.140625
382,382,1727346679158,-0.33666992,0.3163452,0.9159546,-0.703125,0.609375,-0.203125
383,383,1727346679198,-0.33276367,0.3192749,0.92523193,-0.671875,0.46875,0.0
384,384,1727346679238,-0.33666992,0.3168335,0.91156006,-1.015625,0.78125,-0.265625
385,385,1727346679278,-0.34472656,0.3131714,0.9262085,-0.1875,0.1875,-0.21875
386,386,1727346679318,-0.3251953,0.31585693,0.902771,-0.953125,1.03125,-0.34375
387,387,1727346679358,-0.35009766,0.32440186,0.92181396,-1.90625,0.25,-0.5
388,388,1727346679398,-0.34057617,0.31610107,0.9303589,-1.390625,0.40625,-0.625
389,389,1727346679438,-0.33276367,0.31585693,0.9215698,-0.125,0.625,-0.203125
390,390,1727346679478,-0.32739258,0.3258667,0.9179077,-0.78125,0.5625,-0.171875
391,391,1727346679518,-0.34545898,0.32757568,0.9266968,-0.828125,0.734375,-0.421875
392,392,1727346679558,-0.3347168,0.32073975,0.91619873,-0.78125,0.875,-0.3125
393,393,1727346679598,-0.33691406,0.31488037,0.91864014,-0.484375,0.953125,-0.296875
394,394,1727346679638,-0.33642578,0.31854248,0.92767334,-0.40625,0.640625,-0.34375
395,395,1727346679678,-0.33203125,0.31829834,0.92401123,-1.046875,0.59375,-0.390625
396,396,1727346679718,-0.33032227,0.31610107,0.92059326,-1.0625,0.484375,-0.46875
397,397,1727346679758,-0.33129883,0.32147217,0.92645264,-0.78125,0.96875,-0.40625
398,398,1727346679798,-0.3359375,0.31878662,0.9225464,-1.078125,1.0625,-0.390625
399,399,1727346679838,-0.32910156,0.31488037,0.920105,-0.765625,1.015625,-0.4375
400,400,1727346679878,-0.33496094,0.3192749,0.92401123,-0.890625,0.984375,-0.28125
401,401,1727346679918,-0.3347168,0.31854248,0.9269409,-0.9375,0.796875,-0.515625
402,402,1727346679958,-0.32739258,0.32147217,0.92840576,-1.03125,0.828125,-0.390625
403,403,1727346679998,-0.3256836,0.3217163,0.9220581,-1.125,1.125,-0.46875
404,404,1727346680038,-0.33276367,0.3217163,0.9274292,-1.0625,1.015625,-0.515625
405,405,1727346680078,-0.33544922,0.3180542,0.92401123,-1.390625,1.078125,-0.546875
406,406,1727346680118,-0.32763672,0.32269287,0.9269409,-1.15625,0.28125,-0.421875
407,407,1727346680158,-0.31811523,0.32855225,0.9035034,-1.421875,1.625,-0.640625
408,408,1727346680198,-0.34057617,0.32513428,0.9279175,-1.921875,1.078125,-0.53125
409,409,1727346680238,-0.3203125,0.3307495,0.9176636,-1.921875,0.578125,-0.640625
410,410,1727346680278,-0.31469727,0.324646,0.9159546,-1.15625,1.0625,-0.28125
411,411,1727346680318,-0.32202148,0.33294678,0.9227905,-0.8125,0.5625,-0.21875
412,412,1727346680358,-0.32495117,0.33172607,0.92230225,-1.703125,0.859375,-0.46875
413,413,1727346680398,-0.3251953,0.322937,0.91033936,-1.375,0.625,-0.421875
414,414,1727346680438,-0.31958008,0.32611084,0.916687,-1.03125,0.71875,-0.390625
415,415,1727346680478,-0.3239746,0.33099365,0.92303467,-1.109375,0.609375,-0.203125
416,416,1727346680518,-0.32470703,0.33099365,0.92474365,-1.328125,0.28125,-0.21875
417,417,1727346680558,-0.32080078,0.3287964,0.91571045,-0.8125,0.265625,-0.25
418,418,1727346680598,-0.32421875,0.33221436,0.9196167,-0.65625,0.09375,-0.0625
419,419,1727346680638,-0.32470703,0.33270264,0.920105,-0.703125,0.3125,0.109375
420,420,1727346680678,-0.3232422,0.32904053,0.9196167,-0.5625,0.0625,-0.015625
421,421,1727346680718,-0.32861328,0.32806396,0.92230225,-0.46875,0.15625,0.015625
422,422,1727346680758,-0.32739258,0.3241577,0.92352295,-0.5,-0.125,0.046875
423,423,1727346680798,-0.32763672,0.33099365,0.9215698,-0.53125,-0.109375,-0.171875
424,424,1727346680838,-0.32666016,0.32684326,0.9159546,-0.65625,0.265625,-0.03125
425,425,1727346680878,-0.3256836,0.32757568,0.9227905,-0.59375,0.046875,0.046875
426,426,1727346680918,-0.32763672,0.32147217,0.9135132,-0.84375,0.5625,-0.03125
427,427,1727346680958,-0.32910156,0.3283081,0.9249878,-0.3125,-0.40625,-0.09375
428,428,1727346680998,-0.31982422,0.3222046,0.9098511,-0.734375,0.90625,-0.140625
429,429,1727346681038,-0.3400879,0.33148193,0.9244995,-1.1875,0.234375,-0.328125
430,430,1727346681078,-0.3305664,0.3312378,0.9225464,-1.140625,0.015625,-0.296875
431,431,1727346681118,-0.32373047,0.324646,0.91522217,-0.140625,0.546875,0.109375
432,432,1727346681158,-0.33154297,0.33026123,0.9257202,-0.03125,0.125,0.078125
433,433,1727346681198,-0.33251953,0.3234253,0.9262085,-0.828125,0.40625,-0.234375
434,434,1727346681238,-0.33569336,0.32073975,0.91448975,-0.515625,0.328125,-0.265625
435,435,1727346681278,-0.32421875,0.31219482,0.91986084,-0.34375,0.28125,-0.09375
436,436,1727346681318,-0.3322754,0.31951904,0.9269409,-0.46875,0.265625,-0.109375
437,437,1727346681358,-0.34375,0.32513428,0.9237671,-0.859375,0.171875,-0.015625
438,438,1727346681398,-0.3359375,0.31732178,0.9208374,-0.703125,0.1875,-0.171875
439,439,1727346681438,-0.33618164,0.3222046,0.9237671,-0.5,0.28125,-0.015625
440,440,1727346681478,-0.33618164,0.322937,0.9215698,-0.609375,0.390625,-0.078125
441,441,1727346681518,-0.328125,0.3217163,0.9232788,-0.3125,0.265625,-0.1875
442,442,1727346681558,-0.3359375,0.32147217,0.9208374,-0.59375,0.421875,-0.15625
443,443,1727346681598,-0.3330078,0.31829834,0.9213257,-0.46875,0.328125,-0.234375
444,444,1727346681638,-0.33618164,0.31951904,0.9213257,-0.515625,0.1875,-0.234375
445,445,1727346681678,-0.33422852,0.31707764,0.9279175,-0.78125,0.234375,-0.25
446,446,1727346681718,-0.33447266,0.31732178,0.9191284,-0.578125,0.515625,-0.171875
447,447,1727346681758,-0.3322754,0.324646,0.92181396,-0.625,0.265625,0.0
448,448,1727346681798,-0.33789062,0.31536865,0.9257202,-0.84375,0.03125,-0.234375
449,449,1727346681838,-0.3334961,0.3217163,0.9369507,-1.078125,-0.71875,-0.1875
450,450,1727346681878,-0.3239746,0.31707764,0.90740967,-0.890625,1.109375,-0.390625
451,451,1727346681918,-0.33984375,0.3168335,0.92767334,-1.0,0.890625,-0.234375
452,452,1727346681958,-0.34033203,0.31829834,0.9242554,-1.375,0.15625,-0.421875
453,453,1727346681998,-0.328125,0.3168335,0.9208374,-0.9375,0.359375,-0.296875
454,454,1727346682038,-0.33129883,0.3192749,0.9176636,-0.203125,0.578125,0.125
455,455,1727346682078,-0.33813477,0.3241577,0.9286499,-0.84375,0.4375,-0.203125
456,456,1727346682118,-0.34375,0.31878662,0.9291382,-0.78125,0.046875,-0.140625
457,457,1727346682158,-0.33374023,0.3151245,0.91400146,-0.625,0.453125,-0.0625
458,458,1727346682198,-0.3347168,0.31463623,0.9320679,-0.546875,0.484375,-0.171875
459,459,1727346682238,-0.34448242,0.31414795,0.92718506,-0.625,0.40625,-0.0625
460,460,1727346682278,-0.33813477,0.31121826,0.9269409,-0.78125,0.359375,-0.296875
461,461,1727346682318,-0.33618164,0.31829834,0.92840576,-0.921875,0.484375,-0.25
462,462,1727346682358,-0.33618164,0.31781006,0.9286499,-0.640625,0.609375,-0.4375
463,463,1727346682398,-0.34301758,0.3192749,0.92401123,-0.765625,0.734375,-0.328125
464,464,1727346682438,-0.3383789,0.3156128,0.9208374,-0.84375,0.6875,-0.296875
465,465,1727346682478,-0.34179688,0.31878662,0.9179077,-0.828125,0.71875,-0.3125
466,466,1727346682518,-0.3388672,0.31829834,0.92352295,-0.796875,0.5625,-0.4375
467,467,1727346682558,-0.33691406,0.31732178,0.9171753,-0.8125,0.5,-0.34375
468,468,1727346682598,-0.33251953,0.32244873,0.920105,-1.15625,1.03125,-0.484375
469,469,1727346682638,-0.33398438,0.3131714,0.92889404,-1.015625,0.453125,-0.375
470,470,1727346682678,-0.33081055,0.32318115,0.918396,-1.75,0.640625,-0.390625
471,471,1727346682718,-0.3334961,0.32122803,0.91864014,-1.125,1.03125,-0.5
472,472,1727346682758,-0.3330078,0.3126831,0.9244995,-1.015625,1.609375,-0.640625
473,473,1727346682798,-0.3413086,0.32025146,0.92523193,-1.609375,0.78125,-0.703125
474,474,1727346682838,-0.33154297,0.3217163,0.9286499,-1.234375,0.703125,-0.734375
475,475,1727346682878,-0.3251953,0.3234253,0.91815186,-0.671875,1.046875,-0.1875
476,476,1727346682918,-0.32910156,0.3209839,0.92596436,-0.75,0.8125,-0.421875
477,477,1727346682958,-0.33203125,0.3217163,0.9293823,-1.375,1.078125,-0.546875
478,478,1727346682998,-0.3317871,0.31536865,0.91986084,-1.34375,0.921875,-0.359375
479,479,1727346683038,-0.32885742,0.32000732,0.9225464,-1.46875,1.234375,-0.4375
480,480,1727346683078,-0.33813477,0.32122803,0.9242554,-1.59375,0.984375,-0.4375
481,481,1727346683118,-0.3256836,0.32635498,0.92303467,-1.734375,0.953125,-0.484375
482,482,1727346683158,-0.3203125,0.3217163,0.91571045,-1.953125,1.015625,-0.421875
483,483,1727346683198,-0.32080078,0.3283081,0.9249878,-1.8125,1.078125,-0.546875
484,484,1727346683238,-0.32861328,0.33050537,0.92401123,-1.625,1.359375,-0.6875
485,485,1727346683278,-0.3269043,0.3319702,0.9254761,-1.890625,1.1875,-0.46875
486,486,1727346683318,-0.3244629,0.32855225,0.91741943,-1.984375,1.015625,-0.546875
487,487,1727346683358,-0.31835938,0.3336792,0.92474365,-1.71875,0.828125,-0.375
488,488,1727346683398,-0.3251953,0.33319092,0.9176636,-1.96875,0.875,-0.375
489,489,1727346683438,-0.32128906,0.32904053,0.9203491,-1.703125,0.828125,-0.515625
490,490,1727346683478,-0.3244629,0.33294678,0.9220581,-1.359375,0.375,-0.203125
491,491,1727346683518,-0.31982422,0.33807373,0.9237671,-1.859375,-0.046875,-0.234375
492,492,1727346683558,-0.31860352,0.33953857,0.91204834,-1.125,0.78125,-0.390625
493,493,1727346683598,-0.3161621,0.33099365,0.9249878,-1.1875,1.046875,-0.296875
494,494,1727346683638,-0.3239746,0.34417725,0.916687,-1.125,0.046875,-0.234375
495,495,1727346683678,-0.31713867,0.3319702,0.9154663,-0.578125,0.25,-0.125
496,496,1727346683718,-0.32104492,0.33953857,0.9237671,0.4375,0.359375,0.3125
497,497,1727346683758,-0.31518555,0.33807373,0.92303467,-0.15625,-0.046875,0.078125
498,498,1727346683798,-0.32421875,0.33514404,0.9254761,-0.609375,-0.171875,-0.125
499,499,1727346683838,-0.32641602,0.3270874,0.92303467,-0.390625,-0.1875,0.109375
500,500,1727346683878,-0.32592773,0.32977295,0.92181396,-0.3125,0.3125,0.09375
501,501,1727346683918,-0.33129883,0.340271,0.9191284,-0.515625,-0.1875,0.046875
502,502,1727346683958,-0.3256836,0.32806396,0.9242554,-0.84375,-0.15625,0.078125
503,503,1727346683998,-0.32348633,0.3307495,0.9135132,-0.4375,0.078125,-0.046875
504,504,1727346684038,-0.32885742,0.33050537,0.9188843,0.0,0.203125,-0.046875
505,505,1727346684078,-0.33081055,0.3287964,0.92230225,-0.21875,0.0,0.09375
506,506,1727346684118,-0.32885742,0.3241577,0.920105,-0.390625,-0.03125,0.015625
507,507,1727346684158,-0.32910156,0.33050537,0.92181396,-0.34375,-0.03125,0.03125
508,508,1727346684198,-0.32861328,0.33099365,0.93084717,-0.328125,-0.140625,0.015625
509,509,1727346684238,-0.3269043,0.32366943,0.9147339,-0.4375,0.265625,0.0
510,510,1727346684278,-0.33374023,0.32147217,0.916687,-0.125,0.078125,0.09375
511,511,1727346684318,-0.33544922,0.31829834,0.9244995,-0.390625,-0.0625,-0.015625
512,512,1727346684358,-0.33984375,0.3258667,0.934021,-0.921875,-0.8125,0.25
513,513,1727346684398,-0.32836914,0.31854248,0.9081421,-0.4375,0.640625,-0.078125
514,514,1727346684438,-0.3330078,0.3163452,0.93084717,-0.78125,0.828125,-0.203125
515,515,1727346684478,-0.34033203,0.33392334,0.9249878,-0.875,-0.546875,-0.15625
516,516,1727346684518,-0.33764648,0.3131714,0.9227905,-0.234375,0.046875,-0.234375
517,517,1727346684558,-0.32910156,0.3217163,0.9188843,-0.1875,0.640625,0.140625
518,518,1727346684598,-0.33032227,0.31951904,0.92767334,-0.4375,0.375,-0.078125
519,519,1727346684638,-0.33618164,0.3163452,0.93011475,-0.421875,-0.125,-0.0625
520,520,1727346684678,-0.3359375,0.31707764,0.9254761,-0.734375,0.140625,0.125
521,521,1727346684718,-0.33862305,0.32000732,0.92401123,-0.265625,0.28125,0.078125
522,522,1727346684758,-0.33984375,0.32025146,0.93011475,-0.171875,0.265625,0.0625
523,523,1727346684798,-0.33544922,0.30975342,0.9237671,-0.609375,0.265625,-0.1875
524,524,1727346684838,-0.3305664,0.3143921,0.92108154,-0.96875,0.484375,-0.03125
525,525,1727346684878,-0.34399414,0.3156128,0.9237671,-0.375,0.375,-0.125
526,526,1727346684918,-0.33618164,0.30316162,0.92108154,-0.578125,0.5625,-0.203125
527,527,1727346684958,-0.3408203,0.32073975,0.9213257,-0.90625,0.484375,-0.09375
528,528,1727346684998,-0.33764648,0.31170654,0.91864014,-0.703125,0.390625,-0.140625
529,529,1727346685038,-0.3371582,0.30682373,0.9188843,-0.90625,0.453125,-0.234375
530,530,1727346685078,-0.33789062,0.31707764,0.92401123,-0.765625,0.265625,-0.109375
531,531,1727346685118,-0.3388672,0.31243896,0.91986084,-0.796875,0.578125,-0.1875
532,532,1727346685158,-0.3400879,0.30706787,0.92303467,-0.515625,0.53125,-0.265625
533,533,1727346685198,-0.3371582,0.3163452,0.918396,-0.953125,0.6875,-0.203125
534,534,1727346685238,-0.34277344,0.30633545,0.92718506,-0.140625,0.546875,-0.3125
535,535,1727346685278,-0.3334961,0.309021,0.9076538,-1.03125,1.21875,-0.421875
536,536,1727346685318,-0.34765625,0.31658936,0.9208374,-1.703125,0.515625,-0.4375
537,537,1727346685358,-0.34106445,0.30926514,0.92523193,-1.265625,0.515625,-0.546875
538,538,1727346685398,-0.33374023,0.31658936,0.91400146,-0.5,0.875,-0.21875
539,539,1727346685438,-0.3347168,0.31854248,0.9159546,-0.796875,0.671875,-0.328125
540,540,1727346685478,-0.3400879,0.31463623,0.9315796,-0.75,0.6875,-0.609375
541,541,1727346685518,-0.34350586,0.30633545,0.9220581,-0.71875,1.0,-0.25
542,542,1727346685558,-0.33666992,0.31072998,0.91522217,-0.609375,0.9375,-0.359375
543,543,1727346685598,-0.33911133,0.31072998,0.9244995,-0.75,0.8125,-0.375
544,544,1727346685638,-0.33544922,0.3131714,0.9232788,-1.015625,0.609375,-0.484375
545,545,1727346685678,-0.32983398,0.30975342,0.91693115,-1.15625,0.890625,-0.390625
546,546,1727346685718,-0.33422852,0.31951904,0.92181396,-1.0,0.96875,-0.34375
547,547,1727346685758,-0.3371582,0.31976318,0.92767334,-0.90625,1.0,-0.421875
548,548,1727346685798,-0.33447266,0.30950928,0.91619873,-0.875,1.140625,-0.390625
549,549,1727346685838,-0.3334961,0.31658936,0.92474365,-1.171875,1.03125,-0.46875
550,550,1727346685878,-0.3334961,0.31121826,0.91864014,-1.3125,0.875,-0.578125
551,551,1727346685918,-0.3334961,0.3163452,0.9262085,-1.1875,0.609375,-0.390625
552,552,1727346685958,-0.3256836,0.3143921,0.91326904,-1.390625,1.25,-0.453125
553,553,1727346685998,-0.3269043,0.31243896,0.92303467,-1.09375,1.125,-0.546875
554,554,1727346686038,-0.3310547,0.3168335,0.9269409,-1.5,1.265625,-0.59375
555,555,1727346686078,-0.3310547,0.31854248,0.93304443,-1.21875,0.125,-0.34375
556,556,1727346686118,-0.3227539,0.3163452,0.9093628,-1.78125,1.859375,-0.703125
557,557,1727346686158,-0.34033203,0.3258667,0.9274292,-2.40625,1.3125,-0.703125
558,558,1727346686198,-0.32836914,0.32855225,0.91619873,-2.203125,0.734375,-0.78125
559,559,1727346686238,-0.32006836,0.322937,0.9196167,-1.578125,1.375,-0.40625
560,560,1727346686278,-0.31860352,0.33587646,0.92352295,-1.125,0.8125,-0.3125
561,561,1727346686318,-0.32055664,0.32806396,0.920105,-1.953125,1.15625,-0.671875
562,562,1727346686358,-0.32202148,0.32489014,0.9237671,-1.796875,0.734375,-0.609375
563,563,1727346686398,-0.32226562,0.32440186,0.918396,-1.3125,0.78125,-0.328125
564,564,1727346686438,-0.32055664,0.32928467,0.92889404,-1.453125,0.8125,-0.34375
565,565,1727346686478,-0.32006836,0.33636475,0.9244995,-1.546875,0.359375,-0.1875
566,566,1727346686518,-0.31982422,0.3324585,0.91448975,-1.359375,0.546875,-0.109375
567,567,1727346686558,-0.30932617,0.3324585,0.92059326,-0.796875,0.265625,-0.125
568,568,1727346686598,-0.3251953,0.3366089,0.92108154,-0.40625,0.125,-0.09375
569,569,1727346686638,-0.3244629,0.3336792,0.9154663,-0.5,0.359375,0.125
570,570,1727346686678,-0.31811523,0.32757568,0.9188843,-0.578125,-0.078125,0.125
571,571,1727346686718,-0.32666016,0.33294678,0.92303467,-0.421875,0.078125,0.125
572,572,1727346686758,-0.32885742,0.3287964,0.92474365,-0.1875,-0.375,0.0625
573,573,1727346686798,-0.31762695,0.3258667,0.916687,-0.609375,0.203125,0.09375
574,574,1727346686838,-0.3256836,0.33026123,0.92474365,-0.15625,-0.25,0.0625
575,575,1727346686878,-0.3251953,0.3222046,0.91741943,-0.484375,0.515625,-0.046875
576,576,1727346686918,-0.32763672,0.3287964,0.92474365,-0.21875,-0.734375,0.15625
577,577,1727346686958,-0.32080078,0.32000732,0.9047241,-0.546875,0.6875,-0.203125
578,578,1727346686998,-0.3400879,0.324646,0.92718506,-1.4375,0.046875,-0.109375
579,579,1727346687038,-0.32666016,0.32928467,0.92523193,-0.625,-0.234375,-0.21875
580,580,1727346687078,-0.32836914,0.32635498,0.91864014,0.015625,0.125,0.203125
581,581,1727346687118,-0.33203125,0.32806396,0.92303467,-0.171875,0.125,0.140625
582,582,1727346687158,-0.33447266,0.32391357,0.91986084,-0.625,0.1875,-0.15625
583,583,1727346687198,-0.33642578,0.3156128,0.9208374,-0.328125,0.03125,0.015625
584,584,1727346687238,-0.33740234,0.3209839,0.9105835,-0.109375,0.1875,-0.015625
585,585,1727346687278,-0.3310547,0.3192749,0.92840576,-0.125,0.265625,-0.0625
586,586,1727346687318,-0.33569336,0.322937,0.92108154,-0.40625,0.078125,0.109375
587,587,1727346687358,-0.33325195,0.31951904,0.92181396,-0.609375,0.171875,-0.0625
588,588,1727346687398,-0.3359375,0.31219482,0.9196167,-0.546875,0.34375,-0.015625
589,589,1727346687438,-0.3330078,0.32366943,0.9242554,-0.671875,0.390625,0.125
590,590,1727346687478,-0.3383789,0.3222046,0.92474365,-0.46875,0.125,-0.046875
591,591,1727346687518,-0.33569336,0.32000732,0.9262085,-0.5625,0.125,0.0625
592,592,1727346687558,-0.33447266,0.3209839,0.91815186,-1.0625,-0.0625,-0.1875
593,593,1727346687598,-0.34106445,0.31756592,0.9237671,-0.875,-0.140625,-0.09375
594,594,1727346687638,-0.33496094,0.31610107,0.9135132,-1.109375,0.71875,-0.25
595,595,1727346687678,-0.3359375,0.31854248,0.9147339,-1.234375,0.109375,-0.125
596,596,1727346687718,-0.34521484,0.32073975,0.9176636,-0.96875,0.328125,-0.28125
597,597,1727346687758,-0.35083008,0.31854248,0.94403076,-0.4375,-0.8125,0.140625
598,598,1727346687798,-0.33447266,0.3151245,0.902771,-0.484375,1.0625,-0.171875
599,599,1727346687838,-0.34887695,0.3217163,0.918396,-1.484375,0.71875,-0.421875
600,600,1727346687878,-0.34521484,0.3287964,0.9215698,-1.234375,-0.0625,-0.375
601,601,1727346687918,-0.3359375,0.31781006,0.916687,-0.34375,0.46875,-0.09375
602,602,1727346687958,-0.33666992,0.32391357,0.91204834,-0.5,0.421875,0.0625
603,603,1727346687998,-0.3479004,0.31048584,0.9266968,-0.71875,0.421875,-0.09375
604,604,1727346688038,-0.34594727,0.30877686,0.9269409,-0.78125,0.515625,-0.140625
605,605,1727346688078,-0.33691406,0.31365967,0.9159546,-0.453125,0.453125,-0.046875
606,606,1727346688118,-0.34179688,0.31854248,0.92108154,0.09375,0.34375,-0.171875
607,607,1727346688158,-0.35107422,0.31585693,0.9213257,-0.75,0.34375,-0.09375
608,608,1727346688198,-0.34448242,0.31951904,0.91448975,-0.828125,0.375,-0.328125
609,609,1727346688238,-0.34228516,0.31585693,0.91937256,-0.5,0.53125,-0.296875
610,610,1727346688278,-0.33862305,0.3168335,0.9232788,-0.734375,0.65625,-0.40625
611,611,1727346688318,-0.34350586,0.31365967,0.9191284,-0.6875,0.75,-0.375
612,612,1727346688358,-0.34204102,0.3163452,0.92230225,-1.0,0.65625,-0.3125
613,613,1727346688398,-0.34228516,0.31488037,0.9225464,-0.296875,0.46875,-0.34375
614,614,1727346688438,-0.34204102,0.32000732,0.9262085,-0.84375,0.640625,-0.234375
615,615,1727346688478,-0.33520508,0.31536865,0.920105,-0.78125,0.8125,-0.375
616,616,1727346688518,-0.34326172,0.3139038,0.9242554,-0.828125,0.9375,-0.390625
617,617,1727346688558,-0.34350586,0.30999756,0.93011475,-0.703125,0.71875,-0.3125
618,618,1727346688598,-0.3395996,0.31854248,0.91815186,-1.640625,0.90625,-0.375
619,619,1727346688638,-0.32836914,0.31488037,0.9154663,-0.9375,1.28125,-0.578125
620,620,1727346688678,-0.33374023,0.31170654,0.9164429,-1.125,1.703125,-0.53125
621,621,1727346688718,-0.3395996,0.31781006,0.92352295,-1.640625,0.75,-0.6875
622,622,1727346688758,-0.3293457,0.31707764,0.92108154,-1.53125,0.96875,-0.765625
623,623,1727346688798,-0.32666016,0.3222046,0.918396,-0.5625,1.265625,-0.15625
624,624,1727346688838,-0.33520508,0.32391357,0.9328003,-0.828125,0.765625,-0.46875
625,625,1727346688878,-0.328125,0.31365967,0.9274292,-1.390625,1.0,-0.5625
626,626,1727346688918,-0.3305664,0.3131714,0.91522217,-1.4375,1.0625,-0.375
627,627,1727346688958,-0.32836914,0.31610107,0.92181396,-1.0,1.03125,-0.359375
628,628,1727346688998,-0.3395996,0.3156128,0.9249878,-1.453125,1.125,-0.53125
629,629,1727346689038,-0.3310547,0.31414795,0.9196167,-1.8125,0.90625,-0.640625
630,630,1727346689078,-0.32641602,0.3168335,0.92059326,-1.5625,0.96875,-0.59375
631,631,1727346689118,-0.32348633,0.3204956,0.9269409,-1.59375,0.890625,-0.421875
632,632,1727346689158,-0.33203125,0.32244873,0.91815186,-1.484375,1.3125,-0.515625
633,633,1727346689198,-0.32543945,0.3270874,0.92230225,-1.859375,1.078125,-0.46875
634,634,1727346689238,-0.32373047,0.32196045,0.92352295,-1.796875,0.78125,-0.5
635,635,1727346689278,-0.32641602,0.32391357,0.9244995,-1.546875,0.765625,-0.359375
636,636,1727346689318,-0.32080078,0.33050537,0.9137573,-1.875,1.0625,-0.5625
637,637,1727346689358,-0.31713867,0.324646,0.91937256,-1.359375,0.671875,-0.421875
638,638,1727346689398,-0.32543945,0.322937,0.92645264,-1.4375,0.484375,-0.203125
639,639,1727346689438,-0.3244629,0.32781982,0.9274292,-1.734375,-0.25,-0.140625
640,640,1727346689478,-0.32104492,0.32904053,0.9015503,-0.859375,1.015625,-0.203125
641,641,1727346689518,-0.3269043,0.32318115,0.92718506,-0.6875,0.796875,-0.328125
642,642,1727346689558,-0.33374023,0.33538818,0.9196167,-1.078125,-0.03125,-0.40625
643,643,1727346689598,-0.31176758,0.32684326,0.9137573,-0.609375,0.34375,-0.21875
644,644,1727346689638,-0.32006836,0.33538818,0.9262085,0.296875,0.21875,0.375
645,645,1727346689678,-0.3232422,0.33099365,0.9274292,-0.484375,0.0625,0.015625
646,646,1727346689718,-0.328125,0.32196045,0.9257202,-0.640625,-0.3125,-0.0625
647,647,1727346689758,-0.32373047,0.3217163,0.92059326,-0.5625,-0.25,0.078125
648,648,1727346689798,-0.3330078,0.3300171,0.9298706,-0.15625,-0.15625,-0.109375
649,649,1727346689838,-0.3383789,0.32757568,0.9269409,-0.265625,-0.109375,0.171875
650,650,1727346689878,-0.32836914,0.32513428,0.9137573,-0.765625,-0.0625,-0.03125
651,651,1727346689918,-0.32226562,0.3217163,0.91815186,-0.4375,-0.078125,0.046875
652,652,1727346689958,-0.33447266,0.32122803,0.9159546,-0.046875,0.203125,-0.03125
653,653,1727346689998,-0.34448242,0.32000732,0.9203491,-0.296875,0.0,-0.09375
654,654,1727346690038,-0.34033203,0.32318115,0.91741943,-0.3125,-0.140625,-0.171875
655,655,1727346690078,-0.32836914,0.31903076,0.920105,-0.375,-0.1875,0.046875
656,656,1727346690118,-0.33325195,0.3192749,0.92767334,-0.484375,-0.15625,0.046875
657,657,1727346690158,-0.33325195,0.32000732,0.92352295,-0.21875,0.1875,-0.015625
658,658,1727346690198,-0.3347168,0.31341553,0.91815186,-0.5,0.25,0.0
659,659,1727346690238,-0.33911133,0.3217163,0.9249878,-0.421875,-0.171875,-0.1875
660,660,1727346690278,-0.33813477,0.32025146,0.94329834,-0.734375,-0.921875,0.046875
661,661,1727346690318,-0.33154297,0.31732178,0.9093628,-0.65625,0.765625,-0.265625
662,662,1727346690358,-0.3334961,0.31585693,0.9266968,-1.15625,1.109375,-0.171875
663,663,1727346690398,-0.34448242,0.324646,0.9286499,-1.078125,-0.296875,-0.359375
664,664,1727346690438,-0.34155273,0.3163452,0.9232788,-0.71875,0.1875,-0.0625
665,665,1727346690478,-0.33520508,0.32366943,0.9125366,-0.0625,0.484375,0.21875
666,666,1727346690518,-0.3371582,0.3163452,0.92401123,-0.78125,0.28125,0.0625
667,667,1727346690558,-0.34277344,0.3151245,0.9274292,-0.640625,0.015625,-0.25
668,668,1727346690598,-0.33813477,0.31341553,0.91400146,-0.5625,0.3125,-0.171875
669,669,1727346690638,-0.33813477,0.31048584,0.92401123,-0.671875,0.3125,-0.265625
670,670,1727346690678,-0.34228516,0.31976318,0.9281616,-0.484375,0.390625,0.0625
671,671,1727346690718,-0.33813477,0.3114624,0.9164429,-0.84375,0.28125,-0.28125
672,672,1727346690758,-0.3330078,0.3163452,0.91986084,-0.984375,0.46875,-0.203125
673,673,1727346690798,-0.33935547,0.32684326,0.92059326,-0.796875,0.546875,-0.1875
674,674,1727346690838,-0.34155273,0.3114624,0.9227905,-0.625,0.40625,-0.125
675,675,1727346690878,-0.34179688,0.30950928,0.9215698,-0.765625,0.5625,-0.171875
676,676,1727346690918,-0.33569336,0.31878662,0.9225464,-0.640625,0.4375,-0.296875
677,677,1727346690958,-0.33618164,0.31195068,0.9249878,-0.828125,0.390625,-0.140625
678,678,1727346690998,-0.33764648,0.31463623,0.920105,-0.90625,0.5625,-0.34375
679,679,1727346691038,-0.33398438,0.3151245,0.9196167,-0.796875,0.546875,-0.078125
680,680,1727346691078,-0.34643555,0.31536865,0.9303589,-0.640625,0.421875,-0.109375
681,681,1727346691118,-0.3461914,0.31341553,0.9196167,-1.34375,0.25,-0.078125
682,682,1727346691158,-0.34179688,0.3126831,0.9113159,-0.796875,0.90625,-0.484375
683,683,1727346691198,-0.34399414,0.3131714,0.9227905,-1.0625,1.015625,-0.375
684,684,1727346691238,-0.35058594,0.31878662,0.92181396,-1.40625,0.203125,-0.46875
685,685,1727346691278,-0.3400879,0.31463623,0.92181396,-1.046875,0.65625,-0.3125
686,686,1727346691318,-0.32958984,0.31341553,0.9274292,-0.359375,0.75,0.03125
687,687,1727346691358,-0.33129883,0.3192749,0.9266968,-0.78125,0.75,-0.34375
688,688,1727346691398,-0.3388672,0.3139038,0.92401123,-0.921875,0.625,-0.53125
689,689,1727346691438,-0.34350586,0.31219482,0.9164429,-0.90625,0.75,-0.25
690,690,1727346691478,-0.33764648,0.31243896,0.9269409,-0.46875,0.765625,-0.140625
691,691,1727346691518,-0.34033203,0.3143921,0.93255615,-0.765625,0.828125,-0.390625
692,692,1727346691558,-0.3388672,0.31243896,0.9254761,-1.15625,0.703125,-0.328125
693,693,1727346691598,-0.34033203,0.3139038,0.918396,-1.109375,0.71875,-0.359375
694,694,1727346691638,-0.33862305,0.31243896,0.9225464,-0.875,0.96875,-0.5625
695,695,1727346691678,-0.3395996,0.3168335,0.9249878,-0.828125,0.796875,-0.453125
696,696,1727346691718,-0.33984375,0.31878662,0.9188843,-1.109375,0.796875,-0.484375
697,697,1727346691758,-0.33789062,0.31341553,0.9191284,-0.9375,0.765625,-0.28125
698,698,1727346691798,-0.33422852,0.31585693,0.9208374,-0.84375,0.875,-0.359375
699,699,1727346691838,-0.3305664,0.31488037,0.9225464,-0.96875,0.734375,-0.390625
700,700,1727346691878,-0.33544922,0.31219482,0.920105,-1.40625,1.171875,-0.625
701,701,1727346691918,-0.33447266,0.3156128,0.92596436,-1.109375,0.890625,-0.375
702,702,1727346691958,-0.32910156,0.3209839,0.918396,-1.484375,1.109375,-0.46875
703,703,1727346691998,-0.33666992,0.3163452,0.9320679,-1.203125,0.015625,-0.421875
704,704,1727346692038,-0.32714844,0.31951904,0.90301514,-1.640625,1.875,-0.6875
705,705,1727346692078,-0.34399414,0.31292725,0.93548584,-1.71875,1.140625,-0.578125
706,706,1727346692118,-0.3317871,0.32855225,0.91693115,-2.078125,0.703125,-0.75
707,707,1727346692158,-0.3244629,0.31488037,0.9215698,-1.296875,1.140625,-0.453125
708,708,1727346692198,-0.32861328,0.32025146,0.9213257,-1.0,0.875,-0.140625
709,709,1727346692238,-0.3317871,0.3258667,0.9291382,-1.703125,0.953125,-0.65625
710,710,1727346692278,-0.33398438,0.32073975,0.920105,-1.53125,0.859375,-0.625
711,711,1727346692318,-0.31762695,0.32244873,0.91986084,-1.125,1.015625,-0.390625
712,712,1727346692358,-0.3305664,0.3217163,0.930603,-1.265625,0.859375,-0.390625
713,713,1727346692398,-0.33007812,0.3270874,0.9203491,-1.875,0.75,-0.34375
714,714,1727346692438,-0.32348633,0.32855225,0.914978,-1.71875,0.53125,-0.359375
715,715,1727346692478,-0.32202148,0.32781982,0.91571045,-1.15625,0.5,-0.234375
716,716,1727346692518,-0.32617188,0.32611084,0.92108154,-0.796875,0.484375,-0.25
717,717,1727346692558,-0.33032227,0.32781982,0.91278076,-0.828125,0.46875,0.015625
718,718,1727346692598,-0.328125,0.32269287,0.9196167,-0.609375,0.265625,-0.140625
719,719,1727346692638,-0.33276367,0.33172607,0.92303467,-0.53125,0.0625,0.03125
720,720,1727346692678,-0.3227539,0.32611084,0.9249878,-0.296875,-0.0625,0.15625
721,721,1727346692718,-0.32641602,0.32073975,0.9203491,-0.6875,0.359375,-0.171875
722,722,1727346692758,-0.33496094,0.32122803,0.9188843,-0.375,0.078125,-0.09375
723,723,1727346692798,-0.3334961,0.32269287,0.91741943,-0.46875,0.203125,-0.03125
724,724,1727346692838,-0.3293457,0.32904053,0.9315796,-0.125,-0.890625,0.015625
725,725,1727346692878,-0.3256836,0.3204956,0.9020386,-0.578125,0.734375,-0.265625
726,726,1727346692918,-0.34570312,0.32025146,0.9291382,-1.09375,-0.015625,-0.25
727,727,1727346692958,-0.3310547,0.3258667,0.9208374,-0.703125,-0.15625,-0.171875
728,728,1727346692998,-0.32299805,0.31951904,0.9171753,-0.265625,0.125,0.09375
729,729,1727346693038,-0.33129883,0.3209839,0.9179077,0.25,-0.09375,0.078125
730,730,1727346693078,-0.33764648,0.31829834,0.92230225,-0.71875,0.0625,-0.0625
731,731,1727346693118,-0.3395996,0.31707764,0.9274292,-0.5,0.03125,-0.1875
732,732,1727346693158,-0.3388672,0.31732178,0.9196167,-0.15625,0.28125,0.0625
733,733,1727346693198,-0.33691406,0.32073975,0.92523193,-0.1875,0.265625,0.046875
734,734,1727346693238,-0.33764648,0.32562256,0.9176636,-0.5625,0.0,-0.078125
735,735,1727346693278,-0.3322754,0.3222046,0.92059326,-0.671875,-0.0625,-0.046875
736,736,1727346693318,-0.3347168,0.31414795,0.92108154,-0.34375,0.15625,-0.109375
737,737,1727346693358,-0.33740234,0.31829834,0.9215698,-0.609375,0.46875,0.0
738,738,1727346693398,-0.33911133,0.32391357,0.91864014,-0.390625,0.421875,-0.15625
739,739,1727346693438,-0.33618164,0.31536865,0.92352295,-0.59375,0.21875,-0.09375
740,740,1727346693478,-0.3347168,0.31707764,0.9213257,-0.609375,0.296875,-0.21875
741,741,1727346693518,-0.3408203,0.31048584,0.92303467,-0.703125,0.328125,-0.078125
742,742,1727346693558,-0.33984375,0.31488037,0.91864014,-0.65625,0.375,-0.0625
743,743,1727346693598,-0.3371582,0.31488037,0.9203491,-0.703125,0.46875,-0.09375
744,744,1727346693638,-0.34326172,0.307312,0.9257202,-0.40625,0.25,-0.09375
745,745,1727346693678,-0.33374023,0.31463623,0.9113159,-1.203125,0.5625,-0.359375
746,746,1727346693718,-0.3425293,0.3163452,0.92181396,-0.515625,0.484375,-0.171875
747,747,1727346693758,-0.33129883,0.31292725,0.91326904,-0.875,1.0,-0.265625
748,748,1727346693798,-0.3486328,0.32122803,0.9232788,-1.609375,0.28125,-0.34375
749,749,1727346693838,-0.33935547,0.31854248,0.9254761,-1.25,0.15625,-0.46875
750,750,1727346693878,-0.3388672,0.31243896,0.91937256,-0.1875,0.453125,-0.109375
751,751,1727346693918,-0.33251953,0.32269287,0.916687,-0.578125,0.390625,0.078125
752,752,1727346693958,-0.34765625,0.31292725,0.9232788,-0.828125,0.46875,-0.3125
753,753,1727346693998,-0.34448242,0.30975342,0.9227905,-0.859375,0.484375,-0.125
754,754,1727346694038,-0.33789062,0.3131714,0.91741943,-0.6875,0.6875,-0.390625
755,755,1727346694078,-0.34423828,0.3131714,0.92352295,-0.703125,0.5625,-0.390625
756,756,1727346694118,-0.34033203,0.30877686,0.9220581,-0.984375,0.359375,-0.328125
757,757,1727346694158,-0.33251953,0.31195068,0.9164429,-1.265625,0.3125,-0.375
758,758,1727346694198,-0.3400879,0.3217163,0.91937256,-0.90625,0.75,-0.34375
759,759,1727346694238,-0.34179688,0.32000732,0.92230225,-0.84375,0.609375,-0.5
