,Unnamed: 0,timestamp,accel_x,accel_y,accel_z,gyro_x,gyro_y,gyro_z
0,0,1727198415464,-0.17822266,-0.37994385,0.94403076,0.109375,-1.0625,-0.34375
1,1,1727198415504,-0.18017578,-0.3706665,0.9447632,-0.046875,-1.21875,-0.375
2,2,1727198415544,-0.18554688,-0.3735962,0.9476929,0.125,-1.171875,-0.265625
3,3,1727198415584,-0.1862793,-0.3711548,0.9430542,0.15625,-0.828125,-0.1875
4,4,1727198415624,-0.1862793,-0.37042236,0.9450073,-0.15625,-1.125,-0.1875
5,5,1727198415664,-0.19067383,-0.3694458,0.951355,-0.171875,-1.328125,-0.375
6,6,1727198415704,-0.19189453,-0.36505127,0.9467163,-0.171875,-1.890625,-0.546875
7,7,1727198415744,-0.19091797,-0.3682251,0.9423218,-0.21875,-1.734375,-0.328125
8,8,1727198415784,-0.19628906,-0.3743286,0.947937,0.203125,-0.890625,-0.234375
9,9,1727198415824,-0.19067383,-0.35064697,0.93963623,-0.71875,-1.9375,-0.25
10,10,1727198415864,-0.20019531,-0.3591919,0.9425659,-0.25,-1.53125,-0.34375
11,11,1727198415904,-0.20629883,-0.37335205,0.9545288,-0.484375,-1.203125,-0.296875
12,12,1727198415944,-0.19433594,-0.35821533,0.9557495,-0.25,-1.65625,-0.5
13,13,1727198415984,-0.2084961,-0.3538208,0.9447632,-0.265625,-1.640625,-0.59375
14,14,1727198416024,-0.20654297,-0.34942627,0.9437866,0.265625,-0.015625,-0.140625
15,15,1727198416064,-0.2006836,-0.35308838,0.9528198,0.390625,-0.5,-0.21875
16,16,1727198416104,-0.20751953,-0.35943604,0.94696045,-0.3125,-1.125,-0.234375
17,17,1727198416144,-0.20629883,-0.36309814,0.95599365,0.453125,-0.5625,-0.359375
18,18,1727198416184,-0.203125,-0.34869385,0.94207764,0.109375,-1.15625,-0.359375
19,19,1727198416224,-0.2097168,-0.35406494,0.9503784,0.421875,-1.078125,-0.203125
20,20,1727198416264,-0.20800781,-0.347229,0.947937,0.296875,-1.09375,-0.359375
21,21,1727198416304,-0.2097168,-0.34649658,0.9503784,0.5625,-0.78125,-0.40625
22,22,1727198416344,-0.21679688,-0.34747314,0.94573975,0.4375,-0.734375,-0.4375
23,23,1727198416384,-0.21777344,-0.35162354,0.9491577,0.78125,-0.25,-0.390625
24,24,1727198416424,-0.21386719,-0.34796143,0.9423218,0.75,0.125,-0.296875
25,25,1727198416464,-0.2097168,-0.34674072,0.9459839,0.921875,1.140625,-0.0625
26,26,1727198416504,-0.20263672,-0.3508911,0.94744873,1.328125,1.171875,-0.140625
27,27,1727198416544,-0.21044922,-0.348938,0.95233154,1.296875,0.84375,0.03125
28,28,1727198416584,-0.2133789,-0.34942627,0.9467163,1.140625,-0.234375,-0.328125
29,29,1727198416624,-0.2055664,-0.34698486,0.947937,1.484375,0.265625,-0.296875
30,30,1727198416664,-0.21313477,-0.35308838,0.95477295,1.8125,1.140625,-0.109375
31,31,1727198416704,-0.20239258,-0.3418579,0.94036865,1.03125,-0.25,-0.3125
32,32,1727198416744,-0.20947266,-0.35333252,0.94866943,2.125,1.015625,-0.125
33,33,1727198416784,-0.21191406,-0.35430908,0.94647217,1.125,0.140625,-0.421875
34,34,1727198416824,-0.20336914,-0.36383057,0.94940186,1.40625,-0.046875,-0.34375
35,35,1727198416864,-0.21020508,-0.347229,0.94403076,1.078125,-0.0625,-0.09375
36,36,1727198416904,-0.20605469,-0.3484497,0.9489136,1.875,2.140625,0.0625
37,37,1727198416944,-0.20361328,-0.35943604,0.95648193,1.90625,1.171875,-0.015625
38,38,1727198416984,-0.20458984,-0.3657837,0.9437866,1.265625,0.84375,-0.21875
39,39,1727198417024,-0.20385742,-0.37042236,0.9550171,2.1875,2.203125,-0.078125
40,40,1727198417064,-0.19482422,-0.34625244,0.9442749,1.640625,1.0625,-0.015625
41,41,1727198417104,-0.19360352,-0.3591919,0.946228,1.734375,0.359375,-0.5
42,42,1727198417144,-0.19799805,-0.3670044,0.947937,1.875,0.640625,-0.3125
43,43,1727198417184,-0.19873047,-0.3587036,0.949646,1.65625,0.9375,-0.171875
44,44,1727198417224,-0.1928711,-0.36016846,0.94403076,1.125,0.78125,0.015625
45,45,1727198417264,-0.18896484,-0.364563,0.9442749,1.359375,0.828125,-0.203125
46,46,1727198417304,-0.19091797,-0.36846924,0.94451904,1.609375,0.53125,-0.3125
47,47,1727198417344,-0.19140625,-0.36968994,0.9476929,1.4375,0.421875,-0.21875
48,48,1727198417384,-0.19213867,-0.3657837,0.9430542,1.28125,0.90625,-0.265625
49,49,1727198417424,-0.1899414,-0.36846924,0.94940186,2.078125,1.921875,-0.109375
50,50,1727198417464,-0.18579102,-0.36724854,0.94451904,2.109375,1.59375,-0.03125
51,51,1727198417504,-0.17919922,-0.36993408,0.94940186,1.828125,0.46875,-0.328125
52,52,1727198417544,-0.18457031,-0.36749268,0.951355,1.59375,0.078125,-0.34375
53,53,1727198417584,-0.18041992,-0.36676025,0.94744873,1.171875,-0.15625,-0.140625
54,54,1727198417624,-0.18798828,-0.37139893,0.9472046,1.34375,0.265625,-0.4375
55,55,1727198417664,-0.18383789,-0.3760376,0.9381714,0.75,0.421875,-0.171875
56,56,1727198417704,-0.18237305,-0.38043213,0.9586792,2.03125,0.34375,-0.375
57,57,1727198417744,-0.18066406,-0.36749268,0.9320679,0.671875,-0.546875,-0.109375
58,58,1727198417784,-0.19311523,-0.38311768,0.9447632,0.546875,-1.453125,-0.65625
59,59,1727198417824,-0.18310547,-0.3760376,0.947937,0.703125,-0.078125,-0.28125
60,60,1727198417864,-0.18725586,-0.37042236,0.9418335,1.125,1.515625,0.171875
61,61,1727198417904,-0.18457031,-0.36993408,0.94696045,1.46875,0.5,-0.28125
62,62,1727198417944,-0.18457031,-0.37579346,0.946228,1.515625,0.609375,-0.125
63,63,1727198417984,-0.18188477,-0.378479,0.94818115,1.375,1.15625,-0.03125
64,64,1727198418024,-0.18481445,-0.3826294,0.946228,1.4375,0.96875,-0.078125
65,65,1727198418064,-0.18139648,-0.37091064,0.93499756,0.828125,0.03125,-0.28125
66,66,1727198418104,-0.17675781,-0.37554932,0.94451904,1.296875,0.671875,-0.140625
67,67,1727198418144,-0.1809082,-0.37652588,0.9413452,1.0,0.109375,-0.328125
68,68,1727198418184,-0.18066406,-0.37823486,0.95062256,1.171875,0.09375,-0.28125
69,69,1727198418224,-0.1694336,-0.3772583,0.94158936,1.046875,0.0,-0.390625
70,70,1727198418264,-0.1784668,-0.37921143,0.94403076,1.3125,0.640625,-0.125
71,71,1727198418304,-0.17675781,-0.38189697,0.94696045,1.140625,0.21875,-0.109375
72,72,1727198418344,-0.17041016,-0.37506104,0.94158936,0.875,-0.140625,-0.28125
73,73,1727198418384,-0.17773438,-0.3814087,0.9384155,1.0625,0.078125,-0.34375
74,74,1727198418424,-0.17626953,-0.3735962,0.9447632,1.1875,0.28125,-0.09375
75,75,1727198418464,-0.17675781,-0.38409424,0.9418335,1.109375,0.21875,-0.34375
76,76,1727198418504,-0.17480469,-0.38067627,0.9425659,1.03125,0.234375,-0.125
77,77,1727198418544,-0.17285156,-0.37774658,0.94403076,1.09375,0.453125,0.015625
78,78,1727198418584,-0.17871094,-0.37701416,0.9423218,1.015625,0.46875,-0.125
79,79,1727198418624,-0.17504883,-0.38311768,0.94525146,1.234375,0.21875,-0.28125
80,80,1727198418664,-0.16992188,-0.37750244,0.9437866,0.96875,0.015625,-0.203125
81,81,1727198418704,-0.17456055,-0.38458252,0.94744873,1.453125,0.0,-0.40625
82,82,1727198418744,-0.16992188,-0.3743286,0.9413452,0.4375,-0.34375,-0.328125
83,83,1727198418784,-0.17456055,-0.38360596,0.95355225,1.796875,0.28125,-0.03125
84,84,1727198418824,-0.17504883,-0.37579346,0.94329834,0.25,-1.640625,-0.484375
85,85,1727198418864,-0.18457031,-0.38433838,0.9430542,0.359375,-1.390625,-0.484375
86,86,1727198418904,-0.17114258,-0.38409424,0.94085693,0.484375,-0.4375,-0.125
87,87,1727198418944,-0.17578125,-0.37506104,0.947937,0.375,-0.34375,-0.21875
88,88,1727198418984,-0.17895508,-0.37554932,0.95306396,0.59375,-1.640625,-0.515625
89,89,1727198419024,-0.1796875,-0.38360596,0.9430542,0.078125,-1.296875,-0.265625
90,90,1727198419064,-0.18701172,-0.37677002,0.9447632,-0.5,-1.25,-0.15625
91,91,1727198419104,-0.18115234,-0.37554932,0.94158936,0.25,-1.078125,-0.03125
92,92,1727198419144,-0.1899414,-0.3665161,0.94036865,-0.40625,-2.046875,-0.328125
93,93,1727198419184,-0.1928711,-0.37213135,0.9352417,0.328125,-1.953125,-0.46875
94,94,1727198419224,-0.18847656,-0.37213135,0.9520874,-0.109375,-1.421875,-0.28125
95,95,1727198419264,-0.19458008,-0.37261963,0.951355,-0.015625,-2.109375,-0.515625
96,96,1727198419304,-0.20507812,-0.36358643,0.93743896,-0.328125,-1.46875,-0.4375
97,97,1727198419344,-0.19506836,-0.36627197,0.9425659,0.15625,-1.453125,-0.265625
98,98,1727198419384,-0.19824219,-0.36773682,0.9315796,-0.390625,-2.359375,-0.46875
99,99,1727198419424,-0.20019531,-0.3587036,0.94573975,-0.328125,-1.296875,-0.359375
100,100,1727198419464,-0.20629883,-0.3633423,0.94818115,-0.203125,-2.078125,-0.421875
101,101,1727198419504,-0.2109375,-0.36260986,0.9359741,-0.328125,-1.921875,-0.46875
102,102,1727198419544,-0.21289062,-0.36431885,0.94866943,-0.375,-2.0625,-0.484375
103,103,1727198419584,-0.21557617,-0.36431885,0.94818115,-0.453125,-2.6875,-0.6875
104,104,1727198419624,-0.21777344,-0.35650635,0.9411011,-0.546875,-2.0,-0.421875
105,105,1727198419664,-0.21801758,-0.35162354,0.9515991,-0.171875,-2.140625,-0.5
106,106,1727198419704,-0.22021484,-0.35528564,0.94403076,-0.28125,-1.171875,-0.296875
107,107,1727198419744,-0.22558594,-0.3555298,0.9381714,-0.015625,-1.390625,-0.34375
108,108,1727198419784,-0.22143555,-0.34625244,0.94940186,0.03125,-2.28125,-0.5
109,109,1727198419824,-0.22216797,-0.33795166,0.93743896,-0.125,-0.578125,-0.296875
110,110,1727198419864,-0.22558594,-0.36480713,0.9476929,0.390625,-0.359375,-0.296875
111,111,1727198419904,-0.22485352,-0.3430786,0.9484253,-0.03125,-1.71875,-0.546875
112,112,1727198419944,-0.22753906,-0.34039307,0.94158936,0.203125,0.0625,-0.265625
113,113,1727198419984,-0.22729492,-0.33795166,0.94451904,0.953125,1.4375,0.015625
114,114,1727198420024,-0.22705078,-0.34527588,0.9442749,1.265625,1.15625,0.0625
115,115,1727198420064,-0.22167969,-0.34747314,0.93499756,1.03125,0.984375,-0.0625
116,116,1727198420104,-0.22949219,-0.347229,0.9435425,1.75,1.5625,-0.0625
117,117,1727198420144,-0.21923828,-0.34503174,0.94940186,1.734375,0.796875,-0.078125
118,118,1727198420184,-0.22314453,-0.3484497,0.94818115,1.953125,0.921875,-0.0625
119,119,1727198420224,-0.21801758,-0.34625244,0.946228,1.390625,0.796875,-0.53125
120,120,1727198420264,-0.22070312,-0.35650635,0.9467163,1.6875,1.578125,-0.203125
121,121,1727198420304,-0.22045898,-0.347229,0.9430542,1.65625,1.390625,-0.203125
122,122,1727198420344,-0.21264648,-0.3538208,0.94158936,1.5625,0.78125,-0.21875
123,123,1727198420384,-0.20898438,-0.35723877,0.94744873,1.640625,0.875,-0.1875
124,124,1727198420424,-0.21411133,-0.35284424,0.9384155,1.40625,0.859375,-0.125
125,125,1727198420464,-0.20654297,-0.3562622,0.94647217,1.625,0.859375,-0.328125
126,126,1727198420504,-0.20825195,-0.35650635,0.9501343,1.4375,0.625,-0.3125
127,127,1727198420544,-0.21142578,-0.3550415,0.9450073,1.265625,0.875,-0.15625
128,128,1727198420584,-0.20703125,-0.3538208,0.9413452,1.21875,1.265625,-0.328125
129,129,1727198420624,-0.2043457,-0.36309814,0.94744873,1.9375,1.921875,-0.140625
130,130,1727198420664,-0.20263672,-0.3591919,0.94403076,1.703125,1.125,-0.140625
131,131,1727198420704,-0.20092773,-0.36798096,0.9491577,2.125,1.484375,-0.09375
132,132,1727198420744,-0.19897461,-0.35723877,0.9406128,0.890625,0.53125,-0.25
133,133,1727198420784,-0.20043945,-0.36676025,0.9459839,2.0,1.125,-0.109375
134,134,1727198420824,-0.20410156,-0.35528564,0.9369507,0.3125,-0.328125,-0.234375
135,135,1727198420864,-0.20336914,-0.37384033,0.9423218,0.984375,0.328125,-0.1875
136,136,1727198420904,-0.19580078,-0.3657837,0.94207764,1.234375,0.953125,-0.203125
137,137,1727198420944,-0.19580078,-0.35821533,0.946228,1.328125,1.71875,-0.03125
138,138,1727198420984,-0.2006836,-0.36358643,0.9567261,1.609375,1.203125,-0.03125
139,139,1727198421024,-0.19433594,-0.36431885,0.94573975,1.375,1.109375,-0.03125
140,140,1727198421064,-0.19750977,-0.37042236,0.94525146,1.296875,0.921875,-0.21875
141,141,1727198421104,-0.19189453,-0.3657837,0.946228,1.390625,1.078125,-0.109375
142,142,1727198421144,-0.18652344,-0.3616333,0.94647217,1.265625,0.125,-0.46875
143,143,1727198421184,-0.19042969,-0.3718872,0.9491577,1.328125,0.46875,-0.140625
144,144,1727198421224,-0.18725586,-0.36871338,0.95306396,1.421875,0.40625,-0.265625
145,145,1727198421264,-0.1899414,-0.3694458,0.946228,1.296875,0.015625,-0.3125
146,146,1727198421304,-0.18798828,-0.3657837,0.9459839,1.171875,0.203125,-0.234375
147,147,1727198421344,-0.18847656,-0.36724854,0.9550171,1.375,0.765625,-0.15625
148,148,1727198421384,-0.19238281,-0.36846924,0.94158936,1.109375,0.71875,-0.21875
149,149,1727198421424,-0.1862793,-0.3682251,0.9472046,1.25,0.34375,-0.328125
150,150,1727198421464,-0.19018555,-0.3723755,0.9450073,1.4375,0.296875,-0.3125
151,151,1727198421504,-0.18920898,-0.3718872,0.94818115,1.203125,0.390625,-0.359375
152,152,1727198421544,-0.1899414,-0.36749268,0.94647217,1.171875,0.4375,-0.328125
153,153,1727198421584,-0.18432617,-0.37091064,0.94989014,1.1875,0.328125,-0.15625
154,154,1727198421624,-0.18359375,-0.3682251,0.94744873,1.234375,0.53125,-0.21875
155,155,1727198421664,-0.18261719,-0.37408447,0.9450073,1.421875,0.4375,-0.21875
156,156,1727198421704,-0.18286133,-0.36993408,0.9411011,1.21875,0.578125,-0.203125
157,157,1727198421744,-0.18261719,-0.37677002,0.94158936,1.265625,0.390625,-0.21875
158,158,1727198421784,-0.18579102,-0.3735962,0.94647217,1.171875,0.046875,-0.171875
159,159,1727198421824,-0.17993164,-0.37506104,0.9401245,1.125,0.28125,-0.125
160,160,1727198421864,-0.18652344,-0.3796997,0.946228,1.578125,0.578125,-0.265625
161,161,1727198421904,-0.18237305,-0.36993408,0.9520874,0.546875,0.0,-0.234375
162,162,1727198421944,-0.18286133,-0.38897705,0.9606323,2.0625,0.515625,-0.21875
163,163,1727198421984,-0.17553711,-0.36309814,0.92889404,0.203125,-0.9375,-0.34375
164,164,1727198422024,-0.18432617,-0.37579346,0.94036865,0.84375,-1.328125,-0.515625
165,165,1727198422064,-0.18237305,-0.37994385,0.94085693,1.0625,0.453125,-0.21875
166,166,1727198422104,-0.18579102,-0.37579346,0.94207764,1.0,1.671875,-0.046875
167,167,1727198422144,-0.18310547,-0.36749268,0.94818115,1.328125,0.4375,-0.21875
168,168,1727198422184,-0.17749023,-0.37774658,0.9472046,1.3125,0.96875,-0.078125
169,169,1727198422224,-0.18798828,-0.37554932,0.9430542,0.90625,0.53125,-0.1875
170,170,1727198422264,-0.17797852,-0.3826294,0.9418335,1.203125,0.5625,-0.109375
171,171,1727198422304,-0.17919922,-0.3760376,0.9437866,0.953125,0.3125,-0.25
172,172,1727198422344,-0.17993164,-0.378479,0.9459839,1.09375,0.375,-0.078125
173,173,1727198422384,-0.17504883,-0.37945557,0.94525146,0.96875,-0.390625,-0.328125
174,174,1727198422424,-0.1809082,-0.37384033,0.9435425,0.765625,-1.1875,-0.328125
175,175,1727198422464,-0.17797852,-0.3826294,0.9467163,0.3125,-1.25,-0.3125
176,176,1727198422504,-0.18115234,-0.3735962,0.94281006,0.40625,-0.765625,-0.25
177,177,1727198422544,-0.18579102,-0.3789673,0.9423218,0.328125,-0.75,-0.125
178,178,1727198422584,-0.18115234,-0.38043213,0.94525146,0.265625,-1.078125,-0.296875
179,179,1727198422624,-0.1850586,-0.3718872,0.947937,0.46875,-0.796875,-0.25
180,180,1727198422664,-0.18530273,-0.3760376,0.9435425,0.46875,-0.765625,-0.390625
181,181,1727198422704,-0.18701172,-0.37139893,0.9430542,0.046875,-1.359375,-0.4375
182,182,1727198422744,-0.19213867,-0.36993408,0.9447632,0.046875,-1.109375,-0.40625
183,183,1727198422784,-0.18969727,-0.3665161,0.946228,-0.09375,-0.9375,-0.25
184,184,1727198422824,-0.18969727,-0.36871338,0.9369507,0.1875,-1.3125,-0.28125
185,185,1727198422864,-0.1940918,-0.36798096,0.9430542,0.03125,-1.421875,-0.375
186,186,1727198422904,-0.19360352,-0.3657837,0.9437866,0.0625,-1.375,-0.390625
187,187,1727198422944,-0.1977539,-0.3604126,0.9472046,0.109375,-1.203125,-0.34375
188,188,1727198422984,-0.19970703,-0.3670044,0.9476929,0.375,-1.203125,-0.328125
189,189,1727198423024,-0.19995117,-0.36383057,0.94866943,0.328125,-0.984375,-0.265625
190,190,1727198423064,-0.20288086,-0.3633423,0.9484253,-0.25,-1.84375,-0.34375
191,191,1727198423104,-0.20654297,-0.3640747,0.9520874,0.703125,-1.28125,-0.46875
192,192,1727198423144,-0.19921875,-0.35064697,0.93865967,-0.734375,-1.796875,-0.5625
193,193,1727198423184,-0.20581055,-0.37286377,0.9520874,-0.25,-1.984375,-0.375
194,194,1727198423224,-0.21044922,-0.3567505,0.9454956,-0.78125,-2.953125,-0.671875
195,195,1727198423264,-0.21289062,-0.34991455,0.9435425,-0.28125,-0.890625,-0.296875
196,196,1727198423304,-0.21508789,-0.34942627,0.9472046,0.453125,-0.34375,-0.296875
197,197,1727198423344,-0.21191406,-0.36260986,0.946228,0.109375,-1.1875,-0.359375
198,198,1727198423384,-0.2199707,-0.35455322,0.9418335,-0.359375,-1.359375,-0.46875
199,199,1727198423424,-0.21972656,-0.35528564,0.94281006,0.203125,-1.21875,-0.21875
200,200,1727198423464,-0.21777344,-0.34259033,0.9467163,0.265625,-1.609375,-0.484375
201,201,1727198423504,-0.21777344,-0.35235596,0.9454956,0.28125,-0.90625,-0.421875
202,202,1727198423544,-0.21704102,-0.34429932,0.94866943,0.15625,-1.078125,-0.5625
203,203,1727198423584,-0.2211914,-0.348938,0.949646,0.421875,-0.859375,-0.25
204,204,1727198423624,-0.22705078,-0.3460083,0.949646,0.359375,-0.9375,-0.609375
205,205,1727198423664,-0.22607422,-0.3430786,0.9450073,0.5625,-0.21875,-0.171875
206,206,1727198423704,-0.22460938,-0.3435669,0.9406128,0.703125,0.515625,-0.296875
207,207,1727198423744,-0.22021484,-0.3477173,0.94525146,1.125,0.703125,-0.21875
208,208,1727198423784,-0.22485352,-0.34014893,0.9525757,1.328125,0.140625,-0.25
209,209,1727198423824,-0.22216797,-0.34283447,0.94696045,1.21875,0.515625,-0.125
210,210,1727198423864,-0.22241211,-0.347229,0.94451904,1.390625,0.640625,-0.0625
211,211,1727198423904,-0.21899414,-0.3501587,0.9435425,1.484375,0.640625,-0.296875
212,212,1727198423944,-0.22143555,-0.34552002,0.94744873,1.578125,0.78125,-0.203125
213,213,1727198423984,-0.21435547,-0.35528564,0.94525146,1.859375,1.34375,-0.046875
214,214,1727198424024,-0.2121582,-0.34527588,0.94647217,1.9375,1.265625,-0.140625
215,215,1727198424064,-0.21582031,-0.3587036,0.94744873,2.015625,1.5,-0.15625
216,216,1727198424104,-0.21411133,-0.35308838,0.94525146,1.5625,1.203125,0.078125
217,217,1727198424144,-0.20727539,-0.35528564,0.9540405,1.984375,1.109375,-0.234375
218,218,1727198424184,-0.20654297,-0.3526001,0.9489136,1.578125,1.265625,-0.046875
219,219,1727198424224,-0.21777344,-0.3772583,0.949646,1.296875,0.21875,-0.40625
220,220,1727198424264,-0.21069336,-0.36602783,0.9520874,1.421875,0.78125,-0.078125
221,221,1727198424304,-0.2133789,-0.3555298,0.9411011,1.328125,2.0,0.234375
222,222,1727198424344,-0.20483398,-0.3550415,0.9489136,1.859375,2.40625,0.046875
223,223,1727198424384,-0.20166016,-0.36212158,0.94818115,1.84375,1.1875,-0.09375
224,224,1727198424424,-0.20043945,-0.36212158,0.94451904,1.203125,0.921875,-0.109375
225,225,1727198424464,-0.19995117,-0.3652954,0.9472046,1.578125,1.453125,-0.03125
226,226,1727198424504,-0.19116211,-0.35577393,0.94158936,1.09375,1.234375,-0.09375
227,227,1727198424544,-0.19506836,-0.36846924,0.9484253,1.703125,1.265625,-0.15625
228,228,1727198424584,-0.1887207,-0.37091064,0.9459839,1.65625,1.140625,-0.28125
229,229,1727198424624,-0.19604492,-0.36358643,0.9454956,1.765625,1.328125,-0.09375
230,230,1727198424664,-0.19116211,-0.37017822,0.94158936,1.296875,-0.078125,-0.421875
231,231,1727198424704,-0.19018555,-0.36212158,0.94281006,1.28125,0.875,0.0
232,232,1727198424744,-0.19335938,-0.36749268,0.9447632,1.765625,0.921875,-0.171875
233,233,1727198424784,-0.18579102,-0.36553955,0.94647217,1.65625,1.25,0.078125
234,234,1727198424824,-0.18334961,-0.36724854,0.9442749,1.53125,1.4375,-0.234375
235,235,1727198424864,-0.1850586,-0.37091064,0.9467163,1.78125,1.4375,-0.125
236,236,1727198424904,-0.18579102,-0.37286377,0.9450073,1.71875,1.4375,0.0
237,237,1727198424944,-0.1821289,-0.37457275,0.947937,1.515625,1.484375,-0.296875
238,238,1727198424984,-0.171875,-0.3706665,0.9447632,1.4375,1.296875,-0.140625
239,239,1727198425024,-0.17456055,-0.3731079,0.9430542,1.328125,1.3125,-0.1875
240,240,1727198425064,-0.17236328,-0.36968994,0.94866943,1.46875,1.03125,-0.34375
241,241,1727198425104,-0.17114258,-0.37677002,0.94451904,1.296875,0.890625,-0.171875
242,242,1727198425144,-0.1730957,-0.37872314,0.94329834,1.359375,0.65625,-0.28125
243,243,1727198425184,-0.16577148,-0.37701416,0.9484253,1.265625,0.78125,-0.21875
244,244,1727198425224,-0.17114258,-0.37579346,0.95062256,1.828125,0.890625,-0.421875
245,245,1727198425264,-0.1665039,-0.37579346,0.9467163,0.953125,0.375,-0.109375
246,246,1727198425304,-0.16015625,-0.38702393,0.9603882,2.140625,0.5,-0.390625
247,247,1727198425344,-0.16088867,-0.3682251,0.9328003,0.546875,-0.40625,-0.15625
248,248,1727198425384,-0.17797852,-0.37994385,0.94573975,0.75,-1.40625,-0.609375
249,249,1727198425424,-0.17163086,-0.38458252,0.9447632,1.21875,0.171875,-0.3125
250,250,1727198425464,-0.16577148,-0.37652588,0.94818115,1.375,1.875,0.15625
251,251,1727198425504,-0.16577148,-0.3789673,0.94403076,1.1875,0.34375,-0.21875
252,252,1727198425544,-0.15942383,-0.3821411,0.9540405,1.328125,0.828125,0.03125
253,253,1727198425584,-0.16748047,-0.37994385,0.946228,1.015625,0.265625,-0.15625
254,254,1727198425624,-0.16601562,-0.38702393,0.94573975,0.65625,-0.71875,-0.328125
255,255,1727198425664,-0.16674805,-0.37335205,0.9376831,0.1875,-1.21875,-0.1875
256,256,1727198425704,-0.16748047,-0.37774658,0.9450073,0.203125,-0.59375,-0.09375
257,257,1727198425744,-0.16992188,-0.38824463,0.94989014,0.46875,-0.78125,-0.28125
258,258,1727198425784,-0.1628418,-0.3760376,0.94525146,0.109375,-1.46875,-0.265625
259,259,1727198425824,-0.171875,-0.37677002,0.9442749,0.15625,-1.421875,-0.40625
260,260,1727198425864,-0.1784668,-0.3718872,0.9418335,0.0625,-1.015625,-0.140625
261,261,1727198425904,-0.17919922,-0.3809204,0.9442749,0.09375,-0.84375,-0.09375
262,262,1727198425944,-0.17529297,-0.3731079,0.94207764,-0.109375,-1.515625,-0.1875
263,263,1727198425984,-0.17749023,-0.36798096,0.94647217,-0.15625,-1.859375,-0.296875
264,264,1727198426024,-0.18017578,-0.36846924,0.9459839,-0.140625,-1.46875,-0.421875
265,265,1727198426064,-0.18530273,-0.37091064,0.9501343,0.125,-1.46875,-0.375
266,266,1727198426104,-0.18579102,-0.3706665,0.9413452,-0.109375,-1.828125,-0.40625
267,267,1727198426144,-0.18530273,-0.36798096,0.9435425,-0.15625,-1.78125,-0.390625
268,268,1727198426184,-0.19335938,-0.3640747,0.9491577,-0.171875,-1.609375,-0.171875
269,269,1727198426224,-0.19262695,-0.3694458,0.946228,0.046875,-1.328125,-0.390625
270,270,1727198426264,-0.19018555,-0.36798096,0.9491577,-0.0625,-1.703125,-0.515625
271,271,1727198426304,-0.19604492,-0.3591919,0.9491577,-0.03125,-1.859375,-0.546875
272,272,1727198426344,-0.19506836,-0.362854,0.94403076,-0.234375,-1.671875,-0.34375
273,273,1727198426384,-0.19677734,-0.364563,0.9525757,0.484375,-1.015625,-0.375
274,274,1727198426424,-0.19750977,-0.35040283,0.9398804,-0.5,-2.078125,-0.5
275,275,1727198426464,-0.203125,-0.35186768,0.94403076,0.03125,-1.421875,-0.25
276,276,1727198426504,-0.20996094,-0.36187744,0.9459839,-0.296875,-1.34375,-0.5625
277,277,1727198426544,-0.20361328,-0.3616333,0.9467163,-0.125,-1.71875,-0.328125
278,278,1727198426584,-0.21166992,-0.348938,0.94329834,-0.21875,-1.828125,-0.46875
279,279,1727198426624,-0.20898438,-0.34454346,0.9406128,0.8125,0.65625,-0.109375
280,280,1727198426664,-0.20458984,-0.34942627,0.94818115,1.03125,0.328125,-0.234375
281,281,1727198426704,-0.20629883,-0.3526001,0.9435425,0.703125,0.1875,-0.328125
282,282,1727198426744,-0.20874023,-0.35333252,0.94818115,1.109375,0.8125,-0.09375
283,283,1727198426784,-0.20654297,-0.3418579,0.94158936,1.234375,1.203125,0.1875
284,284,1727198426824,-0.20410156,-0.3538208,0.9491577,1.515625,0.96875,-0.109375
285,285,1727198426864,-0.20166016,-0.35992432,0.9525757,1.5,0.984375,-0.125
286,286,1727198426904,-0.20166016,-0.35308838,0.94696045,1.703125,0.578125,-0.359375
287,287,1727198426944,-0.19580078,-0.35699463,0.9476929,1.6875,0.953125,-0.375
288,288,1727198426984,-0.20385742,-0.35235596,0.947937,1.640625,1.09375,-0.09375
289,289,1727198427024,-0.2006836,-0.3550415,0.94866943,1.609375,0.921875,-0.0625
290,290,1727198427064,-0.19750977,-0.36383057,0.9437866,1.734375,0.734375,-0.109375
291,291,1727198427104,-0.1953125,-0.35943604,0.94818115,1.625,0.75,-0.3125
292,292,1727198427144,-0.19702148,-0.36114502,0.9550171,1.71875,0.8125,-0.1875
293,293,1727198427184,-0.19262695,-0.3616333,0.95111084,1.59375,0.703125,-0.34375
294,294,1727198427224,-0.18896484,-0.35943604,0.94744873,1.453125,0.890625,-0.21875
295,295,1727198427264,-0.19360352,-0.36676025,0.9501343,1.5,1.1875,-0.15625
296,296,1727198427304,-0.18945312,-0.36480713,0.946228,1.609375,1.28125,-0.03125
297,297,1727198427344,-0.18676758,-0.36553955,0.9491577,1.65625,1.21875,-0.046875
298,298,1727198427384,-0.1850586,-0.36480713,0.94866943,1.5,1.125,-0.046875
299,299,1727198427424,-0.18969727,-0.3682251,0.9489136,1.984375,1.5,-0.21875
300,300,1727198427464,-0.1899414,-0.36260986,0.9501343,1.203125,1.015625,0.09375
301,301,1727198427504,-0.18530273,-0.38311768,0.9616089,2.5625,1.484375,-0.140625
302,302,1727198427544,-0.17749023,-0.35894775,0.9411011,0.609375,0.046875,-0.09375
303,303,1727198427584,-0.18579102,-0.37921143,0.9413452,0.890625,-0.421875,-0.53125
304,304,1727198427624,-0.17504883,-0.3694458,0.946228,1.453125,1.046875,-0.15625
305,305,1727198427664,-0.17773438,-0.36602783,0.94451904,1.578125,2.265625,0.15625
306,306,1727198427704,-0.17822266,-0.3682251,0.949646,1.640625,1.078125,-0.203125
307,307,1727198427744,-0.1743164,-0.37164307,0.9476929,1.5,1.203125,-0.109375
308,308,1727198427784,-0.1772461,-0.38116455,0.9411011,1.109375,1.3125,-0.046875
309,309,1727198427824,-0.17114258,-0.37872314,0.946228,1.359375,1.015625,-0.140625
310,310,1727198427864,-0.17260742,-0.364563,0.94036865,1.265625,0.671875,-0.109375
311,311,1727198427904,-0.17407227,-0.37384033,0.94989014,1.15625,0.78125,-0.140625
312,312,1727198427944,-0.16625977,-0.37945557,0.94403076,1.265625,0.515625,-0.296875
313,313,1727198427984,-0.16503906,-0.37139893,0.94818115,1.203125,0.40625,-0.171875
314,314,1727198428024,-0.17285156,-0.37652588,0.94525146,1.265625,0.265625,-0.109375
315,315,1727198428064,-0.17041016,-0.37506104,0.9437866,1.203125,0.75,-0.3125
316,316,1727198428104,-0.16821289,-0.37530518,0.9537964,1.40625,0.703125,-0.109375
317,317,1727198428144,-0.16479492,-0.37701416,0.94403076,1.140625,0.328125,-0.234375
318,318,1727198428184,-0.16796875,-0.37872314,0.94744873,1.25,0.265625,-0.390625
319,319,1727198428224,-0.1694336,-0.38531494,0.94329834,1.234375,0.484375,-0.109375
320,320,1727198428264,-0.16333008,-0.38238525,0.94329834,1.15625,0.390625,-0.21875
321,321,1727198428304,-0.16235352,-0.37677002,0.94525146,0.921875,0.40625,-0.15625
322,322,1727198428344,-0.1616211,-0.37677002,0.946228,0.984375,0.203125,-0.21875
323,323,1727198428384,-0.16088867,-0.3850708,0.94647217,1.078125,0.1875,-0.25
324,324,1727198428424,-0.1652832,-0.38458252,0.9450073,1.078125,0.015625,-0.234375
325,325,1727198428464,-0.16186523,-0.38482666,0.9484253,0.84375,-0.296875,-0.234375
326,326,1727198428504,-0.16772461,-0.37799072,0.9515991,0.71875,-0.296875,-0.21875
327,327,1727198428544,-0.16552734,-0.3748169,0.9435425,0.484375,-0.84375,-0.390625
328,328,1727198428584,-0.16674805,-0.37799072,0.94281006,0.390625,-0.828125,-0.34375
329,329,1727198428624,-0.16333008,-0.38067627,0.949646,0.6875,-0.390625,-0.265625
330,330,1727198428664,-0.16601562,-0.36968994,0.9430542,0.03125,-1.046875,-0.109375
331,331,1727198428704,-0.16992188,-0.37579346,0.951355,0.703125,-0.96875,-0.15625
332,332,1727198428744,-0.17504883,-0.37091064,0.9413452,-0.5625,-1.90625,-0.375
333,333,1727198428784,-0.16821289,-0.37408447,0.9459839,0.28125,-1.0625,-0.28125
334,334,1727198428824,-0.17382812,-0.37335205,0.94818115,-0.140625,-1.484375,-0.3125
335,335,1727198428864,-0.1796875,-0.3652954,0.94989014,-0.015625,-0.3125,-0.109375
336,336,1727198428904,-0.17578125,-0.3640747,0.951355,0.625,-0.890625,-0.34375
337,337,1727198428944,-0.17944336,-0.37164307,0.94525146,-0.03125,-1.125,-0.1875
338,338,1727198428984,-0.18286133,-0.3723755,0.9425659,-0.078125,-1.078125,-0.296875
339,339,1727198429024,-0.17578125,-0.36749268,0.94525146,0.375,-0.765625,-0.09375
340,340,1727198429064,-0.18579102,-0.36602783,0.94866943,-0.078125,-1.59375,-0.5
341,341,1727198429104,-0.17504883,-0.36920166,0.95526123,0.234375,-0.828125,-0.34375
342,342,1727198429144,-0.18359375,-0.36920166,0.94744873,0.15625,-1.546875,-0.359375
343,343,1727198429184,-0.18579102,-0.3640747,0.9472046,0.09375,-1.734375,-0.421875
344,344,1727198429224,-0.19140625,-0.3591919,0.9437866,0.09375,-1.3125,-0.3125
345,345,1727198429264,-0.19580078,-0.36260986,0.9533081,0.21875,-1.046875,-0.46875
346,346,1727198429304,-0.19140625,-0.3567505,0.9472046,0.03125,-1.5625,-0.328125
347,347,1727198429344,-0.19458008,-0.3567505,0.9484253,0.21875,-1.15625,-0.421875
348,348,1727198429384,-0.19213867,-0.3633423,0.9454956,0.265625,-1.28125,-0.40625
349,349,1727198429424,-0.19580078,-0.35430908,0.9491577,0.25,-1.5,-0.5625
350,350,1727198429464,-0.20507812,-0.3579712,0.9442749,0.25,-1.390625,-0.59375
351,351,1727198429504,-0.19360352,-0.3579712,0.94573975,0.125,-0.8125,-0.46875
352,352,1727198429544,-0.20141602,-0.3501587,0.9450073,0.65625,-0.171875,-0.375
353,353,1727198429584,-0.20581055,-0.35455322,0.94696045,0.875,0.203125,-0.21875
354,354,1727198429624,-0.1940918,-0.3562622,0.95062256,1.03125,0.484375,-0.15625
355,355,1727198429664,-0.20141602,-0.3538208,0.94744873,1.234375,0.421875,-0.21875
356,356,1727198429704,-0.20019531,-0.36260986,0.94744873,1.296875,0.96875,-0.15625
357,357,1727198429744,-0.19702148,-0.35186768,0.947937,0.875,0.359375,-0.09375
358,358,1727198429784,-0.19238281,-0.3670044,0.9606323,2.15625,1.203125,-0.1875
359,359,1727198429824,-0.19165039,-0.3447876,0.94036865,1.109375,1.0,-0.046875
360,360,1727198429864,-0.19848633,-0.37530518,0.9525757,1.34375,0.765625,-0.15625
361,361,1727198429904,-0.18945312,-0.35894775,0.9525757,1.40625,0.171875,-0.40625
362,362,1727198429944,-0.1940918,-0.35455322,0.9435425,1.65625,1.5625,-0.0625
363,363,1727198429984,-0.19067383,-0.3567505,0.94989014,2.015625,1.765625,-0.0625
364,364,1727198430024,-0.18603516,-0.3711548,0.9515991,1.640625,0.5,-0.265625
365,365,1727198430064,-0.18896484,-0.36920166,0.9476929,0.828125,0.375,-0.15625
366,366,1727198430104,-0.1899414,-0.3718872,0.9508667,1.53125,1.328125,-0.234375
367,367,1727198430144,-0.18481445,-0.36065674,0.94525146,1.265625,0.5625,-0.1875
368,368,1727198430184,-0.18823242,-0.3670044,0.9508667,1.71875,0.921875,-0.109375
369,369,1727198430224,-0.18383789,-0.36846924,0.94281006,1.28125,0.625,-0.296875
370,370,1727198430264,-0.18286133,-0.36627197,0.95062256,1.265625,0.796875,-0.09375
371,371,1727198430304,-0.18383789,-0.3640747,0.9472046,1.421875,0.890625,-0.21875
372,372,1727198430344,-0.18261719,-0.37139893,0.9489136,1.53125,1.015625,0.03125
373,373,1727198430384,-0.17675781,-0.37506104,0.9489136,1.4375,0.765625,-0.15625
374,374,1727198430424,-0.1821289,-0.36676025,0.94403076,1.4375,0.734375,-0.15625
375,375,1727198430464,-0.18041992,-0.3694458,0.94696045,1.296875,0.625,-0.21875
376,376,1727198430504,-0.17553711,-0.3718872,0.9447632,1.453125,0.75,-0.203125
377,377,1727198430544,-0.17993164,-0.37457275,0.94866943,1.4375,0.84375,-0.25
378,378,1727198430584,-0.17358398,-0.3760376,0.9450073,0.75,0.546875,-0.171875
379,379,1727198430624,-0.17944336,-0.37164307,0.94744873,1.5625,1.09375,-0.0625
380,380,1727198430664,-0.1730957,-0.37652588,0.94744873,1.203125,0.953125,-0.125
381,381,1727198430704,-0.17260742,-0.3772583,0.9489136,1.359375,0.515625,-0.234375
382,382,1727198430744,-0.1706543,-0.37750244,0.94525146,1.1875,0.453125,-0.171875
383,383,1727198430784,-0.16870117,-0.36724854,0.9442749,1.15625,0.390625,-0.265625
384,384,1727198430824,-0.17749023,-0.3731079,0.9528198,1.71875,0.734375,-0.28125
385,385,1727198430864,-0.17041016,-0.37579346,0.9472046,0.96875,0.09375,-0.21875
386,386,1727198430904,-0.16601562,-0.38336182,0.95965576,2.328125,0.953125,-0.265625
387,387,1727198430944,-0.1628418,-0.36065674,0.94329834,0.4375,-0.640625,-0.078125
388,388,1727198430984,-0.17504883,-0.38433838,0.9425659,1.078125,-1.234375,-0.53125
389,389,1727198431024,-0.16577148,-0.37872314,0.9450073,1.3125,0.703125,-0.28125
390,390,1727198431064,-0.1652832,-0.37872314,0.9450073,1.34375,1.859375,0.21875
391,391,1727198431104,-0.1665039,-0.38189697,0.95111084,1.375,0.296875,-0.171875
392,392,1727198431144,-0.16186523,-0.38604736,0.9423218,1.40625,0.90625,-0.078125
393,393,1727198431184,-0.16870117,-0.38604736,0.94525146,0.90625,0.78125,0.0625
394,394,1727198431224,-0.1628418,-0.38580322,0.9491577,1.046875,0.515625,-0.109375
395,395,1727198431264,-0.15893555,-0.3652954,0.94281006,0.71875,0.125,-0.0625
396,396,1727198431304,-0.16455078,-0.38482666,0.94989014,1.0625,0.1875,-0.21875
397,397,1727198431344,-0.1574707,-0.3850708,0.946228,1.21875,-0.140625,-0.21875
398,398,1727198431384,-0.16235352,-0.37994385,0.9437866,0.828125,-0.640625,-0.21875
399,399,1727198431424,-0.16430664,-0.3789673,0.94696045,0.75,-1.015625,-0.296875
400,400,1727198431464,-0.16235352,-0.37554932,0.94085693,0.34375,-1.25,-0.234375
401,401,1727198431504,-0.1652832,-0.38409424,0.9476929,0.140625,-0.21875,-0.09375
402,402,1727198431544,-0.17016602,-0.37408447,0.9489136,0.15625,-0.734375,-0.359375
403,403,1727198431584,-0.16259766,-0.3735962,0.9442749,0.390625,-1.109375,-0.265625
404,404,1727198431624,-0.16772461,-0.3748169,0.94818115,0.078125,-1.3125,-0.3125
405,405,1727198431664,-0.16821289,-0.37677002,0.949646,-0.234375,-0.78125,-0.28125
406,406,1727198431704,-0.16992188,-0.3731079,0.9508667,0.0,-1.125,-0.328125
407,407,1727198431744,-0.17382812,-0.3694458,0.94866943,-0.015625,-1.390625,-0.265625
408,408,1727198431784,-0.17163086,-0.36871338,0.946228,-0.1875,-1.703125,-0.296875
409,409,1727198431824,-0.17578125,-0.36968994,0.946228,-0.0625,-1.640625,-0.3125
410,410,1727198431864,-0.1796875,-0.3694458,0.9520874,-0.046875,-1.296875,-0.40625
411,411,1727198431904,-0.17871094,-0.36871338,0.94818115,0.15625,-1.453125,-0.421875
412,412,1727198431944,-0.18139648,-0.36212158,0.9447632,-0.140625,-1.6875,-0.4375
413,413,1727198431984,-0.18383789,-0.36920166,0.9545288,0.375,-1.15625,-0.203125
414,414,1727198432024,-0.17578125,-0.3496704,0.9411011,-0.71875,-2.390625,-0.296875
415,415,1727198432064,-0.18359375,-0.36016846,0.9435425,0.125,-1.203125,-0.265625
416,416,1727198432104,-0.2006836,-0.37335205,0.9491577,-0.265625,-1.5,-0.46875
417,417,1727198432144,-0.18334961,-0.36212158,0.9537964,0.03125,-1.578125,-0.4375
418,418,1727198432184,-0.19555664,-0.35577393,0.9437866,-0.53125,-1.90625,-0.40625
419,419,1727198432224,-0.19458008,-0.35284424,0.9525757,0.296875,-0.34375,-0.25
420,420,1727198432264,-0.19702148,-0.35357666,0.95233154,0.484375,-1.046875,-0.375
421,421,1727198432304,-0.19848633,-0.35821533,0.9450073,-0.265625,-1.390625,-0.46875
422,422,1727198432344,-0.19921875,-0.35821533,0.949646,0.203125,-0.890625,-0.4375
423,423,1727198432384,-0.1977539,-0.34747314,0.9393921,0.453125,-1.0,-0.390625
424,424,1727198432424,-0.20288086,-0.35528564,0.949646,0.703125,-0.78125,-0.421875
425,425,1727198432464,-0.20532227,-0.35113525,0.946228,0.671875,-0.296875,-0.28125
426,426,1727198432504,-0.20410156,-0.35455322,0.9459839,0.921875,-0.203125,-0.375
427,427,1727198432544,-0.20654297,-0.35577393,0.94744873,1.109375,0.296875,-0.328125
428,428,1727198432584,-0.20361328,-0.3496704,0.9459839,1.09375,0.484375,-0.171875
429,429,1727198432624,-0.19897461,-0.35528564,0.9503784,1.203125,0.921875,-0.078125
430,430,1727198432664,-0.20239258,-0.3538208,0.95184326,1.390625,0.75,-0.203125
431,431,1727198432704,-0.19335938,-0.3555298,0.95355225,1.625,0.71875,-0.203125
432,432,1727198432744,-0.20141602,-0.3567505,0.9503784,1.609375,0.640625,-0.234375
433,433,1727198432784,-0.2019043,-0.3579712,0.9515991,1.5,0.734375,-0.28125
434,434,1727198432824,-0.19506836,-0.3555298,0.95111084,1.546875,1.109375,-0.21875
435,435,1727198432864,-0.19873047,-0.3555298,0.94744873,1.546875,0.84375,-0.21875
436,436,1727198432904,-0.19506836,-0.35943604,0.9467163,1.5,0.875,-0.265625
437,437,1727198432944,-0.18920898,-0.36212158,0.94573975,1.65625,0.765625,-0.203125
438,438,1727198432984,-0.19018555,-0.36627197,0.9503784,1.6875,0.71875,-0.25
439,439,1727198433024,-0.18725586,-0.36212158,0.9459839,1.296875,0.4375,-0.3125
440,440,1727198433064,-0.18969727,-0.36773682,0.94744873,1.5,1.078125,-0.171875
441,441,1727198433104,-0.19091797,-0.35650635,0.94573975,0.921875,0.125,-0.25
442,442,1727198433144,-0.1887207,-0.3633423,0.94744873,1.6875,1.046875,-0.015625
443,443,1727198433184,-0.19555664,-0.37408447,0.94525146,0.9375,-0.4375,-0.40625
444,444,1727198433224,-0.18457031,-0.36895752,0.94525146,1.5625,0.75,-0.34375
445,445,1727198433264,-0.18798828,-0.36236572,0.9418335,1.5625,1.78125,-0.171875
446,446,1727198433304,-0.18652344,-0.36480713,0.9472046,1.765625,1.921875,-0.125
447,447,1727198433344,-0.17456055,-0.36993408,0.94744873,1.8125,1.09375,-0.109375
448,448,1727198433384,-0.18164062,-0.37042236,0.946228,1.28125,1.046875,0.0625
449,449,1727198433424,-0.17871094,-0.3706665,0.9515991,1.359375,1.234375,-0.03125
450,450,1727198433464,-0.1730957,-0.37286377,0.9503784,1.546875,1.390625,-0.046875
451,451,1727198433504,-0.171875,-0.37139893,0.946228,1.390625,0.296875,-0.3125
452,452,1727198433544,-0.17602539,-0.3814087,0.9540405,1.375,0.75,-0.0625
453,453,1727198433584,-0.17700195,-0.37408447,0.9459839,1.546875,0.671875,-0.15625
454,454,1727198433624,-0.16894531,-0.37506104,0.9484253,1.265625,0.5625,-0.3125
455,455,1727198433664,-0.17260742,-0.36383057,0.9501343,1.3125,0.75,-0.1875
456,456,1727198433704,-0.16748047,-0.3789673,0.94696045,1.59375,1.109375,-0.0625
457,457,1727198433744,-0.1706543,-0.37677002,0.94696045,1.53125,0.765625,-0.1875
458,458,1727198433784,-0.16503906,-0.3731079,0.94451904,1.34375,0.4375,-0.140625
459,459,1727198433824,-0.17236328,-0.37164307,0.94647217,1.359375,0.515625,-0.21875
460,460,1727198433864,-0.17211914,-0.3772583,0.9484253,1.46875,0.53125,-0.25
461,461,1727198433904,-0.16625977,-0.37921143,0.94818115,1.359375,0.703125,-0.359375
462,462,1727198433944,-0.16796875,-0.37579346,0.9467163,1.328125,0.46875,-0.234375
463,463,1727198433984,-0.15942383,-0.38360596,0.946228,1.515625,0.5625,-0.171875
464,464,1727198434024,-0.16088867,-0.3772583,0.946228,1.453125,0.453125,-0.359375
465,465,1727198434064,-0.16601562,-0.38165283,0.9501343,1.1875,0.3125,-0.421875
466,466,1727198434104,-0.16503906,-0.378479,0.9447632,1.140625,0.328125,-0.21875
467,467,1727198434144,-0.16040039,-0.38458252,0.9447632,1.25,0.140625,-0.34375
468,468,1727198434184,-0.16308594,-0.38067627,0.94818115,1.109375,0.171875,-0.25
469,469,1727198434224,-0.1640625,-0.38043213,0.9459839,1.125,0.421875,-0.5
470,470,1727198434264,-0.16381836,-0.38189697,0.94158936,0.40625,0.015625,-0.28125
471,471,1727198434304,-0.16235352,-0.39239502,0.9581909,1.421875,0.109375,-0.5
472,472,1727198434344,-0.15405273,-0.37017822,0.94085693,0.53125,-0.921875,-0.171875
473,473,1727198434384,-0.16601562,-0.38897705,0.94207764,0.625,-2.0,-0.53125
474,474,1727198434424,-0.16821289,-0.38555908,0.9450073,0.75,-0.890625,-0.296875
475,475,1727198434464,-0.15917969,-0.37774658,0.94647217,0.21875,0.328125,0.171875
476,476,1727198434504,-0.16796875,-0.37554932,0.9501343,0.40625,-1.375,-0.5
477,477,1727198434544,-0.16723633,-0.380188,0.9503784,0.359375,-0.671875,-0.171875
478,478,1727198434584,-0.16723633,-0.3838501,0.94744873,-0.0625,-0.5625,-0.125
479,479,1727198434624,-0.16796875,-0.3887329,0.9435425,0.3125,-0.65625,-0.359375
480,480,1727198434664,-0.16796875,-0.3694458,0.9381714,-0.015625,-1.34375,-0.21875
481,481,1727198434704,-0.16992188,-0.3718872,0.9484253,0.03125,-1.109375,-0.34375
482,482,1727198434744,-0.17041016,-0.37872314,0.9537964,0.359375,-1.21875,-0.328125
483,483,1727198434784,-0.17456055,-0.3706665,0.94525146,-0.140625,-1.78125,-0.3125
484,484,1727198434824,-0.17407227,-0.3723755,0.9484253,0.140625,-1.5625,-0.4375
485,485,1727198434864,-0.17993164,-0.36627197,0.9437866,-0.09375,-1.4375,-0.328125
486,486,1727198434904,-0.18481445,-0.3682251,0.94989014,0.3125,-1.0625,-0.359375
487,487,1727198434944,-0.18383789,-0.36358643,0.9503784,0.078125,-1.375,-0.328125
488,488,1727198434984,-0.18432617,-0.36114502,0.9454956,0.09375,-1.46875,-0.375
489,489,1727198435024,-0.18408203,-0.36383057,0.94647217,0.234375,-1.328125,-0.390625
490,490,1727198435064,-0.1862793,-0.36993408,0.9430542,0.171875,-1.28125,-0.4375
491,491,1727198435104,-0.19042969,-0.36212158,0.946228,0.03125,-1.5,-0.4375
492,492,1727198435144,-0.19384766,-0.36505127,0.9450073,0.125,-1.5,-0.328125
493,493,1727198435184,-0.19140625,-0.36383057,0.94744873,0.1875,-1.265625,-0.328125
494,494,1727198435224,-0.19580078,-0.3591919,0.946228,0.125,-1.453125,-0.40625
495,495,1727198435264,-0.19262695,-0.36358643,0.95355225,-0.046875,-1.765625,-0.4375
496,496,1727198435304,-0.19946289,-0.35894775,0.94818115,0.25,-1.734375,-0.546875
497,497,1727198435344,-0.20239258,-0.36676025,0.9491577,0.15625,-1.28125,-0.296875
498,498,1727198435384,-0.20385742,-0.36016846,0.9401245,0.453125,-0.90625,-0.4375
499,499,1727198435424,-0.2055664,-0.34698486,0.9447632,0.03125,-1.3125,-0.328125
500,500,1727198435464,-0.19799805,-0.35479736,0.94207764,0.78125,0.515625,-0.09375
501,501,1727198435504,-0.20874023,-0.36798096,0.94744873,0.984375,0.546875,-0.171875
502,502,1727198435544,-0.2006836,-0.35211182,0.9450073,0.90625,0.203125,-0.171875
503,503,1727198435584,-0.20483398,-0.35235596,0.94403076,1.03125,0.71875,-0.203125
504,504,1727198435624,-0.19970703,-0.34796143,0.94818115,1.75,2.15625,0.015625
505,505,1727198435664,-0.1965332,-0.36431885,0.9515991,1.671875,1.0625,-0.125
506,506,1727198435704,-0.19799805,-0.35772705,0.94329834,1.109375,0.78125,-0.078125
507,507,1727198435744,-0.1965332,-0.36358643,0.9484253,1.84375,1.78125,-0.03125
508,508,1727198435784,-0.19238281,-0.35723877,0.9454956,1.484375,1.09375,-0.078125
509,509,1727198435824,-0.19238281,-0.362854,0.95184326,1.703125,0.578125,-0.3125
510,510,1727198435864,-0.19140625,-0.3640747,0.9447632,1.484375,0.46875,-0.328125
511,511,1727198435904,-0.19042969,-0.35650635,0.9442749,1.4375,0.796875,-0.0625
512,512,1727198435944,-0.18969727,-0.36383057,0.94647217,1.40625,0.890625,-0.328125
513,513,1727198435984,-0.18823242,-0.36602783,0.9418335,1.421875,1.1875,-0.015625
514,514,1727198436024,-0.18603516,-0.36553955,0.9459839,1.703125,0.984375,0.0
515,515,1727198436064,-0.17504883,-0.36749268,0.951355,1.421875,1.0625,0.015625
516,516,1727198436104,-0.18041992,-0.36627197,0.9411011,1.421875,0.90625,-0.328125
517,517,1727198436144,-0.18115234,-0.36016846,0.9525757,1.546875,0.859375,-0.15625
518,518,1727198436184,-0.18408203,-0.3718872,0.9484253,1.515625,0.6875,-0.234375
519,519,1727198436224,-0.1772461,-0.37139893,0.94525146,1.25,0.890625,-0.25
520,520,1727198436264,-0.17749023,-0.37652588,0.94744873,1.421875,1.1875,-0.15625
521,521,1727198436304,-0.1743164,-0.37506104,0.9447632,1.421875,1.296875,-0.09375
522,522,1727198436344,-0.1743164,-0.3723755,0.9423218,1.390625,1.015625,-0.078125
523,523,1727198436384,-0.17236328,-0.3706665,0.9467163,1.265625,0.828125,0.0
524,524,1727198436424,-0.17016602,-0.3735962,0.9501343,1.15625,0.65625,-0.109375
525,525,1727198436464,-0.17602539,-0.37091064,0.9447632,1.21875,0.609375,-0.265625
526,526,1727198436504,-0.17480469,-0.37408447,0.94329834,1.078125,0.65625,-0.125
527,527,1727198436544,-0.17675781,-0.36895752,0.9411011,0.796875,0.15625,-0.125
528,528,1727198436584,-0.17089844,-0.36846924,0.9472046,1.125,0.3125,-0.03125
529,529,1727198436624,-0.17456055,-0.38043213,0.9430542,0.640625,-1.203125,-0.734375
530,530,1727198436664,-0.17114258,-0.37652588,0.94525146,1.359375,0.734375,-0.25
531,531,1727198436704,-0.17163086,-0.37554932,0.94647217,1.515625,1.84375,0.140625
532,532,1727198436744,-0.17211914,-0.3723755,0.949646,1.296875,1.15625,-0.234375
533,533,1727198436784,-0.16381836,-0.38287354,0.9476929,1.453125,0.78125,-0.15625
534,534,1727198436824,-0.16235352,-0.3821411,0.94036865,1.0,0.890625,-0.015625
535,535,1727198436864,-0.17016602,-0.37701416,0.9489136,1.015625,0.625,-0.234375
536,536,1727198436904,-0.16430664,-0.37579346,0.94744873,1.28125,0.78125,-0.09375
537,537,1727198436944,-0.15478516,-0.38116455,0.946228,1.125,0.109375,-0.296875
538,538,1727198436984,-0.16455078,-0.38067627,0.947937,1.125,0.375,-0.296875
539,539,1727198437024,-0.15332031,-0.378479,0.9515991,0.953125,0.203125,-0.3125
540,540,1727198437064,-0.16748047,-0.3760376,0.9447632,1.25,-0.375,-0.375
541,541,1727198437104,-0.16601562,-0.3760376,0.9442749,1.171875,0.25,-0.140625
542,542,1727198437144,-0.16235352,-0.37652588,0.9454956,1.15625,0.515625,-0.109375
543,543,1727198437184,-0.15454102,-0.38531494,0.9503784,0.9375,0.15625,-0.234375
544,544,1727198437224,-0.16308594,-0.38287354,0.94744873,1.203125,0.078125,-0.234375
545,545,1727198437264,-0.16333008,-0.38311768,0.94647217,1.21875,0.234375,-0.359375
546,546,1727198437304,-0.1616211,-0.3809204,0.94281006,0.90625,0.171875,-0.34375
547,547,1727198437344,-0.16113281,-0.38287354,0.9503784,0.765625,0.03125,-0.171875
548,548,1727198437384,-0.15600586,-0.38043213,0.94940186,0.890625,0.046875,-0.390625
549,549,1727198437424,-0.16723633,-0.37506104,0.946228,0.828125,-0.28125,-0.234375
550,550,1727198437464,-0.15625,-0.38189697,0.94647217,0.625,-0.34375,-0.296875
551,551,1727198437504,-0.1652832,-0.38043213,0.94818115,0.796875,-0.5,-0.203125
552,552,1727198437544,-0.15942383,-0.38067627,0.94866943,0.59375,-0.953125,-0.28125
553,553,1727198437584,-0.16186523,-0.3796997,0.9476929,0.21875,-1.0625,-0.34375
554,554,1727198437624,-0.16699219,-0.37652588,0.94281006,0.328125,-0.9375,-0.265625
555,555,1727198437664,-0.16625977,-0.3743286,0.9528198,0.28125,-0.875,-0.328125
556,556,1727198437704,-0.16772461,-0.36968994,0.94696045,-0.234375,-1.484375,-0.203125
557,557,1727198437744,-0.16796875,-0.37945557,0.9581909,0.5625,-0.890625,-0.390625
558,558,1727198437784,-0.16015625,-0.36505127,0.9393921,-0.5,-1.578125,-0.265625
559,559,1727198437824,-0.17211914,-0.38458252,0.94989014,0.109375,-1.828125,-0.484375
560,560,1727198437864,-0.17407227,-0.37384033,0.9476929,0.140625,-1.828125,-0.484375
561,561,1727198437904,-0.17944336,-0.3718872,0.95062256,-0.046875,-0.671875,-0.171875
562,562,1727198437944,-0.17944336,-0.3657837,0.946228,0.515625,-0.515625,-0.375
563,563,1727198437984,-0.17895508,-0.36920166,0.94940186,0.234375,-1.09375,-0.3125
564,564,1727198438024,-0.18652344,-0.36920166,0.9430542,-0.09375,-1.15625,-0.421875
565,565,1727198438064,-0.17749023,-0.37774658,0.9491577,0.375,-0.578125,-0.15625
566,566,1727198438104,-0.17700195,-0.36358643,0.9430542,0.234375,-1.28125,-0.453125
567,567,1727198438144,-0.1821289,-0.36260986,0.9540405,0.25,-1.125,-0.4375
568,568,1727198438184,-0.1784668,-0.3587036,0.9472046,0.421875,-1.171875,-0.46875
569,569,1727198438224,-0.18896484,-0.36383057,0.94573975,0.125,-1.5625,-0.421875
570,570,1727198438264,-0.19140625,-0.36383057,0.9450073,0.328125,-1.28125,-0.578125
571,571,1727198438304,-0.18823242,-0.362854,0.949646,0.125,-1.421875,-0.390625
572,572,1727198438344,-0.1928711,-0.3657837,0.949646,0.375,-0.921875,-0.25
573,573,1727198438384,-0.19458008,-0.35968018,0.95355225,0.390625,-1.0625,-0.34375
574,574,1727198438424,-0.19262695,-0.36065674,0.9540405,0.53125,-1.265625,-0.421875
575,575,1727198438464,-0.19213867,-0.36358643,0.947937,0.46875,-1.203125,-0.375
576,576,1727198438504,-0.19335938,-0.3604126,0.94329834,0.28125,-1.15625,-0.40625
577,577,1727198438544,-0.19824219,-0.35894775,0.9467163,0.453125,-0.890625,-0.5
578,578,1727198438584,-0.19970703,-0.3574829,0.9450073,0.640625,-0.515625,-0.34375
579,579,1727198438624,-0.2043457,-0.3555298,0.9476929,0.859375,-0.1875,-0.265625
580,580,1727198438664,-0.20092773,-0.3555298,0.94573975,0.890625,0.1875,-0.21875
581,581,1727198438704,-0.19848633,-0.35528564,0.94281006,1.109375,0.3125,-0.25
582,582,1727198438744,-0.1953125,-0.35577393,0.9447632,1.15625,0.25,-0.328125
583,583,1727198438784,-0.19921875,-0.35968018,0.94866943,1.140625,0.265625,-0.125
584,584,1727198438824,-0.19482422,-0.3555298,0.94696045,1.0625,-0.125,-0.28125
585,585,1727198438864,-0.18603516,-0.35699463,0.9423218,1.28125,1.09375,-0.046875
586,586,1727198438904,-0.20410156,-0.3682251,0.95062256,1.15625,0.359375,-0.328125
587,587,1727198438944,-0.1862793,-0.35406494,0.94744873,1.3125,0.484375,-0.296875
588,588,1727198438984,-0.19458008,-0.35528564,0.94036865,1.390625,1.046875,-0.25
589,589,1727198439024,-0.19238281,-0.3550415,0.947937,2.046875,2.46875,-0.09375
590,590,1727198439064,-0.18920898,-0.36968994,0.9550171,2.15625,1.46875,-0.078125
591,591,1727198439104,-0.19018555,-0.37164307,0.94403076,1.359375,0.734375,-0.234375
592,592,1727198439144,-0.18774414,-0.3723755,0.95184326,1.484375,1.203125,0.046875
593,593,1727198439184,-0.18774414,-0.3604126,0.9411011,1.4375,1.140625,-0.109375
594,594,1727198439224,-0.18115234,-0.3640747,0.9533081,1.625,0.75,-0.28125
595,595,1727198439264,-0.18115234,-0.3718872,0.9476929,1.3125,0.609375,-0.234375
596,596,1727198439304,-0.18359375,-0.36724854,0.9459839,1.3125,0.703125,-0.109375
597,597,1727198439344,-0.17895508,-0.36724854,0.94207764,1.578125,0.890625,-0.25
598,598,1727198439384,-0.18554688,-0.36309814,0.9389038,1.359375,1.078125,-0.03125
599,599,1727198439424,-0.17944336,-0.37042236,0.946228,1.515625,0.984375,-0.171875
600,600,1727198439464,-0.17749023,-0.36505127,0.94451904,1.328125,0.96875,-0.046875
601,601,1727198439504,-0.17114258,-0.37091064,0.9454956,1.421875,0.78125,0.015625
602,602,1727198439544,-0.17456055,-0.37164307,0.9437866,1.375,0.78125,-0.1875
603,603,1727198439584,-0.1743164,-0.37530518,0.94281006,1.234375,0.65625,-0.28125
604,604,1727198439624,-0.17871094,-0.3743286,0.9418335,1.15625,0.328125,-0.1875
605,605,1727198439664,-0.16870117,-0.37139893,0.95111084,1.21875,0.390625,-0.265625
606,606,1727198439704,-0.17675781,-0.3748169,0.94451904,1.421875,0.53125,-0.265625
607,607,1727198439744,-0.17456055,-0.37530518,0.95111084,1.3125,0.59375,-0.03125
608,608,1727198439784,-0.17407227,-0.37042236,0.9425659,1.1875,0.46875,-0.140625
609,609,1727198439824,-0.16308594,-0.3694458,0.9489136,1.3125,0.421875,-0.25
610,610,1727198439864,-0.17480469,-0.37091064,0.9454956,1.28125,0.703125,-0.296875
611,611,1727198439904,-0.17041016,-0.37335205,0.93865967,1.0,0.703125,-0.125
612,612,1727198439944,-0.16821289,-0.38165283,0.94696045,1.015625,0.234375,-0.203125
613,613,1727198439984,-0.1628418,-0.37164307,0.9401245,0.921875,0.234375,-0.109375
614,614,1727198440024,-0.17578125,-0.38824463,0.95184326,0.796875,-1.09375,-0.53125
615,615,1727198440064,-0.16821289,-0.37408447,0.9442749,1.234375,0.359375,-0.265625
616,616,1727198440104,-0.16430664,-0.3735962,0.946228,1.3125,1.546875,0.15625
617,617,1727198440144,-0.16430664,-0.37384033,0.9418335,1.1875,0.8125,-0.203125
618,618,1727198440184,-0.16235352,-0.38165283,0.94940186,1.546875,0.765625,-0.15625
619,619,1727198440224,-0.16918945,-0.37872314,0.9454956,0.96875,0.78125,-0.015625
620,620,1727198440264,-0.16381836,-0.37408447,0.947937,0.828125,0.5,-0.28125
621,621,1727198440304,-0.15795898,-0.37164307,0.9442749,1.171875,0.484375,-0.140625
622,622,1727198440344,-0.15966797,-0.38116455,0.946228,1.125,0.125,-0.265625
623,623,1727198440384,-0.16088867,-0.3880005,0.9491577,1.125,-0.109375,-0.234375
624,624,1727198440424,-0.16015625,-0.37628174,0.9508667,1.0625,-0.296875,-0.1875
625,625,1727198440464,-0.16235352,-0.38311768,0.94744873,0.875,-0.828125,-0.546875
626,626,1727198440504,-0.1665039,-0.38067627,0.9503784,0.71875,-0.703125,-0.234375
627,627,1727198440544,-0.16723633,-0.37799072,0.9413452,0.4375,-0.84375,-0.296875
628,628,1727198440584,-0.16699219,-0.37823486,0.94525146,0.296875,-1.03125,-0.25
629,629,1727198440624,-0.16918945,-0.3760376,0.9430542,0.359375,-1.046875,-0.265625
630,630,1727198440664,-0.17163086,-0.3796997,0.9437866,0.40625,-1.015625,-0.34375
631,631,1727198440704,-0.17089844,-0.38336182,0.94989014,0.125,-1.34375,-0.234375
632,632,1727198440744,-0.17480469,-0.378479,0.94696045,0.0,-1.375,-0.484375
633,633,1727198440784,-0.16821289,-0.37677002,0.94744873,0.125,-1.28125,-0.375
634,634,1727198440824,-0.17553711,-0.3796997,0.9484253,0.015625,-1.4375,-0.296875
635,635,1727198440864,-0.17773438,-0.36968994,0.94207764,0.0,-1.328125,-0.328125
636,636,1727198440904,-0.18115234,-0.3743286,0.94647217,0.015625,-1.375,-0.4375
637,637,1727198440944,-0.17529297,-0.37042236,0.9413452,0.125,-1.703125,-0.484375
638,638,1727198440984,-0.18554688,-0.3682251,0.94403076,-0.125,-1.625,-0.296875
639,639,1727198441024,-0.18920898,-0.3743286,0.9540405,0.40625,-0.96875,-0.34375
640,640,1727198441064,-0.1821289,-0.3604126,0.94525146,-0.171875,-1.703125,-0.296875
641,641,1727198441104,-0.19042969,-0.3652954,0.9491577,0.515625,-1.453125,-0.390625
642,642,1727198441144,-0.19726562,-0.3574829,0.9411011,-0.40625,-1.546875,-0.34375
643,643,1727198441184,-0.19360352,-0.3616333,0.9442749,0.125,-1.375,-0.34375
644,644,1727198441224,-0.19458008,-0.3579712,0.947937,0.046875,-2.140625,-0.390625
645,645,1727198441264,-0.1965332,-0.35211182,0.9450073,0.28125,-0.171875,-0.1875
646,646,1727198441304,-0.19677734,-0.362854,0.9540405,0.671875,-0.84375,-0.34375
647,647,1727198441344,-0.19458008,-0.36358643,0.94647217,0.21875,-1.328125,-0.390625
648,648,1727198441384,-0.20092773,-0.36309814,0.947937,0.25,-0.546875,-0.28125
649,649,1727198441424,-0.19873047,-0.35528564,0.947937,0.8125,0.015625,-0.265625
650,650,1727198441464,-0.20776367,-0.3508911,0.94696045,0.828125,-0.375,-0.375
651,651,1727198441504,-0.19482422,-0.36236572,0.9467163,1.1875,0.5,-0.265625
652,652,1727198441544,-0.19677734,-0.35455322,0.94989014,1.203125,0.140625,-0.25
653,653,1727198441584,-0.19995117,-0.3574829,0.94525146,1.28125,0.421875,-0.390625
654,654,1727198441624,-0.20166016,-0.35894775,0.94403076,1.203125,0.625,-0.1875
655,655,1727198441664,-0.19628906,-0.36627197,0.95306396,1.46875,0.828125,-0.046875
656,656,1727198441704,-0.19677734,-0.362854,0.946228,1.453125,1.046875,-0.171875
657,657,1727198441744,-0.19458008,-0.35772705,0.94744873,1.609375,0.78125,-0.140625
658,658,1727198441784,-0.18676758,-0.3633423,0.9476929,1.984375,1.015625,-0.25
659,659,1727198441824,-0.19433594,-0.36431885,0.9437866,1.765625,1.15625,-0.234375
660,660,1727198441864,-0.18798828,-0.3652954,0.94451904,1.34375,1.078125,-0.25
661,661,1727198441904,-0.18432617,-0.364563,0.9450073,1.59375,1.21875,-0.125
662,662,1727198441944,-0.18286133,-0.36724854,0.9472046,1.40625,1.21875,-0.140625
663,663,1727198441984,-0.18530273,-0.36749268,0.9435425,1.734375,1.40625,-0.078125
664,664,1727198442024,-0.17895508,-0.3652954,0.9484253,1.546875,1.296875,0.0625
665,665,1727198442064,-0.18652344,-0.36627197,0.9489136,1.46875,1.078125,-0.1875
666,666,1727198442104,-0.19018555,-0.36993408,0.9430542,1.453125,1.34375,-0.125
667,667,1727198442144,-0.17602539,-0.3731079,0.93865967,1.375,1.359375,-0.03125
668,668,1727198442184,-0.17602539,-0.3821411,0.9525757,1.375,0.921875,-0.09375
669,669,1727198442224,-0.1665039,-0.3665161,0.9401245,1.453125,0.828125,0.0
670,670,1727198442264,-0.17822266,-0.38897705,0.94866943,0.859375,-0.671875,-0.5625
671,671,1727198442304,-0.17016602,-0.37554932,0.94744873,1.453125,0.890625,-0.328125
672,672,1727198442344,-0.17358398,-0.3723755,0.95111084,1.4375,1.859375,0.15625
673,673,1727198442384,-0.16699219,-0.37554932,0.949646,1.359375,1.234375,-0.1875
674,674,1727198442424,-0.16625977,-0.37823486,0.9491577,1.59375,0.6875,-0.265625
675,675,1727198442464,-0.16674805,-0.38311768,0.9484253,0.96875,0.984375,-0.1875
676,676,1727198442504,-0.17236328,-0.378479,0.9476929,0.953125,0.765625,-0.25
677,677,1727198442544,-0.16333008,-0.37554932,0.94696045,1.21875,0.71875,0.0
678,678,1727198442584,-0.16577148,-0.37774658,0.94818115,1.078125,0.0625,-0.109375
679,679,1727198442624,-0.16552734,-0.38409424,0.9503784,1.0625,0.109375,-0.3125
680,680,1727198442664,-0.1586914,-0.37286377,0.9525757,1.109375,0.109375,-0.28125
681,681,1727198442704,-0.16552734,-0.37261963,0.94744873,1.140625,-0.171875,-0.3125
682,682,1727198442744,-0.1586914,-0.3748169,0.94525146,0.875,0.09375,-0.359375
683,683,1727198442784,-0.16308594,-0.37652588,0.94818115,1.140625,0.65625,-0.0625
684,684,1727198442824,-0.16625977,-0.37506104,0.9454956,0.96875,0.3125,-0.125
685,685,1727198442864,-0.1640625,-0.38336182,0.9484253,1.140625,0.0,-0.359375
686,686,1727198442904,-0.1616211,-0.37872314,0.9476929,1.046875,0.203125,-0.234375
687,687,1727198442944,-0.16577148,-0.37677002,0.94573975,1.125,0.15625,-0.21875
688,688,1727198442984,-0.1652832,-0.37799072,0.9467163,0.9375,0.125,-0.125
689,689,1727198443024,-0.16259766,-0.37530518,0.94696045,1.0,0.171875,-0.265625
690,690,1727198443064,-0.16113281,-0.37823486,0.9472046,0.953125,0.25,-0.15625
691,691,1727198443104,-0.15673828,-0.3760376,0.94281006,1.171875,0.1875,-0.28125
692,692,1727198443144,-0.1628418,-0.3867798,0.9484253,1.0,-0.125,-0.28125
693,693,1727198443184,-0.1616211,-0.37799072,0.9472046,0.78125,-0.3125,-0.25
694,694,1727198443224,-0.1586914,-0.38580322,0.951355,1.015625,-0.09375,-0.25
695,695,1727198443264,-0.16137695,-0.3789673,0.9520874,0.53125,-0.765625,-0.171875
696,696,1727198443304,-0.1616211,-0.37799072,0.9425659,0.375,-1.0,-0.375
697,697,1727198443344,-0.16235352,-0.37945557,0.9454956,0.171875,-0.75,-0.265625
698,698,1727198443384,-0.16430664,-0.3748169,0.9401245,-0.09375,-1.234375,-0.28125
699,699,1727198443424,-0.1743164,-0.37799072,0.9515991,0.046875,-1.453125,-0.375
700,700,1727198443464,-0.16040039,-0.36187744,0.9359741,-0.375,-1.25,-0.21875
701,701,1727198443504,-0.1821289,-0.39093018,0.95184326,0.046875,-1.75,-0.40625
702,702,1727198443544,-0.16796875,-0.36724854,0.94818115,0.109375,-2.125,-0.390625
703,703,1727198443584,-0.17773438,-0.36846924,0.94525146,-0.359375,-1.0625,-0.046875
704,704,1727198443624,-0.18261719,-0.3657837,0.9555054,0.40625,-0.515625,-0.203125
705,705,1727198443664,-0.17895508,-0.36773682,0.9508667,0.3125,-1.375,-0.203125
706,706,1727198443704,-0.18139648,-0.37579346,0.9472046,-0.21875,-1.375,-0.34375
707,707,1727198443744,-0.17895508,-0.37628174,0.9503784,0.21875,-1.0625,-0.4375
708,708,1727198443784,-0.17285156,-0.3526001,0.94085693,0.125,-1.125,-0.375
709,709,1727198443824,-0.18774414,-0.3682251,0.95111084,0.140625,-1.515625,-0.28125
710,710,1727198443864,-0.18041992,-0.36383057,0.9491577,0.203125,-1.578125,-0.5
711,711,1727198443904,-0.18945312,-0.36016846,0.94989014,0.015625,-1.890625,-0.5625
712,712,1727198443944,-0.1953125,-0.36090088,0.9484253,0.328125,-1.484375,-0.375
713,713,1727198443984,-0.1953125,-0.35455322,0.9467163,0.203125,-1.484375,-0.4375
714,714,1727198444024,-0.19555664,-0.3616333,0.94940186,0.59375,-1.0,-0.1875
715,715,1727198444064,-0.1977539,-0.35650635,0.94696045,0.609375,-0.703125,-0.1875
716,716,1727198444104,-0.19580078,-0.36260986,0.9418335,1.0625,-0.015625,-0.25
717,717,1727198444144,-0.19213867,-0.36065674,0.949646,1.15625,0.25,-0.25
718,718,1727198444184,-0.1940918,-0.36187744,0.9450073,1.0625,0.109375,-0.265625
719,719,1727198444224,-0.19506836,-0.36358643,0.9503784,1.265625,0.453125,-0.28125
720,720,1727198444264,-0.19506836,-0.3555298,0.94573975,1.34375,0.6875,-0.109375
721,721,1727198444304,-0.19458008,-0.3562622,0.94281006,1.484375,0.8125,-0.21875
722,722,1727198444344,-0.19335938,-0.35406494,0.9557495,1.5,0.859375,-0.21875
723,723,1727198444384,-0.18725586,-0.3670044,0.9484253,1.53125,0.734375,-0.28125
724,724,1727198444424,-0.18603516,-0.36138916,0.94573975,1.421875,0.609375,-0.203125
725,725,1727198444464,-0.18652344,-0.3665161,0.9450073,1.53125,0.84375,-0.28125
726,726,1727198444504,-0.18554688,-0.36383057,0.9435425,1.484375,0.96875,-0.1875
727,727,1727198444544,-0.19238281,-0.36993408,0.94647217,1.828125,1.359375,-0.171875
728,728,1727198444584,-0.1772461,-0.3555298,0.9364624,0.921875,0.109375,-0.328125
729,729,1727198444624,-0.1887207,-0.3670044,0.94989014,1.828125,0.890625,-0.078125
730,730,1727198444664,-0.18847656,-0.36749268,0.94818115,0.71875,0.15625,-0.28125
731,731,1727198444704,-0.1784668,-0.37017822,0.9489136,1.421875,1.015625,-0.359375
732,732,1727198444744,-0.17773438,-0.37091064,0.94525146,1.5625,1.03125,-0.078125
733,733,1727198444784,-0.18188477,-0.364563,0.94451904,1.578125,1.765625,-0.21875
734,734,1727198444824,-0.17822266,-0.364563,0.94744873,1.828125,0.96875,-0.21875
735,735,1727198444864,-0.17626953,-0.37384033,0.9467163,1.1875,0.84375,0.015625
736,736,1727198444904,-0.1821289,-0.36773682,0.949646,0.96875,1.0625,-0.171875
737,737,1727198444944,-0.17407227,-0.37139893,0.9484253,1.578125,1.171875,-0.03125
738,738,1727198444984,-0.17822266,-0.37042236,0.94818115,1.15625,0.203125,-0.234375
739,739,1727198445024,-0.17285156,-0.3682251,0.9533081,1.421875,0.640625,-0.171875
740,740,1727198445064,-0.16577148,-0.3723755,0.9491577,1.328125,0.28125,-0.34375
741,741,1727198445104,-0.1694336,-0.37384033,0.9425659,1.109375,0.171875,-0.234375
742,742,1727198445144,-0.17382812,-0.37286377,0.9381714,1.15625,0.21875,-0.1875
743,743,1727198445184,-0.17382812,-0.3789673,0.9450073,1.078125,0.453125,-0.15625
744,744,1727198445224,-0.16796875,-0.37677002,0.94403076,1.203125,0.671875,-0.09375
745,745,1727198445264,-0.16235352,-0.36871338,0.9430542,1.140625,0.296875,-0.21875
