,Unnamed: 0,timestamp,accel_x,accel_y,accel_z,gyro_x,gyro_y,gyro_z
0,0,1727110465964,-0.43408203,0.22381592,0.9130249,0.25,-0.28125,-0.375
1,1,1727110466004,-0.44604492,0.21795654,0.8986206,0.90625,-1.328125,0.546875
2,2,1727110466044,-0.44067383,0.2218628,0.8986206,0.6875,-0.484375,0.59375
3,3,1727110466084,-0.47045898,0.20916748,0.90740967,0.796875,-0.6875,0.625
4,4,1727110466124,-0.47094727,0.21820068,0.8973999,0.6875,-0.25,0.25
5,5,1727110466164,-0.46801758,0.2345581,0.8915405,0.984375,-0.21875,-0.15625
6,6,1727110466204,-0.46826172,0.22406006,0.8942261,1.453125,-0.203125,-0.390625
7,7,1727110466244,-0.46313477,0.21038818,0.89178467,1.96875,-0.40625,-0.296875
8,8,1727110466284,-0.45751953,0.20306396,0.901062,1.953125,-0.875,-0.0625
9,9,1727110466324,-0.45581055,0.21160889,0.90740967,1.1875,-0.171875,-0.28125
10,10,1727110466364,-0.44921875,0.20697021,0.91278076,1.734375,-0.515625,0.3125
11,11,1727110466404,-0.45629883,0.20721436,0.9039917,1.5,-0.625,0.203125
12,12,1727110466444,-0.46679688,0.20550537,0.89837646,1.421875,-0.46875,0.375
13,13,1727110466484,-0.47314453,0.20550537,0.89715576,1.234375,-0.328125,0.328125
14,14,1727110466524,-0.46533203,0.20574951,0.8978882,0.84375,-0.1875,0.015625
15,15,1727110466564,-0.4741211,0.2062378,0.9105835,1.40625,-0.234375,-0.125
16,16,1727110466604,-0.46801758,0.21014404,0.89837646,0.875,0.234375,-0.234375
17,17,1727110466644,-0.46850586,0.19866943,0.89764404,1.359375,-0.421875,-0.140625
18,18,1727110466684,-0.47216797,0.20648193,0.9110718,1.546875,0.25,-0.296875
19,19,1727110466724,-0.4699707,0.18865967,0.9064331,0.84375,0.03125,-0.453125
20,20,1727110466764,-0.4716797,0.19329834,0.9071655,0.71875,0.21875,-0.28125
21,21,1727110466804,-0.4621582,0.20111084,0.8954468,0.28125,0.234375,-0.015625
22,22,1727110466844,-0.4699707,0.20159912,0.90057373,0.421875,-0.0625,-0.0625
23,23,1727110466884,-0.47045898,0.19500732,0.90496826,0.671875,0.078125,-0.140625
24,24,1727110466924,-0.47314453,0.18695068,0.90008545,0.28125,0.140625,-0.0625
25,25,1727110466964,-0.4729004,0.1918335,0.9100952,0.3125,0.28125,-0.203125
26,26,1727110467004,-0.46850586,0.19525146,0.9035034,0.359375,0.078125,-0.296875
27,27,1727110467044,-0.46606445,0.19354248,0.9003296,0.390625,-0.078125,-0.25
28,28,1727110467084,-0.4675293,0.1918335,0.90008545,0.484375,0.328125,-0.125
29,29,1727110467124,-0.4650879,0.19354248,0.9032593,0.359375,-0.09375,-0.234375
30,30,1727110467164,-0.46875,0.18670654,0.9039917,0.53125,0.40625,-0.171875
31,31,1727110467204,-0.47314453,0.19110107,0.9047241,0.53125,0.265625,-0.296875
32,32,1727110467244,-0.46923828,0.18328857,0.8805542,0.109375,0.015625,-0.171875
33,33,1727110467284,-0.47265625,0.2074585,0.9274292,0.421875,0.046875,-0.203125
34,34,1727110467324,-0.4584961,0.19158936,0.8851929,-0.21875,0.21875,-0.484375
35,35,1727110467364,-0.47802734,0.18255615,0.9064331,0.46875,-0.046875,-0.65625
36,36,1727110467404,-0.46923828,0.18231201,0.90667725,-0.078125,-0.21875,-0.8125
37,37,1727110467444,-0.46801758,0.19573975,0.902771,0.109375,-0.390625,-0.4375
38,38,1727110467484,-0.47021484,0.21160889,0.90130615,0.359375,-0.671875,-0.640625
39,39,1727110467524,-0.47631836,0.1798706,0.89764404,0.625,-0.40625,-0.390625
40,40,1727110467564,-0.47973633,0.18817139,0.9003296,0.03125,0.203125,-0.484375
41,41,1727110467604,-0.46899414,0.18475342,0.8842163,-0.90625,0.265625,-0.421875
42,42,1727110467644,-0.47753906,0.19647217,0.8925171,-0.09375,0.421875,-0.53125
43,43,1727110467684,-0.47338867,0.20184326,0.8981323,-0.015625,0.46875,-0.140625
44,44,1727110467724,-0.46606445,0.20843506,0.9093628,0.796875,0.96875,-0.296875
45,45,1727110467764,-0.46899414,0.20550537,0.90423584,0.921875,1.0,-0.34375
46,46,1727110467804,-0.4580078,0.18084717,0.90545654,0.859375,0.609375,-0.015625
47,47,1727110467844,-0.46557617,0.18182373,0.902771,0.03125,0.0625,-0.46875
48,48,1727110467884,-0.45947266,0.19598389,0.89349365,-0.421875,-0.546875,-0.59375
49,49,1727110467924,-0.45947266,0.19207764,0.8829956,-0.25,-1.25,-0.53125
50,50,1727110467964,-0.47607422,0.20184326,0.93133545,0.484375,-0.34375,-0.390625
51,51,1727110468004,-0.46313477,0.19866943,0.8920288,-0.5625,0.078125,-0.625
52,52,1727110468044,-0.49145508,0.17962646,0.90179443,-0.203125,0.625,-0.546875
53,53,1727110468084,-0.47583008,0.19818115,0.8961792,-0.953125,1.3125,-1.0
54,54,1727110468124,-0.4753418,0.19769287,0.89398193,-1.140625,2.140625,-0.65625
55,55,1727110468164,-0.47387695,0.20721436,0.8986206,-0.984375,1.59375,-0.578125
56,56,1727110468204,-0.46142578,0.199646,0.90301514,-0.765625,1.640625,-0.5
57,57,1727110468244,-0.45117188,0.20526123,0.91082764,-0.328125,0.71875,-0.6875
58,58,1727110468284,-0.43847656,0.20062256,0.89837646,-0.859375,0.5,-0.921875
59,59,1727110468324,-0.45532227,0.2086792,0.9110718,0.171875,0.4375,-0.8125
60,60,1727110468364,-0.46704102,0.20111084,0.9039917,0.15625,-0.296875,-0.3125
61,61,1727110468404,-0.46948242,0.20965576,0.90374756,-0.375,0.203125,-0.171875
62,62,1727110468444,-0.4658203,0.2098999,0.8973999,-0.671875,0.234375,-0.0625
63,63,1727110468484,-0.46264648,0.20794678,0.9032593,-0.46875,0.078125,-0.328125
64,64,1727110468524,-0.45874023,0.2033081,0.89520264,-0.34375,0.609375,-0.53125
65,65,1727110468564,-0.46435547,0.2020874,0.899353,-0.390625,0.484375,-0.515625
66,66,1727110468604,-0.46801758,0.19598389,0.89276123,-0.3125,0.1875,-0.40625
67,67,1727110468644,-0.46679688,0.22137451,0.9225464,-0.5,0.40625,-0.59375
68,68,1727110468684,-0.44604492,0.21014404,0.8912964,-1.390625,0.84375,-0.625
69,69,1727110468724,-0.46166992,0.20843506,0.90960693,-1.171875,0.75,-0.765625
70,70,1727110468764,-0.45117188,0.22113037,0.89764404,-1.875,0.96875,-0.96875
71,71,1727110468804,-0.4597168,0.23016357,0.8986206,-1.078125,0.640625,-0.515625
72,72,1727110468844,-0.45507812,0.2255249,0.90179443,-0.96875,0.421875,-0.625
73,73,1727110468884,-0.45629883,0.22625732,0.90008545,-0.71875,0.09375,-0.609375
74,74,1727110468924,-0.45703125,0.22796631,0.92108154,-0.765625,0.453125,-0.6875
75,75,1727110468964,-0.44580078,0.2255249,0.8961792,-1.0,0.1875,-0.53125
76,76,1727110469004,-0.45239258,0.23431396,0.8998413,-0.59375,0.921875,-0.796875
77,77,1727110469044,-0.44873047,0.22161865,0.89276123,-0.75,0.0,-0.4375
78,78,1727110469084,-0.4584961,0.23260498,0.90667725,-0.578125,0.1875,-0.40625
79,79,1727110469124,-0.45043945,0.23236084,0.9059448,-0.53125,0.03125,-0.3125
80,80,1727110469164,-0.4555664,0.23358154,0.8986206,-0.53125,-0.078125,0.03125
81,81,1727110469204,-0.45581055,0.23358154,0.89764404,-0.46875,0.015625,-0.25
82,82,1727110469244,-0.45581055,0.23016357,0.89398193,-0.421875,-0.125,-0.21875
83,83,1727110469284,-0.45629883,0.22357178,0.87664795,-0.40625,-0.4375,-0.1875
84,84,1727110469324,-0.4572754,0.24505615,0.9135132,0.03125,-0.296875,-0.09375
85,85,1727110469364,-0.4428711,0.23553467,0.8798218,-0.71875,0.5,-0.484375
86,86,1727110469404,-0.46020508,0.23187256,0.8998413,0.3125,0.015625,-0.3125
87,87,1727110469444,-0.4555664,0.23651123,0.8942261,0.40625,-0.09375,-0.40625
88,88,1727110469484,-0.4543457,0.2387085,0.8973999,0.828125,0.109375,-0.0625
89,89,1727110469524,-0.45825195,0.23944092,0.8949585,1.0,-0.09375,0.046875
90,90,1727110469564,-0.45092773,0.22650146,0.8961792,1.390625,-0.3125,0.03125
91,91,1727110469604,-0.45385742,0.2333374,0.90838623,1.390625,-0.515625,0.015625
92,92,1727110469644,-0.45361328,0.22845459,0.8954468,1.15625,-0.296875,-0.015625
93,93,1727110469684,-0.4638672,0.23040771,0.902771,1.671875,-0.390625,0.234375
94,94,1727110469724,-0.45922852,0.21966553,0.8954468,1.765625,-0.671875,0.0625
95,95,1727110469764,-0.46020508,0.22406006,0.8966675,1.796875,-0.828125,0.125
96,96,1727110469804,-0.45898438,0.21942139,0.89715576,1.578125,-0.359375,0.09375
97,97,1727110469844,-0.45922852,0.22210693,0.89764404,1.578125,-0.46875,0.265625
98,98,1727110469884,-0.45776367,0.21551514,0.899353,1.484375,-0.140625,0.296875
99,99,1727110469924,-0.4621582,0.21380615,0.90252686,1.546875,-0.671875,0.140625
100,100,1727110469964,-0.4675293,0.20233154,0.8781128,1.46875,-0.703125,0.28125
101,101,1727110470004,-0.46435547,0.21942139,0.9135132,2.25,-0.84375,0.40625
102,102,1727110470044,-0.45507812,0.20452881,0.87908936,0.75,-0.125,0.0625
103,103,1727110470084,-0.4729004,0.19891357,0.8991089,1.734375,-0.25,0.046875
104,104,1727110470124,-0.46191406,0.20574951,0.89764404,1.421875,-0.328125,-0.421875
105,105,1727110470164,-0.47192383,0.20428467,0.89642334,1.453125,0.015625,0.078125
106,106,1727110470204,-0.46728516,0.2033081,0.8966675,1.296875,-0.296875,0.03125
107,107,1727110470244,-0.46899414,0.19989014,0.8981323,1.234375,-0.125,0.015625
108,108,1727110470284,-0.4663086,0.20257568,0.8991089,0.984375,-0.0625,-0.109375
109,109,1727110470324,-0.4675293,0.19354248,0.8915405,0.5,0.171875,-0.140625
110,110,1727110470364,-0.47460938,0.19647217,0.89959717,0.78125,0.203125,0.078125
111,111,1727110470404,-0.47314453,0.19769287,0.9015503,0.859375,-0.25,-0.046875
112,112,1727110470444,-0.47070312,0.2033081,0.9032593,0.96875,-0.125,-0.03125
113,113,1727110470484,-0.4724121,0.1984253,0.9008179,0.640625,-0.015625,-0.03125
114,114,1727110470524,-0.46435547,0.19915771,0.9069214,0.53125,0.09375,-0.15625
115,115,1727110470564,-0.47314453,0.19720459,0.8973999,0.359375,0.0,-0.046875
116,116,1727110470604,-0.4645996,0.18890381,0.8956909,0.546875,0.21875,-0.171875
117,117,1727110470644,-0.46826172,0.19598389,0.89642334,0.578125,-0.03125,-0.1875
118,118,1727110470684,-0.47387695,0.18841553,0.8834839,0.421875,-0.1875,-0.15625
119,119,1727110470724,-0.4699707,0.19989014,0.91986084,0.25,0.140625,-0.015625
120,120,1727110470764,-0.46362305,0.19573975,0.8834839,-0.390625,0.5,-0.203125
121,121,1727110470804,-0.4814453,0.19256592,0.90252686,0.640625,0.109375,-0.4375
122,122,1727110470844,-0.47094727,0.19696045,0.9015503,-0.046875,0.21875,-0.671875
123,123,1727110470884,-0.46850586,0.19769287,0.89105225,0.0,0.59375,-0.234375
124,124,1727110470924,-0.46923828,0.21014404,0.89715576,-0.046875,0.28125,-0.359375
125,125,1727110470964,-0.46704102,0.19915771,0.90008545,0.109375,0.265625,-0.234375
126,126,1727110471004,-0.47216797,0.19793701,0.8998413,0.296875,0.109375,-0.21875
127,127,1727110471044,-0.4609375,0.18890381,0.89642334,0.109375,0.203125,-0.265625
128,128,1727110471084,-0.47070312,0.19598389,0.8949585,0.4375,0.1875,-0.1875
129,129,1727110471124,-0.47045898,0.19744873,0.8998413,0.421875,0.125,-0.28125
130,130,1727110471164,-0.4567871,0.19403076,0.89764404,0.34375,0.0625,-0.015625
131,131,1727110471204,-0.47045898,0.20062256,0.8961792,0.34375,0.046875,-0.1875
132,132,1727110471244,-0.47314453,0.19500732,0.89837646,0.1875,0.015625,-0.140625
133,133,1727110471284,-0.47216797,0.19622803,0.9003296,0.265625,0.296875,-0.15625
134,134,1727110471324,-0.4724121,0.20135498,0.9035034,0.125,0.28125,-0.171875
135,135,1727110471364,-0.46606445,0.19793701,0.8961792,0.125,0.328125,-0.203125
136,136,1727110471404,-0.4633789,0.19525146,0.9071655,0.28125,0.125,-0.3125
137,137,1727110471444,-0.4663086,0.20428467,0.901062,-0.109375,0.359375,-0.296875
138,138,1727110471484,-0.46728516,0.1918335,0.8903198,0.234375,-0.0625,0.078125
139,139,1727110471524,-0.4729004,0.21258545,0.91033936,0.203125,0.421875,-0.453125
140,140,1727110471564,-0.46118164,0.18914795,0.89471436,-0.15625,0.3125,-0.625
141,141,1727110471604,-0.4675293,0.19696045,0.90423584,-0.09375,0.515625,-0.296875
142,142,1727110471644,-0.47558594,0.20477295,0.89959717,-0.046875,0.171875,-0.109375
143,143,1727110471684,-0.46875,0.20281982,0.8969116,0.234375,0.046875,-0.25
144,144,1727110471724,-0.46484375,0.19207764,0.8998413,0.078125,0.0625,-0.328125
145,145,1727110471764,-0.47094727,0.18890381,0.899353,0.359375,-0.015625,-0.15625
146,146,1727110471804,-0.4609375,0.20819092,0.9057007,-0.09375,0.515625,-0.390625
147,147,1727110471844,-0.46240234,0.19671631,0.9008179,0.375,0.125,-0.25
148,148,1727110471884,-0.46557617,0.19989014,0.9015503,0.15625,-0.09375,-0.21875
149,149,1727110471924,-0.46679688,0.20233154,0.90667725,0.203125,0.234375,-0.203125
150,150,1727110471964,-0.47021484,0.19476318,0.9020386,0.0625,0.265625,-0.125
151,151,1727110472004,-0.46801758,0.19622803,0.9071655,-0.265625,0.53125,-0.21875
152,152,1727110472044,-0.46679688,0.19573975,0.9032593,-0.15625,0.421875,-0.296875
153,153,1727110472084,-0.46411133,0.20233154,0.9052124,-0.15625,0.546875,-0.359375
154,154,1727110472124,-0.46435547,0.19598389,0.9059448,-0.625,1.046875,-0.3125
155,155,1727110472164,-0.46240234,0.20892334,0.9069214,-1.0,1.328125,-0.359375
156,156,1727110472204,-0.45776367,0.21575928,0.89764404,-0.9375,1.3125,-0.671875
157,157,1727110472244,-0.45483398,0.20306396,0.8925171,-0.65625,0.328125,-0.1875
158,158,1727110472284,-0.4663086,0.20916748,0.90789795,-0.640625,1.078125,-0.6875
159,159,1727110472324,-0.45922852,0.2008667,0.90130615,-1.21875,1.0,-0.875
160,160,1727110472364,-0.4580078,0.21258545,0.89959717,-1.09375,1.171875,-0.75
161,161,1727110472404,-0.4584961,0.21990967,0.90179443,-0.921875,0.984375,-0.546875
162,162,1727110472444,-0.44921875,0.21722412,0.90130615,-0.90625,0.484375,-0.734375
163,163,1727110472484,-0.45922852,0.21038818,0.89886475,-0.9375,0.515625,-0.71875
164,164,1727110472524,-0.4633789,0.20306396,0.8969116,-0.359375,0.328125,-0.34375
165,165,1727110472564,-0.4506836,0.2189331,0.8954468,-1.0,0.578125,-0.546875
166,166,1727110472604,-0.4494629,0.21087646,0.9003296,-0.5,0.0625,-0.515625
167,167,1727110472644,-0.4506836,0.21234131,0.8998413,-1.1875,0.375,-0.5625
168,168,1727110472684,-0.45654297,0.22064209,0.89959717,-1.359375,0.109375,-0.671875
169,169,1727110472724,-0.45507812,0.22528076,0.90008545,-1.03125,-0.25,-0.484375
170,170,1727110472764,-0.45751953,0.2243042,0.90008545,-1.0,-0.203125,-0.46875
171,171,1727110472804,-0.45361328,0.22259521,0.90301514,-1.015625,-0.09375,-0.40625
172,172,1727110472844,-0.45117188,0.2333374,0.899353,-1.015625,0.125,-0.4375
173,173,1727110472884,-0.45825195,0.23162842,0.8956909,-0.875,-0.03125,-0.546875
174,174,1727110472924,-0.44799805,0.22747803,0.90496826,-1.4375,0.546875,-0.6875
175,175,1727110472964,-0.46411133,0.24383545,0.8986206,-0.9375,-0.40625,-0.1875
176,176,1727110473004,-0.45507812,0.23675537,0.90008545,-1.609375,0.53125,-0.8125
177,177,1727110473044,-0.4580078,0.22479248,0.9015503,-1.46875,0.59375,-0.875
178,178,1727110473084,-0.45336914,0.24481201,0.89398193,-1.734375,0.578125,-0.890625
179,179,1727110473124,-0.45581055,0.25408936,0.8981323,-1.171875,0.34375,-0.46875
180,180,1727110473164,-0.45654297,0.24725342,0.901062,-0.953125,0.15625,-0.578125
181,181,1727110473204,-0.45092773,0.24261475,0.8912964,-0.90625,-0.03125,-0.609375
182,182,1727110473244,-0.45874023,0.23822021,0.9039917,-0.046875,-0.28125,-0.421875
183,183,1727110473284,-0.44604492,0.24969482,0.9020386,-0.09375,-0.203125,-0.421875
184,184,1727110473324,-0.45214844,0.24920654,0.8949585,-0.09375,-0.71875,-0.015625
185,185,1727110473364,-0.45263672,0.24456787,0.88812256,-0.078125,-0.40625,-0.203125
186,186,1727110473404,-0.45581055,0.24920654,0.8920288,0.609375,-0.578125,0.03125
187,187,1727110473444,-0.45825195,0.24725342,0.8978882,1.46875,-0.53125,0.0
188,188,1727110473484,-0.45922852,0.23968506,0.88739014,1.0625,-0.03125,0.171875
189,189,1727110473524,-0.45654297,0.24603271,0.90057373,1.078125,0.0625,0.03125
190,190,1727110473564,-0.45532227,0.24261475,0.89349365,1.046875,-0.125,0.140625
191,191,1727110473604,-0.4584961,0.24481201,0.91082764,1.625,-0.46875,0.28125
192,192,1727110473644,-0.45703125,0.2453003,0.8978882,1.015625,0.25,-0.046875
193,193,1727110473684,-0.4519043,0.23187256,0.8981323,1.34375,-0.53125,0.296875
194,194,1727110473724,-0.45996094,0.24139404,0.90667725,1.375,0.078125,-0.09375
195,195,1727110473764,-0.4597168,0.23358154,0.8900757,1.328125,0.421875,-0.421875
196,196,1727110473804,-0.4609375,0.23260498,0.8912964,1.921875,0.0625,0.171875
197,197,1727110473844,-0.46142578,0.23773193,0.8981323,1.859375,0.0625,0.203125
198,198,1727110473884,-0.45532227,0.22796631,0.89471436,1.65625,-0.1875,0.140625
199,199,1727110473924,-0.46362305,0.21990967,0.9035034,1.390625,0.015625,0.09375
200,200,1727110473964,-0.46435547,0.22064209,0.89178467,1.515625,-0.078125,0.015625
201,201,1727110474004,-0.45922852,0.23651123,0.8978882,1.171875,-0.015625,-0.09375
202,202,1727110474044,-0.45703125,0.21917725,0.9032593,1.703125,-0.40625,0.140625
203,203,1727110474084,-0.46044922,0.21380615,0.9015503,1.578125,-0.5625,0.3125
204,204,1727110474124,-0.46801758,0.22283936,0.8956909,1.375,-0.296875,0.25
205,205,1727110474164,-0.46826172,0.21551514,0.8969116,1.40625,-0.28125,0.09375
206,206,1727110474204,-0.46020508,0.21258545,0.8942261,1.046875,-0.3125,0.25
207,207,1727110474244,-0.46313477,0.21844482,0.8978882,1.234375,-0.1875,0.078125
208,208,1727110474284,-0.46557617,0.21429443,0.9020386,1.28125,-0.375,0.046875
209,209,1727110474324,-0.46655273,0.20819092,0.8966675,1.71875,-0.59375,0.109375
210,210,1727110474364,-0.46484375,0.21502686,0.89105225,1.09375,-0.1875,0.015625
211,211,1727110474404,-0.46289062,0.19622803,0.8920288,1.1875,-0.421875,0.15625
212,212,1727110474444,-0.47729492,0.21014404,0.90496826,1.484375,-0.3125,-0.109375
213,213,1727110474484,-0.46850586,0.2033081,0.90545654,0.78125,-0.140625,-0.359375
214,214,1727110474524,-0.4729004,0.20672607,0.9022827,0.671875,0.28125,-0.078125
215,215,1727110474564,-0.47045898,0.20672607,0.89520264,0.5625,-0.015625,-0.046875
216,216,1727110474604,-0.4675293,0.20648193,0.90301514,0.734375,-0.046875,-0.171875
217,217,1727110474644,-0.46875,0.20379639,0.8961792,0.609375,-0.0625,-0.21875
218,218,1727110474684,-0.47705078,0.19256592,0.8973999,0.328125,-0.0625,0.03125
219,219,1727110474724,-0.46826172,0.20941162,0.902771,0.71875,0.25,-0.15625
220,220,1727110474764,-0.46679688,0.19940186,0.8973999,0.640625,-0.09375,-0.015625
221,221,1727110474804,-0.46728516,0.19866943,0.9022827,0.609375,-0.3125,-0.171875
222,222,1727110474844,-0.47143555,0.19647217,0.9032593,0.46875,0.03125,-0.140625
223,223,1727110474884,-0.4638672,0.20159912,0.8966675,0.078125,0.109375,-0.390625
224,224,1727110474924,-0.46533203,0.20770264,0.90448,0.453125,-0.046875,-0.078125
225,225,1727110474964,-0.46362305,0.19793701,0.8956909,0.34375,0.046875,-0.171875
226,226,1727110475004,-0.46704102,0.20013428,0.8895874,0.203125,0.21875,-0.296875
227,227,1727110475044,-0.47827148,0.19989014,0.9052124,0.453125,0.265625,-0.140625
228,228,1727110475084,-0.46606445,0.20965576,0.89642334,0.046875,0.46875,-0.328125
229,229,1727110475124,-0.46655273,0.19989014,0.8912964,0.328125,-0.015625,0.0625
230,230,1727110475164,-0.47387695,0.21014404,0.90545654,0.1875,0.625,-0.609375
231,231,1727110475204,-0.46972656,0.19134521,0.89398193,-0.0625,0.296875,-0.578125
232,232,1727110475244,-0.47583008,0.19598389,0.9035034,-0.03125,0.6875,-0.140625
233,233,1727110475284,-0.46875,0.20599365,0.89178467,-0.21875,0.453125,-0.125
234,234,1727110475324,-0.46704102,0.20037842,0.8981323,0.296875,0.171875,-0.140625
235,235,1727110475364,-0.46850586,0.20672607,0.89886475,0.234375,0.21875,-0.0625
236,236,1727110475404,-0.46923828,0.20062256,0.8973999,0.421875,0.375,-0.40625
237,237,1727110475444,-0.4572754,0.20599365,0.8925171,-0.1875,0.5625,-0.28125
238,238,1727110475484,-0.47216797,0.19354248,0.89471436,0.359375,0.328125,-0.15625
239,239,1727110475524,-0.46801758,0.20159912,0.899353,0.265625,-0.28125,-0.078125
240,240,1727110475564,-0.47143555,0.20037842,0.9022827,0.296875,-0.171875,-0.09375
241,241,1727110475604,-0.47021484,0.20355225,0.90130615,0.265625,-0.09375,-0.328125
242,242,1727110475644,-0.46923828,0.19818115,0.9047241,0.15625,0.21875,-0.203125
243,243,1727110475684,-0.47070312,0.19403076,0.8920288,0.140625,0.28125,-0.171875
244,244,1727110475724,-0.4645996,0.19818115,0.89837646,0.109375,0.3125,-0.34375
245,245,1727110475764,-0.46923828,0.20184326,0.89593506,0.078125,0.28125,-0.21875
246,246,1727110475804,-0.46801758,0.19378662,0.9086304,-0.46875,0.859375,-0.484375
247,247,1727110475844,-0.46801758,0.2020874,0.89959717,0.40625,0.125,-0.046875
248,248,1727110475884,-0.46142578,0.20916748,0.89520264,-0.28125,0.921875,-0.40625
249,249,1727110475924,-0.46899414,0.19256592,0.89715576,-0.296875,0.875,-0.6875
250,250,1727110475964,-0.4638672,0.20404053,0.90130615,-0.625,1.21875,-0.65625
251,251,1727110476004,-0.46362305,0.2074585,0.89520264,-0.734375,1.015625,-0.375
252,252,1727110476044,-0.46484375,0.20794678,0.9052124,-0.5625,0.625,-0.453125
253,253,1727110476084,-0.4638672,0.19866943,0.8973999,-0.421875,0.671875,-0.4375
254,254,1727110476124,-0.46362305,0.20892334,0.91156006,-0.109375,0.6875,-0.484375
255,255,1727110476164,-0.44873047,0.20404053,0.8920288,-1.0,0.828125,-0.578125
256,256,1727110476204,-0.46142578,0.20697021,0.90667725,-0.015625,0.53125,-0.328125
257,257,1727110476244,-0.4621582,0.21160889,0.90618896,-0.34375,0.25,-0.5
258,258,1727110476284,-0.45922852,0.21722412,0.9008179,-0.53125,0.5,-0.390625
259,259,1727110476324,-0.45996094,0.21600342,0.902771,-0.625,0.3125,-0.28125
260,260,1727110476364,-0.45654297,0.2111206,0.8986206,-0.65625,0.546875,-0.53125
261,261,1727110476404,-0.46069336,0.215271,0.9059448,-0.796875,0.171875,-0.296875
262,262,1727110476444,-0.45507812,0.21551514,0.8954468,-0.796875,0.640625,-0.65625
263,263,1727110476484,-0.46069336,0.22113037,0.8986206,-0.546875,0.234375,-0.453125
264,264,1727110476524,-0.453125,0.21282959,0.9059448,-1.109375,0.453125,-0.546875
265,265,1727110476564,-0.46240234,0.21966553,0.9020386,-0.265625,-0.078125,-0.265625
266,266,1727110476604,-0.44995117,0.22454834,0.89593506,-1.234375,1.0,-0.84375
267,267,1727110476644,-0.45825195,0.20672607,0.9059448,-1.40625,0.984375,-0.78125
268,268,1727110476684,-0.45922852,0.2296753,0.8956909,-1.484375,0.921875,-0.796875
269,269,1727110476724,-0.45751953,0.22625732,0.90374756,-0.8125,0.78125,-0.546875
270,270,1727110476764,-0.4519043,0.22918701,0.89715576,-0.78125,0.453125,-0.609375
271,271,1727110476804,-0.45117188,0.22454834,0.8930054,-0.4375,0.078125,-0.46875
272,272,1727110476844,-0.45043945,0.23773193,0.918396,-0.234375,-0.09375,-0.59375
273,273,1727110476884,-0.44506836,0.23553467,0.90545654,-0.53125,-0.046875,-0.421875
274,274,1727110476924,-0.45825195,0.22650146,0.90618896,-0.265625,0.25,-0.3125
275,275,1727110476964,-0.4501953,0.23016357,0.88861084,-0.59375,-0.484375,-0.296875
276,276,1727110477004,-0.45581055,0.23651123,0.90179443,-0.34375,-0.234375,-0.28125
277,277,1727110477044,-0.46313477,0.2345581,0.9003296,-0.1875,-0.265625,-0.296875
278,278,1727110477084,-0.45336914,0.23382568,0.89471436,-0.15625,-0.1875,-0.3125
279,279,1727110477124,-0.44873047,0.23944092,0.8942261,-0.15625,-0.265625,-0.171875
280,280,1727110477164,-0.4572754,0.23406982,0.8973999,0.40625,-0.140625,-0.203125
281,281,1727110477204,-0.45776367,0.23382568,0.8944702,0.640625,-0.28125,-0.046875
282,282,1727110477244,-0.44702148,0.22698975,0.9047241,0.359375,0.140625,-0.125
283,283,1727110477284,-0.46044922,0.23675537,0.89178467,1.15625,-0.53125,0.203125
284,284,1727110477324,-0.45214844,0.23724365,0.8932495,0.546875,0.265625,-0.109375
285,285,1727110477364,-0.45703125,0.21453857,0.8969116,0.625,0.140625,-0.46875
286,286,1727110477404,-0.46826172,0.23431396,0.8981323,0.78125,0.09375,-0.1875
287,287,1727110477444,-0.4560547,0.2296753,0.90057373,1.078125,0.140625,0.21875
288,288,1727110477484,-0.45532227,0.2333374,0.8978882,1.46875,-0.3125,0.0625
289,289,1727110477524,-0.4645996,0.21453857,0.90179443,1.296875,-0.125,-0.125
290,290,1727110477564,-0.46264648,0.22406006,0.9100952,1.03125,-0.0625,-0.15625
291,291,1727110477604,-0.44677734,0.22357178,0.8949585,0.75,-0.046875,-0.0625
292,292,1727110477644,-0.46850586,0.2177124,0.89764404,1.234375,-0.03125,0.3125
293,293,1727110477684,-0.46606445,0.21307373,0.89520264,1.140625,-0.40625,-0.046875
294,294,1727110477724,-0.4699707,0.22650146,0.9015503,1.21875,-0.46875,0.109375
295,295,1727110477764,-0.46850586,0.22235107,0.8998413,1.09375,-0.015625,0.1875
296,296,1727110477804,-0.46044922,0.21038818,0.9035034,0.8125,0.09375,0.0
297,297,1727110477844,-0.46313477,0.21600342,0.9008179,0.828125,-0.234375,0.171875
298,298,1727110477884,-0.46313477,0.20770264,0.8944702,0.71875,-0.09375,-0.078125
299,299,1727110477924,-0.4663086,0.21307373,0.89593506,0.796875,-0.03125,-0.125
300,300,1727110477964,-0.45336914,0.21014404,0.90496826,0.640625,0.25,-0.140625
301,301,1727110478004,-0.4729004,0.21087646,0.8998413,1.28125,-0.359375,0.1875
302,302,1727110478044,-0.46118164,0.21575928,0.8912964,0.390625,0.53125,-0.328125
303,303,1727110478084,-0.47070312,0.2062378,0.90008545,0.78125,0.125,-0.328125
304,304,1727110478124,-0.46289062,0.21331787,0.8932495,0.6875,0.3125,-0.234375
305,305,1727110478164,-0.45532227,0.21429443,0.8942261,0.828125,0.203125,-0.03125
306,306,1727110478204,-0.47094727,0.21160889,0.8978882,1.015625,-0.21875,-0.09375
307,307,1727110478244,-0.45898438,0.20306396,0.89837646,0.9375,-0.453125,-0.203125
308,308,1727110478284,-0.46655273,0.2074585,0.90740967,0.96875,-0.046875,0.046875
309,309,1727110478324,-0.46240234,0.20111084,0.89227295,0.4375,0.34375,-0.171875
310,310,1727110478364,-0.47045898,0.20721436,0.8998413,1.015625,0.234375,0.046875
311,311,1727110478404,-0.47021484,0.20159912,0.8981323,0.5625,-0.234375,-0.09375
312,312,1727110478444,-0.46728516,0.21063232,0.90448,0.59375,-0.109375,0.078125
313,313,1727110478484,-0.47143555,0.20843506,0.902771,0.515625,-0.0625,-0.171875
314,314,1727110478524,-0.46923828,0.20550537,0.9032593,0.46875,0.078125,-0.296875
315,315,1727110478564,-0.4711914,0.19793701,0.89959717,0.359375,0.0,-0.140625
316,316,1727110478604,-0.4663086,0.20721436,0.9022827,0.34375,0.0625,-0.296875
317,317,1727110478644,-0.4658203,0.20037842,0.89520264,0.296875,0.21875,-0.203125
318,318,1727110478684,-0.47143555,0.20037842,0.8986206,0.328125,0.234375,-0.171875
319,319,1727110478724,-0.46826172,0.20672607,0.90789795,0.0625,0.59375,-0.34375
320,320,1727110478764,-0.47387695,0.20233154,0.89642334,0.578125,-0.046875,-0.09375
321,321,1727110478804,-0.46289062,0.20574951,0.8986206,-0.015625,0.5625,-0.53125
322,322,1727110478844,-0.4645996,0.18988037,0.9003296,0.234375,0.25,-0.484375
323,323,1727110478884,-0.4729004,0.20428467,0.9003296,0.140625,0.515625,-0.390625
324,324,1727110478924,-0.47436523,0.21209717,0.8969116,0.0,0.265625,-0.15625
325,325,1727110478964,-0.46899414,0.19720459,0.9003296,0.109375,0.09375,-0.296875
326,326,1727110479004,-0.46728516,0.20184326,0.899353,0.046875,0.296875,-0.21875
327,327,1727110479044,-0.46850586,0.20062256,0.91156006,0.0625,0.234375,-0.171875
328,328,1727110479084,-0.45458984,0.2008667,0.8866577,-0.0625,0.734375,-0.390625
329,329,1727110479124,-0.46801758,0.20404053,0.901062,0.375,0.421875,-0.234375
330,330,1727110479164,-0.46264648,0.19915771,0.8966675,0.4375,-0.21875,-0.125
331,331,1727110479204,-0.47143555,0.20281982,0.90960693,0.28125,0.03125,-0.0625
332,332,1727110479244,-0.46557617,0.2020874,0.89837646,0.234375,0.0625,-0.125
333,333,1727110479284,-0.4638672,0.19573975,0.9059448,0.21875,0.125,-0.078125
334,334,1727110479324,-0.47314453,0.19915771,0.89349365,0.171875,0.046875,-0.078125
335,335,1727110479364,-0.4650879,0.21038818,0.90057373,0.21875,-0.0625,-0.21875
336,336,1727110479404,-0.4638672,0.20159912,0.8998413,0.390625,0.078125,-0.140625
337,337,1727110479444,-0.4741211,0.20111084,0.90252686,0.3125,0.140625,-0.15625
338,338,1727110479484,-0.46923828,0.19720459,0.89471436,0.1875,-0.078125,-0.1875
339,339,1727110479524,-0.47021484,0.20159912,0.9135132,0.09375,0.484375,-0.28125
340,340,1727110479564,-0.45776367,0.2033081,0.899353,0.015625,0.4375,-0.359375
341,341,1727110479604,-0.4729004,0.19720459,0.9098511,0.15625,0.53125,-0.515625
342,342,1727110479644,-0.46728516,0.19744873,0.9057007,-0.4375,0.734375,-0.78125
343,343,1727110479684,-0.4663086,0.20379639,0.8986206,-0.328125,0.9375,-0.34375
344,344,1727110479724,-0.47094727,0.21307373,0.9022827,-0.234375,0.609375,-0.46875
345,345,1727110479764,-0.45751953,0.20233154,0.89471436,-0.15625,0.296875,-0.40625
346,346,1727110479804,-0.4663086,0.19891357,0.90301514,-0.03125,0.484375,-0.515625
347,347,1727110479844,-0.46899414,0.20233154,0.9022827,-0.171875,0.171875,-0.1875
348,348,1727110479884,-0.46557617,0.21234131,0.91278076,0.015625,0.78125,-0.390625
349,349,1727110479924,-0.45922852,0.20404053,0.8981323,-0.015625,0.296875,-0.453125
350,350,1727110479964,-0.46118164,0.20037842,0.90618896,-0.359375,0.34375,-0.25
351,351,1727110480004,-0.46411133,0.20941162,0.9022827,-0.640625,0.65625,-0.296875
352,352,1727110480044,-0.4584961,0.20526123,0.8969116,-0.390625,0.5,-0.265625
353,353,1727110480084,-0.4580078,0.21209717,0.9057007,-0.453125,0.5,-0.53125
354,354,1727110480124,-0.45654297,0.21185303,0.9008179,-0.484375,0.25,-0.421875
355,355,1727110480164,-0.4638672,0.215271,0.9003296,-0.3125,0.359375,-0.546875
356,356,1727110480204,-0.46264648,0.20843506,0.9022827,-0.203125,0.328125,-0.359375
357,357,1727110480244,-0.4609375,0.20477295,0.887146,-0.703125,0.3125,-0.59375
358,358,1727110480284,-0.45483398,0.22064209,0.9137573,-0.46875,0.421875,-0.46875
359,359,1727110480324,-0.4482422,0.21331787,0.8851929,-1.15625,0.609375,-0.671875
360,360,1727110480364,-0.46606445,0.21063232,0.9076538,-0.53125,0.65625,-0.6875
361,361,1727110480404,-0.4597168,0.2243042,0.8932495,-1.3125,0.96875,-1.078125
362,362,1727110480444,-0.45629883,0.22064209,0.90252686,-0.90625,1.0,-0.578125
363,363,1727110480484,-0.45751953,0.22235107,0.8961792,-0.625,0.40625,-0.421875
364,364,1727110480524,-0.44921875,0.22088623,0.9020386,-0.609375,-0.0625,-0.59375
365,365,1727110480564,-0.45532227,0.22161865,0.90057373,-0.8125,0.046875,-0.625
366,366,1727110480604,-0.45385742,0.21966553,0.8944702,-0.546875,-0.25,-0.203125
367,367,1727110480644,-0.4543457,0.23236084,0.90618896,-0.21875,0.40625,-0.265625
368,368,1727110480684,-0.44799805,0.22747803,0.89276123,-0.34375,-0.171875,-0.296875
369,369,1727110480724,-0.45361328,0.22088623,0.9015503,-0.46875,0.109375,-0.421875
370,370,1727110480764,-0.45458984,0.23358154,0.9020386,-0.578125,-0.015625,-0.21875
371,371,1727110480804,-0.45996094,0.23138428,0.89886475,-0.53125,0.078125,-0.25
372,372,1727110480844,-0.4506836,0.230896,0.8986206,-0.453125,-0.203125,-0.359375
373,373,1727110480884,-0.45703125,0.22821045,0.8942261,-0.296875,-0.140625,-0.28125
374,374,1727110480924,-0.45410156,0.23040771,0.9022827,-0.453125,-0.078125,-0.21875
375,375,1727110480964,-0.45996094,0.23626709,0.90838623,-0.140625,-0.09375,-0.1875
376,376,1727110481004,-0.4494629,0.23895264,0.8998413,-0.328125,0.0625,-0.40625
377,377,1727110481044,-0.45581055,0.23284912,0.9032593,0.109375,-0.46875,-0.078125
378,378,1727110481084,-0.4597168,0.24334717,0.90740967,0.25,-0.03125,-0.4375
379,379,1727110481124,-0.4543457,0.22747803,0.88812256,-0.171875,0.21875,-0.734375
380,380,1727110481164,-0.45751953,0.23773193,0.8986206,0.3125,0.265625,-0.28125
381,381,1727110481204,-0.4572754,0.24603271,0.8973999,0.640625,0.0625,-0.15625
382,382,1727110481244,-0.4560547,0.2345581,0.8966675,0.71875,-0.03125,-0.203125
383,383,1727110481284,-0.45825195,0.23162842,0.90130615,0.859375,-0.1875,-0.125
384,384,1727110481324,-0.45703125,0.23577881,0.89959717,1.46875,-0.328125,0.15625
385,385,1727110481364,-0.44799805,0.23846436,0.89105225,1.28125,0.09375,-0.015625
386,386,1727110481404,-0.45141602,0.23284912,0.89959717,1.234375,-0.3125,0.15625
387,387,1727110481444,-0.46118164,0.22406006,0.89764404,0.96875,-0.3125,0.125
388,388,1727110481484,-0.46166992,0.23114014,0.89471436,0.90625,-0.171875,0.125
389,389,1727110481524,-0.4609375,0.22772217,0.9047241,1.125,-0.140625,0.234375
390,390,1727110481564,-0.46142578,0.22650146,0.89520264,0.890625,-0.171875,-0.015625
391,391,1727110481604,-0.45629883,0.22259521,0.89520264,1.046875,-0.359375,0.078125
392,392,1727110481644,-0.45825195,0.23040771,0.8991089,1.03125,-0.046875,0.015625
393,393,1727110481684,-0.45751953,0.22357178,0.90618896,1.203125,-0.171875,0.203125
394,394,1727110481724,-0.45996094,0.22210693,0.8998413,0.96875,0.078125,-0.03125
395,395,1727110481764,-0.4580078,0.21942139,0.8925171,1.15625,-0.375,0.34375
396,396,1727110481804,-0.46826172,0.2243042,0.90911865,0.890625,0.4375,-0.28125
397,397,1727110481844,-0.46533203,0.21356201,0.8966675,0.5,0.0625,-0.28125
398,398,1727110481884,-0.46606445,0.22015381,0.901062,0.625,0.421875,-0.0625
399,399,1727110481924,-0.45922852,0.22137451,0.8978882,0.59375,0.328125,-0.015625
400,400,1727110481964,-0.4638672,0.21966553,0.90252686,0.921875,-0.296875,-0.296875
401,401,1727110482004,-0.46435547,0.21331787,0.8973999,0.890625,-0.15625,-0.015625
402,402,1727110482044,-0.46826172,0.21502686,0.91156006,1.171875,-0.046875,-0.109375
403,403,1727110482084,-0.45043945,0.21820068,0.8878784,0.40625,0.15625,-0.046875
404,404,1727110482124,-0.45874023,0.21624756,0.901062,0.859375,-0.15625,0.046875
405,405,1727110482164,-0.46704102,0.21136475,0.90057373,0.765625,-0.453125,0.015625
406,406,1727110482204,-0.4663086,0.21331787,0.90057373,0.796875,-0.140625,0.09375
407,407,1727110482244,-0.46972656,0.21014404,0.9035034,0.625,-0.21875,-0.140625
408,408,1727110482284,-0.4638672,0.20843506,0.89349365,0.59375,-0.109375,-0.21875
409,409,1727110482324,-0.4638672,0.21307373,0.89886475,0.53125,-0.125,-0.109375
410,410,1727110482364,-0.4633789,0.20257568,0.8942261,0.6875,0.015625,-0.140625
411,411,1727110482404,-0.4711914,0.20770264,0.89227295,0.8125,-0.4375,0.0625
412,412,1727110482444,-0.46826172,0.19720459,0.887146,0.28125,-0.453125,-0.078125
413,413,1727110482484,-0.47265625,0.21258545,0.916687,1.359375,-0.28125,0.125
414,414,1727110482524,-0.45654297,0.19744873,0.8842163,-0.078125,0.171875,-0.203125
415,415,1727110482564,-0.48046875,0.19720459,0.8986206,0.671875,0.03125,-0.40625
416,416,1727110482604,-0.4753418,0.20794678,0.9003296,0.109375,0.203125,-0.453125
417,417,1727110482644,-0.46850586,0.21087646,0.89959717,0.46875,0.328125,-0.171875
418,418,1727110482684,-0.46606445,0.21136475,0.8998413,0.328125,-0.015625,-0.203125
419,419,1727110482724,-0.4638672,0.20306396,0.9003296,0.484375,0.109375,-0.046875
420,420,1727110482764,-0.46826172,0.19769287,0.901062,0.28125,0.234375,-0.140625
421,421,1727110482804,-0.4699707,0.20306396,0.9071655,-0.03125,0.203125,-0.078125
422,422,1727110482844,-0.47338867,0.20672607,0.8966675,0.5625,0.359375,-0.09375
423,423,1727110482884,-0.46801758,0.20941162,0.8966675,0.453125,-0.21875,-0.234375
424,424,1727110482924,-0.4658203,0.20550537,0.902771,0.5,-0.109375,0.015625
425,425,1727110482964,-0.4675293,0.20111084,0.8915405,0.28125,0.1875,-0.25
426,426,1727110483004,-0.46826172,0.20184326,0.9008179,0.390625,0.0625,-0.25
427,427,1727110483044,-0.4716797,0.19696045,0.9008179,0.34375,0.15625,-0.125
428,428,1727110483084,-0.4609375,0.2020874,0.90008545,0.296875,0.0625,-0.125
429,429,1727110483124,-0.47143555,0.20062256,0.8973999,0.203125,0.078125,-0.265625
430,430,1727110483164,-0.4716797,0.19866943,0.9032593,0.203125,0.15625,-0.171875
431,431,1727110483204,-0.4675293,0.20062256,0.88446045,-0.046875,0.0625,-0.265625
432,432,1727110483244,-0.46875,0.21160889,0.91619873,0.4375,0.171875,-0.234375
433,433,1727110483284,-0.4609375,0.19866943,0.888855,-0.4375,0.28125,-0.4375
434,434,1727110483324,-0.47753906,0.1852417,0.90496826,0.421875,0.109375,-0.484375
435,435,1727110483364,-0.46679688,0.20159912,0.9008179,0.0,0.28125,-0.59375
436,436,1727110483404,-0.47094727,0.20477295,0.88690186,-0.1875,0.671875,-0.296875
437,437,1727110483444,-0.46948242,0.21136475,0.8966675,0.203125,0.109375,-0.28125
438,438,1727110483484,-0.4633789,0.19940186,0.8986206,0.203125,0.0,-0.265625
439,439,1727110483524,-0.46484375,0.19793701,0.90448,0.125,0.203125,-0.25
440,440,1727110483564,-0.47436523,0.19793701,0.9032593,0.046875,0.234375,0.046875
441,441,1727110483604,-0.47216797,0.21087646,0.8981323,0.234375,0.515625,-0.234375
442,442,1727110483644,-0.46484375,0.20281982,0.90960693,0.421875,-0.0625,-0.296875
443,443,1727110483684,-0.46875,0.20355225,0.9047241,0.390625,-0.03125,-0.0625
444,444,1727110483724,-0.46704102,0.19891357,0.8981323,0.109375,-0.015625,-0.140625
445,445,1727110483764,-0.47070312,0.19915771,0.9035034,0.265625,0.0,-0.234375
446,446,1727110483804,-0.46948242,0.20648193,0.90057373,0.3125,0.0,0.03125
447,447,1727110483844,-0.4663086,0.20428467,0.8991089,0.046875,0.15625,-0.234375
448,448,1727110483884,-0.4663086,0.19866943,0.901062,0.140625,0.1875,-0.1875
449,449,1727110483924,-0.47192383,0.20477295,0.9035034,0.265625,0.140625,-0.21875
450,450,1727110483964,-0.46020508,0.19598389,0.90838623,-0.25,0.703125,-0.328125
451,451,1727110484004,-0.4736328,0.21356201,0.9076538,0.625,0.0625,-0.109375
452,452,1727110484044,-0.46118164,0.2062378,0.88812256,-0.25,0.84375,-0.484375
453,453,1727110484084,-0.4716797,0.18963623,0.89959717,-0.234375,0.640625,-0.453125
454,454,1727110484124,-0.46850586,0.2086792,0.90179443,-0.375,1.078125,-0.640625
455,455,1727110484164,-0.46557617,0.20965576,0.8986206,-0.546875,1.140625,-0.34375
456,456,1727110484204,-0.46484375,0.2086792,0.9047241,-0.4375,0.71875,-0.421875
457,457,1727110484244,-0.4633789,0.20819092,0.9022827,-0.59375,0.921875,-0.5
458,458,1727110484284,-0.46557617,0.20574951,0.90838623,-0.46875,0.921875,-0.53125
459,459,1727110484324,-0.4506836,0.21282959,0.8966675,-0.828125,0.734375,-0.34375
460,460,1727110484364,-0.46166992,0.21575928,0.9052124,0.03125,0.546875,-0.328125
461,461,1727110484404,-0.4584961,0.21063232,0.90008545,-0.234375,0.21875,-0.421875
462,462,1727110484444,-0.45751953,0.20648193,0.9071655,-0.25,0.34375,-0.34375
463,463,1727110484484,-0.4572754,0.215271,0.90179443,-0.453125,0.3125,-0.515625
464,464,1727110484524,-0.4621582,0.21453857,0.90423584,-0.28125,0.40625,-0.375
465,465,1727110484564,-0.4609375,0.2074585,0.8981323,-0.546875,0.484375,-0.46875
466,466,1727110484604,-0.45922852,0.2111206,0.90057373,-0.53125,0.375,-0.5625
467,467,1727110484644,-0.45629883,0.215271,0.899353,-0.484375,0.15625,-0.4375
468,468,1727110484684,-0.45776367,0.2111206,0.8966675,-0.1875,0.140625,-0.34375
469,469,1727110484724,-0.4543457,0.21697998,0.8986206,-0.796875,0.625,-0.46875
470,470,1727110484764,-0.44384766,0.21331787,0.8908081,-0.59375,0.359375,-0.46875
471,471,1727110484804,-0.47045898,0.2189331,0.9137573,-0.59375,0.671875,-0.828125
472,472,1727110484844,-0.45263672,0.21868896,0.89837646,-1.625,1.171875,-1.09375
473,473,1727110484884,-0.4555664,0.22601318,0.9008179,-1.21875,0.984375,-0.65625
474,474,1727110484924,-0.4519043,0.22723389,0.9039917,-0.828125,0.515625,-0.46875
475,475,1727110484964,-0.45336914,0.22088623,0.8969116,-0.609375,0.25,-0.671875
476,476,1727110485004,-0.45361328,0.22625732,0.9003296,-0.890625,0.265625,-0.6875
477,477,1727110485044,-0.45629883,0.22210693,0.8932495,-0.703125,-0.0625,-0.296875
478,478,1727110485084,-0.45043945,0.24041748,0.90008545,-0.421875,0.28125,-0.421875
479,479,1727110485124,-0.45288086,0.23382568,0.90252686,-0.125,-0.453125,-0.296875
480,480,1727110485164,-0.44726562,0.23431396,0.9059448,-0.546875,-0.125,-0.234375
481,481,1727110485204,-0.45336914,0.23162842,0.8954468,-0.5,-0.25,-0.171875
482,482,1727110485244,-0.45654297,0.23480225,0.9047241,-0.1875,-0.375,-0.09375
483,483,1727110485284,-0.45703125,0.230896,0.89715576,-0.09375,-0.296875,-0.125
484,484,1727110485324,-0.44482422,0.23358154,0.89837646,0.421875,-0.515625,-0.0625
485,485,1727110485364,-0.4494629,0.24261475,0.8998413,1.015625,-0.640625,0.09375
486,486,1727110485404,-0.45385742,0.23773193,0.9069214,1.3125,-0.390625,0.203125
487,487,1727110485444,-0.4506836,0.23065186,0.89227295,1.046875,0.078125,0.078125
488,488,1727110485484,-0.45507812,0.2267456,0.90130615,1.515625,-0.53125,0.484375
489,489,1727110485524,-0.46606445,0.22747803,0.91278076,1.53125,-0.078125,0.03125
490,490,1727110485564,-0.4567871,0.21844482,0.9008179,0.921875,-0.03125,-0.5
491,491,1727110485604,-0.46289062,0.22454834,0.9020386,1.015625,0.140625,-0.046875
492,492,1727110485644,-0.45336914,0.22625732,0.8932495,1.109375,-0.046875,0.078125
493,493,1727110485684,-0.45922852,0.22528076,0.89593506,1.453125,-0.375,0.0625
494,494,1727110485724,-0.46118164,0.2164917,0.89642334,1.109375,-0.328125,-0.046875
495,495,1727110485764,-0.4650879,0.22454834,0.8986206,1.453125,-0.34375,0.046875
496,496,1727110485804,-0.45410156,0.22601318,0.89642334,0.921875,0.328125,-0.21875
497,497,1727110485844,-0.45532227,0.21942139,0.8998413,0.8125,-0.046875,0.015625
498,498,1727110485884,-0.46362305,0.21331787,0.89593506,0.890625,-0.46875,-0.09375
499,499,1727110485924,-0.4724121,0.22137451,0.8956909,0.8125,-0.28125,0.046875
500,500,1727110485964,-0.4650879,0.21990967,0.90179443,1.0625,-0.234375,0.015625
501,501,1727110486004,-0.46240234,0.20697021,0.8956909,0.796875,-0.1875,0.109375
502,502,1727110486044,-0.46166992,0.21356201,0.89520264,0.875,-0.140625,0.015625
503,503,1727110486084,-0.46972656,0.21600342,0.88934326,0.703125,0.03125,-0.109375
504,504,1727110486124,-0.46411133,0.21160889,0.9032593,0.625,-0.015625,-0.078125
505,505,1727110486164,-0.46411133,0.215271,0.90423584,0.515625,0.140625,-0.140625
506,506,1727110486204,-0.47216797,0.21722412,0.89276123,1.0625,-0.3125,0.171875
507,507,1727110486244,-0.4584961,0.21600342,0.8966675,0.34375,0.5,-0.46875
508,508,1727110486284,-0.4650879,0.20013428,0.8930054,0.46875,-0.125,-0.390625
509,509,1727110486324,-0.46875,0.20697021,0.90130615,0.671875,0.046875,-0.21875
510,510,1727110486364,-0.46728516,0.2111206,0.89715576,0.515625,0.234375,-0.140625
511,511,1727110486404,-0.46435547,0.21136475,0.8969116,0.65625,-0.28125,-0.1875
512,512,1727110486444,-0.47143555,0.20184326,0.90130615,0.703125,-0.265625,-0.21875
513,513,1727110486484,-0.4741211,0.20526123,0.91033936,0.46875,-0.0625,-0.140625
514,514,1727110486524,-0.46191406,0.20355225,0.89349365,0.203125,0.21875,-0.390625
515,515,1727110486564,-0.46557617,0.20526123,0.89593506,0.671875,0.1875,-0.140625
516,516,1727110486604,-0.45776367,0.20550537,0.901062,0.5625,-0.3125,-0.125
517,517,1727110486644,-0.47045898,0.20037842,0.9057007,0.546875,0.0,-0.078125
518,518,1727110486684,-0.46679688,0.20135498,0.8973999,0.09375,-0.03125,-0.375
519,519,1727110486724,-0.4699707,0.20111084,0.90057373,0.453125,0.203125,-0.046875
520,520,1727110486764,-0.4633789,0.20159912,0.9022827,0.171875,0.09375,-0.09375
521,521,1727110486804,-0.4699707,0.20770264,0.8981323,0.28125,0.046875,-0.265625
522,522,1727110486844,-0.46362305,0.20306396,0.89837646,0.265625,0.265625,-0.15625
523,523,1727110486884,-0.47094727,0.21136475,0.9052124,0.390625,0.1875,-0.03125
524,524,1727110486924,-0.4621582,0.2074585,0.89886475,-0.015625,0.21875,-0.15625
525,525,1727110486964,-0.46826172,0.199646,0.8978882,0.15625,-0.203125,-0.03125
526,526,1727110487004,-0.46557617,0.21160889,0.90911865,0.34375,0.46875,-0.5
527,527,1727110487044,-0.46728516,0.19354248,0.89764404,0.0,0.1875,-0.5
528,528,1727110487084,-0.46435547,0.20574951,0.9008179,0.125,0.46875,-0.234375
529,529,1727110487124,-0.4699707,0.2111206,0.8956909,0.09375,0.234375,-0.25
530,530,1727110487164,-0.46289062,0.20550537,0.8949585,0.328125,0.0,-0.25
531,531,1727110487204,-0.4645996,0.19769287,0.8954468,0.1875,0.171875,-0.25
532,532,1727110487244,-0.47192383,0.19989014,0.9052124,0.65625,0.25,-0.28125
533,533,1727110487284,-0.45385742,0.20599365,0.8878784,0.015625,0.53125,-0.390625
534,534,1727110487324,-0.46972656,0.19476318,0.8969116,0.4375,0.203125,-0.078125
535,535,1727110487364,-0.46728516,0.20062256,0.899353,0.25,-0.171875,0.015625
536,536,1727110487404,-0.46411133,0.20233154,0.8981323,0.40625,0.015625,-0.15625
537,537,1727110487444,-0.46557617,0.20721436,0.8981323,0.21875,-0.15625,-0.3125
538,538,1727110487484,-0.4650879,0.19720459,0.9015503,0.328125,0.328125,-0.21875
539,539,1727110487524,-0.46533203,0.20916748,0.8942261,0.109375,0.015625,-0.125
540,540,1727110487564,-0.47143555,0.2008667,0.9003296,0.21875,0.375,-0.234375
541,541,1727110487604,-0.4699707,0.20037842,0.89959717,0.296875,0.109375,-0.234375
542,542,1727110487644,-0.4675293,0.1918335,0.8866577,0.0,0.203125,0.0625
543,543,1727110487684,-0.4675293,0.20843506,0.9130249,0.21875,0.421875,-0.28125
544,544,1727110487724,-0.4580078,0.20013428,0.8895874,-0.578125,0.6875,-0.53125
545,545,1727110487764,-0.47485352,0.20477295,0.9076538,0.140625,0.765625,-0.5
546,546,1727110487804,-0.46777344,0.20379639,0.90545654,-0.546875,0.890625,-0.5625
547,547,1727110487844,-0.4633789,0.21136475,0.89520264,-0.546875,1.0625,-0.40625
548,548,1727110487884,-0.4609375,0.21234131,0.9100952,-0.21875,0.4375,-0.3125
549,549,1727110487924,-0.4572754,0.20428467,0.89520264,-0.375,0.625,-0.546875
550,550,1727110487964,-0.46728516,0.2098999,0.90374756,-0.328125,0.875,-0.453125
551,551,1727110488004,-0.46728516,0.20477295,0.8986206,-0.75,0.328125,-0.234375
552,552,1727110488044,-0.46142578,0.21453857,0.9086304,-0.15625,0.9375,-0.28125
553,553,1727110488084,-0.4560547,0.21234131,0.90448,-0.03125,0.234375,-0.4375
554,554,1727110488124,-0.45996094,0.21136475,0.9052124,-0.28125,0.203125,-0.21875
555,555,1727110488164,-0.45996094,0.20770264,0.8920288,-0.53125,0.34375,-0.390625
556,556,1727110488204,-0.4560547,0.20941162,0.8937378,-0.40625,0.421875,-0.390625
557,557,1727110488244,-0.4567871,0.21942139,0.8944702,-0.578125,0.234375,-0.34375
558,558,1727110488284,-0.46142578,0.21234131,0.90057373,-0.65625,0.5,-0.515625
559,559,1727110488324,-0.45336914,0.21844482,0.9020386,-0.375,0.171875,-0.390625
560,560,1727110488364,-0.46166992,0.21429443,0.887146,-0.1875,0.15625,-0.125
561,561,1727110488404,-0.45507812,0.21966553,0.8969116,-1.03125,0.78125,-0.515625
562,562,1727110488444,-0.44580078,0.20819092,0.8829956,-1.0,0.375,-0.625
563,563,1727110488484,-0.46826172,0.22088623,0.91693115,-0.6875,0.5,-0.671875
564,564,1727110488524,-0.4584961,0.22406006,0.89105225,-1.40625,0.953125,-1.03125
565,565,1727110488564,-0.45141602,0.2296753,0.89837646,-1.03125,0.875,-0.5625
566,566,1727110488604,-0.45361328,0.2296753,0.89886475,-0.875,0.578125,-0.46875
567,567,1727110488644,-0.44873047,0.2230835,0.89715576,-0.46875,0.21875,-0.53125
568,568,1727110488684,-0.45874023,0.22210693,0.8981323,-0.5,0.046875,-0.375
569,569,1727110488724,-0.45654297,0.21966553,0.8991089,-0.375,-0.1875,-0.25
570,570,1727110488764,-0.4543457,0.23529053,0.8986206,-0.25,0.234375,-0.390625
571,571,1727110488804,-0.4501953,0.22918701,0.8966675,0.0,-0.28125,-0.296875
572,572,1727110488844,-0.45214844,0.23382568,0.89764404,-0.296875,-0.25,-0.28125
573,573,1727110488884,-0.4560547,0.23553467,0.8903198,-0.21875,-0.125,-0.28125
574,574,1727110488924,-0.4519043,0.23040771,0.8944702,-0.25,-0.234375,-0.1875
575,575,1727110488964,-0.4519043,0.2399292,0.8986206,-0.203125,-0.203125,-0.03125
576,576,1727110489004,-0.45581055,0.22845459,0.89276123,0.03125,0.109375,-0.125
577,577,1727110489044,-0.45629883,0.23431396,0.8876343,0.296875,-0.421875,-0.203125
578,578,1727110489084,-0.4501953,0.22747803,0.8937378,-0.0625,0.0,-0.046875
579,579,1727110489124,-0.46191406,0.23529053,0.9086304,1.03125,-0.59375,0.234375
580,580,1727110489164,-0.45263672,0.230896,0.8908081,0.3125,0.21875,-0.15625
581,581,1727110489204,-0.45874023,0.22454834,0.89837646,0.71875,0.21875,-0.1875
582,582,1727110489244,-0.46435547,0.22406006,0.8942261,0.734375,0.28125,-0.171875
583,583,1727110489284,-0.4580078,0.22869873,0.8991089,0.953125,0.171875,0.1875
584,584,1727110489324,-0.4567871,0.23260498,0.89886475,1.0,-0.046875,0.015625
585,585,1727110489364,-0.4543457,0.22137451,0.90618896,1.140625,-0.390625,-0.046875
586,586,1727110489404,-0.4609375,0.22576904,0.90911865,1.09375,-0.203125,-0.046875
587,587,1727110489444,-0.45532227,0.2189331,0.8956909,1.015625,-0.234375,0.0625
588,588,1727110489484,-0.4584961,0.22283936,0.89886475,1.4375,-0.15625,0.125
589,589,1727110489524,-0.46557617,0.21722412,0.8932495,1.3125,-0.5,0.203125
590,590,1727110489564,-0.4663086,0.22259521,0.90740967,1.109375,-0.28125,0.125
591,591,1727110489604,-0.4609375,0.2255249,0.89056396,0.625,-0.21875,-0.046875
592,592,1727110489644,-0.46166992,0.21502686,0.89715576,0.890625,-0.078125,0.265625
593,593,1727110489684,-0.4699707,0.21820068,0.9008179,0.734375,-0.078125,-0.09375
594,594,1727110489724,-0.46264648,0.21942139,0.9015503,0.875,-0.296875,-0.09375
595,595,1727110489764,-0.46777344,0.22406006,0.9076538,1.328125,-0.375,0.140625
596,596,1727110489804,-0.4572754,0.22088623,0.8920288,0.578125,0.015625,-0.0625
597,597,1727110489844,-0.45410156,0.20819092,0.8954468,0.703125,-0.3125,0.03125
598,598,1727110489884,-0.4699707,0.22015381,0.90960693,1.171875,-0.109375,-0.078125
599,599,1727110489924,-0.46289062,0.20428467,0.89715576,0.328125,-0.125,-0.5
600,600,1727110489964,-0.46411133,0.21844482,0.8978882,0.609375,0.359375,0.0
601,601,1727110490004,-0.4650879,0.21356201,0.89764404,0.78125,0.0,-0.015625
602,602,1727110490044,-0.46020508,0.2074585,0.90448,0.9375,-0.515625,-0.296875
603,603,1727110490084,-0.46679688,0.20452881,0.89886475,0.71875,-0.21875,-0.09375
604,604,1727110490124,-0.46704102,0.20111084,0.89959717,0.90625,-0.234375,-0.046875
605,605,1727110490164,-0.4658203,0.21917725,0.8966675,0.421875,0.125,-0.171875
606,606,1727110490204,-0.45776367,0.20574951,0.90008545,0.734375,0.0,-0.203125
607,607,1727110490244,-0.4658203,0.2008667,0.8969116,0.5625,-0.265625,-0.0625
608,608,1727110490284,-0.47021484,0.20697021,0.8991089,0.703125,-0.15625,-0.109375
609,609,1727110490324,-0.46533203,0.20379639,0.8973999,0.5625,0.046875,-0.21875
610,610,1727110490364,-0.47094727,0.20111084,0.9015503,0.40625,0.0,-0.140625
611,611,1727110490404,-0.46875,0.20892334,0.90008545,0.5,0.0,-0.34375
612,612,1727110490444,-0.47045898,0.20770264,0.89471436,0.421875,-0.109375,-0.15625
613,613,1727110490484,-0.4663086,0.2008667,0.8954468,0.65625,-0.1875,-0.09375
614,614,1727110490524,-0.46557617,0.21063232,0.9047241,0.40625,0.296875,-0.09375
615,615,1727110490564,-0.46411133,0.20526123,0.89178467,0.078125,0.21875,-0.28125
616,616,1727110490604,-0.4741211,0.20281982,0.90496826,0.421875,0.171875,-0.296875
617,617,1727110490644,-0.46850586,0.19744873,0.90252686,-0.03125,0.15625,-0.5
618,618,1727110490684,-0.46801758,0.20233154,0.90179443,0.078125,0.640625,-0.046875
619,619,1727110490724,-0.46557617,0.2098999,0.8981323,0.15625,0.078125,-0.265625
620,620,1727110490764,-0.4645996,0.20013428,0.9020386,0.328125,-0.09375,-0.28125
621,621,1727110490804,-0.46923828,0.20135498,0.9057007,0.0,0.25,-0.21875
622,622,1727110490844,-0.47558594,0.20111084,0.8954468,0.09375,0.125,0.0625
623,623,1727110490884,-0.47729492,0.22015381,0.9022827,0.484375,0.5,-0.125
624,624,1727110490924,-0.46704102,0.20159912,0.9008179,0.328125,0.03125,-0.28125
625,625,1727110490964,-0.4584961,0.20599365,0.9015503,0.328125,-0.078125,-0.21875
626,626,1727110491004,-0.46606445,0.2086792,0.90374756,0.375,-0.140625,-0.171875
627,627,1727110491044,-0.46191406,0.20428467,0.8956909,0.40625,0.0,-0.21875
628,628,1727110491084,-0.4633789,0.20428467,0.89520264,0.28125,0.15625,-0.21875
629,629,1727110491124,-0.46557617,0.20306396,0.90008545,0.125,0.21875,-0.15625
630,630,1727110491164,-0.46777344,0.2062378,0.8998413,0.296875,0.21875,-0.328125
631,631,1727110491204,-0.46435547,0.2008667,0.9032593,-0.03125,0.53125,-0.390625
632,632,1727110491244,-0.47436523,0.20135498,0.9086304,0.65625,0.140625,0.03125
633,633,1727110491284,-0.45922852,0.20501709,0.8895874,-0.046875,0.703125,-0.53125
634,634,1727110491324,-0.4699707,0.19647217,0.89715576,-0.40625,0.65625,-0.484375
635,635,1727110491364,-0.47265625,0.2086792,0.90057373,-0.375,1.125,-0.546875
636,636,1727110491404,-0.46484375,0.21331787,0.9039917,-0.84375,1.390625,-0.4375
637,637,1727110491444,-0.4638672,0.21502686,0.899353,-0.515625,0.6875,-0.390625
638,638,1727110491484,-0.47070312,0.20599365,0.8966675,-0.34375,0.59375,-0.390625
639,639,1727110491524,-0.46606445,0.21307373,0.914978,-0.296875,0.625,-0.59375
640,640,1727110491564,-0.45092773,0.20721436,0.88397217,-0.921875,0.828125,-0.5
641,641,1727110491604,-0.46044922,0.20794678,0.90789795,-0.046875,0.671875,-0.375
642,642,1727110491644,-0.45922852,0.2111206,0.8991089,-0.140625,0.015625,-0.28125
643,643,1727110491684,-0.4609375,0.21380615,0.89886475,-0.25,0.34375,-0.140625
644,644,1727110491724,-0.45947266,0.2098999,0.8937378,-0.515625,0.453125,-0.3125
645,645,1727110491764,-0.46289062,0.21356201,0.902771,-0.40625,0.4375,-0.390625
646,646,1727110491804,-0.45629883,0.22357178,0.8969116,-0.640625,0.40625,-0.515625
647,647,1727110491844,-0.4597168,0.22479248,0.90179443,-0.515625,0.40625,-0.34375
648,648,1727110491884,-0.46069336,0.21746826,0.90008545,-0.015625,0.015625,-0.375
649,649,1727110491924,-0.4555664,0.21624756,0.8949585,-0.453125,0.46875,-0.578125
650,650,1727110491964,-0.4477539,0.21258545,0.89178467,-0.625,0.359375,-0.4375
651,651,1727110492004,-0.46655273,0.21258545,0.91156006,-0.421875,0.859375,-0.65625
652,652,1727110492044,-0.45654297,0.21990967,0.9003296,-1.578125,1.0625,-1.015625
653,653,1727110492084,-0.46020508,0.22283936,0.89593506,-0.984375,0.75,-0.46875
654,654,1727110492124,-0.4543457,0.23016357,0.902771,-0.609375,0.515625,-0.40625
655,655,1727110492164,-0.45410156,0.22772217,0.8991089,-0.578125,0.390625,-0.5625
656,656,1727110492204,-0.45361328,0.22747803,0.9022827,-0.890625,0.125,-0.6875
657,657,1727110492244,-0.4519043,0.22528076,0.8969116,-0.78125,0.1875,-0.265625
658,658,1727110492284,-0.45288086,0.23504639,0.9052124,-0.296875,0.21875,-0.4375
659,659,1727110492324,-0.4494629,0.2243042,0.9003296,-0.234375,0.015625,-0.4375
660,660,1727110492364,-0.4501953,0.22991943,0.90252686,-0.1875,-0.015625,-0.296875
661,661,1727110492404,-0.4501953,0.23309326,0.8973999,-0.3125,0.03125,-0.25
662,662,1727110492444,-0.45458984,0.22943115,0.9020386,-0.328125,-0.1875,-0.140625
663,663,1727110492484,-0.45263672,0.23577881,0.8986206,-0.125,0.03125,-0.25
664,664,1727110492524,-0.4519043,0.23187256,0.9035034,0.09375,-0.078125,-0.328125
665,665,1727110492564,-0.45898438,0.24139404,0.9088745,0.703125,-0.515625,-0.03125
666,666,1727110492604,-0.4482422,0.23284912,0.8876343,0.46875,-0.125,-0.28125
667,667,1727110492644,-0.45361328,0.23284912,0.89593506,0.96875,-0.40625,0.015625
668,668,1727110492684,-0.4663086,0.24261475,0.9081421,0.890625,0.046875,-0.140625
669,669,1727110492724,-0.45385742,0.2243042,0.8937378,0.390625,0.328125,-0.46875
670,670,1727110492764,-0.4560547,0.23382568,0.89959717,0.78125,0.15625,-0.078125
671,671,1727110492804,-0.4572754,0.23675537,0.9015503,0.984375,0.0625,-0.140625
672,672,1727110492844,-0.45483398,0.2267456,0.89276123,1.015625,-0.3125,-0.140625
673,673,1727110492884,-0.4519043,0.22113037,0.899353,1.21875,-0.5,-0.046875
674,674,1727110492924,-0.46264648,0.22161865,0.89056396,1.046875,-0.40625,0.28125
675,675,1727110492964,-0.46142578,0.23651123,0.90057373,1.0625,0.078125,0.09375
676,676,1727110493004,-0.45483398,0.22137451,0.89642334,1.234375,-0.515625,0.109375
677,677,1727110493044,-0.4580078,0.22015381,0.8915405,0.984375,-0.234375,0.125
678,678,1727110493084,-0.46435547,0.2177124,0.8961792,0.78125,-0.21875,0.09375
679,679,1727110493124,-0.4645996,0.21209717,0.89593506,0.984375,-0.140625,0.09375
680,680,1727110493164,-0.46044922,0.21307373,0.8944702,0.90625,-0.21875,0.046875
681,681,1727110493204,-0.46191406,0.215271,0.8883667,0.90625,-0.15625,0.21875
682,682,1727110493244,-0.46435547,0.22039795,0.90374756,0.828125,0.015625,0.03125
683,683,1727110493284,-0.45898438,0.22064209,0.9032593,0.90625,0.109375,-0.140625
684,684,1727110493324,-0.4645996,0.20843506,0.8895874,1.046875,-0.5625,0.171875
685,685,1727110493364,-0.45581055,0.21868896,0.8954468,0.671875,0.5,-0.203125
686,686,1727110493404,-0.46655273,0.20843506,0.89520264,0.546875,-0.09375,-0.203125
687,687,1727110493444,-0.4675293,0.21575928,0.8915405,0.578125,0.375,-0.171875
688,688,1727110493484,-0.46533203,0.21575928,0.8944702,0.71875,-0.0625,-0.046875
689,689,1727110493524,-0.46313477,0.21136475,0.8991089,0.921875,-0.15625,-0.171875
690,690,1727110493564,-0.45947266,0.20697021,0.9022827,0.984375,-0.265625,-0.0625
691,691,1727110493604,-0.46362305,0.20672607,0.9086304,1.109375,0.0625,-0.109375
692,692,1727110493644,-0.45483398,0.21307373,0.89178467,0.234375,0.265625,-0.4375
693,693,1727110493684,-0.46801758,0.20379639,0.90008545,0.921875,-0.046875,-0.03125
694,694,1727110493724,-0.4650879,0.21380615,0.9003296,0.53125,-0.515625,0.0625
695,695,1727110493764,-0.46484375,0.20648193,0.8991089,0.625,-0.125,-0.0625
696,696,1727110493804,-0.46191406,0.20672607,0.9003296,0.53125,-0.203125,-0.265625
697,697,1727110493844,-0.4716797,0.20648193,0.89837646,0.671875,0.109375,-0.0625
698,698,1727110493884,-0.46679688,0.21160889,0.8969116,0.359375,0.0,-0.15625
699,699,1727110493924,-0.4633789,0.20672607,0.89837646,0.40625,0.015625,-0.125
700,700,1727110493964,-0.47070312,0.20721436,0.901062,0.421875,0.1875,-0.09375
701,701,1727110494004,-0.46240234,0.20892334,0.8956909,0.296875,0.484375,-0.140625
702,702,1727110494044,-0.46191406,0.20379639,0.8944702,0.5625,-0.078125,0.125
703,703,1727110494084,-0.46679688,0.20550537,0.9047241,-0.03125,0.78125,-0.359375
704,704,1727110494124,-0.46264648,0.19989014,0.9008179,0.109375,0.1875,-0.515625
705,705,1727110494164,-0.46801758,0.20428467,0.8969116,0.203125,0.5,-0.359375
706,706,1727110494204,-0.46777344,0.20404053,0.90008545,-0.03125,0.375,-0.140625
707,707,1727110494244,-0.46533203,0.20672607,0.89764404,0.453125,-0.015625,-0.296875
708,708,1727110494284,-0.46899414,0.20721436,0.8969116,0.125,0.046875,-0.21875
709,709,1727110494324,-0.4658203,0.20306396,0.9008179,0.53125,0.40625,-0.25
710,710,1727110494364,-0.45458984,0.20916748,0.883728,-0.0625,0.46875,-0.375
711,711,1727110494404,-0.46704102,0.20159912,0.89471436,0.515625,0.359375,-0.171875
712,712,1727110494444,-0.46435547,0.20184326,0.8966675,0.4375,0.046875,0.0625
713,713,1727110494484,-0.46777344,0.20306396,0.89520264,0.328125,0.0,-0.03125
714,714,1727110494524,-0.45825195,0.21160889,0.8998413,0.171875,0.203125,-0.21875
715,715,1727110494564,-0.46142578,0.2033081,0.90179443,0.234375,0.203125,-0.125
716,716,1727110494604,-0.46264648,0.19671631,0.8978882,0.140625,0.15625,-0.09375
717,717,1727110494644,-0.46435547,0.20428467,0.89349365,0.125,0.140625,-0.265625
718,718,1727110494684,-0.46875,0.2062378,0.89471436,0.21875,0.1875,-0.203125
719,719,1727110494724,-0.4658203,0.21063232,0.90252686,-0.171875,0.640625,-0.296875
720,720,1727110494764,-0.45947266,0.20770264,0.8978882,0.625,0.046875,-0.0625
721,721,1727110494804,-0.4560547,0.20941162,0.8920288,-0.1875,0.640625,-0.515625
722,722,1727110494844,-0.46484375,0.19354248,0.8973999,-0.046875,0.140625,-0.390625
723,723,1727110494884,-0.46728516,0.20721436,0.8969116,0.09375,0.5625,-0.40625
724,724,1727110494924,-0.46069336,0.21087646,0.8925171,-0.09375,0.625,-0.15625
725,725,1727110494964,-0.46875,0.21356201,0.8949585,0.15625,0.15625,-0.453125
726,726,1727110495004,-0.46826172,0.19866943,0.901062,0.34375,0.125,-0.25
727,727,1727110495044,-0.46948242,0.2074585,0.90545654,0.21875,0.234375,-0.265625
728,728,1727110495084,-0.45385742,0.20721436,0.8895874,-0.15625,0.734375,-0.5
729,729,1727110495124,-0.4663086,0.20843506,0.89886475,0.21875,0.53125,-0.234375
730,730,1727110495164,-0.46801758,0.2033081,0.9035034,0.3125,0.15625,-0.203125
731,731,1727110495204,-0.47045898,0.20770264,0.899353,0.171875,0.375,-0.25
732,732,1727110495244,-0.46166992,0.20355225,0.8998413,-0.46875,1.09375,-0.5
733,733,1727110495284,-0.45996094,0.20672607,0.89593506,-0.78125,1.203125,-0.484375
734,734,1727110495324,-0.46020508,0.20819092,0.89471436,-0.75,0.828125,-0.40625
735,735,1727110495364,-0.46533203,0.21063232,0.8991089,-0.6875,0.65625,-0.53125
736,736,1727110495404,-0.46166992,0.21258545,0.8915405,-0.734375,0.578125,-0.5
737,737,1727110495444,-0.45825195,0.21722412,0.90838623,-0.84375,0.953125,-0.578125
738,738,1727110495484,-0.46362305,0.21014404,0.8937378,-0.078125,0.265625,-0.328125
739,739,1727110495524,-0.45214844,0.22381592,0.8966675,-0.984375,0.984375,-0.71875
740,740,1727110495564,-0.4584961,0.20672607,0.90179443,-1.09375,0.9375,-0.78125
741,741,1727110495604,-0.45288086,0.22137451,0.9008179,-1.0,0.84375,-0.734375
742,742,1727110495644,-0.46264648,0.2230835,0.9008179,-0.609375,0.8125,-0.4375
743,743,1727110495684,-0.45288086,0.22137451,0.90130615,-0.734375,0.53125,-0.53125
744,744,1727110495724,-0.45507812,0.21868896,0.8966675,-0.859375,0.453125,-0.8125
745,745,1727110495764,-0.46166992,0.22479248,0.91156006,-0.4375,0.390625,-0.515625
746,746,1727110495804,-0.43969727,0.22918701,0.89837646,-1.125,0.609375,-0.609375
747,747,1727110495844,-0.44970703,0.22845459,0.8981323,-0.453125,0.265625,-0.34375
748,748,1727110495884,-0.45336914,0.2296753,0.9035034,-0.671875,-0.234375,-0.4375
749,749,1727110495924,-0.4584961,0.22650146,0.9003296,-0.453125,0.109375,-0.375
750,750,1727110495964,-0.45776367,0.23187256,0.89886475,-0.75,0.078125,-0.4375
751,751,1727110496004,-0.44921875,0.23187256,0.90130615,-0.703125,-0.03125,-0.21875
752,752,1727110496044,-0.4555664,0.23138428,0.89593506,-0.75,0.4375,-0.25
753,753,1727110496084,-0.45336914,0.23187256,0.8969116,-0.53125,-0.09375,-0.421875
754,754,1727110496124,-0.45141602,0.22406006,0.87323,-0.71875,-0.390625,-0.234375
755,755,1727110496164,-0.45458984,0.23944092,0.9154663,0.03125,-0.21875,-0.078125
756,756,1727110496204,-0.44384766,0.22406006,0.87249756,-0.671875,0.421875,-0.359375
757,757,1727110496244,-0.46118164,0.22894287,0.89764404,-0.046875,0.203125,-0.640625
758,758,1727110496284,-0.45117188,0.23504639,0.9022827,0.03125,0.15625,-0.671875
759,759,1727110496324,-0.45507812,0.23846436,0.90179443,0.609375,0.109375,-0.09375
