,Unnamed: 0,timestamp,accel_x,accel_y,accel_z,gyro_x,gyro_y,gyro_z
0,0,1727966362813,-0.4104004,-0.17584229,0.9767456,-0.421875,-0.53125,0.1875
1,1,1727966362853,-0.4152832,-0.1572876,0.965271,-0.84375,-1.296875,0.359375
2,2,1727966362893,-0.4243164,-0.16607666,0.9772339,-0.734375,0.359375,0.453125
3,3,1727966362933,-0.4177246,-0.16143799,0.9706421,-0.625,-0.546875,0.328125
4,4,1727966362973,-0.42382812,-0.1675415,0.9718628,0.109375,-0.53125,0.421875
5,5,1727966363013,-0.42626953,-0.1687622,0.9755249,-0.515625,-0.875,0.421875
6,6,1727966363053,-0.42578125,-0.15924072,0.9664917,-0.90625,-0.6875,0.234375
7,7,1727966363093,-0.41430664,-0.16143799,0.96868896,-0.609375,-0.484375,0.265625
8,8,1727966363133,-0.42333984,-0.16705322,0.97161865,-0.375,-0.375,0.4375
9,9,1727966363173,-0.42407227,-0.16607666,0.96868896,-0.046875,0.59375,0.46875
10,10,1727966363213,-0.4182129,-0.15777588,0.9672241,0.640625,1.484375,0.40625
11,11,1727966363253,-0.4230957,-0.1572876,0.97454834,1.375,0.890625,0.5
12,12,1727966363293,-0.421875,-0.1675415,0.9760132,0.40625,-0.40625,0.3125
13,13,1727966363333,-0.4284668,-0.16900635,0.96868896,-0.078125,0.234375,0.265625
14,14,1727966363373,-0.4152832,-0.1638794,0.9633179,0.046875,0.375,0.28125
15,15,1727966363413,-0.41870117,-0.17071533,0.97991943,1.859375,0.71875,0.71875
16,16,1727966363453,-0.42260742,-0.1741333,0.9672241,-1.625,-1.015625,0.15625
17,17,1727966363493,-0.42138672,-0.17510986,0.9779663,-0.171875,-0.609375,0.390625
18,18,1727966363533,-0.41723633,-0.15997314,0.96209717,-0.546875,-0.71875,0.328125
19,19,1727966363573,-0.4230957,-0.16973877,0.9694214,0.125,1.5,0.609375
20,20,1727966363613,-0.41870117,-0.16925049,0.96746826,0.25,0.75,0.515625
21,21,1727966363653,-0.41723633,-0.17315674,0.9750366,0.875,-0.765625,0.53125
22,22,1727966363693,-0.41625977,-0.17022705,0.9689331,-0.4375,-1.09375,0.125
23,23,1727966363733,-0.42382812,-0.16827393,0.9738159,-0.3125,0.3125,0.296875
24,24,1727966363773,-0.42236328,-0.17803955,0.9672241,0.015625,0.1875,0.28125
25,25,1727966363813,-0.41357422,-0.17071533,0.96673584,-0.09375,-0.046875,0.359375
26,26,1727966363853,-0.41992188,-0.17120361,0.9689331,0.125,-0.046875,0.265625
27,27,1727966363893,-0.4152832,-0.17218018,0.96990967,-0.1875,-0.09375,0.515625
28,28,1727966363933,-0.41845703,-0.17364502,0.9645386,-0.359375,-0.078125,0.46875
29,29,1727966363973,-0.41870117,-0.17388916,0.9694214,-0.5625,0.734375,0.46875
30,30,1727966364013,-0.42114258,-0.17828369,0.9672241,0.171875,1.765625,0.375
31,31,1727966364053,-0.41137695,-0.1741333,0.9579468,0.03125,1.1875,0.25
32,32,1727966364093,-0.42016602,-0.18145752,0.98895264,2.1875,1.03125,0.46875
33,33,1727966364133,-0.41137695,-0.16607666,0.965271,-1.25,-0.796875,0.609375
34,34,1727966364173,-0.41601562,-0.18878174,0.9789429,-0.9375,-0.28125,0.234375
35,35,1727966364213,-0.4050293,-0.17559814,0.963562,-0.40625,0.09375,0.234375
36,36,1727966364253,-0.4104004,-0.17242432,0.9647827,0.53125,2.234375,0.515625
37,37,1727966364293,-0.41601562,-0.18511963,0.9838257,1.5,2.5625,0.578125
38,38,1727966364333,-0.4038086,-0.19122314,0.98895264,1.734375,0.859375,0.5625
39,39,1727966364373,-0.4033203,-0.175354,0.96917725,-0.109375,0.109375,0.375
40,40,1727966364413,-0.40063477,-0.18292236,0.97161865,-0.484375,0.796875,0.546875
41,41,1727966364453,-0.3984375,-0.18951416,0.97528076,0.125,1.265625,0.40625
42,42,1727966364493,-0.40063477,-0.17877197,0.9696655,0.40625,0.8125,0.34375
43,43,1727966364533,-0.40551758,-0.17779541,0.98065186,0.296875,0.65625,0.484375
44,44,1727966364573,-0.40307617,-0.18414307,0.9801636,0.0625,0.625,0.515625
45,45,1727966364613,-0.3959961,-0.18829346,0.97161865,-0.25,0.515625,0.40625
46,46,1727966364653,-0.39941406,-0.18707275,0.98114014,-0.078125,0.265625,0.34375
47,47,1727966364693,-0.39746094,-0.18243408,0.97332764,-0.03125,0.1875,0.390625
48,48,1727966364733,-0.4020996,-0.18682861,0.9779663,0.171875,1.03125,0.53125
49,49,1727966364773,-0.39379883,-0.19122314,0.9779663,-0.359375,0.25,0.234375
50,50,1727966364813,-0.39282227,-0.19122314,0.9916382,0.390625,-0.78125,0.71875
51,51,1727966364853,-0.40478516,-0.18096924,0.9735718,-3.1875,-3.3125,0.140625
52,52,1727966364893,-0.40307617,-0.19805908,0.98187256,-1.984375,-3.359375,0.1875
53,53,1727966364933,-0.41455078,-0.17877197,0.9684448,-3.5,-5.03125,0.453125
54,54,1727966364973,-0.41381836,-0.16949463,0.97039795,-3.03125,-1.625,0.46875
55,55,1727966365013,-0.4116211,-0.17633057,0.96868896,-1.84375,-1.390625,0.3125
56,56,1727966365053,-0.42236328,-0.16900635,0.9735718,-1.59375,-2.65625,0.40625
57,57,1727966365093,-0.41503906,-0.16680908,0.96380615,-2.390625,-2.140625,0.09375
58,58,1727966365133,-0.41186523,-0.16998291,0.9711304,-1.90625,-1.703125,0.265625
59,59,1727966365173,-0.4267578,-0.16265869,0.96698,-2.046875,-1.671875,0.328125
60,60,1727966365213,-0.42700195,-0.15997314,0.9706421,-1.984375,-2.0625,0.375
61,61,1727966365253,-0.42700195,-0.16534424,0.9694214,-1.953125,-1.578125,0.328125
62,62,1727966365293,-0.4309082,-0.16534424,0.9633179,-2.015625,-1.65625,0.328125
63,63,1727966365333,-0.43725586,-0.15875244,0.96258545,-1.96875,-1.75,0.171875
64,64,1727966365373,-0.43676758,-0.15704346,0.97039795,-1.6875,-1.421875,0.28125
65,65,1727966365413,-0.43603516,-0.1531372,0.9660034,-1.5,-1.015625,0.359375
66,66,1727966365453,-0.43554688,-0.15704346,0.9660034,-1.4375,-1.109375,0.453125
67,67,1727966365493,-0.43432617,-0.15631104,0.9760132,-1.40625,-1.390625,0.171875
68,68,1727966365533,-0.4428711,-0.14581299,0.95428467,-1.828125,-1.203125,0.578125
69,69,1727966365573,-0.44189453,-0.15899658,0.9672241,-1.84375,-0.984375,0.25
70,70,1727966365613,-0.43847656,-0.1560669,0.9660034,-0.25,-0.765625,0.265625
71,71,1727966365653,-0.44091797,-0.14312744,0.9550171,-0.890625,-0.46875,0.65625
72,72,1727966365693,-0.44506836,-0.14337158,0.9713745,-1.03125,-0.28125,0.46875
73,73,1727966365733,-0.4489746,-0.15435791,0.9689331,-1.21875,-1.1875,0.28125
74,74,1727966365773,-0.43652344,-0.14093018,0.9586792,-1.484375,-1.234375,0.28125
75,75,1727966365813,-0.4489746,-0.1519165,0.9611206,-1.640625,-1.203125,0.40625
76,76,1727966365853,-0.44702148,-0.14630127,0.96209717,-1.484375,-0.71875,0.234375
77,77,1727966365893,-0.44555664,-0.14263916,0.9606323,-0.875,-0.59375,0.296875
78,78,1727966365933,-0.44604492,-0.13677979,0.961853,-0.640625,-0.265625,0.390625
79,79,1727966365973,-0.44628906,-0.14385986,0.9647827,-0.375,-0.171875,0.40625
80,80,1727966366013,-0.4543457,-0.14312744,0.9606323,-0.640625,-0.375,0.515625
81,81,1727966366053,-0.44458008,-0.14093018,0.9594116,-0.78125,0.0625,0.40625
82,82,1727966366093,-0.45092773,-0.14385986,0.96429443,-0.140625,0.515625,0.421875
83,83,1727966366133,-0.4465332,-0.13702393,0.9569702,-0.5,0.484375,0.453125
84,84,1727966366173,-0.44433594,-0.14190674,0.95526123,-0.609375,0.234375,0.234375
85,85,1727966366213,-0.44726562,-0.14996338,0.9738159,1.34375,1.34375,0.78125
86,86,1727966366253,-0.4404297,-0.13189697,0.95062256,-1.609375,0.265625,0.34375
87,87,1727966366293,-0.44506836,-0.14801025,0.9628296,0.90625,1.234375,0.328125
88,88,1727966366333,-0.43823242,-0.14263916,0.9515991,1.890625,2.28125,0.125
89,89,1727966366373,-0.44189453,-0.14801025,0.9760132,2.921875,3.890625,0.796875
90,90,1727966366413,-0.44384766,-0.15557861,0.97528076,0.78125,0.703125,0.734375
91,91,1727966366453,-0.43774414,-0.14581299,0.96624756,0.59375,-0.046875,0.375
92,92,1727966366493,-0.4296875,-0.14996338,0.965271,0.140625,0.71875,0.328125
93,93,1727966366533,-0.42871094,-0.1560669,0.96551514,0.265625,1.484375,0.5
94,94,1727966366573,-0.42236328,-0.15777588,0.96795654,0.703125,1.65625,0.328125
95,95,1727966366613,-0.42871094,-0.15948486,0.9682007,0.71875,0.59375,0.375
96,96,1727966366653,-0.42456055,-0.15875244,0.9677124,0.46875,0.84375,0.40625
97,97,1727966366693,-0.4272461,-0.15948486,0.96673584,0.4375,1.03125,0.609375
98,98,1727966366733,-0.42236328,-0.16217041,0.96624756,0.34375,1.015625,0.421875
99,99,1727966366773,-0.4260254,-0.16119385,0.9735718,0.6875,1.265625,0.5625
100,100,1727966366813,-0.41552734,-0.16925049,0.97039795,0.703125,1.265625,0.453125
101,101,1727966366853,-0.41503906,-0.16534424,0.9701538,0.703125,1.421875,0.453125
102,102,1727966366893,-0.4116211,-0.16412354,0.9701538,0.703125,1.53125,0.28125
103,103,1727966366933,-0.41748047,-0.17242432,0.9887085,2.46875,2.015625,0.609375
104,104,1727966366973,-0.40942383,-0.15533447,0.95843506,-0.609375,0.28125,0.390625
105,105,1727966367013,-0.41552734,-0.17901611,0.9725952,1.078125,1.84375,0.21875
106,106,1727966367053,-0.40649414,-0.1765747,0.9789429,1.921875,2.21875,0.640625
107,107,1727966367093,-0.40942383,-0.17828369,0.9784546,1.34375,2.34375,0.84375
108,108,1727966367133,-0.41259766,-0.17095947,0.9730835,0.921875,1.109375,0.484375
109,109,1727966367173,-0.40576172,-0.18096924,0.97772217,1.96875,1.140625,0.578125
110,110,1727966367213,-0.40234375,-0.17999268,0.9713745,0.75,1.5,0.328125
111,111,1727966367253,-0.40161133,-0.18096924,0.9743042,0.84375,1.953125,0.59375
112,112,1727966367293,-0.39794922,-0.18341064,0.98358154,0.890625,1.875,0.578125
113,113,1727966367333,-0.39160156,-0.18829346,0.97650146,0.828125,0.875,0.375
114,114,1727966367373,-0.39257812,-0.19268799,0.9694214,0.671875,1.46875,0.421875
115,115,1727966367413,-0.38891602,-0.19293213,0.977478,1.109375,2.296875,0.484375
116,116,1727966367453,-0.39013672,-0.19537354,0.982605,1.578125,2.4375,0.46875
117,117,1727966367493,-0.3864746,-0.19342041,0.98065186,1.078125,1.53125,0.734375
118,118,1727966367533,-0.38476562,-0.18463135,0.9772339,0.65625,0.796875,0.484375
119,119,1727966367573,-0.3762207,-0.19732666,0.97210693,0.59375,0.859375,0.359375
120,120,1727966367613,-0.37573242,-0.20147705,0.9725952,0.625,1.828125,0.4375
121,121,1727966367653,-0.37817383,-0.21099854,0.996521,2.125,2.015625,0.453125
122,122,1727966367693,-0.37231445,-0.19830322,0.97210693,0.109375,0.765625,0.453125
123,123,1727966367733,-0.3779297,-0.2053833,0.97576904,0.015625,1.171875,0.453125
124,124,1727966367773,-0.3708496,-0.21002197,0.98651123,2.203125,3.171875,0.34375
125,125,1727966367813,-0.36938477,-0.19976807,0.9828491,1.6875,2.546875,0.84375
126,126,1727966367853,-0.36523438,-0.2078247,0.9838257,1.421875,2.046875,0.640625
127,127,1727966367893,-0.36328125,-0.21221924,0.9869995,1.0,0.734375,0.265625
128,128,1727966367933,-0.36108398,-0.20855713,0.9762573,0.140625,0.21875,0.21875
129,129,1727966367973,-0.36254883,-0.21905518,0.98968506,0.046875,0.6875,0.3125
130,130,1727966368013,-0.35986328,-0.21588135,0.9989624,-0.75,-1.046875,0.53125
131,131,1727966368053,-0.3720703,-0.20611572,0.979187,-2.546875,-4.375,0.3125
132,132,1727966368093,-0.36889648,-0.20733643,0.97869873,-2.171875,-2.0625,0.03125
133,133,1727966368133,-0.36547852,-0.20880127,0.97869873,-1.796875,-2.21875,0.3125
134,134,1727966368173,-0.37597656,-0.20635986,0.98431396,-2.125,-1.984375,0.34375
135,135,1727966368213,-0.37841797,-0.20758057,0.9755249,-2.46875,-2.34375,0.109375
136,136,1727966368253,-0.37939453,-0.19708252,0.9760132,-1.40625,0.203125,0.03125
137,137,1727966368293,-0.37109375,-0.20172119,0.9801636,-0.265625,1.640625,0.6875
138,138,1727966368333,-0.3786621,-0.20123291,0.9857788,-0.734375,-0.375,0.359375
139,139,1727966368373,-0.3701172,-0.19415283,0.9816284,-1.6875,-2.25,0.03125
140,140,1727966368413,-0.37939453,-0.20855713,0.9867554,-0.625,-1.578125,0.359375
141,141,1727966368453,-0.38330078,-0.19049072,0.9645386,-3.21875,-2.546875,0.28125
142,142,1727966368493,-0.3852539,-0.2107544,0.9850464,-1.828125,-1.484375,0.015625
143,143,1727966368533,-0.3791504,-0.190979,0.9789429,-1.671875,-2.15625,0.171875
144,144,1727966368573,-0.3942871,-0.1807251,0.97650146,-2.09375,-1.828125,0.578125
145,145,1727966368613,-0.38598633,-0.18414307,0.9816284,-1.859375,-1.328125,0.234375
146,146,1727966368653,-0.40039062,-0.19195557,0.9850464,-1.640625,-1.90625,0.46875
147,147,1727966368693,-0.3972168,-0.1831665,0.9760132,-2.0,-2.453125,0.21875
148,148,1727966368733,-0.39331055,-0.1873169,0.9857788,-2.09375,-2.078125,0.125
149,149,1727966368773,-0.4033203,-0.1795044,0.977478,-2.328125,-2.328125,0.296875
150,150,1727966368813,-0.40698242,-0.1716919,0.9689331,-2.15625,-2.5,0.34375
151,151,1727966368853,-0.4128418,-0.17486572,0.97869873,-1.921875,-1.890625,0.34375
152,152,1727966368893,-0.4091797,-0.17706299,0.9735718,-2.078125,-1.984375,0.34375
153,153,1727966368933,-0.4104004,-0.16607666,0.9747925,-1.90625,-1.859375,0.203125
154,154,1727966368973,-0.4140625,-0.17095947,0.9755249,-1.640625,-1.671875,0.234375
155,155,1727966369013,-0.41210938,-0.16461182,0.965271,-1.625,-1.28125,0.390625
156,156,1727966369053,-0.41235352,-0.1741333,0.9747925,-1.5,-1.390625,0.34375
157,157,1727966369093,-0.41479492,-0.1651001,0.9738159,-1.734375,-1.359375,0.15625
158,158,1727966369133,-0.42260742,-0.17095947,0.98773193,0.34375,-0.640625,0.421875
159,159,1727966369173,-0.41455078,-0.1572876,0.9574585,-2.453125,-2.078125,0.34375
160,160,1727966369213,-0.42651367,-0.17266846,0.9796753,-1.1875,-1.59375,0.265625
161,161,1727966369253,-0.4140625,-0.16119385,0.9677124,-1.953125,-2.875,0.328125
162,162,1727966369293,-0.42211914,-0.15362549,0.9633179,-2.109375,-1.140625,0.234375
163,163,1727966369333,-0.43139648,-0.15362549,0.96746826,-1.25,-0.40625,0.3125
164,164,1727966369373,-0.43286133,-0.1638794,0.9760132,-0.390625,-0.59375,0.4375
165,165,1727966369413,-0.42260742,-0.15484619,0.96380615,-0.875,-0.921875,0.28125
166,166,1727966369453,-0.43530273,-0.15216064,0.97039795,-0.75,-0.53125,0.3125
167,167,1727966369493,-0.42749023,-0.15509033,0.9718628,-0.625,-0.09375,0.28125
168,168,1727966369533,-0.42993164,-0.14996338,0.9616089,-0.28125,-0.078125,0.375
169,169,1727966369573,-0.42944336,-0.159729,0.9664917,0.265625,0.734375,0.5
170,170,1727966369613,-0.42358398,-0.15582275,0.9694214,0.078125,1.109375,0.453125
171,171,1727966369653,-0.43041992,-0.15557861,0.9706421,-0.25,0.28125,0.453125
172,172,1727966369693,-0.42749023,-0.16021729,0.9696655,0.0625,0.453125,0.46875
173,173,1727966369733,-0.42285156,-0.15924072,0.96258545,0.140625,0.75,0.34375
174,174,1727966369773,-0.42871094,-0.1609497,0.9767456,0.765625,1.90625,0.578125
175,175,1727966369813,-0.41796875,-0.16168213,0.9677124,0.234375,1.015625,0.125
176,176,1727966369853,-0.4248047,-0.16827393,0.98480225,1.765625,1.0625,0.671875
177,177,1727966369893,-0.42114258,-0.16119385,0.95965576,-1.0625,0.0625,0.5
178,178,1727966369933,-0.41235352,-0.16973877,0.9747925,0.8125,1.265625,0.359375
179,179,1727966369973,-0.40771484,-0.1651001,0.9784546,0.8125,1.453125,0.515625
180,180,1727966370013,-0.41503906,-0.16436768,0.9603882,1.171875,2.453125,0.609375
181,181,1727966370053,-0.41430664,-0.17266846,0.96917725,0.84375,1.953125,0.453125
182,182,1727966370093,-0.4099121,-0.17974854,0.9804077,1.515625,0.890625,0.359375
183,183,1727966370133,-0.4050293,-0.17047119,0.97039795,0.421875,0.734375,0.265625
184,184,1727966370173,-0.40698242,-0.17022705,0.9657593,0.28125,0.84375,0.25
185,185,1727966370213,-0.40478516,-0.17120361,0.9762573,0.34375,1.4375,0.453125
186,186,1727966370253,-0.40356445,-0.1741333,0.97869873,0.703125,1.109375,0.484375
187,187,1727966370293,-0.4020996,-0.17340088,0.9796753,0.71875,1.265625,0.453125
188,188,1727966370333,-0.40161133,-0.17779541,0.9684448,0.421875,1.390625,0.328125
189,189,1727966370373,-0.39697266,-0.18609619,0.980896,0.734375,1.0625,0.328125
190,190,1727966370413,-0.39086914,-0.17828369,0.9738159,0.796875,1.640625,0.46875
191,191,1727966370453,-0.39575195,-0.18536377,0.97821045,0.984375,2.03125,0.421875
192,192,1727966370493,-0.39453125,-0.1831665,0.97283936,1.140625,2.265625,0.390625
193,193,1727966370533,-0.3894043,-0.18878174,0.9735718,0.828125,2.296875,0.1875
194,194,1727966370573,-0.38500977,-0.1885376,0.98968506,2.421875,1.8125,0.5625
195,195,1727966370613,-0.38867188,-0.18048096,0.9725952,-0.75,0.75,0.375
196,196,1727966370653,-0.38354492,-0.20318604,0.9862671,0.90625,2.1875,0.203125
197,197,1727966370693,-0.37353516,-0.19073486,0.9767456,1.5,1.71875,0.28125
198,198,1727966370733,-0.38183594,-0.1873169,0.9813843,1.515625,2.375,0.765625
199,199,1727966370773,-0.37963867,-0.20343018,0.9879761,1.234375,1.8125,0.703125
200,200,1727966370813,-0.36938477,-0.20587158,0.9869995,0.84375,1.0,0.4375
201,201,1727966370853,-0.37329102,-0.19830322,0.97943115,0.015625,0.625,0.46875
202,202,1727966370893,-0.37036133,-0.20562744,0.97869873,0.5,1.265625,0.296875
203,203,1727966370933,-0.3684082,-0.1987915,0.98895264,0.703125,1.171875,0.40625
204,204,1727966370973,-0.36791992,-0.19854736,0.97991943,0.53125,0.578125,0.5
205,205,1727966371013,-0.36669922,-0.19927979,0.980896,0.546875,1.5,0.484375
206,206,1727966371053,-0.3659668,-0.20684814,0.9867554,0.5,1.375,0.5625
207,207,1727966371093,-0.36621094,-0.206604,0.9816284,0.453125,0.9375,0.375
208,208,1727966371133,-0.3618164,-0.21148682,0.9840698,0.71875,0.9375,0.34375
209,209,1727966371173,-0.36279297,-0.20831299,0.98724365,0.75,1.015625,0.40625
210,210,1727966371213,-0.36035156,-0.20977783,0.98846436,0.28125,1.046875,0.28125
211,211,1727966371253,-0.3552246,-0.20953369,0.9784546,0.296875,1.765625,0.3125
212,212,1727966371293,-0.35766602,-0.22418213,0.9996948,2.640625,2.0625,0.4375
213,213,1727966371333,-0.34716797,-0.20391846,0.97528076,-0.59375,-0.09375,0.390625
214,214,1727966371373,-0.3564453,-0.22833252,0.980896,0.25,1.046875,0.140625
215,215,1727966371413,-0.3491211,-0.21514893,0.9879761,1.5625,1.546875,0.34375
216,216,1727966371453,-0.35058594,-0.21905518,0.98773193,0.5,1.46875,0.734375
217,217,1727966371493,-0.3515625,-0.2197876,0.9857788,0.234375,1.234375,0.625
218,218,1727966371533,-0.34765625,-0.21905518,0.99676514,0.578125,0.421875,0.203125
219,219,1727966371573,-0.33789062,-0.222229,0.98358154,-0.03125,-0.078125,0.265625
220,220,1727966371613,-0.34960938,-0.22735596,0.9911499,-0.515625,-0.171875,0.40625
221,221,1727966371653,-0.34448242,-0.22491455,0.99212646,-0.625,-0.453125,0.390625
222,222,1727966371693,-0.34765625,-0.21710205,0.9879761,-0.625,-1.0,0.390625
223,223,1727966371733,-0.34399414,-0.22711182,0.99432373,-0.84375,-1.0,0.21875
224,224,1727966371773,-0.35058594,-0.22735596,0.994812,-1.78125,-1.8125,0.375
225,225,1727966371813,-0.35620117,-0.2131958,0.9894409,-2.296875,-3.859375,0.203125
226,226,1727966371853,-0.35742188,-0.21466064,0.982605,-3.171875,-3.921875,0.1875
227,227,1727966371893,-0.36376953,-0.20587158,0.9838257,-2.390625,-3.28125,0.1875
228,228,1727966371933,-0.3642578,-0.2078247,0.9804077,-2.53125,-3.09375,0.3125
229,229,1727966371973,-0.37109375,-0.21026611,0.979187,-2.34375,-2.578125,0.15625
230,230,1727966372013,-0.36547852,-0.20220947,0.9833374,-2.234375,-2.9375,-0.0625
231,231,1727966372053,-0.37719727,-0.20684814,0.99261475,-0.765625,-2.4375,0.0625
232,232,1727966372093,-0.3725586,-0.19683838,0.9684448,-3.4375,-2.90625,0.03125
233,233,1727966372133,-0.3881836,-0.20611572,0.97528076,-1.859375,-1.78125,0.109375
234,234,1727966372173,-0.38330078,-0.20684814,1.007019,-1.203125,-1.3125,0.40625
235,235,1727966372213,-0.39111328,-0.19537354,0.9911499,-1.078125,-1.234375,0.375
236,236,1727966372253,-0.38134766,-0.18756104,0.96868896,-0.84375,-1.0625,0.234375
237,237,1727966372293,-0.39038086,-0.20733643,0.9989624,-1.28125,-2.140625,0.3125
238,238,1727966372333,-0.39013672,-0.19122314,0.9701538,-2.078125,-2.109375,0.359375
239,239,1727966372373,-0.39233398,-0.18536377,0.9689331,-2.265625,-1.984375,0.390625
240,240,1727966372413,-0.39770508,-0.18658447,0.98846436,-2.328125,-2.515625,0.265625
241,241,1727966372453,-0.39624023,-0.18023682,0.9689331,-2.09375,-2.28125,0.296875
242,242,1727966372493,-0.4050293,-0.17462158,0.94866943,-1.640625,-1.5,0.515625
243,243,1727966372533,-0.39501953,-0.18560791,0.9838257,-2.140625,-1.5625,0.296875
244,244,1727966372573,-0.4050293,-0.19122314,0.98724365,-1.234375,-1.578125,0.28125
245,245,1727966372613,-0.40478516,-0.17218018,0.949646,-1.09375,-1.46875,0.265625
246,246,1727966372653,-0.4116211,-0.17364502,0.9628296,-1.0625,-1.09375,0.359375
247,247,1727966372693,-0.4111328,-0.17388916,0.97869873,-1.4375,-1.3125,0.453125
248,248,1727966372733,-0.41381836,-0.1819458,0.9660034,-1.140625,-0.796875,0.203125
249,249,1727966372773,-0.4128418,-0.17803955,0.9852905,-1.078125,-1.3125,0.28125
250,250,1727966372813,-0.40795898,-0.1716919,0.96917725,-1.40625,-1.34375,0.375
251,251,1727966372853,-0.4194336,-0.175354,0.9718628,-2.125,-1.703125,0.453125
252,252,1727966372893,-0.41381836,-0.17510986,0.9735718,-0.671875,-0.84375,0.09375
253,253,1727966372933,-0.41430664,-0.16436768,0.9684448,-0.84375,-0.734375,0.4375
254,254,1727966372973,-0.4248047,-0.16973877,0.97454834,-0.53125,0.3125,0.484375
255,255,1727966373013,-0.41967773,-0.16998291,0.9755249,-0.75,-0.4375,0.46875
256,256,1727966373053,-0.41918945,-0.1729126,0.9682007,-0.6875,-1.0,0.203125
257,257,1727966373093,-0.42114258,-0.16607666,0.9684448,-0.75,-0.203125,0.3125
258,258,1727966373133,-0.4182129,-0.17340088,0.96698,-0.140625,0.28125,0.375
259,259,1727966373173,-0.4182129,-0.16827393,0.9645386,-0.0625,0.28125,0.46875
260,260,1727966373213,-0.41625977,-0.17071533,0.9711304,0.09375,0.390625,0.484375
261,261,1727966373253,-0.4189453,-0.16729736,0.96868896,-0.015625,0.609375,0.59375
262,262,1727966373293,-0.40649414,-0.17559814,0.9701538,0.265625,0.578125,0.390625
263,263,1727966373333,-0.41796875,-0.1741333,0.9689331,0.34375,0.984375,0.328125
264,264,1727966373373,-0.4140625,-0.17340088,0.97406006,0.796875,1.609375,0.421875
265,265,1727966373413,-0.4050293,-0.1741333,0.97283936,1.1875,1.859375,0.390625
266,266,1727966373453,-0.40527344,-0.17926025,0.97332764,1.140625,1.8125,0.484375
267,267,1727966373493,-0.40551758,-0.17706299,0.9755249,0.84375,1.40625,0.4375
268,268,1727966373533,-0.40625,-0.18707275,0.9869995,1.96875,0.90625,0.703125
269,269,1727966373573,-0.40063477,-0.1687622,0.9586792,-1.171875,-0.28125,0.3125
270,270,1727966373613,-0.40576172,-0.18682861,0.9750366,0.390625,1.4375,0.1875
271,271,1727966373653,-0.40185547,-0.18463135,0.97698975,1.265625,1.5,0.40625
272,272,1727966373693,-0.40283203,-0.18487549,0.9767456,0.734375,1.53125,0.65625
273,273,1727966373733,-0.40063477,-0.18609619,0.9767456,0.609375,1.21875,0.484375
274,274,1727966373773,-0.39331055,-0.19049072,0.98187256,0.5,0.5,0.53125
275,275,1727966373813,-0.39453125,-0.18878174,0.9706421,0.3125,1.078125,0.1875
276,276,1727966373853,-0.3918457,-0.19024658,0.9833374,0.21875,1.421875,0.421875
277,277,1727966373893,-0.3876953,-0.1987915,0.97869873,0.328125,1.375,0.625
278,278,1727966373933,-0.38623047,-0.19415283,0.9804077,0.546875,0.671875,0.359375
279,279,1727966373973,-0.38598633,-0.19122314,0.9750366,0.609375,1.21875,0.484375
280,280,1727966374013,-0.38598633,-0.19268799,0.97869873,0.5625,1.5625,0.53125
281,281,1727966374053,-0.38085938,-0.1963501,0.9789429,0.453125,1.546875,0.375
282,282,1727966374093,-0.38134766,-0.19781494,0.977478,0.65625,1.203125,0.453125
283,283,1727966374133,-0.38378906,-0.19927979,0.98358154,0.609375,1.359375,0.546875
284,284,1727966374173,-0.38452148,-0.1951294,0.9796753,0.296875,1.140625,0.515625
285,285,1727966374213,-0.37597656,-0.19561768,0.98114014,0.328125,0.515625,0.484375
286,286,1727966374253,-0.38330078,-0.19732666,0.9789429,0.203125,0.6875,0.5
287,287,1727966374293,-0.37646484,-0.20635986,0.98309326,0.234375,1.453125,0.46875
288,288,1727966374333,-0.3786621,-0.21173096,0.9994507,1.5625,1.234375,0.5625
289,289,1727966374373,-0.36450195,-0.1921997,0.97161865,-0.75,-0.140625,0.453125
290,290,1727966374413,-0.3840332,-0.21514893,0.982605,-0.515625,0.53125,0.25
291,291,1727966374453,-0.3671875,-0.20440674,0.98480225,1.390625,1.75,0.171875
292,292,1727966374493,-0.37158203,-0.20635986,0.98431396,0.90625,2.09375,0.609375
293,293,1727966374533,-0.36816406,-0.21466064,0.98553467,1.0625,2.265625,0.625
294,294,1727966374573,-0.36328125,-0.21295166,0.9887085,0.5625,0.828125,0.453125
295,295,1727966374613,-0.35864258,-0.21173096,0.980896,0.53125,0.375,0.265625
296,296,1727966374653,-0.36865234,-0.20806885,0.9813843,0.0625,0.90625,0.3125
297,297,1727966374693,-0.36376953,-0.21221924,0.9894409,0.171875,1.25,0.40625
298,298,1727966374733,-0.35742188,-0.2131958,0.9850464,0.125,0.609375,0.328125
299,299,1727966374773,-0.35742188,-0.20880127,0.9801636,0.3125,0.71875,0.296875
300,300,1727966374813,-0.35375977,-0.21490479,0.9882202,0.515625,1.140625,0.34375
301,301,1727966374853,-0.35424805,-0.22149658,0.9862671,0.40625,1.171875,0.625
302,302,1727966374893,-0.35473633,-0.2156372,0.98187256,0.078125,0.6875,0.46875
303,303,1727966374933,-0.3569336,-0.22052002,0.97869873,0.546875,0.9375,0.34375
304,304,1727966374973,-0.34838867,-0.22393799,0.9935913,0.8125,1.3125,0.421875
305,305,1727966375013,-0.34765625,-0.2197876,0.9867554,0.5625,0.796875,0.40625
306,306,1727966375053,-0.3540039,-0.22711182,0.9879761,0.078125,0.84375,0.515625
307,307,1727966375093,-0.3479004,-0.22369385,0.98236084,-0.046875,1.046875,0.578125
308,308,1727966375133,-0.35351562,-0.2276001,0.99676514,0.734375,0.46875,0.53125
309,309,1727966375173,-0.3413086,-0.21124268,0.9684448,-0.53125,0.21875,0.328125
310,310,1727966375213,-0.35375977,-0.23077393,0.9894409,-0.453125,0.890625,0.28125
311,311,1727966375253,-0.34521484,-0.23712158,0.9899292,1.734375,1.921875,0.109375
312,312,1727966375293,-0.33691406,-0.22808838,0.9882202,0.734375,1.265625,0.546875
313,313,1727966375333,-0.34716797,-0.22613525,0.99261475,0.65625,1.890625,0.609375
314,314,1727966375373,-0.3317871,-0.2341919,0.9911499,0.296875,0.9375,0.59375
315,315,1727966375413,-0.33935547,-0.23394775,0.9801636,0.109375,0.296875,0.234375
316,316,1727966375453,-0.3395996,-0.22955322,0.98114014,0.015625,0.765625,0.46875
317,317,1727966375493,-0.3400879,-0.24298096,0.994812,0.328125,1.265625,0.453125
318,318,1727966375533,-0.32885742,-0.23223877,0.9945679,0.1875,0.140625,0.390625
319,319,1727966375573,-0.33691406,-0.24078369,0.99627686,-0.6875,-1.5625,0.390625
320,320,1727966375613,-0.33813477,-0.23150635,0.9869995,-1.671875,-2.421875,0.296875
321,321,1727966375653,-0.34179688,-0.23101807,0.9918823,-2.140625,-3.21875,0.125
322,322,1727966375693,-0.3395996,-0.23101807,0.9867554,-2.390625,-3.671875,0.3125
323,323,1727966375733,-0.34521484,-0.22442627,0.98114014,-2.671875,-3.484375,0.09375
324,324,1727966375773,-0.35717773,-0.22247314,0.9779663,-2.59375,-2.84375,0.34375
325,325,1727966375813,-0.36206055,-0.22174072,0.98431396,-2.328125,-2.84375,0.234375
326,326,1727966375853,-0.35864258,-0.21759033,0.9784546,-2.15625,-1.96875,0.3125
327,327,1727966375893,-0.35913086,-0.20709229,0.9821167,-1.921875,-1.515625,0.171875
328,328,1727966375933,-0.3701172,-0.2107544,0.99871826,-0.640625,-2.28125,0.34375
329,329,1727966375973,-0.36621094,-0.20684814,0.97210693,-3.078125,-2.84375,0.125
330,330,1727966376013,-0.37182617,-0.22320557,0.9887085,-2.109375,-1.84375,0.15625
331,331,1727966376053,-0.3642578,-0.2078247,0.979187,-1.125,-1.96875,0.28125
332,332,1727966376093,-0.37768555,-0.2078247,0.98065186,-1.9375,-2.40625,0.546875
333,333,1727966376133,-0.3786621,-0.20587158,0.979187,-1.78125,-1.109375,0.3125
334,334,1727966376173,-0.3720703,-0.19903564,0.9784546,-1.578125,-1.703125,0.375
335,335,1727966376213,-0.37670898,-0.20025635,0.97698975,-1.609375,-1.984375,0.28125
336,336,1727966376253,-0.38110352,-0.19903564,0.9738159,-1.9375,-1.84375,0.375
337,337,1727966376293,-0.3857422,-0.20074463,0.97821045,-1.84375,-1.734375,0.3125
338,338,1727966376333,-0.38256836,-0.19390869,0.9801636,-1.8125,-2.28125,0.40625
339,339,1727966376373,-0.38793945,-0.18804932,0.97454834,-1.9375,-1.78125,0.390625
340,340,1727966376413,-0.3947754,-0.19024658,0.979187,-1.734375,-1.515625,0.484375
341,341,1727966376453,-0.39453125,-0.19976807,0.97772217,-1.59375,-1.546875,0.421875
342,342,1727966376493,-0.39868164,-0.18829346,0.97943115,-1.515625,-1.53125,0.359375
343,343,1727966376533,-0.39941406,-0.18634033,0.977478,-1.3125,-1.40625,0.453125
344,344,1727966376573,-0.39526367,-0.18292236,0.97528076,-1.421875,-1.375,0.25
345,345,1727966376613,-0.39892578,-0.18951416,0.9784546,-1.0,-0.65625,0.40625
346,346,1727966376653,-0.39697266,-0.18560791,0.97528076,-1.96875,-1.390625,0.34375
347,347,1727966376693,-0.39941406,-0.18048096,0.9711304,-1.0625,-0.984375,0.5625
348,348,1727966376733,-0.4025879,-0.17926025,0.9718628,-2.421875,-1.53125,0.203125
349,349,1727966376773,-0.4025879,-0.18902588,0.97821045,-0.25,-0.421875,0.171875
350,350,1727966376813,-0.39892578,-0.17706299,0.96868896,-0.65625,-0.96875,0.328125
351,351,1727966376853,-0.40454102,-0.17437744,0.97698975,-0.75,-0.078125,0.484375
352,352,1727966376893,-0.40307617,-0.18267822,0.96868896,-0.578125,-0.3125,0.421875
353,353,1727966376933,-0.40551758,-0.18634033,0.9779663,0.109375,-0.4375,0.390625
354,354,1727966376973,-0.41015625,-0.17633057,0.96917725,-0.96875,-1.328125,0.34375
355,355,1727966377013,-0.4038086,-0.18292236,0.97161865,-0.859375,-0.34375,0.375
356,356,1727966377053,-0.4025879,-0.17999268,0.9682007,-0.40625,0.59375,0.359375
357,357,1727966377093,-0.40454102,-0.18145752,0.97406006,0.140625,0.59375,0.4375
358,358,1727966377133,-0.4091797,-0.18463135,0.98065186,0.015625,1.0,0.5
359,359,1727966377173,-0.40600586,-0.18267822,0.977478,0.40625,1.671875,0.5
360,360,1727966377213,-0.3955078,-0.18463135,0.96795654,0.59375,1.296875,0.328125
361,361,1727966377253,-0.39453125,-0.18292236,0.9801636,0.921875,2.046875,0.375
362,362,1727966377293,-0.39379883,-0.18292236,0.9784546,0.90625,1.890625,0.578125
363,363,1727966377333,-0.3984375,-0.19146729,0.9755249,0.953125,1.640625,0.46875
364,364,1727966377373,-0.39501953,-0.19293213,0.96502686,0.703125,2.125,0.296875
365,365,1727966377413,-0.39086914,-0.18829346,0.98602295,2.296875,2.953125,0.59375
366,366,1727966377453,-0.38330078,-0.18756104,0.97088623,0.0,1.78125,0.640625
367,367,1727966377493,-0.38232422,-0.20709229,0.9882202,1.9375,2.421875,0.515625
368,368,1727966377533,-0.37280273,-0.19195557,0.9867554,1.140625,0.8125,0.515625
369,369,1727966377573,-0.38330078,-0.19390869,0.982605,0.71875,1.84375,0.671875
370,370,1727966377613,-0.37573242,-0.20123291,0.98114014,0.875,1.640625,0.453125
371,371,1727966377653,-0.3815918,-0.21148682,0.98187256,1.109375,1.234375,0.265625
372,372,1727966377693,-0.36645508,-0.20245361,0.97650146,0.328125,0.9375,0.375
373,373,1727966377733,-0.37426758,-0.2053833,0.97991943,0.5625,1.28125,0.40625
374,374,1727966377773,-0.36694336,-0.20245361,0.9813843,0.671875,1.421875,0.390625
375,375,1727966377813,-0.36547852,-0.21124268,0.97772217,0.546875,1.28125,0.421875
376,376,1727966377853,-0.36889648,-0.20635986,0.9804077,0.703125,2.25,0.484375
377,377,1727966377893,-0.36083984,-0.21173096,0.98651123,1.21875,3.15625,0.671875
378,378,1727966377933,-0.3557129,-0.21588135,0.98236084,1.078125,1.53125,0.5625
379,379,1727966377973,-0.35913086,-0.2131958,0.98846436,0.734375,0.46875,0.390625
380,380,1727966378013,-0.35546875,-0.20562744,0.9850464,0.390625,0.765625,0.421875
381,381,1727966378053,-0.35913086,-0.21417236,0.9862671,0.03125,1.5,0.53125
382,382,1727966378093,-0.3461914,-0.21148682,0.982605,0.21875,1.78125,0.09375
383,383,1727966378133,-0.34838867,-0.22979736,1.008728,2.375,1.125,0.40625
384,384,1727966378173,-0.35180664,-0.20977783,0.97283936,-0.953125,-0.28125,0.234375
385,385,1727966378213,-0.35205078,-0.22930908,0.9857788,-0.046875,1.078125,0.328125
386,386,1727966378253,-0.34838867,-0.22320557,0.99261475,1.078125,1.265625,0.578125
387,387,1727966378293,-0.35083008,-0.21759033,0.98114014,0.296875,1.171875,0.875
388,388,1727966378333,-0.3466797,-0.22467041,0.99090576,0.78125,1.515625,0.703125
389,389,1727966378373,-0.34545898,-0.2210083,0.9935913,0.609375,0.515625,0.09375
390,390,1727966378413,-0.33935547,-0.2210083,0.9852905,0.21875,0.703125,0.28125
391,391,1727966378453,-0.3383789,-0.22711182,0.98895264,0.078125,1.140625,0.453125
392,392,1727966378493,-0.3413086,-0.23370361,0.9916382,0.265625,1.0625,0.359375
393,393,1727966378533,-0.33691406,-0.2263794,0.9923706,0.296875,0.171875,0.359375
394,394,1727966378573,-0.3400879,-0.2300415,0.98846436,-0.03125,0.125,0.390625
395,395,1727966378613,-0.33911133,-0.22979736,0.99432373,-0.25,0.03125,0.4375
396,396,1727966378653,-0.33911133,-0.22955322,0.98651123,-0.4375,-0.484375,0.375
397,397,1727966378693,-0.33642578,-0.22735596,0.9867554,-0.359375,-0.09375,0.3125
398,398,1727966378733,-0.33642578,-0.2300415,0.9887085,-0.046875,0.046875,0.53125
399,399,1727966378773,-0.3408203,-0.22930908,0.9899292,-0.421875,0.09375,0.453125
400,400,1727966378813,-0.33325195,-0.23370361,0.9899292,-0.890625,-0.125,0.3125
401,401,1727966378853,-0.34057617,-0.23150635,1.0099487,0.453125,-1.21875,0.296875
402,402,1727966378893,-0.3413086,-0.21929932,0.9779663,-2.484375,-3.390625,0.203125
403,403,1727966378933,-0.34960938,-0.23370361,0.9894409,-1.90625,-2.90625,0.28125
404,404,1727966378973,-0.34716797,-0.2276001,0.9882202,-1.53125,-3.65625,0.171875
405,405,1727966379013,-0.3540039,-0.2144165,0.97869873,-2.625,-2.9375,0.359375
406,406,1727966379053,-0.35888672,-0.2210083,0.980896,-1.609375,-1.1875,0.421875
407,407,1727966379093,-0.3623047,-0.22467041,0.98724365,-1.8125,-2.578125,0.1875
408,408,1727966379133,-0.36401367,-0.2144165,0.97869873,-2.28125,-2.71875,0.109375
409,409,1727966379173,-0.36889648,-0.2131958,0.979187,-1.875,-2.015625,0.375
410,410,1727966379213,-0.36401367,-0.21392822,0.98065186,-1.796875,-1.6875,0.40625
411,411,1727966379253,-0.36767578,-0.20904541,0.9833374,-1.46875,-2.296875,0.3125
412,412,1727966379293,-0.37451172,-0.21514893,0.9796753,-1.703125,-1.953125,0.375
413,413,1727966379333,-0.37402344,-0.20587158,0.98358154,-1.96875,-1.84375,0.375
414,414,1727966379373,-0.3737793,-0.20684814,0.9762573,-2.328125,-2.4375,0.234375
415,415,1727966379413,-0.38012695,-0.20025635,0.97869873,-1.953125,-2.125,0.234375
416,416,1727966379453,-0.37963867,-0.19854736,0.9750366,-1.53125,-1.921875,0.296875
417,417,1727966379493,-0.38256836,-0.19415283,0.9725952,-1.734375,-1.671875,0.3125
418,418,1727966379533,-0.3840332,-0.2078247,0.9772339,-1.5625,-1.171875,0.3125
419,419,1727966379573,-0.38671875,-0.1987915,0.9923706,-1.046875,-1.703125,0.328125
420,420,1727966379613,-0.38354492,-0.19024658,0.9672241,-2.078125,-1.796875,0.40625
421,421,1727966379653,-0.39282227,-0.20562744,0.9796753,-1.6875,-1.46875,0.3125
422,422,1727966379693,-0.38476562,-0.1975708,0.97772217,-0.296875,-0.625,0.3125
423,423,1727966379733,-0.39453125,-0.1885376,0.9779663,-1.0,-0.765625,0.46875
424,424,1727966379773,-0.40039062,-0.19488525,0.9772339,-0.984375,-0.421875,0.453125
425,425,1727966379813,-0.38964844,-0.20025635,0.97454834,-1.171875,-1.5,0.03125
426,426,1727966379853,-0.39160156,-0.19610596,0.9789429,-0.875,-1.390625,0.21875
427,427,1727966379893,-0.3959961,-0.19342041,0.9796753,-1.265625,-1.0625,0.359375
428,428,1727966379933,-0.39794922,-0.190979,0.97650146,-1.703125,-1.4375,0.296875
429,429,1727966379973,-0.39697266,-0.18585205,0.9701538,-1.453125,-1.328125,0.15625
430,430,1727966380013,-0.39453125,-0.18267822,0.9725952,-1.09375,-0.71875,0.3125
431,431,1727966380053,-0.40234375,-0.19073486,0.9755249,-0.328125,0.640625,0.265625
432,432,1727966380093,-0.4008789,-0.19415283,0.9747925,0.203125,1.0,0.453125
433,433,1727966380133,-0.39990234,-0.19146729,0.97528076,0.484375,0.984375,0.359375
434,434,1727966380173,-0.3955078,-0.18487549,0.96868896,1.09375,1.984375,0.375
435,435,1727966380213,-0.38720703,-0.1897583,0.96698,1.40625,2.875,0.71875
436,436,1727966380253,-0.3894043,-0.19805908,0.9816284,2.09375,3.25,0.46875
437,437,1727966380293,-0.38378906,-0.1963501,0.9694214,1.609375,2.734375,0.34375
438,438,1727966380333,-0.38427734,-0.20465088,0.9867554,2.328125,2.265625,0.65625
439,439,1727966380373,-0.38061523,-0.19561768,0.96502686,-0.359375,0.0625,0.21875
440,440,1727966380413,-0.3852539,-0.20831299,0.980896,1.046875,1.1875,0.046875
441,441,1727966380453,-0.37426758,-0.19293213,0.97943115,0.921875,1.390625,0.34375
442,442,1727966380493,-0.38256836,-0.20587158,0.9821167,0.625,1.921875,0.78125
443,443,1727966380533,-0.3774414,-0.2131958,0.98480225,0.46875,0.96875,0.21875
444,444,1727966380573,-0.36767578,-0.21661377,0.9828491,1.15625,0.90625,0.296875
445,445,1727966380613,-0.3708496,-0.20880127,0.9762573,0.453125,0.765625,0.328125
446,446,1727966380653,-0.36865234,-0.21661377,0.98602295,0.125,0.796875,0.34375
447,447,1727966380693,-0.36083984,-0.21295166,0.98358154,0.109375,0.6875,0.3125
448,448,1727966380733,-0.3635254,-0.21002197,0.9796753,0.453125,0.296875,0.28125
449,449,1727966380773,-0.37158203,-0.21539307,0.97991943,0.375,0.984375,0.59375
450,450,1727966380813,-0.3696289,-0.21710205,0.9804077,0.015625,1.015625,0.4375
451,451,1727966380853,-0.35839844,-0.21636963,0.98114014,0.234375,0.4375,0.46875
452,452,1727966380893,-0.36450195,-0.21661377,0.97991943,0.34375,0.78125,0.375
453,453,1727966380933,-0.36694336,-0.22296143,0.98358154,0.578125,1.171875,0.515625
454,454,1727966380973,-0.35839844,-0.21710205,0.98187256,0.375,0.890625,0.34375
455,455,1727966381013,-0.35766602,-0.21490479,0.9796753,0.40625,1.15625,0.3125
456,456,1727966381053,-0.3569336,-0.22027588,0.97943115,0.078125,1.3125,0.375
457,457,1727966381093,-0.3557129,-0.22784424,0.9984741,1.796875,1.265625,0.484375
458,458,1727966381133,-0.35327148,-0.2131958,0.9723511,-1.078125,-0.40625,0.453125
459,459,1727966381173,-0.3552246,-0.23321533,0.9767456,0.453125,0.9375,0.28125
460,460,1727966381213,-0.3449707,-0.22198486,0.99334717,1.015625,1.0,0.359375
461,461,1727966381253,-0.359375,-0.21588135,0.97650146,0.234375,1.484375,0.71875
462,462,1727966381293,-0.3540039,-0.22320557,0.9879761,0.328125,1.15625,0.5
463,463,1727966381333,-0.35473633,-0.23028564,0.98651123,0.453125,0.609375,0.28125
464,464,1727966381373,-0.35058594,-0.22784424,0.9840698,0.0,0.84375,0.28125
465,465,1727966381413,-0.34570312,-0.2300415,0.98895264,-0.15625,0.765625,0.40625
466,466,1727966381453,-0.3449707,-0.23101807,0.9869995,0.03125,0.78125,0.421875
467,467,1727966381493,-0.34545898,-0.2263794,0.9918823,0.125,0.109375,0.359375
468,468,1727966381533,-0.3486328,-0.23077393,0.9840698,-0.296875,0.453125,0.515625
469,469,1727966381573,-0.34179688,-0.23443604,0.9894409,-0.359375,0.328125,0.453125
470,470,1727966381613,-0.3425293,-0.23150635,0.98895264,-0.765625,-0.625,0.375
471,471,1727966381653,-0.35302734,-0.22930908,0.98602295,-0.90625,-0.75,0.40625
472,472,1727966381693,-0.34204102,-0.23443604,0.99090576,-0.90625,-0.9375,0.40625
473,473,1727966381733,-0.3491211,-0.22515869,0.9838257,-1.296875,-1.796875,0.28125
474,474,1727966381773,-0.3544922,-0.23150635,0.98651123,-1.71875,-1.640625,0.28125
475,475,1727966381813,-0.3449707,-0.22857666,0.9760132,-1.9375,-1.78125,0.34375
476,476,1727966381853,-0.35253906,-0.22467041,0.9874878,-1.03125,-2.0,0.390625
477,477,1727966381893,-0.35961914,-0.21270752,0.97039795,-2.890625,-2.75,0.328125
478,478,1727966381933,-0.36499023,-0.22784424,0.98309326,-1.28125,-1.828125,-0.015625
479,479,1727966381973,-0.3630371,-0.20904541,0.9801636,-1.453125,-2.21875,0.296875
480,480,1727966382013,-0.37060547,-0.20855713,0.9762573,-2.0625,-1.140625,0.640625
481,481,1727966382053,-0.37109375,-0.21026611,0.9750366,-1.484375,-1.203125,0.421875
482,482,1727966382093,-0.37573242,-0.2197876,0.97991943,-1.6875,-2.28125,0.359375
483,483,1727966382133,-0.36547852,-0.20953369,0.9789429,-2.171875,-2.09375,0.28125
484,484,1727966382173,-0.37109375,-0.21173096,0.98114014,-2.046875,-1.765625,0.265625
485,485,1727966382213,-0.37304688,-0.21221924,0.97991943,-2.109375,-2.1875,0.234375
486,486,1727966382253,-0.37768555,-0.2053833,0.98236084,-1.84375,-2.296875,0.375
487,487,1727966382293,-0.38720703,-0.20343018,0.9738159,-2.125,-1.953125,0.421875
488,488,1727966382333,-0.38720703,-0.2041626,0.980896,-2.21875,-1.90625,0.46875
489,489,1727966382373,-0.3798828,-0.19903564,0.9735718,-1.96875,-2.015625,0.328125
490,490,1727966382413,-0.390625,-0.20196533,0.9804077,-1.8125,-1.734375,0.234375
491,491,1727966382453,-0.38476562,-0.19488525,0.97869873,-1.53125,-1.765625,0.359375
492,492,1727966382493,-0.3935547,-0.1951294,0.9772339,-1.5625,-1.453125,0.296875
493,493,1727966382533,-0.39624023,-0.1897583,0.9762573,-1.359375,-1.03125,0.359375
494,494,1727966382573,-0.38720703,-0.18560791,0.97991943,-1.828125,-1.578125,0.28125
495,495,1727966382613,-0.39013672,-0.18560791,0.965271,-1.96875,-2.03125,0.296875
496,496,1727966382653,-0.40283203,-0.19195557,0.96990967,-2.609375,-1.984375,0.234375
497,497,1727966382693,-0.39038086,-0.19073486,0.97869873,-0.8125,-0.9375,0.171875
498,498,1727966382733,-0.39697266,-0.17803955,0.97332764,-1.375,-1.171875,0.453125
499,499,1727966382773,-0.4020996,-0.18048096,0.97772217,-1.1875,-0.53125,0.484375
500,500,1727966382813,-0.40185547,-0.18585205,0.97406006,-1.171875,-1.046875,0.453125
501,501,1727966382853,-0.40112305,-0.18487549,0.96698,-0.890625,-1.265625,0.3125
502,502,1727966382893,-0.4008789,-0.18048096,0.9760132,-1.046875,-0.859375,0.15625
503,503,1727966382933,-0.40771484,-0.18292236,0.96990967,-1.046875,-0.78125,0.265625
504,504,1727966382973,-0.40429688,-0.1807251,0.9735718,-1.078125,-0.8125,0.375
505,505,1727966383013,-0.40429688,-0.17022705,0.9660034,-0.640625,-0.296875,0.46875
506,506,1727966383053,-0.40698242,-0.17901611,0.9730835,-0.15625,0.171875,0.5
507,507,1727966383093,-0.40893555,-0.18023682,0.9664917,0.0625,0.6875,0.46875
508,508,1727966383133,-0.40649414,-0.18096924,0.977478,0.046875,0.265625,0.46875
509,509,1727966383173,-0.4025879,-0.17315674,0.96990967,-0.03125,0.4375,0.453125
510,510,1727966383213,-0.40185547,-0.17852783,0.97528076,0.03125,1.203125,0.4375
511,511,1727966383253,-0.39916992,-0.18389893,0.9706421,0.5625,1.953125,0.453125
512,512,1727966383293,-0.39770508,-0.19146729,0.97698975,0.765625,1.5625,0.3125
513,513,1727966383333,-0.39624023,-0.17681885,0.9747925,0.65625,1.359375,0.578125
514,514,1727966383373,-0.39819336,-0.18511963,0.9723511,-0.296875,0.71875,0.3125
515,515,1727966383413,-0.39160156,-0.19268799,0.9760132,1.34375,1.6875,0.234375
516,516,1727966383453,-0.3972168,-0.18292236,0.97821045,0.9375,1.6875,0.734375
517,517,1727966383493,-0.39257812,-0.190979,0.9828491,1.078125,2.078125,0.65625
518,518,1727966383533,-0.38500977,-0.19830322,0.9760132,0.5,0.625,0.265625
519,519,1727966383573,-0.3955078,-0.19342041,0.97576904,0.453125,-0.125,0.234375
520,520,1727966383613,-0.38867188,-0.19659424,0.97991943,-0.1875,0.171875,0.359375
521,521,1727966383653,-0.38745117,-0.19342041,0.9730835,0.171875,1.234375,0.40625
522,522,1727966383693,-0.3791504,-0.19683838,0.98065186,0.546875,1.09375,0.359375
523,523,1727966383733,-0.37963867,-0.19268799,0.98309326,0.484375,0.921875,0.546875
524,524,1727966383773,-0.3869629,-0.19708252,0.9821167,0.65625,1.828125,0.4375
525,525,1727966383813,-0.37817383,-0.1987915,0.97991943,0.9375,1.765625,0.453125
526,526,1727966383853,-0.38232422,-0.20855713,0.977478,0.578125,1.171875,0.359375
527,527,1727966383893,-0.37768555,-0.19903564,0.9801636,0.65625,1.5,0.546875
528,528,1727966383933,-0.36889648,-0.19952393,0.9755249,0.640625,1.375,0.484375
529,529,1727966383973,-0.37597656,-0.20635986,0.98358154,0.75,1.984375,0.53125
530,530,1727966384013,-0.3581543,-0.20611572,0.9821167,0.5625,1.703125,0.34375
531,531,1727966384053,-0.3696289,-0.206604,0.9904175,1.6875,1.0625,0.5
532,532,1727966384093,-0.36279297,-0.19854736,0.97088623,-1.3125,-0.28125,0.265625
533,533,1727966384133,-0.3720703,-0.21832275,0.97991943,0.671875,1.359375,0.203125
534,534,1727966384173,-0.35839844,-0.2119751,0.9804077,1.53125,1.859375,0.28125
535,535,1727966384213,-0.36254883,-0.20611572,0.9894409,0.984375,1.953125,0.703125
536,536,1727966384253,-0.3623047,-0.21466064,0.98553467,0.640625,1.09375,0.53125
537,537,1727966384293,-0.3647461,-0.2185669,0.9923706,0.28125,0.484375,0.5
538,538,1727966384333,-0.35913086,-0.22320557,0.9755249,-0.1875,0.46875,0.34375
539,539,1727966384373,-0.36206055,-0.21661377,0.9850464,-0.046875,0.765625,0.4375
540,540,1727966384413,-0.359375,-0.22052002,0.98236084,0.15625,1.046875,0.359375
541,541,1727966384453,-0.34960938,-0.21392822,0.9845581,0.15625,0.453125,0.40625
542,542,1727966384493,-0.35351562,-0.21612549,0.9840698,0.09375,0.546875,0.5
543,543,1727966384533,-0.3581543,-0.2197876,0.9852905,0.03125,0.578125,0.53125
544,544,1727966384573,-0.34985352,-0.21490479,0.98773193,-0.28125,-0.015625,0.359375
545,545,1727966384613,-0.35839844,-0.21368408,0.9840698,-0.421875,0.234375,0.5
546,546,1727966384653,-0.34838867,-0.21905518,0.9816284,0.171875,0.734375,0.546875
547,547,1727966384693,-0.35205078,-0.22174072,0.9784546,0.140625,0.765625,0.390625
548,548,1727966384733,-0.34594727,-0.22833252,0.9804077,0.09375,1.1875,0.3125
549,549,1727966384773,-0.34716797,-0.22369385,1.0023804,1.296875,1.203125,0.4375
550,550,1727966384813,-0.34057617,-0.21905518,0.9755249,-0.578125,-0.078125,0.375
551,551,1727966384853,-0.35253906,-0.23370361,0.9923706,-0.859375,-0.15625,0.1875
552,552,1727966384893,-0.33911133,-0.23052979,0.99261475,0.15625,-0.6875,0.15625
553,553,1727966384933,-0.34936523,-0.21490479,0.9887085,-1.34375,-1.8125,0.4375
554,554,1727966384973,-0.35498047,-0.22320557,0.9940796,-1.125,-1.5,0.484375
555,555,1727966385013,-0.34887695,-0.22149658,0.98895264,-2.3125,-3.84375,0.296875
556,556,1727966385053,-0.36083984,-0.22174072,0.97332764,-2.828125,-3.5625,0.046875
557,557,1727966385093,-0.3630371,-0.21759033,0.97869873,-2.15625,-2.6875,0.21875
558,558,1727966385133,-0.36645508,-0.21710205,0.98602295,-1.828125,-1.671875,0.21875
559,559,1727966385173,-0.36865234,-0.20953369,0.9882202,-1.796875,-2.40625,0.078125
560,560,1727966385213,-0.37548828,-0.20587158,0.97821045,-2.046875,-2.734375,0.09375
561,561,1727966385253,-0.3786621,-0.20611572,0.97943115,-1.953125,-2.03125,0.15625
562,562,1727966385293,-0.3762207,-0.20587158,0.97869873,-2.078125,-2.09375,0.390625
563,563,1727966385333,-0.3779297,-0.20367432,0.98065186,-2.078125,-2.09375,0.28125
564,564,1727966385373,-0.3869629,-0.19903564,0.9816284,-1.921875,-2.140625,0.296875
565,565,1727966385413,-0.38452148,-0.19708252,0.97528076,-1.90625,-1.75,0.3125
566,566,1727966385453,-0.39208984,-0.2000122,0.97821045,-1.484375,-1.5,0.125
567,567,1727966385493,-0.38598633,-0.1987915,0.96868896,-2.578125,-2.3125,0.015625
568,568,1727966385533,-0.39160156,-0.18389893,0.9747925,-1.203125,-1.34375,0.390625
569,569,1727966385573,-0.3881836,-0.19000244,0.9660034,-3.09375,-2.390625,0.171875
570,570,1727966385613,-0.39160156,-0.19537354,0.97772217,-0.734375,-1.046875,0.0625
571,571,1727966385653,-0.390625,-0.18365479,0.97821045,-1.296875,-1.703125,0.25
572,572,1727966385693,-0.3996582,-0.18487549,0.9760132,-1.75,-1.25,0.46875
573,573,1727966385733,-0.39331055,-0.18560791,0.9743042,-1.6875,-1.53125,0.34375
574,574,1727966385773,-0.40429688,-0.18829346,0.98358154,-1.53125,-2.046875,0.296875
575,575,1727966385813,-0.4025879,-0.1843872,0.9725952,-2.296875,-2.15625,0.28125
576,576,1727966385853,-0.40625,-0.18341064,0.9755249,-2.09375,-1.9375,0.34375
577,577,1727966385893,-0.40673828,-0.17999268,0.9725952,-1.90625,-1.515625,0.1875
578,578,1727966385933,-0.40893555,-0.17559814,0.9711304,-1.78125,-1.890625,0.234375
579,579,1727966385973,-0.41577148,-0.17803955,0.9730835,-1.640625,-1.375,0.34375
580,580,1727966386013,-0.4128418,-0.17462158,0.9672241,-1.671875,-1.640625,0.453125
581,581,1727966386053,-0.41601562,-0.17193604,0.9664917,-1.578125,-1.578125,0.375
582,582,1727966386093,-0.42114258,-0.17510986,0.97088623,-1.265625,-0.859375,0.375
583,583,1727966386133,-0.4128418,-0.1663208,0.9696655,-1.171875,-0.734375,0.375
584,584,1727966386173,-0.42456055,-0.16851807,0.965271,-0.765625,-0.15625,0.421875
585,585,1727966386213,-0.4116211,-0.16436768,0.9701538,-0.484375,0.3125,0.265625
586,586,1727966386253,-0.4189453,-0.17706299,0.98480225,1.15625,0.8125,0.703125
587,587,1727966386293,-0.4111328,-0.16070557,0.951355,-1.203125,-0.265625,0.359375
588,588,1727966386333,-0.41381836,-0.17901611,0.98480225,0.328125,0.96875,0.28125
589,589,1727966386373,-0.4128418,-0.17071533,0.9672241,-0.03125,-0.265625,0.34375
590,590,1727966386413,-0.41845703,-0.16534424,0.9628296,-0.234375,0.328125,0.421875
591,591,1727966386453,-0.41577148,-0.17193604,0.9718628,0.03125,1.03125,0.53125
592,592,1727966386493,-0.41845703,-0.1741333,0.9779663,0.890625,1.234375,0.34375
593,593,1727966386533,-0.4116211,-0.17584229,0.96868896,0.59375,1.125,0.3125
594,594,1727966386573,-0.41015625,-0.17486572,0.97772217,0.109375,0.5625,0.421875
595,595,1727966386613,-0.40942383,-0.17242432,0.9713745,0.015625,0.171875,0.296875
596,596,1727966386653,-0.4091797,-0.16851807,0.97528076,0.15625,0.28125,0.375
597,597,1727966386693,-0.40551758,-0.16729736,0.9696655,-0.03125,0.921875,0.359375
598,598,1727966386733,-0.40649414,-0.17584229,0.9694214,0.296875,1.671875,0.3125
599,599,1727966386773,-0.40722656,-0.18780518,0.96673584,1.375,2.28125,0.296875
600,600,1727966386813,-0.40307617,-0.18170166,0.97650146,1.28125,2.09375,0.6875
601,601,1727966386853,-0.40527344,-0.18292236,0.982605,0.515625,0.828125,0.609375
602,602,1727966386893,-0.39697266,-0.17926025,0.96990967,-0.078125,0.171875,0.421875
603,603,1727966386933,-0.39135742,-0.1843872,0.9735718,0.59375,1.359375,0.375
604,604,1727966386973,-0.3959961,-0.18878174,0.9701538,0.21875,2.0,0.328125
605,605,1727966387013,-0.39819336,-0.19146729,0.9750366,1.6875,2.0,0.484375
606,606,1727966387053,-0.3955078,-0.18902588,0.96746826,-0.46875,0.375,0.234375
607,607,1727966387093,-0.3942871,-0.19781494,0.9813843,1.859375,2.140625,0.265625
608,608,1727966387133,-0.38427734,-0.18463135,0.9845581,1.328125,1.984375,0.515625
609,609,1727966387173,-0.39038086,-0.18804932,0.9735718,1.140625,2.46875,0.609375
610,610,1727966387213,-0.37939453,-0.1951294,0.9804077,1.171875,1.578125,0.484375
611,611,1727966387253,-0.38134766,-0.20758057,0.98309326,1.203125,1.203125,0.28125
612,612,1727966387293,-0.3779297,-0.19439697,0.9784546,0.328125,1.265625,0.34375
613,613,1727966387333,-0.3786621,-0.19561768,0.97869873,0.40625,1.15625,0.28125
614,614,1727966387373,-0.37524414,-0.20465088,0.98553467,0.671875,1.203125,0.4375
615,615,1727966387413,-0.3774414,-0.19683838,0.9840698,0.71875,0.984375,0.453125
616,616,1727966387453,-0.38061523,-0.20269775,0.98065186,0.359375,1.421875,0.515625
617,617,1727966387493,-0.3696289,-0.20953369,0.9789429,0.90625,1.6875,0.3125
618,618,1727966387533,-0.36328125,-0.20318604,0.982605,0.53125,1.171875,0.515625
619,619,1727966387573,-0.36547852,-0.20758057,0.9801636,0.203125,0.78125,0.453125
620,620,1727966387613,-0.36621094,-0.2144165,0.97821045,0.375,0.890625,0.453125
621,621,1727966387653,-0.3630371,-0.20635986,0.9816284,0.34375,0.75,0.34375
622,622,1727966387693,-0.35961914,-0.21343994,0.9789429,0.21875,1.203125,0.328125
623,623,1727966387733,-0.3581543,-0.21221924,0.9821167,0.359375,1.71875,0.578125
624,624,1727966387773,-0.3630371,-0.22052002,0.99798584,0.859375,1.4375,0.484375
625,625,1727966387813,-0.3503418,-0.20269775,0.9796753,0.015625,0.0,0.453125
626,626,1727966387853,-0.3618164,-0.21636963,0.9760132,-0.125,0.640625,0.203125
627,627,1727966387893,-0.3474121,-0.22491455,0.9894409,1.515625,1.890625,0.28125
628,628,1727966387933,-0.35595703,-0.21417236,0.9828491,0.921875,1.515625,0.71875
629,629,1727966387973,-0.3552246,-0.22076416,0.98309326,0.875,1.9375,0.796875
630,630,1727966388013,-0.3466797,-0.22930908,0.9940796,0.625,0.875,0.4375
631,631,1727966388053,-0.34277344,-0.2263794,0.9904175,0.359375,0.3125,0.328125
632,632,1727966388093,-0.34350586,-0.2276001,0.97991943,-0.578125,-0.25,0.265625
633,633,1727966388133,-0.35009766,-0.23175049,0.99334717,-0.78125,-0.734375,0.453125
634,634,1727966388173,-0.34765625,-0.22174072,0.9906616,-1.3125,-2.359375,0.28125
635,635,1727966388213,-0.3630371,-0.21881104,0.9779663,-1.875,-3.1875,0.171875
636,636,1727966388253,-0.35986328,-0.21807861,0.98431396,-2.21875,-2.625,0.171875
637,637,1727966388293,-0.36132812,-0.21759033,0.9867554,-2.125,-2.46875,0.1875
638,638,1727966388333,-0.36645508,-0.20928955,0.9923706,-2.734375,-2.640625,0.28125
639,639,1727966388373,-0.3713379,-0.21002197,0.9852905,-2.734375,-2.703125,0.203125
640,640,1727966388413,-0.36865234,-0.20172119,0.9779663,-1.96875,-2.484375,0.203125
641,641,1727966388453,-0.36547852,-0.206604,0.9838257,-1.71875,-1.96875,0.25
642,642,1727966388493,-0.37109375,-0.21148682,0.97650146,-1.828125,-1.828125,0.359375
643,643,1727966388533,-0.3798828,-0.2029419,0.9772339,-2.0,-1.75,0.203125
644,644,1727966388573,-0.37963867,-0.20025635,0.98773193,-0.421875,-1.90625,0.421875
645,645,1727966388613,-0.38476562,-0.18756104,0.97406006,-3.171875,-3.40625,0.25
646,646,1727966388653,-0.39160156,-0.20977783,0.9779663,-1.671875,-1.328125,0.21875
647,647,1727966388693,-0.3786621,-0.19464111,0.9725952,-1.25,-1.65625,0.5
648,648,1727966388733,-0.39501953,-0.18878174,0.9760132,-1.65625,-1.453125,0.375
649,649,1727966388773,-0.38964844,-0.19342041,0.97698975,-1.390625,-0.765625,0.546875
650,650,1727966388813,-0.39160156,-0.19683838,0.979187,-1.09375,-1.546875,0.28125
651,651,1727966388853,-0.39379883,-0.19659424,0.9725952,-1.5,-2.09375,0.15625
652,652,1727966388893,-0.3996582,-0.18951416,0.9735718,-1.875,-1.625,0.203125
653,653,1727966388933,-0.3935547,-0.1897583,0.97283936,-1.59375,-1.421875,0.3125
654,654,1727966388973,-0.3996582,-0.18682861,0.9755249,-1.3125,-1.46875,0.296875
655,655,1727966389013,-0.40649414,-0.1843872,0.97576904,-1.78125,-1.625,0.46875
656,656,1727966389053,-0.40356445,-0.18634033,0.97698975,-1.75,-1.78125,0.421875
657,657,1727966389093,-0.4038086,-0.1831665,0.97283936,-2.109375,-2.078125,0.234375
658,658,1727966389133,-0.41210938,-0.18096924,0.97698975,-2.15625,-1.96875,0.5
659,659,1727966389173,-0.41455078,-0.17071533,0.96917725,-1.90625,-1.75,0.265625
660,660,1727966389213,-0.4008789,-0.17510986,0.9677124,-1.53125,-1.4375,0.140625
661,661,1727966389253,-0.4128418,-0.17681885,0.9755249,-1.03125,-0.921875,0.328125
662,662,1727966389293,-0.4165039,-0.17828369,0.98431396,-0.796875,-0.859375,0.171875
663,663,1727966389333,-0.4140625,-0.16485596,0.9598999,-1.265625,-1.1875,0.375
664,664,1727966389373,-0.4260254,-0.17779541,0.9660034,-0.859375,-0.1875,0.1875
665,665,1727966389413,-0.40771484,-0.17999268,0.97406006,0.15625,0.328125,0.421875
666,666,1727966389453,-0.41503906,-0.1663208,0.96624756,-0.34375,-0.34375,0.53125
667,667,1727966389493,-0.42626953,-0.16412354,0.9718628,-0.171875,0.546875,0.375
668,668,1727966389533,-0.4104004,-0.17633057,0.9706421,-0.015625,0.671875,0.359375
669,669,1727966389573,-0.41015625,-0.1741333,0.9713745,0.484375,0.859375,0.375
670,670,1727966389613,-0.4189453,-0.17803955,0.98065186,0.59375,1.171875,0.53125
671,671,1727966389653,-0.40942383,-0.17608643,0.97406006,0.109375,0.21875,0.5625
672,672,1727966389693,-0.41064453,-0.17364502,0.96380615,-0.03125,-0.015625,0.375
673,673,1727966389733,-0.41796875,-0.17510986,0.96917725,0.359375,0.875,0.640625
674,674,1727966389773,-0.41381836,-0.18145752,0.9711304,0.34375,1.421875,0.53125
675,675,1727966389813,-0.40551758,-0.17730713,0.9696655,0.53125,1.203125,0.34375
676,676,1727966389853,-0.40283203,-0.17803955,0.9762573,0.703125,1.203125,0.40625
677,677,1727966389893,-0.40185547,-0.18389893,0.9735718,0.9375,1.671875,0.5
678,678,1727966389933,-0.4020996,-0.18682861,0.97821045,1.40625,2.328125,0.625
679,679,1727966389973,-0.4013672,-0.18804932,0.97698975,1.03125,1.578125,0.515625
680,680,1727966390013,-0.40063477,-0.19073486,0.9862671,1.4375,0.984375,0.46875
681,681,1727966390053,-0.39526367,-0.175354,0.95965576,-0.015625,0.65625,0.546875
682,682,1727966390093,-0.39794922,-0.19708252,0.9725952,-0.046875,1.4375,0.390625
683,683,1727966390133,-0.3881836,-0.20098877,0.98114014,1.78125,2.640625,0.34375
684,684,1727966390173,-0.39257812,-0.19586182,0.97576904,0.859375,1.203125,1.0
685,685,1727966390213,-0.3935547,-0.18682861,0.9760132,1.46875,1.5625,0.703125
686,686,1727966390253,-0.38061523,-0.19708252,0.980896,1.265625,2.0,0.53125
687,687,1727966390293,-0.37402344,-0.20074463,0.97332764,1.125,1.375,0.21875
688,688,1727966390333,-0.38085938,-0.20147705,0.97772217,0.671875,1.1875,0.21875
689,689,1727966390373,-0.3725586,-0.20904541,0.98431396,0.765625,1.75,0.421875
690,690,1727966390413,-0.36889648,-0.19976807,0.98114014,0.46875,1.171875,0.40625
691,691,1727966390453,-0.3762207,-0.206604,0.98114014,0.375,1.03125,0.515625
692,692,1727966390493,-0.37890625,-0.20928955,0.980896,0.859375,1.578125,0.421875
693,693,1727966390533,-0.36938477,-0.20684814,0.9738159,0.609375,1.25,0.484375
694,694,1727966390573,-0.37402344,-0.20440674,0.98236084,0.5625,0.78125,0.625
695,695,1727966390613,-0.36743164,-0.20684814,0.98187256,0.34375,0.78125,0.5
696,696,1727966390653,-0.36547852,-0.20611572,0.97991943,-0.03125,0.484375,0.296875
697,697,1727966390693,-0.36938477,-0.21221924,0.98309326,-0.0625,0.28125,0.53125
698,698,1727966390733,-0.3701172,-0.22198486,0.99627686,0.78125,0.59375,0.640625
699,699,1727966390773,-0.35766602,-0.20245361,0.9738159,-0.734375,-0.34375,0.609375
700,700,1727966390813,-0.36889648,-0.22076416,0.97991943,-0.703125,0.453125,0.21875
701,701,1727966390853,-0.35888672,-0.22711182,0.9852905,1.1875,1.703125,0.109375
702,702,1727966390893,-0.36547852,-0.21173096,0.97869873,0.40625,1.078125,0.609375
703,703,1727966390933,-0.3544922,-0.21807861,0.9816284,0.953125,2.15625,0.5625
704,704,1727966390973,-0.35083008,-0.22125244,0.9891968,0.875,1.421875,0.34375
705,705,1727966391013,-0.34960938,-0.21466064,0.97698975,0.5,1.015625,0.515625
706,706,1727966391053,-0.3540039,-0.22076416,0.98236084,0.09375,0.953125,0.53125
707,707,1727966391093,-0.35473633,-0.22711182,0.9857788,0.21875,1.078125,0.28125
708,708,1727966391133,-0.34765625,-0.22271729,0.98895264,0.59375,0.5625,0.390625
709,709,1727966391173,-0.3527832,-0.21685791,0.982605,0.234375,0.34375,0.515625
710,710,1727966391213,-0.3503418,-0.22540283,0.9840698,0.203125,1.03125,0.5
711,711,1727966391253,-0.35327148,-0.22564697,0.9867554,-0.109375,0.53125,0.59375
712,712,1727966391293,-0.35253906,-0.22540283,0.9828491,0.234375,0.28125,0.359375
713,713,1727966391333,-0.3474121,-0.2197876,0.98553467,0.28125,0.453125,0.421875
714,714,1727966391373,-0.34326172,-0.22808838,0.9916382,0.0625,0.625,0.359375
715,715,1727966391413,-0.3425293,-0.22857666,0.979187,-0.890625,-0.234375,0.28125
716,716,1727966391453,-0.34301758,-0.2276001,0.98968506,0.296875,-0.21875,0.390625
717,717,1727966391493,-0.3552246,-0.22467041,0.9840698,-1.828125,-1.546875,0.375
718,718,1727966391533,-0.3461914,-0.24493408,0.99139404,-0.921875,-1.265625,-0.015625
719,719,1727966391573,-0.34814453,-0.22027588,0.99261475,-1.265625,-3.34375,0.203125
720,720,1727966391613,-0.3569336,-0.21368408,0.98187256,-2.125,-2.078125,0.421875
721,721,1727966391653,-0.36401367,-0.2210083,0.9845581,-1.96875,-2.03125,0.34375
722,722,1727966391693,-0.36157227,-0.22198486,0.9828491,-1.859375,-2.375,0.046875
723,723,1727966391733,-0.36499023,-0.22247314,0.9750366,-2.078125,-2.21875,0.328125
724,724,1727966391773,-0.37182617,-0.21636963,0.98236084,-1.8125,-2.1875,0.171875
725,725,1727966391813,-0.37036133,-0.22052002,0.982605,-2.078125,-2.09375,0.328125
726,726,1727966391853,-0.37329102,-0.21026611,0.97698975,-1.859375,-2.71875,0.265625
727,727,1727966391893,-0.37597656,-0.20709229,0.97943115,-2.265625,-2.53125,0.421875
728,728,1727966391933,-0.38378906,-0.20245361,0.97772217,-2.40625,-2.078125,0.15625
729,729,1727966391973,-0.38330078,-0.20367432,0.9821167,-2.265625,-2.46875,0.125
730,730,1727966392013,-0.38476562,-0.20123291,0.9738159,-1.96875,-2.265625,0.140625
731,731,1727966392053,-0.38549805,-0.2029419,0.9750366,-2.015625,-1.734375,0.515625
732,732,1727966392093,-0.38183594,-0.19561768,0.9760132,-1.890625,-1.703125,0.328125
733,733,1727966392133,-0.39135742,-0.19781494,0.9862671,-1.546875,-1.859375,0.375
734,734,1727966392173,-0.39111328,-0.18585205,0.9664917,-2.34375,-1.84375,0.3125
735,735,1727966392213,-0.39672852,-0.19805908,0.9784546,-2.53125,-1.953125,0.359375
736,736,1727966392253,-0.3955078,-0.19561768,0.979187,-1.09375,-1.15625,-0.015625
737,737,1727966392293,-0.39526367,-0.1765747,0.97210693,-1.71875,-1.828125,0.515625
738,738,1727966392333,-0.40844727,-0.18707275,0.9755249,-1.640625,-0.765625,0.484375
739,739,1727966392373,-0.40039062,-0.1843872,0.9772339,-1.8125,-1.40625,0.265625
740,740,1727966392413,-0.39770508,-0.17584229,0.9689331,-1.328125,-1.59375,0.21875
741,741,1727966392453,-0.40405273,-0.17974854,0.97161865,-1.390625,-1.1875,0.34375
742,742,1727966392493,-0.40820312,-0.18341064,0.9743042,-1.578125,-1.328125,0.421875
743,743,1727966392533,-0.40576172,-0.17462158,0.9664917,-1.53125,-1.640625,0.328125
744,744,1727966392573,-0.4033203,-0.17803955,0.96429443,-1.375,-1.296875,0.484375
745,745,1727966392613,-0.40576172,-0.17340088,0.9706421,-1.03125,-0.484375,0.265625
746,746,1727966392653,-0.4091797,-0.17974854,0.9660034,-0.796875,-0.296875,0.34375
747,747,1727966392693,-0.4099121,-0.17901611,0.9689331,0.109375,0.6875,0.53125
748,748,1727966392733,-0.40478516,-0.17608643,0.96673584,0.453125,1.4375,0.546875
749,749,1727966392773,-0.41137695,-0.17266846,0.97088623,0.421875,1.53125,0.40625
750,750,1727966392813,-0.40649414,-0.18121338,0.96380615,0.703125,2.0,0.265625
751,751,1727966392853,-0.4033203,-0.18780518,0.9779663,2.546875,3.03125,0.53125
752,752,1727966392893,-0.39770508,-0.17901611,0.96380615,-0.015625,1.4375,0.328125
753,753,1727966392933,-0.390625,-0.20343018,0.97772217,1.390625,1.6875,0.203125
754,754,1727966392973,-0.39208984,-0.18707275,0.97698975,1.375,1.578125,0.6875
755,755,1727966393013,-0.3930664,-0.190979,0.979187,1.125,2.0625,0.6875
756,756,1727966393053,-0.38964844,-0.19244385,0.9735718,0.5625,1.390625,0.453125
757,757,1727966393093,-0.38989258,-0.19952393,0.9796753,0.96875,1.109375,0.21875
758,758,1727966393133,-0.38867188,-0.1951294,0.97283936,0.4375,1.09375,0.296875
759,759,1727966393173,-0.3798828,-0.20025635,0.98187256,-0.5,1.65625,0.515625
