,Unnamed: 0,timestamp,accel_x,accel_y,accel_z,gyro_x,gyro_y,gyro_z
0,0,1727708604344,-0.6022949,-0.00030517578,0.90130615,-1.03125,0.359375,-0.3125
1,1,1727708604384,-0.6057129,-0.0012817383,0.90618896,0.03125,-1.828125,0.078125
2,2,1727708604424,-0.60913086,0.002380371,0.902771,-1.0,0.609375,-0.640625
3,3,1727708604464,-0.6062012,-0.023254395,0.91864014,3.046875,1.40625,-0.140625
4,4,1727708604504,-0.60668945,-0.0017700195,0.9035034,1.078125,1.125,0.1875
5,5,1727708604544,-0.6015625,-6.1035156e-05,0.90667725,-0.078125,0.8125,0.25
6,6,1727708604584,-0.5969238,-0.003967285,0.9032593,-0.65625,-0.578125,-0.125
7,7,1727708604624,-0.5983887,-0.0064086914,0.9093628,-1.75,-1.21875,-0.84375
8,8,1727708604664,-0.61450195,-0.011291504,0.9086304,-1.578125,-2.53125,-0.546875
9,9,1727708604704,-0.6064453,-0.00030517578,0.9003296,-1.984375,-1.390625,-1.3125
10,10,1727708604744,-0.611084,-0.00982666,0.90960693,0.15625,0.0,-0.25
11,11,1727708604784,-0.60180664,-0.0020141602,0.9093628,-0.84375,-1.390625,-0.53125
12,12,1727708604824,-0.6081543,0.0021362305,0.8991089,-1.375,-1.703125,-0.1875
13,13,1727708604864,-0.61694336,-0.0015258789,0.9093628,-1.15625,-1.578125,-0.265625
14,14,1727708604904,-0.6123047,0.004333496,0.90057373,-0.796875,-1.125,-0.328125
15,15,1727708604944,-0.6064453,0.0040893555,0.89886475,-0.46875,-0.578125,-0.1875
16,16,1727708604984,-0.6164551,0.004333496,0.89764404,-1.75,-1.515625,-0.359375
17,17,1727708605024,-0.61816406,0.0072631836,0.8969116,-0.46875,-0.75,-0.453125
18,18,1727708605064,-0.6118164,0.0014038086,0.8973999,-1.078125,-0.765625,-0.328125
19,19,1727708605104,-0.61450195,0.010681152,0.9032593,-1.46875,-1.296875,-0.46875
20,20,1727708605144,-0.6191406,0.007751465,0.9039917,-0.265625,-0.0625,-0.328125
21,21,1727708605184,-0.61865234,0.005554199,0.9032593,0.609375,0.328125,-0.234375
22,22,1727708605224,-0.61938477,0.0119018555,0.902771,-0.34375,0.140625,-0.28125
23,23,1727708605264,-0.61572266,0.006286621,0.89959717,-1.015625,-1.328125,-0.328125
24,24,1727708605304,-0.625,0.012878418,0.9032593,-1.46875,-1.015625,-0.03125
25,25,1727708605344,-0.6123047,0.011169434,0.89520264,-1.46875,-0.359375,-0.359375
26,26,1727708605384,-0.62353516,0.009216309,0.8986206,-0.75,0.0625,-0.484375
27,27,1727708605424,-0.6196289,0.023620605,0.89764404,-1.125,-1.984375,-0.125
28,28,1727708605464,-0.6220703,0.0033569336,0.88690186,-2.296875,-0.28125,-0.671875
29,29,1727708605504,-0.61987305,0.009460449,0.902771,-0.234375,-0.390625,-0.421875
30,30,1727708605544,-0.6152344,0.01751709,0.8978882,-0.390625,-0.515625,-0.359375
31,31,1727708605584,-0.62158203,0.02142334,0.89471436,-1.390625,-1.09375,0.0
32,32,1727708605624,-0.6203613,0.02142334,0.89349365,-1.03125,-0.78125,0.015625
33,33,1727708605664,-0.62158203,0.008972168,0.8954468,-1.171875,-0.34375,-0.1875
34,34,1727708605704,-0.62646484,0.01751709,0.8932495,-0.765625,-0.703125,-0.21875
35,35,1727708605744,-0.6171875,0.018737793,0.88690186,-0.703125,-0.5,-0.265625
36,36,1727708605784,-0.6315918,0.018005371,0.8986206,0.03125,-0.3125,-0.015625
37,37,1727708605824,-0.6208496,0.01727295,0.8876343,0.671875,0.03125,-0.4375
38,38,1727708605864,-0.62353516,0.02508545,0.8930054,-0.109375,-0.484375,-0.390625
39,39,1727708605904,-0.6245117,0.018737793,0.89227295,-0.21875,-0.453125,-0.328125
40,40,1727708605944,-0.6208496,0.018249512,0.8866577,-0.671875,-0.4375,-0.3125
41,41,1727708605984,-0.62402344,0.014343262,0.8956909,-0.453125,-0.5625,-0.328125
42,42,1727708606024,-0.6201172,0.022644043,0.89349365,-0.1875,-0.515625,-0.21875
43,43,1727708606064,-0.626709,0.016540527,0.8949585,-0.375,-0.21875,-0.375
44,44,1727708606104,-0.62939453,0.026062012,0.89349365,0.0625,-0.046875,-0.28125
45,45,1727708606144,-0.6188965,0.01776123,0.89178467,0.015625,-0.03125,-0.265625
46,46,1727708606184,-0.62524414,0.02532959,0.8930054,0.1875,-0.03125,-0.140625
47,47,1727708606224,-0.6218262,0.017028809,0.8866577,-0.15625,0.46875,-0.296875
48,48,1727708606264,-0.61694336,0.019714355,0.888855,0.25,-0.0625,-0.21875
49,49,1727708606304,-0.6245117,0.015808105,0.8937378,0.4375,0.703125,-0.390625
50,50,1727708606344,-0.62353516,0.022888184,0.9039917,1.828125,-0.21875,0.125
51,51,1727708606384,-0.61816406,0.016784668,0.88079834,0.5,1.859375,-0.578125
52,52,1727708606424,-0.62646484,-0.0010375977,0.9130249,2.203125,1.609375,-0.34375
53,53,1727708606464,-0.6340332,0.011169434,0.89837646,0.921875,1.234375,0.0625
54,54,1727708606504,-0.6125488,0.026306152,0.8991089,1.859375,1.078125,-0.1875
55,55,1727708606544,-0.61206055,0.008728027,0.91033936,1.8125,0.875,0.125
56,56,1727708606584,-0.6113281,0.005554199,0.90008545,0.703125,0.921875,0.03125
57,57,1727708606624,-0.62524414,0.0060424805,0.9015503,0.765625,0.125,-0.125
58,58,1727708606664,-0.60009766,0.009460449,0.901062,0.953125,0.75,-0.515625
59,59,1727708606704,-0.6142578,0.004333496,0.9076538,0.4375,1.03125,0.109375
60,60,1727708606744,-0.6101074,-0.0037231445,0.9076538,0.53125,0.359375,-0.046875
61,61,1727708606784,-0.60913086,0.001159668,0.90057373,0.8125,-0.234375,-0.328125
62,62,1727708606824,-0.60791016,0.004333496,0.90496826,1.390625,0.65625,0.078125
63,63,1727708606864,-0.6047363,-0.0022583008,0.90838623,1.296875,1.5625,-0.25
64,64,1727708606904,-0.6010742,-0.0115356445,0.90301514,0.890625,0.875,-0.203125
65,65,1727708606944,-0.6142578,-0.003479004,0.9071655,0.90625,0.34375,-0.078125
66,66,1727708606984,-0.6027832,-0.01373291,0.9105835,1.46875,1.140625,-0.140625
67,67,1727708607024,-0.6003418,-0.009338379,0.9093628,0.84375,0.546875,0.03125
68,68,1727708607064,-0.6010742,-0.0071411133,0.9081421,0.53125,0.515625,-0.09375
69,69,1727708607104,-0.6057129,-0.013244629,0.9098511,0.796875,0.5625,0.09375
70,70,1727708607144,-0.5913086,-0.0134887695,0.9122925,0.84375,0.4375,-0.515625
71,71,1727708607184,-0.59936523,-0.012512207,0.9086304,1.15625,0.296875,0.0625
72,72,1727708607224,-0.5986328,-0.02154541,0.91864014,0.828125,0.578125,-0.328125
73,73,1727708607264,-0.5979004,-0.012756348,0.90667725,-0.1875,0.34375,-0.421875
74,74,1727708607304,-0.60375977,-0.018127441,0.92840576,0.53125,-0.1875,0.171875
75,75,1727708607344,-0.59277344,-0.010803223,0.9020386,-0.578125,-0.25,-0.203125
76,76,1727708607384,-0.60375977,-0.02130127,0.9188843,-0.203125,0.484375,-0.109375
77,77,1727708607424,-0.5966797,-0.02911377,0.92596436,2.125,1.59375,-0.578125
78,78,1727708607464,-0.59594727,-0.010803223,0.9135132,0.625,0.0625,-0.3125
79,79,1727708607504,-0.60302734,-0.008361816,0.9098511,-0.265625,0.0625,-0.0625
80,80,1727708607544,-0.5942383,-0.014465332,0.91937256,0.921875,0.625,-0.171875
81,81,1727708607584,-0.5974121,-0.02911377,0.9147339,0.015625,-0.15625,0.28125
82,82,1727708607624,-0.5900879,-0.02960205,0.91571045,-0.015625,-0.125,-0.25
83,83,1727708607664,-0.59472656,-0.01763916,0.91571045,-0.34375,0.65625,-0.125
84,84,1727708607704,-0.5917969,-0.02960205,0.9281616,0.671875,0.75,-0.0625
85,85,1727708607744,-0.5908203,-0.028137207,0.918396,0.4375,-0.234375,-0.28125
86,86,1727708607784,-0.5883789,-0.018371582,0.91156006,0.15625,-0.203125,-0.078125
87,87,1727708607824,-0.5908203,-0.030578613,0.920105,0.265625,0.546875,-0.296875
88,88,1727708607864,-0.5878906,-0.027160645,0.92181396,0.296875,0.203125,-0.25
89,89,1727708607904,-0.59643555,-0.023010254,0.9254761,-0.03125,-0.21875,-0.296875
90,90,1727708607944,-0.5905762,-0.02520752,0.9191284,0.6875,0.234375,-0.0625
91,91,1727708607984,-0.5998535,-0.019836426,0.9176636,0.28125,0.3125,0.078125
92,92,1727708608024,-0.5773926,-0.029846191,0.91326904,0.3125,0.359375,-0.171875
93,93,1727708608064,-0.5908203,-0.025939941,0.91815186,0.21875,-0.015625,0.03125
94,94,1727708608104,-0.5852051,-0.0256958,0.9196167,-0.421875,0.40625,-0.359375
95,95,1727708608144,-0.5888672,-0.034484863,0.92230225,0.5,-0.296875,-0.203125
96,96,1727708608184,-0.5812988,-0.028625488,0.91522217,-0.234375,0.359375,-0.34375
97,97,1727708608224,-0.5888672,-0.03375244,0.92401123,0.125,0.0,-0.265625
98,98,1727708608264,-0.5830078,-0.023986816,0.9118042,0.75,0.921875,-0.3125
99,99,1727708608304,-0.59033203,-0.039367676,0.92523193,-0.609375,-0.453125,-0.25
100,100,1727708608344,-0.58374023,-0.019348145,0.9135132,0.078125,-0.484375,-0.140625
101,101,1727708608384,-0.5854492,-0.038146973,0.9291382,0.28125,0.171875,-0.15625
102,102,1727708608424,-0.58251953,-0.027648926,0.91448975,-0.296875,0.0625,-0.328125
103,103,1727708608464,-0.5891113,-0.040100098,0.9332886,-0.03125,-0.421875,-0.046875
104,104,1727708608504,-0.5905762,-0.0178833,0.9147339,-0.53125,-0.84375,-0.328125
105,105,1727708608544,-0.5925293,-0.043029785,0.9262085,0.328125,0.65625,-0.328125
106,106,1727708608584,-0.5810547,-0.038879395,0.9262085,1.90625,0.515625,-0.375
107,107,1727708608624,-0.5905762,-0.029846191,0.92230225,-0.015625,-0.75,-0.140625
108,108,1727708608664,-0.5878906,-0.022766113,0.9179077,-0.671875,-0.59375,-0.078125
109,109,1727708608704,-0.5800781,-0.035949707,0.92059326,-0.46875,-0.65625,-0.140625
110,110,1727708608744,-0.58691406,-0.035705566,0.918396,-0.28125,-0.21875,-0.359375
111,111,1727708608784,-0.5878906,-0.04107666,0.91986084,-0.640625,-0.703125,-0.4375
112,112,1727708608824,-0.59228516,-0.030578613,0.9147339,-1.359375,-0.421875,-0.21875
113,113,1727708608864,-0.5883789,-0.03741455,0.9244995,-0.390625,-0.296875,-0.4375
114,114,1727708608904,-0.5878906,-0.0335083,0.9227905,-0.046875,-1.125,-0.4375
115,115,1727708608944,-0.5878906,-0.023986816,0.91986084,-0.75,-1.125,-0.3125
116,116,1727708608984,-0.5961914,-0.027893066,0.9179077,-0.828125,-0.796875,-0.390625
117,117,1727708609024,-0.59033203,-0.036193848,0.92718506,-0.953125,-0.953125,-0.46875
118,118,1727708609064,-0.59375,-0.02935791,0.916687,-2.578125,-1.84375,-0.234375
119,119,1727708609104,-0.5974121,-0.026916504,0.9147339,-0.890625,-1.5,-0.578125
120,120,1727708609144,-0.592041,-0.020568848,0.9125366,-0.984375,-0.78125,-0.34375
121,121,1727708609184,-0.59765625,-0.021057129,0.91815186,-1.5625,-1.6875,-0.21875
122,122,1727708609224,-0.5925293,-0.020080566,0.91400146,-1.171875,-1.296875,-0.375
123,123,1727708609264,-0.5966797,-0.019104004,0.914978,-0.5625,-0.734375,-0.375
124,124,1727708609304,-0.59887695,-0.019592285,0.90740967,-1.28125,-0.984375,-0.09375
125,125,1727708609344,-0.6020508,-0.0154418945,0.90838623,-1.71875,-1.15625,-0.59375
126,126,1727708609384,-0.6022949,-0.013977051,0.9086304,-1.09375,-1.5625,-0.515625
127,127,1727708609424,-0.607666,-0.01763916,0.9171753,-0.6875,-0.453125,-0.34375
128,128,1727708609464,-0.59887695,-0.015686035,0.90301514,-1.84375,-0.640625,-0.421875
129,129,1727708609504,-0.60180664,-0.013977051,0.90740967,-1.59375,-1.0,-0.359375
130,130,1727708609544,-0.6003418,-0.004699707,0.9093628,-0.046875,-1.484375,-0.390625
131,131,1727708609584,-0.61083984,-0.016906738,0.8949585,-1.46875,0.28125,-0.65625
132,132,1727708609624,-0.6052246,-0.016662598,0.9215698,0.375,-0.734375,-0.34375
133,133,1727708609664,-0.60424805,-0.003479004,0.9015503,-0.6875,-1.203125,-0.59375
134,134,1727708609704,-0.60498047,-6.1035156e-05,0.90618896,-1.53125,-0.890625,-0.375
135,135,1727708609744,-0.6069336,-0.011291504,0.90618896,-1.34375,-0.640625,-0.328125
136,136,1727708609784,-0.6123047,-0.011779785,0.8986206,-1.703125,-1.15625,-0.234375
137,137,1727708609824,-0.61035156,-0.012023926,0.90252686,-1.390625,-2.0,-0.578125
138,138,1727708609864,-0.6088867,0.007751465,0.8986206,-1.390625,-1.46875,-0.75
139,139,1727708609904,-0.6152344,-0.011047363,0.90545654,-0.984375,-0.78125,-0.4375
140,140,1727708609944,-0.60546875,-0.00982666,0.90008545,-2.09375,-2.671875,-0.203125
141,141,1727708609984,-0.6184082,0.014099121,0.8930054,-3.171875,-1.75,-0.390625
142,142,1727708610024,-0.6179199,0.015319824,0.89886475,-1.484375,-1.078125,-0.515625
143,143,1727708610064,-0.6191406,0.005065918,0.89593506,-0.890625,-0.890625,-0.28125
144,144,1727708610104,-0.6152344,0.0067749023,0.8973999,0.296875,-0.09375,-0.328125
145,145,1727708610144,-0.6225586,0.0067749023,0.8978882,0.3125,0.203125,-0.203125
146,146,1727708610184,-0.6218262,0.003112793,0.89593506,-0.5625,-0.0625,-0.28125
147,147,1727708610224,-0.6159668,0.0038452148,0.89471436,-0.203125,-0.796875,-0.171875
148,148,1727708610264,-0.61572266,0.003112793,0.8920288,-0.359375,-0.078125,-0.125
149,149,1727708610304,-0.6191406,0.0065307617,0.90545654,0.609375,-0.171875,-0.234375
150,150,1727708610344,-0.61694336,0.002380371,0.8944702,-0.71875,0.25,-0.484375
151,151,1727708610384,-0.6218262,0.009216309,0.899353,0.734375,-0.328125,0.125
152,152,1727708610424,-0.6166992,0.005065918,0.89178467,1.046875,1.171875,-0.09375
153,153,1727708610464,-0.6154785,-0.0076293945,0.9035034,-0.125,0.921875,-0.125
154,154,1727708610504,-0.6164551,-0.002746582,0.9032593,1.953125,1.25,-0.390625
155,155,1727708610544,-0.6088867,0.008972168,0.89764404,1.5625,1.15625,-0.125
156,156,1727708610584,-0.6140137,0.0021362305,0.902771,0.640625,1.171875,0.03125
157,157,1727708610624,-0.6064453,-0.002746582,0.9098511,1.28125,1.34375,0.15625
158,158,1727708610664,-0.61035156,-0.009094238,0.90374756,1.03125,0.703125,0.0625
159,159,1727708610704,-0.60839844,-0.011047363,0.9069214,1.296875,0.296875,-0.265625
160,160,1727708610744,-0.59936523,-0.0029907227,0.89764404,0.421875,1.140625,-0.171875
161,161,1727708610784,-0.61157227,-0.011779785,0.9118042,1.0625,1.34375,0.140625
162,162,1727708610824,-0.60791016,-0.013977051,0.90789795,0.6875,-0.140625,-0.140625
163,163,1727708610864,-0.6044922,-0.004211426,0.9064331,1.203125,0.359375,-0.3125
164,164,1727708610904,-0.60498047,-0.012756348,0.90960693,1.21875,0.90625,0.03125
165,165,1727708610944,-0.6008301,-0.0178833,0.9154663,0.453125,1.140625,-0.1875
166,166,1727708610984,-0.60424805,-0.013000488,0.9098511,0.953125,0.15625,0.015625
167,167,1727708611024,-0.59716797,-0.013977051,0.91326904,0.9375,0.765625,-0.046875
168,168,1727708611064,-0.5944824,-0.016906738,0.91741943,0.515625,0.359375,-0.0625
169,169,1727708611104,-0.59716797,-0.014465332,0.9052124,0.109375,0.34375,-0.078125
170,170,1727708611144,-0.5957031,-0.022033691,0.9130249,1.515625,1.046875,-0.1875
171,171,1727708611184,-0.59350586,-0.022521973,0.9076538,0.34375,1.109375,-0.28125
172,172,1727708611224,-0.5966797,-0.019836426,0.93255615,1.828125,-0.9375,0.171875
173,173,1727708611264,-0.5864258,-0.011047363,0.8986206,-0.9375,0.640625,-0.5
174,174,1727708611304,-0.59887695,-0.03643799,0.92645264,0.84375,0.640625,0.046875
175,175,1727708611344,-0.58569336,-0.03375244,0.91693115,2.03125,1.046875,-0.203125
176,176,1727708611384,-0.59643555,-0.018371582,0.914978,0.90625,0.84375,0.015625
177,177,1727708611424,-0.5883789,-0.02935791,0.91741943,0.515625,0.765625,-0.078125
178,178,1727708611464,-0.5834961,-0.036193848,0.91741943,0.796875,0.5,0.03125
179,179,1727708611504,-0.59033203,-0.0335083,0.9220581,0.515625,-0.015625,-0.09375
180,180,1727708611544,-0.58374023,-0.02911377,0.9142456,0.5,0.109375,-0.234375
181,181,1727708611584,-0.5864258,-0.027160645,0.91864014,-0.28125,0.84375,-0.09375
182,182,1727708611624,-0.5949707,-0.035217285,0.9257202,0.625,0.0,-0.234375
183,183,1727708611664,-0.58496094,-0.031311035,0.91448975,0.625,-0.34375,-0.265625
184,184,1727708611704,-0.5871582,-0.027648926,0.920105,-0.0625,0.3125,-0.046875
185,185,1727708611744,-0.59277344,-0.03717041,0.91864014,0.796875,0.546875,-0.234375
186,186,1727708611784,-0.5913086,-0.042297363,0.92523193,0.109375,0.125,-0.140625
187,187,1727708611824,-0.59228516,-0.028381348,0.916687,0.46875,0.109375,-0.140625
188,188,1727708611864,-0.58325195,-0.038635254,0.9227905,0.34375,0.34375,-0.265625
189,189,1727708611904,-0.58813477,-0.039611816,0.9179077,0.296875,0.21875,-0.25
190,190,1727708611944,-0.57910156,-0.03717041,0.92059326,0.140625,0.296875,-0.1875
191,191,1727708611984,-0.5888672,-0.044006348,0.91937256,0.484375,0.3125,-0.109375
192,192,1727708612024,-0.58691406,-0.046447754,0.9257202,0.5625,0.078125,-0.234375
193,193,1727708612064,-0.5864258,-0.03741455,0.91448975,0.328125,0.234375,-0.125
194,194,1727708612104,-0.579834,-0.04083252,0.92645264,0.03125,-0.140625,-0.296875
195,195,1727708612144,-0.5930176,-0.040100098,0.92108154,0.171875,-0.0625,-0.21875
196,196,1727708612184,-0.5793457,-0.04083252,0.9176636,-0.125,-0.15625,-0.203125
197,197,1727708612224,-0.58374023,-0.044006348,0.92596436,-0.5,-0.3125,-0.171875
198,198,1727708612264,-0.5812988,-0.03741455,0.9196167,-0.015625,-0.21875,-0.296875
199,199,1727708612304,-0.5883789,-0.046203613,0.9286499,-0.203125,-0.328125,-0.390625
200,200,1727708612344,-0.58251953,-0.035949707,0.9227905,-0.03125,-0.515625,-0.140625
201,201,1727708612384,-0.58813477,-0.04937744,0.934021,0.4375,-0.453125,-0.28125
202,202,1727708612424,-0.5788574,-0.043518066,0.9225464,-0.75,-0.21875,-0.328125
203,203,1727708612464,-0.5876465,-0.0413208,0.93377686,-0.484375,-0.09375,-0.109375
204,204,1727708612504,-0.5866699,-0.030334473,0.9147339,-1.0625,-1.359375,-0.46875
205,205,1727708612544,-0.5878906,-0.04498291,0.9188843,-1.0,0.0,-0.203125
206,206,1727708612584,-0.5805664,-0.054748535,0.92718506,1.796875,0.421875,-0.3125
207,207,1727708612624,-0.58203125,-0.031311035,0.9237671,-0.703125,-1.328125,-0.328125
208,208,1727708612664,-0.5900879,-0.031555176,0.9196167,-0.609375,-0.265625,-0.03125
209,209,1727708612704,-0.5788574,-0.043029785,0.91815186,-0.3125,-0.34375,-0.21875
210,210,1727708612744,-0.5859375,-0.043518066,0.9191284,-0.84375,-1.15625,-0.328125
211,211,1727708612784,-0.5852051,-0.045959473,0.9191284,-1.140625,-1.8125,-0.5
212,212,1727708612824,-0.58984375,-0.032043457,0.91693115,-1.640625,-0.875,-0.359375
213,213,1727708612864,-0.5876465,-0.03717041,0.9274292,-0.296875,-0.125,-0.4375
214,214,1727708612904,-0.5876465,-0.03643799,0.9215698,-0.15625,-1.515625,-0.296875
215,215,1727708612944,-0.5908203,-0.027404785,0.9081421,-0.96875,-1.03125,-0.375
216,216,1727708612984,-0.5966797,-0.0256958,0.9188843,-0.9375,-0.796875,-0.484375
217,217,1727708613024,-0.5917969,-0.039367676,0.9188843,-1.140625,-1.1875,-0.5
218,218,1727708613064,-0.5944824,-0.031799316,0.9147339,-0.84375,-0.984375,-0.296875
219,219,1727708613104,-0.5949707,-0.024230957,0.9100952,-1.578125,-1.171875,-0.28125
220,220,1727708613144,-0.5996094,-0.029846191,0.91082764,-1.125,-1.34375,-0.546875
221,221,1727708613184,-0.5986328,-0.024963379,0.91400146,-0.484375,-0.5625,-0.359375
222,222,1727708613224,-0.59472656,-0.024719238,0.9159546,-1.46875,-0.84375,-0.25
223,223,1727708613264,-0.60180664,-0.023010254,0.9159546,-1.203125,-1.109375,-0.25
224,224,1727708613304,-0.59765625,-0.024963379,0.90789795,-1.09375,-0.890625,-0.40625
225,225,1727708613344,-0.59814453,-0.023986816,0.9118042,-1.078125,-1.0625,-0.4375
226,226,1727708613384,-0.60839844,-0.0178833,0.9071655,-1.1875,-1.09375,-0.3125
227,227,1727708613424,-0.6081543,-0.019836426,0.9069214,-1.5,-0.703125,-0.1875
228,228,1727708613464,-0.60424805,-0.021057129,0.91400146,-0.5625,-0.421875,-0.15625
229,229,1727708613504,-0.5998535,-0.013977051,0.91204834,-1.421875,-0.203125,-0.5
230,230,1727708613544,-0.6062012,-0.010070801,0.916687,-1.640625,-2.5625,-0.21875
231,231,1727708613584,-0.59814453,-0.010803223,0.88812256,-2.265625,-0.921875,-0.75
232,232,1727708613624,-0.6184082,-0.030334473,0.9135132,-1.234375,-0.796875,-0.421875
233,233,1727708613664,-0.6047363,-0.01373291,0.8991089,-0.75,-0.53125,-0.578125
234,234,1727708613704,-0.6064453,0.001159668,0.8998413,-1.4375,-1.421875,-0.234375
235,235,1727708613744,-0.6062012,-0.01373291,0.91033936,-0.953125,-0.734375,-0.40625
236,236,1727708613784,-0.61157227,-0.008605957,0.9069214,-0.953125,0.09375,-0.578125
237,237,1727708613824,-0.61279297,-0.011047363,0.90838623,-0.484375,-0.828125,-0.34375
238,238,1727708613864,-0.60961914,0.0018920898,0.9035034,-0.6875,-1.09375,-0.5625
239,239,1727708613904,-0.6088867,-0.004699707,0.90448,-1.453125,-0.296875,-0.296875
240,240,1727708613944,-0.60839844,-0.008361816,0.90545654,-0.15625,-0.765625,-0.53125
241,241,1727708613984,-0.6125488,-0.0025024414,0.89959717,-0.765625,-0.90625,-0.46875
242,242,1727708614024,-0.6130371,0.0016479492,0.89959717,-1.046875,-0.796875,-0.328125
243,243,1727708614064,-0.6135254,-0.0044555664,0.9008179,-0.03125,-0.359375,-0.15625
244,244,1727708614104,-0.61279297,-0.0029907227,0.8986206,-0.6875,0.0625,-0.09375
245,245,1727708614144,-0.6130371,-0.0051879883,0.9032593,0.515625,0.0,-0.234375
246,246,1727708614184,-0.61328125,-0.0064086914,0.90301514,0.625,0.59375,-0.078125
247,247,1727708614224,-0.6069336,-0.0044555664,0.90130615,1.0625,0.75,-0.203125
248,248,1727708614264,-0.6101074,-0.004699707,0.8998413,0.828125,0.953125,-0.0625
249,249,1727708614304,-0.6098633,-0.0115356445,0.9047241,1.3125,0.75,-0.296875
250,250,1727708614344,-0.609375,0.0004272461,0.9008179,0.484375,0.90625,-0.03125
251,251,1727708614384,-0.6074219,-0.0095825195,0.9047241,1.015625,0.546875,-0.15625
252,252,1727708614424,-0.5991211,-0.00982666,0.9032593,0.484375,1.40625,-0.203125
253,253,1727708614464,-0.6027832,-0.012268066,0.9249878,1.609375,-0.40625,-0.046875
254,254,1727708614504,-0.6074219,-0.008361816,0.8847046,-1.421875,0.375,-0.359375
255,255,1727708614544,-0.6088867,-0.02911377,0.9179077,1.734375,1.09375,-0.171875
256,256,1727708614584,-0.60131836,-0.02178955,0.9142456,1.46875,1.09375,-0.109375
257,257,1727708614624,-0.5961914,-0.008605957,0.90496826,1.21875,0.703125,-0.203125
258,258,1727708614664,-0.6027832,-0.012268066,0.9118042,0.0625,0.515625,0.140625
259,259,1727708614704,-0.6015625,-0.025939941,0.9086304,0.359375,0.453125,-0.140625
260,260,1727708614744,-0.6015625,-0.02178955,0.9135132,0.765625,-0.125,-0.125
261,261,1727708614784,-0.58496094,-0.017150879,0.9100952,0.453125,0.0,-0.5
262,262,1727708614824,-0.5996094,-0.016662598,0.9147339,0.125,0.828125,0.21875
263,263,1727708614864,-0.592041,-0.02520752,0.91571045,0.8125,0.609375,-0.078125
264,264,1727708614904,-0.5944824,-0.021057129,0.9135132,0.515625,-0.515625,-0.109375
265,265,1727708614944,-0.5974121,-0.018371582,0.9088745,0.65625,0.71875,-0.21875
266,266,1727708614984,-0.59814453,-0.024475098,0.918396,0.734375,0.484375,-0.375
267,267,1727708615024,-0.59594727,-0.02935791,0.91741943,0.453125,0.453125,-0.09375
268,268,1727708615064,-0.59472656,-0.02545166,0.9159546,0.375,0.1875,-0.078125
269,269,1727708615104,-0.58203125,-0.031066895,0.91326904,0.71875,0.5625,-0.296875
270,270,1727708615144,-0.59399414,-0.0256958,0.9191284,1.03125,0.546875,-0.015625
271,271,1727708615184,-0.59033203,-0.028625488,0.918396,0.75,0.671875,-0.09375
272,272,1727708615224,-0.59375,-0.031066895,0.9154663,0.546875,0.28125,-0.046875
273,273,1727708615264,-0.5866699,-0.02960205,0.9215698,0.578125,0.375,-0.359375
274,274,1727708615304,-0.58496094,-0.028869629,0.9225464,0.9375,0.28125,-0.015625
275,275,1727708615344,-0.5866699,-0.031555176,0.91815186,0.09375,0.6875,0.09375
276,276,1727708615384,-0.5878906,-0.035461426,0.918396,0.71875,0.21875,-0.046875
277,277,1727708615424,-0.5864258,-0.034484863,0.9130249,-0.1875,0.8125,-0.1875
278,278,1727708615464,-0.5888672,-0.03302002,0.93377686,1.25,-1.140625,0.125
279,279,1727708615504,-0.59155273,-0.027160645,0.9003296,-1.421875,0.53125,-0.375
280,280,1727708615544,-0.58984375,-0.054260254,0.9335327,1.765625,0.765625,-0.1875
281,281,1727708615584,-0.58251953,-0.043029785,0.91864014,1.3125,0.453125,-0.375
282,282,1727708615624,-0.5876465,-0.029846191,0.9142456,0.015625,0.53125,0.015625
283,283,1727708615664,-0.58251953,-0.03717041,0.92401123,0.5625,0.28125,-0.265625
284,284,1727708615704,-0.58447266,-0.040100098,0.9274292,0.390625,0.015625,0.03125
285,285,1727708615744,-0.58862305,-0.04815674,0.9257202,-0.0625,-0.671875,-0.25
286,286,1727708615784,-0.5761719,-0.035949707,0.9203491,-0.515625,-0.4375,-0.28125
287,287,1727708615824,-0.576416,-0.038635254,0.9269409,0.421875,0.8125,-0.140625
288,288,1727708615864,-0.5805664,-0.051574707,0.92962646,1.1875,0.3125,-0.125
289,289,1727708615904,-0.57592773,-0.047424316,0.918396,-0.078125,-0.640625,-0.25
290,290,1727708615944,-0.58569336,-0.04034424,0.9232788,-0.125,0.09375,-0.296875
291,291,1727708615984,-0.579834,-0.050598145,0.9215698,0.6875,0.46875,-0.46875
292,292,1727708616024,-0.5769043,-0.05230713,0.91619873,-0.265625,-0.28125,-0.09375
293,293,1727708616064,-0.5822754,-0.044006348,0.92108154,-0.09375,-0.015625,-0.234375
294,294,1727708616104,-0.5810547,-0.049621582,0.9281616,0.46875,0.015625,-0.015625
295,295,1727708616144,-0.5788574,-0.046447754,0.9262085,0.25,0.28125,-0.25
296,296,1727708616184,-0.57910156,-0.046691895,0.92840576,0.0625,-0.09375,-0.375
297,297,1727708616224,-0.5744629,-0.046203613,0.9213257,0.453125,-0.015625,-0.234375
298,298,1727708616264,-0.58813477,-0.05206299,0.92523193,-0.015625,-0.171875,-0.203125
299,299,1727708616304,-0.5744629,-0.047424316,0.9257202,-0.890625,-0.53125,-0.296875
300,300,1727708616344,-0.5773926,-0.047912598,0.9266968,-0.109375,-0.796875,-0.34375
301,301,1727708616384,-0.5734863,-0.049865723,0.9215698,-0.484375,-0.34375,-0.375
302,302,1727708616424,-0.57470703,-0.04498291,0.92840576,-0.4375,-0.84375,-0.125
303,303,1727708616464,-0.58032227,-0.04547119,0.91741943,-0.71875,-0.578125,-0.296875
304,304,1727708616504,-0.579834,-0.051818848,0.92401123,-0.03125,-0.875,-0.375
305,305,1727708616544,-0.57910156,-0.04425049,0.92059326,-1.421875,-0.59375,-0.5
306,306,1727708616584,-0.5883789,-0.04547119,0.9384155,0.515625,-2.140625,-0.125
307,307,1727708616624,-0.5847168,-0.02935791,0.8986206,-2.3125,-0.53125,-0.640625
308,308,1727708616664,-0.5859375,-0.05645752,0.93182373,0.46875,-0.390625,-0.40625
309,309,1727708616704,-0.5883789,-0.046203613,0.92596436,-0.109375,-0.71875,-0.4375
310,310,1727708616744,-0.58325195,-0.034240723,0.9176636,-1.25,-1.15625,-0.375
311,311,1727708616784,-0.5905762,-0.04083252,0.9215698,-0.578125,-0.953125,-0.390625
312,312,1727708616824,-0.5871582,-0.046691895,0.92181396,-0.9375,-0.78125,-0.265625
313,313,1727708616864,-0.59277344,-0.04034424,0.9154663,-2.015625,-1.765625,-0.296875
314,314,1727708616904,-0.579834,-0.035705566,0.9142456,-1.6875,-1.984375,-0.65625
315,315,1727708616944,-0.58618164,-0.02960205,0.9137573,-1.84375,-0.765625,-0.171875
316,316,1727708616984,-0.5996094,-0.04058838,0.9213257,-1.875,-1.578125,-0.703125
317,317,1727708617024,-0.59277344,-0.031066895,0.9137573,-0.875,-2.0,-0.875
318,318,1727708617064,-0.60595703,-0.027404785,0.90960693,-1.5,-1.078125,-0.328125
319,319,1727708617104,-0.595459,-0.032287598,0.9135132,-1.140625,-1.3125,-0.625
320,320,1727708617144,-0.59521484,-0.02911377,0.9147339,-1.25,-0.65625,-0.5
321,321,1727708617184,-0.60058594,-0.024963379,0.9105835,-0.796875,-0.671875,-0.390625
322,322,1727708617224,-0.60131836,-0.02178955,0.9088745,-1.203125,-0.78125,-0.15625
323,323,1727708617264,-0.5917969,-0.016662598,0.9093628,-1.953125,-1.234375,-0.546875
324,324,1727708617304,-0.6003418,-0.022277832,0.9093628,-1.484375,-1.296875,-0.53125
325,325,1727708617344,-0.6044922,-0.019836426,0.9086304,-1.21875,-1.140625,-0.703125
326,326,1727708617384,-0.61035156,-0.018859863,0.90789795,-1.390625,-1.234375,-0.421875
327,327,1727708617424,-0.6086426,-0.015197754,0.90179443,-1.71875,-0.921875,-0.5625
328,328,1727708617464,-0.6081543,-0.022766113,0.90618896,-0.3125,-0.9375,-0.640625
329,329,1727708617504,-0.60791016,-0.014953613,0.90374756,-1.609375,-0.203125,-0.5625
330,330,1727708617544,-0.60595703,-0.010314941,0.91156006,-0.890625,-1.65625,-0.078125
331,331,1727708617584,-0.6088867,-0.009338379,0.89178467,-0.828125,-0.453125,-0.578125
332,332,1727708617624,-0.61157227,-0.019836426,0.9154663,-0.46875,0.0625,-0.359375
333,333,1727708617664,-0.6152344,-0.019836426,0.9052124,0.578125,0.046875,-0.1875
334,334,1727708617704,-0.6022949,-0.003479004,0.90301514,0.15625,0.1875,-0.21875
335,335,1727708617744,-0.609375,-0.013000488,0.91082764,0.28125,0.453125,-0.15625
336,336,1727708617784,-0.6062012,-0.016418457,0.9100952,0.5625,0.625,0.109375
337,337,1727708617824,-0.6044922,-0.024230957,0.90301514,0.0625,0.328125,-0.140625
338,338,1727708617864,-0.6047363,-0.010803223,0.9022827,-0.1875,-0.65625,-0.234375
339,339,1727708617904,-0.60424805,-0.0154418945,0.9008179,-0.015625,0.75,-0.109375
340,340,1727708617944,-0.6032715,-0.026672363,0.9159546,0.8125,0.65625,0.09375
341,341,1727708617984,-0.6010742,-0.014953613,0.9057007,0.671875,0.015625,-0.296875
342,342,1727708618024,-0.6086426,-0.016418457,0.91619873,1.234375,0.828125,-0.046875
343,343,1727708618064,-0.5996094,-0.023498535,0.90838623,0.515625,0.3125,-0.296875
344,344,1727708618104,-0.59716797,-0.018615723,0.90423584,0.015625,0.109375,-0.171875
345,345,1727708618144,-0.59814453,-0.023010254,0.9086304,0.875,0.328125,-0.171875
346,346,1727708618184,-0.59594727,-0.02520752,0.9122925,0.15625,0.6875,-0.015625
347,347,1727708618224,-0.6010742,-0.024963379,0.9052124,0.59375,1.03125,-0.03125
348,348,1727708618264,-0.5957031,-0.024963379,0.9105835,0.765625,0.78125,-0.109375
349,349,1727708618304,-0.5966797,-0.021057129,0.90838623,0.859375,0.78125,-0.171875
350,350,1727708618344,-0.59716797,-0.029846191,0.91278076,0.734375,0.296875,-0.171875
351,351,1727708618384,-0.5932617,-0.0256958,0.92108154,0.734375,0.421875,-0.078125
352,352,1727708618424,-0.59277344,-0.031066895,0.9203491,0.21875,0.671875,-0.09375
353,353,1727708618464,-0.5942383,-0.034484863,0.9130249,1.125,0.234375,-0.015625
354,354,1727708618504,-0.59399414,-0.027648926,0.90911865,0.3125,1.09375,-0.375
355,355,1727708618544,-0.5891113,-0.031066895,0.93304443,1.703125,-0.921875,0.296875
356,356,1727708618584,-0.58862305,-0.025939941,0.8920288,-0.953125,0.578125,-0.421875
357,357,1727708618624,-0.5979004,-0.054504395,0.92889404,1.375,0.71875,-0.046875
358,358,1727708618664,-0.5900879,-0.039123535,0.9176636,1.171875,0.75,-0.40625
359,359,1727708618704,-0.5839844,-0.02545166,0.9159546,0.78125,0.640625,-0.140625
360,360,1727708618744,-0.59228516,-0.034973145,0.9232788,0.21875,0.53125,0.046875
361,361,1727708618784,-0.5888672,-0.038879395,0.91571045,0.46875,0.28125,0.0625
362,362,1727708618824,-0.59106445,-0.03643799,0.9225464,0.625,0.265625,-0.125
363,363,1727708618864,-0.5786133,-0.03692627,0.9188843,0.140625,-0.265625,-0.171875
364,364,1727708618904,-0.58862305,-0.036193848,0.92401123,0.28125,0.8125,-0.109375
365,365,1727708618944,-0.58984375,-0.0413208,0.9244995,0.90625,0.734375,0.125
366,366,1727708618984,-0.5749512,-0.046447754,0.92181396,0.4375,-0.15625,-0.390625
367,367,1727708619024,-0.5905762,-0.03253174,0.920105,0.4375,-0.296875,-0.09375
368,368,1727708619064,-0.58154297,-0.047424316,0.9242554,0.53125,0.671875,-0.40625
369,369,1727708619104,-0.57788086,-0.046203613,0.92230225,-0.84375,-0.078125,-0.109375
370,370,1727708619144,-0.58984375,-0.043518066,0.92303467,0.0,-0.140625,-0.15625
371,371,1727708619184,-0.5751953,-0.043762207,0.9196167,1.0,0.484375,-0.0625
372,372,1727708619224,-0.5793457,-0.04449463,0.9196167,0.1875,0.390625,-0.203125
373,373,1727708619264,-0.5786133,-0.04473877,0.92303467,-0.171875,0.015625,-0.15625
374,374,1727708619304,-0.5761719,-0.04815674,0.92718506,0.5,-0.28125,-0.21875
375,375,1727708619344,-0.5822754,-0.043273926,0.91986084,0.125,0.140625,-0.265625
376,376,1727708619384,-0.58154297,-0.046447754,0.9242554,-0.234375,-0.015625,-0.171875
377,377,1727708619424,-0.5839844,-0.03643799,0.9266968,-0.203125,-0.1875,-0.421875
378,378,1727708619464,-0.57177734,-0.04937744,0.9237671,0.359375,-0.046875,-0.125
379,379,1727708619504,-0.5839844,-0.047668457,0.92474365,0.03125,0.265625,-0.234375
380,380,1727708619544,-0.5817871,-0.04083252,0.9257202,-0.21875,-0.34375,-0.3125
381,381,1727708619584,-0.5788574,-0.04473877,0.92767334,0.015625,-0.203125,-0.28125
382,382,1727708619624,-0.5761719,-0.050109863,0.92108154,-0.1875,-0.125,-0.140625
383,383,1727708619664,-0.5793457,-0.047912598,0.91741943,-1.453125,0.25,-0.40625
384,384,1727708619704,-0.5830078,-0.04425049,0.92352295,0.125,-2.015625,-0.234375
385,385,1727708619744,-0.5822754,-0.042297363,0.91082764,-1.625,0.5,-0.40625
386,386,1727708619784,-0.5793457,-0.05670166,0.9364624,1.203125,0.03125,-0.34375
387,387,1727708619824,-0.5830078,-0.044006348,0.92645264,0.03125,-0.609375,-0.578125
388,388,1727708619864,-0.5871582,-0.03692627,0.9215698,-0.578125,-0.40625,-0.046875
389,389,1727708619904,-0.5817871,-0.045715332,0.92352295,-0.296875,-0.421875,-0.1875
390,390,1727708619944,-0.58154297,-0.050109863,0.92059326,-0.8125,-1.03125,-0.296875
391,391,1727708619984,-0.5878906,-0.050598145,0.9232788,-0.828125,-1.578125,-0.46875
392,392,1727708620024,-0.58081055,-0.03643799,0.9147339,-1.28125,-1.0625,-0.578125
393,393,1727708620064,-0.5913086,-0.037902832,0.9262085,-1.28125,-0.578125,-0.234375
394,394,1727708620104,-0.5878906,-0.043029785,0.9196167,-1.65625,-1.4375,-0.90625
395,395,1727708620144,-0.59228516,-0.03717041,0.91741943,-1.3125,-2.171875,-0.6875
396,396,1727708620184,-0.592041,-0.034484863,0.91571045,-1.453125,-1.15625,-0.609375
397,397,1727708620224,-0.59594727,-0.04058838,0.9227905,-0.796875,-1.15625,-0.5
398,398,1727708620264,-0.5859375,-0.030334473,0.9137573,-1.453125,-0.921875,-0.359375
399,399,1727708620304,-0.59350586,-0.032043457,0.9154663,-1.390625,-1.03125,-0.5
400,400,1727708620344,-0.5957031,-0.03326416,0.91619873,-1.265625,-1.140625,-0.46875
401,401,1727708620384,-0.59033203,-0.029846191,0.9179077,-1.265625,-1.203125,-0.4375
402,402,1727708620424,-0.59350586,-0.025939941,0.9113159,-1.40625,-1.328125,-0.390625
403,403,1727708620464,-0.5996094,-0.022766113,0.91156006,-1.671875,-1.015625,-0.5
404,404,1727708620504,-0.5969238,-0.032287598,0.91204834,-0.78125,-1.0,-0.578125
405,405,1727708620544,-0.6027832,-0.028137207,0.9171753,-0.890625,-0.671875,-0.34375
406,406,1727708620584,-0.5944824,-0.014953613,0.9098511,-1.84375,-1.4375,-0.53125
407,407,1727708620624,-0.6035156,-0.02520752,0.9137573,-1.03125,-1.0625,-0.296875
408,408,1727708620664,-0.6027832,-0.015686035,0.9032593,-1.28125,-0.84375,-0.25
409,409,1727708620704,-0.6032715,-0.019348145,0.9164429,-1.234375,-0.515625,-0.359375
410,410,1727708620744,-0.60253906,-0.010559082,0.9081421,-1.203125,-1.78125,-0.234375
411,411,1727708620784,-0.60424805,-0.030578613,0.8961792,-2.71875,-0.75,-0.765625
412,412,1727708620824,-0.6098633,-0.022521973,0.91986084,-0.03125,-0.828125,-0.46875
413,413,1727708620864,-0.6113281,-0.008117676,0.90448,-1.140625,-0.75,-0.5
414,414,1727708620904,-0.6086426,-0.0025024414,0.9093628,-1.71875,-1.03125,-0.28125
415,415,1727708620944,-0.61035156,-0.005432129,0.9022827,-2.546875,-2.140625,-0.328125
416,416,1727708620984,-0.6105957,-0.006652832,0.90008545,-2.703125,-2.046875,-0.75
417,417,1727708621024,-0.6159668,-0.008850098,0.9022827,-1.203125,-2.15625,-0.453125
418,418,1727708621064,-0.6047363,-0.0012817383,0.8991089,-1.0,-0.65625,-0.421875
419,419,1727708621104,-0.61816406,-0.004211426,0.90301514,-1.421875,-0.609375,-0.171875
420,420,1727708621144,-0.61450195,-0.0051879883,0.90057373,0.265625,-0.8125,-0.34375
421,421,1727708621184,-0.6142578,0.0053100586,0.8912964,-0.484375,-0.453125,-0.09375
422,422,1727708621224,-0.6281738,0.0004272461,0.9057007,-1.0,-0.8125,-0.25
423,423,1727708621264,-0.62280273,0.0018920898,0.89642334,-0.546875,-0.75,-0.40625
424,424,1727708621304,-0.6113281,0.00579834,0.8973999,-0.0625,-0.21875,-0.25
425,425,1727708621344,-0.6191406,-0.005432129,0.8986206,-0.390625,-0.078125,-0.140625
426,426,1727708621384,-0.61865234,-0.003967285,0.89959717,-0.1875,0.078125,-0.21875
427,427,1727708621424,-0.6154785,0.0026245117,0.901062,-0.171875,-0.203125,-0.15625
428,428,1727708621464,-0.6140137,0.0038452148,0.89593506,0.015625,-0.125,-0.171875
429,429,1727708621504,-0.6118164,-0.0029907227,0.9071655,0.609375,0.140625,-0.359375
430,430,1727708621544,-0.61816406,-0.0020141602,0.8949585,-0.171875,0.90625,-0.328125
431,431,1727708621584,-0.6147461,0.00018310547,0.9015503,0.578125,0.671875,0.015625
432,432,1727708621624,-0.6166992,0.0040893555,0.89593506,1.234375,0.25,0.0625
433,433,1727708621664,-0.6062012,-0.009338379,0.89349365,-0.5,1.03125,-0.171875
434,434,1727708621704,-0.61279297,-0.010559082,0.9137573,2.671875,1.78125,-0.234375
435,435,1727708621744,-0.6047363,-0.004211426,0.9020386,1.953125,1.65625,-0.015625
436,436,1727708621784,-0.6074219,-0.006652832,0.9032593,1.8125,1.9375,0.234375
437,437,1727708621824,-0.60791016,-0.010559082,0.90911865,1.15625,0.859375,0.015625
438,438,1727708621864,-0.611084,-0.024230957,0.9113159,1.359375,1.078125,-0.25
439,439,1727708621904,-0.60180664,-0.019836426,0.9105835,1.578125,0.765625,-0.0625
440,440,1727708621944,-0.5979004,-0.0134887695,0.90496826,0.140625,0.671875,-0.203125
441,441,1727708621984,-0.6015625,-0.019104004,0.9215698,1.234375,1.328125,-0.0625
442,442,1727708622024,-0.6008301,-0.028625488,0.92352295,1.375,0.4375,-0.125
443,443,1727708622064,-0.60498047,-0.023010254,0.9069214,0.578125,0.15625,0.03125
444,444,1727708622104,-0.6010742,-0.018127441,0.9118042,0.71875,1.171875,-0.25
445,445,1727708622144,-0.5942383,-0.030090332,0.91864014,0.90625,0.75,-0.21875
446,446,1727708622184,-0.5974121,-0.024719238,0.91033936,0.828125,0.734375,-0.09375
447,447,1727708622224,-0.5974121,-0.026184082,0.9137573,1.03125,0.78125,-0.03125
448,448,1727708622264,-0.59521484,-0.028137207,0.9159546,1.09375,0.46875,0.109375
449,449,1727708622304,-0.58325195,-0.031311035,0.9188843,0.25,0.546875,-0.125
450,450,1727708622344,-0.5900879,-0.023742676,0.91400146,-0.046875,-0.28125,-0.171875
451,451,1727708622384,-0.5908203,-0.026184082,0.9203491,0.953125,-0.15625,-0.265625
452,452,1727708622424,-0.5888672,-0.030090332,0.90618896,-0.15625,0.546875,-0.28125
453,453,1727708622464,-0.5883789,-0.02960205,0.92962646,0.921875,-0.359375,0.015625
454,454,1727708622504,-0.59033203,-0.024230957,0.89642334,-1.265625,-0.125,-0.4375
455,455,1727708622544,-0.60009766,-0.040100098,0.9249878,0.71875,1.03125,-0.078125
456,456,1727708622584,-0.58691406,-0.038635254,0.91815186,1.453125,0.640625,-0.3125
457,457,1727708622624,-0.5930176,-0.020324707,0.9171753,0.296875,0.015625,-0.03125
458,458,1727708622664,-0.5876465,-0.03326416,0.9208374,0.59375,0.953125,-0.28125
459,459,1727708622704,-0.5854492,-0.04034424,0.91741943,0.328125,0.28125,0.03125
460,460,1727708622744,-0.5864258,-0.042541504,0.9191284,0.53125,0.28125,-0.234375
461,461,1727708622784,-0.58447266,-0.0413208,0.92108154,0.765625,-0.015625,-0.109375
462,462,1727708622824,-0.58691406,-0.032043457,0.91693115,-0.1875,0.8125,0.09375
463,463,1727708622864,-0.5876465,-0.042297363,0.9279175,0.484375,0.46875,-0.28125
464,464,1727708622904,-0.57543945,-0.042541504,0.92059326,0.796875,-0.3125,-0.203125
465,465,1727708622944,-0.5888672,-0.040100098,0.9196167,-0.171875,-0.21875,-0.125
466,466,1727708622984,-0.5854492,-0.04107666,0.92523193,0.5625,0.796875,-0.390625
467,467,1727708623024,-0.57910156,-0.045715332,0.92108154,0.0625,0.3125,-0.203125
468,468,1727708623064,-0.58569336,-0.03741455,0.920105,0.171875,-0.140625,-0.046875
469,469,1727708623104,-0.5842285,-0.042053223,0.92303467,0.234375,0.28125,-0.203125
470,470,1727708623144,-0.58251953,-0.04156494,0.92767334,0.0625,0.390625,-0.140625
471,471,1727708623184,-0.57373047,-0.044006348,0.9232788,0.234375,0.0625,-0.265625
472,472,1727708623224,-0.58618164,-0.04083252,0.914978,-0.28125,-0.1875,-0.078125
473,473,1727708623264,-0.5830078,-0.042541504,0.92523193,0.109375,0.171875,-0.359375
474,474,1727708623304,-0.57958984,-0.047912598,0.9188843,0.0625,-0.046875,-0.03125
475,475,1727708623344,-0.5800781,-0.04449463,0.9242554,-0.265625,0.015625,-0.375
476,476,1727708623384,-0.5810547,-0.046203613,0.93084717,0.140625,-0.3125,-0.296875
477,477,1727708623424,-0.58374023,-0.04083252,0.91619873,-0.15625,0.0625,-0.21875
478,478,1727708623464,-0.57421875,-0.04425049,0.9227905,-0.25,0.078125,-0.28125
479,479,1727708623504,-0.5871582,-0.045959473,0.92181396,-0.328125,-0.453125,-0.1875
480,480,1727708623544,-0.578125,-0.051574707,0.92645264,0.140625,-0.015625,-0.46875
481,481,1727708623584,-0.5773926,-0.038391113,0.92474365,-0.171875,-0.4375,-0.1875
482,482,1727708623624,-0.5776367,-0.04034424,0.92401123,-0.4375,-0.296875,-0.328125
483,483,1727708623664,-0.58251953,-0.047668457,0.9213257,-0.3125,-0.53125,-0.21875
484,484,1727708623704,-0.5786133,-0.041809082,0.9113159,-1.09375,-0.078125,-0.328125
485,485,1727708623744,-0.5786133,-0.043762207,0.9269409,0.328125,-1.59375,-0.25
486,486,1727708623784,-0.58496094,-0.035705566,0.91326904,-2.09375,0.234375,-0.578125
487,487,1727708623824,-0.5827637,-0.057922363,0.94085693,1.921875,0.203125,-0.40625
488,488,1727708623864,-0.5817871,-0.044006348,0.92303467,0.328125,-0.140625,-0.53125
489,489,1727708623904,-0.5942383,-0.02935791,0.9191284,-0.828125,-0.203125,0.0625
490,490,1727708623944,-0.5769043,-0.04547119,0.92474365,-0.015625,0.046875,-0.15625
491,491,1727708623984,-0.58496094,-0.041809082,0.9237671,-0.75,-0.765625,-0.328125
492,492,1727708624024,-0.5852051,-0.046203613,0.91986084,-0.265625,-1.234375,-0.375
493,493,1727708624064,-0.57788086,-0.04815674,0.9188843,-1.203125,-1.03125,-0.375
494,494,1727708624104,-0.592041,-0.0413208,0.9208374,-0.5,-0.046875,-0.1875
495,495,1727708624144,-0.5834961,-0.046691895,0.9328003,0.296875,-0.875,-0.328125
496,496,1727708624184,-0.5891113,-0.043762207,0.9188843,-0.828125,-1.765625,-0.28125
497,497,1727708624224,-0.5888672,-0.03643799,0.9130249,-1.5,-0.984375,-0.46875
498,498,1727708624264,-0.5866699,-0.047912598,0.92523193,-0.640625,-0.890625,-0.453125
499,499,1727708624304,-0.5942383,-0.039367676,0.920105,-1.34375,-1.25,-0.484375
500,500,1727708624344,-0.5866699,-0.034973145,0.9188843,-0.859375,-0.734375,-0.3125
501,501,1727708624384,-0.5925293,-0.04034424,0.9242554,-0.875,-0.96875,-0.4375
502,502,1727708624424,-0.5876465,-0.03253174,0.91693115,-0.6875,-1.0625,-0.125
503,503,1727708624464,-0.59375,-0.035949707,0.92181396,-0.9375,-0.734375,-0.375
504,504,1727708624504,-0.5917969,-0.028625488,0.91619873,-0.21875,-0.703125,-0.421875
505,505,1727708624544,-0.6020508,-0.035217285,0.92303467,1.171875,0.359375,-0.3125
506,506,1727708624584,-0.58935547,-0.04034424,0.92303467,3.203125,2.1875,-0.125
507,507,1727708624624,-0.5839844,-0.043518066,0.914978,-1.921875,-0.59375,0.28125
508,508,1727708624664,-0.61206055,-0.031311035,0.9159546,-2.609375,-2.171875,-0.8125
509,509,1727708624704,-0.58081055,-0.033996582,0.90789795,-1.1875,-1.59375,-0.640625
510,510,1727708624744,-0.5986328,-0.03302002,0.918396,-2.5,-1.75,-0.53125
511,511,1727708624784,-0.5925293,-0.027160645,0.90789795,-2.09375,-1.1875,-0.6875
512,512,1727708624824,-0.5974121,-0.02154541,0.920105,-1.34375,-2.109375,-0.34375
513,513,1727708624864,-0.5991211,-0.018371582,0.89276123,-2.9375,-0.96875,-0.65625
514,514,1727708624904,-0.59716797,-0.03326416,0.91741943,-1.015625,-1.15625,-0.3125
515,515,1727708624944,-0.607666,-0.020080566,0.9069214,-1.671875,-0.921875,-0.640625
516,516,1727708624984,-0.5966797,-0.010803223,0.90496826,-0.828125,-1.1875,-0.375
517,517,1727708625024,-0.60791016,-0.015197754,0.9110718,-1.5,-1.09375,-0.125
518,518,1727708625064,-0.60253906,-0.02130127,0.9057007,-1.875,-0.953125,-0.40625
519,519,1727708625104,-0.6015625,-0.012756348,0.90911865,-1.34375,-1.390625,-0.625
520,520,1727708625144,-0.6022949,-0.015197754,0.8981323,-1.234375,-1.40625,-0.546875
521,521,1727708625184,-0.6035156,-0.008605957,0.90618896,-1.546875,-0.25,-0.40625
522,522,1727708625224,-0.60913086,-0.020568848,0.9147339,-0.53125,-0.84375,-0.265625
523,523,1727708625264,-0.6040039,-0.008605957,0.9015503,-1.25,-1.390625,-0.40625
524,524,1727708625304,-0.6154785,-0.009338379,0.90301514,-0.796875,-0.953125,-0.15625
525,525,1727708625344,-0.6069336,-0.0064086914,0.9093628,-1.0,-0.609375,-0.375
526,526,1727708625384,-0.61206055,-0.007385254,0.90179443,-0.9375,-0.734375,-0.328125
527,527,1727708625424,-0.6118164,-0.0071411133,0.9035034,-0.5,-0.4375,-0.40625
528,528,1727708625464,-0.61206055,-0.0032348633,0.8956909,-0.78125,-0.5,-0.34375
529,529,1727708625504,-0.6154785,-0.008117676,0.89593506,-0.6875,-0.234375,-0.5625
530,530,1727708625544,-0.6081543,-0.0037231445,0.9022827,0.390625,0.09375,-0.28125
531,531,1727708625584,-0.6113281,-0.007385254,0.90252686,-0.109375,0.078125,-0.25
532,532,1727708625624,-0.6159668,-0.004699707,0.89642334,-0.265625,0.109375,-0.0625
533,533,1727708625664,-0.6140137,-0.00982666,0.9100952,0.859375,-0.109375,-0.34375
534,534,1727708625704,-0.6101074,-0.0005493164,0.8978882,-0.375,0.53125,-0.28125
535,535,1727708625744,-0.6113281,0.00018310547,0.91156006,0.578125,-0.375,0.21875
536,536,1727708625784,-0.6057129,-0.006164551,0.8944702,0.1875,0.3125,-0.34375
537,537,1727708625824,-0.61157227,-0.019592285,0.9093628,0.375,0.703125,-0.21875
538,538,1727708625864,-0.61499023,-0.012023926,0.90740967,2.203125,1.3125,-0.234375
539,539,1727708625904,-0.60131836,-0.0029907227,0.9032593,1.65625,1.1875,0.078125
540,540,1727708625944,-0.60717773,-0.008850098,0.9098511,1.125,1.109375,0.109375
541,541,1727708625984,-0.60180664,-0.0154418945,0.91033936,1.578125,0.90625,0.015625
542,542,1727708626024,-0.6086426,-0.020568848,0.9064331,1.34375,1.109375,0.140625
543,543,1727708626064,-0.60498047,-0.019836426,0.9093628,0.84375,0.40625,-0.171875
544,544,1727708626104,-0.5986328,-0.016174316,0.9086304,0.453125,1.0625,-0.234375
545,545,1727708626144,-0.5957031,-0.026184082,0.920105,1.203125,1.09375,-0.078125
546,546,1727708626184,-0.59643555,-0.02545166,0.9100952,1.328125,0.796875,-0.203125
547,547,1727708626224,-0.5998535,-0.024963379,0.9137573,0.59375,0.375,-0.046875
548,548,1727708626264,-0.6008301,-0.024475098,0.9110718,1.046875,0.90625,-0.34375
549,549,1727708626304,-0.5876465,-0.03253174,0.91400146,1.125,1.0,-0.171875
550,550,1727708626344,-0.5991211,-0.023742676,0.914978,0.703125,0.453125,0.234375
551,551,1727708626384,-0.5961914,-0.032287598,0.9105835,1.09375,0.71875,-0.125
552,552,1727708626424,-0.5944824,-0.035217285,0.9176636,0.78125,0.75,0.03125
553,553,1727708626464,-0.5871582,-0.039611816,0.916687,1.359375,1.359375,-0.265625
554,554,1727708626504,-0.5839844,-0.034973145,0.91986084,0.875,0.484375,-0.09375
555,555,1727708626544,-0.5905762,-0.03302002,0.918396,0.796875,0.5625,-0.15625
556,556,1727708626584,-0.58740234,-0.0491333,0.92230225,1.625,0.546875,-0.0625
557,557,1727708626624,-0.5788574,-0.036193848,0.91986084,0.453125,1.03125,-0.3125
558,558,1727708626664,-0.5876465,-0.042297363,0.9257202,0.8125,0.671875,0.078125
559,559,1727708626704,-0.58618164,-0.035217285,0.90667725,0.1875,-0.15625,-0.09375
560,560,1727708626744,-0.59228516,-0.050842285,0.9281616,-0.09375,1.25,-0.15625
561,561,1727708626784,-0.579834,-0.057922363,0.92645264,2.234375,1.4375,-0.234375
562,562,1727708626824,-0.5773926,-0.034240723,0.9176636,0.859375,0.578125,-0.4375
563,563,1727708626864,-0.5786133,-0.038879395,0.92303467,0.640625,0.734375,-0.078125
564,564,1727708626904,-0.579834,-0.04498291,0.9242554,0.125,0.15625,-0.1875
565,565,1727708626944,-0.5864258,-0.054260254,0.9220581,-0.09375,-0.234375,-0.140625
566,566,1727708626984,-0.5695801,-0.06378174,0.9274292,0.6875,0.03125,-0.46875
567,567,1727708627024,-0.5749512,-0.04473877,0.9203491,-0.59375,0.4375,-0.0625
568,568,1727708627064,-0.5788574,-0.04864502,0.9279175,0.28125,0.90625,-0.078125
569,569,1727708627104,-0.5732422,-0.05255127,0.9320679,1.0625,-0.390625,-0.328125
570,570,1727708627144,-0.5715332,-0.04937744,0.9203491,-0.046875,-0.265625,-0.171875
571,571,1727708627184,-0.58325195,-0.046936035,0.9242554,-0.28125,0.09375,-0.234375
572,572,1727708627224,-0.576416,-0.046936035,0.9244995,0.125,0.25,-0.25
573,573,1727708627264,-0.5773926,-0.054260254,0.9257202,0.40625,-0.078125,-0.296875
574,574,1727708627304,-0.5769043,-0.047668457,0.9244995,0.203125,0.109375,-0.140625
575,575,1727708627344,-0.5673828,-0.05987549,0.9266968,0.328125,0.421875,-0.1875
576,576,1727708627384,-0.578125,-0.051330566,0.9269409,0.4375,0.203125,-0.015625
577,577,1727708627424,-0.5720215,-0.05303955,0.9274292,0.09375,0.375,-0.375
578,578,1727708627464,-0.5749512,-0.051818848,0.92645264,0.265625,-0.078125,-0.28125
579,579,1727708627504,-0.57666016,-0.058654785,0.92401123,-0.0625,-0.046875,-0.234375
580,580,1727708627544,-0.57666016,-0.058654785,0.92181396,-0.09375,-0.328125,-0.203125
581,581,1727708627584,-0.5722656,-0.057678223,0.9279175,-0.046875,0.09375,-0.328125
582,582,1727708627624,-0.57250977,-0.05670166,0.9266968,-0.21875,-0.203125,-0.203125
583,583,1727708627664,-0.58154297,-0.0569458,0.9286499,-0.765625,-0.125,0.09375
584,584,1727708627704,-0.5751953,-0.059143066,0.9237671,-0.15625,-0.25,-0.1875
585,585,1727708627744,-0.56933594,-0.05328369,0.92645264,-0.03125,-0.234375,-0.15625
586,586,1727708627784,-0.5617676,-0.053771973,0.91204834,-0.640625,-0.53125,0.265625
587,587,1727708627824,-0.5786133,-0.054992676,0.94085693,1.34375,-1.46875,0.171875
588,588,1727708627864,-0.5739746,-0.05303955,0.9020386,-2.203125,0.203125,-0.546875
589,589,1727708627904,-0.5744629,-0.074279785,0.9332886,1.125,-0.046875,-0.09375
590,590,1727708627944,-0.57177734,-0.055725098,0.9269409,-0.296875,-0.296875,-0.59375
591,591,1727708627984,-0.5732422,-0.046691895,0.92523193,-0.71875,-0.734375,-0.125
592,592,1727708628024,-0.5734863,-0.047668457,0.9291382,-0.53125,-0.140625,-0.28125
593,593,1727708628064,-0.57299805,-0.066467285,0.9291382,-0.40625,-0.796875,-0.28125
594,594,1727708628104,-0.5773926,-0.06036377,0.932312,-0.8125,-1.34375,-0.28125
595,595,1727708628144,-0.5703125,-0.05621338,0.9208374,-1.25,-1.265625,-0.3125
596,596,1727708628184,-0.5847168,-0.046691895,0.9203491,-1.078125,-0.578125,-0.203125
597,597,1727708628224,-0.57958984,-0.049621582,0.9328003,-0.25,-0.828125,-0.40625
598,598,1727708628264,-0.57470703,-0.050109863,0.9208374,-0.984375,-1.703125,-0.421875
599,599,1727708628304,-0.5871582,-0.046936035,0.92108154,-1.234375,-1.390625,-0.421875
600,600,1727708628344,-0.58154297,-0.047180176,0.92474365,-0.671875,-0.734375,-0.40625
601,601,1727708628384,-0.5822754,-0.051330566,0.9176636,-1.109375,-1.03125,-0.359375
602,602,1727708628424,-0.5839844,-0.046203613,0.9220581,-1.328125,-1.109375,-0.3125
603,603,1727708628464,-0.59375,-0.038146973,0.91937256,-0.796875,-0.921875,-0.1875
604,604,1727708628504,-0.579834,-0.042297363,0.914978,-0.890625,-0.953125,-0.265625
605,605,1727708628544,-0.5839844,-0.045715332,0.918396,-1.59375,-1.1875,-0.296875
606,606,1727708628584,-0.5905762,-0.04058838,0.9135132,-1.328125,-1.109375,-0.5
607,607,1727708628624,-0.5878906,-0.03692627,0.9179077,-0.734375,-0.921875,-0.375
608,608,1727708628664,-0.58935547,-0.0413208,0.91815186,-1.328125,-1.0625,-0.625
609,609,1727708628704,-0.5986328,-0.042053223,0.9105835,-1.515625,-1.171875,-0.3125
610,610,1727708628744,-0.5961914,-0.044006348,0.91986084,-0.71875,-0.8125,-0.40625
611,611,1727708628784,-0.5930176,-0.042541504,0.91937256,-1.171875,-0.34375,-0.4375
612,612,1727708628824,-0.5900879,-0.03643799,0.9244995,-0.5,-1.671875,-0.375
613,613,1727708628864,-0.59521484,-0.03741455,0.89959717,-2.15625,-0.421875,-0.734375
614,614,1727708628904,-0.59814453,-0.03643799,0.92474365,0.4375,-0.609375,-0.203125
615,615,1727708628944,-0.595459,-0.02960205,0.91082764,-0.875,-0.421875,-0.53125
616,616,1727708628984,-0.5908203,-0.020812988,0.91278076,-0.734375,-0.5625,-0.15625
617,617,1727708629024,-0.60424805,-0.03375244,0.9266968,0.28125,0.125,-0.03125
618,618,1727708629064,-0.5913086,-0.028625488,0.9088745,-3.671875,-1.71875,-0.421875
619,619,1727708629104,-0.5996094,-0.032043457,0.9057007,-1.265625,-2.203125,-0.75
620,620,1727708629144,-0.59106445,-0.023254395,0.9113159,-1.421875,-0.953125,-0.640625
621,621,1727708629184,-0.59716797,-0.020568848,0.914978,-2.390625,-0.828125,-0.203125
622,622,1727708629224,-0.60131836,-0.019592285,0.9130249,-0.578125,-0.890625,-0.5625
623,623,1727708629264,-0.59765625,-0.023254395,0.9069214,-0.9375,-0.765625,-0.28125
624,624,1727708629304,-0.6142578,-0.016174316,0.91204834,-0.84375,-0.625,-0.171875
625,625,1727708629344,-0.6057129,-0.020812988,0.9125366,-0.6875,-0.6875,-0.515625
626,626,1727708629384,-0.5932617,-0.018615723,0.9086304,-0.71875,-0.875,-0.359375
627,627,1727708629424,-0.61035156,-0.0154418945,0.9086304,-1.171875,-0.921875,-0.390625
628,628,1727708629464,-0.60424805,-0.019592285,0.9100952,-1.40625,-1.21875,-0.375
629,629,1727708629504,-0.60546875,-0.0134887695,0.9039917,-0.734375,-0.671875,-0.421875
630,630,1727708629544,-0.60302734,-0.0095825195,0.90423584,-0.9375,-0.859375,-0.28125
631,631,1727708629584,-0.61206055,-0.00982666,0.91571045,-0.03125,-0.421875,-0.328125
632,632,1727708629624,-0.61083984,-0.006652832,0.9032593,-1.4375,-0.5,-0.40625
633,633,1727708629664,-0.6154785,-0.016174316,0.9098511,-0.65625,-1.03125,-0.1875
634,634,1727708629704,-0.60498047,-0.010559082,0.8986206,-0.28125,-0.84375,-0.3125
635,635,1727708629744,-0.61206055,-0.022277832,0.899353,-0.6875,0.78125,-0.375
636,636,1727708629784,-0.61694336,-0.012023926,0.9142456,1.421875,0.859375,-0.3125
637,637,1727708629824,-0.6086426,-0.0049438477,0.9022827,-0.296875,0.15625,-0.21875
638,638,1727708629864,-0.6098633,-0.006652832,0.90496826,0.25,-0.265625,-0.109375
639,639,1727708629904,-0.5983887,-0.01373291,0.9076538,0.78125,0.390625,-0.046875
640,640,1727708629944,-0.61328125,-0.014709473,0.9039917,0.09375,0.453125,-0.109375
641,641,1727708629984,-0.60180664,-0.020080566,0.90789795,1.546875,0.546875,-0.328125
642,642,1727708630024,-0.60131836,-0.012268066,0.9022827,0.5,0.875,-0.09375
643,643,1727708630064,-0.60595703,-0.019348145,0.91204834,0.359375,0.71875,0.046875
644,644,1727708630104,-0.6022949,-0.019592285,0.9052124,1.59375,-0.0625,-0.1875
645,645,1727708630144,-0.6020508,-0.017150879,0.90667725,0.328125,0.328125,0.046875
646,646,1727708630184,-0.60546875,-0.018859863,0.91156006,0.84375,0.65625,-0.078125
647,647,1727708630224,-0.5917969,-0.022277832,0.9118042,0.234375,0.59375,-0.328125
648,648,1727708630264,-0.6032715,-0.019592285,0.90911865,0.1875,-0.078125,-0.03125
649,649,1727708630304,-0.59399414,-0.020080566,0.9113159,1.03125,0.34375,-0.25
650,650,1727708630344,-0.6027832,-0.022521973,0.91278076,0.65625,0.671875,0.125
651,651,1727708630384,-0.5979004,-0.026916504,0.91571045,0.203125,0.5,-0.140625
652,652,1727708630424,-0.5930176,-0.0256958,0.90960693,0.609375,0.21875,-0.203125
653,653,1727708630464,-0.5942383,-0.030090332,0.9179077,0.890625,0.671875,-0.140625
654,654,1727708630504,-0.5883789,-0.027648926,0.9135132,0.71875,0.921875,-0.15625
655,655,1727708630544,-0.6022949,-0.024475098,0.9191284,0.734375,0.015625,0.28125
656,656,1727708630584,-0.58496094,-0.022033691,0.9020386,-0.21875,-0.078125,-0.296875
657,657,1727708630624,-0.6020508,-0.03668213,0.91741943,0.03125,1.046875,-0.109375
658,658,1727708630664,-0.59643555,-0.046691895,0.92352295,2.484375,1.203125,-0.171875
659,659,1727708630704,-0.58862305,-0.026428223,0.9154663,0.90625,0.96875,0.03125
660,660,1727708630744,-0.58935547,-0.028869629,0.91693115,0.578125,0.859375,-0.03125
661,661,1727708630784,-0.5932617,-0.035705566,0.91937256,0.6875,0.484375,-0.015625
662,662,1727708630824,-0.5854492,-0.041809082,0.9159546,1.109375,0.5625,0.03125
663,663,1727708630864,-0.5944824,-0.049621582,0.920105,0.828125,-0.140625,-0.25
664,664,1727708630904,-0.5834961,-0.039855957,0.91033936,-0.359375,0.5,-0.046875
665,665,1727708630944,-0.5810547,-0.042297363,0.9244995,0.484375,0.78125,-0.234375
666,666,1727708630984,-0.58740234,-0.046203613,0.91815186,1.03125,-0.03125,-0.1875
667,667,1727708631024,-0.5888672,-0.034240723,0.91033936,0.75,0.1875,-0.25
668,668,1727708631064,-0.58862305,-0.03765869,0.918396,0.203125,0.578125,-0.15625
669,669,1727708631104,-0.5800781,-0.05255127,0.9208374,0.15625,0.3125,-0.4375
670,670,1727708631144,-0.5866699,-0.041809082,0.92474365,0.453125,-0.09375,-0.234375
671,671,1727708631184,-0.579834,-0.04522705,0.918396,0.5625,0.546875,-0.125
672,672,1727708631224,-0.5864258,-0.04888916,0.9208374,0.578125,0.375,0.140625
673,673,1727708631264,-0.5810547,-0.047912598,0.91815186,0.78125,0.96875,-0.171875
674,674,1727708631304,-0.5822754,-0.050109863,0.9281616,0.59375,0.40625,-0.109375
675,675,1727708631344,-0.5786133,-0.039367676,0.92108154,0.421875,0.203125,-0.140625
676,676,1727708631384,-0.57666016,-0.046203613,0.9254761,0.421875,0.40625,-0.125
677,677,1727708631424,-0.5751953,-0.04937744,0.9244995,0.328125,0.109375,-0.125
678,678,1727708631464,-0.5756836,-0.054992676,0.9249878,0.296875,0.390625,-0.125
679,679,1727708631504,-0.5739746,-0.046936035,0.9266968,0.09375,0.40625,-0.265625
680,680,1727708631544,-0.5854492,-0.055725098,0.92523193,0.265625,-0.015625,-0.109375
681,681,1727708631584,-0.57543945,-0.051574707,0.9279175,0.40625,0.1875,-0.21875
682,682,1727708631624,-0.57714844,-0.055725098,0.9225464,0.25,0.5625,0.03125
683,683,1727708631664,-0.5756836,-0.05328369,0.9249878,0.359375,0.328125,-0.078125
684,684,1727708631704,-0.5732422,-0.054504395,0.9281616,1.5625,0.890625,-0.046875
685,685,1727708631744,-0.57421875,-0.05670166,0.9310913,0.59375,0.734375,0.28125
686,686,1727708631784,-0.57470703,-0.062805176,0.9227905,-0.21875,0.453125,-0.53125
687,687,1727708631824,-0.57128906,-0.05255127,0.9406128,1.203125,-0.4375,0.15625
688,688,1727708631864,-0.5720215,-0.04864502,0.9069214,-1.6875,-0.4375,-0.453125
689,689,1727708631904,-0.5830078,-0.070129395,0.9393921,-0.1875,0.21875,-0.375
690,690,1727708631944,-0.56640625,-0.07525635,0.934021,0.984375,-0.140625,-0.453125
691,691,1727708631984,-0.5734863,-0.051574707,0.92645264,-1.59375,-1.609375,-0.140625
692,692,1727708632024,-0.5744629,-0.042053223,0.92596436,-0.96875,-0.59375,-0.296875
693,693,1727708632064,-0.5715332,-0.05670166,0.93621826,-0.03125,-0.234375,-0.078125
694,694,1727708632104,-0.57958984,-0.057922363,0.9279175,-1.1875,-1.03125,-0.25
695,695,1727708632144,-0.5734863,-0.06378174,0.9279175,-0.453125,-1.21875,-0.5
696,696,1727708632184,-0.5812988,-0.054748535,0.9176636,-1.953125,-1.0,-0.375
697,697,1727708632224,-0.57788086,-0.055236816,0.9262085,-0.609375,-0.671875,-0.59375
698,698,1727708632264,-0.57714844,-0.05303955,0.9293823,-0.296875,-1.5,-0.421875
699,699,1727708632304,-0.58081055,-0.05328369,0.9137573,-1.328125,-1.34375,-0.421875
700,700,1727708632344,-0.58813477,-0.050354004,0.9237671,-1.578125,-1.046875,-0.46875
701,701,1727708632384,-0.5830078,-0.046203613,0.9227905,-1.578125,-1.6875,-0.625
702,702,1727708632424,-0.5847168,-0.04888916,0.918396,-1.359375,-1.40625,-0.453125
703,703,1727708632464,-0.5925293,-0.04107666,0.9213257,-1.03125,-1.09375,-0.375
704,704,1727708632504,-0.58374023,-0.04473877,0.9179077,-0.953125,-0.875,-0.328125
705,705,1727708632544,-0.58618164,-0.043273926,0.91448975,-0.609375,-0.796875,-0.296875
706,706,1727708632584,-0.5839844,-0.046691895,0.91693115,-1.046875,-0.984375,-0.328125
707,707,1727708632624,-0.5942383,-0.035217285,0.91619873,-1.640625,-1.4375,-0.359375
708,708,1727708632664,-0.5866699,-0.0335083,0.9125366,-0.984375,-1.234375,-0.421875
709,709,1727708632704,-0.5822754,-0.030090332,0.9142456,-1.09375,-0.921875,-0.328125
710,710,1727708632744,-0.592041,-0.041809082,0.9213257,-1.078125,-0.78125,-0.5
711,711,1727708632784,-0.5917969,-0.031555176,0.9118042,-1.375,-0.875,-0.34375
712,712,1727708632824,-0.5986328,-0.0335083,0.91204834,-1.375,-1.15625,-0.375
713,713,1727708632864,-0.592041,-0.03692627,0.90496826,-1.0625,-0.375,-0.65625
714,714,1727708632904,-0.5932617,-0.0256958,0.92523193,-0.1875,-1.84375,-0.140625
715,715,1727708632944,-0.595459,-0.027893066,0.90374756,-2.125,-0.46875,-0.59375
716,716,1727708632984,-0.6032715,-0.0491333,0.9188843,-0.53125,-0.734375,-0.359375
717,717,1727708633024,-0.6015625,-0.023986816,0.9098511,-0.96875,-0.78125,-0.734375
718,718,1727708633064,-0.5944824,-0.018615723,0.9052124,-1.4375,-1.40625,-0.515625
719,719,1727708633104,-0.60180664,-0.016662598,0.91522217,-1.34375,-1.0625,-0.375
720,720,1727708633144,-0.595459,-0.025939941,0.9098511,-1.0,-0.65625,-0.578125
721,721,1727708633184,-0.6015625,-0.028137207,0.9196167,-1.078125,-1.1875,-0.390625
722,722,1727708633224,-0.59936523,-0.02154541,0.9039917,-1.296875,-1.734375,-0.5
723,723,1727708633264,-0.6088867,-0.015930176,0.90545654,-1.796875,-0.515625,-0.1875
724,724,1727708633304,-0.609375,-0.020080566,0.91400146,-0.703125,-0.6875,-0.3125
725,725,1727708633344,-0.60717773,-0.012268066,0.90252686,-0.921875,-1.390625,-0.390625
726,726,1727708633384,-0.6154785,-0.014953613,0.9022827,-0.75,-0.609375,-0.34375
727,727,1727708633424,-0.60546875,-0.022033691,0.9064331,-0.328125,-0.234375,-0.375
728,728,1727708633464,-0.6098633,-0.020324707,0.90252686,-0.015625,0.140625,-0.28125
729,729,1727708633504,-0.6047363,-0.014465332,0.9057007,0.609375,0.421875,0.015625
730,730,1727708633544,-0.6147461,-0.012756348,0.9015503,0.234375,-0.015625,-0.109375
731,731,1727708633584,-0.60961914,-0.0154418945,0.9057007,0.6875,0.3125,-0.015625
732,732,1727708633624,-0.595459,-0.015930176,0.9113159,0.34375,-0.125,-0.25
733,733,1727708633664,-0.61083984,-0.016174316,0.902771,0.15625,0.859375,-0.21875
734,734,1727708633704,-0.6081543,-0.024719238,0.9069214,1.265625,0.5,-0.140625
735,735,1727708633744,-0.60668945,-0.016418457,0.89886475,0.078125,0.703125,-0.21875
736,736,1727708633784,-0.6057129,-0.016418457,0.92059326,1.78125,-0.609375,0.078125
737,737,1727708633824,-0.5966797,-0.01739502,0.88812256,-0.96875,0.625,-0.296875
738,738,1727708633864,-0.6064453,-0.03643799,0.92181396,1.171875,0.9375,-0.15625
739,739,1727708633904,-0.59716797,-0.0335083,0.91522217,2.125,1.59375,-0.265625
740,740,1727708633944,-0.5944824,-0.01739502,0.9059448,0.59375,0.921875,0.203125
741,741,1727708633984,-0.5974121,-0.023254395,0.9159546,1.3125,0.78125,-0.03125
742,742,1727708634024,-0.5949707,-0.032043457,0.9171753,1.375,1.265625,0.109375
743,743,1727708634064,-0.59765625,-0.035949707,0.9113159,1.1875,0.765625,0.078125
744,744,1727708634104,-0.5944824,-0.03741455,0.9171753,0.875,0.015625,-0.28125
745,745,1727708634144,-0.59155273,-0.03302002,0.9122925,0.21875,1.125,0.09375
746,746,1727708634184,-0.5859375,-0.03643799,0.92352295,0.765625,0.828125,-0.140625
747,747,1727708634224,-0.592041,-0.03741455,0.9142456,0.546875,-0.140625,-0.09375
748,748,1727708634264,-0.59228516,-0.033996582,0.90911865,0.875,0.375,-0.140625
749,749,1727708634304,-0.58569336,-0.035461426,0.9113159,0.609375,0.765625,-0.234375
750,750,1727708634344,-0.5871582,-0.046936035,0.9213257,0.203125,0.28125,0.015625
751,751,1727708634384,-0.5905762,-0.038879395,0.9137573,0.71875,0.421875,-0.09375
752,752,1727708634424,-0.58374023,-0.041809082,0.9220581,1.03125,0.859375,-0.234375
753,753,1727708634464,-0.58496094,-0.046691895,0.92401123,0.765625,0.59375,-0.140625
754,754,1727708634504,-0.5812988,-0.04547119,0.92474365,0.859375,0.609375,-0.171875
755,755,1727708634544,-0.58251953,-0.043029785,0.9244995,0.34375,0.34375,-0.234375
756,756,1727708634584,-0.58154297,-0.04937744,0.9249878,0.71875,0.390625,-0.328125
757,757,1727708634624,-0.58447266,-0.050598145,0.9266968,0.359375,0.5625,0.015625
758,758,1727708634664,-0.58032227,-0.05279541,0.92352295,0.3125,0.8125,-0.234375
759,759,1727708634704,-0.58203125,-0.050842285,0.9179077,-0.609375,0.328125,-0.140625
