,Unnamed: 0,timestamp,accel_x,accel_y,accel_z,gyro_x,gyro_y,gyro_z
0,0,1727978500072,-0.23583984,-0.23614502,0.97039795,-0.203125,-0.09375,-0.484375
1,1,1727978500102,-0.23901367,-0.23492432,0.97406006,0.984375,1.15625,-0.515625
2,2,1727978500147,-0.2290039,-0.24468994,0.9796753,1.578125,1.125,-0.375
3,3,1727978500177,-0.23242188,-0.22711182,0.9682007,1.296875,1.21875,-0.25
4,4,1727978500221,-0.23095703,-0.23931885,0.97772217,1.828125,1.296875,-0.171875
5,5,1727978500267,-0.23291016,-0.24005127,0.9772339,0.125,0.1875,-0.546875
6,6,1727978500296,-0.22485352,-0.24224854,0.9743042,0.71875,0.734375,-0.328125
7,7,1727978500342,-0.2241211,-0.24517822,0.97698975,1.109375,1.203125,-0.15625
8,8,1727978500387,-0.22167969,-0.24737549,0.9869995,1.96875,1.390625,-0.421875
9,9,1727978500417,-0.21899414,-0.2539673,0.96136475,0.578125,0.359375,-0.46875
10,10,1727978500462,-0.21777344,-0.23956299,0.9833374,0.375,0.5,-0.609375
11,11,1727978500507,-0.22875977,-0.24053955,0.96795654,0.5,0.859375,-0.21875
12,12,1727978500537,-0.21655273,-0.2498169,0.9730835,1.390625,1.75,-0.40625
13,13,1727978500582,-0.21264648,-0.26519775,0.97821045,1.59375,1.078125,-0.546875
14,14,1727978500610,-0.21533203,-0.2468872,0.9672241,0.796875,0.71875,-0.1875
15,15,1727978500657,-0.21240234,-0.25152588,0.9725952,0.8125,1.109375,-0.21875
16,16,1727978500700,-0.21606445,-0.26080322,0.9747925,1.625,1.0625,-0.34375
17,17,1727978500732,-0.20581055,-0.25958252,0.9682007,0.578125,0.65625,-0.34375
18,18,1727978500776,-0.20654297,-0.255188,0.9557495,-0.078125,0.421875,-0.53125
19,19,1727978500822,-0.21411133,-0.25836182,0.9684448,1.015625,1.078125,-0.40625
20,20,1727978500852,-0.19482422,-0.26690674,0.9828491,1.234375,0.984375,-0.671875
21,21,1727978500895,-0.20947266,-0.2546997,0.965271,-0.15625,-0.09375,-0.453125
22,22,1727978500943,-0.20654297,-0.25958252,0.97406006,1.109375,0.765625,-0.421875
23,23,1727978500970,-0.20703125,-0.2588501,0.9706421,0.390625,0.828125,-0.328125
24,24,1727978501017,-0.20581055,-0.26226807,0.9735718,1.0,0.578125,-0.390625
25,25,1727978501061,-0.20483398,-0.26275635,0.97332764,0.40625,0.234375,-0.46875
26,26,1727978501092,-0.20703125,-0.26641846,0.9723511,1.0,0.671875,-0.53125
27,27,1727978501137,-0.19946289,-0.26519775,0.96624756,0.671875,0.484375,-0.375
28,28,1727978501167,-0.20214844,-0.2612915,0.9701538,0.375,0.421875,-0.40625
29,29,1727978501211,-0.20263672,-0.26593018,0.96990967,0.703125,0.640625,-0.5
30,30,1727978501272,-0.20043945,-0.26470947,0.9684448,0.421875,0.359375,-0.609375
31,31,1727978501285,-0.19677734,-0.26983643,0.97454834,0.828125,0.671875,-0.34375
32,32,1727978501330,-0.20288086,-0.2703247,0.96917725,0.515625,0.5,-0.40625
33,33,1727978501377,-0.20507812,-0.26861572,0.9816284,1.375,0.953125,-0.484375
34,34,1727978501405,-0.19726562,-0.2715454,0.9623413,0.796875,0.5625,-0.5625
35,35,1727978501452,-0.18774414,-0.26593018,0.99139404,0.296875,0.484375,-0.71875
36,36,1727978501496,-0.19799805,-0.2732544,0.9569702,0.09375,0.03125,-0.390625
37,37,1727978501525,-0.203125,-0.28302002,0.96990967,1.171875,1.28125,-0.515625
38,38,1727978501571,-0.1887207,-0.2930298,0.9747925,2.90625,1.421875,-0.75
39,39,1727978501603,-0.19238281,-0.2720337,0.96795654,0.0,0.3125,-0.1875
40,40,1727978501647,-0.19946289,-0.27642822,0.97406006,0.984375,0.890625,-0.375
41,41,1727978501690,-0.18457031,-0.28277588,0.9713745,0.96875,0.5625,-0.484375
42,42,1727978501725,-0.18920898,-0.28619385,0.9713745,0.9375,0.640625,-0.375
43,43,1727978501765,-0.1887207,-0.28399658,0.9581909,0.328125,0.171875,-0.421875
44,44,1727978501810,-0.19091797,-0.2883911,0.96795654,1.125,0.671875,-0.4375
45,45,1727978501843,-0.1850586,-0.29522705,0.977478,0.90625,0.5,-0.375
46,46,1727978501887,-0.18481445,-0.27911377,0.9633179,-0.046875,-0.1875,-0.328125
47,47,1727978501932,-0.18481445,-0.28009033,0.9647827,0.34375,0.34375,-0.28125
48,48,1727978501963,-0.18603516,-0.28619385,0.9603882,0.265625,0.359375,-0.546875
49,49,1727978502007,-0.17944336,-0.28936768,0.96380615,-0.171875,0.109375,-0.125
50,50,1727978502053,-0.19116211,-0.29400635,0.9684448,-0.015625,-0.015625,-0.296875
51,51,1727978502086,-0.18481445,-0.28253174,0.97332764,0.0,0.046875,-0.375
52,52,1727978502125,-0.18261719,-0.286438,0.96868896,-0.265625,0.109375,-0.40625
53,53,1727978502165,-0.18701172,-0.29058838,0.96258545,0.140625,0.078125,-0.453125
54,54,1727978502200,-0.18554688,-0.28448486,0.96795654,-0.25,-0.1875,-0.5
55,55,1727978502248,-0.18237305,-0.28375244,0.9711304,0.265625,-0.1875,-0.578125
56,56,1727978502281,-0.18725586,-0.28253174,0.97210693,-0.328125,-0.203125,-0.328125
57,57,1727978502325,-0.18847656,-0.2810669,0.9711304,-0.4375,-0.546875,-0.4375
58,58,1727978502365,-0.1928711,-0.28033447,0.97088623,-0.640625,-0.84375,-0.390625
59,59,1727978502405,-0.18310547,-0.28131104,0.96258545,-0.6875,-0.578125,-0.328125
60,60,1727978502440,-0.19091797,-0.28424072,0.9628296,-0.421875,-0.8125,-0.390625
61,61,1727978502485,-0.18579102,-0.27496338,0.9684448,-1.28125,-0.6875,-0.15625
62,62,1727978502524,-0.18896484,-0.27886963,0.9660034,-0.84375,-0.953125,-0.390625
63,63,1727978502562,-0.19848633,-0.27618408,0.9647827,-0.890625,-0.3125,-0.5
64,64,1727978502605,-0.18579102,-0.2913208,0.979187,0.65625,-0.390625,-0.765625
65,65,1727978502637,-0.19604492,-0.2781372,0.96673584,-1.515625,-1.203125,0.046875
66,66,1727978502680,-0.20043945,-0.27178955,0.9694214,-0.515625,-0.703125,-0.296875
67,67,1727978502713,-0.19628906,-0.27496338,0.9696655,-0.5625,-0.765625,-0.515625
68,68,1727978502756,-0.19482422,-0.27374268,0.97406006,-0.71875,-1.015625,-0.234375
69,69,1727978502806,-0.20141602,-0.28082275,0.96698,-1.171875,-1.171875,-0.390625
70,70,1727978502831,-0.20288086,-0.2625122,0.96307373,-1.109375,-0.828125,-0.4375
71,71,1727978502875,-0.19555664,-0.2781372,0.9762573,0.03125,-0.328125,-0.53125
72,72,1727978502920,-0.19946289,-0.2744751,0.965271,-1.109375,-1.421875,-0.484375
73,73,1727978502952,-0.20092773,-0.26568604,0.97210693,-0.9375,-1.0,-0.53125
74,74,1727978502998,-0.20019531,-0.2703247,0.9660034,-0.953125,-0.828125,-0.46875
75,75,1727978503045,-0.19702148,-0.2666626,0.96917725,-1.15625,-1.0,-0.390625
76,76,1727978503071,-0.20654297,-0.2756958,0.9694214,-0.75,-1.09375,-0.421875
77,77,1727978503118,-0.2097168,-0.26983643,0.9682007,-0.953125,-1.0,-0.421875
78,78,1727978503147,-0.21362305,-0.25860596,0.97088623,-0.859375,-0.71875,-0.453125
79,79,1727978503191,-0.20727539,-0.26080322,0.9694214,-0.703125,-0.96875,-0.5625
80,80,1727978503238,-0.21313477,-0.2649536,0.9684448,-0.71875,-1.09375,-0.59375
81,81,1727978503266,-0.21508789,-0.27008057,0.9660034,-1.4375,-1.515625,-0.671875
82,82,1727978503310,-0.20996094,-0.2588501,0.9747925,-0.890625,-1.28125,-0.5625
83,83,1727978503357,-0.21679688,-0.25958252,0.97039795,-1.046875,-1.0625,-0.359375
84,84,1727978503386,-0.21020508,-0.24761963,0.9725952,-1.875,-1.28125,-0.453125
85,85,1727978503432,-0.21899414,-0.25177002,0.96136475,-1.0,-0.90625,-0.421875
86,86,1727978503477,-0.21728516,-0.25860596,0.97576904,-0.515625,-0.28125,-0.5
87,87,1727978503507,-0.21411133,-0.2654419,0.96990967,-0.78125,-0.78125,-0.40625
88,88,1727978503552,-0.22216797,-0.24517822,0.97161865,-1.015625,-0.234375,-0.34375
89,89,1727978503605,-0.2199707,-0.25152588,0.9762573,0.484375,0.484375,-0.515625
90,90,1727978503625,-0.21118164,-0.24884033,0.96990967,-0.359375,-0.390625,-0.53125
91,91,1727978503672,-0.22021484,-0.26153564,0.9762573,-0.46875,-0.328125,-0.5
92,92,1727978503702,-0.22705078,-0.25421143,0.9594116,-1.265625,-0.96875,-0.375
93,93,1727978503747,-0.22680664,-0.24786377,0.97210693,-0.0625,-0.203125,-0.453125
94,94,1727978503791,-0.20996094,-0.25933838,0.9711304,0.140625,0.015625,-0.375
95,95,1727978503822,-0.22094727,-0.24957275,0.9664917,-0.1875,-0.296875,-0.328125
96,96,1727978503866,-0.22094727,-0.24615479,0.9718628,0.6875,0.375,-0.5
97,97,1727978503911,-0.2163086,-0.25152588,0.9684448,0.28125,0.46875,-0.46875
98,98,1727978503941,-0.21313477,-0.25445557,0.97210693,0.640625,0.640625,-0.453125
99,99,1727978503987,-0.2175293,-0.25738525,0.96917725,0.6875,0.90625,-0.234375
100,100,1727978504033,-0.21777344,-0.2559204,0.96917725,0.9375,0.84375,-0.484375
101,101,1727978504062,-0.20507812,-0.25933838,0.97772217,1.59375,1.421875,-0.328125
102,102,1727978504106,-0.21679688,-0.2576294,0.97161865,0.96875,0.859375,-0.234375
103,103,1727978504138,-0.20898438,-0.2617798,0.9640503,-0.4375,0.09375,-0.421875
104,104,1727978504182,-0.21313477,-0.25323486,0.96868896,0.9375,1.296875,-0.328125
105,105,1727978504227,-0.21411133,-0.2564087,0.96746826,1.265625,1.703125,-0.25
106,106,1727978504258,-0.20288086,-0.27471924,0.97283936,1.765625,1.21875,-0.578125
107,107,1727978504301,-0.20947266,-0.2630005,0.9633179,0.296875,0.515625,-0.140625
108,108,1727978504347,-0.20825195,-0.25787354,0.9779663,1.671875,1.578125,-0.328125
109,109,1727978504377,-0.2019043,-0.26812744,0.97576904,1.25,1.171875,-0.40625
110,110,1727978504422,-0.19995117,-0.2703247,0.97088623,0.765625,0.59375,-0.359375
111,111,1727978504467,-0.19824219,-0.27252197,0.97283936,0.6875,0.484375,-0.265625
112,112,1727978504497,-0.2097168,-0.2678833,0.9616089,-0.078125,0.578125,-0.375
113,113,1727978504542,-0.20141602,-0.27178955,0.9723511,1.359375,1.234375,-0.453125
114,114,1727978504587,-0.19995117,-0.26861572,0.9616089,0.640625,0.421875,-0.546875
115,115,1727978504617,-0.20239258,-0.26519775,0.96698,0.6875,0.40625,-0.328125
116,116,1727978504661,-0.19628906,-0.2720337,0.96087646,0.171875,0.40625,-0.53125
117,117,1727978504690,-0.19628906,-0.2720337,0.9660034,0.328125,0.46875,-0.578125
118,118,1727978504736,-0.1977539,-0.270813,0.96698,0.84375,0.5,-0.46875
119,119,1727978504782,-0.19116211,-0.2798462,0.96795654,0.609375,0.5,-0.59375
120,120,1727978504811,-0.1977539,-0.2769165,0.96795654,0.375,0.578125,-0.34375
121,121,1727978504855,-0.19140625,-0.27838135,0.96795654,1.015625,0.40625,-0.515625
122,122,1727978504902,-0.19897461,-0.27886963,0.95843506,0.078125,0.140625,-0.46875
123,123,1727978504932,-0.18603516,-0.27667236,0.9760132,1.03125,0.5625,-0.671875
124,124,1727978504978,-0.19262695,-0.27349854,0.9562378,-0.953125,0.09375,-0.203125
125,125,1727978505027,-0.19238281,-0.28277588,0.96795654,1.28125,1.40625,-0.546875
126,126,1727978505052,-0.18041992,-0.2930298,0.97576904,1.25,0.671875,-0.65625
127,127,1727978505097,-0.19067383,-0.27618408,0.96746826,-0.078125,0.1875,-0.140625
128,128,1727978505142,-0.19555664,-0.2822876,0.9696655,0.421875,0.40625,-0.421875
129,129,1727978505170,-0.18920898,-0.28179932,0.965271,0.28125,0.265625,-0.484375
130,130,1727978505215,-0.18798828,-0.2852173,0.9657593,0.71875,0.5,-0.609375
131,131,1727978505246,-0.1887207,-0.28375244,0.96551514,-0.015625,0.25,-0.3125
132,132,1727978505291,-0.18310547,-0.28570557,0.96258545,0.640625,0.546875,-0.578125
133,133,1727978505337,-0.18164062,-0.28424072,0.97772217,0.9375,0.640625,-0.46875
134,134,1727978505366,-0.18481445,-0.2798462,0.9694214,-0.25,-0.328125,-0.515625
135,135,1727978505412,-0.18676758,-0.284729,0.9711304,0.46875,0.375,-0.359375
136,136,1727978505455,-0.18066406,-0.28082275,0.96551514,-0.296875,-0.09375,-0.484375
137,137,1727978505486,-0.18725586,-0.28863525,0.9657593,0.390625,0.09375,-0.484375
138,138,1727978505532,-0.18554688,-0.2962036,0.965271,0.59375,0.046875,-0.390625
139,139,1727978505577,-0.18945312,-0.28985596,0.9647827,0.15625,0.03125,-0.4375
140,140,1727978505605,-0.18676758,-0.29107666,0.97161865,0.265625,0.3125,-0.40625
141,141,1727978505652,-0.18139648,-0.2793579,0.96868896,-0.078125,-0.09375,-0.703125
142,142,1727978505681,-0.18530273,-0.2871704,0.9660034,0.171875,0.21875,-0.390625
143,143,1727978505728,-0.1784668,-0.2942505,0.965271,0.78125,0.46875,-0.546875
144,144,1727978505771,-0.1796875,-0.28668213,0.9623413,-0.265625,0.09375,-0.28125
145,145,1727978505804,-0.17993164,-0.29693604,0.98602295,0.609375,-0.0625,-0.578125
146,146,1727978505845,-0.18408203,-0.28814697,0.9528198,-0.9375,-0.046875,-0.125
147,147,1727978505892,-0.17651367,-0.2942505,0.96673584,1.671875,1.125,-0.734375
148,148,1727978505925,-0.17797852,-0.30426025,0.9633179,0.78125,0.375,-0.5625
149,149,1727978505965,-0.18481445,-0.28326416,0.9657593,0.28125,0.015625,-0.3125
150,150,1727978506011,-0.17895508,-0.29962158,0.97406006,0.265625,-0.15625,-0.359375
151,151,1727978506044,-0.17773438,-0.2925415,0.9701538,-0.34375,-0.59375,-0.40625
152,152,1727978506086,-0.17822266,-0.2954712,0.9701538,-0.21875,-0.390625,-0.265625
153,153,1727978506133,-0.18041992,-0.2901001,0.9647827,-0.828125,-0.671875,-0.375
154,154,1727978506165,-0.18481445,-0.29034424,0.9664917,-0.125,-0.25,-0.453125
155,155,1727978506207,-0.17919922,-0.29156494,0.97698975,-0.1875,-0.78125,-0.421875
156,156,1727978506237,-0.18701172,-0.28692627,0.96258545,-0.8125,-1.078125,-0.328125
157,157,1727978506282,-0.18334961,-0.28619385,0.96551514,-0.46875,-0.640625,-0.28125
158,158,1727978506327,-0.18237305,-0.28741455,0.96795654,-1.03125,-0.75,-0.3125
159,159,1727978506357,-0.18359375,-0.29180908,0.96795654,-0.59375,-0.9375,-0.515625
160,160,1727978506407,-0.18237305,-0.29034424,0.96795654,-0.984375,-1.140625,-0.28125
161,161,1727978506446,-0.18701172,-0.28546143,0.96624756,-0.859375,-0.890625,-0.46875
162,162,1727978506486,-0.18774414,-0.286438,0.97161865,-0.71875,-0.9375,-0.3125
163,163,1727978506522,-0.19189453,-0.2798462,0.96746826,-1.125,-0.984375,-0.296875
164,164,1727978506566,-0.19555664,-0.28814697,0.9682007,-0.640625,-0.890625,-0.515625
165,165,1727978506604,-0.19458008,-0.28375244,0.9598999,-1.125,-1.171875,-0.34375
166,166,1727978506646,-0.19506836,-0.28179932,0.9660034,-1.0,-1.0625,-0.421875
167,167,1727978506673,-0.19580078,-0.28497314,0.97332764,-0.828125,-1.015625,-0.375
168,168,1727978506725,-0.19628906,-0.28033447,0.9645386,-1.0,-0.953125,-0.53125
169,169,1727978506760,-0.20019531,-0.27545166,0.97528076,-1.109375,-1.21875,-0.53125
170,170,1727978506790,-0.20117188,-0.27349854,0.96258545,-1.5,-1.34375,-0.40625
171,171,1727978506841,-0.19433594,-0.2781372,0.9804077,0.03125,-0.375,-0.4375
172,172,1727978506882,-0.21044922,-0.2642212,0.9606323,-0.78125,-1.09375,-0.328125
173,173,1727978506911,-0.19384766,-0.26226807,1.0001831,-1.125,-1.0625,-0.65625
174,174,1727978506957,-0.20996094,-0.26934814,0.9525757,-1.421875,-0.65625,-0.109375
175,175,1727978507005,-0.21044922,-0.27838135,0.96917725,0.234375,0.53125,-0.5
176,176,1727978507033,-0.19995117,-0.27496338,0.9647827,-0.390625,-0.625,-0.4375
177,177,1727978507087,-0.20605469,-0.2617798,0.96380615,-0.71875,-0.359375,-0.25
178,178,1727978507125,-0.20507812,-0.26641846,0.9762573,-0.265625,-0.078125,-0.5
179,179,1727978507153,-0.20751953,-0.26812744,0.9672241,-1.25,-1.234375,-0.640625
180,180,1727978507204,-0.21118164,-0.2732544,0.9743042,-0.953125,-1.09375,-0.53125
181,181,1727978507227,-0.20629883,-0.27423096,0.9645386,-1.40625,-1.34375,-0.53125
182,182,1727978507272,-0.20532227,-0.26153564,0.97698975,-0.6875,-0.453125,-0.59375
183,183,1727978507322,-0.2133789,-0.27056885,0.9711304,-0.390625,-0.765625,-0.421875
184,184,1727978507347,-0.21923828,-0.25494385,0.965271,-1.328125,-1.046875,-0.578125
185,185,1727978507394,-0.21289062,-0.25811768,0.980896,-0.140625,-0.46875,-0.40625
186,186,1727978507443,-0.21289062,-0.25738525,0.9640503,-1.4375,-0.796875,-0.34375
187,187,1727978507467,-0.21240234,-0.25836182,0.96990967,-0.1875,-0.546875,-0.625
188,188,1727978507513,-0.21289062,-0.25811768,0.97039795,-0.75,-0.875,-0.421875
189,189,1727978507563,-0.2175293,-0.25665283,0.97528076,-0.625,-0.640625,-0.40625
190,190,1727978507587,-0.21728516,-0.26031494,0.9760132,-0.484375,-0.421875,-0.328125
191,191,1727978507632,-0.21411133,-0.25128174,0.9713745,-0.46875,-0.46875,-0.515625
192,192,1727978507662,-0.21826172,-0.25567627,0.9723511,0.203125,0.15625,-0.5
193,193,1727978507707,-0.21777344,-0.25909424,0.97528076,0.671875,0.640625,-0.296875
194,194,1727978507751,-0.2163086,-0.25738525,0.9711304,0.1875,0.265625,-0.484375
195,195,1727978507782,-0.21411133,-0.2612915,0.96795654,-0.015625,-0.125,-0.4375
196,196,1727978507827,-0.21557617,-0.25860596,0.9743042,1.09375,0.859375,-0.453125
197,197,1727978507873,-0.21411133,-0.25982666,0.96087646,0.96875,0.75,-0.203125
198,198,1727978507902,-0.20776367,-0.2576294,1.0072632,0.9375,0.953125,-0.625
199,199,1727978507948,-0.21533203,-0.2539673,0.9525757,0.203125,0.90625,-0.125
200,200,1727978507990,-0.20776367,-0.25811768,0.9718628,1.796875,1.734375,-0.53125
201,201,1727978508022,-0.20239258,-0.26885986,0.9718628,1.484375,1.34375,-0.296875
202,202,1727978508067,-0.21606445,-0.25616455,0.9723511,1.484375,1.46875,-0.140625
203,203,1727978508111,-0.20678711,-0.26763916,0.9755249,1.28125,1.375,-0.3125
204,204,1727978508141,-0.20043945,-0.27178955,0.9701538,0.6875,0.796875,-0.5
205,205,1727978508187,-0.19995117,-0.2769165,0.9713745,1.0,0.9375,-0.5625
206,206,1727978508218,-0.19262695,-0.27911377,0.9684448,0.890625,0.515625,-0.359375
207,207,1727978508262,-0.20385742,-0.2732544,0.9664917,0.6875,0.8125,-0.328125
208,208,1727978508306,-0.19262695,-0.2835083,0.9747925,1.1875,0.75,-0.53125
209,209,1727978508337,-0.19213867,-0.2678833,0.96746826,0.25,0.484375,-0.5
210,210,1727978508383,-0.19921875,-0.2744751,0.977478,0.90625,0.75,-0.484375
211,211,1727978508428,-0.19702148,-0.2793579,0.9598999,-0.140625,0.234375,-0.28125
212,212,1727978508455,-0.19165039,-0.2793579,0.9725952,0.6875,0.59375,-0.40625
213,213,1727978508503,-0.19750977,-0.27886963,0.97283936,0.6875,0.515625,-0.390625
214,214,1727978508546,-0.19946289,-0.27374268,0.9664917,0.5,0.0625,-0.53125
215,215,1727978508578,-0.19311523,-0.2786255,0.96746826,0.40625,0.46875,-0.515625
216,216,1727978508621,-0.18579102,-0.28009033,0.96307373,0.59375,0.015625,-0.46875
217,217,1727978508667,-0.19335938,-0.27667236,0.9657593,0.21875,0.046875,-0.421875
218,218,1727978508697,-0.19189453,-0.28131104,0.97039795,0.953125,0.6875,-0.296875
219,219,1727978508742,-0.19091797,-0.29156494,0.97161865,0.125,0.296875,-0.265625
220,220,1727978508773,-0.19067383,-0.2769165,0.97039795,-0.140625,0.40625,-0.40625
221,221,1727978508818,-0.19238281,-0.29644775,0.97991943,1.28125,0.84375,-0.65625
222,222,1727978508860,-0.19165039,-0.28912354,0.96014404,0.109375,0.328125,-0.3125
223,223,1727978508891,-0.17651367,-0.28131104,0.994812,0.46875,0.53125,-0.546875
224,224,1727978508937,-0.1899414,-0.27838135,0.95892334,-0.84375,0.078125,-0.453125
225,225,1727978508982,-0.18945312,-0.28179932,0.96429443,0.609375,0.890625,-0.6875
226,226,1727978509011,-0.17553711,-0.2954712,0.97210693,1.28125,0.734375,-0.515625
227,227,1727978509057,-0.19042969,-0.2810669,0.97332764,0.0,0.375,-0.203125
228,228,1727978509102,-0.18066406,-0.28570557,0.9723511,0.4375,0.421875,-0.28125
229,229,1727978509133,-0.18237305,-0.28936768,0.9623413,0.015625,0.140625,-0.546875
230,230,1727978509176,-0.18115234,-0.28741455,0.97088623,0.3125,0.125,-0.4375
231,231,1727978509206,-0.17944336,-0.29864502,0.9616089,0.21875,0.03125,-0.390625
232,232,1727978509253,-0.18286133,-0.2871704,0.96551514,0.140625,0.171875,-0.578125
233,233,1727978509297,-0.17944336,-0.29156494,0.9750366,0.671875,0.59375,-0.5625
234,234,1727978509327,-0.17822266,-0.28619385,0.9660034,0.109375,-0.046875,-0.484375
235,235,1727978509370,-0.18530273,-0.28375244,0.9701538,0.21875,0.125,-0.390625
236,236,1727978509417,-0.18115234,-0.28912354,0.96502686,-0.03125,0.046875,-0.53125
237,237,1727978509447,-0.17944336,-0.28912354,0.9706421,-0.078125,0.0625,-0.53125
238,238,1727978509492,-0.17700195,-0.30133057,0.96380615,0.390625,0.21875,-0.34375
239,239,1727978509537,-0.17919922,-0.29449463,0.96795654,0.015625,0.1875,-0.5
240,240,1727978509568,-0.17553711,-0.2901001,0.9682007,0.59375,0.21875,-0.53125
241,241,1727978509610,-0.18017578,-0.2930298,0.9713745,-0.03125,-0.171875,-0.375
242,242,1727978509657,-0.1821289,-0.2930298,0.9672241,-0.03125,-0.28125,-0.40625
243,243,1727978509686,-0.1772461,-0.2925415,0.9682007,-0.3125,-0.234375,-0.59375
244,244,1727978509732,-0.18310547,-0.2949829,0.9701538,0.046875,-0.484375,-0.546875
245,245,1727978509766,-0.18383789,-0.29107666,0.96673584,-0.296875,-0.703125,-0.421875
246,246,1727978509806,-0.1875,-0.28692627,0.9738159,-0.40625,-0.75,-0.390625
247,247,1727978509852,-0.18188477,-0.28863525,0.96136475,-0.625,-0.671875,-0.484375
248,248,1727978509885,-0.18432617,-0.29473877,0.9598999,-0.421875,-0.859375,-0.328125
249,249,1727978509927,-0.1899414,-0.2793579,0.9647827,-1.203125,-0.9375,-0.171875
250,250,1727978509973,-0.19018555,-0.2942505,0.97772217,-0.8125,-1.0625,-0.3125
251,251,1727978510005,-0.1953125,-0.28326416,0.9647827,-1.5625,-0.546875,-0.21875
252,252,1727978510049,-0.18310547,-0.2966919,0.97161865,0.265625,-0.25,-0.46875
253,253,1727978510093,-0.18676758,-0.284729,0.9633179,-1.125,-1.015625,-0.28125
254,254,1727978510128,-0.19433594,-0.2769165,0.9713745,-0.40625,-0.484375,-0.171875
255,255,1727978510166,-0.18359375,-0.286438,0.9672241,-0.328125,-0.484375,-0.375
256,256,1727978510198,-0.18823242,-0.27886963,0.9711304,-1.171875,-1.25,-0.40625
257,257,1727978510244,-0.19116211,-0.2810669,0.9660034,-0.578125,-0.71875,-0.40625
258,258,1727978510288,-0.18847656,-0.27252197,0.95892334,-1.296875,-0.828125,-0.390625
259,259,1727978510318,-0.20214844,-0.28033447,0.9713745,-0.21875,-0.28125,-0.234375
260,260,1727978510365,-0.19018555,-0.27789307,0.97283936,-0.328125,-0.640625,-0.515625
261,261,1727978510406,-0.2055664,-0.2756958,0.96746826,-0.90625,-1.046875,-0.359375
262,262,1727978510438,-0.20410156,-0.2756958,0.9725952,-0.234375,-0.46875,-0.4375
263,263,1727978510487,-0.19873047,-0.2715454,0.96502686,-1.40625,-1.03125,-0.28125
264,264,1727978510526,-0.1977539,-0.27301025,0.9677124,-1.109375,-1.03125,-0.453125
265,265,1727978510566,-0.19458008,-0.270813,0.96746826,-0.828125,-0.84375,-0.625
266,266,1727978510607,-0.20629883,-0.27471924,0.9628296,-0.8125,-0.734375,-0.296875
267,267,1727978510646,-0.20214844,-0.27008057,0.97528076,-0.453125,-0.8125,-0.40625
268,268,1727978510676,-0.20361328,-0.26715088,0.96795654,-0.609375,-0.78125,-0.296875
269,269,1727978510725,-0.20117188,-0.26837158,0.96917725,-0.484375,-1.03125,-0.40625
270,270,1727978510751,-0.20751953,-0.27398682,0.963562,-1.546875,-1.234375,-0.453125
271,271,1727978510796,-0.20605469,-0.26885986,0.9772339,-0.078125,-0.5625,-0.53125
272,272,1727978510840,-0.20776367,-0.26934814,0.96551514,-0.75,-0.515625,-0.265625
273,273,1727978510871,-0.19995117,-0.26055908,0.9677124,-1.25,-1.0,-0.5625
274,274,1727978510918,-0.21484375,-0.2630005,0.961853,-0.578125,-0.515625,-0.1875
275,275,1727978510961,-0.20825195,-0.27130127,0.97576904,0.1875,0.484375,-0.328125
276,276,1727978510991,-0.2043457,-0.2756958,0.96990967,-0.015625,-0.28125,-0.46875
277,277,1727978511038,-0.20678711,-0.2546997,0.9696655,-0.3125,-0.1875,-0.390625
278,278,1727978511081,-0.21435547,-0.25933838,0.9772339,0.5,0.578125,-0.5
279,279,1727978511113,-0.20336914,-0.26690674,0.9743042,0.046875,0.03125,-0.59375
280,280,1727978511156,-0.20898438,-0.2637329,0.9713745,0.15625,0.125,-0.40625
281,281,1727978511206,-0.20141602,-0.26837158,0.9738159,0.203125,0.15625,-0.34375
282,282,1727978511234,-0.20751953,-0.26104736,0.9706421,0.0,0.125,-0.453125
283,283,1727978511278,-0.20410156,-0.270813,0.9767456,0.546875,0.59375,-0.359375
284,284,1727978511306,-0.20507812,-0.26763916,0.96698,0.21875,-0.109375,-0.59375
285,285,1727978511352,-0.20629883,-0.26593018,0.9760132,0.578125,0.421875,-0.4375
286,286,1727978511398,-0.20581055,-0.27252197,0.96698,-0.140625,0.078125,-0.390625
287,287,1727978511427,-0.20385742,-0.26763916,0.96429443,0.375,0.671875,-0.390625
288,288,1727978511471,-0.19604492,-0.27667236,0.96551514,0.8125,0.734375,-0.375
289,289,1727978511517,-0.20361328,-0.26324463,0.9684448,1.109375,0.90625,-0.453125
290,290,1727978511547,-0.19897461,-0.27301025,0.97210693,1.03125,0.875,-0.34375
291,291,1727978511593,-0.19799805,-0.2695923,0.96673584,0.0625,0.375,-0.328125
292,292,1727978511637,-0.20092773,-0.27398682,0.97528076,1.8125,1.625,-0.515625
293,293,1727978511666,-0.1940918,-0.27471924,0.9616089,0.59375,0.75,-0.296875
294,294,1727978511713,-0.18920898,-0.27471924,0.9725952,0.046875,0.40625,-0.359375
295,295,1727978511740,-0.19262695,-0.28009033,0.9660034,0.609375,0.890625,-0.46875
296,296,1727978511786,-0.19677734,-0.27349854,0.96502686,0.78125,1.109375,-0.40625
297,297,1727978511831,-0.18774414,-0.2901001,0.97406006,1.53125,1.15625,-0.578125
298,298,1727978511906,-0.19311523,-0.27960205,0.96698,0.53125,0.734375,-0.265625
299,299,1727978511909,-0.1875,-0.27789307,0.9647827,0.859375,0.8125,-0.25
300,300,1727978511951,-0.18359375,-0.28302002,0.9684448,0.78125,0.609375,-0.40625
301,301,1727978511982,-0.18481445,-0.2876587,0.9664917,0.734375,0.34375,-0.546875
302,302,1727978512028,-0.18554688,-0.2883911,0.97161865,0.59375,0.375,-0.34375
303,303,1727978512071,-0.18139648,-0.28131104,0.9664917,-0.25,0.234375,-0.296875
304,304,1727978512105,-0.18554688,-0.29107666,0.9677124,1.0625,1.171875,-0.5
305,305,1727978512148,-0.17529297,-0.29083252,0.9738159,0.390625,0.046875,-0.546875
306,306,1727978512190,-0.18701172,-0.27764893,0.96698,0.515625,0.359375,-0.484375
307,307,1727978512223,-0.18579102,-0.29180908,0.96746826,0.359375,0.375,-0.46875
308,308,1727978512267,-0.1809082,-0.29522705,0.9603882,0.140625,0.40625,-0.546875
309,309,1727978512298,-0.1875,-0.2859497,0.97161865,0.578125,0.75,-0.234375
310,310,1727978512343,-0.17773438,-0.29034424,0.97161865,0.546875,0.671875,-0.234375
311,311,1727978512386,-0.17944336,-0.2901001,0.96868896,0.6875,0.484375,-0.4375
312,312,1727978512418,-0.18017578,-0.29571533,0.9689331,0.359375,0.125,-0.421875
313,313,1727978512468,-0.17456055,-0.29058838,0.9647827,0.21875,0.03125,-0.515625
314,314,1727978512506,-0.1809082,-0.2937622,0.96698,0.0625,-0.0625,-0.640625
315,315,1727978512545,-0.17822266,-0.29156494,0.9677124,0.359375,0.15625,-0.578125
316,316,1727978512583,-0.1809082,-0.2925415,0.96990967,0.1875,0.03125,-0.5
317,317,1727978512626,-0.18017578,-0.29595947,0.9677124,0.484375,0.25,-0.65625
318,318,1727978512658,-0.17285156,-0.29278564,0.9647827,0.125,-0.15625,-0.484375
319,319,1727978512701,-0.17944336,-0.29766846,0.96795654,0.171875,-0.0625,-0.515625
320,320,1727978512733,-0.17675781,-0.29229736,0.9696655,0.546875,0.359375,-0.359375
321,321,1727978512776,-0.18164062,-0.29937744,0.961853,-0.390625,-0.296875,-0.5
322,322,1727978512825,-0.17480469,-0.29205322,0.9611206,-0.109375,0.375,-0.40625
323,323,1727978512852,-0.17675781,-0.29693604,0.9696655,0.125,-0.234375,-0.28125
324,324,1727978512898,-0.17700195,-0.29571533,0.965271,-0.328125,0.25,-0.265625
325,325,1727978512943,-0.17163086,-0.29962158,0.9706421,1.765625,0.96875,-0.65625
326,326,1727978512973,-0.17700195,-0.29351807,0.96990967,0.140625,0.3125,-0.328125
327,327,1727978513018,-0.18334961,-0.28936768,0.9660034,0.453125,0.265625,-0.28125
328,328,1727978513065,-0.17407227,-0.3032837,0.97528076,0.234375,-0.015625,-0.609375
329,329,1727978513092,-0.17626953,-0.2913208,0.96429443,-0.484375,-0.46875,-0.609375
330,330,1727978513143,-0.17602539,-0.2991333,0.96551514,0.21875,0.078125,-0.5
331,331,1727978513183,-0.17285156,-0.29766846,0.96746826,-0.65625,-0.453125,-0.53125
332,332,1727978513212,-0.17626953,-0.3015747,0.96746826,0.25,0.03125,-0.46875
333,333,1727978513258,-0.16967773,-0.29962158,0.96917725,0.09375,-0.421875,-0.34375
334,334,1727978513287,-0.1772461,-0.29327393,0.96698,-0.359375,-0.6875,-0.234375
335,335,1727978513333,-0.1743164,-0.29840088,0.9718628,-0.296875,-0.625,-0.328125
336,336,1727978513378,-0.17553711,-0.29644775,0.9682007,-0.875,-0.90625,-0.328125
337,337,1727978513407,-0.17626953,-0.29693604,0.96624756,-0.5,-0.78125,-0.34375
338,338,1727978513453,-0.18066406,-0.29156494,0.9633179,-0.5625,-0.96875,-0.40625
339,339,1727978513498,-0.17651367,-0.2949829,0.9682007,-0.546875,-0.90625,-0.234375
340,340,1727978513527,-0.17797852,-0.29034424,0.96502686,-0.53125,-0.765625,-0.421875
341,341,1727978513570,-0.18457031,-0.29278564,0.9684448,-0.6875,-0.796875,-0.453125
342,342,1727978513618,-0.18261719,-0.2888794,0.96795654,-0.625,-0.859375,-0.421875
343,343,1727978513648,-0.18041992,-0.29156494,0.96917725,-0.671875,-0.859375,-0.328125
344,344,1727978513693,-0.18579102,-0.28985596,0.96551514,-0.59375,-0.859375,-0.25
345,345,1727978513738,-0.18408203,-0.28302002,0.96698,-1.0,-0.953125,-0.484375
346,346,1727978513767,-0.1821289,-0.2925415,0.9718628,-0.734375,-0.921875,-0.421875
347,347,1727978513813,-0.1887207,-0.28863525,0.9689331,-1.125,-1.1875,-0.4375
348,348,1727978513843,-0.1862793,-0.28424072,0.9738159,-0.609375,-0.71875,-0.59375
349,349,1727978513886,-0.18798828,-0.28790283,0.9579468,-0.90625,-0.921875,-0.375
350,350,1727978513932,-0.18798828,-0.27545166,0.9862671,-1.203125,-1.234375,-0.640625
351,351,1727978513962,-0.19750977,-0.2805786,0.9545288,-1.375,-0.8125,-0.28125
352,352,1727978514006,-0.20214844,-0.28814697,0.9701538,-0.140625,0.28125,-0.484375
353,353,1727978514053,-0.18896484,-0.2888794,0.9684448,-0.1875,-0.578125,-0.484375
354,354,1727978514082,-0.1953125,-0.27252197,0.9647827,-1.25,-0.8125,-0.21875
355,355,1727978514128,-0.19799805,-0.27618408,0.97161865,-0.328125,-0.65625,-0.390625
356,356,1727978514171,-0.19848633,-0.27911377,0.9623413,-1.03125,-0.953125,-0.59375
357,357,1727978514201,-0.1940918,-0.28448486,0.97576904,-0.546875,-1.046875,-0.421875
358,358,1727978514246,-0.19799805,-0.2774048,0.961853,-1.59375,-1.59375,-0.28125
359,359,1727978514275,-0.20727539,-0.27227783,0.965271,-1.234375,-0.65625,-0.5
360,360,1727978514322,-0.1965332,-0.27545166,0.9804077,0.09375,-0.3125,-0.5
361,361,1727978514368,-0.21166992,-0.27008057,0.96380615,-1.53125,-1.46875,-0.296875
362,362,1727978514396,-0.20678711,-0.2637329,0.9723511,-0.546875,-0.71875,-0.59375
363,363,1727978514443,-0.2006836,-0.27056885,0.9645386,-1.125,-0.984375,-0.46875
364,364,1727978514487,-0.20800781,-0.26763916,0.96990967,-0.703125,-0.6875,-0.546875
365,365,1727978514517,-0.20605469,-0.269104,0.9723511,-0.390625,-0.4375,-0.453125
366,366,1727978514564,-0.203125,-0.26934814,0.97283936,-0.21875,-0.140625,-0.4375
367,367,1727978514607,-0.20800781,-0.26861572,0.9684448,-0.53125,-0.390625,-0.359375
368,368,1727978514637,-0.20410156,-0.269104,0.9730835,-0.203125,-0.484375,-0.578125
369,369,1727978514682,-0.20581055,-0.26593018,0.9701538,-0.5625,-0.671875,-0.46875
370,370,1727978514728,-0.20922852,-0.27008057,0.9696655,-0.578125,-0.3125,-0.34375
371,371,1727978514758,-0.20654297,-0.26617432,0.96698,0.09375,-0.15625,-0.421875
372,372,1727978514803,-0.21166992,-0.26763916,0.96917725,0.140625,-0.0625,-0.4375
373,373,1727978514833,-0.2084961,-0.26641846,0.9623413,0.40625,0.265625,-0.484375
374,374,1727978514877,-0.20776367,-0.2642212,0.97332764,0.140625,-0.015625,-0.4375
375,375,1727978514921,-0.20751953,-0.2727661,0.9760132,0.640625,1.046875,-0.609375
376,376,1727978514953,-0.20629883,-0.25909424,0.95648193,-0.140625,1.171875,-0.171875
377,377,1727978514996,-0.19726562,-0.27667236,0.9767456,1.96875,2.078125,-0.390625
378,378,1727978515042,-0.19677734,-0.27398682,0.9628296,1.015625,1.171875,-0.109375
379,379,1727978515071,-0.20361328,-0.26641846,0.97088623,1.328125,1.234375,-0.171875
380,380,1727978515118,-0.1928711,-0.2781372,0.97528076,1.546875,1.421875,-0.4375
381,381,1727978515160,-0.1887207,-0.27642822,0.96917725,0.828125,0.78125,-0.40625
382,382,1727978515191,-0.19897461,-0.28082275,0.9713745,0.8125,0.953125,-0.140625
383,383,1727978515237,-0.1940918,-0.28277588,0.95892334,0.34375,0.484375,-0.296875
384,384,1727978515268,-0.19580078,-0.28033447,0.9725952,1.21875,0.984375,-0.484375
385,385,1727978515313,-0.18896484,-0.28570557,0.97039795,0.96875,0.765625,-0.46875
386,386,1727978515357,-0.19165039,-0.2798462,0.96209717,0.59375,0.515625,-0.28125
387,387,1727978515389,-0.18579102,-0.28424072,0.9701538,0.65625,0.4375,-0.359375
388,388,1727978515431,-0.18676758,-0.2786255,0.9623413,-0.09375,0.265625,-0.546875
389,389,1727978515477,-0.18530273,-0.2798462,0.96258545,0.796875,0.578125,-0.515625
390,390,1727978515509,-0.18457031,-0.28033447,0.96429443,0.515625,0.4375,-0.484375
391,391,1727978515550,-0.18798828,-0.28253174,0.96917725,0.421875,0.453125,-0.46875
392,392,1727978515598,-0.18481445,-0.28961182,0.96795654,0.59375,0.515625,-0.34375
393,393,1727978515626,-0.18383789,-0.286438,0.97039795,0.265625,0.203125,-0.4375
394,394,1727978515671,-0.18457031,-0.29400635,0.96673584,0.59375,0.25,-0.359375
395,395,1727978515749,-0.18579102,-0.28277588,0.961853,-0.265625,0.109375,-0.28125
396,396,1727978515759,-0.18334961,-0.29351807,0.9723511,1.0625,0.75,-0.5625
397,397,1727978515791,-0.18286133,-0.28790283,0.963562,-0.03125,0.328125,-0.25
398,398,1727978515819,-0.17504883,-0.284729,0.9862671,0.296875,0.03125,-0.609375
399,399,1727978515867,-0.18579102,-0.286438,0.9574585,-0.484375,-0.078125,-0.328125
400,400,1727978515911,-0.18896484,-0.2925415,0.96698,0.734375,0.84375,-0.53125
401,401,1727978515943,-0.17041016,-0.3032837,0.9682007,1.265625,0.546875,-0.5625
402,402,1727978515986,-0.18237305,-0.28814697,0.9623413,-0.40625,0.0,-0.21875
403,403,1727978516032,-0.1809082,-0.28961182,0.9735718,0.53125,0.453125,-0.515625
404,404,1727978516066,-0.17919922,-0.2942505,0.96868896,0.1875,0.203125,-0.625
405,405,1727978516105,-0.17358398,-0.2859497,0.9640503,0.0625,-0.28125,-0.375
406,406,1727978516153,-0.1772461,-0.29229736,0.97332764,-0.015625,0.0625,-0.453125
407,407,1727978516189,-0.18017578,-0.28619385,0.9689331,-0.3125,-0.171875,-0.625
408,408,1727978516230,-0.17407227,-0.29986572,0.9633179,0.515625,0.484375,-0.375
409,409,1727978516270,-0.17871094,-0.2913208,0.9730835,0.265625,-0.046875,-0.46875
410,410,1727978516304,-0.18286133,-0.2871704,0.9623413,-0.234375,-0.40625,-0.4375
411,411,1727978516347,-0.17456055,-0.2991333,0.9684448,-0.234375,-0.125,-0.5
412,412,1727978516378,-0.18017578,-0.2913208,0.96917725,-0.03125,-0.078125,-0.453125
413,413,1727978516433,-0.18334961,-0.29400635,0.96698,0.0,-0.140625,-0.515625
414,414,1727978516465,-0.17578125,-0.29327393,0.97039795,0.375,0.078125,-0.5625
415,415,1727978516497,-0.17578125,-0.2871704,0.9701538,0.015625,0.40625,-0.3125
416,416,1727978516540,-0.1772461,-0.29962158,0.96990967,0.171875,0.046875,-0.46875
417,417,1727978516585,-0.18066406,-0.29351807,0.9684448,-0.03125,-0.1875,-0.53125
418,418,1727978516618,-0.17773438,-0.2925415,0.9696655,-0.109375,-0.28125,-0.46875
419,419,1727978516667,-0.17285156,-0.29400635,0.9645386,-0.3125,-0.21875,-0.171875
420,420,1727978516706,-0.17895508,-0.3008423,0.96429443,-0.3125,-0.703125,-0.40625
421,421,1727978516738,-0.17749023,-0.28741455,0.9701538,-0.625,-1.1875,-0.375
422,422,1727978516781,-0.17919922,-0.2979126,0.9730835,-1.21875,-1.8125,-0.46875
423,423,1727978516813,-0.18652344,-0.27349854,0.9545288,-2.015625,-1.078125,-0.359375
424,424,1727978516864,-0.18286133,-0.29766846,0.9701538,0.5,0.3125,-0.5
425,425,1727978516922,-0.18139648,-0.29449463,0.95892334,-0.515625,-0.84375,-0.296875
426,426,1727978516931,-0.19091797,-0.2786255,0.9640503,-0.4375,-0.546875,-0.265625
427,427,1727978516977,-0.19091797,-0.2913208,0.9779663,0.171875,-0.3125,-0.3125
428,428,1727978517020,-0.18066406,-0.28790283,0.9660034,-1.28125,-1.296875,-0.421875
429,429,1727978517053,-0.18676758,-0.28741455,0.9743042,-0.71875,-0.984375,-0.453125
430,430,1727978517100,-0.18774414,-0.28790283,0.9503784,-1.796875,-1.484375,-0.453125
431,431,1727978517144,-0.19677734,-0.28741455,0.9664917,-0.28125,-0.59375,-0.4375
432,432,1727978517171,-0.18310547,-0.2822876,0.9701538,-0.5,-0.671875,-0.375
433,433,1727978517219,-0.19067383,-0.28082275,0.9611206,-0.875,-1.1875,-0.5625
434,434,1727978517261,-0.19238281,-0.28277588,0.9747925,-0.234375,-0.390625,-0.453125
435,435,1727978517292,-0.19555664,-0.28204346,0.9647827,-1.046875,-1.125,-0.40625
436,436,1727978517337,-0.19165039,-0.28204346,0.965271,-0.859375,-0.953125,-0.4375
437,437,1727978517367,-0.19726562,-0.2786255,0.96624756,-0.296875,-0.53125,-0.375
438,438,1727978517413,-0.19970703,-0.27764893,0.97161865,-0.65625,-0.4375,-0.265625
439,439,1727978517472,-0.19677734,-0.27398682,0.96698,-0.5625,-0.515625,-0.5625
440,440,1727978517486,-0.19506836,-0.2769165,0.97161865,-0.84375,-0.6875,-0.515625
441,441,1727978517532,-0.19726562,-0.27471924,0.9789429,0.171875,-0.328125,-0.46875
442,442,1727978517585,-0.19897461,-0.2744751,0.961853,-0.90625,-0.796875,-0.4375
443,443,1727978517605,-0.1928711,-0.27520752,0.9633179,-0.9375,-0.71875,-0.578125
444,444,1727978517653,-0.20458984,-0.27398682,0.97210693,-0.40625,-0.234375,-0.359375
445,445,1727978517705,-0.20141602,-0.27252197,0.9647827,-0.109375,0.359375,-0.359375
446,446,1727978517727,-0.19091797,-0.2798462,0.9723511,0.265625,0.125,-0.453125
447,447,1727978517772,-0.20703125,-0.26934814,0.96917725,-0.546875,-0.21875,-0.28125
448,448,1727978517802,-0.20019531,-0.26885986,0.9677124,0.203125,0.078125,-0.34375
449,449,1727978517847,-0.19873047,-0.27545166,0.9672241,-0.078125,0.046875,-0.359375
450,450,1727978517893,-0.19506836,-0.2744751,0.9694214,0.0625,0.078125,-0.546875
451,451,1727978517921,-0.1953125,-0.28082275,0.9735718,0.203125,0.09375,-0.34375
452,452,1727978517966,-0.19482422,-0.2727661,0.96502686,-0.5,0.0625,-0.5
453,453,1727978518013,-0.19311523,-0.2822876,0.97650146,0.9375,0.9375,-0.578125
454,454,1727978518040,-0.19750977,-0.2793579,0.9677124,0.375,0.171875,-0.375
455,455,1727978518087,-0.20166016,-0.26690674,0.96868896,0.71875,0.765625,-0.375
456,456,1727978518132,-0.19140625,-0.28179932,0.97161865,0.9375,1.015625,-0.390625
457,457,1727978518161,-0.19628906,-0.2756958,0.9647827,0.03125,0.28125,-0.40625
458,458,1727978518207,-0.1953125,-0.28204346,0.96917725,0.71875,0.46875,-0.640625
459,459,1727978518282,-0.19042969,-0.28424072,0.9725952,0.8125,0.671875,-0.296875
460,460,1727978518290,-0.19165039,-0.27789307,0.9684448,0.0,0.40625,-0.359375
461,461,1727978518326,-0.1875,-0.27520752,0.97991943,1.203125,0.8125,-0.359375
462,462,1727978518357,-0.19311523,-0.2835083,0.9603882,0.296875,0.46875,-0.234375
463,463,1727978518402,-0.18383789,-0.2859497,0.9684448,0.015625,0.328125,-0.515625
464,464,1727978518446,-0.19042969,-0.28570557,0.97088623,0.78125,0.921875,-0.53125
465,465,1727978518477,-0.19238281,-0.27593994,0.96136475,0.171875,0.984375,-0.28125
466,466,1727978518521,-0.18066406,-0.2913208,0.97161865,1.546875,1.28125,-0.75
467,467,1727978518566,-0.1821289,-0.28741455,0.9660034,0.453125,0.484375,-0.265625
468,468,1727978518597,-0.19238281,-0.2774048,0.96917725,0.96875,0.765625,-0.234375
469,469,1727978518642,-0.17895508,-0.2876587,0.96868896,0.28125,0.359375,-0.546875
470,470,1727978518686,-0.18115234,-0.28814697,0.96551514,0.28125,0.328125,-0.53125
471,471,1727978518718,-0.17944336,-0.30133057,0.965271,0.625,0.84375,-0.484375
472,472,1727978518762,-0.1850586,-0.29083252,0.9616089,-0.296875,0.078125,-0.34375
473,473,1727978518809,-0.18286133,-0.29473877,0.9640503,0.859375,0.96875,-0.53125
474,474,1727978518837,-0.16992188,-0.29400635,0.9772339,0.9375,0.265625,-0.59375
475,475,1727978518882,-0.17919922,-0.2925415,0.96380615,0.265625,0.171875,-0.5
476,476,1727978518913,-0.17773438,-0.2966919,0.96502686,0.5625,0.28125,-0.375
477,477,1727978518956,-0.17797852,-0.29180908,0.96551514,-0.046875,0.21875,-0.359375
478,478,1727978519002,-0.17773438,-0.29278564,0.9606323,0.609375,0.328125,-0.390625
479,479,1727978519032,-0.17407227,-0.29644775,0.9682007,0.5625,0.234375,-0.34375
480,480,1727978519076,-0.17504883,-0.28985596,0.97039795,0.046875,-0.046875,-0.453125
481,481,1727978519121,-0.17260742,-0.29571533,0.96990967,-0.171875,-1.1875,-0.515625
482,482,1727978519152,-0.18310547,-0.28863525,0.96795654,-0.03125,-0.9375,-0.40625
483,483,1727978519197,-0.17919922,-0.28619385,0.9701538,-0.234375,-0.625,-0.4375
484,484,1727978519241,-0.17871094,-0.29815674,0.96746826,0.1875,0.03125,-0.578125
485,485,1727978519273,-0.1772461,-0.29718018,0.97210693,-0.09375,-0.03125,-0.59375
486,486,1727978519318,-0.17822266,-0.29571533,0.9682007,-0.078125,0.25,-0.359375
487,487,1727978519347,-0.17822266,-0.29473877,0.96429443,0.109375,0.21875,-0.328125
488,488,1727978519394,-0.17944336,-0.2949829,0.9664917,-0.109375,0.140625,-0.421875
489,489,1727978519435,-0.1809082,-0.29815674,0.96502686,-0.078125,0.0,-0.4375
490,490,1727978519467,-0.17553711,-0.29058838,0.9689331,0.0,0.234375,-0.46875
491,491,1727978519513,-0.17700195,-0.3015747,0.9603882,0.0625,0.1875,-0.375
492,492,1727978519558,-0.17163086,-0.29156494,0.96307373,-0.359375,0.3125,-0.25
493,493,1727978519587,-0.17529297,-0.29864502,0.96258545,-0.578125,-0.390625,-0.40625
494,494,1727978519633,-0.18115234,-0.29718018,0.96868896,-0.15625,-0.078125,-0.40625
495,495,1727978519676,-0.17407227,-0.30645752,0.9760132,0.640625,-0.796875,-0.6875
496,496,1727978519705,-0.17993164,-0.2913208,0.96258545,-0.453125,-0.78125,0.015625
497,497,1727978519751,-0.19067383,-0.284729,0.96307373,-0.328125,-0.703125,-0.3125
498,498,1727978519827,-0.17456055,-0.29522705,0.97039795,-0.109375,-0.203125,-0.578125
499,499,1727978519831,-0.17407227,-0.29718018,0.9603882,-0.71875,-0.65625,-0.375
500,500,1727978519872,-0.18066406,-0.2954712,0.9628296,-0.5625,-0.515625,-0.359375
501,501,1727978519907,-0.1821289,-0.28668213,0.9694214,-0.6875,-0.328125,-0.296875
502,502,1727978519945,-0.18139648,-0.29327393,0.9672241,-0.140625,0.140625,-0.453125
503,503,1727978519992,-0.1809082,-0.29742432,0.97161865,-0.125,-0.28125,-0.5
504,504,1727978520025,-0.18237305,-0.284729,0.96429443,-0.84375,-0.609375,-0.234375
505,505,1727978520065,-0.18603516,-0.29107666,0.9694214,-0.265625,-0.28125,-0.375
506,506,1727978520112,-0.18261719,-0.29449463,0.965271,-1.125,-0.796875,-0.46875
507,507,1727978520145,-0.18481445,-0.28668213,0.96624756,-0.53125,-0.609375,-0.375
508,508,1727978520186,-0.18554688,-0.2930298,0.96624756,-0.265625,-0.78125,-0.546875
509,509,1727978520234,-0.18286133,-0.286438,0.9682007,-0.875,-0.84375,-0.3125
510,510,1727978520260,-0.18481445,-0.29351807,0.97406006,-0.921875,-1.078125,-0.25
511,511,1727978520305,-0.1875,-0.28131104,0.9672241,-0.984375,-1.046875,-0.5
512,512,1727978520336,-0.18334961,-0.29107666,0.9701538,-0.78125,-0.84375,-0.4375
513,513,1727978520383,-0.19677734,-0.28985596,0.9660034,-0.78125,-0.921875,-0.5
514,514,1727978520427,-0.19360352,-0.28692627,0.9664917,-0.75,-0.9375,-0.359375
515,515,1727978520456,-0.19311523,-0.28546143,0.9713745,-0.859375,-0.8125,-0.5625
516,516,1727978520506,-0.19824219,-0.2822876,0.96746826,-0.515625,-1.078125,-0.546875
517,517,1727978520547,-0.2019043,-0.2781372,0.96673584,-1.203125,-1.046875,-0.5
518,518,1727978520580,-0.20239258,-0.28570557,0.9623413,-0.453125,-0.65625,-0.484375
519,519,1727978520625,-0.20019531,-0.27496338,0.9664917,-1.203125,-0.984375,-0.25
520,520,1727978520666,-0.19067383,-0.28253174,0.9711304,-0.578125,-0.53125,-0.640625
521,521,1727978520698,-0.19824219,-0.2732544,0.9533081,-0.90625,-0.203125,-0.234375
522,522,1727978520741,-0.2006836,-0.2852173,0.9664917,0.390625,0.375,-0.515625
523,523,1727978520818,-0.19580078,-0.28033447,0.9657593,-0.296875,-0.375,-0.390625
524,524,1727978520831,-0.20410156,-0.2571411,0.96380615,-0.796875,-0.5625,-0.3125
525,525,1727978520861,-0.19677734,-0.2786255,0.9747925,0.328125,0.296875,-0.421875
526,526,1727978520894,-0.19433594,-0.2720337,0.96698,-0.671875,-0.671875,-0.4375
527,527,1727978520936,-0.19799805,-0.28131104,0.9657593,-0.03125,-0.25,-0.390625
528,528,1727978520982,-0.19506836,-0.28033447,0.95965576,-1.0,-0.984375,-0.5
529,529,1727978521013,-0.20336914,-0.27252197,0.96868896,0.203125,0.28125,-0.296875
530,530,1727978521060,-0.19506836,-0.27716064,0.97283936,0.46875,0.328125,-0.625
531,531,1727978521106,-0.20532227,-0.2727661,0.96624756,0.15625,0.203125,-0.359375
532,532,1727978521133,-0.2006836,-0.27764893,0.9767456,0.421875,0.5,-0.359375
533,533,1727978521178,-0.20263672,-0.27471924,0.96136475,-0.203125,0.203125,-0.421875
534,534,1727978521222,-0.1965332,-0.27642822,0.96502686,0.8125,0.890625,-0.296875
535,535,1727978521252,-0.19604492,-0.27374268,0.96990967,0.875,0.859375,-0.390625
536,536,1727978521304,-0.20092773,-0.28253174,0.96746826,0.765625,0.78125,-0.296875
537,537,1727978521344,-0.18823242,-0.28131104,0.9689331,1.015625,0.875,-0.234375
538,538,1727978521371,-0.19067383,-0.27886963,0.9689331,0.859375,0.703125,-0.375
539,539,1727978521418,-0.19506836,-0.28741455,0.9660034,0.21875,0.171875,-0.453125
540,540,1727978521448,-0.19091797,-0.2852173,0.96698,0.359375,0.25,-0.421875
541,541,1727978521493,-0.19018555,-0.28497314,0.9633179,0.703125,0.640625,-0.34375
542,542,1727978521537,-0.18798828,-0.286438,0.96307373,1.09375,0.78125,-0.59375
543,543,1727978521568,-0.18725586,-0.28082275,0.9730835,1.234375,0.921875,-0.578125
544,544,1727978521613,-0.19116211,-0.29107666,0.96624756,0.5625,0.375,-0.375
545,545,1727978521656,-0.1875,-0.2822876,0.96795654,0.25,0.90625,-0.46875
546,546,1727978521687,-0.18457031,-0.29766846,0.96698,0.625,0.46875,-0.4375
547,547,1727978521733,-0.18701172,-0.28692627,0.9682007,0.109375,0.78125,-0.34375
548,548,1727978521777,-0.1784668,-0.29815674,0.97283936,1.78125,1.25,-0.640625
549,549,1727978521806,-0.1875,-0.2930298,0.96673584,0.375,0.390625,-0.1875
550,550,1727978521853,-0.18481445,-0.28814697,0.97088623,0.75,0.421875,-0.25
551,551,1727978521882,-0.18066406,-0.29058838,0.9735718,0.8125,0.625,-0.578125
552,552,1727978521927,-0.17504883,-0.2901001,0.9633179,0.203125,0.296875,-0.546875
553,553,1727978521973,-0.17578125,-0.3040161,0.96502686,0.921875,0.46875,-0.578125
554,554,1727978522002,-0.17675781,-0.28936768,0.9645386,-0.40625,0.09375,-0.34375
555,555,1727978522047,-0.18164062,-0.2942505,0.96551514,0.671875,0.625,-0.546875
556,556,1727978522093,-0.171875,-0.29766846,0.9743042,0.53125,0.40625,-0.546875
557,557,1727978522123,-0.17895508,-0.2913208,0.96673584,-0.125,-0.125,-0.390625
558,558,1727978522167,-0.17626953,-0.2966919,0.9706421,0.421875,0.53125,-0.296875
559,559,1727978522213,-0.171875,-0.29180908,0.9603882,-0.296875,0.171875,-0.4375
560,560,1727978522242,-0.17333984,-0.29766846,0.963562,0.5625,0.359375,-0.34375
561,561,1727978522286,-0.18066406,-0.29986572,0.965271,0.296875,0.34375,-0.484375
562,562,1727978522333,-0.18261719,-0.2925415,0.96698,0.203125,0.28125,-0.453125
563,563,1727978522362,-0.17358398,-0.30377197,0.96698,0.53125,0.375,-0.390625
564,564,1727978522407,-0.1730957,-0.2937622,0.96502686,0.140625,-0.109375,-0.5
565,565,1727978522438,-0.17456055,-0.29840088,0.9616089,0.0625,0.171875,-0.46875
566,566,1727978522482,-0.17456055,-0.2888794,0.9628296,0.34375,0.15625,-0.484375
567,567,1727978522527,-0.17236328,-0.29864502,0.9623413,0.375,0.03125,-0.421875
568,568,1727978522557,-0.17797852,-0.29693604,0.96746826,0.34375,0.0,-0.46875
569,569,1727978522601,-0.17602539,-0.30499268,0.9689331,0.109375,-0.21875,-0.53125
570,570,1727978522648,-0.17114258,-0.2991333,0.96307373,0.046875,0.234375,-0.421875
571,571,1727978522678,-0.171875,-0.31011963,0.96209717,0.375,0.1875,-0.515625
572,572,1727978522722,-0.1694336,-0.3040161,0.97283936,-0.28125,0.109375,-0.359375
573,573,1727978522767,-0.17407227,-0.30596924,0.977478,-0.421875,-0.5625,-0.296875
574,574,1727978522797,-0.17822266,-0.29522705,0.9586792,-1.0,-0.3125,-0.484375
575,575,1727978522842,-0.16723633,-0.30670166,0.9738159,0.875,0.65625,-0.671875
576,576,1727978522871,-0.17822266,-0.30352783,0.9579468,-0.28125,-0.515625,-0.234375
577,577,1727978522917,-0.18652344,-0.2925415,0.9628296,-0.046875,-0.1875,-0.34375
578,578,1727978522961,-0.17236328,-0.2966919,0.9677124,-0.4375,-0.703125,-0.34375
579,579,1727978522991,-0.17333984,-0.29815674,0.9660034,-0.6875,-0.984375,-0.25
580,580,1727978523036,-0.16992188,-0.30059814,0.96136475,-0.484375,-0.515625,-0.28125
581,581,1727978523081,-0.17041016,-0.29083252,0.963562,-1.328125,-1.34375,-0.234375
582,582,1727978523112,-0.17553711,-0.29815674,0.9567261,-0.40625,-0.4375,-0.359375
583,583,1727978523158,-0.1796875,-0.2954712,0.96795654,-0.5,-0.890625,-0.265625
584,584,1727978523202,-0.18115234,-0.30010986,0.9645386,-1.203125,-1.265625,-0.40625
585,585,1727978523231,-0.1784668,-0.29400635,0.9677124,-0.609375,-0.765625,-0.28125
586,586,1727978523276,-0.18188477,-0.29107666,0.963562,-1.296875,-1.203125,-0.421875
587,587,1727978523322,-0.18481445,-0.29522705,0.9689331,-0.40625,-0.828125,-0.4375
588,588,1727978523351,-0.18432617,-0.29864502,0.9645386,-0.453125,-0.921875,-0.40625
589,589,1727978523398,-0.18408203,-0.29180908,0.96673584,-0.90625,-1.03125,-0.4375
590,590,1727978523442,-0.1821289,-0.28912354,0.96698,-0.71875,-0.984375,-0.46875
591,591,1727978523470,-0.18725586,-0.28961182,0.9672241,-0.890625,-0.84375,-0.53125
592,592,1727978523517,-0.19458008,-0.2901001,0.96795654,-0.96875,-1.171875,-0.5
593,593,1727978523551,-0.19091797,-0.29058838,0.9640503,-1.03125,-0.96875,-0.421875
594,594,1727978523590,-0.18847656,-0.27838135,0.96746826,-1.171875,-1.09375,-0.484375
595,595,1727978523638,-0.18969727,-0.28448486,0.97039795,-0.65625,-0.78125,-0.40625
596,596,1727978523666,-0.19628906,-0.28155518,0.97332764,-0.40625,-0.65625,-0.53125
597,597,1727978523713,-0.19506836,-0.27789307,0.96307373,-0.75,-0.796875,-0.40625
598,598,1727978523755,-0.19335938,-0.2774048,0.9633179,-1.3125,-0.8125,-0.359375
599,599,1727978523785,-0.19799805,-0.28082275,0.97528076,-0.375,-0.125,-0.59375
600,600,1727978523833,-0.20043945,-0.27178955,0.9711304,-0.515625,0.234375,-0.390625
601,601,1727978523877,-0.18798828,-0.29058838,0.97454834,0.40625,0.15625,-0.578125
602,602,1727978523907,-0.19189453,-0.28082275,0.9645386,-0.8125,-0.453125,-0.328125
603,603,1727978523950,-0.19897461,-0.26519775,0.97283936,-0.03125,-0.03125,-0.140625
604,604,1727978523986,-0.19384766,-0.28253174,0.9677124,-0.734375,-0.578125,-0.421875
605,605,1727978524026,-0.1940918,-0.27960205,0.9672241,-1.234375,-1.03125,-0.515625
606,606,1727978524071,-0.19604492,-0.29034424,0.9713745,-0.609375,-0.65625,-0.3125
607,607,1727978524102,-0.19726562,-0.27008057,0.9616089,-2.0625,-1.296875,-0.328125
608,608,1727978524148,-0.19995117,-0.28179932,0.97332764,0.453125,0.515625,-0.40625
609,609,1727978524190,-0.1940918,-0.27520752,0.96380615,-0.171875,-0.328125,-0.328125
610,610,1727978524223,-0.21142578,-0.27374268,0.9694214,0.421875,0.515625,-0.421875
611,611,1727978524268,-0.19824219,-0.27593994,0.97161865,0.859375,0.90625,-0.234375
612,612,1727978524313,-0.20019531,-0.27886963,0.9594116,0.375,0.9375,-0.28125
613,613,1727978524349,-0.19604492,-0.2732544,0.9647827,0.890625,0.921875,-0.359375
614,614,1727978524387,-0.1977539,-0.28424072,0.9694214,1.28125,1.1875,-0.34375
615,615,1727978524418,-0.19018555,-0.28033447,0.965271,1.078125,1.140625,-0.4375
616,616,1727978524466,-0.19042969,-0.28424072,0.96868896,0.984375,1.015625,-0.4375
617,617,1727978524507,-0.19555664,-0.28033447,0.963562,0.953125,0.78125,-0.40625
618,618,1727978524543,-0.19384766,-0.28448486,0.96746826,0.9375,1.046875,-0.4375
619,619,1727978524581,-0.18847656,-0.28424072,0.96258545,0.28125,0.5,-0.296875
620,620,1727978524632,-0.19042969,-0.2859497,0.97650146,0.703125,0.453125,-0.53125
621,621,1727978524659,-0.19360352,-0.2805786,0.9581909,0.109375,0.078125,-0.53125
622,622,1727978524709,-0.18066406,-0.2793579,0.9784546,0.71875,0.375,-0.703125
623,623,1727978524745,-0.19140625,-0.29034424,0.96258545,0.3125,0.6875,-0.21875
624,624,1727978524779,-0.18652344,-0.28985596,0.9640503,1.015625,1.5,-0.375
625,625,1727978524827,-0.17651367,-0.3008423,0.963562,1.65625,1.484375,-0.53125
626,626,1727978524867,-0.18969727,-0.28375244,0.9682007,0.875,1.140625,-0.21875
627,627,1727978524897,-0.1850586,-0.2883911,0.9723511,1.34375,1.25,-0.46875
628,628,1727978524941,-0.1796875,-0.29718018,0.9694214,0.359375,0.421875,-0.5625
629,629,1727978524972,-0.1796875,-0.2876587,0.9623413,0.46875,0.359375,-0.5625
630,630,1727978525016,-0.18334961,-0.30645752,0.9743042,0.671875,0.515625,-0.4375
631,631,1727978525062,-0.17675781,-0.28863525,0.9640503,-0.109375,0.140625,-0.53125
632,632,1727978525090,-0.17504883,-0.30108643,0.97088623,1.03125,0.953125,-0.71875
633,633,1727978525143,-0.17089844,-0.30181885,0.9706421,0.40625,0.3125,-0.421875
634,634,1727978525181,-0.17895508,-0.2979126,0.96551514,0.15625,0.140625,-0.546875
635,635,1727978525213,-0.1730957,-0.29693604,0.96795654,0.5,0.328125,-0.5625
636,636,1727978525256,-0.17553711,-0.2913208,0.9640503,-0.171875,0.203125,-0.5625
637,637,1727978525308,-0.17016602,-0.29888916,0.97088623,0.328125,0.203125,-0.53125
638,638,1727978525333,-0.17333984,-0.302063,0.9640503,0.546875,0.203125,-0.359375
639,639,1727978525386,-0.17285156,-0.29937744,0.9730835,-0.046875,0.1875,-0.546875
640,640,1727978525407,-0.17480469,-0.30010986,0.9682007,0.421875,0.359375,-0.46875
641,641,1727978525452,-0.17602539,-0.29888916,0.97088623,-0.09375,-0.203125,-0.671875
642,642,1727978525497,-0.1743164,-0.29449463,0.9594116,0.203125,0.1875,-0.40625
643,643,1727978525528,-0.16699219,-0.3135376,0.96014404,0.4375,0.359375,-0.640625
644,644,1727978525572,-0.17626953,-0.30303955,0.96014404,-0.28125,0.0625,-0.421875
645,645,1727978525618,-0.17480469,-0.3057251,0.97283936,0.4375,-0.125,-0.65625
646,646,1727978525647,-0.17089844,-0.2876587,0.95233154,-0.890625,-0.03125,-0.359375
647,647,1727978525693,-0.16821289,-0.30352783,0.9723511,1.65625,1.375,-0.546875
648,648,1727978525740,-0.16357422,-0.31304932,0.96429443,0.6875,0.25,-0.578125
649,649,1727978525766,-0.17163086,-0.302063,0.96624756,0.34375,0.40625,-0.359375
650,650,1727978525813,-0.171875,-0.30718994,0.9684448,0.3125,0.109375,-0.625
651,651,1727978525857,-0.17333984,-0.30426025,0.96990967,-0.1875,-0.4375,-0.453125
652,652,1727978525888,-0.171875,-0.30596924,0.96502686,-0.046875,-0.453125,-0.4375
653,653,1727978525932,-0.17016602,-0.29595947,0.9537964,-1.25,-1.234375,-0.484375
654,654,1727978525963,-0.17602539,-0.30743408,0.96136475,-0.1875,-0.53125,-0.5
655,655,1727978526007,-0.17114258,-0.300354,0.9689331,-0.359375,-1.046875,-0.515625
656,656,1727978526051,-0.17553711,-0.3093872,0.96868896,-0.828125,-1.171875,-0.203125
657,657,1727978526086,-0.17993164,-0.29595947,0.97283936,-0.796875,-0.96875,-0.25
658,658,1727978526128,-0.17797852,-0.29595947,0.95965576,-1.484375,-1.0,-0.453125
659,659,1727978526171,-0.1796875,-0.29718018,0.963562,-0.75,-0.859375,-0.4375
660,660,1727978526207,-0.18139648,-0.30596924,0.9647827,-0.71875,-1.0,-0.34375
661,661,1727978526248,-0.17382812,-0.29766846,0.9640503,-0.6875,-1.078125,-0.59375
662,662,1727978526293,-0.18579102,-0.28741455,0.9606323,-0.8125,-0.90625,-0.34375
663,663,1727978526325,-0.18237305,-0.29595947,0.9696655,-0.6875,-0.9375,-0.4375
664,664,1727978526367,-0.17871094,-0.29327393,0.9606323,-1.171875,-1.1875,-0.375
665,665,1727978526412,-0.17749023,-0.30108643,0.97332764,-0.234375,-0.921875,-0.484375
666,666,1727978526441,-0.19262695,-0.29718018,0.9606323,-1.171875,-1.203125,-0.34375
667,667,1727978526487,-0.17797852,-0.28692627,0.9821167,-1.09375,-1.453125,-0.53125
668,668,1727978526518,-0.18774414,-0.2793579,0.9550171,-1.140625,-0.828125,-0.328125
669,669,1727978526567,-0.19116211,-0.2930298,0.96917725,-0.015625,0.09375,-0.34375
670,670,1727978526606,-0.18530273,-0.29400635,0.9628296,-0.15625,-0.453125,-0.4375
671,671,1727978526636,-0.19384766,-0.28253174,0.96673584,-1.21875,-0.859375,-0.234375
672,672,1727978526681,-0.19042969,-0.2876587,0.9713745,0.234375,-0.265625,-0.4375
673,673,1727978526727,-0.19018555,-0.28692627,0.9628296,-1.171875,-0.96875,-0.390625
674,674,1727978526758,-0.19482422,-0.28204346,0.97210693,-0.765625,-1.03125,-0.375
675,675,1727978526803,-0.19628906,-0.2871704,0.9725952,-0.765625,-0.78125,-0.4375
676,676,1727978526848,-0.19750977,-0.27642822,0.96429443,-1.203125,-0.8125,-0.453125
677,677,1727978526881,-0.19067383,-0.28814697,0.9723511,-0.0625,-0.40625,-0.546875
678,678,1727978526920,-0.19848633,-0.28619385,0.9664917,-1.15625,-1.328125,-0.46875
679,679,1727978526953,-0.20263672,-0.2744751,0.97210693,-1.015625,-0.90625,-0.4375
680,680,1727978526998,-0.19433594,-0.28326416,0.96429443,-0.953125,-0.828125,-0.40625
681,681,1727978527043,-0.20922852,-0.27178955,0.965271,-1.421875,-1.140625,-0.5
682,682,1727978527073,-0.19824219,-0.2798462,0.9677124,-0.21875,-0.328125,-0.5625
683,683,1727978527123,-0.19921875,-0.27593994,0.9657593,-0.5,-0.625,-0.453125
684,684,1727978527167,-0.20239258,-0.27520752,0.96746826,0.09375,0.0,-0.421875
685,685,1727978527193,-0.19897461,-0.27349854,0.96746826,0.125,-0.1875,-0.515625
686,686,1727978527237,-0.2055664,-0.27398682,0.9657593,-0.296875,-0.15625,-0.4375
687,687,1727978527282,-0.19848633,-0.2810669,0.9711304,0.625,0.265625,-0.515625
688,688,1727978527315,-0.19628906,-0.27886963,0.9611206,-0.109375,-0.234375,-0.421875
689,689,1727978527358,-0.19238281,-0.27423096,0.9706421,-0.234375,-0.046875,-0.5
690,690,1727978527403,-0.19824219,-0.27471924,0.9616089,0.40625,0.96875,-0.234375
691,691,1727978527432,-0.20043945,-0.2810669,0.96917725,0.90625,1.5,-0.234375
692,692,1727978527477,-0.18798828,-0.2888794,0.97039795,0.609375,0.765625,-0.15625
693,693,1727978527507,-0.20385742,-0.27593994,0.9677124,0.703125,0.984375,-0.046875
694,694,1727978527551,-0.19433594,-0.28033447,0.96990967,1.28125,1.5,-0.34375
695,695,1727978527598,-0.19262695,-0.28277588,0.96673584,0.671875,0.671875,-0.484375
696,696,1727978527628,-0.19067383,-0.2781372,0.9591675,0.140625,0.140625,-0.34375
697,697,1727978527673,-0.18774414,-0.28985596,0.97406006,1.3125,1.046875,-0.25
698,698,1727978527719,-0.19311523,-0.27496338,0.9616089,0.109375,0.515625,-0.296875
699,699,1727978527747,-0.18383789,-0.2937622,0.96795654,1.28125,1.09375,-0.5
700,700,1727978527793,-0.18237305,-0.2871704,0.96795654,0.90625,0.53125,-0.5
701,701,1727978527836,-0.19165039,-0.28033447,0.96868896,0.5625,0.453125,-0.296875
702,702,1727978527866,-0.18383789,-0.29156494,0.97088623,0.6875,0.78125,-0.484375
703,703,1727978527914,-0.18310547,-0.28399658,0.96307373,0.25,0.4375,-0.453125
704,704,1727978527943,-0.1875,-0.2966919,0.9672241,0.84375,0.390625,-0.484375
705,705,1727978527987,-0.18139648,-0.2942505,0.9657593,0.609375,0.421875,-0.34375
706,706,1727978528033,-0.17895508,-0.28790283,0.96868896,0.625,0.5,-0.5625
707,707,1727978528062,-0.1784668,-0.29180908,0.963562,0.609375,0.65625,-0.390625
708,708,1727978528108,-0.1821289,-0.28912354,0.9696655,0.375,0.3125,-0.53125
709,709,1727978528153,-0.18066406,-0.29107666,0.965271,0.515625,0.15625,-0.546875
710,710,1727978528181,-0.17773438,-0.29595947,0.9606323,-0.03125,0.21875,-0.5625
711,711,1727978528227,-0.18432617,-0.2979126,0.9723511,1.171875,0.515625,-0.640625
712,712,1727978528273,-0.18017578,-0.29400635,0.961853,0.0625,0.359375,-0.3125
713,713,1727978528302,-0.17138672,-0.28961182,0.9689331,0.234375,0.359375,-0.5625
714,714,1727978528349,-0.17749023,-0.2937622,0.9574585,-0.34375,0.1875,-0.46875
715,715,1727978528392,-0.1796875,-0.28448486,0.9598999,0.734375,1.03125,-0.375
716,716,1727978528425,-0.1694336,-0.31011963,0.9672241,1.71875,1.296875,-0.53125
717,717,1727978528469,-0.17675781,-0.29742432,0.9645386,0.234375,0.28125,-0.28125
718,718,1727978528498,-0.17578125,-0.29449463,0.96868896,0.734375,0.6875,-0.453125
719,719,1727978528543,-0.16992188,-0.3040161,0.9696655,0.46875,0.484375,-0.6875
720,720,1727978528586,-0.1772461,-0.29595947,0.9657593,0.46875,0.328125,-0.5
721,721,1727978528618,-0.16845703,-0.30645752,0.96624756,0.765625,0.34375,-0.546875
722,722,1727978528663,-0.1694336,-0.3032837,0.9640503,-0.234375,-0.046875,-0.515625
723,723,1727978528708,-0.16455078,-0.29766846,0.96624756,0.84375,0.828125,-0.625
724,724,1727978528736,-0.16772461,-0.302063,0.9684448,0.171875,-0.09375,-0.515625
725,725,1727978528782,-0.17504883,-0.2966919,0.96746826,-0.03125,-0.078125,-0.34375
726,726,1727978528826,-0.16748047,-0.3069458,0.963562,0.15625,0.0625,-0.53125
727,727,1727978528858,-0.171875,-0.3015747,0.96551514,-0.03125,0.03125,-0.296875
728,728,1727978528899,-0.17041016,-0.3057251,0.961853,0.140625,-0.125,-0.5
729,729,1727978528931,-0.171875,-0.30621338,0.96673584,0.03125,-0.1875,-0.46875
730,730,1727978528974,-0.1694336,-0.30230713,0.9633179,0.171875,0.03125,-0.234375
