,Unnamed: 0,timestamp,accel_x,accel_y,accel_z,gyro_x,gyro_y,gyro_z
0,0,1727345485459,-1.0166016,0.0029296875,0.040039062,0.34375,0.375,-0.03125
1,1,1727345485499,-1.0087891,-0.00390625,0.026367188,0.65625,0.25,-0.15625
2,2,1727345485539,-1.0175781,-0.0068359375,0.028320312,1.6875,-0.21875,0.28125
3,3,1727345485579,-1.0126953,-0.00390625,0.03125,1.4375,0.4375,0.40625
4,4,1727345485619,-1.0146484,0.0,0.018554688,1.8125,0.5,0.59375
5,5,1727345485659,-1.0214844,-0.001953125,0.032226562,2.0625,0.625,0.40625
6,6,1727345485699,-1.0175781,-0.0009765625,0.03125,2.40625,0.09375,0.40625
7,7,1727345485739,-1.0126953,0.0009765625,0.028320312,2.125,-0.15625,0.59375
8,8,1727345485779,-1.0136719,0.0146484375,0.0390625,0.78125,-0.03125,0.21875
9,9,1727345485819,-1.0195312,0.0078125,0.028320312,0.09375,-0.53125,-0.15625
10,10,1727345485859,-1.0185547,0.005859375,0.037109375,-0.3125,-0.34375,-0.15625
11,11,1727345485899,-1.0146484,0.0087890625,0.033203125,-0.21875,-0.15625,-0.25
12,12,1727345485939,-1.0136719,0.0029296875,0.034179688,-0.03125,-0.21875,-0.21875
13,13,1727345485979,-1.0058594,0.005859375,0.033203125,-0.25,-0.34375,-0.03125
14,14,1727345486019,-1.0146484,-0.0078125,0.033203125,-0.5,-0.34375,0.03125
15,15,1727345486059,-1.0126953,-0.001953125,0.046875,-0.5,-0.40625,0.59375
16,16,1727345486099,-1.0126953,0.0029296875,0.057617188,-0.21875,-0.15625,0.65625
17,17,1727345486139,-1.0107422,0.013671875,0.034179688,0.03125,-0.21875,0.59375
18,18,1727345486179,-1.015625,0.0009765625,0.036132812,-0.6875,0.625,0.28125
19,19,1727345486219,-1.0117188,0.0048828125,0.03515625,-0.625,0.8125,1.0625
20,20,1727345486259,-1.0078125,0.017578125,0.034179688,-0.25,1.3125,1.6875
21,21,1727345486299,-1.0185547,0.0126953125,0.033203125,-0.21875,1.375,1.5
22,22,1727345486339,-1.0195312,0.01171875,0.0390625,-0.4375,0.75,0.84375
23,23,1727345486379,-1.0195312,0.001953125,0.033203125,-1.125,0.09375,0.15625
24,24,1727345486419,-1.0068359,0.0048828125,0.033203125,-1.1875,-0.15625,-0.4375
25,25,1727345486459,-1.0175781,0.0068359375,0.029296875,-0.21875,0.15625,-0.5
26,26,1727345486499,-1.0136719,0.013671875,0.03125,0.15625,0.375,-0.15625
27,27,1727345486539,-1.0,0.0078125,0.03125,0.09375,0.5,0.28125
28,28,1727345486579,-1.0087891,0.0068359375,0.038085938,-0.375,0.25,0.40625
29,29,1727345486619,-1.0126953,0.0078125,0.03125,-0.25,0.5,0.34375
30,30,1727345486659,-1.015625,0.0078125,0.030273438,-0.15625,0.3125,0.15625
31,31,1727345486699,-1.0166016,0.0107421875,0.036132812,0.71875,0.15625,0.09375
32,32,1727345486739,-1.0097656,0.00390625,0.029296875,0.78125,0.03125,0.28125
33,33,1727345486779,-1.0097656,0.020507812,0.032226562,1.3125,0.3125,0.53125
34,34,1727345486819,-1.0146484,0.0,0.043945312,1.625,0.25,1.0625
35,35,1727345486859,-1.0185547,0.017578125,0.022460938,2.0,0.5625,1.3125
36,36,1727345486899,-1.0087891,0.025390625,0.038085938,-0.75,1.4375,0.21875
37,37,1727345486939,-1.0146484,0.025390625,0.040039062,-0.6875,0.9375,-0.375
38,38,1727345486979,-1.0263672,0.026367188,0.034179688,-0.625,-0.53125,-0.25
39,39,1727345487019,-1.0195312,-0.0029296875,0.041992188,0.78125,-1.1875,0.78125
40,40,1727345487059,-1.0126953,0.0107421875,0.03125,2.3125,-0.90625,0.90625
41,41,1727345487099,-1.0146484,0.0234375,0.036132812,0.65625,1.0,0.28125
42,42,1727345487139,-1.0166016,0.01171875,0.02734375,-1.375,1.0,0.09375
43,43,1727345487179,-1.0146484,0.0146484375,0.030273438,-0.875,0.4375,0.71875
44,44,1727345487219,-1.0146484,0.0078125,0.024414062,0.09375,0.8125,1.4375
45,45,1727345487259,-1.0097656,0.0146484375,0.033203125,0.78125,0.8125,1.1875
46,46,1727345487299,-1.0273438,0.016601562,0.026367188,-0.375,0.6875,0.90625
47,47,1727345487339,-1.015625,0.009765625,0.034179688,-1.1875,0.5,0.65625
48,48,1727345487379,-1.015625,0.01171875,0.03125,-0.5625,0.15625,0.53125
49,49,1727345487419,-1.0078125,0.00390625,0.03125,0.28125,0.25,0.84375
50,50,1727345487459,-1.0126953,0.01953125,0.028320312,1.25,0.875,0.78125
51,51,1727345487499,-1.015625,0.022460938,0.03125,1.4375,0.75,0.53125
52,52,1727345487539,-1.0146484,0.022460938,0.034179688,0.28125,0.1875,0.46875
53,53,1727345487579,-1.015625,0.0126953125,0.025390625,0.03125,0.15625,0.46875
54,54,1727345487619,-1.015625,0.03125,0.0126953125,0.03125,0.4375,0.59375
55,55,1727345487659,-1.0117188,0.026367188,0.021484375,-0.25,0.4375,0.65625
56,56,1727345487699,-1.0166016,0.0146484375,0.02734375,-0.6875,0.5625,0.90625
57,57,1727345487739,-1.0087891,0.03125,0.036132812,-0.6875,0.8125,0.90625
58,58,1727345487779,-1.0205078,0.017578125,0.0146484375,-1.0625,0.5625,0.53125
59,59,1727345487819,-1.0087891,0.01953125,0.026367188,-1.1875,0.4375,0.34375
60,60,1727345487859,-1.0175781,0.0126953125,0.029296875,-0.09375,-0.21875,0.59375
61,61,1727345487899,-1.0068359,0.016601562,0.017578125,-0.15625,0.25,0.46875
62,62,1727345487939,-1.0078125,0.013671875,0.034179688,0.59375,0.875,0.40625
63,63,1727345487979,-1.0214844,0.028320312,0.0146484375,0.90625,0.3125,-0.03125
64,64,1727345488019,-1.0244141,0.028320312,0.018554688,0.59375,-0.65625,-0.5
65,65,1727345488059,-1.0175781,0.029296875,0.02734375,0.03125,-1.375,-1.5625
66,66,1727345488099,-1.0195312,0.017578125,0.020507812,-0.03125,-2.3125,-2.46875
67,67,1727345488139,-1.0087891,0.0087890625,0.02734375,0.46875,-1.9375,-2.875
68,68,1727345488179,-1.0087891,0.025390625,0.018554688,1.6875,-1.3125,-2.15625
69,69,1727345488219,-1.0058594,0.02734375,0.0234375,3.15625,-0.46875,-0.6875
70,70,1727345488259,-1.015625,0.024414062,0.025390625,2.65625,0.4375,0.65625
71,71,1727345488299,-1.0175781,0.025390625,0.025390625,1.125,0.5,0.96875
72,72,1727345488339,-1.0146484,0.028320312,0.018554688,0.40625,0.625,0.78125
73,73,1727345488379,-1.015625,0.021484375,0.025390625,-0.09375,-0.15625,0.46875
74,74,1727345488419,-1.0087891,0.022460938,0.018554688,0.46875,0.09375,0.28125
75,75,1727345488459,-1.015625,0.021484375,0.022460938,0.71875,0.15625,0.34375
76,76,1727345488499,-1.0175781,0.017578125,0.016601562,0.15625,-0.21875,0.15625
77,77,1727345488539,-1.0234375,0.021484375,0.028320312,-0.5625,-0.59375,-0.25
78,78,1727345488579,-1.0097656,0.026367188,0.020507812,-1.1875,-0.15625,-0.6875
79,79,1727345488619,-1.0205078,0.017578125,0.017578125,-1.125,-1.03125,-0.8125
80,80,1727345488659,-1.0205078,0.021484375,0.026367188,-1.5,-0.78125,-0.75
81,81,1727345488699,-1.0126953,0.0078125,0.030273438,-1.5625,-0.46875,-0.4375
82,82,1727345488739,-1.0107422,0.0107421875,0.038085938,-0.625,-0.21875,-0.09375
83,83,1727345488779,-1.015625,0.018554688,0.02734375,-0.6875,-0.03125,-0.25
84,84,1727345488819,-1.0146484,0.020507812,0.028320312,-0.6875,-0.40625,-0.4375
85,85,1727345488859,-1.0117188,0.01171875,0.028320312,-0.8125,-0.78125,-0.75
86,86,1727345488899,-1.015625,0.0078125,0.030273438,0.03125,-0.53125,-0.8125
87,87,1727345488939,-1.0087891,0.0087890625,0.02734375,-0.03125,-0.40625,-0.75
88,88,1727345488979,-1.0136719,0.0146484375,0.036132812,0.65625,0.25,-0.8125
89,89,1727345489019,-1.0117188,0.01171875,0.049804688,0.71875,0.15625,-0.5625
90,90,1727345489059,-1.0146484,0.0126953125,0.037109375,0.84375,-0.15625,-0.4375
91,91,1727345489099,-1.0166016,0.0126953125,0.037109375,1.5625,-0.09375,-0.5
92,92,1727345489139,-1.0214844,0.0107421875,0.038085938,0.65625,0.4375,-0.5
93,93,1727345489179,-1.0166016,0.009765625,0.029296875,1.5625,0.15625,-0.3125
94,94,1727345489219,-1.015625,0.009765625,0.036132812,1.875,0.03125,-0.03125
95,95,1727345489259,-1.0195312,0.016601562,0.0234375,2.3125,0.3125,-0.3125
96,96,1727345489299,-1.0136719,0.016601562,0.026367188,1.375,0.5,-0.625
97,97,1727345489339,-1.0117188,0.005859375,0.034179688,0.90625,-0.15625,-0.4375
98,98,1727345489379,-1.0166016,0.0107421875,0.03125,1.03125,0.15625,0.09375
99,99,1727345489419,-1.0234375,0.0068359375,0.029296875,1.25,0.9375,0.21875
100,100,1727345489459,-1.015625,0.022460938,0.020507812,1.5,0.4375,0.09375
101,101,1727345489499,-1.0244141,0.013671875,0.034179688,0.53125,0.03125,0.03125
102,102,1727345489539,-1.0136719,0.0107421875,0.020507812,0.34375,-0.09375,-0.21875
103,103,1727345489579,-1.0117188,0.01171875,0.03125,0.28125,-0.09375,-0.09375
104,104,1727345489619,-1.0126953,0.0009765625,0.025390625,0.40625,0.375,-0.09375
105,105,1727345489659,-1.0097656,0.0087890625,0.025390625,0.53125,0.25,0.09375
106,106,1727345489699,-1.0087891,0.0087890625,0.032226562,0.59375,0.09375,0.28125
107,107,1727345489739,-1.0126953,0.0107421875,0.033203125,0.15625,0.1875,0.09375
108,108,1727345489779,-1.0126953,0.0087890625,0.03125,0.46875,0.09375,-0.15625
109,109,1727345489819,-1.015625,0.016601562,0.025390625,0.28125,0.09375,-0.09375
110,110,1727345489859,-1.0087891,0.020507812,0.013671875,0.15625,0.15625,0.03125
111,111,1727345489899,-1.0166016,0.013671875,0.03125,-0.15625,-0.21875,0.09375
112,112,1727345489939,-1.0097656,0.01171875,0.03125,-0.4375,-0.09375,0.28125
113,113,1727345489979,-1.0068359,0.0107421875,0.03125,-0.21875,0.15625,0.34375
114,114,1727345490019,-1.0175781,0.01171875,0.026367188,0.15625,0.25,0.28125
115,115,1727345490059,-1.0234375,0.024414062,0.029296875,0.28125,0.1875,0.28125
116,116,1727345490099,-1.0146484,0.022460938,0.029296875,0.21875,-0.09375,-0.03125
117,117,1727345490139,-1.0117188,0.01171875,0.028320312,-0.15625,-0.09375,0.28125
118,118,1727345490179,-1.015625,0.0126953125,0.02734375,-0.5,0.15625,0.09375
119,119,1727345490219,-1.0146484,0.0107421875,0.024414062,-0.15625,0.1875,0.40625
120,120,1727345490259,-1.0166016,0.0068359375,0.0234375,0.09375,0.15625,0.65625
121,121,1727345490299,-1.015625,0.015625,0.03125,0.40625,0.375,0.46875
122,122,1727345490339,-1.0117188,0.013671875,0.028320312,0.21875,0.1875,0.28125
123,123,1727345490379,-1.0214844,0.026367188,0.021484375,0.03125,0.1875,0.34375
124,124,1727345490419,-1.0185547,0.020507812,0.026367188,-0.3125,-0.03125,0.21875
125,125,1727345490459,-1.0107422,0.0087890625,0.01953125,-0.15625,-0.09375,0.28125
126,126,1727345490499,-1.0214844,0.016601562,0.026367188,-0.3125,0.15625,0.34375
127,127,1727345490539,-1.0126953,0.01953125,0.021484375,-0.25,0.25,0.21875
128,128,1727345490579,-1.015625,0.020507812,0.028320312,-0.3125,-0.09375,0.15625
129,129,1727345490619,-1.015625,0.017578125,0.01953125,-0.25,-0.21875,0.15625
130,130,1727345490659,-1.0205078,0.017578125,0.015625,-0.4375,-0.15625,0.03125
131,131,1727345490699,-1.015625,0.017578125,0.0234375,-0.15625,0.03125,-0.03125
132,132,1727345490739,-1.0136719,0.017578125,0.029296875,-0.375,0.09375,0.21875
133,133,1727345490779,-1.0146484,0.016601562,0.017578125,-0.375,-0.03125,0.03125
134,134,1727345490819,-1.015625,0.0126953125,0.026367188,-0.09375,-0.21875,0.09375
135,135,1727345490859,-1.0185547,0.0078125,0.013671875,-0.25,-0.09375,-0.15625
136,136,1727345490899,-1.0214844,0.01171875,0.03515625,-0.15625,-0.15625,-0.375
137,137,1727345490939,-1.0166016,0.017578125,0.036132812,0.09375,-0.21875,-0.3125
138,138,1727345490979,-1.0078125,0.016601562,0.025390625,0.15625,-0.28125,-0.09375
139,139,1727345491019,-1.0175781,0.0234375,0.025390625,0.28125,0.15625,0.03125
140,140,1727345491059,-1.0224609,0.0146484375,0.029296875,-0.15625,0.09375,0.15625
141,141,1727345491099,-1.0146484,0.015625,0.034179688,-0.3125,-0.15625,0.03125
142,142,1727345491139,-1.015625,0.0146484375,0.024414062,-0.375,0.03125,0.03125
143,143,1727345491179,-1.0078125,0.013671875,0.017578125,0.21875,0.03125,-0.09375
144,144,1727345491219,-1.0234375,0.022460938,0.024414062,0.09375,-0.15625,-0.09375
145,145,1727345491259,-1.015625,0.015625,0.017578125,-0.03125,-0.46875,-0.03125
146,146,1727345491299,-1.0185547,0.009765625,0.018554688,-0.03125,-0.46875,0.09375
147,147,1727345491339,-1.0136719,0.0126953125,0.037109375,-0.21875,-0.15625,-0.15625
148,148,1727345491379,-1.0166016,0.0107421875,0.032226562,0.21875,-0.28125,-0.15625
149,149,1727345491419,-1.0058594,0.013671875,0.025390625,0.0625,-0.25,-0.25
150,150,1727345491459,-1.0126953,0.0126953125,0.03125,0.5,-0.1875,-0.375
151,151,1727345491499,-1.0136719,0.0107421875,0.028320312,0.5,-0.375,-0.1875
152,152,1727345491539,-1.0195312,0.018554688,0.018554688,0.1875,-0.25,-0.3125
153,153,1727345491579,-1.0087891,0.0234375,0.028320312,0.3125,-0.625,-0.5
154,154,1727345491619,-1.0175781,0.013671875,0.025390625,-0.125,-0.5625,-0.4375
155,155,1727345491659,-1.0146484,0.013671875,0.038085938,-0.53125,-0.6875,-0.5625
156,156,1727345491699,-1.0136719,0.024414062,0.0126953125,-0.90625,-0.4375,-0.6875
157,157,1727345491739,-1.0117188,0.0107421875,0.025390625,-1.09375,-0.1875,-0.5625
158,158,1727345491779,-1.015625,0.017578125,0.037109375,-0.53125,-0.1875,-0.375
159,159,1727345491819,-1.0185547,0.021484375,0.028320312,-0.28125,0.0,-0.1875
160,160,1727345491859,-1.0166016,0.017578125,0.0234375,-0.40625,-0.25,-0.375
161,161,1727345491899,-1.015625,0.015625,0.03515625,-0.25,-0.375,-0.3125
162,162,1727345491939,-1.0068359,0.016601562,0.030273438,-0.28125,0.0625,-0.3125
163,163,1727345491979,-1.0195312,0.0146484375,0.037109375,0.125,0.0625,-0.1875
164,164,1727345492019,-1.0214844,0.013671875,0.024414062,0.125,0.0625,0.125
165,165,1727345492059,-1.0214844,0.0,0.021484375,0.4375,0.1875,0.125
166,166,1727345492099,-1.0175781,0.020507812,0.024414062,0.625,0.125,-0.125
167,167,1727345492139,-1.0146484,0.0126953125,0.02734375,0.625,0.25,-0.25
168,168,1727345492179,-1.0126953,0.017578125,0.024414062,1.03125,0.1875,0.125
169,169,1727345492219,-1.0097656,0.0126953125,0.03125,1.03125,0.0625,0.25
170,170,1727345492259,-1.0107422,0.0087890625,0.021484375,1.0,0.40625,0.0625
171,171,1727345492299,-1.015625,0.005859375,0.02734375,1.03125,0.1875,0.0
172,172,1727345492339,-1.0117188,0.0146484375,0.033203125,1.0,0.25,0.125
173,173,1727345492379,-1.0205078,0.0126953125,0.03515625,0.6875,-0.0625,0.125
174,174,1727345492419,-1.0195312,0.020507812,0.021484375,0.5625,0.0,0.0
175,175,1727345492459,-1.0195312,0.0078125,0.03515625,0.0625,0.0,-0.1875
176,176,1727345492499,-1.0146484,0.013671875,0.024414062,0.375,-0.0625,-0.1875
177,177,1727345492539,-1.0126953,0.013671875,0.030273438,-0.125,-0.3125,-0.125
178,178,1727345492579,-1.015625,0.013671875,0.0126953125,-0.125,0.0625,0.1875
179,179,1727345492619,-1.0087891,0.020507812,0.025390625,-0.40625,0.0625,0.25
180,180,1727345492659,-1.0146484,0.0078125,0.02734375,-0.53125,-0.0625,0.0625
181,181,1727345492699,-1.0126953,0.016601562,0.018554688,-0.125,-0.1875,-0.3125
182,182,1727345492739,-1.0185547,0.0107421875,0.0087890625,0.0625,0.0,-0.25
183,183,1727345492779,-1.0185547,0.018554688,0.018554688,0.125,-0.0625,-0.25
184,184,1727345492819,-1.015625,0.016601562,0.032226562,0.5,0.125,0.0
185,185,1727345492859,-1.0185547,0.024414062,0.022460938,0.0,0.0625,0.125
186,186,1727345492899,-1.0175781,0.017578125,0.024414062,-0.25,0.0,0.125
187,187,1727345492939,-1.0175781,0.0078125,0.037109375,-0.0625,0.0,0.0
188,188,1727345492979,-1.0097656,0.0126953125,0.022460938,0.0,-0.0625,-0.25
189,189,1727345493019,-1.0126953,0.017578125,0.024414062,0.0,-0.125,-0.1875
190,190,1727345493059,-1.0185547,0.017578125,0.03125,0.5625,-0.0625,-0.375
191,191,1727345493099,-1.0214844,0.020507812,0.032226562,0.1875,-0.3125,-0.5625
192,192,1727345493139,-1.0126953,0.025390625,0.024414062,0.1875,-0.4375,-0.4375
193,193,1727345493179,-1.0136719,0.015625,0.028320312,-0.0625,0.0,-0.1875
194,194,1727345493219,-1.0126953,0.009765625,0.030273438,0.0,0.125,-0.125
195,195,1727345493259,-1.0146484,0.0146484375,0.02734375,-0.125,-0.0625,-0.1875
196,196,1727345493299,-1.0214844,0.01953125,0.034179688,0.25,0.0625,-0.1875
197,197,1727345493339,-1.0039062,0.0087890625,0.016601562,0.5625,-0.125,-0.3125
198,198,1727345493379,-1.0166016,0.01171875,0.03515625,0.4375,0.1875,-0.25
199,199,1727345493419,-1.0078125,0.017578125,0.03515625,0.3125,0.0625,-0.0625
200,200,1727345493459,-1.0078125,0.0,0.033203125,0.0625,0.0625,-0.0625
201,201,1727345493499,-1.0185547,0.016601562,0.028320312,0.1875,-0.0625,-0.125
202,202,1727345493539,-1.0136719,0.021484375,0.025390625,0.125,0.375,-0.1875
203,203,1727345493579,-1.0175781,0.020507812,0.03125,0.5,0.1875,-0.125
204,204,1727345493619,-1.0195312,0.0126953125,0.032226562,-0.0625,0.125,-0.0625
205,205,1727345493659,-1.0166016,0.018554688,0.01953125,-0.25,0.25,-0.125
206,206,1727345493699,-1.0234375,0.013671875,0.032226562,0.125,0.1875,-0.0625
207,207,1727345493739,-1.0166016,0.021484375,0.018554688,0.1875,0.3125,-0.0625
208,208,1727345493779,-1.0244141,0.0107421875,0.0126953125,0.3125,-0.0625,-0.1875
209,209,1727345493819,-1.0126953,0.01171875,0.038085938,0.3125,0.25,0.0
210,210,1727345493859,-1.0166016,0.0087890625,0.020507812,0.0,0.1875,-0.125
211,211,1727345493899,-1.0146484,0.0078125,0.03125,-0.125,0.0,0.125
212,212,1727345493939,-1.0117188,0.0107421875,0.036132812,0.3125,0.0625,0.0
213,213,1727345493979,-1.0195312,0.017578125,0.017578125,0.4375,0.25,-0.0625
214,214,1727345494019,-1.0097656,0.01171875,0.026367188,0.3125,0.59375,-0.375
215,215,1727345494059,-1.0195312,0.017578125,0.030273438,0.875,0.3125,-0.375
216,216,1727345494099,-1.0214844,0.021484375,0.032226562,0.875,-0.0625,-0.1875
217,217,1727345494139,-1.0117188,0.0234375,0.021484375,0.125,0.25,-0.1875
218,218,1727345494179,-1.0195312,0.016601562,0.03125,0.3125,0.1875,-0.1875
219,219,1727345494219,-1.0117188,0.021484375,0.038085938,-0.0625,-0.0625,0.0
220,220,1727345494259,-1.0175781,0.020507812,0.034179688,-0.40625,-0.125,0.0
221,221,1727345494299,-1.0107422,0.0068359375,0.03515625,-0.28125,0.0,-0.25
222,222,1727345494339,-1.0214844,0.013671875,0.03125,0.125,0.125,-0.25
223,223,1727345494379,-1.0166016,0.0048828125,0.0234375,0.125,0.0625,-0.125
224,224,1727345494419,-1.0146484,0.0068359375,0.041015625,0.25,0.1875,-0.1875
225,225,1727345494459,-1.0107422,0.0078125,0.032226562,0.125,0.3125,-0.25
226,226,1727345494499,-1.0117188,0.016601562,0.04296875,0.375,0.0,0.0625
227,227,1727345494539,-1.0185547,0.020507812,0.018554688,0.0625,0.3125,0.125
228,228,1727345494579,-1.0087891,0.013671875,0.02734375,0.25,0.1875,0.0625
229,229,1727345494619,-1.0107422,0.01953125,0.022460938,0.375,0.3125,0.0625
230,230,1727345494659,-1.0146484,0.016601562,0.03125,0.6875,0.1875,0.0
231,231,1727345494699,-1.0195312,0.0146484375,0.03515625,0.6875,0.125,-0.3125
232,232,1727345494739,-1.0205078,0.017578125,0.033203125,0.3125,0.3125,-0.25
233,233,1727345494779,-1.0175781,0.0126953125,0.0078125,0.4375,0.125,-0.0625
234,234,1727345494819,-1.0126953,0.0146484375,0.030273438,0.1875,0.375,0.0
235,235,1727345494859,-1.0195312,0.016601562,0.034179688,0.125,0.3125,0.0
236,236,1727345494899,-1.0126953,0.01953125,0.024414062,-0.125,0.25,-0.0625
237,237,1727345494939,-1.0224609,0.021484375,0.026367188,0.3125,0.125,-0.1875
238,238,1727345494979,-1.0166016,0.01171875,0.02734375,0.0625,0.0,-0.125
239,239,1727345495019,-1.0097656,0.0146484375,0.0146484375,0.0,-0.125,0.0
240,240,1727345495059,-1.0166016,0.0126953125,0.025390625,-0.34375,0.125,0.0
241,241,1727345495099,-1.0126953,0.013671875,0.0078125,-0.0625,0.25,-0.0625
242,242,1727345495139,-1.0117188,0.0078125,0.020507812,0.0625,-0.125,0.0625
243,243,1727345495179,-1.0126953,0.0107421875,0.032226562,0.25,-0.0625,0.0
244,244,1727345495219,-1.0039062,0.015625,0.02734375,0.25,0.125,0.125
245,245,1727345495259,-1.015625,0.020507812,0.03125,0.0,0.125,0.1875
246,246,1727345495299,-1.015625,0.0126953125,0.03515625,0.125,0.3125,0.3125
247,247,1727345495339,-1.0166016,0.018554688,0.03125,0.1875,0.3125,0.375
248,248,1727345495379,-1.0117188,0.009765625,0.028320312,0.375,0.40625,0.125
249,249,1727345495419,-1.0234375,0.026367188,0.03125,0.4375,0.0,0.0625
250,250,1727345495459,-1.0166016,0.020507812,0.021484375,-0.125,0.0,0.1875
251,251,1727345495499,-1.0048828,0.017578125,0.021484375,0.1875,0.3125,0.3125
252,252,1727345495539,-1.0078125,0.018554688,0.01171875,0.375,0.375,0.375
253,253,1727345495579,-1.0185547,0.021484375,0.024414062,-0.0625,0.3125,0.4375
254,254,1727345495619,-1.0175781,0.017578125,0.028320312,0.0,0.1875,0.375
255,255,1727345495659,-1.0166016,0.0146484375,0.0234375,-0.125,0.125,0.375
256,256,1727345495699,-1.0205078,0.021484375,0.015625,-0.28125,0.3125,0.3125
257,257,1727345495739,-1.0107422,0.022460938,0.0234375,0.0625,0.0625,0.25
258,258,1727345495779,-1.0166016,0.017578125,0.017578125,-0.125,0.0,0.4375
259,259,1727345495819,-1.0166016,0.025390625,0.036132812,0.0625,0.0,0.375
260,260,1727345495859,-1.015625,0.018554688,0.017578125,0.0625,0.0,0.25
261,261,1727345495899,-1.0146484,0.016601562,0.025390625,0.5,0.0,0.3125
262,262,1727345495939,-1.0175781,0.018554688,0.028320312,-0.125,-0.125,0.125
263,263,1727345495979,-1.0205078,0.01953125,0.0078125,0.0,0.0,0.125
264,264,1727345496019,-1.0126953,0.033203125,0.017578125,0.3125,-0.0625,0.25
265,265,1727345496059,-1.0117188,0.016601562,0.00390625,0.125,-0.25,0.25
266,266,1727345496099,-1.0253906,0.024414062,0.021484375,0.3125,-0.125,-0.0625
267,267,1727345496139,-1.0117188,0.020507812,0.022460938,0.5625,-0.375,-0.125
268,268,1727345496179,-1.0126953,0.021484375,0.018554688,0.0625,-0.0625,0.0625
269,269,1727345496219,-1.0146484,0.022460938,0.022460938,0.3125,0.0,0.125
270,270,1727345496259,-1.0126953,0.026367188,0.022460938,0.0625,0.0,0.1875
271,271,1727345496299,-1.0117188,0.01953125,0.030273438,-0.40625,0.0625,0.1875
272,272,1727345496339,-1.0175781,0.029296875,0.020507812,-0.34375,-0.125,0.125
273,273,1727345496379,-1.0175781,0.022460938,0.026367188,-0.40625,-0.0625,-0.0625
274,274,1727345496419,-1.015625,0.0126953125,0.024414062,-0.28125,-0.3125,-0.1875
275,275,1727345496459,-1.0078125,0.029296875,0.02734375,-0.65625,-0.25,-0.25
276,276,1727345496499,-1.0185547,0.020507812,0.018554688,-0.25,0.0625,-0.125
277,277,1727345496539,-1.0126953,0.025390625,0.015625,-0.65625,-0.25,-0.125
278,278,1727345496579,-1.0029297,0.028320312,0.015625,-0.0625,-0.125,0.1875
279,279,1727345496619,-1.0166016,0.03515625,0.02734375,-0.40625,0.375,0.4375
280,280,1727345496659,-1.0175781,0.032226562,0.016601562,-0.71875,0.0625,0.375
281,281,1727345496699,-1.0214844,0.016601562,0.029296875,-1.09375,-0.0625,0.25
282,282,1727345496739,-1.0107422,0.017578125,0.018554688,-0.65625,0.125,0.1875
283,283,1727345496779,-1.0146484,0.025390625,0.021484375,0.6875,0.125,-0.0625
284,284,1727345496819,-1.0146484,0.01953125,0.021484375,0.625,0.0,-0.1875
285,285,1727345496859,-1.0185547,0.029296875,0.020507812,0.4375,-0.25,-0.0625
286,286,1727345496899,-1.0126953,0.025390625,0.0234375,0.375,-0.0625,0.0
287,287,1727345496939,-1.0146484,0.034179688,0.022460938,0.5625,0.1875,0.0625
288,288,1727345496979,-1.0126953,0.030273438,0.024414062,0.125,0.1875,0.0625
289,289,1727345497019,-1.0097656,0.021484375,0.041992188,0.0625,0.0,-0.125
290,290,1727345497059,-1.0126953,0.029296875,0.029296875,0.0,-0.1875,0.0
291,291,1727345497099,-1.0166016,0.016601562,0.02734375,0.125,0.3125,-0.0625
292,292,1727345497139,-1.0087891,0.024414062,0.03515625,0.25,0.1875,-0.4375
293,293,1727345497179,-1.0214844,0.01953125,0.013671875,0.125,0.0,-0.3125
294,294,1727345497219,-1.0175781,0.03515625,0.018554688,0.8125,0.1875,-0.1875
295,295,1727345497259,-1.0175781,0.037109375,0.013671875,0.125,-0.375,-0.1875
296,296,1727345497299,-1.0087891,0.025390625,0.0126953125,-0.1875,-0.3125,-0.375
297,297,1727345497339,-1.0068359,0.020507812,0.029296875,0.0,-0.0625,-0.3125
298,298,1727345497379,-1.0097656,0.02734375,0.034179688,0.1875,-0.1875,-0.3125
299,299,1727345497419,-1.0087891,0.021484375,0.024414062,0.6875,-0.1875,-0.3125
300,300,1727345497459,-1.0117188,0.03125,0.017578125,0.875,-0.1875,-0.375
301,301,1727345497499,-1.0117188,0.028320312,0.0107421875,0.25,-0.0625,-0.5
302,302,1727345497539,-1.0029297,0.03125,0.016601562,-0.25,-0.625,-0.4375
303,303,1727345497579,-1.0214844,0.026367188,0.016601562,-0.34375,-0.375,-0.375
304,304,1727345497619,-1.0166016,0.0234375,0.016601562,-0.1875,0.0,-0.25
305,305,1727345497659,-1.0185547,0.025390625,0.022460938,-0.53125,-0.375,-0.3125
306,306,1727345497699,-1.0126953,0.0234375,0.028320312,-0.34375,-0.1875,-0.25
307,307,1727345497739,-1.0126953,0.01953125,0.025390625,-0.0625,-0.25,-0.3125
308,308,1727345497779,-1.0146484,0.029296875,0.029296875,0.0625,-0.375,-0.5625
309,309,1727345497819,-1.0146484,0.029296875,0.028320312,-0.25,-0.3125,-0.25
310,310,1727345497859,-1.0185547,0.021484375,0.026367188,-0.28125,-0.5,-0.375
311,311,1727345497899,-1.0195312,0.021484375,0.022460938,-0.53125,-0.125,-0.1875
312,312,1727345497939,-1.015625,0.0234375,0.03125,-0.71875,-0.0625,-0.125
313,313,1727345497979,-1.0205078,0.026367188,0.021484375,-0.53125,-0.0625,-0.1875
314,314,1727345498019,-1.0126953,0.029296875,0.01953125,-0.1875,-0.125,-0.125
315,315,1727345498059,-1.0126953,0.0234375,0.025390625,0.125,-0.0625,-0.25
316,316,1727345498099,-1.0097656,0.022460938,0.017578125,0.1875,-0.125,-0.1875
317,317,1727345498139,-1.0185547,0.0390625,0.02734375,0.0625,0.0,-0.1875
318,318,1727345498179,-1.0107422,0.029296875,0.03125,-0.0625,0.0,-0.1875
319,319,1727345498219,-1.0175781,0.02734375,0.017578125,0.375,0.0625,0.0
320,320,1727345498259,-1.0126953,0.025390625,0.022460938,-0.125,-0.0625,-0.125
321,321,1727345498299,-1.0126953,0.029296875,0.018554688,-0.0625,0.0,-0.1875
322,322,1727345498339,-1.0136719,0.024414062,0.022460938,0.0625,0.0,-0.0625
323,323,1727345498379,-1.0205078,0.020507812,0.025390625,0.0625,-0.125,0.0625
324,324,1727345498419,-1.0136719,0.02734375,0.026367188,0.25,0.1875,-0.0625
325,325,1727345498459,-1.0195312,0.029296875,0.018554688,0.0625,-0.125,-0.125
326,326,1727345498499,-1.0166016,0.026367188,0.0126953125,0.25,-0.5,-0.1875
327,327,1727345498539,-1.0107422,0.025390625,0.013671875,-0.28125,-0.375,-0.3125
328,328,1727345498579,-1.0087891,0.028320312,0.018554688,-0.0625,-0.0625,-0.125
329,329,1727345498619,-1.015625,0.03125,0.01953125,0.0625,-0.125,0.0625
330,330,1727345498659,-1.015625,0.024414062,0.020507812,0.0625,-0.25,0.0
331,331,1727345498699,-1.0146484,0.030273438,0.0126953125,0.125,-0.3125,-0.1875
332,332,1727345498739,-1.0166016,0.032226562,0.021484375,0.25,-0.25,-0.3125
333,333,1727345498779,-1.0136719,0.03515625,0.0126953125,-0.125,-0.1875,-0.25
334,334,1727345498819,-1.0166016,0.025390625,0.026367188,0.0625,-0.1875,-0.125
335,335,1727345498859,-1.0166016,0.036132812,0.013671875,-0.1875,-0.25,-0.0625
336,336,1727345498899,-1.0078125,0.0234375,0.030273438,0.0,-0.1875,-0.1875
337,337,1727345498939,-1.0195312,0.021484375,0.0146484375,-0.1875,-0.0625,-0.25
338,338,1727345498979,-1.0126953,0.025390625,0.018554688,-0.1875,0.0625,-0.1875
339,339,1727345499019,-1.0214844,0.0234375,0.020507812,0.25,-0.0625,-0.25
340,340,1727345499059,-1.0126953,0.037109375,0.02734375,-0.1875,-0.25,-0.1875
341,341,1727345499099,-1.0175781,0.020507812,0.0234375,-0.125,-0.375,-0.375
342,342,1727345499139,-1.0146484,0.03125,0.01953125,0.0625,-0.1875,-0.1875
343,343,1727345499179,-1.0175781,0.02734375,0.018554688,-0.0625,0.0,-0.3125
344,344,1727345499219,-1.0136719,0.022460938,0.021484375,0.125,0.1875,0.0
345,345,1727345499259,-1.015625,0.028320312,0.020507812,-0.0625,0.0,0.0625
346,346,1727345499299,-1.0107422,0.026367188,0.020507812,0.4375,0.1875,-0.0625
347,347,1727345499339,-1.0126953,0.029296875,0.020507812,0.75,0.125,-0.0625
348,348,1727345499379,-1.015625,0.025390625,0.01953125,0.5625,-0.0625,-0.1875
349,349,1727345499419,-1.0126953,0.030273438,0.02734375,0.4375,0.0625,-0.25
350,350,1727345499459,-1.0205078,0.033203125,0.0068359375,0.5625,-0.0625,-0.1875
351,351,1727345499499,-1.0205078,0.029296875,0.0234375,0.1875,0.125,-0.125
352,352,1727345499539,-1.0166016,0.034179688,0.017578125,-0.53125,0.0,-0.1875
353,353,1727345499579,-1.0136719,0.028320312,0.020507812,-0.46875,-0.125,-0.125
354,354,1727345499619,-1.0126953,0.024414062,0.02734375,-0.65625,0.125,-0.25
355,355,1727345499659,-1.0166016,0.028320312,0.021484375,-0.34375,0.0,-0.25
356,356,1727345499699,-1.015625,0.037109375,0.028320312,-0.25,0.0,-0.3125
357,357,1727345499739,-1.0097656,0.025390625,0.0234375,0.0625,-0.1875,-0.3125
358,358,1727345499779,-1.0097656,0.037109375,0.009765625,-0.28125,-0.125,-0.25
359,359,1727345499819,-1.0185547,0.029296875,0.01953125,-0.71875,0.0,-0.25
360,360,1727345499859,-1.0146484,0.013671875,0.01953125,-0.90625,-0.0625,-0.25
361,361,1727345499899,-1.0185547,0.025390625,0.020507812,-0.40625,0.0625,-0.1875
362,362,1727345499939,-1.0078125,0.026367188,0.016601562,-0.28125,-0.25,-0.3125
363,363,1727345499979,-1.0166016,0.0234375,0.030273438,0.0625,-0.125,-0.5
364,364,1727345500019,-1.0195312,0.026367188,0.021484375,0.125,-0.0625,-0.3125
365,365,1727345500059,-1.0087891,0.024414062,0.021484375,0.625,-0.125,-0.25
366,366,1727345500099,-1.0185547,0.022460938,0.013671875,0.4375,-0.0625,-0.25
367,367,1727345500139,-1.015625,0.02734375,0.025390625,0.1875,-0.125,-0.3125
368,368,1727345500179,-1.0058594,0.021484375,0.034179688,0.125,-0.25,-0.3125
369,369,1727345500219,-1.0117188,0.032226562,0.028320312,-0.0625,-0.1875,-0.3125
370,370,1727345500259,-1.0117188,0.02734375,0.030273438,0.25,-0.1875,-0.3125
371,371,1727345500299,-1.0224609,0.02734375,0.015625,0.0625,-0.125,-0.375
372,372,1727345500339,-1.0126953,0.0234375,0.0146484375,-0.125,-0.25,-0.25
373,373,1727345500379,-1.0195312,0.029296875,0.01171875,-0.125,-0.125,0.125
374,374,1727345500419,-1.0087891,0.03125,0.0234375,-0.46875,0.0,0.0
375,375,1727345500459,-1.0117188,0.026367188,0.01953125,-0.75,-0.09375,0.0625
376,376,1727345500499,-1.0175781,0.0234375,0.0234375,-0.5,-0.09375,-0.0625
377,377,1727345500539,-1.0185547,0.017578125,0.013671875,-0.09375,-0.34375,-0.0625
378,378,1727345500579,-1.0126953,0.022460938,0.021484375,0.59375,-0.15625,-0.1875
379,379,1727345500619,-1.0195312,0.028320312,0.0146484375,0.53125,-0.15625,0.0
380,380,1727345500659,-1.0185547,0.024414062,0.022460938,0.34375,-0.21875,0.0625
381,381,1727345500699,-1.0107422,0.033203125,0.020507812,0.15625,-0.09375,0.0625
382,382,1727345500739,-1.0175781,0.020507812,0.024414062,0.09375,-0.15625,0.0
383,383,1727345500779,-1.0107422,0.020507812,0.0107421875,0.09375,-0.09375,0.0625
384,384,1727345500819,-1.0107422,0.03125,0.018554688,0.09375,0.03125,0.0625
385,385,1727345500859,-1.0068359,0.024414062,0.0234375,0.09375,-0.15625,-0.125
386,386,1727345500899,-1.0068359,0.033203125,0.005859375,0.40625,0.03125,-0.1875
387,387,1727345500939,-1.0117188,0.030273438,0.020507812,0.21875,-0.09375,-0.125
388,388,1727345500979,-1.015625,0.032226562,0.0146484375,0.34375,-0.09375,0.1875
389,389,1727345501019,-1.015625,0.030273438,0.0126953125,-0.09375,-0.09375,0.0
390,390,1727345501059,-1.0175781,0.028320312,0.033203125,0.15625,0.40625,0.0625
391,391,1727345501099,-1.0107422,0.02734375,0.026367188,0.28125,0.03125,0.25
392,392,1727345501139,-1.0205078,0.028320312,0.028320312,0.40625,-0.03125,0.0625
393,393,1727345501179,-1.0146484,0.03125,0.01953125,0.53125,0.09375,-0.0625
394,394,1727345501219,-1.0195312,0.02734375,0.022460938,0.40625,0.15625,0.1875
395,395,1727345501259,-1.0195312,0.030273438,0.020507812,0.34375,0.09375,0.125
396,396,1727345501299,-1.0097656,0.02734375,0.022460938,0.21875,0.03125,0.0625
397,397,1727345501339,-1.0078125,0.038085938,0.03515625,0.09375,0.09375,0.125
398,398,1727345501379,-1.0087891,0.028320312,0.015625,-0.09375,0.15625,0.25
399,399,1727345501419,-1.0078125,0.030273438,0.016601562,-0.25,-0.03125,0.25
400,400,1727345501459,-1.0136719,0.022460938,0.016601562,-0.375,-0.09375,0.25
401,401,1727345501499,-1.0146484,0.03125,0.0048828125,-0.4375,-0.15625,0.0
402,402,1727345501539,-1.0214844,0.030273438,0.020507812,-0.15625,0.03125,0.125
403,403,1727345501579,-1.0087891,0.025390625,0.018554688,0.34375,-0.09375,-0.125
404,404,1727345501619,-1.0097656,0.029296875,0.020507812,-0.03125,-0.28125,0.0625
405,405,1727345501659,-1.0117188,0.036132812,0.025390625,-0.03125,-0.34375,-0.125
406,406,1727345501699,-1.015625,0.038085938,0.013671875,0.09375,-0.28125,-0.1875
407,407,1727345501739,-1.0185547,0.030273438,0.01953125,-0.21875,-0.375,-0.125
408,408,1727345501779,-1.0166016,0.02734375,0.015625,0.21875,-0.375,-0.125
409,409,1727345501819,-1.0175781,0.038085938,0.015625,-0.15625,-0.21875,-0.1875
410,410,1727345501859,-1.015625,0.030273438,0.016601562,-0.3125,-0.34375,0.0
411,411,1727345501899,-1.0097656,0.032226562,0.015625,0.09375,-0.5,-0.0625
412,412,1727345501939,-1.0146484,0.03125,0.015625,-0.5,-0.6875,-0.125
413,413,1727345501979,-1.015625,0.021484375,0.009765625,-0.625,-0.5625,-0.3125
414,414,1727345502019,-1.0126953,0.03125,0.025390625,-0.8125,-0.5,-0.375
415,415,1727345502059,-1.0214844,0.02734375,0.015625,-1.0,-0.375,-0.375
416,416,1727345502099,-1.0126953,0.016601562,0.022460938,-0.9375,-0.75,-0.84375
417,417,1727345502139,-1.0244141,0.018554688,0.01953125,-0.6875,-0.9375,-0.96875
418,418,1727345502179,-1.0087891,0.0234375,0.022460938,-0.4375,-0.5625,-0.84375
419,419,1727345502219,-1.0166016,0.030273438,0.030273438,-0.3125,-0.15625,-0.1875
420,420,1727345502259,-1.0068359,0.025390625,0.016601562,-0.21875,0.09375,0.375
421,421,1727345502299,-1.0185547,0.021484375,0.022460938,-0.25,0.15625,0.3125
422,422,1727345502339,-1.0166016,0.032226562,0.025390625,-0.3125,-0.03125,-0.0625
423,423,1727345502379,-1.015625,0.02734375,0.018554688,0.46875,-0.21875,-0.25
424,424,1727345502419,-1.0117188,0.036132812,0.029296875,0.53125,-0.21875,-0.25
425,425,1727345502459,-1.0087891,0.029296875,0.0234375,0.78125,-0.03125,-0.25
426,426,1727345502499,-1.0195312,0.02734375,0.04296875,0.90625,0.09375,-0.0625
427,427,1727345502539,-1.0166016,0.028320312,0.02734375,0.59375,0.09375,0.0
428,428,1727345502579,-1.0097656,0.0234375,0.024414062,0.34375,0.09375,0.0625
429,429,1727345502619,-1.0136719,0.03125,0.016601562,0.21875,-0.09375,-0.125
430,430,1727345502659,-1.0253906,0.028320312,0.01171875,-0.375,-0.09375,-0.3125
431,431,1727345502699,-1.0146484,0.032226562,0.030273438,-0.25,-0.15625,-0.3125
432,432,1727345502739,-1.0205078,0.025390625,0.025390625,-0.3125,-0.09375,-0.125
433,433,1727345502779,-1.0107422,0.021484375,0.018554688,0.09375,-0.15625,-0.125
434,434,1727345502819,-1.0126953,0.03125,0.016601562,0.09375,0.15625,0.0
435,435,1727345502859,-1.0117188,0.025390625,0.026367188,-0.03125,0.21875,0.0625
436,436,1727345502899,-1.015625,0.025390625,0.028320312,0.09375,-0.15625,0.25
437,437,1727345502939,-1.0166016,0.026367188,0.026367188,-0.15625,-0.21875,0.0625
438,438,1727345502979,-1.0087891,0.029296875,0.025390625,0.09375,-0.28125,-0.375
439,439,1727345503019,-1.0126953,0.03125,0.03125,0.09375,-0.21875,-0.1875
440,440,1727345503059,-1.0,0.026367188,0.032226562,0.34375,0.03125,0.0
441,441,1727345503099,-1.0117188,0.028320312,0.01953125,0.53125,0.34375,0.1875
442,442,1727345503139,-1.0146484,0.02734375,0.0146484375,0.40625,0.34375,0.3125
443,443,1727345503179,-1.0107422,0.028320312,0.0126953125,0.34375,0.15625,0.125
444,444,1727345503219,-1.0185547,0.024414062,0.028320312,0.21875,0.03125,0.25
445,445,1727345503259,-1.0185547,0.02734375,0.028320312,0.15625,0.09375,0.0
446,446,1727345503299,-1.0117188,0.01953125,0.02734375,0.28125,0.09375,0.0625
447,447,1727345503339,-1.0195312,0.03125,0.028320312,0.15625,0.21875,0.125
448,448,1727345503379,-1.0195312,0.030273438,0.028320312,0.65625,0.09375,0.1875
449,449,1727345503419,-1.0175781,0.030273438,0.034179688,0.09375,-0.03125,0.125
450,450,1727345503459,-1.0039062,0.038085938,-0.005859375,-0.15625,0.03125,0.0625
451,451,1727345503499,-1.0117188,0.01953125,0.015625,0.21875,0.15625,0.0
452,452,1727345503539,-1.0185547,0.033203125,0.018554688,0.15625,0.15625,0.125
453,453,1727345503579,-1.0195312,0.033203125,0.024414062,0.40625,0.03125,0.0625
454,454,1727345503619,-1.0107422,0.030273438,0.024414062,0.03125,-0.03125,-0.25
455,455,1727345503659,-1.0078125,0.0234375,0.015625,-0.15625,-0.09375,-0.0625
456,456,1727345503699,-1.0166016,0.02734375,0.03515625,0.34375,0.21875,0.125
457,457,1727345503739,-1.0146484,0.022460938,0.0146484375,0.40625,0.09375,0.4375
458,458,1727345503779,-1.0166016,0.028320312,0.025390625,-0.09375,0.03125,0.125
459,459,1727345503819,-1.0126953,0.030273438,0.022460938,-0.21875,-0.03125,-0.0625
460,460,1727345503859,-1.0214844,0.025390625,0.02734375,-0.25,0.03125,-0.0625
461,461,1727345503899,-1.0166016,0.025390625,0.01171875,0.15625,0.15625,0.0
462,462,1727345503939,-1.0175781,0.0390625,0.020507812,0.09375,-0.09375,0.125
463,463,1727345503979,-1.0146484,0.03125,0.016601562,0.15625,-0.21875,-0.125
464,464,1727345504019,-1.0117188,0.024414062,0.020507812,-0.09375,0.03125,0.125
465,465,1727345504059,-1.0175781,0.03125,0.028320312,0.03125,0.03125,0.125
466,466,1727345504099,-1.0166016,0.029296875,0.0234375,-0.03125,-0.09375,0.125
467,467,1727345504139,-1.0097656,0.029296875,0.028320312,0.09375,0.03125,-0.125
468,468,1727345504179,-1.0136719,0.041015625,0.025390625,0.46875,-0.03125,0.0
469,469,1727345504219,-1.0185547,0.026367188,0.0234375,0.09375,-0.03125,0.0
470,470,1727345504259,-1.0195312,0.02734375,0.022460938,0.21875,-0.03125,-0.125
471,471,1727345504299,-1.0185547,0.03125,0.022460938,0.21875,-0.15625,0.0625
472,472,1727345504339,-1.0136719,0.033203125,0.026367188,0.09375,-0.03125,-0.125
473,473,1727345504379,-1.0146484,0.024414062,0.02734375,0.09375,-0.15625,-0.125
474,474,1727345504419,-1.0107422,0.036132812,0.03125,-0.09375,-0.09375,-0.25
475,475,1727345504459,-1.0224609,0.021484375,0.015625,-0.09375,-0.03125,0.0
476,476,1727345504499,-1.0146484,0.02734375,0.029296875,-0.09375,-0.09375,-0.0625
477,477,1727345504539,-1.015625,0.024414062,0.032226562,-0.5,-0.09375,-0.125
478,478,1727345504579,-1.0166016,0.0234375,0.018554688,0.46875,-0.15625,0.0
479,479,1727345504619,-1.0078125,0.02734375,0.018554688,0.28125,-0.09375,0.3125
480,480,1727345504659,-1.0039062,0.029296875,0.028320312,-0.03125,0.03125,0.0
481,481,1727345504699,-1.0195312,0.02734375,0.005859375,0.15625,-0.21875,-0.1875
482,482,1727345504739,-1.0166016,0.022460938,0.032226562,0.21875,-0.09375,-0.1875
483,483,1727345504779,-1.0107422,0.021484375,0.018554688,0.96875,0.03125,-0.0625
484,484,1727345504819,-1.0214844,0.0234375,0.03125,0.40625,0.15625,0.0
485,485,1727345504859,-1.0136719,0.02734375,0.03125,0.28125,0.09375,0.125
486,486,1727345504899,-1.0234375,0.024414062,0.030273438,0.28125,0.34375,0.4375
487,487,1727345504939,-1.0214844,0.026367188,0.0126953125,0.34375,0.53125,0.5
488,488,1727345504979,-1.015625,0.0234375,0.020507812,0.15625,0.21875,0.5
489,489,1727345505019,-1.0214844,0.03125,0.022460938,-0.21875,0.09375,0.125
490,490,1727345505059,-1.0185547,0.025390625,0.021484375,-0.3125,-0.03125,-0.125
491,491,1727345505099,-1.0195312,0.032226562,0.03125,0.15625,-0.03125,-0.0625
492,492,1727345505139,-1.0068359,0.03125,0.013671875,-0.15625,-0.03125,0.125
493,493,1727345505179,-1.0068359,0.036132812,0.0234375,0.40625,0.09375,0.1875
494,494,1727345505219,-1.0146484,0.02734375,0.038085938,-0.09375,-0.03125,0.1875
495,495,1727345505259,-1.0078125,0.026367188,0.028320312,-0.21875,0.09375,0.0625
496,496,1727345505299,-1.0107422,0.026367188,0.015625,0.15625,0.15625,0.25
497,497,1727345505339,-1.0136719,0.025390625,0.0234375,0.46875,0.03125,0.125
498,498,1727345505379,-1.0175781,0.0234375,0.02734375,0.65625,-0.09375,0.0625
499,499,1727345505419,-1.0185547,0.032226562,0.015625,0.40625,0.09375,-0.0625
500,500,1727345505459,-1.0195312,0.030273438,0.022460938,0.53125,0.21875,0.1875
501,501,1727345505499,-1.0107422,0.033203125,0.01953125,0.21875,0.28125,0.3125
502,502,1727345505539,-1.0234375,0.025390625,0.015625,0.09375,-0.03125,0.0625
503,503,1727345505579,-1.0166016,0.037109375,0.029296875,-0.21875,0.03125,-0.0625
504,504,1727345505619,-1.0078125,0.028320312,0.029296875,-0.21875,-0.28125,-0.1875
505,505,1727345505659,-1.0185547,0.032226562,0.022460938,-0.0625,-0.125,-0.3125
506,506,1727345505699,-1.0195312,0.029296875,0.018554688,-0.0625,0.0,-0.0625
507,507,1727345505739,-1.0166016,0.025390625,0.030273438,-0.1875,-0.0625,-0.25
508,508,1727345505779,-1.0078125,0.024414062,0.017578125,0.1875,-0.25,-0.125
509,509,1727345505819,-1.0107422,0.026367188,0.0390625,-0.375,-0.25,-0.125
510,510,1727345505859,-1.0185547,0.029296875,0.020507812,-0.0625,-0.25,-0.3125
511,511,1727345505899,-1.015625,0.03515625,0.03125,0.0625,-0.25,-0.25
512,512,1727345505939,-1.0146484,0.025390625,0.020507812,0.375,-0.125,-0.125
513,513,1727345505979,-1.0078125,0.02734375,0.028320312,0.25,-0.1875,-0.125
514,514,1727345506019,-1.0185547,0.025390625,0.02734375,0.0,-0.0625,-0.1875
515,515,1727345506059,-1.0205078,0.025390625,0.02734375,0.375,0.09375,0.09375
516,516,1727345506099,-1.0244141,0.030273438,0.024414062,0.0625,0.15625,0.0
517,517,1727345506139,-1.0185547,0.026367188,0.03125,-0.0625,0.0,-0.1875
518,518,1727345506179,-1.0058594,0.021484375,0.021484375,-0.375,0.0,-0.25
519,519,1727345506219,-1.0146484,0.020507812,0.034179688,-0.1875,0.03125,-0.0625
520,520,1727345506259,-1.0195312,0.022460938,0.0234375,0.0,0.34375,0.0
521,521,1727345506299,-1.0136719,0.026367188,0.0087890625,0.1875,0.28125,0.15625
522,522,1727345506339,-1.0146484,0.01953125,0.034179688,-0.375,0.0,0.0625
523,523,1727345506379,-1.0087891,0.01953125,0.015625,-0.125,-0.0625,-0.1875
524,524,1727345506419,-1.0097656,0.021484375,0.0234375,0.125,0.09375,-0.125
525,525,1727345506459,-1.0087891,0.0234375,0.026367188,0.375,0.09375,0.0
526,526,1727345506499,-1.0146484,0.022460938,0.026367188,0.3125,0.09375,0.09375
527,527,1727345506539,-1.0078125,0.028320312,0.018554688,0.5,0.09375,0.0625
528,528,1727345506579,-1.0136719,0.029296875,0.026367188,0.5,0.0,0.0
529,529,1727345506619,-1.0234375,0.021484375,0.01171875,0.5,0.03125,-0.0625
530,530,1727345506659,-1.0126953,0.026367188,0.020507812,0.1875,0.09375,-0.0625
531,531,1727345506699,-1.0087891,0.020507812,0.020507812,0.0625,0.09375,0.0625
532,532,1727345506739,-1.0205078,0.030273438,0.025390625,-0.25,0.03125,0.28125
533,533,1727345506779,-1.0107422,0.025390625,0.02734375,-0.4375,0.09375,0.0625
534,534,1727345506819,-1.0244141,0.025390625,0.017578125,-0.5,0.0,-0.0625
535,535,1727345506859,-1.0087891,0.026367188,0.020507812,-0.4375,-0.25,-0.125
536,536,1727345506899,-1.0126953,0.022460938,0.034179688,-0.5,0.0,0.0625
537,537,1727345506939,-1.0097656,0.02734375,0.02734375,-0.1875,0.0,0.09375
538,538,1727345506979,-1.0175781,0.02734375,0.030273438,-0.3125,0.0,0.34375
539,539,1727345507019,-1.0068359,0.030273438,0.024414062,-0.375,0.28125,0.09375
540,540,1727345507059,-1.0214844,0.028320312,0.026367188,0.0,0.09375,0.0625
541,541,1727345507099,-1.0185547,0.022460938,0.030273438,0.0,-0.0625,0.15625
542,542,1727345507139,-1.0117188,0.033203125,0.026367188,0.625,-0.0625,0.0625
543,543,1727345507179,-1.0214844,0.020507812,0.01953125,0.0625,-0.0625,-0.1875
544,544,1727345507219,-1.0224609,0.020507812,0.015625,0.25,-0.125,-0.0625
545,545,1727345507259,-1.0126953,0.018554688,0.025390625,0.3125,0.09375,0.0
546,546,1727345507299,-1.015625,0.025390625,0.032226562,0.25,-0.125,-0.375
547,547,1727345507339,-1.0224609,0.024414062,0.017578125,0.1875,-0.375,-0.6875
548,548,1727345507379,-1.0126953,0.0234375,0.0146484375,-0.1875,-0.9375,-1.25
549,549,1727345507419,-1.0234375,0.016601562,0.013671875,-0.125,-1.0,-1.40625
550,550,1727345507459,-1.0097656,0.029296875,0.03125,0.1875,-0.375,-1.0
551,551,1727345507499,-1.0117188,0.024414062,0.017578125,0.78125,-0.25,-0.4375
552,552,1727345507539,-1.0126953,0.037109375,0.016601562,0.125,-0.375,-0.3125
553,553,1727345507579,-1.0205078,0.028320312,0.018554688,-1.09375,-0.3125,-0.3125
554,554,1727345507619,-1.0107422,0.02734375,0.025390625,-0.5,0.0,-0.125
555,555,1727345507659,-1.0166016,0.018554688,0.03125,0.3125,-0.125,0.0
556,556,1727345507699,-1.0146484,0.026367188,0.022460938,0.3125,-0.125,-0.3125
557,557,1727345507739,-1.0224609,0.02734375,0.033203125,-0.0625,-0.5,-0.375
558,558,1727345507779,-1.015625,0.015625,0.032226562,-0.375,-0.4375,-0.8125
559,559,1727345507819,-1.0078125,0.01953125,0.028320312,0.0625,0.03125,-0.375
560,560,1727345507859,-1.0097656,0.0146484375,0.02734375,0.25,0.40625,-0.125
561,561,1727345507899,-1.0146484,0.029296875,0.025390625,-0.0625,-0.0625,0.21875
562,562,1727345507939,-1.0136719,0.018554688,0.022460938,-0.71875,-0.1875,-0.125
563,563,1727345507979,-1.0185547,0.017578125,0.03125,-0.5625,-0.0625,-0.375
564,564,1727345508019,-1.0146484,0.020507812,0.0234375,0.0625,-0.1875,-0.25
565,565,1727345508059,-1.0185547,0.024414062,0.0234375,-0.125,-0.125,-0.1875
566,566,1727345508099,-1.015625,0.0234375,0.021484375,0.0625,-0.1875,-0.4375
567,567,1727345508139,-1.0117188,0.013671875,0.02734375,0.125,-0.25,-0.25
568,568,1727345508179,-1.0048828,0.021484375,0.01953125,-0.125,0.0,-0.0625
569,569,1727345508219,-1.0185547,0.0234375,0.02734375,0.375,0.15625,-0.0625
570,570,1727345508259,-1.0068359,0.015625,0.028320312,0.0625,0.03125,0.0625
571,571,1727345508299,-1.0205078,0.0126953125,0.034179688,0.25,0.09375,-0.1875
572,572,1727345508339,-1.0146484,0.020507812,0.034179688,0.25,0.09375,-0.0625
573,573,1727345508379,-1.0185547,0.0146484375,0.024414062,0.5,0.21875,0.09375
574,574,1727345508419,-1.0097656,0.0146484375,0.029296875,0.25,0.09375,0.21875
575,575,1727345508459,-1.0126953,0.016601562,0.02734375,-0.0625,0.15625,0.0625
576,576,1727345508499,-1.0195312,0.017578125,0.022460938,-0.0625,-0.125,0.0
577,577,1727345508539,-1.0166016,0.021484375,0.0234375,-0.0625,0.0,-0.0625
578,578,1727345508579,-1.0136719,0.026367188,0.032226562,0.1875,0.21875,0.0
579,579,1727345508619,-1.0039062,0.01953125,0.03125,0.0,0.34375,0.53125
580,580,1727345508659,-1.0107422,0.021484375,0.026367188,0.0,0.59375,0.40625
581,581,1727345508699,-1.0185547,0.017578125,0.03125,0.375,0.15625,0.40625
582,582,1727345508739,-1.0244141,0.017578125,0.029296875,-0.4375,0.09375,0.40625
583,583,1727345508779,-1.0175781,0.015625,0.015625,-0.125,0.09375,0.21875
584,584,1727345508819,-1.0283203,0.0107421875,0.0234375,0.0625,0.15625,0.34375
585,585,1727345508859,-1.0087891,0.024414062,0.022460938,0.0625,0.28125,0.09375
586,586,1727345508899,-1.0,0.025390625,0.034179688,0.3125,0.21875,0.21875
587,587,1727345508939,-1.0185547,0.026367188,0.028320312,0.0625,0.15625,0.28125
588,588,1727345508979,-1.0097656,0.018554688,0.021484375,0.0625,0.28125,0.15625
589,589,1727345509019,-1.0166016,0.021484375,0.021484375,0.125,0.34375,0.28125
590,590,1727345509059,-1.0126953,0.0234375,0.016601562,0.1875,0.09375,0.34375
591,591,1727345509099,-1.0068359,0.025390625,0.032226562,0.0625,0.15625,0.34375
592,592,1727345509139,-1.0205078,0.032226562,0.030273438,-0.5,0.03125,0.0625
593,593,1727345509179,-1.0205078,0.030273438,0.016601562,-0.96875,-0.125,-0.3125
594,594,1727345509219,-1.0166016,0.028320312,0.0234375,-1.34375,0.21875,-0.0625
595,595,1727345509259,-1.0175781,0.022460938,0.024414062,-0.90625,-0.0625,0.21875
596,596,1727345509299,-1.0058594,0.009765625,0.028320312,-0.375,0.15625,0.28125
597,597,1727345509339,-1.0107422,0.021484375,0.036132812,0.375,0.53125,0.59375
598,598,1727345509379,-1.0175781,0.01953125,0.040039062,0.96875,0.34375,0.53125
599,599,1727345509419,-1.0185547,0.021484375,0.01171875,1.40625,0.53125,0.34375
600,600,1727345509459,-1.0087891,0.025390625,0.016601562,0.84375,-0.125,0.15625
601,601,1727345509499,-1.0078125,0.024414062,0.021484375,0.1875,-0.125,0.0
602,602,1727345509539,-1.0166016,0.017578125,0.025390625,0.25,0.34375,0.0
603,603,1727345509579,-1.0097656,0.022460938,0.03515625,0.125,0.0,0.0
604,604,1727345509619,-1.0205078,0.03125,0.018554688,-0.0625,-0.0625,0.15625
605,605,1727345509659,-1.0166016,0.025390625,0.032226562,0.3125,0.21875,-0.0625
606,606,1727345509699,-1.0039062,0.0234375,0.032226562,0.25,0.21875,0.0
607,607,1727345509739,-1.0166016,0.024414062,0.015625,0.125,0.09375,0.0625
608,608,1727345509779,-1.0126953,0.0234375,0.017578125,-0.0625,-0.0625,0.0
609,609,1727345509819,-1.0117188,0.034179688,0.01171875,-0.0625,0.0,-0.1875
610,610,1727345509859,-1.0185547,0.01953125,0.0068359375,-0.5625,0.0,0.0
611,611,1727345509899,-1.0078125,0.03125,0.017578125,-0.71875,-0.0625,-0.0625
612,612,1727345509939,-1.0195312,0.015625,0.022460938,-0.25,0.03125,-0.125
613,613,1727345509979,-1.0146484,0.030273438,0.02734375,-0.0625,-0.125,-0.125
614,614,1727345510019,-1.0078125,0.02734375,0.022460938,0.1875,-0.125,-0.0625
615,615,1727345510059,-1.0205078,0.024414062,0.024414062,0.0625,-0.125,-0.0625
616,616,1727345510099,-1.0068359,0.030273438,0.016601562,-0.0625,-0.125,-0.0625
617,617,1727345510139,-1.0195312,0.0234375,0.028320312,-0.0625,-0.0625,-0.1875
618,618,1727345510179,-1.0185547,0.0234375,0.030273438,-0.0625,-0.25,-0.1875
619,619,1727345510219,-1.015625,0.018554688,0.017578125,-0.125,0.0,-0.0625
620,620,1727345510259,-1.015625,0.024414062,0.015625,-0.125,0.0,-0.0625
621,621,1727345510299,-1.0205078,0.022460938,0.02734375,-0.0625,-0.1875,-0.1875
622,622,1727345510339,-1.0107422,0.022460938,0.025390625,-0.25,-0.25,-0.1875
623,623,1727345510379,-1.0107422,0.020507812,0.024414062,-0.0625,-0.4375,-0.1875
624,624,1727345510419,-1.0205078,0.036132812,0.020507812,0.375,-0.1875,-0.1875
625,625,1727345510459,-1.0117188,0.022460938,0.021484375,-0.0625,0.09375,-0.0625
626,626,1727345510499,-1.0136719,0.037109375,0.026367188,-0.0625,-0.1875,-0.125
627,627,1727345510539,-1.0214844,0.01953125,0.030273438,-0.0625,0.0,-0.125
628,628,1727345510579,-1.0078125,0.017578125,0.034179688,0.5,0.21875,-0.125
629,629,1727345510619,-1.0107422,0.02734375,0.01953125,0.5625,0.21875,0.21875
630,630,1727345510659,-1.0146484,0.0126953125,0.034179688,0.625,0.46875,0.53125
631,631,1727345510699,-1.015625,0.026367188,0.026367188,0.5625,0.53125,0.59375
632,632,1727345510739,-1.015625,0.020507812,0.026367188,0.4375,0.34375,0.34375
633,633,1727345510779,-1.0175781,0.03125,0.025390625,0.5625,0.09375,-0.0625
634,634,1727345510819,-1.0146484,0.028320312,0.018554688,0.3125,-0.25,-0.375
635,635,1727345510859,-1.0097656,0.0234375,0.020507812,0.1875,-0.25,-0.375
636,636,1727345510899,-1.0126953,0.028320312,0.0146484375,0.5625,-0.25,-0.375
637,637,1727345510939,-1.0205078,0.0234375,0.030273438,0.25,-0.0625,-0.3125
638,638,1727345510979,-1.0166016,0.0234375,0.02734375,0.3125,-0.375,-0.25
639,639,1727345511019,-1.0185547,0.017578125,0.026367188,-0.1875,-0.3125,-0.25
640,640,1727345511059,-1.0175781,0.0234375,0.029296875,-0.0625,-0.1875,-0.25
641,641,1727345511099,-1.0126953,0.03125,0.022460938,-0.125,-0.1875,-0.0625
642,642,1727345511139,-1.015625,0.018554688,0.026367188,-0.25,-0.4375,-0.1875
643,643,1727345511179,-1.0175781,0.01953125,0.013671875,-0.0625,-0.375,-0.375
644,644,1727345511219,-1.0166016,0.024414062,0.032226562,-0.0625,-0.5,-0.6875
645,645,1727345511259,-1.0136719,0.030273438,0.024414062,-0.59375,-0.5625,-0.4375
646,646,1727345511299,-1.0146484,0.016601562,0.0234375,-0.375,0.0,0.0
647,647,1727345511339,-1.0146484,0.021484375,0.03125,0.1875,0.34375,0.09375
648,648,1727345511379,-1.0146484,0.020507812,0.028320312,0.1875,0.03125,0.21875
649,649,1727345511419,-1.0126953,0.0234375,0.03515625,-0.0625,0.0,0.0625
650,650,1727345511459,-1.0126953,0.02734375,0.0234375,-0.25,0.0,-0.25
651,651,1727345511499,-1.0166016,0.018554688,0.02734375,-0.5625,-0.1875,-0.125
652,652,1727345511539,-1.0097656,0.0234375,0.025390625,0.0,-0.0625,-0.125
653,653,1727345511579,-1.0087891,0.021484375,0.032226562,0.0625,0.03125,0.09375
654,654,1727345511619,-1.0126953,0.021484375,0.02734375,-0.375,0.15625,0.28125
655,655,1727345511659,-1.0195312,0.021484375,0.029296875,-0.0625,0.15625,0.09375
656,656,1727345511699,-1.0166016,0.017578125,0.032226562,0.1875,0.28125,0.28125
657,657,1727345511739,-1.0107422,0.025390625,0.025390625,0.5,0.03125,0.09375
658,658,1727345511779,-1.0136719,0.026367188,0.018554688,0.0,0.09375,-0.0625
659,659,1727345511819,-1.0107422,0.026367188,0.028320312,0.0,0.03125,0.09375
660,660,1727345511859,-1.0195312,0.02734375,0.032226562,0.1875,0.15625,0.28125
661,661,1727345511899,-1.0205078,0.020507812,0.032226562,-0.125,0.21875,0.15625
662,662,1727345511939,-1.0166016,0.033203125,0.034179688,-0.1875,0.09375,0.0625
663,663,1727345511979,-1.0107422,0.032226562,0.02734375,-0.4375,0.0,0.09375
664,664,1727345512019,-1.0185547,0.020507812,0.022460938,-0.125,0.15625,0.21875
665,665,1727345512059,-1.0175781,0.017578125,0.020507812,-0.0625,0.09375,0.15625
666,666,1727345512099,-1.0107422,0.01953125,0.024414062,-0.4375,0.0,0.0
667,667,1727345512139,-1.0234375,0.028320312,0.024414062,0.0,-0.15625,-0.03125
668,668,1727345512179,-1.0234375,0.0126953125,0.016601562,-0.1875,-0.03125,0.03125
669,669,1727345512219,-1.0126953,0.026367188,0.018554688,0.21875,0.21875,0.15625
670,670,1727345512259,-1.0097656,0.02734375,0.032226562,0.0625,-0.03125,0.09375
671,671,1727345512299,-1.0117188,0.020507812,0.033203125,0.21875,0.15625,-0.03125
672,672,1727345512339,-1.0175781,0.024414062,0.02734375,0.78125,0.09375,0.09375
673,673,1727345512379,-1.0175781,0.026367188,0.028320312,0.46875,0.15625,0.15625
674,674,1727345512419,-1.0107422,0.01171875,0.02734375,0.21875,0.40625,0.1875
675,675,1727345512459,-1.0097656,0.028320312,0.024414062,0.21875,0.28125,0.25
676,676,1727345512499,-1.015625,0.0234375,0.0146484375,-0.0625,-0.09375,0.1875
677,677,1727345512539,-1.0117188,0.03125,0.033203125,-0.375,0.03125,0.09375
678,678,1727345512579,-1.0175781,0.026367188,0.032226562,-0.1875,0.15625,0.09375
679,679,1727345512619,-1.0185547,0.026367188,0.022460938,-0.0625,0.09375,0.15625
680,680,1727345512659,-1.0107422,0.020507812,0.01953125,-0.375,0.21875,0.25
681,681,1727345512699,-1.0185547,0.013671875,0.017578125,0.09375,0.15625,0.03125
682,682,1727345512739,-1.0175781,0.028320312,0.03125,-0.25,0.03125,0.03125
683,683,1727345512779,-1.0146484,0.020507812,0.025390625,-0.1875,0.28125,0.1875
684,684,1727345512819,-1.0117188,0.017578125,0.033203125,0.21875,0.21875,0.25
685,685,1727345512859,-1.0175781,0.02734375,0.030273438,0.15625,0.28125,0.25
686,686,1727345512899,-1.0185547,0.022460938,0.017578125,0.21875,-0.03125,0.03125
687,687,1727345512939,-1.015625,0.024414062,0.0234375,0.21875,0.09375,0.09375
688,688,1727345512979,-1.0224609,0.024414062,0.02734375,0.28125,0.21875,0.1875
689,689,1727345513019,-1.0117188,0.024414062,0.030273438,0.15625,0.21875,0.3125
690,690,1727345513059,-1.0205078,0.021484375,0.026367188,-0.125,0.15625,0.15625
691,691,1727345513099,-1.0166016,0.024414062,0.021484375,-0.1875,0.15625,-0.03125
692,692,1727345513139,-1.015625,0.022460938,0.018554688,-0.375,0.03125,0.09375
693,693,1727345513179,-1.0107422,0.017578125,0.020507812,-0.1875,0.03125,0.15625
694,694,1727345513219,-1.0175781,0.028320312,0.020507812,-0.5,0.09375,0.15625
695,695,1727345513259,-1.0146484,0.024414062,0.025390625,-0.3125,0.21875,0.09375
696,696,1727345513299,-1.0175781,0.036132812,0.0234375,0.15625,0.21875,0.25
697,697,1727345513339,-1.0166016,0.029296875,0.03515625,-0.3125,0.21875,0.375
698,698,1727345513379,-1.0117188,0.030273438,0.036132812,-0.0625,0.09375,0.3125
699,699,1727345513419,-1.0039062,0.018554688,0.01953125,-0.25,0.15625,0.3125
700,700,1727345513459,-1.0126953,0.01953125,0.021484375,0.53125,0.09375,0.15625
701,701,1727345513499,-1.0126953,0.026367188,0.030273438,0.28125,0.21875,0.1875
702,702,1727345513539,-1.0166016,0.025390625,0.013671875,0.0,0.03125,0.15625
703,703,1727345513579,-1.0136719,0.020507812,0.026367188,-0.0625,0.03125,0.3125
704,704,1727345513619,-1.0126953,0.015625,0.03125,-0.0625,0.21875,0.375
705,705,1727345513659,-1.0195312,0.021484375,0.017578125,0.0625,0.15625,0.25
706,706,1727345513699,-1.0146484,0.034179688,0.01953125,0.0625,0.15625,0.3125
707,707,1727345513739,-1.0126953,0.025390625,0.015625,-0.25,0.21875,0.3125
708,708,1727345513779,-1.0117188,0.026367188,0.030273438,0.0625,0.03125,0.25
709,709,1727345513819,-1.0078125,0.028320312,0.025390625,-0.0625,0.09375,0.25
710,710,1727345513859,-1.0166016,0.024414062,0.025390625,-0.0625,-0.03125,0.375
711,711,1727345513899,-1.0146484,0.026367188,0.0126953125,-0.3125,0.21875,0.3125
712,712,1727345513939,-1.0166016,0.021484375,0.028320312,-0.3125,0.28125,0.3125
713,713,1727345513979,-1.015625,0.02734375,0.022460938,-0.1875,0.28125,0.15625
714,714,1727345514019,-1.0185547,0.01171875,0.03125,0.09375,0.46875,0.3125
715,715,1727345514059,-1.0126953,0.021484375,0.024414062,0.34375,-0.03125,0.25
716,716,1727345514099,-1.0097656,0.025390625,0.020507812,0.0,0.09375,-0.09375
717,717,1727345514139,-1.0087891,0.028320312,0.043945312,-0.0625,-0.03125,-0.03125
718,718,1727345514179,-1.0126953,0.024414062,0.0029296875,0.0,-0.03125,0.1875
719,719,1727345514219,-1.0117188,0.0146484375,0.022460938,0.21875,0.5,0.375
720,720,1727345514259,-1.0126953,0.02734375,0.029296875,0.09375,0.21875,0.25
721,721,1727345514299,-1.0117188,0.0234375,0.020507812,-0.25,0.15625,0.09375
722,722,1727345514339,-1.0185547,0.024414062,0.03515625,0.15625,0.40625,0.09375
723,723,1727345514379,-1.0214844,0.036132812,0.017578125,-0.0625,-0.09375,0.09375
724,724,1727345514419,-1.0136719,0.024414062,0.017578125,-0.125,-0.03125,-0.03125
725,725,1727345514459,-1.015625,0.01953125,0.0078125,0.34375,0.21875,0.1875
726,726,1727345514499,-1.015625,0.030273438,0.022460938,-0.125,0.09375,0.375
727,727,1727345514539,-1.0175781,0.024414062,0.020507812,-0.1875,0.15625,0.1875
728,728,1727345514579,-1.0166016,0.028320312,0.022460938,-0.125,0.03125,-0.09375
729,729,1727345514619,-1.0078125,0.024414062,0.0126953125,0.34375,-0.09375,-0.21875
730,730,1727345514659,-1.0087891,0.022460938,0.024414062,0.34375,-0.15625,-0.28125
731,731,1727345514699,-1.0117188,0.02734375,0.0234375,0.28125,0.21875,-0.03125
732,732,1727345514739,-1.0234375,0.03125,0.018554688,0.15625,0.21875,0.3125
733,733,1727345514779,-1.0146484,0.0234375,0.0126953125,-0.15625,-0.09375,-0.15625
734,734,1727345514819,-1.0087891,0.03125,0.022460938,-0.34375,-0.21875,-0.34375
735,735,1727345514859,-1.0117188,0.02734375,0.020507812,-0.28125,-0.28125,-0.40625
736,736,1727345514899,-1.0117188,0.01953125,0.018554688,-0.34375,-0.09375,-0.34375
737,737,1727345514939,-1.0087891,0.016601562,0.024414062,-0.03125,-0.21875,-0.46875
738,738,1727345514979,-1.0126953,0.029296875,0.03515625,-0.34375,-0.28125,-0.34375
739,739,1727345515019,-1.0136719,0.029296875,0.01953125,-0.03125,-0.28125,-0.34375
740,740,1727345515059,-1.0117188,0.026367188,0.026367188,-0.03125,-0.21875,-0.21875
741,741,1727345515099,-1.0146484,0.026367188,0.020507812,-0.03125,-0.09375,-0.15625
742,742,1727345515139,-1.0097656,0.01171875,0.030273438,-0.09375,-0.15625,-0.09375
743,743,1727345515179,-1.0195312,0.025390625,0.034179688,0.03125,-0.09375,-0.28125
744,744,1727345515219,-1.0175781,0.022460938,0.028320312,0.625,-0.34375,-0.34375
745,745,1727345515259,-1.0097656,0.026367188,0.03125,0.28125,-0.21875,-0.21875
746,746,1727345515299,-1.0068359,0.025390625,0.030273438,0.15625,-0.0625,-0.34375
747,747,1727345515339,-1.0136719,0.032226562,0.026367188,0.09375,-0.0625,-0.34375
748,748,1727345515379,-1.0029297,0.026367188,0.024414062,-0.03125,-0.15625,-0.28125
749,749,1727345515419,-1.015625,0.025390625,0.01953125,-0.09375,0.0,0.03125
750,750,1727345515459,-1.0087891,0.029296875,0.03515625,-0.03125,0.25,-0.03125
751,751,1727345515499,-1.0195312,0.024414062,0.028320312,-0.53125,0.0625,-0.21875
752,752,1727345515539,-1.0087891,0.02734375,0.036132812,-0.40625,-0.15625,-0.40625
753,753,1727345515579,-1.0068359,0.020507812,0.025390625,-0.03125,-0.09375,-0.46875
754,754,1727345515619,-1.0146484,0.021484375,0.022460938,0.28125,-0.15625,-0.15625
755,755,1727345515659,-1.0097656,0.024414062,0.017578125,-0.28125,-0.0625,-0.15625
756,756,1727345515699,-1.0175781,0.022460938,0.015625,-0.09375,-0.09375,-0.15625
757,757,1727345515739,-1.0214844,0.016601562,0.033203125,0.03125,-0.09375,-0.21875
758,758,1727345515779,-1.0166016,0.016601562,0.020507812,0.59375,-0.0625,-0.34375
759,759,1727345515819,-1.0107422,0.021484375,0.032226562,0.46875,-0.09375,-0.34375
