,Unnamed: 0,timestamp,accel_x,accel_y,accel_z,gyro_x,gyro_y,gyro_z
0,0,1727895605242,-0.984375,-0.17675781,-0.10644531,0.875,0.75,0.03125
1,1,1727895605282,-0.98046875,-0.18164062,-0.09082031,1.5,0.40625,0.34375
2,2,1727895605322,-0.9794922,-0.1796875,-0.078125,-0.15625,-0.15625,-0.09375
3,3,1727895605362,-0.9794922,-0.17578125,-0.095703125,-1.1875,-0.15625,-0.09375
4,4,1727895605402,-0.9736328,-0.18359375,-0.1015625,-0.15625,-0.15625,0.46875
5,5,1727895605442,-0.97558594,-0.18945312,-0.103515625,-0.03125,0.21875,0.09375
6,6,1727895605482,-0.98046875,-0.18066406,-0.09375,-1.0,-0.40625,-0.09375
7,7,1727895605522,-0.9892578,-0.18359375,-0.109375,-1.625,-0.46875,-0.09375
8,8,1727895605562,-0.97753906,-0.18359375,-0.107421875,0.46875,0.59375,0.09375
9,9,1727895605602,-0.984375,-0.18066406,-0.09277344,0.875,0.21875,0.15625
10,10,1727895605642,-0.98046875,-0.19628906,-0.10546875,-0.53125,-1.625,-0.03125
11,11,1727895605682,-0.9814453,-0.17089844,-0.103515625,-1.875,0.875,-1.0625
12,12,1727895605722,-0.9863281,-0.18164062,-0.09472656,2.84375,0.28125,0.46875
13,13,1727895605762,-0.9814453,-0.18261719,-0.08691406,0.28125,-0.28125,-0.28125
14,14,1727895605802,-0.9794922,-0.171875,-0.095703125,0.6875,0.8125,-0.40625
15,15,1727895605842,-0.9921875,-0.1796875,-0.08886719,1.625,-0.34375,-0.09375
16,16,1727895605882,-0.9824219,-0.18554688,-0.09765625,-1.6875,-1.4375,-0.34375
17,17,1727895605922,-0.97558594,-0.17382812,-0.10644531,1.0,-0.15625,-0.03125
18,18,1727895605962,-0.9873047,-0.18457031,-0.08984375,3.875,1.25,0.5625
19,19,1727895606002,-0.9746094,-0.18554688,-0.080078125,0.28125,0.15625,-0.03125
20,20,1727895606042,-0.98535156,-0.17773438,-0.09863281,-1.25,-0.875,-0.53125
21,21,1727895606082,-0.9863281,-0.18066406,-0.08886719,0.875,-0.09375,-0.21875
22,22,1727895606122,-0.9794922,-0.18261719,-0.08984375,-0.03125,-0.8125,-0.46875
23,23,1727895606162,-0.9785156,-0.17773438,-0.10546875,-0.75,-0.40625,-0.65625
24,24,1727895606202,-0.984375,-0.17285156,-0.09375,1.0,0.46875,-0.40625
25,25,1727895606242,-0.9814453,-0.18261719,-0.0859375,0.09375,-0.6875,-0.34375
26,26,1727895606282,-0.9814453,-0.18164062,-0.10449219,-1.0,-1.25,-0.28125
27,27,1727895606322,-0.98046875,-0.17773438,-0.10253906,0.53125,1.125,-0.15625
28,28,1727895606362,-0.9902344,-0.18652344,-0.09472656,0.15625,-0.09375,-0.03125
29,29,1727895606402,-0.9736328,-0.17773438,-0.107421875,-2.28125,-0.8125,-0.65625
30,30,1727895606442,-0.9765625,-0.17578125,-0.0859375,2.21875,0.875,0.21875
31,31,1727895606482,-0.98046875,-0.18847656,-0.080078125,3.09375,2.53125,-0.03125
32,32,1727895606522,-0.99121094,-0.18359375,-0.083984375,1.6875,0.59375,-0.53125
33,33,1727895606562,-0.9863281,-0.17773438,-0.0859375,-1.625,-1.75,-0.875
34,34,1727895606602,-0.98046875,-0.18066406,-0.09863281,-0.875,-1.5,-0.53125
35,35,1727895606642,-0.96777344,-0.18457031,-0.10644531,0.8125,-0.59375,-0.40625
36,36,1727895606682,-0.9794922,-0.18457031,-0.09667969,1.5,1.5625,0.15625
37,37,1727895606722,-0.984375,-0.20214844,-0.0859375,2.59375,1.5,0.34375
38,38,1727895606762,-0.98535156,-0.17773438,-0.078125,-1.25,-0.75,-0.46875
39,39,1727895606802,-0.97753906,-0.18261719,-0.109375,-2.40625,-2.15625,-0.53125
40,40,1727895606842,-0.9716797,-0.19140625,-0.103515625,0.21875,-0.75,-0.40625
41,41,1727895606882,-0.97753906,-0.18066406,-0.09472656,2.28125,1.0,0.03125
42,42,1727895606922,-0.9873047,-0.19042969,-0.08691406,1.3125,0.9375,0.21875
43,43,1727895606962,-0.9892578,-0.18945312,-0.08984375,0.53125,0.46875,-0.21875
44,44,1727895607002,-0.98535156,-0.17382812,-0.09277344,-1.0,-0.625,-0.21875
45,45,1727895607042,-0.9794922,-0.18945312,-0.10644531,-0.53125,-0.46875,-0.09375
46,46,1727895607082,-0.9863281,-0.1796875,-0.09667969,1.5625,0.9375,-0.03125
47,47,1727895607122,-0.98339844,-0.17773438,-0.083984375,0.28125,-0.59375,-0.03125
48,48,1727895607162,-0.97753906,-0.19042969,-0.09375,-3.21875,-2.03125,-0.09375
49,49,1727895607202,-0.9707031,-0.19238281,-0.091796875,1.4375,0.71875,0.28125
50,50,1727895607242,-0.97753906,-0.17773438,-0.07324219,1.96875,1.4375,-0.15625
51,51,1727895607282,-0.9814453,-0.19140625,-0.09667969,-2.21875,-1.5,-0.03125
52,52,1727895607322,-0.9765625,-0.18457031,-0.111328125,-0.03125,0.28125,-0.03125
53,53,1727895607362,-0.98046875,-0.18359375,-0.08691406,1.4375,0.21875,0.09375
54,54,1727895607402,-0.9785156,-0.19921875,-0.09765625,-0.53125,-0.8125,0.09375
55,55,1727895607442,-0.9824219,-0.18359375,-0.10253906,0.21875,1.4375,0.03125
56,56,1727895607482,-0.9873047,-0.18945312,-0.09277344,2.03125,0.34375,0.46875
57,57,1727895607522,-0.9824219,-0.19042969,-0.09667969,-0.875,-0.40625,-0.28125
58,58,1727895607562,-0.97265625,-0.18359375,-0.103515625,-1.5625,-0.21875,-0.21875
59,59,1727895607602,-0.96972656,-0.18359375,-0.10449219,1.0625,0.09375,0.40625
60,60,1727895607642,-0.99121094,-0.18554688,-0.10644531,1.6875,2.34375,0.28125
61,61,1727895607682,-0.9785156,-0.18847656,-0.08105469,2.15625,1.25,0.46875
62,62,1727895607722,-0.9746094,-0.18359375,-0.09082031,-3.4375,-1.5,-0.40625
63,63,1727895607762,-0.98535156,-0.18066406,-0.11230469,-1.125,0.15625,-0.15625
64,64,1727895607802,-0.9892578,-0.19335938,-0.087890625,3.03125,2.34375,0.46875
65,65,1727895607842,-0.98535156,-0.17480469,-0.076171875,-0.09375,-0.875,-0.28125
66,66,1727895607882,-0.9746094,-0.1796875,-0.111328125,-3.4375,-1.1875,-0.21875
67,67,1727895607922,-0.984375,-0.19433594,-0.107421875,1.25,1.625,0.5
68,68,1727895607962,-0.98535156,-0.18359375,-0.06738281,1.125,1.75,-0.09375
69,69,1727895608002,-0.99121094,-0.18847656,-0.07128906,-1.5625,-1.0625,-0.28125
70,70,1727895608042,-0.9873047,-0.19042969,-0.09375,-1.375,-0.8125,-0.09375
71,71,1727895608082,-0.96972656,-0.17578125,-0.099609375,0.40625,0.46875,-0.09375
72,72,1727895608122,-0.97753906,-0.19042969,-0.10449219,0.625,0.875,0.15625
73,73,1727895608162,-0.98046875,-0.18554688,-0.09375,0.34375,0.8125,0.15625
74,74,1727895608202,-0.97753906,-0.18945312,-0.095703125,1.125,0.34375,0.28125
75,75,1727895608242,-0.984375,-0.19042969,-0.08984375,0.09375,0.34375,0.21875
76,76,1727895608282,-0.984375,-0.19140625,-0.091796875,0.6875,0.40625,0.15625
77,77,1727895608322,-0.9863281,-0.18164062,-0.087890625,-0.46875,0.71875,-0.59375
78,78,1727895608362,-0.97265625,-0.17675781,-0.10253906,-0.46875,-0.46875,-0.53125
79,79,1727895608402,-0.98535156,-0.18457031,-0.103515625,1.8125,0.46875,-0.09375
80,80,1727895608442,-0.97558594,-0.18066406,-0.091796875,0.625,1.125,-0.28125
81,81,1727895608482,-0.98535156,-0.1875,-0.09375,-0.875,-0.625,-0.28125
82,82,1727895608522,-0.98046875,-0.17675781,-0.10546875,-1.96875,-1.1875,-0.28125
83,83,1727895608562,-0.96777344,-0.18164062,-0.107421875,0.75,-1.0,0.34375
84,84,1727895608602,-0.98535156,-0.17675781,-0.10449219,-0.75,0.9375,0.5
85,85,1727895608642,-0.9638672,-0.19921875,-0.10449219,1.5,1.25,0.625
86,86,1727895608682,-0.9873047,-0.18945312,-0.07910156,-1.0625,-0.03125,-0.21875
87,87,1727895608722,-0.98339844,-0.18847656,-0.10644531,-2.09375,-1.125,-0.46875
88,88,1727895608762,-0.9765625,-0.18847656,-0.109375,-0.75,-0.40625,-0.34375
89,89,1727895608802,-0.97265625,-0.18261719,-0.10058594,1.8125,0.9375,-0.03125
90,90,1727895608842,-0.98046875,-0.1796875,-0.09082031,1.3125,0.46875,0.09375
91,91,1727895608882,-0.9746094,-0.1796875,-0.109375,0.6875,0.34375,-0.28125
92,92,1727895608922,-0.97753906,-0.18945312,-0.08886719,1.25,0.28125,-0.34375
93,93,1727895608962,-0.9794922,-0.16992188,-0.11621094,-2.09375,-1.0625,-0.09375
94,94,1727895609002,-0.98828125,-0.18457031,-0.11328125,1.4375,0.75,0.09375
95,95,1727895609042,-0.9765625,-0.1796875,-0.08984375,3.03125,0.09375,0.46875
96,96,1727895609082,-0.9863281,-0.1875,-0.1015625,-2.28125,-1.375,-0.40625
97,97,1727895609122,-0.98339844,-0.18261719,-0.10253906,-1.6875,-0.15625,-0.40625
98,98,1727895609162,-0.9814453,-0.19140625,-0.083984375,0.9375,0.9375,0.09375
99,99,1727895609202,-0.98046875,-0.18359375,-0.0859375,-0.875,-0.59375,-0.09375
100,100,1727895609242,-0.9746094,-0.18652344,-0.10449219,-0.65625,-1.0,-0.15625
101,101,1727895609282,-0.9814453,-0.18066406,-0.09863281,-0.09375,-0.59375,-0.40625
102,102,1727895609322,-0.9716797,-0.18945312,-0.09277344,-2.46875,0.03125,-0.03125
103,103,1727895609362,-0.9765625,-0.1796875,-0.095703125,0.75,-0.03125,0.34375
104,104,1727895609402,-0.9814453,-0.18359375,-0.09765625,1.0625,1.0,-0.09375
105,105,1727895609442,-0.98046875,-0.18359375,-0.07714844,-1.6875,-0.875,-0.40625
106,106,1727895609482,-0.9716797,-0.18457031,-0.10644531,-2.15625,-2.40625,-0.34375
107,107,1727895609522,-0.97753906,-0.18457031,-0.12207031,0.34375,0.46875,-0.03125
108,108,1727895609562,-0.984375,-0.17480469,-0.091796875,2.84375,1.25,0.34375
109,109,1727895609602,-0.9785156,-0.18554688,-0.09375,-0.40625,-0.53125,0.03125
110,110,1727895609642,-0.9785156,-0.18164062,-0.08984375,-0.6875,-0.03125,0.03125
111,111,1727895609682,-0.9746094,-0.19433594,-0.099609375,-0.03125,0.15625,0.15625
112,112,1727895609722,-0.9892578,-0.18164062,-0.076171875,-0.03125,0.28125,-0.03125
113,113,1727895609762,-0.9736328,-0.18457031,-0.08496094,-0.8125,-0.46875,-0.03125
114,114,1727895609802,-0.98535156,-0.18457031,-0.09667969,-0.21875,-0.75,0.28125
115,115,1727895609842,-0.98339844,-0.19335938,-0.091796875,0.8125,1.4375,0.28125
116,116,1727895609882,-0.984375,-0.19042969,-0.08203125,-0.40625,-0.34375,0.28125
117,117,1727895609922,-0.9716797,-0.18554688,-0.09765625,-1.96875,-0.21875,-0.21875
118,118,1727895609962,-0.98046875,-0.17871094,-0.09863281,0.8125,0.875,0.15625
119,119,1727895610002,-0.9794922,-0.18066406,-0.091796875,-0.28125,-0.6875,0.46875
120,120,1727895610042,-0.97558594,-0.1796875,-0.10449219,-3.375,-1.125,-0.03125
121,121,1727895610082,-0.9794922,-0.19628906,-0.1015625,2.28125,1.625,0.46875
122,122,1727895610122,-0.9785156,-0.17871094,-0.09277344,1.4375,1.3125,0.09375
123,123,1727895610162,-0.9892578,-0.18457031,-0.099609375,-1.96875,-1.0625,-0.28125
124,124,1727895610202,-0.9785156,-0.17675781,-0.09863281,-1.125,-0.625,-0.28125
125,125,1727895610242,-0.98339844,-0.18554688,-0.09667969,1.1875,1.0625,0.15625
126,126,1727895610282,-0.9746094,-0.18457031,-0.09765625,1.375,0.46875,0.28125
127,127,1727895610322,-0.9794922,-0.18261719,-0.09277344,-1.0625,0.46875,-0.28125
128,128,1727895610362,-0.9814453,-0.1796875,-0.10058594,-0.40625,-0.40625,0.09375
129,129,1727895610402,-0.97753906,-0.19042969,-0.09667969,-1.0,-0.03125,0.03125
130,130,1727895610442,-0.9736328,-0.17773438,-0.11035156,-0.03125,0.28125,-0.15625
131,131,1727895610482,-0.97558594,-0.18359375,-0.1015625,1.5625,0.21875,0.28125
132,132,1727895610522,-0.97265625,-0.19726562,-0.099609375,-0.75,0.28125,-0.15625
133,133,1727895610562,-0.9863281,-0.18847656,-0.107421875,-0.9375,0.34375,-0.21875
134,134,1727895610602,-0.98046875,-0.18164062,-0.09765625,-0.9375,-0.46875,-0.21875
135,135,1727895610642,-0.9746094,-0.19140625,-0.11816406,0.09375,-0.34375,0.03125
136,136,1727895610682,-0.9814453,-0.17480469,-0.10253906,0.625,0.71875,-0.21875
137,137,1727895610722,-0.98046875,-0.18359375,-0.107421875,-0.40625,-0.53125,0.34375
138,138,1727895610762,-0.9794922,-0.19238281,-0.10253906,0.8125,1.1875,-0.03125
139,139,1727895610802,-0.98339844,-0.18457031,-0.08984375,0.15625,0.875,-0.09375
140,140,1727895610842,-0.9785156,-0.1875,-0.10546875,-0.15625,-0.46875,-0.09375
141,141,1727895610882,-0.9814453,-0.16992188,-0.111328125,0.03125,-0.15625,-0.28125
142,142,1727895610922,-0.9794922,-0.18261719,-0.10644531,0.625,0.28125,0.03125
143,143,1727895610962,-0.9736328,-0.18359375,-0.10058594,0.6875,0.46875,0.15625
144,144,1727895611002,-0.9707031,-0.20019531,-0.09277344,0.59375,1.0,0.15625
145,145,1727895611042,-0.9736328,-0.18457031,-0.09277344,0.15625,0.15625,0.09375
146,146,1727895611082,-0.9794922,-0.19042969,-0.10253906,-1.875,-1.1875,-0.21875
147,147,1727895611122,-0.9814453,-0.17382812,-0.10839844,1.1875,0.9375,-0.03125
148,148,1727895611162,-0.97753906,-0.19042969,-0.091796875,0.34375,0.34375,-0.09375
149,149,1727895611202,-0.9746094,-0.18945312,-0.11621094,-1.125,-0.46875,-0.53125
150,150,1727895611242,-0.98046875,-0.18066406,-0.10449219,1.125,0.34375,-0.09375
151,151,1727895611282,-0.9794922,-0.18554688,-0.09863281,-0.40625,-0.03125,-0.21875
152,152,1727895611322,-0.9814453,-0.17773438,-0.095703125,0.03125,-0.09375,-0.28125
153,153,1727895611362,-0.984375,-0.16601562,-0.103515625,-1.125,-0.53125,-0.03125
154,154,1727895611402,-0.98535156,-0.18261719,-0.095703125,0.9375,0.28125,0.28125
155,155,1727895611442,-0.98046875,-0.18457031,-0.11035156,1.0,0.46875,-0.03125
156,156,1727895611482,-0.97558594,-0.17285156,-0.08886719,-0.09375,-0.28125,0.03125
157,157,1727895611522,-0.98339844,-0.17871094,-0.103515625,0.46875,0.03125,0.03125
158,158,1727895611562,-0.97753906,-0.17675781,-0.10449219,-0.53125,-0.6875,-0.46875
159,159,1727895611602,-0.98046875,-0.171875,-0.10644531,0.8125,0.46875,-0.09375
160,160,1727895611642,-0.9794922,-0.18164062,-0.09667969,0.28125,-0.59375,0.15625
161,161,1727895611682,-0.98046875,-0.1796875,-0.099609375,0.28125,0.65625,-0.15625
162,162,1727895611722,-0.9902344,-0.1796875,-0.099609375,0.875,-0.21875,0.09375
163,163,1727895611762,-0.98339844,-0.1875,-0.09765625,-1.75,-1.1875,-0.28125
164,164,1727895611802,-0.9785156,-0.17871094,-0.09667969,-0.15625,0.21875,0.09375
165,165,1727895611842,-0.97265625,-0.19042969,-0.09277344,1.96875,0.34375,0.28125
166,166,1727895611882,-0.9785156,-0.18847656,-0.08691406,-1.375,-0.40625,-0.34375
167,167,1727895611922,-0.9736328,-0.18359375,-0.11621094,-1.375,-0.875,-0.09375
168,168,1727895611962,-0.9736328,-0.19042969,-0.10839844,0.75,0.53125,-0.09375
169,169,1727895612002,-0.98339844,-0.18457031,-0.095703125,0.625,0.15625,0.03125
170,170,1727895612042,-0.984375,-0.1796875,-0.09375,-1.0,-0.59375,0.03125
171,171,1727895612082,-0.9814453,-0.1953125,-0.091796875,2.03125,0.71875,0.40625
172,172,1727895612122,-0.98339844,-0.18554688,-0.08300781,0.8125,1.125,-0.21875
173,173,1727895612162,-0.9785156,-0.18847656,-0.10546875,0.21875,-0.21875,-0.34375
174,174,1727895612202,-0.99121094,-0.17675781,-0.091796875,0.625,-0.03125,-0.15625
175,175,1727895612242,-0.96777344,-0.20019531,-0.09375,2.15625,-0.15625,-0.15625
176,176,1727895612282,-0.97753906,-0.18359375,-0.103515625,1.8125,0.8125,-0.40625
177,177,1727895612322,-0.9921875,-0.19238281,-0.09375,2.28125,-0.09375,-0.21875
178,178,1727895612362,-0.9658203,-0.18261719,-0.103515625,0.59375,0.09375,-0.78125
179,179,1727895612402,-0.9814453,-0.1875,-0.10546875,1.0,-0.09375,-0.40625
180,180,1727895612442,-0.98339844,-0.18457031,-0.09472656,3.03125,0.71875,-0.15625
181,181,1727895612482,-0.984375,-0.18554688,-0.087890625,2.65625,-0.21875,-0.03125
182,182,1727895612522,-0.98339844,-0.19824219,-0.109375,-0.875,-1.75,-0.40625
183,183,1727895612562,-0.9765625,-0.17285156,-0.11816406,-0.40625,0.40625,-0.59375
184,184,1727895612602,-0.984375,-0.18554688,-0.09667969,1.8125,0.09375,-0.09375
185,185,1727895612642,-0.9892578,-0.19042969,-0.099609375,-0.8125,-0.53125,-0.59375
186,186,1727895612682,-0.98046875,-0.17480469,-0.095703125,-0.03125,-0.8125,0.21875
187,187,1727895612722,-0.9716797,-0.19726562,-0.09082031,1.4375,0.03125,0.6875
188,188,1727895612762,-0.9707031,-0.18945312,-0.09472656,1.8125,0.875,0.21875
189,189,1727895612802,-0.9873047,-0.18164062,-0.09472656,-1.1875,-0.9375,-0.21875
190,190,1727895612842,-0.9814453,-0.18457031,-0.11035156,-1.0,-1.25,0.03125
191,191,1727895612882,-0.97753906,-0.19238281,-0.095703125,-0.15625,-0.6875,-0.09375
192,192,1727895612922,-0.984375,-0.18457031,-0.09472656,1.5625,-0.03125,0.28125
193,193,1727895612962,-0.9716797,-0.19824219,-0.09375,-0.46875,-0.625,-0.09375
194,194,1727895613002,-0.97558594,-0.18945312,-0.08496094,-0.875,-0.34375,-0.03125
195,195,1727895613042,-0.9746094,-0.18847656,-0.083984375,0.75,0.40625,0.15625
196,196,1727895613082,-0.9794922,-0.1953125,-0.087890625,-1.0,-1.125,-0.03125
197,197,1727895613122,-0.97265625,-0.17578125,-0.091796875,-0.9375,-0.40625,-0.28125
198,198,1727895613162,-0.97753906,-0.18945312,-0.080078125,0.6875,-0.28125,0.40625
199,199,1727895613202,-0.97265625,-0.19726562,-0.10253906,-0.03125,0.53125,-0.15625
200,200,1727895613242,-0.98339844,-0.18457031,-0.09667969,-0.65625,-0.6875,-0.21875
201,201,1727895613282,-0.9794922,-0.1953125,-0.1015625,-1.8125,-0.59375,-0.34375
202,202,1727895613322,-0.97265625,-0.17285156,-0.08203125,-0.34375,-0.03125,-0.46875
203,203,1727895613362,-0.96875,-0.1875,-0.09667969,0.03125,-0.53125,0.21875
204,204,1727895613402,-0.97558594,-0.19726562,-0.09667969,1.375,0.59375,-0.09375
205,205,1727895613442,-0.984375,-0.17871094,-0.07714844,-1.1875,0.21875,-0.71875
206,206,1727895613482,-0.9746094,-0.18359375,-0.09082031,-0.59375,-1.5,0.09375
207,207,1727895613522,-0.9765625,-0.18554688,-0.09765625,-0.46875,0.34375,-0.15625
208,208,1727895613562,-0.9794922,-0.1875,-0.08105469,0.46875,0.53125,0.09375
209,209,1727895613602,-0.9765625,-0.20019531,-0.09375,0.15625,-0.46875,-0.03125
210,210,1727895613642,-0.9863281,-0.18261719,-0.095703125,-0.75,0.75,-0.03125
211,211,1727895613682,-0.9824219,-0.19140625,-0.09472656,1.1875,0.65625,0.28125
212,212,1727895613722,-0.98339844,-0.19042969,-0.10058594,-1.5625,-0.28125,-0.15625
213,213,1727895613762,-0.97558594,-0.18261719,-0.09863281,1.25,0.8125,0.21875
214,214,1727895613802,-0.9814453,-0.1796875,-0.087890625,1.3125,1.1875,0.09375
215,215,1727895613842,-0.97753906,-0.19140625,-0.099609375,-1.125,-0.40625,-0.15625
216,216,1727895613882,-0.9794922,-0.1796875,-0.09765625,-0.21875,-0.21875,-0.21875
217,217,1727895613922,-0.9785156,-0.18847656,-0.08984375,-0.09375,-0.15625,-0.03125
218,218,1727895613962,-0.9736328,-0.17285156,-0.10253906,-0.8125,0.09375,-0.34375
219,219,1727895614002,-0.9814453,-0.18359375,-0.10058594,-1.3125,-0.34375,-0.21875
220,220,1727895614042,-0.98339844,-0.19140625,-0.1171875,-0.9375,-0.625,-0.34375
221,221,1727895614082,-0.9765625,-0.18261719,-0.107421875,1.1875,1.8125,-0.21875
222,222,1727895614122,-0.9863281,-0.18945312,-0.07910156,1.125,-0.46875,0.28125
223,223,1727895614162,-0.9814453,-0.20214844,-0.107421875,-4.1875,-1.8125,-0.40625
224,224,1727895614202,-0.97558594,-0.18945312,-0.109375,1.75,1.8125,-0.21875
225,225,1727895614242,-0.9785156,-0.17382812,-0.072265625,3.25,1.0,0.09375
226,226,1727895614282,-0.9785156,-0.20410156,-0.10839844,-4.96875,-3.15625,-0.9375
227,227,1727895614322,-0.9785156,-0.18652344,-0.12109375,0.875,0.59375,-0.28125
228,228,1727895614362,-0.9785156,-0.18847656,-0.072265625,6.375,2.65625,0.5625
229,229,1727895614402,-0.9736328,-0.19433594,-0.08203125,-2.96875,-1.96875,-0.53125
230,230,1727895614442,-0.97753906,-0.18359375,-0.119140625,-2.34375,-1.3125,-0.59375
231,231,1727895614482,-0.984375,-0.19042969,-0.08105469,3.5625,2.03125,0.03125
232,232,1727895614522,-0.97753906,-0.19628906,-0.0859375,-0.15625,-0.34375,-0.15625
233,233,1727895614562,-0.98046875,-0.19335938,-0.10546875,-1.25,-0.40625,0.15625
234,234,1727895614602,-0.9814453,-0.18847656,-0.083984375,1.75,0.65625,0.8125
235,235,1727895614642,-0.9863281,-0.19921875,-0.080078125,-0.34375,0.03125,0.40625
236,236,1727895614682,-0.9873047,-0.1875,-0.083984375,-0.15625,0.65625,-0.03125
237,237,1727895614722,-0.98535156,-0.19042969,-0.08886719,-0.53125,0.21875,0.03125
238,238,1727895614762,-0.984375,-0.19921875,-0.091796875,-0.09375,-0.625,0.15625
239,239,1727895614802,-0.98828125,-0.18847656,-0.08691406,-0.53125,-0.34375,-0.03125
240,240,1727895614842,-0.9746094,-0.1796875,-0.09863281,-0.6875,-0.15625,0.09375
241,241,1727895614882,-0.97558594,-0.19042969,-0.111328125,0.15625,0.15625,0.46875
242,242,1727895614922,-0.9824219,-0.1875,-0.09277344,-0.03125,1.75,0.15625
243,243,1727895614962,-0.9902344,-0.18945312,-0.08691406,1.0625,0.03125,0.46875
244,244,1727895615002,-0.9873047,-0.19042969,-0.0859375,-1.6875,-0.875,-0.15625
245,245,1727895615042,-0.96972656,-0.18652344,-0.09765625,-0.75,-0.6875,0.28125
246,246,1727895615082,-0.9746094,-0.18945312,-0.103515625,0.34375,0.59375,0.34375
247,247,1727895615122,-0.97753906,-0.1875,-0.087890625,-0.46875,-0.15625,0.21875
248,248,1727895615162,-0.9785156,-0.19140625,-0.103515625,-1.625,-0.625,-0.03125
249,249,1727895615202,-0.9824219,-0.18847656,-0.09472656,0.21875,0.21875,0.15625
250,250,1727895615242,-0.98339844,-0.17773438,-0.09375,-1.9375,-0.09375,-0.09375
251,251,1727895615282,-0.96875,-0.19238281,-0.1015625,0.625,-0.6875,0.625
252,252,1727895615322,-0.98046875,-0.1875,-0.099609375,1.5,1.8125,0.03125
253,253,1727895615362,-0.984375,-0.17675781,-0.10058594,-1.375,0.03125,-0.21875
254,254,1727895615402,-0.97558594,-0.20019531,-0.10644531,-0.21875,-0.09375,-0.03125
255,255,1727895615442,-0.96777344,-0.17480469,-0.0859375,1.3125,0.71875,-0.15625
256,256,1727895615482,-0.9746094,-0.18652344,-0.10058594,0.8125,-0.09375,0.03125
257,257,1727895615522,-0.9707031,-0.18457031,-0.11035156,1.0,0.9375,0.21875
258,258,1727895615562,-0.984375,-0.19433594,-0.083984375,0.625,0.9375,-0.03125
259,259,1727895615602,-0.98046875,-0.18261719,-0.091796875,-0.34375,-0.28125,0.09375
260,260,1727895615642,-0.97753906,-0.18066406,-0.10644531,-0.09375,0.40625,-0.03125
261,261,1727895615682,-0.98339844,-0.1796875,-0.091796875,-0.03125,-0.03125,0.21875
262,262,1727895615722,-0.96777344,-0.18652344,-0.09375,-0.09375,0.34375,0.21875
263,263,1727895615762,-0.9814453,-0.18359375,-0.107421875,-0.03125,0.15625,0.21875
264,264,1727895615802,-0.9746094,-0.18066406,-0.103515625,-1.4375,0.28125,-0.09375
265,265,1727895615842,-0.98339844,-0.18554688,-0.087890625,-0.8125,-0.875,0.09375
266,266,1727895615882,-0.9736328,-0.17578125,-0.10253906,-3.875,-1.0,-0.03125
267,267,1727895615922,-0.9785156,-0.20019531,-0.12011719,-0.21875,0.15625,0.5
268,268,1727895615962,-0.9794922,-0.16992188,-0.091796875,0.46875,1.8125,-0.03125
269,269,1727895616002,-0.9794922,-0.18554688,-0.09375,-2.21875,-1.0625,0.03125
270,270,1727895616042,-0.96777344,-0.19238281,-0.09667969,-2.65625,-0.53125,-0.28125
271,271,1727895616082,-0.9785156,-0.17773438,-0.091796875,0.09375,0.59375,0.09375
272,272,1727895616122,-0.9824219,-0.18359375,-0.1015625,-0.21875,-0.34375,0.46875
273,273,1727895616162,-0.9707031,-0.18457031,-0.10253906,-0.21875,1.375,0.28125
274,274,1727895616202,-0.9863281,-0.1796875,-0.09375,1.4375,1.1875,0.46875
275,275,1727895616242,-0.984375,-0.1875,-0.09863281,-1.125,-0.28125,0.03125
276,276,1727895616282,-0.98339844,-0.18164062,-0.109375,-1.4375,-0.875,-0.09375
277,277,1727895616322,-0.9785156,-0.17871094,-0.107421875,1.3125,1.25,0.21875
278,278,1727895616362,-0.97558594,-0.18359375,-0.099609375,0.75,0.71875,0.03125
279,279,1727895616402,-0.97753906,-0.18261719,-0.1015625,-1.625,-0.40625,-0.15625
280,280,1727895616442,-0.9892578,-0.18359375,-0.11230469,1.3125,0.53125,0.15625
281,281,1727895616482,-0.9892578,-0.16796875,-0.09667969,-0.34375,-0.28125,-0.09375
282,282,1727895616522,-0.96777344,-0.18652344,-0.1171875,-1.125,-1.0625,0.34375
283,283,1727895616562,-0.97753906,-0.17773438,-0.10546875,1.5,1.25,0.34375
284,284,1727895616602,-0.9863281,-0.1875,-0.087890625,-0.15625,0.46875,-0.03125
285,285,1727895616642,-0.9785156,-0.18457031,-0.10449219,-2.21875,-1.875,0.09375
286,286,1727895616682,-0.98535156,-0.17578125,-0.125,-0.09375,-0.21875,0.15625
287,287,1727895616722,-0.97753906,-0.19335938,-0.08496094,1.96875,0.75,0.09375
288,288,1727895616762,-0.9794922,-0.17480469,-0.083984375,-2.15625,-1.1875,-0.53125
289,289,1727895616802,-0.9794922,-0.17480469,-0.107421875,-0.875,-0.625,-0.28125
290,290,1727895616842,-0.98535156,-0.19335938,-0.099609375,1.8125,0.71875,0.15625
291,291,1727895616882,-0.98339844,-0.1875,-0.095703125,0.875,0.21875,-0.15625
292,292,1727895616922,-0.98046875,-0.18066406,-0.09472656,1.3125,0.15625,0.03125
293,293,1727895616962,-0.9746094,-0.19433594,-0.095703125,0.15625,-0.40625,-0.28125
294,294,1727895617002,-0.9785156,-0.17578125,-0.10058594,-0.75,-0.40625,-0.71875
295,295,1727895617042,-0.9746094,-0.17773438,-0.10839844,1.6875,0.03125,-0.09375
296,296,1727895617082,-0.984375,-0.17773438,-0.107421875,3.03125,0.46875,-0.03125
297,297,1727895617122,-0.984375,-0.16601562,-0.1015625,-2.21875,-0.6875,-0.15625
298,298,1727895617162,-0.9785156,-0.19140625,-0.10449219,-0.21875,-0.21875,0.5
299,299,1727895617202,-0.9746094,-0.18945312,-0.08886719,3.09375,2.28125,0.28125
300,300,1727895617242,-0.9863281,-0.18066406,-0.0703125,-1.875,-0.75,0.15625
301,301,1727895617282,-0.9716797,-0.17480469,-0.11230469,-3.5,-1.5625,-0.15625
302,302,1727895617322,-0.9902344,-0.17773438,-0.10644531,0.09375,0.09375,0.15625
303,303,1727895617362,-0.98046875,-0.19433594,-0.09082031,1.0625,0.65625,0.28125
304,304,1727895617402,-0.9794922,-0.19628906,-0.10449219,-1.625,-0.34375,-0.09375
305,305,1727895617442,-0.98535156,-0.18066406,-0.095703125,-1.3125,-0.21875,0.03125
306,306,1727895617482,-0.9794922,-0.1796875,-0.09863281,-0.03125,0.46875,0.15625
307,307,1727895617522,-0.9765625,-0.18652344,-0.0859375,-0.09375,0.15625,0.15625
308,308,1727895617562,-0.9785156,-0.17285156,-0.0859375,1.3125,0.40625,0.34375
309,309,1727895617602,-0.98339844,-0.17871094,-0.10253906,1.25,0.40625,0.5
310,310,1727895617642,-0.9746094,-0.18359375,-0.10058594,0.28125,0.46875,-0.03125
311,311,1727895617682,-0.9785156,-0.18457031,-0.08496094,-1.5625,-0.03125,-0.28125
312,312,1727895617722,-0.9794922,-0.18261719,-0.1015625,-0.6875,-0.59375,-0.28125
313,313,1727895617762,-0.9746094,-0.17578125,-0.103515625,-0.28125,0.21875,0.15625
314,314,1727895617802,-0.97558594,-0.19042969,-0.09667969,1.8125,0.59375,0.5
315,315,1727895617842,-0.98535156,-0.17871094,-0.091796875,-1.625,0.03125,-0.34375
316,316,1727895617882,-0.97558594,-0.16601562,-0.107421875,-0.875,0.09375,0.09375
317,317,1727895617922,-0.98046875,-0.18261719,-0.109375,0.34375,0.40625,0.15625
318,318,1727895617962,-0.97265625,-0.17480469,-0.099609375,-0.65625,-0.59375,0.03125
319,319,1727895618002,-0.97558594,-0.18261719,-0.1015625,0.53125,0.59375,0.03125
320,320,1727895618042,-0.9746094,-0.18261719,-0.1015625,0.40625,0.21875,0.03125
321,321,1727895618082,-0.98046875,-0.17089844,-0.107421875,-0.65625,0.03125,-0.09375
322,322,1727895618122,-0.98046875,-0.17773438,-0.1171875,0.03125,0.40625,-0.03125
323,323,1727895618162,-0.9863281,-0.1796875,-0.087890625,0.28125,0.28125,0.21875
324,324,1727895618202,-0.9716797,-0.19238281,-0.10058594,-0.75,-0.625,0.03125
325,325,1727895618242,-0.9785156,-0.19042969,-0.10644531,0.53125,1.0,0.09375
326,326,1727895618282,-0.984375,-0.19628906,-0.091796875,2.96875,0.9375,0.09375
327,327,1727895618322,-0.9863281,-0.17675781,-0.099609375,-3.21875,-1.25,-0.875
328,328,1727895618362,-0.9794922,-0.18261719,-0.12597656,-0.875,-0.09375,-0.59375
329,329,1727895618402,-0.9863281,-0.17089844,-0.08496094,2.40625,1.3125,0.21875
330,330,1727895618442,-0.9736328,-0.19238281,-0.10546875,1.8125,0.21875,0.46875
331,331,1727895618482,-0.9785156,-0.17871094,-0.10058594,-0.59375,0.875,-0.40625
332,332,1727895618522,-0.9863281,-0.18457031,-0.103515625,0.09375,-0.03125,-0.09375
333,333,1727895618562,-0.9785156,-0.18457031,-0.107421875,-0.34375,-0.34375,-0.28125
334,334,1727895618602,-0.96875,-0.17089844,-0.107421875,0.15625,0.34375,-0.28125
335,335,1727895618642,-0.9765625,-0.18359375,-0.10058594,1.3125,0.75,0.15625
336,336,1727895618682,-0.98046875,-0.1953125,-0.09082031,-0.21875,0.53125,-0.09375
337,337,1727895618722,-0.98339844,-0.18457031,-0.099609375,-1.3125,-0.15625,-0.21875
338,338,1727895618762,-0.984375,-0.17773438,-0.10253906,-0.9375,-0.34375,-0.09375
339,339,1727895618802,-0.9902344,-0.18554688,-0.10449219,-0.6875,-0.46875,-0.09375
340,340,1727895618842,-0.98339844,-0.18261719,-0.10546875,-0.15625,0.09375,-0.21875
341,341,1727895618882,-0.9785156,-0.17480469,-0.09765625,0.28125,0.21875,-0.09375
342,342,1727895618922,-0.9736328,-0.19140625,-0.10058594,-0.46875,-0.40625,0.03125
343,343,1727895618962,-0.9746094,-0.18554688,-0.10644531,-1.4375,-0.625,-0.09375
344,344,1727895619002,-0.9746094,-0.18261719,-0.10253906,1.1875,0.21875,0.03125
345,345,1727895619042,-0.97753906,-0.17480469,-0.08496094,-0.59375,0.71875,0.03125
346,346,1727895619082,-0.9746094,-0.19921875,-0.091796875,0.6875,-0.28125,0.21875
347,347,1727895619122,-0.9736328,-0.18359375,-0.11035156,1.0625,0.71875,-0.28125
348,348,1727895619162,-0.9824219,-0.19335938,-0.099609375,1.5,0.875,0.03125
349,349,1727895619202,-0.9785156,-0.19238281,-0.09375,0.03125,-1.0,-0.03125
350,350,1727895619242,-0.97265625,-0.18164062,-0.11230469,1.125,-0.21875,-0.34375
351,351,1727895619282,-0.9814453,-0.18261719,-0.10449219,3.21875,0.71875,0.09375
352,352,1727895619322,-0.9716797,-0.17578125,-0.103515625,0.6875,0.40625,-0.40625
353,353,1727895619362,-0.9863281,-0.17675781,-0.091796875,0.46875,0.15625,-0.09375
354,354,1727895619402,-0.98046875,-0.1875,-0.10058594,1.0,0.21875,0.28125
355,355,1727895619442,-0.98339844,-0.17773438,-0.087890625,1.125,0.71875,0.15625
356,356,1727895619482,-0.96972656,-0.19042969,-0.095703125,-0.46875,-1.0625,0.03125
357,357,1727895619522,-0.9814453,-0.17285156,-0.095703125,-1.3125,-1.125,-0.34375
358,358,1727895619562,-0.9785156,-0.19238281,-0.11816406,-0.03125,-0.53125,0.34375
359,359,1727895619602,-0.9785156,-0.18554688,-0.10546875,0.59375,1.0625,0.5
360,360,1727895619642,-0.99609375,-0.18261719,-0.09472656,0.53125,-0.21875,0.34375
361,361,1727895619682,-0.98046875,-0.18554688,-0.111328125,-4.0625,-2.03125,-0.46875
362,362,1727895619722,-0.9902344,-0.17382812,-0.111328125,-0.875,-0.6875,0.34375
363,363,1727895619762,-0.97558594,-0.18847656,-0.10449219,2.96875,1.5625,0.28125
364,364,1727895619802,-0.9814453,-0.18554688,-0.08886719,-1.03125,-0.15625,-0.3125
365,365,1727895619842,-0.9814453,-0.1796875,-0.09765625,-1.46875,-1.0,-0.3125
366,366,1727895619882,-0.97753906,-0.17773438,-0.09765625,-0.0625,-0.65625,-0.09375
367,367,1727895619922,-0.97753906,-0.16992188,-0.10253906,0.5,0.40625,0.09375
368,368,1727895619962,-0.9863281,-0.18554688,-0.09667969,0.0,-0.09375,0.03125
369,369,1727895620002,-0.98535156,-0.19140625,-0.10058594,0.25,-0.21875,0.03125
370,370,1727895620042,-0.99316406,-0.17480469,-0.099609375,-0.59375,-0.15625,-0.03125
371,371,1727895620082,-0.9765625,-0.17773438,-0.107421875,-1.28125,-1.0625,0.03125
372,372,1727895620122,-0.97265625,-0.18066406,-0.119140625,-0.0625,0.15625,0.03125
373,373,1727895620162,-0.97265625,-0.1796875,-0.099609375,0.4375,0.53125,0.03125
374,374,1727895620202,-0.97753906,-0.1875,-0.09082031,-0.3125,-0.40625,0.40625
375,375,1727895620242,-0.9716797,-0.18945312,-0.10449219,-1.03125,-0.28125,0.21875
376,376,1727895620282,-0.9873047,-0.18359375,-0.087890625,-1.21875,-0.40625,-0.15625
377,377,1727895620322,-0.97753906,-0.18164062,-0.09863281,-0.65625,-1.0625,-0.09375
378,378,1727895620362,-0.97753906,-0.171875,-0.09375,-0.3125,0.03125,0.09375
379,379,1727895620402,-0.9736328,-0.18652344,-0.095703125,2.875,1.0,0.65625
380,380,1727895620442,-0.97753906,-0.18945312,-0.091796875,0.625,0.8125,-0.25
381,381,1727895620482,-0.9765625,-0.18359375,-0.087890625,-0.90625,-0.40625,-0.25
382,382,1727895620522,-0.9785156,-0.17578125,-0.091796875,1.03125,0.09375,-0.09375
383,383,1727895620562,-0.9814453,-0.17382812,-0.091796875,0.1875,0.15625,-0.1875
384,384,1727895620602,-0.9814453,-0.18457031,-0.09667969,-0.125,0.03125,-0.03125
385,385,1727895620642,-0.9892578,-0.19433594,-0.10058594,0.5625,0.75,0.09375
386,386,1727895620682,-0.98046875,-0.18457031,-0.080078125,-0.65625,0.09375,-0.4375
387,387,1727895620722,-0.9814453,-0.18066406,-0.10253906,-2.75,-0.75,-0.5
388,388,1727895620762,-0.9785156,-0.1875,-0.1015625,-1.28125,-0.46875,-0.25
389,389,1727895620802,-0.97753906,-0.18359375,-0.1015625,-0.1875,0.21875,-0.15625
390,390,1727895620842,-0.984375,-0.18066406,-0.10449219,-0.34375,0.21875,-0.15625
391,391,1727895620882,-0.96972656,-0.18554688,-0.10449219,-0.65625,-0.34375,-0.15625
392,392,1727895620922,-0.9824219,-0.19824219,-0.09863281,0.875,1.5625,-0.25
393,393,1727895620962,-0.9921875,-0.18164062,-0.09375,1.71875,1.6875,0.03125
394,394,1727895621002,-0.9863281,-0.18261719,-0.09667969,-0.53125,-0.53125,-0.375
395,395,1727895621042,-0.9716797,-0.16992188,-0.10839844,-0.34375,0.75,-0.25
396,396,1727895621082,-0.98828125,-0.1875,-0.11035156,1.84375,0.8125,0.28125
397,397,1727895621122,-0.99316406,-0.17773438,-0.09375,-1.28125,0.8125,-0.4375
398,398,1727895621162,-0.9863281,-0.18164062,-0.099609375,-1.9375,-0.75,-0.15625
399,399,1727895621202,-0.97265625,-0.18945312,-0.11230469,-0.59375,-0.40625,0.15625
400,400,1727895621242,-0.9716797,-0.17675781,-0.09082031,-0.40625,0.625,-0.25
401,401,1727895621282,-0.9814453,-0.18847656,-0.083984375,-1.34375,-0.34375,-0.25
402,402,1727895621322,-0.9765625,-0.18554688,-0.11816406,-0.65625,0.625,-0.1875
403,403,1727895621362,-0.98339844,-0.17675781,-0.107421875,0.5625,1.125,-0.15625
404,404,1727895621402,-0.9794922,-0.18554688,-0.1015625,-0.78125,-0.34375,-0.1875
405,405,1727895621442,-0.9785156,-0.17773438,-0.12109375,-2.3125,-0.71875,-0.15625
406,406,1727895621482,-0.9794922,-0.18261719,-0.12109375,1.09375,-0.28125,0.21875
407,407,1727895621522,-0.9736328,-0.17675781,-0.091796875,-1.40625,0.21875,0.03125
408,408,1727895621562,-0.97265625,-0.18847656,-0.11621094,-0.3125,1.0,0.15625
409,409,1727895621602,-0.9794922,-0.19238281,-0.091796875,0.5,1.125,-0.09375
410,410,1727895621642,-0.98046875,-0.18457031,-0.091796875,-2.25,-0.46875,-0.5
411,411,1727895621682,-0.9892578,-0.18847656,-0.10546875,-0.25,-0.21875,0.09375
412,412,1727895621722,-0.97558594,-0.18261719,-0.10644531,0.4375,0.21875,0.28125
413,413,1727895621762,-0.97753906,-0.18457031,-0.10253906,0.5625,0.875,0.28125
414,414,1727895621802,-0.98535156,-0.1875,-0.10644531,-0.40625,1.6875,0.15625
415,415,1727895621842,-0.97265625,-0.19042969,-0.09765625,0.1875,0.09375,0.15625
416,416,1727895621882,-0.97753906,-0.17480469,-0.10644531,-1.09375,-0.59375,-0.15625
417,417,1727895621922,-0.9746094,-0.18457031,-0.1171875,-0.46875,-0.40625,0.15625
418,418,1727895621962,-0.97558594,-0.18554688,-0.107421875,1.03125,0.6875,0.34375
419,419,1727895622002,-0.98339844,-0.18066406,-0.11230469,-1.40625,0.03125,0.09375
420,420,1727895622042,-0.9736328,-0.1796875,-0.10546875,-0.1875,0.53125,0.34375
421,421,1727895622082,-0.98535156,-0.18359375,-0.09375,-0.46875,0.28125,0.40625
422,422,1727895622122,-0.9785156,-0.18261719,-0.11230469,-1.53125,-0.71875,0.40625
423,423,1727895622162,-0.9746094,-0.17480469,-0.11816406,-0.90625,-0.03125,0.21875
424,424,1727895622202,-0.9814453,-0.17382812,-0.11230469,1.09375,1.125,0.65625
425,425,1727895622242,-0.9814453,-0.18945312,-0.09472656,0.0625,0.6875,0.46875
426,426,1727895622282,-0.9814453,-0.1875,-0.103515625,-0.46875,0.09375,-0.03125
427,427,1727895622322,-0.984375,-0.17675781,-0.11230469,-0.59375,-0.8125,0.09375
428,428,1727895622362,-0.97265625,-0.18457031,-0.11328125,-0.65625,-1.4375,0.15625
429,429,1727895622402,-0.9716797,-0.18066406,-0.12695312,-2.3125,-0.28125,-0.09375
430,430,1727895622442,-0.9746094,-0.18359375,-0.11621094,3.25,1.5,0.90625
431,431,1727895622482,-0.9814453,-0.18164062,-0.091796875,1.65625,1.125,-0.1875
432,432,1727895622522,-0.98339844,-0.17675781,-0.10546875,-3.03125,-1.1875,-0.4375
433,433,1727895622562,-0.9863281,-0.18066406,-0.11425781,-0.53125,-1.0,0.15625
434,434,1727895622602,-0.9863281,-0.18457031,-0.10546875,0.3125,-0.59375,0.03125
435,435,1727895622642,-0.97753906,-0.17285156,-0.10253906,0.4375,-0.03125,0.03125
436,436,1727895622682,-0.9824219,-0.17675781,-0.09765625,-0.53125,-0.15625,-0.03125
437,437,1727895622722,-0.9746094,-0.18164062,-0.103515625,-1.03125,-0.59375,-0.09375
438,438,1727895622762,-0.9736328,-0.18457031,-0.109375,-1.34375,-0.875,-0.25
439,439,1727895622802,-0.9814453,-0.17773438,-0.10253906,0.0,-0.15625,-0.03125
440,440,1727895622842,-0.9814453,-0.18066406,-0.103515625,-0.46875,-0.75,-0.3125
441,441,1727895622882,-0.9765625,-0.18261719,-0.10644531,0.0,0.28125,-0.25
442,442,1727895622922,-0.97558594,-0.17578125,-0.099609375,0.6875,0.40625,0.03125
443,443,1727895622962,-0.9873047,-0.18457031,-0.11425781,-0.3125,0.15625,-0.25
444,444,1727895623002,-0.97558594,-0.18261719,-0.107421875,-0.25,-0.53125,-0.1875
445,445,1727895623042,-0.9814453,-0.17480469,-0.10644531,-0.25,-0.53125,-0.1875
446,446,1727895623082,-0.97753906,-0.17773438,-0.09863281,-1.34375,-0.53125,0.03125
447,447,1727895623122,-0.96777344,-0.19921875,-0.107421875,1.09375,0.6875,0.65625
448,448,1727895623162,-0.9814453,-0.18457031,-0.08300781,1.96875,2.21875,-0.15625
449,449,1727895623202,-0.9873047,-0.1875,-0.10839844,-2.3125,-1.625,-0.25
450,450,1727895623242,-0.9746094,-0.17773438,-0.12402344,-2.5625,-1.625,-0.25
451,451,1727895623282,-0.9707031,-0.18457031,-0.109375,1.84375,1.5,0.15625
452,452,1727895623322,-0.98535156,-0.18652344,-0.083984375,0.875,0.40625,-0.15625
453,453,1727895623362,-0.98339844,-0.18359375,-0.10058594,-2.4375,-0.9375,-0.3125
454,454,1727895623402,-0.96875,-0.18945312,-0.11425781,0.1875,0.8125,-0.15625
455,455,1727895623442,-0.97753906,-0.18261719,-0.10253906,1.53125,1.1875,-0.09375
456,456,1727895623482,-0.98339844,-0.18457031,-0.09667969,-0.3125,-0.40625,-0.15625
457,457,1727895623522,-0.98046875,-0.18359375,-0.11230469,-0.53125,-0.21875,-0.375
458,458,1727895623562,-0.984375,-0.17675781,-0.111328125,1.03125,0.9375,-0.03125
459,459,1727895623602,-0.9746094,-0.18164062,-0.10058594,-0.90625,-0.875,-0.15625
460,460,1727895623642,-0.9746094,-0.17675781,-0.13183594,-1.28125,-0.28125,-0.375
461,461,1727895623682,-0.9824219,-0.1796875,-0.11328125,1.84375,0.75,0.28125
462,462,1727895623722,-0.9667969,-0.18945312,-0.09082031,-1.21875,-0.21875,-0.375
463,463,1727895623762,-0.9707031,-0.171875,-0.12207031,-1.28125,-0.75,-0.03125
464,464,1727895623802,-0.9658203,-0.20019531,-0.115234375,1.15625,0.40625,0.15625
465,465,1727895623842,-0.9785156,-0.18554688,-0.10058594,0.75,1.125,-0.09375
466,466,1727895623882,-0.98535156,-0.1875,-0.09277344,-0.65625,-0.65625,-0.09375
467,467,1727895623922,-0.984375,-0.18066406,-0.123046875,-1.59375,-0.59375,-0.3125
468,468,1727895623962,-0.9824219,-0.17675781,-0.11328125,1.09375,0.75,0.09375
469,469,1727895624002,-0.9794922,-0.18359375,-0.109375,0.96875,0.625,-0.09375
470,470,1727895624042,-0.9765625,-0.18261719,-0.099609375,-2.0,-0.8125,-0.3125
471,471,1727895624082,-0.984375,-0.17773438,-0.11621094,-0.25,-0.09375,-0.03125
472,472,1727895624122,-0.97753906,-0.17480469,-0.099609375,1.09375,0.6875,0.28125
473,473,1727895624162,-0.98046875,-0.18261719,-0.1171875,-1.75,-0.46875,-0.15625
474,474,1727895624202,-0.9794922,-0.17675781,-0.12011719,-1.09375,-0.15625,-0.15625
475,475,1727895624242,-0.97265625,-0.19042969,-0.10546875,1.03125,1.0,0.21875
476,476,1727895624282,-0.98339844,-0.19042969,-0.107421875,-1.09375,-0.28125,-0.25
477,477,1727895624322,-0.97558594,-0.17773438,-0.11035156,0.0,-0.53125,0.03125
478,478,1727895624362,-0.9765625,-0.17675781,-0.11328125,0.0,0.09375,-0.15625
479,479,1727895624402,-0.9765625,-0.18457031,-0.10839844,-1.46875,-0.40625,0.21875
480,480,1727895624442,-0.98046875,-0.19042969,-0.107421875,1.53125,1.4375,0.15625
481,481,1727895624482,-0.97558594,-0.1796875,-0.0859375,0.125,0.40625,-0.1875
482,482,1727895624522,-0.9794922,-0.18652344,-0.11035156,-1.15625,-1.125,-0.25
483,483,1727895624562,-0.9794922,-0.19042969,-0.11035156,-0.53125,-0.28125,-0.4375
484,484,1727895624602,-0.9873047,-0.1796875,-0.095703125,1.46875,0.5625,-0.09375
485,485,1727895624642,-0.9794922,-0.19238281,-0.11621094,0.125,-0.09375,0.21875
486,486,1727895624682,-0.9746094,-0.18652344,-0.11035156,0.0,0.9375,-0.09375
487,487,1727895624722,-0.9873047,-0.18359375,-0.09082031,0.5,0.15625,0.34375
488,488,1727895624762,-0.9736328,-0.18457031,-0.115234375,-1.59375,-0.65625,-0.1875
489,489,1727895624802,-0.9765625,-0.1796875,-0.10449219,-0.0625,0.5625,-0.09375
490,490,1727895624842,-0.97558594,-0.19042969,-0.10546875,0.0,-0.40625,0.34375
491,491,1727895624882,-0.9746094,-0.18457031,-0.111328125,-0.71875,0.21875,0.09375
492,492,1727895624922,-0.9814453,-0.18945312,-0.10839844,-0.78125,-0.40625,0.09375
493,493,1727895624962,-0.9794922,-0.18164062,-0.12109375,-0.96875,-1.0,0.09375
494,494,1727895625002,-0.9814453,-0.18066406,-0.12109375,-1.03125,-0.28125,-0.03125
495,495,1727895625042,-0.97558594,-0.19140625,-0.11230469,-0.71875,-0.03125,0.59375
496,496,1727895625082,-0.97558594,-0.19140625,-0.10644531,0.4375,0.03125,0.34375
497,497,1727895625122,-0.98535156,-0.19042969,-0.10644531,-1.28125,-0.03125,-0.1875
498,498,1727895625162,-0.9736328,-0.17675781,-0.10449219,0.25,-0.34375,0.09375
499,499,1727895625202,-0.97753906,-0.17675781,-0.11230469,-1.28125,-1.125,-0.03125
500,500,1727895625242,-0.9736328,-0.17675781,-0.10644531,-0.125,0.21875,0.21875
501,501,1727895625282,-0.98046875,-0.18457031,-0.099609375,0.96875,0.75,0.21875
502,502,1727895625322,-0.9814453,-0.18261719,-0.10449219,-1.8125,-0.9375,-0.3125
503,503,1727895625362,-0.9794922,-0.17480469,-0.10449219,-0.53125,-0.28125,0.09375
504,504,1727895625402,-0.9873047,-0.18457031,-0.10644531,0.6875,0.03125,0.28125
505,505,1727895625442,-0.9736328,-0.18261719,-0.1015625,-1.59375,-1.1875,0.03125
506,506,1727895625482,-0.98339844,-0.1875,-0.1015625,-0.40625,0.21875,-0.09375
507,507,1727895625522,-0.98535156,-0.1875,-0.08984375,1.09375,0.46875,0.15625
508,508,1727895625562,-0.9765625,-0.18066406,-0.099609375,-1.40625,-0.65625,-0.15625
509,509,1727895625602,-0.98046875,-0.18457031,-0.109375,-0.96875,-0.8125,-0.15625
510,510,1727895625642,-0.9873047,-0.17480469,-0.1015625,0.4375,0.46875,0.09375
511,511,1727895625682,-0.98046875,-0.1875,-0.1015625,0.1875,-0.21875,0.78125
512,512,1727895625722,-0.96875,-0.1875,-0.107421875,0.9375,1.3125,-0.09375
513,513,1727895625762,-0.9794922,-0.16796875,-0.08203125,0.9375,0.5625,-0.09375
514,514,1727895625802,-0.97558594,-0.18847656,-0.10253906,-1.46875,-2.0,-0.03125
515,515,1727895625842,-0.9736328,-0.18359375,-0.1171875,-1.03125,0.09375,-0.5625
516,516,1727895625882,-0.96777344,-0.18066406,-0.107421875,3.125,1.375,0.53125
517,517,1727895625922,-0.97265625,-0.17480469,-0.10058594,-0.96875,-0.28125,0.09375
518,518,1727895625962,-0.9824219,-0.17480469,-0.09667969,-1.6875,0.03125,-0.25
519,519,1727895626002,-0.984375,-0.18164062,-0.09667969,-0.0625,-0.28125,0.34375
520,520,1727895626042,-0.9716797,-0.1875,-0.10546875,-1.59375,-0.75,-0.15625
521,521,1727895626082,-0.98046875,-0.17578125,-0.09667969,0.0625,0.40625,0.03125
522,522,1727895626122,-0.97265625,-0.19042969,-0.09472656,-0.96875,-0.71875,-0.09375
523,523,1727895626162,-0.98046875,-0.18457031,-0.11621094,-1.40625,-0.40625,-0.375
524,524,1727895626202,-0.97558594,-0.17871094,-0.09863281,-1.03125,-0.34375,-0.1875
525,525,1727895626242,-0.98535156,-0.18847656,-0.107421875,0.96875,-0.9375,-0.03125
526,526,1727895626282,-0.97753906,-0.16699219,-0.09667969,-0.90625,0.6875,-0.375
527,527,1727895626322,-0.97558594,-0.19140625,-0.10449219,1.71875,-0.28125,0.34375
528,528,1727895626362,-0.9824219,-0.18066406,-0.10449219,0.0,0.09375,-0.5
529,529,1727895626402,-0.9902344,-0.17578125,-0.09277344,-0.0625,0.5625,-0.3125
530,530,1727895626442,-0.97558594,-0.18359375,-0.091796875,0.9375,-0.03125,-0.03125
531,531,1727895626482,-0.9765625,-0.18261719,-0.1171875,-0.90625,-0.53125,-0.3125
532,532,1727895626522,-0.9746094,-0.17480469,-0.10839844,-0.1875,-0.21875,-0.09375
533,533,1727895626562,-0.96777344,-0.18359375,-0.11230469,0.375,0.21875,0.03125
534,534,1727895626602,-0.9814453,-0.17871094,-0.09863281,-0.1875,0.625,-0.15625
535,535,1727895626642,-0.97265625,-0.18066406,-0.09082031,-1.09375,-0.71875,-0.15625
536,536,1727895626682,-0.9765625,-0.18359375,-0.10546875,-0.84375,-0.71875,-0.3125
537,537,1727895626722,-0.9814453,-0.18847656,-0.11230469,0.6875,0.40625,-0.03125
538,538,1727895626762,-0.97558594,-0.18359375,-0.095703125,0.96875,1.3125,-0.03125
539,539,1727895626802,-0.9765625,-0.1875,-0.09765625,-0.96875,-0.46875,-0.375
540,540,1727895626842,-0.9794922,-0.18261719,-0.10058594,-0.78125,-0.875,-0.25
541,541,1727895626882,-0.9814453,-0.17285156,-0.1015625,1.34375,0.40625,-0.03125
542,542,1727895626922,-0.9814453,-0.1796875,-0.09277344,-0.90625,-0.09375,-0.03125
543,543,1727895626962,-0.9736328,-0.19335938,-0.099609375,0.375,0.09375,0.09375
544,544,1727895627002,-0.9814453,-0.18945312,-0.111328125,-0.25,0.03125,-0.3125
545,545,1727895627042,-0.98046875,-0.17871094,-0.10253906,-0.46875,-0.03125,-0.1875
546,546,1727895627082,-0.9785156,-0.18164062,-0.1015625,-0.34375,-0.28125,-0.375
547,547,1727895627122,-0.9765625,-0.18261719,-0.11328125,-0.59375,-0.34375,-0.09375
548,548,1727895627162,-0.97558594,-0.18652344,-0.107421875,0.9375,0.75,-0.03125
549,549,1727895627202,-0.9863281,-0.18554688,-0.09667969,0.6875,0.8125,-0.03125
550,550,1727895627242,-0.96972656,-0.19238281,-0.09277344,-1.59375,-0.875,-0.4375
551,551,1727895627282,-0.9667969,-0.17578125,-0.11035156,-2.0625,-0.75,-0.5
552,552,1727895627322,-0.97265625,-0.18066406,-0.1015625,0.0,-0.09375,0.09375
553,553,1727895627362,-0.98535156,-0.19726562,-0.087890625,0.3125,0.53125,0.03125
554,554,1727895627402,-0.98535156,-0.1875,-0.099609375,-0.84375,-0.09375,-0.09375
555,555,1727895627442,-0.97753906,-0.18164062,-0.09375,-0.53125,-0.65625,-0.09375
556,556,1727895627482,-0.9824219,-0.18066406,-0.10546875,0.5,-0.09375,-0.03125
557,557,1727895627522,-0.9746094,-0.17480469,-0.107421875,-0.71875,-0.46875,-0.15625
558,558,1727895627562,-0.9765625,-0.17871094,-0.11621094,0.0625,-0.34375,0.59375
559,559,1727895627602,-0.9873047,-0.19824219,-0.10449219,1.28125,1.125,0.03125
560,560,1727895627642,-0.9765625,-0.18164062,-0.08984375,-1.59375,-0.59375,-0.25
561,561,1727895627682,-0.9736328,-0.19140625,-0.10839844,-1.03125,-1.4375,-0.15625
562,562,1727895627722,-0.9746094,-0.18066406,-0.10058594,0.625,0.46875,-0.15625
563,563,1727895627762,-0.96972656,-0.18457031,-0.09667969,0.875,0.15625,0.09375
564,564,1727895627802,-0.98339844,-0.18261719,-0.103515625,-1.65625,-0.65625,-0.15625
565,565,1727895627842,-0.9794922,-0.18457031,-0.107421875,-0.46875,-0.03125,-0.15625
566,566,1727895627882,-0.97265625,-0.18554688,-0.095703125,-0.46875,-0.40625,0.21875
567,567,1727895627922,-0.9746094,-0.18847656,-0.09667969,-0.78125,-0.40625,0.09375
568,568,1727895627962,-0.9794922,-0.18457031,-0.10644531,0.25,0.28125,-0.03125
569,569,1727895628002,-0.9863281,-0.18457031,-0.09863281,-1.40625,-0.21875,-0.1875
570,570,1727895628042,-0.9794922,-0.19726562,-0.09765625,-0.71875,-0.21875,0.03125
571,571,1727895628082,-0.9814453,-0.1875,-0.103515625,0.4375,0.34375,-0.03125
572,572,1727895628122,-0.9765625,-0.17480469,-0.10546875,-0.84375,-0.8125,-0.1875
573,573,1727895628162,-0.98535156,-0.18847656,-0.11035156,-0.59375,0.34375,0.03125
574,574,1727895628202,-0.9736328,-0.19042969,-0.09667969,2.625,1.0625,0.46875
575,575,1727895628242,-0.9921875,-0.17773438,-0.09765625,-1.34375,-0.03125,-0.6875
576,576,1727895628282,-0.9746094,-0.18847656,-0.09765625,-1.46875,-0.75,-0.3125
577,577,1727895628322,-0.97265625,-0.18945312,-0.095703125,1.53125,1.25,0.21875
578,578,1727895628362,-0.98535156,-0.18164062,-0.083984375,0.8125,0.6875,-0.03125
579,579,1727895628402,-0.97558594,-0.18164062,-0.095703125,-0.90625,-0.28125,-0.15625
580,580,1727895628442,-0.9863281,-0.18457031,-0.12109375,-1.59375,-1.1875,-0.1875
581,581,1727895628482,-0.9794922,-0.18554688,-0.119140625,-0.25,0.5625,0.03125
582,582,1727895628522,-0.9814453,-0.18847656,-0.08886719,1.90625,0.625,0.03125
583,583,1727895628562,-0.97265625,-0.18847656,-0.10058594,-1.6875,-0.59375,-0.1875
584,584,1727895628602,-0.9824219,-0.18554688,-0.111328125,-0.90625,-0.15625,-0.4375
585,585,1727895628642,-0.9814453,-0.18066406,-0.10839844,1.21875,0.6875,-0.03125
586,586,1727895628682,-0.9785156,-0.18652344,-0.10546875,-0.78125,-0.09375,-0.25
587,587,1727895628722,-0.9794922,-0.18359375,-0.123046875,-0.125,-0.34375,-0.25
588,588,1727895628762,-0.98535156,-0.17675781,-0.10449219,-0.0625,0.46875,-0.15625
589,589,1727895628802,-0.98046875,-0.18554688,-0.11230469,-0.53125,-0.53125,-0.09375
590,590,1727895628842,-0.98046875,-0.17578125,-0.11035156,-1.40625,-0.53125,-0.3125
591,591,1727895628882,-0.9873047,-0.18359375,-0.10839844,-0.1875,0.34375,0.34375
592,592,1727895628922,-0.9814453,-0.19238281,-0.11035156,0.0625,-0.15625,0.21875
593,593,1727895628962,-0.9785156,-0.17675781,-0.09667969,-1.46875,0.53125,-0.25
594,594,1727895629002,-0.9746094,-0.18847656,-0.10644531,0.125,-0.59375,-0.03125
595,595,1727895629042,-0.97265625,-0.18554688,-0.103515625,-1.40625,-0.9375,-0.1875
596,596,1727895629082,-0.9785156,-0.18554688,-0.125,0.0,-0.21875,-0.03125
597,597,1727895629122,-0.984375,-0.19042969,-0.09472656,1.40625,0.875,0.15625
598,598,1727895629162,-0.9892578,-0.18457031,-0.087890625,0.0625,-0.28125,-0.1875
599,599,1727895629202,-0.9785156,-0.18164062,-0.10644531,-1.46875,-1.0625,-0.5
600,600,1727895629242,-0.9746094,-0.18945312,-0.11816406,1.15625,0.875,-0.03125
601,601,1727895629282,-0.9785156,-0.18261719,-0.1015625,-0.78125,0.09375,-0.375
602,602,1727895629322,-0.9814453,-0.19238281,-0.10449219,-0.125,-0.15625,0.09375
603,603,1727895629362,-0.98339844,-0.18359375,-0.09667969,0.625,-0.03125,-0.09375
604,604,1727895629402,-0.97558594,-0.18457031,-0.099609375,-1.9375,-2.15625,-0.15625
605,605,1727895629442,-0.9736328,-0.18847656,-0.115234375,0.1875,0.625,-0.09375
606,606,1727895629482,-0.9863281,-0.18066406,-0.09375,2.15625,1.6875,0.21875
607,607,1727895629522,-0.9794922,-0.19238281,-0.08105469,-1.46875,-1.25,-0.25
608,608,1727895629562,-0.9814453,-0.17578125,-0.1015625,-2.875,-1.8125,-0.3125
609,609,1727895629602,-0.9765625,-0.18261719,-0.107421875,2.03125,0.75,0.15625
610,610,1727895629642,-0.9873047,-0.19042969,-0.091796875,1.84375,0.9375,0.03125
611,611,1727895629682,-0.9863281,-0.19726562,-0.0859375,-2.125,-1.0,-0.09375
612,612,1727895629722,-0.97265625,-0.19140625,-0.1015625,-0.84375,-0.71875,-0.09375
613,613,1727895629762,-0.9794922,-0.17480469,-0.10253906,1.15625,0.9375,0.03125
614,614,1727895629802,-0.9785156,-0.18066406,-0.103515625,-1.34375,-0.9375,-0.15625
615,615,1727895629842,-0.984375,-0.18554688,-0.11621094,-0.46875,-0.8125,0.28125
616,616,1727895629882,-0.98535156,-0.19042969,-0.10546875,1.59375,1.125,0.03125
617,617,1727895629922,-0.9785156,-0.18359375,-0.095703125,-2.375,-1.3125,-0.09375
618,618,1727895629962,-0.9794922,-0.18164062,-0.12695312,-1.34375,-0.9375,0.09375
619,619,1727895630002,-0.9716797,-0.17382812,-0.10253906,0.96875,1.125,0.53125
620,620,1727895630042,-0.9794922,-0.19433594,-0.08691406,1.78125,0.03125,0.59375
621,621,1727895630082,-0.97753906,-0.18164062,-0.109375,-3.53125,-0.875,-0.75
622,622,1727895630122,-0.9863281,-0.18359375,-0.10546875,-0.125,-0.09375,0.15625
623,623,1727895630162,-0.9873047,-0.18164062,-0.10058594,1.84375,0.875,0.21875
624,624,1727895630202,-0.98046875,-0.18359375,-0.09765625,-0.90625,-0.9375,-0.03125
625,625,1727895630242,-0.97558594,-0.18554688,-0.10253906,-0.65625,-0.8125,0.15625
626,626,1727895630282,-0.9736328,-0.19042969,-0.11621094,0.0625,0.6875,0.03125
627,627,1727895630322,-0.98828125,-0.18847656,-0.09472656,0.4375,0.34375,0.03125
628,628,1727895630362,-0.98535156,-0.18457031,-0.09472656,-0.90625,-1.3125,-0.03125
629,629,1727895630402,-0.98046875,-0.18164062,-0.10546875,-0.25,-0.09375,0.09375
630,630,1727895630442,-0.97753906,-0.18359375,-0.10644531,-0.1875,-0.65625,0.15625
631,631,1727895630482,-0.9794922,-0.18457031,-0.103515625,-0.125,-0.46875,0.03125
632,632,1727895630522,-0.97265625,-0.17871094,-0.09765625,-1.15625,-0.53125,-0.1875
633,633,1727895630562,-0.9873047,-0.18554688,-0.10449219,-0.96875,-1.1875,-0.15625
634,634,1727895630602,-0.97753906,-0.18359375,-0.09667969,-1.15625,-0.71875,-0.15625
635,635,1727895630642,-0.9707031,-0.1953125,-0.10253906,1.71875,-0.15625,0.53125
636,636,1727895630682,-0.98046875,-0.19042969,-0.087890625,0.375,0.34375,-0.375
637,637,1727895630722,-0.9794922,-0.18554688,-0.11230469,-2.4375,-1.0,-0.625
638,638,1727895630762,-0.9902344,-0.1953125,-0.10058594,1.34375,0.40625,-0.09375
639,639,1727895630802,-0.97558594,-0.17480469,-0.091796875,0.25,-0.9375,-0.4375
640,640,1727895630842,-0.9736328,-0.18261719,-0.10644531,-1.28125,-1.5,-0.1875
641,641,1727895630882,-0.9794922,-0.19433594,-0.103515625,0.5,0.8125,-0.1875
642,642,1727895630922,-0.97265625,-0.18847656,-0.08496094,1.84375,1.125,-0.09375
643,643,1727895630962,-0.9765625,-0.17773438,-0.087890625,-1.75,-1.375,-0.625
644,644,1727895631002,-0.98339844,-0.19140625,-0.099609375,-1.53125,-1.4375,-0.1875
645,645,1727895631042,-0.96972656,-0.19238281,-0.09667969,1.90625,1.125,-0.25
646,646,1727895631082,-0.9824219,-0.19140625,-0.09082031,0.4375,-0.46875,-0.1875
647,647,1727895631122,-0.98339844,-0.18066406,-0.099609375,-3.59375,-1.75,-0.75
648,648,1727895631162,-0.97558594,-0.1875,-0.109375,0.6875,0.53125,-0.15625
649,649,1727895631202,-0.9863281,-0.17773438,-0.08984375,2.03125,1.5,0.09375
650,650,1727895631242,-0.9814453,-0.1875,-0.087890625,-4.25,-1.6875,-0.09375
651,651,1727895631282,-0.97558594,-0.19824219,-0.125,0.25,0.5625,-0.09375
652,652,1727895631322,-0.98828125,-0.17578125,-0.08203125,1.84375,2.40625,0.09375
653,653,1727895631362,-0.98046875,-0.1953125,-0.10546875,-2.3125,-1.25,-0.15625
654,654,1727895631402,-0.9863281,-0.18554688,-0.1015625,-0.84375,-0.59375,-0.375
655,655,1727895631442,-0.9736328,-0.18554688,-0.08300781,0.3125,0.46875,0.03125
656,656,1727895631482,-0.9824219,-0.18457031,-0.091796875,0.0625,0.34375,0.15625
657,657,1727895631522,-0.98046875,-0.18945312,-0.09277344,0.25,0.40625,-0.03125
658,658,1727895631562,-0.9765625,-0.19042969,-0.095703125,-0.3125,-0.28125,-0.1875
659,659,1727895631602,-0.9765625,-0.19140625,-0.10058594,-0.65625,-0.75,-0.09375
660,660,1727895631642,-0.984375,-0.171875,-0.10253906,0.75,1.0625,-0.15625
661,661,1727895631682,-0.9794922,-0.18457031,-0.09765625,-0.0625,-0.21875,-0.15625
662,662,1727895631722,-0.9814453,-0.18066406,-0.095703125,-0.40625,-0.03125,-0.09375
663,663,1727895631762,-0.9902344,-0.1875,-0.09375,1.40625,0.8125,-0.03125
664,664,1727895631802,-0.9873047,-0.18945312,-0.0859375,0.0625,-0.28125,-0.1875
665,665,1727895631842,-0.9785156,-0.18945312,-0.095703125,-2.1875,-1.125,-0.09375
666,666,1727895631882,-0.98046875,-0.19628906,-0.10546875,0.6875,0.03125,-0.03125
667,667,1727895631922,-0.9863281,-0.18457031,-0.09375,0.375,0.8125,-0.25
668,668,1727895631962,-0.9765625,-0.18847656,-0.08886719,-1.28125,-1.125,-0.375
669,669,1727895632002,-0.96484375,-0.1875,-0.087890625,-1.8125,-1.4375,-0.4375
670,670,1727895632042,-0.98046875,-0.18164062,-0.10253906,0.25,0.46875,-0.15625
671,671,1727895632082,-0.98535156,-0.18261719,-0.09082031,1.90625,1.5625,0.03125
672,672,1727895632122,-0.9824219,-0.18066406,-0.08105469,-1.21875,-0.21875,-0.3125
673,673,1727895632162,-0.9746094,-0.18457031,-0.09863281,-1.28125,-1.125,-0.03125
674,674,1727895632202,-0.9824219,-0.19433594,-0.09277344,1.28125,0.8125,0.15625
675,675,1727895632242,-0.9785156,-0.18164062,-0.08886719,-0.71875,-0.21875,-0.09375
676,676,1727895632282,-0.9746094,-0.19140625,-0.10644531,-1.03125,-0.15625,0.09375
677,677,1727895632322,-0.984375,-0.1953125,-0.08984375,0.6875,1.125,0.09375
678,678,1727895632362,-0.9746094,-0.1875,-0.08984375,-1.65625,-0.46875,0.03125
679,679,1727895632402,-0.97558594,-0.19140625,-0.10546875,-0.71875,-0.53125,0.21875
680,680,1727895632442,-0.9794922,-0.1796875,-0.10253906,-0.96875,0.03125,0.03125
681,681,1727895632482,-0.9638672,-0.19238281,-0.09277344,1.21875,0.53125,0.59375
682,682,1727895632522,-0.9785156,-0.19238281,-0.095703125,0.1875,0.9375,-0.1875
683,683,1727895632562,-0.97558594,-0.18554688,-0.08496094,-1.40625,-0.59375,-0.15625
684,684,1727895632602,-0.9736328,-0.1875,-0.10839844,-0.25,-0.21875,0.03125
685,685,1727895632642,-0.96875,-0.17480469,-0.10644531,0.8125,0.9375,0.28125
686,686,1727895632682,-0.97753906,-0.18261719,-0.08691406,0.4375,0.40625,0.21875
687,687,1727895632722,-0.9765625,-0.18261719,-0.10253906,-1.21875,-0.15625,0.34375
688,688,1727895632762,-0.9785156,-0.19433594,-0.099609375,0.4375,0.875,0.34375
689,689,1727895632802,-0.984375,-0.18261719,-0.099609375,-1.09375,-0.15625,0.09375
690,690,1727895632842,-0.97753906,-0.18066406,-0.123046875,-1.15625,-0.71875,0.15625
691,691,1727895632882,-0.9794922,-0.18261719,-0.09472656,-0.25,0.875,0.09375
692,692,1727895632922,-0.9951172,-0.18261719,-0.09667969,-0.78125,0.03125,0.21875
693,693,1727895632962,-0.98535156,-0.18652344,-0.10644531,-1.8125,-0.21875,-0.03125
694,694,1727895633002,-0.98339844,-0.18457031,-0.095703125,-0.125,-0.46875,0.09375
695,695,1727895633042,-0.9794922,-0.17382812,-0.09863281,-2.25,-0.71875,-0.09375
696,696,1727895633082,-0.9746094,-0.18554688,-0.10644531,-0.1875,-0.09375,0.46875
697,697,1727895633122,-0.98535156,-0.19042969,-0.08886719,1.90625,1.96875,0.15625
698,698,1727895633162,-0.984375,-0.18261719,-0.091796875,-2.4375,-0.875,-0.3125
699,699,1727895633202,-0.97753906,-0.18359375,-0.109375,-0.84375,-1.3125,0.03125
700,700,1727895633242,-0.98535156,-0.17382812,-0.09277344,1.71875,1.0625,0.09375
701,701,1727895633282,-0.97753906,-0.18847656,-0.09082031,1.15625,0.46875,0.15625
702,702,1727895633322,-0.9902344,-0.19140625,-0.107421875,-0.84375,-0.28125,-0.15625
703,703,1727895633362,-0.98535156,-0.18164062,-0.1015625,0.75,0.40625,-0.09375
704,704,1727895633402,-0.97558594,-0.18554688,-0.08984375,0.125,0.09375,-0.09375
705,705,1727895633442,-0.97265625,-0.18847656,-0.103515625,-0.3125,-0.34375,-0.15625
706,706,1727895633482,-0.98046875,-0.18066406,-0.10449219,0.0625,-0.21875,-0.15625
707,707,1727895633522,-0.98046875,-0.19140625,-0.107421875,-0.1875,0.75,-0.1875
708,708,1727895633562,-0.98535156,-0.17871094,-0.08691406,-0.65625,-0.15625,-0.15625
709,709,1727895633602,-0.97558594,-0.19824219,-0.09863281,-0.53125,-0.65625,0.03125
710,710,1727895633642,-0.9794922,-0.16699219,-0.10058594,-0.0625,0.6875,-0.3125
711,711,1727895633682,-0.9814453,-0.19238281,-0.109375,-0.78125,-0.46875,0.15625
712,712,1727895633722,-0.9667969,-0.18945312,-0.10644531,0.5,0.9375,-0.09375
713,713,1727895633762,-0.97753906,-0.17773438,-0.10058594,0.0625,0.8125,-0.1875
714,714,1727895633802,-0.98046875,-0.18359375,-0.10644531,-0.34375,-0.03125,-0.09375
715,715,1727895633842,-0.9794922,-0.1796875,-0.091796875,-1.21875,-0.71875,-0.25
716,716,1727895633882,-0.9814453,-0.1875,-0.10253906,0.0625,0.28125,0.15625
717,717,1727895633922,-0.96972656,-0.19726562,-0.0859375,1.34375,1.5,0.21875
718,718,1727895633962,-0.984375,-0.18066406,-0.091796875,-0.96875,0.09375,-0.15625
719,719,1727895634002,-0.9746094,-0.18359375,-0.099609375,-1.65625,-0.875,-0.09375
720,720,1727895634042,-0.97558594,-0.1875,-0.107421875,0.0,0.15625,0.03125
721,721,1727895634082,-0.9794922,-0.18554688,-0.10058594,0.875,1.0,0.09375
722,722,1727895634122,-0.98046875,-0.18945312,-0.091796875,-0.59375,0.09375,-0.03125
723,723,1727895634162,-0.97265625,-0.18554688,-0.107421875,-0.1875,0.34375,-0.15625
724,724,1727895634202,-0.9794922,-0.17675781,-0.11425781,-0.34375,0.40625,-0.09375
725,725,1727895634242,-0.98535156,-0.17773438,-0.10253906,-0.46875,-0.15625,-0.03125
726,726,1727895634282,-0.9863281,-0.17675781,-0.109375,-0.65625,0.21875,0.28125
727,727,1727895634322,-0.9716797,-0.18945312,-0.11230469,1.34375,0.53125,0.28125
728,728,1727895634362,-0.9794922,-0.18554688,-0.099609375,-0.71875,0.40625,-0.3125
729,729,1727895634402,-0.98339844,-0.1875,-0.08886719,-1.46875,-0.34375,0.03125
730,730,1727895634442,-0.97265625,-0.19042969,-0.109375,0.1875,0.53125,0.03125
731,731,1727895634482,-0.9716797,-0.18847656,-0.107421875,0.1875,-0.53125,0.09375
732,732,1727895634522,-0.9765625,-0.18359375,-0.107421875,-0.3125,-0.21875,-0.03125
733,733,1727895634562,-0.98046875,-0.1875,-0.10253906,0.75,1.0,0.28125
734,734,1727895634602,-0.9794922,-0.18164062,-0.09765625,0.875,1.0,0.15625
735,735,1727895634642,-0.9785156,-0.17773438,-0.10644531,-1.65625,-1.0625,-0.09375
736,736,1727895634682,-0.9746094,-0.18554688,-0.12207031,-0.96875,-0.9375,0.21875
737,737,1727895634722,-0.9785156,-0.18066406,-0.10839844,1.09375,0.8125,0.15625
738,738,1727895634762,-0.984375,-0.18652344,-0.095703125,0.125,0.28125,0.28125
739,739,1727895634802,-0.984375,-0.18066406,-0.10546875,-2.375,-1.875,-0.09375
740,740,1727895634842,-0.97558594,-0.1953125,-0.103515625,-0.71875,-1.125,0.09375
741,741,1727895634882,-0.9824219,-0.17578125,-0.10839844,-0.125,0.28125,-0.03125
742,742,1727895634922,-0.98046875,-0.18066406,-0.115234375,0.25,-0.59375,0.59375
743,743,1727895634962,-0.9736328,-0.18359375,-0.10546875,1.09375,0.46875,-0.09375
744,744,1727895635002,-0.9902344,-0.17480469,-0.09277344,-1.59375,-1.0,-0.375
745,745,1727895635042,-0.98046875,-0.19628906,-0.10644531,0.375,-0.71875,-0.15625
746,746,1727895635082,-0.9765625,-0.18457031,-0.09277344,0.9375,0.15625,-0.375
747,747,1727895635122,-0.98339844,-0.18359375,-0.09277344,0.625,-0.40625,-0.03125
748,748,1727895635162,-0.984375,-0.17675781,-0.08691406,0.75,0.03125,0.03125
749,749,1727895635202,-0.97753906,-0.18359375,-0.095703125,-0.0625,-1.0,0.03125
750,750,1727895635242,-0.96972656,-0.18066406,-0.095703125,-1.40625,-0.9375,-0.25
751,751,1727895635282,-0.98535156,-0.17773438,-0.10546875,-0.40625,-0.46875,-0.09375
752,752,1727895635322,-0.9746094,-0.18066406,-0.09472656,1.125,0.375,0.125
753,753,1727895635362,-0.98046875,-0.16699219,-0.091796875,-1.0625,-0.25,0.0
754,754,1727895635402,-0.97558594,-0.18359375,-0.09472656,-0.375,-0.125,0.125
755,755,1727895635442,-0.97753906,-0.1875,-0.09765625,0.15625,0.25,0.1875
756,756,1727895635482,-0.97265625,-0.18164062,-0.1015625,-0.3125,-0.3125,0.125
757,757,1727895635522,-0.9785156,-0.17480469,-0.099609375,-1.375,-0.53125,0.25
758,758,1727895635562,-0.9716797,-0.18847656,-0.107421875,-0.3125,-0.0625,0.625
759,759,1727895635602,-0.9746094,-0.18066406,-0.09765625,0.09375,0.90625,0.0
