,Unnamed: 0,timestamp,accel_x,accel_y,accel_z,gyro_x,gyro_y,gyro_z
0,0,1727115185630,-0.9951172,-0.1171875,0.03515625,-0.03125,0.03125,0.125
1,1,1727115185670,-0.984375,-0.111328125,0.034179688,-1.125,-0.46875,-0.25
2,2,1727115185710,-0.99316406,-0.10449219,0.041015625,-1.1875,-0.40625,-0.3125
3,3,1727115185750,-0.99609375,-0.11328125,0.037109375,-1.0625,-0.40625,-0.3125
4,4,1727115185790,-0.9873047,-0.09863281,0.024414062,-0.8125,-0.78125,-0.375
5,5,1727115185830,-0.98535156,-0.09863281,0.040039062,-0.5625,-0.90625,-0.5625
6,6,1727115185870,-0.99902344,-0.1171875,0.038085938,-0.4375,-0.90625,-0.5625
7,7,1727115185910,-0.9873047,-0.111328125,0.033203125,-0.5625,-0.65625,-0.4375
8,8,1727115185950,-0.99902344,-0.103515625,0.034179688,-0.40625,-0.46875,-0.3125
9,9,1727115185990,-0.99316406,-0.111328125,0.026367188,-0.40625,-0.59375,-0.25
10,10,1727115186030,-0.9873047,-0.11621094,0.045898438,-0.40625,-0.46875,-0.125
11,11,1727115186070,-0.9892578,-0.11425781,0.025390625,-0.34375,-0.03125,-0.0625
12,12,1727115186110,-0.99121094,-0.109375,0.033203125,-0.34375,-0.15625,0.0
13,13,1727115186150,-0.9892578,-0.109375,0.05078125,-0.4375,-0.15625,-0.0625
14,14,1727115186190,-0.9863281,-0.11328125,0.03515625,-0.6875,-0.09375,-0.25
15,15,1727115186230,-0.99316406,-0.11230469,0.043945312,-0.625,-0.34375,0.0625
16,16,1727115186270,-0.9921875,-0.1015625,0.037109375,-0.5,-0.40625,0.0625
17,17,1727115186310,-0.99316406,-0.107421875,0.034179688,-0.5,-0.28125,-0.0625
18,18,1727115186350,-0.98535156,-0.10546875,0.041015625,-0.4375,-0.40625,-0.0625
19,19,1727115186390,-0.98828125,-0.10839844,0.04296875,-0.4375,-0.84375,0.0
20,20,1727115186430,-0.9902344,-0.11230469,0.03125,-0.5625,-0.65625,-0.1875
21,21,1727115186470,-0.98535156,-0.11328125,0.038085938,-0.625,-0.40625,-0.25
22,22,1727115186510,-0.99609375,-0.109375,0.0234375,-0.5,-0.59375,-0.0625
23,23,1727115186550,-0.99902344,-0.11230469,0.045898438,-0.34375,-0.34375,0.0625
24,24,1727115186590,-0.99121094,-0.10546875,0.01953125,-0.28125,-0.15625,0.0625
25,25,1727115186630,-0.9951172,-0.107421875,0.025390625,-0.15625,-0.40625,0.1875
26,26,1727115186670,-0.98535156,-0.109375,0.041992188,-0.09375,-0.53125,0.0
27,27,1727115186710,-0.9951172,-0.11035156,0.0390625,-0.28125,-0.53125,-0.1875
28,28,1727115186750,-0.9921875,-0.103515625,0.047851562,-0.5,-0.40625,-0.375
29,29,1727115186790,-0.9902344,-0.111328125,0.049804688,-0.625,-0.59375,-0.125
30,30,1727115186830,-0.984375,-0.10839844,0.033203125,-0.40625,-0.84375,-0.0625
31,31,1727115186870,-0.9941406,-0.10449219,0.030273438,-0.28125,-0.34375,-0.1875
32,32,1727115186910,-0.9873047,-0.111328125,0.030273438,-0.15625,-0.03125,-0.125
33,33,1727115186950,-0.99609375,-0.111328125,0.04296875,-0.15625,-0.65625,-0.3125
34,34,1727115186990,-0.984375,-0.10449219,0.036132812,0.03125,-1.1875,-0.375
35,35,1727115187030,-0.9921875,-0.11621094,0.046875,0.03125,-1.3125,-0.1875
36,36,1727115187070,-0.99316406,-0.10449219,0.044921875,-0.09375,-0.78125,-0.4375
37,37,1727115187110,-0.9873047,-0.09667969,0.041015625,-0.15625,-0.46875,-0.3125
38,38,1727115187150,-0.99121094,-0.10253906,0.03515625,-0.21875,-0.71875,-0.1875
39,39,1727115187190,-0.9921875,-0.10546875,0.034179688,-0.03125,-0.71875,0.0
40,40,1727115187230,-0.99316406,-0.109375,0.03125,0.34375,-0.46875,-0.1875
41,41,1727115187270,-0.9951172,-0.11621094,0.04296875,0.34375,-0.34375,-0.125
42,42,1727115187310,-0.9970703,-0.12011719,0.041992188,0.03125,-0.46875,-0.3125
43,43,1727115187350,-0.99121094,-0.111328125,0.0390625,-0.03125,-0.40625,-0.0625
44,44,1727115187390,-0.98535156,-0.11328125,0.029296875,-0.28125,-0.53125,0.0
45,45,1727115187430,-0.99609375,-0.115234375,0.033203125,-0.5,-0.40625,0.0
46,46,1727115187470,-0.9902344,-0.1171875,0.037109375,-0.6875,-0.46875,-0.0625
47,47,1727115187510,-0.9902344,-0.11035156,0.037109375,-0.8125,-0.28125,0.0
48,48,1727115187550,-0.99121094,-0.1171875,0.044921875,-1.0,-0.40625,0.0625
49,49,1727115187590,-0.9921875,-0.109375,0.0234375,-0.9375,-0.78125,-0.1875
50,50,1727115187630,-0.9921875,-0.111328125,0.030273438,-1.0625,-0.84375,-0.1875
51,51,1727115187670,-0.984375,-0.10644531,0.04296875,-0.28125,-0.40625,-0.1875
52,52,1727115187710,-0.9921875,-0.11230469,0.033203125,-0.28125,-0.09375,-0.0625
53,53,1727115187750,-0.9902344,-0.10546875,0.038085938,0.15625,-0.09375,0.125
54,54,1727115187790,-0.9892578,-0.10546875,0.036132812,0.21875,-0.15625,0.1875
55,55,1727115187830,-0.9941406,-0.11035156,0.044921875,0.28125,-0.34375,0.0625
56,56,1727115187870,-0.9902344,-0.11230469,0.052734375,0.34375,-0.34375,0.1875
57,57,1727115187910,-0.9814453,-0.115234375,0.047851562,-0.03125,-0.15625,0.0
58,58,1727115187950,-0.9892578,-0.10253906,0.029296875,-0.09375,-0.59375,0.0
59,59,1727115187990,-0.9873047,-0.11035156,0.028320312,-0.15625,-0.71875,0.125
60,60,1727115188030,-0.99902344,-0.107421875,0.048828125,-0.40625,-0.65625,0.1875
61,61,1727115188070,-0.9970703,-0.11621094,0.037109375,-0.40625,-0.40625,0.125
62,62,1727115188110,-0.9921875,-0.11328125,0.033203125,-0.5625,-0.71875,-0.1875
63,63,1727115188150,-0.9902344,-0.109375,0.05078125,-0.4375,-0.78125,0.0625
64,64,1727115188190,-0.99609375,-0.1015625,0.025390625,-0.21875,-0.65625,-0.0625
65,65,1727115188230,-0.99121094,-0.10644531,0.04296875,-0.03125,-0.53125,-0.125
66,66,1727115188270,-0.9941406,-0.10839844,0.0390625,0.03125,-0.59375,-0.125
67,67,1727115188310,-0.9863281,-0.11035156,0.034179688,0.03125,-0.59375,0.0625
68,68,1727115188350,-0.9921875,-0.111328125,0.030273438,0.09375,-0.84375,-0.0625
69,69,1727115188390,-0.9892578,-0.1171875,0.0390625,-0.34375,-0.46875,-0.125
70,70,1727115188430,-0.9951172,-0.115234375,0.037109375,-0.4375,-0.65625,-0.0625
71,71,1727115188470,-0.98535156,-0.11230469,0.0390625,-0.875,-1.03125,-0.25
72,72,1727115188510,-0.9892578,-0.10839844,0.044921875,-0.75,-0.90625,-0.25
73,73,1727115188550,-0.9892578,-0.107421875,0.045898438,-0.4375,-0.78125,-0.1875
74,74,1727115188590,-0.9892578,-0.11230469,0.040039062,-0.09375,-0.65625,-0.125
75,75,1727115188630,-0.9902344,-0.11230469,0.036132812,-0.15625,-0.96875,0.125
76,76,1727115188670,-0.9902344,-0.10546875,0.040039062,0.03125,-0.71875,0.125
77,77,1727115188710,-0.99902344,-0.095703125,0.037109375,0.65625,-0.03125,0.1875
78,78,1727115188750,-1.0009766,-0.11328125,0.046875,0.84375,0.15625,0.1875
79,79,1727115188790,-0.9892578,-0.10546875,0.03515625,0.84375,-0.09375,-0.0625
80,80,1727115188830,-0.984375,-0.10546875,0.04296875,0.65625,-0.03125,0.0625
81,81,1727115188870,-0.9892578,-0.10449219,0.037109375,0.1875,-0.28125,0.0
82,82,1727115188910,-0.9921875,-0.11035156,0.05078125,-0.125,-0.15625,0.0
83,83,1727115188950,-1.0009766,-0.11230469,0.045898438,-0.375,0.09375,0.125
84,84,1727115188990,-1.0009766,-0.11035156,0.038085938,-0.375,-0.09375,-0.0625
85,85,1727115189030,-0.99316406,-0.10546875,0.030273438,-0.4375,-0.34375,0.125
86,86,1727115189070,-0.9921875,-0.10839844,0.049804688,-0.5,-0.21875,-0.0625
87,87,1727115189110,-0.9873047,-0.10644531,0.044921875,-0.5,-0.09375,-0.125
88,88,1727115189150,-0.9941406,-0.11230469,0.044921875,-0.4375,-0.28125,-0.25
89,89,1727115189190,-0.9892578,-0.11035156,0.051757812,0.0,-0.40625,-0.125
90,90,1727115189230,-0.99121094,-0.10253906,0.03125,-0.0625,-0.28125,-0.1875
91,91,1727115189270,-1.0009766,-0.10449219,0.048828125,-0.125,-0.34375,-0.25
92,92,1727115189310,-0.9873047,-0.10449219,0.0546875,0.1875,-0.21875,-0.1875
93,93,1727115189350,-0.99121094,-0.103515625,0.040039062,0.1875,-0.09375,-0.1875
94,94,1727115189390,-0.984375,-0.11035156,0.041992188,0.3125,0.3125,-0.5
95,95,1727115189430,-0.9892578,-0.1015625,0.04296875,0.1875,0.4375,-0.125
96,96,1727115189470,-0.99316406,-0.1171875,0.047851562,0.0,0.5,-0.1875
97,97,1727115189510,-0.9970703,-0.115234375,0.041992188,-0.0625,0.4375,-0.1875
98,98,1727115189550,-0.984375,-0.11230469,0.052734375,-0.1875,0.5625,0.0
99,99,1727115189590,-0.99902344,-0.11230469,0.040039062,-0.4375,0.3125,-0.0625
100,100,1727115189630,-0.99902344,-0.11328125,0.046875,-0.6875,0.375,-0.1875
101,101,1727115189670,-0.98535156,-0.099609375,0.046875,-0.625,0.4375,-0.1875
102,102,1727115189710,-0.9873047,-0.10644531,0.043945312,-0.4375,0.4375,-0.25
103,103,1727115189750,-0.9951172,-0.10839844,0.046875,0.0625,0.375,-0.125
104,104,1727115189790,-0.9951172,-0.11230469,0.029296875,0.125,0.28125,-0.0625
105,105,1727115189830,-0.9951172,-0.11035156,0.041015625,0.25,0.09375,-0.125
106,106,1727115189870,-0.99902344,-0.11328125,0.037109375,0.3125,0.21875,0.0
107,107,1727115189910,-0.9980469,-0.10546875,0.043945312,0.1875,0.28125,0.0625
108,108,1727115189950,-0.99316406,-0.107421875,0.041992188,0.25,-0.03125,-0.1875
109,109,1727115189990,-0.9951172,-0.11035156,0.033203125,0.34375,0.03125,-0.0625
110,110,1727115190030,-0.9951172,-0.111328125,0.040039062,0.125,0.21875,0.0
111,111,1727115190070,-0.9873047,-0.111328125,0.0390625,-0.1875,0.28125,0.0
112,112,1727115190110,-0.9902344,-0.107421875,0.045898438,-0.1875,0.3125,0.125
113,113,1727115190150,-0.9941406,-0.11035156,0.05078125,-0.25,0.625,0.0
114,114,1727115190190,-0.9951172,-0.103515625,0.043945312,-0.125,0.3125,-0.125
115,115,1727115190230,-0.9863281,-0.115234375,0.038085938,-0.0625,0.15625,0.0
116,116,1727115190270,-0.9892578,-0.111328125,0.048828125,-0.1875,0.09375,0.0
117,117,1727115190310,-0.9980469,-0.111328125,0.053710938,-0.125,0.03125,0.1875
118,118,1727115190350,-0.99902344,-0.103515625,0.041992188,0.0625,0.09375,0.125
119,119,1727115190390,-0.9941406,-0.109375,0.036132812,-0.0625,0.28125,0.0625
120,120,1727115190430,-0.98535156,-0.10449219,0.045898438,0.0,0.09375,0.125
121,121,1727115190470,-0.9892578,-0.11328125,0.043945312,0.0,0.03125,0.25
122,122,1727115190510,-0.99121094,-0.109375,0.046875,0.0625,-0.09375,0.0625
123,123,1727115190550,-0.984375,-0.111328125,0.047851562,-0.1875,-0.09375,-0.125
124,124,1727115190590,-0.98339844,-0.11035156,0.043945312,-0.125,-0.15625,-0.0625
125,125,1727115190630,-0.9980469,-0.10253906,0.043945312,-0.375,-0.03125,0.0
126,126,1727115190670,-0.9863281,-0.103515625,0.047851562,-0.375,0.03125,0.0625
127,127,1727115190710,-0.9873047,-0.107421875,0.045898438,-0.125,0.09375,0.0
128,128,1727115190750,-0.9873047,-0.10839844,0.04296875,0.0625,0.03125,0.125
129,129,1727115190790,-0.9980469,-0.10449219,0.045898438,-0.125,-0.03125,0.0625
130,130,1727115190830,-0.9902344,-0.11035156,0.0390625,0.0625,-0.09375,-0.0625
131,131,1727115190870,-0.98535156,-0.103515625,0.04296875,0.0,-0.21875,0.0625
132,132,1727115190910,-0.9951172,-0.107421875,0.045898438,0.34375,-0.28125,-0.0625
133,133,1727115190950,-0.99121094,-0.10839844,0.053710938,0.25,-0.21875,-0.125
134,134,1727115190990,-0.98535156,-0.10058594,0.055664062,0.1875,0.03125,-0.4375
135,135,1727115191030,-0.98535156,-0.109375,0.038085938,0.34375,0.15625,-0.3125
136,136,1727115191070,-0.9902344,-0.103515625,0.036132812,0.125,0.03125,-0.375
137,137,1727115191110,-0.9863281,-0.103515625,0.041015625,-0.125,-0.09375,-0.53125
138,138,1727115191150,-0.9980469,-0.1015625,0.048828125,-0.3125,0.15625,-0.375
139,139,1727115191190,-0.99609375,-0.103515625,0.04296875,-0.5625,0.21875,-0.5
140,140,1727115191230,-0.9941406,-0.10839844,0.030273438,-0.6875,0.15625,-0.4375
141,141,1727115191270,-0.9902344,-0.107421875,0.041992188,-0.5,0.09375,-0.25
142,142,1727115191310,-0.99609375,-0.10058594,0.043945312,-0.3125,0.15625,-0.25
143,143,1727115191350,-0.9970703,-0.10644531,0.03515625,-0.03125,0.3125,-0.15625
144,144,1727115191390,-0.9951172,-0.10253906,0.044921875,0.03125,0.5,-0.09375
145,145,1727115191430,-0.9951172,-0.1015625,0.04296875,-0.15625,0.125,-0.21875
146,146,1727115191470,-0.98828125,-0.109375,0.044921875,-0.46875,0.0,-0.15625
147,147,1727115191510,-0.9873047,-0.10644531,0.045898438,-0.40625,0.0,-0.15625
148,148,1727115191550,-0.98828125,-0.107421875,0.03125,-0.40625,0.1875,-0.09375
149,149,1727115191590,-0.9970703,-0.09863281,0.041015625,-0.15625,0.25,-0.09375
150,150,1727115191630,-0.98339844,-0.10449219,0.043945312,-0.21875,0.3125,0.03125
151,151,1727115191670,-0.9921875,-0.10839844,0.041015625,-0.40625,0.125,-0.09375
152,152,1727115191710,-0.9863281,-0.119140625,0.02734375,-0.84375,0.4375,-0.09375
153,153,1727115191750,-0.99121094,-0.10546875,0.033203125,-0.78125,0.4375,-0.03125
154,154,1727115191790,-0.9980469,-0.09863281,0.041015625,-0.71875,0.125,0.03125
155,155,1727115191830,-0.9873047,-0.10839844,0.045898438,-0.84375,0.1875,-0.09375
156,156,1727115191870,-0.9951172,-0.10546875,0.0390625,-0.78125,0.0,-0.09375
157,157,1727115191910,-0.99316406,-0.103515625,0.043945312,-0.53125,0.125,-0.09375
158,158,1727115191950,-0.9863281,-0.119140625,0.045898438,-0.21875,0.1875,-0.21875
159,159,1727115191990,-0.9746094,-0.11328125,0.03515625,-0.15625,0.1875,-0.21875
160,160,1727115192030,-0.9921875,-0.10253906,0.047851562,-0.15625,-0.1875,-0.34375
161,161,1727115192070,-0.9814453,-0.10546875,0.045898438,-0.21875,-0.1875,-0.21875
162,162,1727115192110,-0.9941406,-0.115234375,0.041015625,-0.15625,-0.1875,-0.28125
163,163,1727115192150,-0.9863281,-0.11035156,0.046875,-0.03125,0.1875,-0.28125
164,164,1727115192190,-0.99316406,-0.10839844,0.038085938,-0.03125,0.1875,-0.21875
165,165,1727115192230,-0.9892578,-0.11035156,0.029296875,0.09375,0.125,-0.15625
166,166,1727115192270,-0.9873047,-0.10839844,0.043945312,0.28125,-0.125,-0.34375
167,167,1727115192310,-0.9873047,-0.103515625,0.041992188,0.09375,0.125,-0.46875
168,168,1727115192350,-0.9951172,-0.10839844,0.04296875,-0.03125,0.0,-0.34375
169,169,1727115192390,-0.9921875,-0.11425781,0.049804688,-0.15625,-0.1875,-0.15625
170,170,1727115192430,-0.9980469,-0.107421875,0.036132812,-0.53125,0.0,-0.28125
171,171,1727115192470,-1.0039062,-0.10253906,0.053710938,-0.21875,-0.125,-0.15625
172,172,1727115192510,-0.99902344,-0.109375,0.041992188,0.15625,0.0625,-0.21875
173,173,1727115192550,-0.9873047,-0.10449219,0.044921875,0.40625,0.125,-0.09375
174,174,1727115192590,-0.99902344,-0.11035156,0.038085938,0.03125,0.375,-0.21875
175,175,1727115192630,-1.0,-0.10449219,0.040039062,0.03125,0.25,-0.15625
176,176,1727115192670,-0.99609375,-0.12109375,0.037109375,0.03125,-0.0625,-0.15625
177,177,1727115192710,-0.99609375,-0.111328125,0.040039062,-0.03125,-0.125,0.03125
178,178,1727115192750,-0.99902344,-0.1015625,0.03515625,0.03125,0.125,-0.09375
179,179,1727115192790,-0.9902344,-0.10839844,0.048828125,-0.15625,0.0,-0.15625
180,180,1727115192830,-0.98535156,-0.11230469,0.041992188,-0.21875,-0.0625,-0.03125
181,181,1727115192870,-0.9921875,-0.11230469,0.049804688,-0.34375,0.1875,-0.03125
182,182,1727115192910,-0.9951172,-0.11230469,0.048828125,-0.09375,0.0625,-0.15625
183,183,1727115192950,-0.9951172,-0.10839844,0.04296875,-0.21875,-0.125,-0.15625
184,184,1727115192990,-0.98535156,-0.111328125,0.04296875,-0.34375,0.0,-0.03125
185,185,1727115193030,-0.99609375,-0.1015625,0.040039062,-0.34375,-0.0625,-0.09375
186,186,1727115193070,-0.99121094,-0.11425781,0.036132812,-0.21875,-0.125,0.03125
187,187,1727115193110,-0.9902344,-0.111328125,0.040039062,0.09375,0.125,0.0625
188,188,1727115193150,-0.99316406,-0.111328125,0.037109375,0.15625,0.0625,-0.03125
189,189,1727115193190,-0.99316406,-0.10546875,0.04296875,0.09375,0.1875,0.03125
190,190,1727115193230,-0.99316406,-0.11230469,0.032226562,0.03125,0.3125,-0.09375
191,191,1727115193270,-0.9902344,-0.10546875,0.038085938,-0.03125,-0.0625,-0.09375
192,192,1727115193310,-0.9892578,-0.10839844,0.041992188,-0.03125,-0.0625,0.125
193,193,1727115193350,-1.0048828,-0.11621094,0.041992188,-0.03125,-0.125,0.03125
194,194,1727115193390,-0.9902344,-0.11230469,0.05078125,0.03125,0.25,0.0625
195,195,1727115193430,-0.9941406,-0.103515625,0.055664062,-0.03125,0.1875,0.03125
196,196,1727115193470,-0.99609375,-0.10546875,0.049804688,0.09375,0.3125,-0.09375
197,197,1727115193510,-0.99121094,-0.10253906,0.048828125,-0.09375,-0.125,-0.09375
198,198,1727115193550,-0.98535156,-0.10546875,0.044921875,-0.21875,0.125,-0.09375
199,199,1727115193590,-0.9951172,-0.11621094,0.0390625,-0.46875,0.0625,-0.09375
200,200,1727115193630,-0.99121094,-0.107421875,0.03515625,-0.40625,0.0625,-0.28125
201,201,1727115193670,-0.984375,-0.10449219,0.041015625,-0.53125,-0.0625,-0.28125
202,202,1727115193710,-0.99121094,-0.10546875,0.041015625,-0.40625,-0.125,-0.21875
203,203,1727115193750,-0.9951172,-0.10449219,0.045898438,-0.09375,-0.125,-0.28125
204,204,1727115193790,-0.98828125,-0.103515625,0.040039062,0.03125,0.1875,-0.34375
205,205,1727115193830,-0.9970703,-0.107421875,0.037109375,0.15625,0.0,-0.46875
206,206,1727115193870,-0.9921875,-0.10839844,0.044921875,0.03125,0.125,-0.46875
207,207,1727115193910,-0.9824219,-0.111328125,0.05078125,0.09375,0.0,-0.40625
208,208,1727115193950,-0.9863281,-0.103515625,0.046875,0.09375,-0.1875,-0.15625
209,209,1727115193990,-0.9902344,-0.115234375,0.04296875,0.125,-0.28125,-0.0625
210,210,1727115194030,-0.99316406,-0.107421875,0.045898438,0.0,-0.03125,0.0
211,211,1727115194070,-0.99121094,-0.11230469,0.055664062,0.125,-0.15625,-0.09375
212,212,1727115194110,-0.9892578,-0.11328125,0.043945312,-0.0625,-0.15625,0.0
213,213,1727115194150,-0.9824219,-0.111328125,0.03515625,-0.25,-0.28125,0.0
214,214,1727115194190,-0.98535156,-0.11035156,0.037109375,-0.5,-0.15625,-0.0625
215,215,1727115194230,-0.9951172,-0.09375,0.040039062,-0.5625,-0.21875,-0.15625
216,216,1727115194270,-0.9863281,-0.10644531,0.049804688,-0.375,-0.15625,0.0625
217,217,1727115194310,-0.9902344,-0.111328125,0.049804688,-0.25,-0.03125,-0.0625
218,218,1727115194350,-0.99316406,-0.107421875,0.045898438,0.0,0.03125,0.0
219,219,1727115194390,-0.99609375,-0.109375,0.044921875,-0.125,0.15625,-0.15625
220,220,1727115194430,-1.0019531,-0.115234375,0.049804688,0.1875,0.03125,0.0
221,221,1727115194470,-0.99609375,-0.09863281,0.040039062,0.0,-0.03125,0.0625
222,222,1727115194510,-0.99902344,-0.115234375,0.049804688,-0.25,-0.03125,-0.0625
223,223,1727115194550,-0.9892578,-0.11035156,0.044921875,-0.5,-0.03125,-0.15625
224,224,1727115194590,-0.9951172,-0.10058594,0.044921875,-0.5625,-0.34375,0.0
225,225,1727115194630,-0.9921875,-0.10839844,0.044921875,-0.375,-0.21875,0.0
226,226,1727115194670,-0.99121094,-0.11621094,0.040039062,-0.0625,-0.03125,0.0625
227,227,1727115194710,-0.9863281,-0.10058594,0.03515625,0.125,0.09375,-0.0625
228,228,1727115194750,-0.9921875,-0.10839844,0.046875,0.1875,-0.03125,-0.09375
229,229,1727115194790,-0.984375,-0.111328125,0.037109375,0.25,-0.09375,-0.09375
230,230,1727115194830,-0.9902344,-0.1171875,0.047851562,0.0625,-0.09375,-0.09375
231,231,1727115194870,-0.98339844,-0.111328125,0.045898438,-0.1875,-0.15625,-0.0625
232,232,1727115194910,-0.98828125,-0.09863281,0.040039062,-0.3125,-0.21875,0.125
233,233,1727115194950,-1.0019531,-0.109375,0.046875,0.0,-0.09375,0.0
234,234,1727115194990,-0.99316406,-0.1015625,0.0546875,0.125,0.15625,0.125
235,235,1727115195030,-0.9951172,-0.107421875,0.043945312,0.125,0.3125,0.0
236,236,1727115195070,-0.99316406,-0.10644531,0.047851562,0.3125,0.1875,-0.0625
237,237,1727115195110,-0.99609375,-0.10449219,0.053710938,0.125,0.03125,-0.09375
238,238,1727115195150,-0.99609375,-0.111328125,0.036132812,0.375,0.15625,0.0
239,239,1727115195190,-0.98828125,-0.11035156,0.038085938,0.25,0.375,-0.15625
240,240,1727115195230,-0.99902344,-0.11816406,0.04296875,0.1875,0.1875,-0.15625
241,241,1727115195270,-0.984375,-0.111328125,0.0390625,0.125,0.03125,-0.0625
242,242,1727115195310,-0.98339844,-0.10839844,0.049804688,0.53125,-0.03125,-0.09375
243,243,1727115195350,-0.99316406,-0.11230469,0.05078125,0.375,0.1875,0.0
244,244,1727115195390,-0.9921875,-0.10449219,0.043945312,0.125,0.1875,-0.0625
245,245,1727115195430,-0.9921875,-0.111328125,0.03515625,0.125,0.09375,0.0625
246,246,1727115195470,-0.9902344,-0.10546875,0.040039062,0.1875,0.03125,0.0625
247,247,1727115195510,-0.984375,-0.10839844,0.041015625,-0.0625,0.1875,-0.0625
248,248,1727115195550,-0.99121094,-0.10546875,0.0390625,-0.0625,-0.03125,0.125
249,249,1727115195590,-0.99316406,-0.10253906,0.030273438,-0.1875,-0.03125,0.1875
250,250,1727115195630,-0.99316406,-0.111328125,0.0390625,0.0625,0.03125,0.0625
251,251,1727115195670,-1.0009766,-0.11328125,0.04296875,0.0,-0.09375,0.0625
252,252,1727115195710,-0.9863281,-0.109375,0.036132812,0.0625,-0.15625,0.125
253,253,1727115195750,-0.99316406,-0.111328125,0.0390625,0.0625,-0.03125,0.0
254,254,1727115195790,-0.9980469,-0.10546875,0.048828125,-0.1875,0.1875,0.0
255,255,1727115195830,-0.9951172,-0.109375,0.043945312,-0.125,-0.03125,0.125
256,256,1727115195870,-0.98339844,-0.11035156,0.041992188,-0.3125,0.09375,-0.0625
257,257,1727115195910,-0.9921875,-0.099609375,0.041015625,-0.375,-0.09375,0.0625
258,258,1727115195950,-1.0019531,-0.11230469,0.030273438,0.0625,-0.21875,0.1875
259,259,1727115195990,-0.99316406,-0.111328125,0.041015625,0.125,-0.03125,0.0
260,260,1727115196030,-0.99121094,-0.111328125,0.047851562,0.25,0.15625,0.1875
261,261,1727115196070,-0.9902344,-0.10546875,0.044921875,0.53125,0.03125,0.125
262,262,1727115196110,-0.99121094,-0.109375,0.05078125,0.3125,-0.15625,0.25
263,263,1727115196150,-0.97558594,-0.10546875,0.033203125,0.0625,0.09375,0.25
264,264,1727115196190,-0.9970703,-0.11621094,0.057617188,-0.375,0.1875,-0.0625
265,265,1727115196230,-0.9970703,-0.10546875,0.041992188,-0.375,-0.03125,0.125
266,266,1727115196270,-0.99609375,-0.107421875,0.046875,-0.5625,-0.03125,0.125
267,267,1727115196310,-0.99609375,-0.10058594,0.044921875,-0.0625,0.03125,0.125
268,268,1727115196350,-0.99609375,-0.10644531,0.041015625,0.375,0.15625,0.0
269,269,1727115196390,-0.99316406,-0.10644531,0.04296875,0.59375,0.1875,-0.0625
270,270,1727115196430,-0.9970703,-0.10253906,0.0390625,0.65625,0.375,0.0
271,271,1727115196470,-0.984375,-0.10253906,0.043945312,0.46875,0.15625,-0.15625
272,272,1727115196510,-0.99609375,-0.11328125,0.049804688,0.3125,0.3125,-0.15625
273,273,1727115196550,-0.9902344,-0.109375,0.038085938,-0.0625,0.1875,-0.34375
274,274,1727115196590,-0.9970703,-0.111328125,0.037109375,-0.5,-0.15625,-0.40625
275,275,1727115196630,-0.9970703,-0.11035156,0.037109375,-0.375,-0.21875,-0.15625
276,276,1727115196670,-0.9980469,-0.09863281,0.036132812,-0.125,-0.09375,0.0
277,277,1727115196710,-0.99316406,-0.103515625,0.045898438,0.125,0.09375,-0.0625
278,278,1727115196750,-1.0009766,-0.10449219,0.055664062,0.0625,-0.03125,0.0625
279,279,1727115196790,-0.9941406,-0.10253906,0.056640625,0.125,0.09375,0.0
280,280,1727115196830,-0.9970703,-0.119140625,0.044921875,-0.0625,-0.28125,-0.0625
281,281,1727115196870,-0.9951172,-0.119140625,0.04296875,-0.25,-0.21875,-0.09375
282,282,1727115196910,-0.99609375,-0.099609375,0.038085938,-0.5,-0.21875,-0.09375
283,283,1727115196950,-0.9941406,-0.109375,0.036132812,-0.5625,-0.21875,-0.09375
284,284,1727115196990,-1.0,-0.1171875,0.041992188,-0.3125,-0.28125,-0.09375
285,285,1727115197030,-0.99316406,-0.10546875,0.040039062,-0.0625,-0.28125,-0.0625
286,286,1727115197070,-0.99121094,-0.1171875,0.037109375,0.125,-0.03125,-0.09375
287,287,1727115197110,-0.9902344,-0.11035156,0.04296875,0.1875,-0.03125,-0.0625
288,288,1727115197150,-0.9921875,-0.107421875,0.036132812,0.25,0.09375,-0.09375
289,289,1727115197190,-0.9863281,-0.11230469,0.051757812,0.0625,0.03125,-0.09375
290,290,1727115197230,-0.9902344,-0.11230469,0.029296875,-0.375,-0.09375,-0.15625
291,291,1727115197270,-0.98828125,-0.11230469,0.043945312,-0.5,-0.21875,0.0
292,292,1727115197310,-0.9951172,-0.10839844,0.048828125,-0.125,-0.21875,0.0
293,293,1727115197350,-0.99316406,-0.10839844,0.03515625,-0.125,-0.03125,0.0
294,294,1727115197390,-0.9951172,-0.107421875,0.041015625,0.0625,0.03125,0.0
295,295,1727115197430,-0.98339844,-0.11230469,0.040039062,0.0625,-0.03125,0.25
296,296,1727115197470,-0.9951172,-0.10449219,0.034179688,0.0,-0.03125,0.0
297,297,1727115197510,-0.9921875,-0.09765625,0.048828125,-0.125,-0.15625,-0.09375
298,298,1727115197550,-0.99121094,-0.107421875,0.043945312,-0.3125,0.03125,0.0
299,299,1727115197590,-0.9941406,-0.11230469,0.046875,-0.25,0.09375,0.0
300,300,1727115197630,-0.98535156,-0.111328125,0.041015625,-0.125,0.3125,-0.0625
301,301,1727115197670,-0.99121094,-0.103515625,0.040039062,0.0625,0.1875,-0.0625
302,302,1727115197710,-1.0029297,-0.10644531,0.0546875,0.125,0.15625,0.0625
303,303,1727115197750,-0.9980469,-0.111328125,0.043945312,0.1875,0.15625,0.0
304,304,1727115197790,-0.9863281,-0.1171875,0.045898438,0.125,0.25,-0.15625
305,305,1727115197830,-0.9921875,-0.107421875,0.049804688,0.125,0.15625,0.0625
306,306,1727115197870,-0.9892578,-0.11035156,0.03515625,0.125,0.09375,-0.0625
307,307,1727115197910,-0.98828125,-0.11328125,0.053710938,-0.0625,0.28125,-0.15625
308,308,1727115197950,-0.9902344,-0.10253906,0.03515625,0.15625,0.03125,0.09375
309,309,1727115197990,-0.9951172,-0.10058594,0.041992188,0.15625,0.34375,0.03125
310,310,1727115198030,-0.9892578,-0.095703125,0.040039062,0.40625,0.34375,0.09375
311,311,1727115198070,-0.9951172,-0.11035156,0.045898438,0.59375,0.09375,0.03125
312,312,1727115198110,-0.9892578,-0.10449219,0.032226562,0.53125,0.09375,0.15625
313,313,1727115198150,-0.9941406,-0.10546875,0.041992188,0.15625,-0.03125,0.09375
314,314,1727115198190,-1.0,-0.10058594,0.043945312,-0.0625,-0.03125,0.09375
315,315,1727115198230,-0.99316406,-0.107421875,0.047851562,-0.5625,-0.03125,0.15625
316,316,1727115198270,-0.9902344,-0.10253906,0.040039062,-0.4375,0.09375,0.15625
317,317,1727115198310,-0.9892578,-0.10449219,0.045898438,-0.4375,-0.15625,0.09375
318,318,1727115198350,-0.9902344,-0.11328125,0.0546875,-0.3125,-0.15625,0.03125
319,319,1727115198390,-0.9873047,-0.109375,0.046875,0.21875,-0.03125,0.09375
320,320,1727115198430,-0.98535156,-0.11816406,0.043945312,0.53125,0.09375,-0.15625
321,321,1727115198470,-0.9921875,-0.1171875,0.052734375,0.46875,0.15625,-0.03125
322,322,1727115198510,-0.9892578,-0.11328125,0.04296875,0.28125,0.21875,-0.03125
323,323,1727115198550,-0.99316406,-0.10839844,0.03125,-0.1875,-0.15625,0.15625
324,324,1727115198590,-0.9941406,-0.11425781,0.046875,0.0,-0.21875,0.03125
325,325,1727115198630,-0.9863281,-0.11035156,0.037109375,0.125,0.15625,-0.03125
326,326,1727115198670,-0.9951172,-0.11816406,0.056640625,0.15625,0.15625,0.09375
327,327,1727115198710,-0.99121094,-0.10058594,0.0546875,0.21875,-0.15625,0.09375
328,328,1727115198750,-0.9951172,-0.103515625,0.03515625,0.21875,-0.15625,0.03125
329,329,1727115198790,-0.99121094,-0.10546875,0.043945312,0.125,-0.21875,0.09375
330,330,1727115198830,-0.98535156,-0.1015625,0.046875,0.0,-0.09375,0.09375
331,331,1727115198870,-0.9921875,-0.109375,0.038085938,-0.0625,-0.15625,0.03125
332,332,1727115198910,-0.9951172,-0.1171875,0.03125,-0.0625,0.09375,0.03125
333,333,1727115198950,-0.99121094,-0.10253906,0.055664062,0.0625,-0.09375,-0.09375
334,334,1727115198990,-0.9902344,-0.111328125,0.047851562,0.0,-0.15625,-0.28125
335,335,1727115199030,-0.9892578,-0.109375,0.034179688,0.40625,0.03125,-0.09375
336,336,1727115199070,-0.99609375,-0.103515625,0.043945312,0.53125,0.21875,-0.28125
337,337,1727115199110,-1.0,-0.111328125,0.040039062,0.40625,0.09375,-0.15625
338,338,1727115199150,-0.9892578,-0.11230469,0.046875,0.34375,0.03125,-0.34375
339,339,1727115199190,-0.9941406,-0.10058594,0.045898438,-0.0625,-0.21875,-0.28125
340,340,1727115199230,-0.99902344,-0.10644531,0.036132812,-0.1875,-0.21875,-0.15625
341,341,1727115199270,-0.9921875,-0.11328125,0.041015625,-0.3125,-0.21875,-0.09375
342,342,1727115199310,-0.9921875,-0.11230469,0.034179688,-0.1875,-0.09375,0.03125
343,343,1727115199350,-0.9941406,-0.119140625,0.036132812,-0.1875,-0.09375,-0.09375
344,344,1727115199390,-0.9892578,-0.11035156,0.049804688,-0.0625,-0.03125,-0.03125
345,345,1727115199430,-0.9746094,-0.11230469,0.041992188,0.0625,-0.15625,-0.09375
346,346,1727115199470,-0.9902344,-0.10546875,0.041015625,-0.0625,-0.21875,-0.09375
347,347,1727115199510,-0.984375,-0.111328125,0.05859375,-0.25,-0.09375,0.03125
348,348,1727115199550,-0.9892578,-0.10449219,0.0390625,0.0625,-0.09375,-0.15625
349,349,1727115199590,-0.99121094,-0.10839844,0.046875,0.0625,-0.15625,-0.03125
350,350,1727115199630,-0.9824219,-0.111328125,0.043945312,0.15625,-0.09375,0.03125
351,351,1727115199670,-0.99121094,-0.10839844,0.034179688,0.15625,0.03125,-0.03125
352,352,1727115199710,-0.9863281,-0.11328125,0.053710938,0.21875,-0.03125,-0.03125
353,353,1727115199750,-0.9980469,-0.111328125,0.033203125,-0.1875,-0.09375,0.09375
354,354,1727115199790,-0.9863281,-0.107421875,0.043945312,-0.3125,-0.03125,-0.09375
355,355,1727115199830,-0.9794922,-0.111328125,0.037109375,-0.3125,-0.40625,0.15625
356,356,1727115199870,-0.9951172,-0.115234375,0.05078125,0.0625,-0.28125,0.03125
357,357,1727115199910,-0.9902344,-0.11621094,0.044921875,0.15625,0.03125,0.09375
358,358,1727115199950,-0.984375,-0.11230469,0.043945312,0.125,0.03125,0.09375
359,359,1727115199990,-0.99316406,-0.1171875,0.040039062,0.0625,-0.03125,0.15625
360,360,1727115200030,-1.0,-0.111328125,0.043945312,0.0625,-0.09375,0.03125
361,361,1727115200070,-0.98535156,-0.107421875,0.030273438,-0.125,0.03125,-0.09375
362,362,1727115200110,-0.9921875,-0.111328125,0.0390625,-0.25,0.03125,0.03125
363,363,1727115200150,-0.9921875,-0.11035156,0.029296875,-0.3125,-0.09375,-0.03125
364,364,1727115200190,-0.99121094,-0.10644531,0.0390625,-0.125,0.03125,-0.09375
365,365,1727115200230,-0.9941406,-0.10253906,0.046875,0.0625,0.03125,-0.09375
366,366,1727115200270,-0.9951172,-0.107421875,0.043945312,0.34375,0.03125,0.03125
367,367,1727115200310,-0.99121094,-0.119140625,0.04296875,0.59375,0.03125,0.03125
368,368,1727115200350,-0.9892578,-0.10253906,0.049804688,0.53125,0.03125,0.09375
369,369,1727115200390,-0.9892578,-0.115234375,0.047851562,0.28125,0.15625,-0.09375
370,370,1727115200430,-0.9980469,-0.10546875,0.040039062,0.15625,0.09375,-0.09375
371,371,1727115200470,-0.9902344,-0.111328125,0.04296875,0.0625,-0.34375,0.09375
372,372,1727115200510,-0.9951172,-0.109375,0.037109375,0.0625,-0.09375,0.09375
373,373,1727115200550,-0.99121094,-0.10839844,0.03515625,0.25,0.0625,0.0625
374,374,1727115200590,-0.9970703,-0.11328125,0.03125,0.3125,0.1875,0.0
375,375,1727115200630,-1.0009766,-0.11230469,0.040039062,0.4375,-0.21875,0.0625
376,376,1727115200670,-0.9902344,-0.111328125,0.0390625,0.5,-0.0625,-0.0625
377,377,1727115200710,-0.9794922,-0.111328125,0.026367188,0.125,0.0625,-0.0625
378,378,1727115200750,-0.9941406,-0.11328125,0.043945312,0.0,0.0625,0.0625
379,379,1727115200790,-0.9892578,-0.11816406,0.041992188,0.0,0.375,-0.0625
380,380,1727115200830,-0.9921875,-0.10546875,0.04296875,0.0,0.375,-0.0625
381,381,1727115200870,-0.99609375,-0.11328125,0.033203125,0.125,0.1875,0.125
382,382,1727115200910,-0.9902344,-0.109375,0.040039062,0.3125,-0.0625,-0.0625
383,383,1727115200950,-0.9902344,-0.1171875,0.033203125,0.5,0.0,0.0
384,384,1727115200990,-0.99121094,-0.1015625,0.032226562,0.4375,0.1875,0.0625
385,385,1727115201030,-0.9892578,-0.12011719,0.045898438,0.1875,0.3125,0.0
386,386,1727115201070,-0.9863281,-0.10839844,0.043945312,-0.125,-0.09375,0.0
387,387,1727115201110,-1.0039062,-0.107421875,0.029296875,0.0,0.0625,0.125
388,388,1727115201150,-0.98828125,-0.11230469,0.045898438,-0.125,0.125,0.1875
389,389,1727115201190,-0.99316406,-0.11035156,0.049804688,-0.0625,-0.0625,0.1875
390,390,1727115201230,-1.0009766,-0.11035156,0.044921875,0.0625,-0.0625,0.0625
391,391,1727115201270,-0.99316406,-0.109375,0.046875,0.0625,-0.0625,0.0625
392,392,1727115201310,-0.99121094,-0.11816406,0.041992188,0.0625,-0.15625,-0.09375
393,393,1727115201350,-1.0029297,-0.11425781,0.036132812,-0.125,-0.0625,-0.0625
394,394,1727115201390,-0.98535156,-0.10839844,0.041015625,-0.1875,-0.09375,0.0625
395,395,1727115201430,-0.9892578,-0.11328125,0.044921875,0.0,0.125,0.0
396,396,1727115201470,-1.0029297,-0.109375,0.049804688,-0.0625,0.3125,0.125
397,397,1727115201510,-0.9892578,-0.107421875,0.038085938,0.0,0.25,0.0625
398,398,1727115201550,-0.99902344,-0.10839844,0.038085938,-0.0625,0.1875,-0.15625
399,399,1727115201590,-0.98535156,-0.10644531,0.034179688,0.375,0.0,0.0
400,400,1727115201630,-0.9980469,-0.11328125,0.041015625,0.3125,-0.21875,-0.09375
401,401,1727115201670,-0.9951172,-0.109375,0.030273438,0.4375,-0.09375,-0.09375
402,402,1727115201710,-0.9951172,-0.10644531,0.041992188,0.0625,-0.21875,0.0
403,403,1727115201750,-1.0019531,-0.11328125,0.041992188,0.25,-0.09375,0.125
404,404,1727115201790,-0.99121094,-0.111328125,0.038085938,0.0625,-0.21875,0.0625
405,405,1727115201830,-0.9863281,-0.111328125,0.049804688,-0.0625,0.0,-0.09375
406,406,1727115201870,-0.9980469,-0.11035156,0.05078125,0.0625,-0.0625,-0.0625
407,407,1727115201910,-1.0009766,-0.123046875,0.03125,-0.125,-0.21875,-0.28125
408,408,1727115201950,-0.9892578,-0.115234375,0.046875,-0.125,-0.09375,-0.46875
409,409,1727115201990,-0.9902344,-0.11621094,0.046875,0.0,-0.15625,-0.40625
410,410,1727115202030,-0.9951172,-0.103515625,0.041015625,0.0625,0.0,-0.34375
411,411,1727115202070,-0.9902344,-0.11035156,0.055664062,0.3125,0.1875,-0.15625
412,412,1727115202110,-0.99121094,-0.11035156,0.036132812,0.4375,0.0625,-0.21875
413,413,1727115202150,-0.99316406,-0.111328125,0.05078125,0.3125,0.0,-0.09375
414,414,1727115202190,-0.9921875,-0.11328125,0.046875,-0.125,0.0,-0.15625
415,415,1727115202230,-0.9921875,-0.12011719,0.046875,-0.125,0.0625,-0.28125
416,416,1727115202270,-0.9970703,-0.10839844,0.038085938,-0.65625,-0.09375,-0.21875
417,417,1727115202310,-0.9970703,-0.11621094,0.038085938,-0.65625,-0.15625,-0.28125
418,418,1727115202350,-0.99121094,-0.11621094,0.047851562,-0.65625,-0.46875,0.0
419,419,1727115202390,-0.99609375,-0.11035156,0.03515625,0.0,-0.15625,-0.09375
420,420,1727115202430,-0.9941406,-0.11328125,0.040039062,0.0625,-0.21875,0.0
421,421,1727115202470,-0.9863281,-0.10644531,0.041015625,0.3125,-0.15625,-0.09375
422,422,1727115202510,-0.9892578,-0.1171875,0.043945312,0.4375,-0.28125,0.0625
423,423,1727115202550,-0.99902344,-0.115234375,0.034179688,0.84375,-0.46875,-0.0625
424,424,1727115202590,-0.98828125,-0.11816406,0.048828125,0.65625,-0.46875,0.0625
425,425,1727115202630,-0.99316406,-0.11425781,0.041015625,0.5625,-0.40625,-0.21875
426,426,1727115202670,-0.9941406,-0.119140625,0.040039062,0.125,-0.28125,-0.09375
427,427,1727115202710,-0.99121094,-0.1171875,0.056640625,-0.3125,-0.21875,0.125
428,428,1727115202750,-0.99121094,-0.11230469,0.056640625,-0.4375,-0.46875,0.0
429,429,1727115202790,-0.9902344,-0.107421875,0.0390625,-0.375,-0.53125,0.0
430,430,1727115202830,-0.98339844,-0.11621094,0.051757812,-0.3125,-0.15625,0.0625
431,431,1727115202870,-0.99121094,-0.115234375,0.037109375,0.1875,0.0625,0.3125
432,432,1727115202910,-1.0029297,-0.10839844,0.041015625,0.5625,0.1875,0.25
433,433,1727115202950,-0.9892578,-0.11328125,0.04296875,0.84375,0.5,-0.0625
434,434,1727115202990,-0.9814453,-0.111328125,0.043945312,0.78125,0.1875,0.25
435,435,1727115203030,-0.98535156,-0.115234375,0.037109375,0.84375,0.4375,0.5625
436,436,1727115203070,-0.99121094,-0.1171875,0.045898438,0.65625,0.8125,0.4375
437,437,1727115203110,-0.9824219,-0.123046875,0.043945312,0.65625,0.75,0.4375
438,438,1727115203150,-0.99121094,-0.12011719,0.048828125,0.5,0.625,0.5
439,439,1727115203190,-0.9951172,-0.11816406,0.038085938,0.3125,0.8125,0.5
440,440,1727115203230,-0.9873047,-0.119140625,0.045898438,0.0625,0.875,0.375
441,441,1727115203270,-0.99316406,-0.1171875,0.047851562,-0.125,0.5,0.3125
442,442,1727115203310,-0.9941406,-0.11425781,0.051757812,-0.125,0.5625,0.4375
443,443,1727115203350,-0.9970703,-0.111328125,0.03125,0.0,0.1875,0.5
444,444,1727115203390,-0.9941406,-0.11621094,0.052734375,0.125,0.1875,0.5625
445,445,1727115203430,-0.98339844,-0.10058594,0.043945312,0.375,0.4375,0.375
446,446,1727115203470,-0.9873047,-0.11230469,0.045898438,0.65625,0.625,0.5625
447,447,1727115203510,-0.99902344,-0.12207031,0.022460938,1.03125,0.375,0.625
448,448,1727115203550,-0.9970703,-0.119140625,0.043945312,0.625,0.125,0.3125
449,449,1727115203590,-0.9970703,-0.11328125,0.046875,0.3125,0.1875,0.3125
450,450,1727115203630,-0.9863281,-0.107421875,0.04296875,0.0,-0.15625,0.375
451,451,1727115203670,-0.99121094,-0.11621094,0.033203125,-0.1875,-0.40625,0.375
452,452,1727115203710,-0.9970703,-0.1015625,0.041992188,0.0,-0.21875,0.375
453,453,1727115203750,-0.99121094,-0.11425781,0.0390625,0.125,-0.34375,0.5
454,454,1727115203790,-0.9921875,-0.10839844,0.043945312,0.4375,-0.09375,0.3125
455,455,1727115203830,-0.9921875,-0.10449219,0.045898438,0.5,-0.34375,0.375
456,456,1727115203870,-0.99609375,-0.11230469,0.047851562,0.5,-0.0625,0.0625
457,457,1727115203910,-0.9892578,-0.09765625,0.041992188,0.25,-0.0625,0.125
458,458,1727115203950,-0.99121094,-0.109375,0.044921875,0.0,-0.21875,0.125
459,459,1727115203990,-0.9902344,-0.11425781,0.030273438,-0.0625,-0.21875,0.1875
460,460,1727115204030,-0.9873047,-0.1015625,0.052734375,-0.0625,-0.21875,0.125
461,461,1727115204070,-0.9921875,-0.109375,0.048828125,0.0,-0.09375,0.0
462,462,1727115204110,-0.9892578,-0.11035156,0.047851562,0.125,0.0625,-0.0625
463,463,1727115204150,-0.9970703,-0.10546875,0.038085938,0.0625,0.25,-0.0625
464,464,1727115204190,-0.9863281,-0.11035156,0.048828125,0.125,0.1875,-0.0625
465,465,1727115204230,-0.99316406,-0.107421875,0.04296875,-0.0625,0.125,-0.09375
466,466,1727115204270,-0.9863281,-0.10644531,0.0390625,0.1875,0.0625,0.0
467,467,1727115204310,-0.9941406,-0.11328125,0.047851562,0.3125,0.0625,0.0625
468,468,1727115204350,-0.99316406,-0.109375,0.051757812,0.25,0.1875,0.0
469,469,1727115204390,-0.9980469,-0.11035156,0.041992188,0.25,-0.0625,0.0
470,470,1727115204430,-0.9902344,-0.11816406,0.0390625,0.125,-0.0625,0.0
471,471,1727115204470,-0.9873047,-0.107421875,0.049804688,0.0625,-0.0625,-0.15625
472,472,1727115204510,-0.99121094,-0.10644531,0.046875,0.0,0.0625,-0.09375
473,473,1727115204550,-0.99121094,-0.11621094,0.040039062,-0.125,0.0625,-0.09375
474,474,1727115204590,-1.0,-0.10449219,0.040039062,0.0625,0.1875,-0.21875
475,475,1727115204630,-0.9902344,-0.107421875,0.041015625,0.0625,0.1875,-0.21875
476,476,1727115204670,-0.98535156,-0.10839844,0.038085938,0.125,0.1875,-0.15625
477,477,1727115204710,-0.9921875,-0.10253906,0.043945312,0.1875,0.25,-0.09375
478,478,1727115204750,-0.99902344,-0.115234375,0.03515625,0.125,0.1875,-0.15625
479,479,1727115204790,-0.9814453,-0.11425781,0.048828125,-0.125,-0.09375,0.0
480,480,1727115204830,-0.9951172,-0.111328125,0.046875,-0.0625,0.0625,-0.21875
481,481,1727115204870,-0.9951172,-0.10546875,0.038085938,-0.3125,-0.0625,-0.15625
482,482,1727115204910,-0.9951172,-0.11328125,0.05078125,-0.0625,-0.34375,-0.0625
483,483,1727115204950,-0.98535156,-0.1171875,0.040039062,-0.1875,-0.09375,0.0
484,484,1727115204990,-0.9873047,-0.10839844,0.0390625,0.125,0.3125,-0.0625
485,485,1727115205030,-0.99902344,-0.111328125,0.051757812,0.25,-0.15625,-0.0625
486,486,1727115205070,-0.9941406,-0.11328125,0.040039062,0.1875,-0.21875,0.125
487,487,1727115205110,-0.9951172,-0.11621094,0.036132812,-0.125,-0.21875,-0.0625
488,488,1727115205150,-1.0,-0.109375,0.037109375,-0.25,-0.0625,0.0
489,489,1727115205190,-0.99316406,-0.109375,0.02734375,-0.375,-0.28125,0.25
490,490,1727115205230,-1.0019531,-0.11230469,0.040039062,-0.25,-0.09375,0.125
491,491,1727115205270,-0.984375,-0.099609375,0.049804688,-0.0625,-0.0625,0.125
492,492,1727115205310,-0.9863281,-0.11328125,0.043945312,0.0625,0.0,0.0625
493,493,1727115205350,-0.9951172,-0.109375,0.041992188,0.1875,0.0,0.0625
494,494,1727115205390,-0.9951172,-0.1171875,0.022460938,0.3125,0.3125,0.0
495,495,1727115205430,-0.98828125,-0.111328125,0.049804688,0.1875,0.0,0.125
496,496,1727115205470,-0.98339844,-0.11230469,0.038085938,0.4375,0.1875,-0.09375
497,497,1727115205510,-1.0019531,-0.10839844,0.052734375,0.0625,-0.09375,0.0
498,498,1727115205550,-0.99316406,-0.11035156,0.052734375,0.125,-0.21875,0.125
499,499,1727115205590,-0.99902344,-0.10839844,0.052734375,0.25,-0.09375,0.0625
500,500,1727115205630,-0.99316406,-0.10546875,0.05078125,0.375,0.25,0.125
501,501,1727115205670,-0.98828125,-0.10839844,0.047851562,0.5,0.1875,0.0625
502,502,1727115205710,-0.99121094,-0.11425781,0.037109375,0.3125,0.0625,0.125
503,503,1727115205750,-0.9951172,-0.11328125,0.034179688,0.15625,0.15625,0.0625
504,504,1727115205790,-0.99121094,-0.1015625,0.045898438,-0.03125,0.21875,0.0
505,505,1727115205830,-0.9902344,-0.11621094,0.037109375,0.03125,0.03125,0.0625
506,506,1727115205870,-0.9873047,-0.10546875,0.04296875,-0.03125,0.09375,0.125
507,507,1727115205910,-0.9892578,-0.11621094,0.03515625,0.03125,0.03125,0.125
508,508,1727115205950,-0.9921875,-0.10644531,0.041992188,0.03125,0.09375,0.0
509,509,1727115205990,-0.9951172,-0.107421875,0.041015625,0.28125,0.09375,0.0625
510,510,1727115206030,-0.9873047,-0.11035156,0.043945312,0.28125,0.34375,0.125
511,511,1727115206070,-0.9892578,-0.103515625,0.047851562,0.34375,-0.09375,0.3125
512,512,1727115206110,-0.9921875,-0.12011719,0.044921875,0.34375,0.40625,-0.0625
513,513,1727115206150,-0.9873047,-0.10449219,0.032226562,-0.03125,-0.03125,0.0625
514,514,1727115206190,-0.99121094,-0.10839844,0.047851562,-0.03125,-0.03125,0.3125
515,515,1727115206230,-0.99121094,-0.109375,0.028320312,-0.03125,0.09375,0.3125
516,516,1727115206270,-0.9951172,-0.103515625,0.040039062,0.03125,0.15625,0.3125
517,517,1727115206310,-0.99609375,-0.10449219,0.05078125,0.34375,0.03125,0.25
518,518,1727115206350,-0.9892578,-0.1171875,0.029296875,0.34375,-0.09375,0.1875
519,519,1727115206390,-0.9970703,-0.11230469,0.032226562,0.28125,0.21875,0.1875
520,520,1727115206430,-0.99121094,-0.107421875,0.041015625,-0.03125,-0.28125,0.0
521,521,1727115206470,-0.9980469,-0.10546875,0.049804688,-0.375,-0.21875,0.125
522,522,1727115206510,-0.9980469,-0.10253906,0.046875,-0.21875,0.03125,0.25
523,523,1727115206550,-0.98339844,-0.1015625,0.040039062,-0.21875,0.03125,0.125
524,524,1727115206590,-0.99609375,-0.11035156,0.044921875,-0.15625,0.15625,0.3125
525,525,1727115206630,-0.9941406,-0.103515625,0.038085938,0.15625,0.21875,0.125
526,526,1727115206670,-0.99609375,-0.11328125,0.034179688,0.40625,0.28125,0.125
527,527,1727115206710,-0.9921875,-0.107421875,0.043945312,0.40625,0.03125,0.3125
528,528,1727115206750,-0.9902344,-0.1171875,0.040039062,0.21875,0.09375,0.1875
529,529,1727115206790,-1.0029297,-0.09082031,0.047851562,-0.03125,-0.15625,0.0
530,530,1727115206830,-0.9873047,-0.10058594,0.024414062,-0.03125,-0.15625,0.3125
531,531,1727115206870,-0.99121094,-0.103515625,0.046875,0.28125,-0.03125,0.3125
532,532,1727115206910,-0.98339844,-0.11425781,0.045898438,0.21875,0.15625,0.25
533,533,1727115206950,-0.9873047,-0.107421875,0.043945312,0.21875,-0.03125,0.25
534,534,1727115206990,-0.99609375,-0.10253906,0.043945312,0.34375,0.03125,0.3125
535,535,1727115207030,-0.9951172,-0.103515625,0.038085938,-0.03125,-0.34375,0.1875
536,536,1727115207070,-0.9941406,-0.10546875,0.034179688,-0.03125,-0.15625,0.0625
537,537,1727115207110,-0.9951172,-0.10546875,0.052734375,-0.03125,-0.28125,0.0625
538,538,1727115207150,-0.99121094,-0.10839844,0.029296875,0.03125,-0.15625,0.1875
539,539,1727115207190,-0.99609375,-0.10253906,0.041992188,0.03125,-0.09375,0.125
540,540,1727115207230,-0.9980469,-0.095703125,0.052734375,-0.09375,-0.21875,-0.125
541,541,1727115207270,-0.9814453,-0.10644531,0.041015625,-0.03125,-0.21875,-0.125
542,542,1727115207310,-0.9921875,-0.107421875,0.043945312,-0.03125,-0.21875,-0.1875
543,543,1727115207350,-0.9951172,-0.10449219,0.049804688,-0.15625,-0.375,-0.375
544,544,1727115207390,-0.9814453,-0.111328125,0.046875,-0.5625,-0.03125,-0.375
545,545,1727115207430,-0.98535156,-0.09765625,0.0390625,-0.6875,-0.21875,-0.3125
546,546,1727115207470,-0.98339844,-0.099609375,0.046875,-0.6875,-0.375,-0.25
547,547,1727115207510,-0.99609375,-0.10253906,0.045898438,-0.4375,-0.4375,-0.0625
548,548,1727115207550,-0.9951172,-0.103515625,0.037109375,-0.34375,-0.21875,-0.3125
549,549,1727115207590,-0.9892578,-0.107421875,0.049804688,-0.15625,-0.21875,-0.25
550,550,1727115207630,-1.0009766,-0.109375,0.037109375,0.03125,-0.21875,-0.125
551,551,1727115207670,-0.9921875,-0.10449219,0.038085938,-0.09375,-0.09375,-0.125
552,552,1727115207710,-0.9902344,-0.10839844,0.044921875,-0.28125,-0.15625,-0.375
553,553,1727115207750,-0.9951172,-0.10839844,0.02734375,-0.4375,-0.34375,-0.3125
554,554,1727115207790,-0.9980469,-0.111328125,0.037109375,-0.5625,-0.21875,-0.3125
555,555,1727115207830,-0.9902344,-0.10546875,0.032226562,-0.5625,-0.03125,-0.25
556,556,1727115207870,-0.9970703,-0.11035156,0.032226562,-0.5,-0.03125,-0.0625
557,557,1727115207910,-0.99316406,-0.109375,0.033203125,-0.28125,0.09375,-0.25
558,558,1727115207950,-0.984375,-0.10839844,0.044921875,0.03125,0.15625,-0.1875
559,559,1727115207990,-0.9980469,-0.111328125,0.040039062,0.21875,0.09375,-0.125
560,560,1727115208030,-0.9980469,-0.1171875,0.044921875,0.15625,0.28125,-0.1875
561,561,1727115208070,-0.9863281,-0.107421875,0.038085938,0.09375,0.15625,-0.25
562,562,1727115208110,-0.99609375,-0.11816406,0.034179688,0.03125,-0.28125,0.0
563,563,1727115208150,-0.9873047,-0.109375,0.049804688,0.15625,-0.15625,-0.0625
564,564,1727115208190,-0.98535156,-0.11425781,0.030273438,0.15625,0.15625,-0.125
565,565,1727115208230,-0.98828125,-0.111328125,0.034179688,-0.09375,0.03125,-0.3125
566,566,1727115208270,-0.98339844,-0.115234375,0.057617188,-0.15625,-0.03125,0.0625
567,567,1727115208310,-1.0009766,-0.115234375,0.043945312,-0.28125,-0.03125,-0.125
568,568,1727115208350,-0.9892578,-0.12109375,0.051757812,-0.5625,0.34375,-0.3125
569,569,1727115208390,-0.9892578,-0.10839844,0.041992188,-0.5625,0.21875,-0.1875
570,570,1727115208430,-0.9921875,-0.11425781,0.0390625,-0.5,0.09375,-0.0625
571,571,1727115208470,-0.9951172,-0.10644531,0.041992188,-0.28125,0.03125,-0.0625
572,572,1727115208510,-0.99316406,-0.107421875,0.041992188,-0.21875,0.09375,-0.0625
573,573,1727115208550,-0.99609375,-0.10253906,0.03125,0.03125,0.40625,-0.0625
574,574,1727115208590,-0.9921875,-0.115234375,0.040039062,-0.09375,0.53125,-0.125
575,575,1727115208630,-0.99121094,-0.10058594,0.040039062,-0.03125,0.21875,0.0
576,576,1727115208670,-0.9902344,-0.107421875,0.047851562,-0.15625,0.53125,-0.125
577,577,1727115208710,-0.9892578,-0.10839844,0.032226562,-0.28125,0.28125,-0.1875
578,578,1727115208750,-0.98828125,-0.10449219,0.03515625,-0.15625,0.09375,0.0625
579,579,1727115208790,-0.9951172,-0.11328125,0.041015625,0.21875,-0.21875,0.125
580,580,1727115208830,-0.9951172,-0.111328125,0.041992188,0.46875,0.15625,0.0625
581,581,1727115208870,-0.98535156,-0.10253906,0.037109375,0.65625,0.03125,0.125
582,582,1727115208910,-0.99316406,-0.11230469,0.03515625,0.59375,-0.09375,0.125
583,583,1727115208950,-0.9902344,-0.11816406,0.037109375,0.46875,0.03125,0.0625
584,584,1727115208990,-0.9892578,-0.111328125,0.037109375,0.21875,-0.09375,0.125
585,585,1727115209030,-0.99316406,-0.11425781,0.048828125,-0.09375,-0.03125,0.1875
586,586,1727115209070,-0.9902344,-0.111328125,0.026367188,-0.21875,0.09375,0.25
587,587,1727115209110,-0.984375,-0.11328125,0.034179688,-0.21875,-0.21875,0.0625
588,588,1727115209150,-0.99609375,-0.11035156,0.037109375,-0.21875,-0.28125,0.125
589,589,1727115209190,-0.9921875,-0.107421875,0.033203125,-0.03125,-0.15625,0.125
590,590,1727115209230,-0.99316406,-0.1015625,0.047851562,0.09375,-0.09375,0.0
591,591,1727115209270,-0.9921875,-0.115234375,0.048828125,0.09375,-0.21875,-0.0625
592,592,1727115209310,-0.99121094,-0.109375,0.043945312,0.15625,-0.375,0.0
593,593,1727115209350,-0.99316406,-0.103515625,0.029296875,0.03125,-0.28125,0.0625
594,594,1727115209390,-0.9892578,-0.1015625,0.037109375,0.15625,-0.09375,0.0625
595,595,1727115209430,-0.99121094,-0.10839844,0.03515625,0.03125,-0.15625,0.125
596,596,1727115209470,-0.9873047,-0.10449219,0.046875,0.03125,0.21875,0.1875
597,597,1727115209510,-0.9941406,-0.11425781,0.045898438,-0.21875,-0.21875,0.1875
598,598,1727115209550,-0.9951172,-0.119140625,0.043945312,-0.4375,-0.28125,0.1875
599,599,1727115209590,-0.9863281,-0.103515625,0.047851562,-0.5,-0.34375,0.0
600,600,1727115209630,-0.9980469,-0.10253906,0.032226562,-0.375,-0.34375,-0.0625
601,601,1727115209670,-0.9980469,-0.103515625,0.043945312,-0.5625,-0.21875,0.0
602,602,1727115209710,-0.9902344,-0.09863281,0.037109375,-0.15625,-0.21875,0.0
603,603,1727115209750,-0.9970703,-0.1015625,0.049804688,0.03125,-0.28125,0.0625
604,604,1727115209790,-0.9921875,-0.10058594,0.03515625,0.03125,0.15625,-0.0625
605,605,1727115209830,-0.99121094,-0.1015625,0.0390625,0.15625,-0.09375,-0.1875
606,606,1727115209870,-0.9902344,-0.10839844,0.045898438,0.46875,0.03125,-0.1875
607,607,1727115209910,-0.99609375,-0.10839844,0.038085938,0.09375,-0.03125,-0.1875
608,608,1727115209950,-0.99121094,-0.115234375,0.041992188,0.03125,0.03125,-0.25
609,609,1727115209990,-0.99121094,-0.107421875,0.037109375,-0.28125,-0.15625,-0.125
610,610,1727115210030,-0.98339844,-0.111328125,0.043945312,-0.09375,-0.375,-0.125
611,611,1727115210070,-0.9921875,-0.10644531,0.04296875,-0.21875,-0.28125,-0.1875
612,612,1727115210110,-0.98046875,-0.12109375,0.049804688,-0.34375,-0.03125,-0.1875
613,613,1727115210150,-0.9873047,-0.10253906,0.038085938,-0.15625,-0.21875,-0.0625
614,614,1727115210190,-0.99121094,-0.099609375,0.046875,-0.15625,-0.375,-0.0625
615,615,1727115210230,-0.9951172,-0.11230469,0.045898438,-0.21875,-0.34375,-0.25
616,616,1727115210270,-0.9873047,-0.11230469,0.051757812,-0.28125,-0.375,-0.3125
617,617,1727115210310,-0.9892578,-0.107421875,0.046875,-0.28125,-0.28125,-0.25
618,618,1727115210350,-0.99316406,-0.10546875,0.040039062,-0.28125,-0.34375,-0.1875
619,619,1727115210390,-0.9892578,-0.11621094,0.044921875,-0.21875,-0.4375,-0.3125
620,620,1727115210430,-0.9892578,-0.107421875,0.038085938,-0.28125,-0.375,-0.1875
621,621,1727115210470,-0.9921875,-0.1171875,0.045898438,-0.03125,-0.28125,-0.375
622,622,1727115210510,-0.99609375,-0.11621094,0.046875,-0.03125,-0.21875,0.0
623,623,1727115210550,-0.9921875,-0.11425781,0.0390625,-0.28125,-0.34375,-0.1875
624,624,1727115210590,-0.9746094,-0.1171875,0.038085938,-0.28125,-0.28125,-0.375
625,625,1727115210630,-0.9970703,-0.11621094,0.053710938,-0.4375,-0.5625,-0.125
626,626,1727115210670,-0.99316406,-0.10253906,0.043945312,-0.09375,-0.28125,-0.0625
627,627,1727115210710,-0.9921875,-0.11230469,0.038085938,-0.03125,-0.15625,-0.0625
628,628,1727115210750,-0.984375,-0.11035156,0.048828125,-0.03125,-0.03125,-0.1875
629,629,1727115210790,-0.99121094,-0.109375,0.055664062,-0.09375,-0.09375,-0.1875
630,630,1727115210830,-0.99902344,-0.10839844,0.044921875,-0.15625,-0.15625,-0.1875
631,631,1727115210870,-0.99316406,-0.11035156,0.051757812,-0.34375,-0.03125,-0.1875
632,632,1727115210910,-0.9873047,-0.11425781,0.04296875,-0.28125,-0.34375,-0.25
633,633,1727115210950,-0.9921875,-0.111328125,0.0390625,-0.21875,-0.34375,-0.0625
634,634,1727115210990,-0.9892578,-0.1171875,0.041992188,-0.15625,-0.15625,-0.125
635,635,1727115211030,-0.98339844,-0.111328125,0.047851562,-0.15625,-0.03125,0.0
636,636,1727115211070,-0.9951172,-0.111328125,0.037109375,0.15625,0.09375,-0.0625
637,637,1727115211110,-0.98828125,-0.12011719,0.033203125,0.40625,0.15625,-0.1875
638,638,1727115211150,-0.9873047,-0.11425781,0.043945312,0.34375,0.15625,0.0625
639,639,1727115211190,-0.9941406,-0.11816406,0.029296875,0.46875,0.34375,-0.125
640,640,1727115211230,-0.99316406,-0.11328125,0.046875,0.21875,0.21875,0.0
641,641,1727115211270,-0.99609375,-0.119140625,0.041992188,0.03125,0.21875,0.1875
642,642,1727115211310,-1.0009766,-0.11230469,0.049804688,0.15625,0.03125,0.25
643,643,1727115211350,-0.9941406,-0.1171875,0.034179688,0.34375,0.28125,0.0625
644,644,1727115211390,-0.9902344,-0.11816406,0.03125,0.34375,0.09375,0.125
645,645,1727115211430,-0.99316406,-0.111328125,0.047851562,0.03125,-0.09375,0.1875
646,646,1727115211470,-0.9873047,-0.10449219,0.04296875,-0.03125,-0.03125,0.1875
647,647,1727115211510,-0.99902344,-0.10644531,0.04296875,0.03125,0.15625,0.1875
648,648,1727115211550,-0.9941406,-0.10449219,0.0390625,-0.09375,0.15625,0.375
649,649,1727115211590,-0.9921875,-0.111328125,0.0390625,0.03125,0.40625,0.3125
650,650,1727115211630,-0.99902344,-0.11230469,0.045898438,0.15625,0.21875,0.25
651,651,1727115211670,-0.9892578,-0.10839844,0.04296875,0.15625,-0.09375,0.3125
652,652,1727115211710,-0.9970703,-0.10839844,0.044921875,0.09375,-0.03125,0.25
653,653,1727115211750,-0.9941406,-0.11230469,0.030273438,0.34375,0.09375,0.25
654,654,1727115211790,-0.99609375,-0.103515625,0.043945312,0.21875,-0.03125,0.3125
655,655,1727115211830,-0.9921875,-0.11621094,0.04296875,0.09375,-0.21875,0.1875
656,656,1727115211870,-0.9892578,-0.1015625,0.037109375,0.03125,0.03125,0.25
657,657,1727115211910,-0.98828125,-0.10546875,0.029296875,0.09375,-0.03125,0.3125
658,658,1727115211950,-1.0058594,-0.111328125,0.04296875,0.09375,0.15625,0.1875
659,659,1727115211990,-0.99121094,-0.103515625,0.034179688,0.03125,0.21875,0.25
660,660,1727115212030,-0.9873047,-0.11230469,0.04296875,0.03125,-0.09375,0.125
661,661,1727115212070,-0.9980469,-0.10253906,0.043945312,0.09375,-0.34375,0.0
662,662,1727115212110,-0.99902344,-0.107421875,0.046875,0.09375,-0.34375,0.125
663,663,1727115212150,-0.9921875,-0.103515625,0.034179688,-0.03125,-0.09375,0.0
664,664,1727115212190,-0.9951172,-0.107421875,0.04296875,-0.03125,-0.09375,0.0625
665,665,1727115212230,-0.99121094,-0.10546875,0.056640625,0.03125,0.03125,0.0625
666,666,1727115212270,-0.9941406,-0.11230469,0.033203125,0.03125,0.03125,0.125
667,667,1727115212310,-0.99609375,-0.11328125,0.048828125,-0.03125,-0.21875,-0.0625
668,668,1727115212350,-0.9921875,-0.109375,0.034179688,0.03125,0.03125,-0.0625
669,669,1727115212390,-0.9873047,-0.10546875,0.03125,0.09375,0.15625,-0.0625
670,670,1727115212430,-0.99609375,-0.115234375,0.04296875,-0.09375,-0.09375,-0.3125
671,671,1727115212470,-0.99316406,-0.103515625,0.030273438,-0.28125,-0.09375,-0.375
672,672,1727115212510,-0.99609375,-0.103515625,0.041015625,-0.4375,0.09375,-0.3125
673,673,1727115212550,-0.9814453,-0.10449219,0.046875,-0.15625,0.03125,-0.125
674,674,1727115212590,-1.0009766,-0.11328125,0.032226562,-0.21875,-0.03125,-0.1875
675,675,1727115212630,-0.9902344,-0.11035156,0.036132812,-0.03125,-0.21875,-0.3125
676,676,1727115212670,-0.99316406,-0.10644531,0.029296875,0.03125,-0.09375,-0.3125
677,677,1727115212710,-0.9902344,-0.107421875,0.0390625,-0.03125,-0.15625,-0.1875
678,678,1727115212750,-0.9873047,-0.1015625,0.04296875,-0.21875,-0.09375,-0.1875
679,679,1727115212790,-0.9951172,-0.107421875,0.040039062,-0.4375,-0.5,-0.0625
680,680,1727115212830,-0.98339844,-0.111328125,0.029296875,-0.4375,-0.34375,0.0625
681,681,1727115212870,-0.9921875,-0.11816406,0.041015625,-0.375,-0.34375,-0.125
682,682,1727115212910,-0.9941406,-0.107421875,0.036132812,-0.375,-0.375,0.0625
683,683,1727115212950,-0.9892578,-0.107421875,0.030273438,-0.03125,-0.15625,-0.0625
684,684,1727115212990,-0.9921875,-0.107421875,0.041992188,-0.03125,-0.09375,-0.0625
685,685,1727115213030,-0.9863281,-0.10253906,0.049804688,-0.03125,-0.34375,0.0
686,686,1727115213070,-0.9892578,-0.107421875,0.041992188,-0.09375,-0.15625,-0.0625
687,687,1727115213110,-0.99121094,-0.10253906,0.0390625,-0.03125,-0.15625,-0.0625
688,688,1727115213150,-0.98339844,-0.10839844,0.044921875,-0.15625,-0.6875,0.0625
689,689,1727115213190,-0.9970703,-0.11035156,0.038085938,-0.15625,-0.5,0.0625
690,690,1727115213230,-0.9873047,-0.10644531,0.038085938,-0.03125,-0.09375,-0.0625
691,691,1727115213270,-0.99609375,-0.10546875,0.044921875,-0.21875,-0.34375,-0.125
692,692,1727115213310,-0.9980469,-0.111328125,0.03125,-0.28125,-0.34375,0.125
693,693,1727115213350,-0.9873047,-0.10644531,0.048828125,-0.28125,-0.28125,0.125
694,694,1727115213390,-0.9814453,-0.109375,0.043945312,-0.375,-0.09375,-0.125
695,695,1727115213430,-0.99609375,-0.111328125,0.041015625,-0.375,-0.09375,0.0
696,696,1727115213470,-0.9951172,-0.111328125,0.048828125,-0.375,-0.03125,0.0
697,697,1727115213510,-0.9980469,-0.109375,0.034179688,-0.28125,-0.28125,0.0625
698,698,1727115213550,-0.99121094,-0.11035156,0.033203125,-0.09375,-0.15625,0.0625
699,699,1727115213590,-0.9892578,-0.11621094,0.032226562,0.15625,-0.03125,-0.0625
700,700,1727115213630,-0.9980469,-0.115234375,0.038085938,0.34375,0.03125,0.125
701,701,1727115213670,-0.99902344,-0.11328125,0.043945312,0.28125,0.09375,0.0
702,702,1727115213710,-0.9970703,-0.111328125,0.048828125,0.21875,0.09375,0.0
703,703,1727115213750,-0.9921875,-0.09863281,0.032226562,-0.09375,-0.21875,0.0625
704,704,1727115213790,-0.9941406,-0.1015625,0.041015625,-0.03125,-0.03125,0.125
705,705,1727115213830,-0.9941406,-0.10449219,0.0390625,0.03125,0.03125,0.0
706,706,1727115213870,-0.9902344,-0.119140625,0.041992188,0.15625,-0.03125,0.0625
707,707,1727115213910,-0.99121094,-0.109375,0.044921875,0.15625,0.03125,0.1875
708,708,1727115213950,-0.99121094,-0.10839844,0.041992188,0.09375,0.09375,0.0625
709,709,1727115213990,-0.9951172,-0.10644531,0.0234375,0.03125,0.15625,0.0
710,710,1727115214030,-0.9941406,-0.11425781,0.040039062,0.09375,0.21875,0.125
711,711,1727115214070,-0.9902344,-0.099609375,0.0390625,0.28125,0.15625,0.125
712,712,1727115214110,-0.9902344,-0.10058594,0.043945312,0.21875,0.09375,0.125
713,713,1727115214150,-0.9902344,-0.109375,0.040039062,-0.03125,-0.09375,0.1875
714,714,1727115214190,-0.99316406,-0.10253906,0.038085938,0.09375,-0.03125,0.375
