,timestamp,accel_x,accel_y,accel_z,gyro_x,gyro_y,gyro_z
0,1727268709218,-0.14941406,-0.51464844,0.87890625,-0.125,-0.375,0.78125
1,1727268709247,-0.15039062,-0.52441406,0.8671875,1.28125,-0.4375,0.96875
2,1727268709286,-0.14648438,-0.51171875,0.87109375,1.9375,-1.0625,0.96875
3,1727268709337,-0.13964844,-0.515625,0.8671875,1.03125,-0.5625,0.65625
4,1727268709367,-0.14257812,-0.5126953,0.8779297,0.09375,0.21875,0.03125
5,1727268709398,-0.14355469,-0.5058594,0.8642578,-0.625,0.40625,0.28125
6,1727268709457,-0.14550781,-0.5019531,0.86035156,0.59375,-0.1875,0.53125
7,1727268709490,-0.14257812,-0.51171875,0.8642578,0.46875,0.0,0.46875
8,1727268709548,-0.14550781,-0.50878906,0.86816406,0.84375,-0.5625,0.96875
9,1727268709578,-0.15039062,-0.5136719,0.8701172,0.84375,-0.6875,0.78125
10,1727268709611,-0.14355469,-0.5175781,0.86621094,0.15625,-0.375,0.71875
11,1727268709643,-0.14941406,-0.5078125,0.8779297,0.09375,-0.5625,0.78125
12,1727268709697,-0.15039062,-0.51171875,0.88183594,0.34375,0.0,0.46875
13,1727268709731,-0.15429688,-0.5175781,0.875,0.15625,0.0,0.28125
14,1727268709757,-0.1484375,-0.51171875,0.8798828,0.03125,-0.5,0.40625
15,1727268709817,-0.14648438,-0.5097656,0.87109375,-0.0625,-0.8125,0.53125
16,1727268709849,-0.14746094,-0.5078125,0.86816406,-0.1875,-0.9375,0.71875
17,1727268709878,-0.1484375,-0.5029297,0.86816406,-0.3125,-0.0625,0.65625
18,1727268709938,-0.14453125,-0.515625,0.8623047,-0.0625,-0.6875,0.90625
19,1727268709966,-0.13769531,-0.50390625,0.86621094,0.28125,-0.625,0.71875
20,1727268709997,-0.14160156,-0.5136719,0.87109375,0.21875,-0.1875,0.65625
21,1727268710057,-0.15722656,-0.5097656,0.89160156,0.0,0.40625,0.21875
22,1727268710091,-0.13476562,-0.51171875,0.8847656,0.28125,0.21875,0.21875
23,1727268710121,-0.14550781,-0.5136719,0.8652344,0.40625,-0.1875,0.46875
24,1727268710177,-0.14355469,-0.51171875,0.8642578,0.40625,-0.25,0.53125
25,1727268710207,-0.15429688,-0.5185547,0.8808594,0.65625,0.0,0.34375
26,1727268710237,-0.13671875,-0.50683594,0.86621094,0.46875,0.03125,0.28125
27,1727268710297,-0.14257812,-0.51171875,0.875,0.21875,0.15625,0.09375
28,1727268710327,-0.14453125,-0.5107422,0.87402344,0.15625,0.03125,0.03125
29,1727268710358,-0.15332031,-0.5185547,0.8720703,-0.0625,-0.5625,0.40625
30,1727268710417,-0.15234375,-0.5097656,0.8730469,0.40625,-0.3125,0.15625
31,1727268710451,-0.14648438,-0.52246094,0.8623047,0.46875,0.0,0.15625
32,1727268710478,-0.13867188,-0.51171875,0.8779297,0.34375,-0.5,0.28125
33,1727268710537,-0.14257812,-0.51464844,0.8671875,-0.125,-1.0625,0.65625
34,1727268710569,-0.16308594,-0.5058594,0.87597656,-0.6875,-2.15625,0.90625
35,1727268710598,-0.17089844,-0.49804688,0.8642578,0.34375,-0.25,-0.1875
36,1727268710658,-0.11816406,-0.53515625,0.90234375,2.90625,5.65625,-3.5
37,1727268710695,-0.11621094,-0.515625,0.85253906,0.46875,0.84375,1.5
38,1727268710718,-0.14550781,-0.5078125,0.86328125,-4.21875,-6.0,3.90625
39,1727268710781,-0.16796875,-0.5126953,0.9003906,-1.125,-4.03125,3.21875
40,1727268710808,-0.17773438,-0.51953125,0.84375,2.96875,1.6875,-0.8125
41,1727268710837,-0.13574219,-0.5048828,0.8886719,3.34375,3.78125,-3.1875
42,1727268710898,-0.123046875,-0.4814453,0.87402344,2.4375,0.34375,-1.3125
43,1727268710928,-0.13085938,-0.5019531,0.87109375,-1.65625,-1.71875,0.53125
44,1727268710957,-0.15917969,-0.5185547,0.8671875,-2.28125,-1.34375,1.15625
45,1727268711017,-0.1640625,-0.5175781,0.86621094,0.90625,-0.6875,0.40625
46,1727268711047,-0.13671875,-0.5205078,0.87402344,2.125,-0.5,-0.1875
47,1727268711079,-0.13574219,-0.5,0.8701172,0.59375,-0.125,0.0
48,1727268711137,-0.140625,-0.5175781,0.8769531,-0.5,-0.6875,0.65625
49,1727268711168,-0.15625,-0.5175781,0.86816406,0.0,-0.5,0.46875
50,1727268711198,-0.13378906,-0.5205078,0.8652344,1.28125,-0.625,0.0
51,1727268711257,-0.14355469,-0.50097656,0.8857422,0.96875,-0.1875,0.15625
52,1727268711287,-0.140625,-0.50390625,0.86816406,-0.0625,-0.5625,0.09375
53,1727268711317,-0.1484375,-0.51953125,0.8847656,-0.125,-0.5,0.65625
54,1727268711382,-0.14160156,-0.51171875,0.8642578,0.03125,-0.1875,0.40625
55,1727268711407,-0.13867188,-0.51464844,0.8720703,0.65625,-0.25,0.40625
56,1727268711437,-0.14941406,-0.5058594,0.87109375,0.65625,-0.125,0.40625
57,1727268711497,-0.140625,-0.5175781,0.8701172,-0.1875,0.34375,0.0
58,1727268711529,-0.15039062,-0.5097656,0.8769531,0.0,0.15625,-0.25
59,1727268711562,-0.15039062,-0.5126953,0.8828125,0.21875,-0.125,0.0
60,1727268711618,-0.14453125,-0.5126953,0.8847656,0.34375,-0.1875,0.15625
61,1727268711647,-0.140625,-0.51171875,0.8613281,0.0,-0.1875,0.53125
62,1727268711677,-0.14257812,-0.51171875,0.8828125,0.46875,-0.1875,0.53125
63,1727268711742,-0.14941406,-0.5175781,0.86816406,-0.25,0.15625,0.46875
64,1727268711771,-0.15234375,-0.5175781,0.87402344,0.09375,0.09375,0.34375
65,1727268711827,-0.15625,-0.5126953,0.8652344,0.21875,-0.125,0.09375
66,1727268711858,-0.15136719,-0.5078125,0.875,-0.0625,-0.1875,0.21875
67,1727268711887,-0.14746094,-0.52246094,0.8886719,0.65625,-0.8125,0.65625
68,1727268711919,-0.14453125,-0.5185547,0.8671875,0.59375,-0.3125,0.21875
69,1727268711981,-0.1484375,-0.5205078,0.8671875,0.40625,-0.3125,0.28125
70,1727268712007,-0.15039062,-0.50878906,0.8730469,0.46875,-0.1875,0.0
71,1727268712039,-0.13964844,-0.50878906,0.875,0.21875,-0.125,0.21875
72,1727268712101,-0.15136719,-0.51660156,0.8671875,0.28125,-0.125,0.09375
73,1727268712127,-0.15039062,-0.5185547,0.87890625,0.40625,0.09375,0.40625
74,1727268712157,-0.15136719,-0.51660156,0.8691406,0.59375,-0.5625,0.21875
75,1727268712221,-0.14453125,-0.50683594,0.86621094,0.15625,-0.25,0.21875
76,1727268712247,-0.15332031,-0.5078125,0.87402344,0.0,-0.25,0.34375
77,1727268712277,-0.13574219,-0.50878906,0.8701172,0.34375,-0.1875,0.15625
78,1727268712341,-0.14453125,-0.4951172,0.875,0.65625,0.03125,0.21875
79,1727268712368,-0.13378906,-0.5136719,0.8691406,0.0,-0.1875,0.21875
80,1727268712399,-0.14355469,-0.50878906,0.8730469,0.34375,-0.5,0.28125
81,1727268712458,-0.14257812,-0.50878906,0.86328125,0.59375,-0.4375,0.53125
82,1727268712487,-0.14746094,-0.51171875,0.8730469,0.40625,-0.3125,0.34375
83,1727268712517,-0.140625,-0.5136719,0.8671875,0.21875,0.0,0.28125
84,1727268712577,-0.14550781,-0.51171875,0.8652344,0.09375,-0.375,0.28125
85,1727268712608,-0.14257812,-0.5185547,0.8779297,0.09375,-0.25,0.46875
86,1727268712638,-0.14941406,-0.5214844,0.86621094,0.09375,-0.3125,0.28125
87,1727268712701,-0.14941406,-0.5126953,0.8691406,0.59375,-0.375,0.46875
88,1727268712728,-0.13964844,-0.52441406,0.86816406,0.46875,-0.25,0.09375
89,1727268712757,-0.14941406,-0.51953125,0.87109375,0.46875,-0.5625,0.34375
90,1727268712817,-0.15429688,-0.51171875,0.875,0.15625,-0.1875,0.28125
91,1727268712851,-0.14160156,-0.5175781,0.8671875,0.15625,-0.1875,0.15625
92,1727268712877,-0.15332031,-0.5097656,0.88183594,0.34375,-0.125,0.34375
93,1727268712941,-0.14453125,-0.49804688,0.8623047,-0.0625,-0.125,0.28125
94,1727268712967,-0.14355469,-0.5175781,0.875,0.21875,-0.5625,0.65625
95,1727268713002,-0.14453125,-0.5078125,0.86816406,0.09375,-0.4375,0.65625
96,1727268713057,-0.13964844,-0.51171875,0.8652344,-0.25,-0.375,0.53125
97,1727268713088,-0.14550781,-0.51953125,0.8808594,-0.0625,-0.3125,0.46875
98,1727268713119,-0.15429688,-0.515625,0.88183594,0.34375,0.0,0.28125
99,1727268713182,-0.14160156,-0.5136719,0.8808594,0.59375,-0.125,0.53125
100,1727268713207,-0.140625,-0.5185547,0.8730469,0.28125,-0.125,0.46875
101,1727268713237,-0.14941406,-0.5058594,0.875,0.34375,-0.25,0.65625
102,1727268713297,-0.13867188,-0.51171875,0.8691406,0.0,-0.125,0.40625
103,1727268713330,-0.14941406,-0.5126953,0.859375,0.21875,-0.25,0.21875
104,1727268713357,-0.1484375,-0.50683594,0.8701172,0.34375,0.34375,0.15625
105,1727268713417,-0.14355469,-0.51953125,0.87402344,0.03125,-0.25,0.03125
106,1727268713447,-0.15136719,-0.5175781,0.8613281,0.34375,-0.5625,0.53125
107,1727268713477,-0.14746094,-0.51171875,0.859375,-0.125,-0.5625,0.65625
108,1727268713537,-0.15625,-0.515625,0.8574219,0.09375,-0.25,0.65625
109,1727268713567,-0.14746094,-0.5175781,0.875,0.46875,0.03125,0.28125
110,1727268713597,-0.14648438,-0.5185547,0.87890625,0.21875,0.03125,0.46875
111,1727268713657,-0.13964844,-0.5078125,0.86816406,-0.0625,-0.125,0.65625
112,1727268713688,-0.14941406,-0.5107422,0.8701172,0.0,-0.5,0.65625
113,1727268713718,-0.14941406,-0.5126953,0.86816406,0.15625,-0.1875,0.40625
114,1727268713778,-0.14355469,-0.51953125,0.88378906,0.0,0.03125,0.46875
115,1727268713808,-0.1484375,-0.5175781,0.87597656,0.28125,-0.5625,0.46875
116,1727268713837,-0.14550781,-0.5175781,0.8701172,-0.0625,-0.3125,0.34375
117,1727268713897,-0.14550781,-0.515625,0.8798828,0.09375,0.03125,0.09375
118,1727268713929,-0.14453125,-0.51464844,0.87109375,0.40625,0.0,-0.125
119,1727268713962,-0.15722656,-0.5205078,0.8613281,0.65625,-0.5,0.15625
120,1727268714017,-0.14160156,-0.51464844,0.8769531,0.34375,-0.3125,0.46875
121,1727268714047,-0.14355469,-0.5234375,0.8642578,0.59375,-0.5625,0.40625
122,1727268714107,-0.15136719,-0.50390625,0.8720703,0.96875,-0.3125,0.03125
123,1727268714137,-0.14648438,-0.5136719,0.86816406,0.65625,0.0,0.0
124,1727268714172,-0.14160156,-0.5058594,0.8671875,0.46875,0.0,-0.125
125,1727268714202,-0.14355469,-0.51464844,0.875,0.15625,-0.25,0.03125
126,1727268714258,-0.15136719,-0.5205078,0.8720703,0.21875,-0.125,0.0
127,1727268714288,-0.14746094,-0.5136719,0.8671875,0.21875,0.21875,-0.125
128,1727268714317,-0.15136719,-0.5097656,0.86328125,0.59375,-0.3125,0.15625
129,1727268714379,-0.14257812,-0.52246094,0.8652344,0.59375,-0.375,0.09375
130,1727268714408,-0.15527344,-0.51953125,0.8642578,0.03125,-0.375,0.34375
131,1727268714442,-0.14746094,-0.5214844,0.8720703,0.46875,-0.5625,0.28125
132,1727268714498,-0.15039062,-0.51660156,0.86621094,0.46875,-0.25,0.03125
133,1727268714527,-0.13867188,-0.50683594,0.8798828,0.34375,-0.625,0.21875
134,1727268714558,-0.15039062,-0.5136719,0.8701172,0.40625,-0.625,0.0
135,1727268714617,-0.15039062,-0.5136719,0.8808594,0.46875,-0.25,-0.375
136,1727268714649,-0.1484375,-0.51660156,0.8779297,0.71875,0.03125,-0.25
137,1727268714678,-0.13964844,-0.49902344,0.87109375,0.28125,0.21875,-0.125
138,1727268714737,-0.13964844,-0.52246094,0.8613281,0.71875,0.0,0.21875
139,1727268714768,-0.14453125,-0.5048828,0.87402344,0.84375,0.0,0.40625
140,1727268714800,-0.14453125,-0.51464844,0.8730469,0.28125,-0.125,0.28125
141,1727268714861,-0.14355469,-0.5126953,0.88378906,0.34375,-0.4375,0.34375
142,1727268714888,-0.14941406,-0.51171875,0.8808594,0.40625,0.0,0.21875
143,1727268714920,-0.15136719,-0.5136719,0.87402344,0.46875,-0.3125,0.0
144,1727268714977,-0.14160156,-0.51171875,0.8779297,0.15625,-0.25,0.0
145,1727268715009,-0.14746094,-0.50878906,0.875,0.15625,-0.25,0.34375
146,1727268715037,-0.15429688,-0.50878906,0.86816406,0.28125,-0.25,0.21875
147,1727268715097,-0.15332031,-0.51953125,0.88183594,0.71875,-0.4375,0.46875
148,1727268715127,-0.14160156,-0.5136719,0.8671875,0.71875,-0.375,0.34375
149,1727268715161,-0.15234375,-0.50683594,0.87109375,0.28125,-0.4375,0.46875
150,1727268715221,-0.14648438,-0.5175781,0.8701172,0.59375,-0.3125,0.53125
151,1727268715247,-0.15332031,-0.5214844,0.8730469,0.40625,-0.3125,0.53125
152,1727268715283,-0.14160156,-0.5126953,0.8779297,0.65625,0.03125,0.15625
153,1727268715337,-0.14160156,-0.51171875,0.87402344,0.28125,-0.125,0.09375
154,1727268715368,-0.14453125,-0.51171875,0.8671875,0.28125,-0.1875,0.15625
155,1727268715402,-0.14160156,-0.5097656,0.8691406,0.34375,-0.125,0.21875
156,1727268715457,-0.15039062,-0.5136719,0.87402344,0.21875,-0.125,0.28125
157,1727268715490,-0.14746094,-0.51953125,0.8730469,0.65625,-0.375,0.40625
158,1727268715517,-0.1484375,-0.50390625,0.8730469,0.34375,-0.4375,0.28125
159,1727268715580,-0.1484375,-0.5136719,0.8652344,-0.1875,-0.375,0.21875
160,1727268715607,-0.13574219,-0.5097656,0.8769531,0.21875,-0.5,0.21875
161,1727268715640,-0.15722656,-0.5126953,0.8769531,0.03125,-0.25,0.21875
162,1727268715698,-0.15136719,-0.5175781,0.8701172,0.34375,-0.5,0.21875
163,1727268715728,-0.14453125,-0.5107422,0.8847656,0.40625,-0.1875,0.28125
164,1727268715759,-0.14746094,-0.51464844,0.8564453,0.15625,-0.3125,0.34375
165,1727268715817,-0.14941406,-0.5185547,0.8642578,0.28125,-0.25,0.28125
166,1727268715851,-0.14355469,-0.51660156,0.8701172,0.59375,-0.1875,0.21875
167,1727268715881,-0.15625,-0.515625,0.8691406,0.40625,0.0,0.15625
168,1727268715938,-0.13964844,-0.5048828,0.8779297,0.15625,-0.125,0.15625
169,1727268715967,-0.14648438,-0.51171875,0.8730469,0.28125,-0.1875,0.28125
170,1727268716002,-0.15234375,-0.5058594,0.8652344,0.34375,-0.3125,0.46875
171,1727268716058,-0.15234375,-0.51464844,0.87109375,0.15625,-0.4375,0.46875
172,1727268716087,-0.14550781,-0.5097656,0.8730469,0.28125,-0.3125,0.34375
173,1727268716122,-0.14453125,-0.5263672,0.86816406,0.21875,-0.25,0.40625
174,1727268716177,-0.140625,-0.50878906,0.8623047,0.84375,-0.625,0.15625
175,1727268716212,-0.14160156,-0.5136719,0.8730469,-0.0625,-0.375,0.28125
176,1727268716237,-0.15136719,-0.51464844,0.8730469,0.34375,-0.4375,0.46875
177,1727268716299,-0.14160156,-0.5097656,0.8730469,0.34375,0.03125,0.03125
178,1727268716331,-0.14746094,-0.5078125,0.8671875,0.40625,0.0,0.09375
179,1727268716387,-0.15039062,-0.5136719,0.87402344,0.40625,-0.1875,0.09375
180,1727268716419,-0.15234375,-0.5136719,0.87597656,0.28125,0.0,0.34375
181,1727268716447,-0.15039062,-0.5058594,0.8720703,0.21875,-0.25,0.34375
182,1727268716481,-0.1484375,-0.50683594,0.8642578,0.03125,-0.3125,0.46875
183,1727268716537,-0.14550781,-0.51660156,0.86816406,0.21875,0.0,0.65625
184,1727268716569,-0.15332031,-0.51660156,0.87109375,0.09375,-0.5625,0.71875
185,1727268716598,-0.14453125,-0.51464844,0.8769531,0.46875,-0.4375,0.71875
186,1727268716657,-0.15039062,-0.5048828,0.86328125,0.28125,0.0,0.40625
187,1727268716690,-0.140625,-0.51464844,0.859375,0.0,0.09375,0.34375
188,1727268716723,-0.1484375,-0.5205078,0.87890625,0.46875,-0.1875,0.34375
189,1727268716783,-0.15722656,-0.5175781,0.86328125,0.46875,-0.125,0.34375
190,1727268716813,-0.14355469,-0.5048828,0.8798828,0.34375,0.0,0.40625
191,1727268716837,-0.14550781,-0.5126953,0.859375,0.28125,-0.25,0.65625
192,1727268716897,-0.13867188,-0.51953125,0.8730469,0.09375,-0.8125,0.46875
193,1727268716928,-0.15234375,-0.515625,0.8798828,-0.0625,-0.4375,0.65625
194,1727268716959,-0.15429688,-0.5126953,0.87402344,0.21875,0.03125,0.28125
195,1727268717022,-0.140625,-0.5126953,0.8642578,0.40625,0.0,0.09375
196,1727268717048,-0.14160156,-0.5175781,0.8984375,0.21875,-0.4375,0.53125
197,1727268717077,-0.14746094,-0.5126953,0.8691406,0.03125,-0.5,0.65625
198,1727268717138,-0.15234375,-0.515625,0.87597656,0.09375,-0.625,0.65625
199,1727268717167,-0.1484375,-0.51464844,0.859375,0.28125,0.0,0.34375
200,1727268717198,-0.1484375,-0.49902344,0.8671875,-0.28125,0.09375,-0.125
201,1727268717261,-0.15136719,-0.5107422,0.8691406,-0.03125,0.09375,-0.0625
202,1727268717289,-0.15625,-0.5097656,0.86621094,0.03125,0.21875,0.0
203,1727268717318,-0.1484375,-0.51660156,0.8652344,0.09375,0.03125,-0.0625
204,1727268717377,-0.14648438,-0.5126953,0.8642578,0.4375,0.09375,-0.0625
205,1727268717409,-0.15136719,-0.5126953,0.8642578,-0.03125,0.09375,-0.1875
206,1727268717437,-0.15722656,-0.5175781,0.8652344,0.1875,0.09375,-0.25
207,1727268717498,-0.1484375,-0.51660156,0.86816406,0.375,-0.03125,-0.0625
208,1727268717528,-0.14550781,-0.5097656,0.8730469,0.3125,-0.1875,-0.1875
209,1727268717617,-0.15136719,-0.5097656,0.8691406,-0.03125,0.21875,-0.4375
210,1727268717648,-0.15039062,-0.51171875,0.8730469,0.5625,0.53125,-0.4375
211,1727268717678,-0.14160156,-0.5078125,0.87109375,0.375,0.53125,-0.9375
212,1727268717712,-0.13769531,-0.5078125,0.87109375,0.3125,-0.1875,-0.25
213,1727268717745,-0.14257812,-0.51171875,0.8720703,0.1875,-0.4375,-0.0625
214,1727268717770,-0.15625,-0.5078125,0.88671875,0.03125,-0.5,-0.0625
215,1727268717798,-0.14746094,-0.51953125,0.8769531,0.1875,-0.09375,-0.375
216,1727268717857,-0.15234375,-0.51464844,0.8671875,0.09375,-0.03125,-0.4375
217,1727268717888,-0.1484375,-0.5136719,0.8701172,0.09375,-0.09375,-0.25
218,1727268717918,-0.15234375,-0.51171875,0.8798828,0.1875,0.21875,-0.375
219,1727268717979,-0.14550781,-0.51171875,0.8701172,0.09375,0.40625,-0.375
220,1727268718008,-0.14746094,-0.5126953,0.87402344,-0.09375,0.21875,-0.3125
221,1727268718037,-0.1484375,-0.52246094,0.86328125,0.09375,-0.03125,-0.25
222,1727268718102,-0.14941406,-0.5078125,0.87402344,0.3125,-0.25,-0.125
223,1727268718128,-0.15625,-0.51171875,0.8701172,0.1875,0.03125,-0.25
224,1727268718160,-0.15039062,-0.5214844,0.8691406,0.3125,0.03125,-0.1875
225,1727268718217,-0.14550781,-0.5097656,0.87890625,-0.03125,0.21875,-0.4375
226,1727268718247,-0.15234375,-0.5078125,0.87109375,-0.03125,-0.375,-0.0625
227,1727268718278,-0.1484375,-0.51171875,0.8691406,0.03125,0.09375,-0.0625
228,1727268718338,-0.1484375,-0.51953125,0.8701172,0.15625,-0.03125,-0.3125
229,1727268718367,-0.1484375,-0.51660156,0.8613281,0.4375,-0.1875,-0.3125
230,1727268718427,-0.140625,-0.51660156,0.85546875,0.09375,-0.03125,-0.25
231,1727268718458,-0.14550781,-0.51171875,0.8808594,0.03125,-0.25,-0.375
232,1727268718489,-0.15429688,-0.5078125,0.8574219,0.15625,-0.09375,-0.3125
233,1727268718548,-0.14746094,-0.5126953,0.8613281,0.1875,-0.09375,-0.125
234,1727268718578,-0.140625,-0.5136719,0.86328125,0.1875,0.09375,-0.1875
235,1727268718608,-0.140625,-0.5048828,0.8847656,0.09375,0.21875,-0.1875
236,1727268718669,-0.14550781,-0.50878906,0.8652344,-0.21875,0.28125,-0.375
237,1727268718699,-0.1484375,-0.5107422,0.8886719,-0.40625,0.09375,-0.4375
238,1727268718732,-0.15136719,-0.5126953,0.8613281,-0.28125,0.15625,-0.4375
239,1727268718787,-0.14453125,-0.51464844,0.8779297,-0.15625,0.03125,-0.1875
240,1727268718818,-0.14355469,-0.50683594,0.85058594,-0.09375,-0.03125,-0.375
241,1727268718854,-0.14160156,-0.5019531,0.86816406,-0.46875,0.15625,-0.75
242,1727268718909,-0.1484375,-0.51171875,0.87890625,-0.46875,-0.03125,-0.5
243,1727268718942,-0.15136719,-0.5058594,0.8691406,-0.40625,-0.03125,-0.375
244,1727268718968,-0.13574219,-0.51464844,0.8876953,-0.34375,0.09375,-0.375
245,1727268719029,-0.14453125,-0.50683594,0.8769531,-0.46875,0.03125,-0.5
246,1727268719058,-0.14941406,-0.5097656,0.8652344,-0.34375,-0.1875,-0.4375
247,1727268719088,-0.14453125,-0.51171875,0.86816406,-0.15625,-0.125,-0.375
248,1727268719148,-0.14160156,-0.51660156,0.8671875,-0.21875,-0.03125,-0.1875
249,1727268719183,-0.15039062,-0.50683594,0.87597656,-0.34375,0.21875,-0.5
250,1727268719209,-0.14941406,-0.5136719,0.8691406,-0.28125,0.21875,-0.375
251,1727268719267,-0.13476562,-0.5107422,0.8730469,-0.53125,0.09375,-0.4375
252,1727268719299,-0.14550781,-0.5048828,0.86328125,-0.15625,0.40625,-0.5625
253,1727268719327,-0.15429688,-0.5136719,0.8730469,-0.28125,0.28125,-0.5625
254,1727268719387,-0.15136719,-0.50683594,0.87402344,-0.15625,0.46875,-0.5625
255,1727268719418,-0.15527344,-0.5029297,0.8623047,-0.15625,0.21875,-0.4375
256,1727268719452,-0.14941406,-0.5048828,0.8730469,-0.34375,0.03125,-0.375
257,1727268719507,-0.14453125,-0.5136719,0.8720703,-1.09375,-0.03125,-0.25
258,1727268719538,-0.16113281,-0.5214844,0.87890625,-0.46875,-0.5,-0.0625
259,1727268719572,-0.15820312,-0.5058594,0.8886719,-0.21875,0.28125,-0.25
260,1727268719627,-0.15136719,-0.5136719,0.8779297,-0.40625,0.34375,-0.3125
261,1727268719658,-0.1484375,-0.50683594,0.85546875,-0.28125,0.21875,-0.3125
262,1727268719692,-0.140625,-0.5058594,0.86621094,-0.53125,0.03125,-0.1875
263,1727268719748,-0.15039062,-0.5126953,0.8779297,-0.28125,0.03125,-0.375
264,1727268719781,-0.14355469,-0.51171875,0.8769531,-0.09375,0.34375,-0.25
265,1727268719807,-0.15332031,-0.5107422,0.87597656,-0.34375,0.34375,-0.5
266,1727268719898,-0.15429688,-0.50683594,0.8671875,-0.53125,0.03125,-0.25
267,1727268719929,-0.15039062,-0.51464844,0.87109375,-0.59375,-0.09375,-0.1875
268,1727268719957,-0.16210938,-0.50878906,0.86035156,-0.34375,0.15625,-0.25
269,1727268719987,-0.15722656,-0.4970703,0.8671875,-0.46875,0.15625,-0.125
270,1727268720019,-0.14550781,-0.5058594,0.87890625,-0.46875,0.15625,-0.375
271,1727268720048,-0.14453125,-0.51464844,0.8798828,-0.40625,-0.03125,-0.0625
272,1727268720108,-0.13964844,-0.5058594,0.8779297,-0.78125,-0.03125,-0.125
273,1727268720145,-0.14746094,-0.5126953,0.8623047,-1.09375,-0.09375,-0.0625
274,1727268720168,-0.15722656,-0.5126953,0.8730469,-0.46875,0.15625,-0.375
275,1727268720258,-0.14648438,-0.5097656,0.8652344,-0.46875,0.34375,-0.625
276,1727268720288,-0.14550781,-0.5126953,0.8798828,-0.34375,-0.1875,-0.0625
277,1727268720324,-0.15234375,-0.5126953,0.86621094,-0.59375,-0.1875,-0.1875
278,1727268720382,-0.15039062,-0.5175781,0.8623047,-0.40625,-0.125,0.0
279,1727268720408,-0.14160156,-0.5097656,0.8701172,-0.28125,0.21875,-0.3125
280,1727268720441,-0.15332031,-0.515625,0.87597656,-0.40625,0.40625,-0.4375
281,1727268720500,-0.14257812,-0.51660156,0.86621094,-0.34375,0.28125,-0.625
282,1727268720528,-0.15332031,-0.50878906,0.8720703,-0.21875,0.15625,-0.4375
283,1727268720562,-0.14550781,-0.5185547,0.87109375,-0.28125,0.40625,-0.5625
284,1727268720587,-0.15136719,-0.5097656,0.8720703,0.03125,0.46875,-0.6875
285,1727268720617,-0.15429688,-0.51953125,0.87402344,0.03125,0.53125,-0.8125
286,1727268720649,-0.14941406,-0.51660156,0.8701172,0.25,0.21875,-0.5
287,1727268720707,-0.14355469,-0.51171875,0.87109375,-0.34375,0.15625,-0.75
288,1727268720737,-0.1484375,-0.51171875,0.86816406,-0.34375,0.03125,-0.6875
289,1727268720767,-0.15429688,-0.5019531,0.87109375,0.03125,0.46875,-0.75
290,1727268720830,-0.15136719,-0.5107422,0.8652344,-0.34375,0.28125,-0.9375
291,1727268720858,-0.15039062,-0.5136719,0.8769531,-0.09375,-0.25,-0.5625
292,1727268720888,-0.1484375,-0.51660156,0.87597656,-0.15625,-0.125,-0.5
293,1727268720947,-0.15625,-0.50878906,0.875,-0.46875,-0.03125,-0.5
294,1727268720978,-0.15136719,-0.51953125,0.859375,-0.28125,0.21875,-0.5
295,1727268721011,-0.14941406,-0.5214844,0.8730469,-0.28125,0.09375,-0.5625
296,1727268721068,-0.14941406,-0.52441406,0.8623047,-0.21875,0.34375,-0.625
297,1727268721097,-0.16015625,-0.515625,0.87109375,-0.21875,0.28125,-0.4375
298,1727268721128,-0.14550781,-0.50683594,0.8720703,-0.34375,0.09375,-0.625
299,1727268721187,-0.15136719,-0.5185547,0.86621094,-0.21875,0.28125,-0.4375
300,1727268721217,-0.15234375,-0.51464844,0.875,-0.21875,0.21875,-0.6875
301,1727268721247,-0.15234375,-0.5126953,0.8769531,-0.09375,0.15625,-0.3125
302,1727268721307,-0.14160156,-0.50390625,0.86621094,-0.40625,-0.03125,-0.625
303,1727268721337,-0.14257812,-0.5136719,0.875,-0.40625,-0.09375,-0.625
304,1727268721367,-0.15429688,-0.51171875,0.87402344,-0.34375,0.28125,-0.4375
305,1727268721428,-0.14941406,-0.5136719,0.8691406,-0.28125,0.21875,-0.6875
306,1727268721458,-0.1484375,-0.515625,0.87402344,-0.21875,0.21875,-0.5
307,1727268721487,-0.14941406,-0.51464844,0.87402344,-0.15625,0.15625,-0.5625
308,1727268721548,-0.14453125,-0.5058594,0.875,-0.28125,-0.09375,-0.375
309,1727268721578,-0.14746094,-0.50878906,0.8779297,-0.34375,-0.03125,-0.375
310,1727268721607,-0.15332031,-0.51464844,0.8720703,-0.34375,-0.03125,-0.4375
311,1727268721668,-0.1484375,-0.50390625,0.87109375,-0.28125,0.40625,-0.5
312,1727268721698,-0.15332031,-0.5019531,0.8701172,-0.40625,0.15625,-0.375
313,1727268721727,-0.14453125,-0.50878906,0.87109375,-0.40625,0.03125,-0.5625
314,1727268721792,-0.14453125,-0.51660156,0.8701172,-0.28125,0.15625,-0.3125
315,1727268721818,-0.15332031,-0.5107422,0.87890625,-0.40625,0.09375,-0.625
316,1727268721847,-0.15820312,-0.5175781,0.85253906,0.3125,0.28125,-0.3125
317,1727268721908,-0.14941406,-0.5029297,0.8691406,-0.09375,0.15625,-0.4375
318,1727268721940,-0.15429688,-0.5205078,0.8671875,-0.65625,0.09375,-0.5625
319,1727268721967,-0.15136719,-0.50390625,0.8730469,-0.46875,0.46875,-0.6875
320,1727268722032,-0.15136719,-0.51660156,0.8701172,-0.59375,0.34375,-0.625
321,1727268722058,-0.15625,-0.5048828,0.875,-0.34375,0.09375,-0.5625
322,1727268722090,-0.15136719,-0.51464844,0.86621094,-0.15625,-0.03125,-0.4375
323,1727268722152,-0.14746094,-0.50878906,0.8642578,-0.28125,-0.25,-0.1875
324,1727268722178,-0.14453125,-0.51464844,0.8701172,-0.40625,-0.09375,-0.25
325,1727268722207,-0.15625,-0.5136719,0.8642578,-0.46875,0.09375,-0.4375
326,1727268722268,-0.15332031,-0.50390625,0.8876953,-0.28125,0.34375,-0.625
327,1727268722297,-0.13964844,-0.50683594,0.86621094,-0.15625,0.53125,-0.5
328,1727268722328,-0.14550781,-0.50878906,0.8808594,-0.21875,0.28125,-0.5625
329,1727268722395,-0.15136719,-0.51171875,0.86816406,-0.34375,0.21875,-0.625
330,1727268722420,-0.15136719,-0.5097656,0.87109375,-0.28125,0.21875,-0.5
331,1727268722451,-0.1484375,-0.51464844,0.87597656,-0.09375,0.40625,-0.375
332,1727268722509,-0.14355469,-0.50878906,0.8720703,-0.09375,-0.03125,-0.5
333,1727268722538,-0.1484375,-0.5058594,0.8671875,-0.65625,-0.1875,-0.25
334,1727268722568,-0.1484375,-0.5058594,0.8798828,-0.34375,-0.125,-0.0625
335,1727268722628,-0.14257812,-0.5126953,0.859375,-0.53125,0.21875,-0.4375
336,1727268722657,-0.14257812,-0.5136719,0.8769531,-0.15625,0.15625,-0.5
337,1727268722694,-0.14941406,-0.5175781,0.8652344,-0.21875,0.28125,-0.5
338,1727268722748,-0.15234375,-0.515625,0.8652344,-0.59375,-0.03125,-0.1875
339,1727268722781,-0.15039062,-0.50683594,0.86816406,-0.34375,-0.125,-0.125
340,1727268722809,-0.15039062,-0.50878906,0.8671875,-0.28125,0.34375,-0.375
341,1727268722872,-0.15234375,-0.5,0.8691406,-0.34375,0.34375,-0.3125
342,1727268722898,-0.14746094,-0.51171875,0.87402344,-0.34375,0.21875,-0.1875
343,1727268722928,-0.15625,-0.5136719,0.8828125,-0.53125,-0.03125,-0.1875
344,1727268722988,-0.14941406,-0.515625,0.8691406,-0.34375,0.21875,-0.3125
345,1727268723018,-0.15429688,-0.5175781,0.86328125,-0.53125,0.09375,-0.25
346,1727268723048,-0.15234375,-0.5136719,0.85546875,-0.34375,0.03125,-0.3125
347,1727268723107,-0.15527344,-0.51660156,0.8779297,-0.46875,0.21875,-0.25
348,1727268723137,-0.14746094,-0.5214844,0.86328125,-0.53125,-0.1875,0.0625
349,1727268723167,-0.15332031,-0.50390625,0.88378906,-0.78125,-0.125,-0.1875
350,1727268723233,-0.15625,-0.51171875,0.8691406,-0.53125,0.15625,-0.3125
351,1727268723259,-0.1484375,-0.5107422,0.8691406,-0.46875,0.46875,-0.4375
352,1727268723288,-0.140625,-0.5126953,0.8642578,-0.34375,0.09375,-0.5
353,1727268723350,-0.14355469,-0.5214844,0.8779297,-0.46875,-0.09375,-0.1875
354,1727268723377,-0.14941406,-0.515625,0.8691406,-0.34375,-0.09375,0.0
355,1727268723407,-0.15039062,-0.51171875,0.86035156,-0.21875,0.03125,-0.375
356,1727268723468,-0.15625,-0.5097656,0.8779297,-0.15625,0.28125,-0.625
357,1727268723498,-0.15332031,-0.5097656,0.8720703,-0.28125,0.34375,-0.625
358,1727268723527,-0.15136719,-0.50683594,0.859375,-0.28125,0.34375,-0.6875
359,1727268723592,-0.15039062,-0.5136719,0.8642578,-0.15625,0.40625,-0.6875
360,1727268723619,-0.16113281,-0.50878906,0.87402344,-0.15625,0.59375,-0.625
361,1727268723647,-0.15625,-0.51171875,0.87109375,0.15625,0.65625,-0.625
362,1727268723707,-0.14453125,-0.5078125,0.8671875,-0.59375,-0.1875,-0.3125
363,1727268723738,-0.14941406,-0.5097656,0.8808594,-1.09375,-0.625,-0.125
364,1727268723768,-0.15332031,-0.51171875,0.8828125,-0.40625,0.21875,-0.6875
365,1727268723828,-0.15039062,-0.51953125,0.875,-0.96875,-0.25,-0.625
366,1727268723858,-0.15527344,-0.5185547,0.8701172,-0.46875,-0.4375,-0.5
367,1727268723888,-0.15039062,-0.51660156,0.86621094,-0.15625,-0.09375,-0.5
368,1727268723948,-0.15136719,-0.5185547,0.8720703,0.15625,-0.125,-0.625
369,1727268723979,-0.14746094,-0.5126953,0.87109375,0.375,-0.03125,-0.5
370,1727268724008,-0.14355469,-0.5185547,0.86621094,0.09375,0.40625,-0.625
371,1727268724072,-0.14550781,-0.5078125,0.8769531,-0.28125,0.71875,-0.5625
372,1727268724099,-0.15136719,-0.5205078,0.8769531,-0.40625,0.28125,-0.5625
373,1727268724128,-0.1484375,-0.50683594,0.8671875,-0.03125,0.28125,-0.6875
374,1727268724187,-0.1484375,-0.5107422,0.87402344,-0.46875,0.03125,-0.5
375,1727268724218,-0.15429688,-0.51464844,0.8808594,-0.53125,-0.09375,-0.4375
376,1727268724248,-0.1484375,-0.51171875,0.8769531,-0.34375,0.09375,-0.5625
377,1727268724309,-0.14550781,-0.5097656,0.8720703,-0.34375,0.09375,-0.5
378,1727268724337,-0.15527344,-0.50683594,0.87402344,-0.28125,0.09375,-0.375
379,1727268724370,-0.15039062,-0.5048828,0.87109375,-0.34375,0.03125,-0.4375
380,1727268724428,-0.1484375,-0.51171875,0.8798828,-0.34375,-0.09375,-0.5625
381,1727268724462,-0.15429688,-0.5126953,0.86621094,-0.53125,0.09375,-0.625
382,1727268724487,-0.13964844,-0.51660156,0.8623047,-0.21875,0.03125,-0.4375
383,1727268724550,-0.15332031,-0.5107422,0.86816406,-0.65625,0.28125,-0.5
384,1727268724582,-0.16308594,-0.5078125,0.8769531,-0.34375,0.15625,-0.75
385,1727268724608,-0.15136719,-0.51660156,0.87597656,-0.09375,0.09375,-0.5
386,1727268724667,-0.14355469,-0.51171875,0.87402344,-0.40625,-0.1875,-0.25
387,1727268724698,-0.14648438,-0.52246094,0.8642578,-0.46875,-0.25,-0.1875
388,1727268724727,-0.15332031,-0.51171875,0.88378906,-0.28125,-0.03125,-0.25
389,1727268724787,-0.15039062,-0.5048828,0.8652344,-0.59375,0.09375,-0.4375
390,1727268724817,-0.14453125,-0.50878906,0.8691406,-0.34375,0.03125,-0.625
391,1727268724847,-0.140625,-0.51660156,0.8671875,-0.40625,0.21875,-0.5625
392,1727268724912,-0.15039062,-0.5048828,0.87402344,-0.53125,0.03125,-0.5
393,1727268724937,-0.15722656,-0.5107422,0.875,-0.28125,0.21875,-0.6875
394,1727268724968,-0.14746094,-0.5058594,0.8730469,-0.40625,0.03125,-0.375
395,1727268725028,-0.14160156,-0.50878906,0.8691406,-0.28125,0.03125,-0.5625
396,1727268725061,-0.14355469,-0.5029297,0.8730469,-0.34375,0.09375,-0.3125
397,1727268725088,-0.1484375,-0.50878906,0.86328125,-0.34375,-0.1875,-0.4375
398,1727268725147,-0.14355469,-0.51660156,0.8642578,-0.53125,-0.03125,-0.4375
399,1727268725177,-0.15039062,-0.5126953,0.875,-0.46875,0.09375,-0.5
400,1727268725208,-0.14746094,-0.5136719,0.8769531,-0.40625,0.21875,-0.5
401,1727268725268,-0.15429688,-0.5136719,0.86328125,-0.28125,0.28125,-0.5
402,1727268725300,-0.14941406,-0.5097656,0.87597656,-0.15625,0.40625,-0.625
403,1727268725330,-0.14453125,-0.5185547,0.875,-0.46875,0.03125,-0.25
404,1727268725388,-0.140625,-0.5126953,0.8691406,-0.34375,-0.1875,-0.0625
405,1727268725419,-0.15234375,-0.5126953,0.86621094,-0.34375,0.03125,-0.1875
406,1727268725448,-0.15136719,-0.51660156,0.86816406,-0.59375,-0.03125,-0.25
407,1727268725507,-0.14355469,-0.5136719,0.8691406,-0.28125,0.21875,-0.5
408,1727268725539,-0.15136719,-0.5175781,0.8642578,-0.46875,0.09375,-0.5625
409,1727268725573,-0.14550781,-0.5058594,0.86816406,-0.65625,0.21875,-0.3125
410,1727268725627,-0.15722656,-0.51660156,0.8779297,-0.28125,0.21875,-0.3125
411,1727268725658,-0.13964844,-0.5048828,0.87402344,-0.21875,0.28125,-0.125
412,1727268725696,-0.15234375,-0.5136719,0.8779297,-0.34375,0.21875,-0.375
413,1727268725749,-0.14648438,-0.515625,0.8691406,-0.34375,0.15625,-0.1875
414,1727268725778,-0.14453125,-0.5136719,0.875,-0.53125,-0.3125,-0.1875
415,1727268725808,-0.14550781,-0.5185547,0.8701172,-0.71875,-0.03125,-0.3125
416,1727268725867,-0.16503906,-0.52246094,0.8720703,-0.28125,0.46875,-0.5
417,1727268725897,-0.14941406,-0.5078125,0.85839844,-0.40625,0.34375,-0.625
418,1727268725932,-0.15820312,-0.5097656,0.8925781,-0.59375,-0.03125,-0.375
419,1727268725987,-0.15234375,-0.51660156,0.8652344,-0.46875,-0.03125,0.0625
420,1727268726022,-0.15332031,-0.51953125,0.8642578,-0.34375,-0.125,0.0
421,1727268726053,-0.1484375,-0.50878906,0.8720703,-0.34375,0.03125,-0.1875
422,1727268726108,-0.15136719,-0.51660156,0.8642578,-0.65625,0.28125,-0.375
423,1727268726139,-0.15039062,-0.5097656,0.8691406,-0.46875,0.15625,-0.375
424,1727268726170,-0.14550781,-0.51171875,0.88183594,-0.46875,0.09375,-0.1875
425,1727268726228,-0.15332031,-0.5078125,0.8798828,-0.40625,-0.09375,-0.375
426,1727268726257,-0.15136719,-0.5205078,0.8574219,-0.46875,0.15625,-0.625
427,1727268726288,-0.140625,-0.515625,0.86621094,-0.34375,0.59375,-0.625
428,1727268726348,-0.15234375,-0.5136719,0.8671875,-0.28125,0.46875,-0.3125
429,1727268726378,-0.16015625,-0.51171875,0.8720703,0.09375,0.09375,-0.3125
430,1727268726413,-0.14355469,-0.5058594,0.8701172,-0.21875,0.03125,-0.3125
431,1727268726472,-0.15820312,-0.5058594,0.8671875,-0.21875,0.46875,-0.6875
432,1727268726499,-0.15527344,-0.5048828,0.8730469,-0.03125,0.59375,-0.75
433,1727268726528,-0.14550781,-0.515625,0.8691406,-0.03125,0.46875,-0.9375
434,1727268726588,-0.16210938,-0.52441406,0.8701172,-0.03125,-0.09375,-0.6875
435,1727268726618,-0.1484375,-0.51171875,0.86816406,0.09375,0.03125,-0.875
436,1727268726648,-0.14746094,-0.50390625,0.87402344,0.03125,0.46875,-0.875
437,1727268726707,-0.15234375,-0.5126953,0.8652344,-0.21875,0.46875,-0.75
438,1727268726738,-0.1484375,-0.51171875,0.8730469,-0.28125,0.34375,-0.625
439,1727268726773,-0.14550781,-0.5107422,0.87890625,0.09375,0.03125,-0.5
440,1727268726828,-0.15722656,-0.515625,0.8798828,-0.15625,0.03125,-0.5
441,1727268726858,-0.14648438,-0.51464844,0.8769531,-0.40625,0.28125,-0.625
442,1727268726893,-0.15625,-0.51660156,0.8652344,-0.21875,0.53125,-0.625
443,1727268726948,-0.14160156,-0.51464844,0.8642578,-0.09375,0.46875,-0.875
444,1727268726978,-0.15527344,-0.5097656,0.8623047,-0.15625,0.09375,-0.375
445,1727268727008,-0.14257812,-0.50390625,0.8730469,-0.21875,0.09375,-0.625
446,1727268727072,-0.15039062,-0.51171875,0.8730469,-0.46875,0.09375,-0.625
447,1727268727098,-0.15039062,-0.5185547,0.87402344,0.09375,0.21875,-0.4375
448,1727268727128,-0.15039062,-0.5097656,0.87109375,-0.28125,0.46875,-0.75
449,1727268727193,-0.14160156,-0.5097656,0.87402344,-0.28125,-0.03125,-0.5625
450,1727268727219,-0.14746094,-0.5107422,0.86621094,-0.09375,0.15625,-0.5625
451,1727268727253,-0.14941406,-0.5097656,0.8701172,-0.21875,0.09375,-0.375
452,1727268727308,-0.15234375,-0.5136719,0.8769531,-0.03125,0.09375,-0.3125
453,1727268727338,-0.14550781,-0.5097656,0.87402344,-0.46875,0.34375,-0.5625
454,1727268727369,-0.14453125,-0.5097656,0.8671875,-0.28125,0.28125,-0.5
455,1727268727427,-0.15332031,-0.51464844,0.87597656,-0.03125,0.40625,-0.5625
456,1727268727458,-0.15820312,-0.51171875,0.8701172,-0.09375,0.28125,-0.5625
457,1727268727488,-0.14746094,-0.51660156,0.87890625,-0.21875,0.28125,-0.625
458,1727268727548,-0.14746094,-0.515625,0.87890625,-0.21875,0.28125,-0.375
459,1727268727579,-0.15234375,-0.5078125,0.87890625,-0.21875,0.40625,-0.6875
460,1727268727609,-0.14746094,-0.5048828,0.87402344,-0.03125,0.125,0.125
461,1727268727668,-0.15429688,-0.50878906,0.8652344,-0.125,0.3125,-0.28125
462,1727268727698,-0.15039062,-0.5136719,0.8691406,-0.1875,0.375,-0.28125
463,1727268727727,-0.15722656,-0.5126953,0.87402344,-0.3125,-0.1875,0.1875
464,1727268727787,-0.14746094,-0.51171875,0.87890625,0.21875,-0.0625,0.0625
465,1727268727818,-0.1484375,-0.5185547,0.87109375,-0.125,-0.125,0.0
466,1727268727847,-0.14453125,-0.5097656,0.86816406,0.15625,-0.125,0.0
467,1727268727908,-0.14746094,-0.515625,0.8691406,-0.4375,-0.0625,-0.0625
468,1727268727938,-0.15136719,-0.515625,0.8720703,-0.375,-0.125,0.1875
469,1727268727969,-0.1484375,-0.50683594,0.87597656,0.09375,0.125,-0.125
470,1727268728027,-0.14453125,-0.50683594,0.8798828,-0.1875,-0.125,0.0
471,1727268728058,-0.15136719,-0.5136719,0.86816406,-0.25,-0.0625,0.0625
472,1727268728088,-0.14746094,-0.5126953,0.8720703,-0.03125,-0.0625,-0.0625
473,1727268728148,-0.15039062,-0.50097656,0.8691406,-0.03125,0.125,0.0
474,1727268728177,-0.14550781,-0.50390625,0.87109375,0.15625,-0.0625,-0.0625
475,1727268728208,-0.15234375,-0.51464844,0.86816406,0.15625,0.0625,0.0
476,1727268728268,-0.15625,-0.5126953,0.8730469,-0.125,-0.25,0.0625
477,1727268728298,-0.14257812,-0.51171875,0.8769531,-0.3125,-0.28125,0.125
478,1727268728328,-0.14453125,-0.5078125,0.8769531,-0.4375,-0.25,0.125
479,1727268728388,-0.15625,-0.51464844,0.86816406,-0.5,-0.0625,0.125
480,1727268728418,-0.15234375,-0.5078125,0.8652344,-0.1875,-0.0625,0.125
481,1727268728448,-0.15136719,-0.51464844,0.8671875,-0.1875,-0.1875,0.375
482,1727268728509,-0.15429688,-0.5175781,0.8808594,-0.125,-0.34375,0.3125
483,1727268728540,-0.14160156,-0.5175781,0.87402344,-0.1875,-0.125,0.25
484,1727268728568,-0.15917969,-0.5078125,0.86621094,-0.375,-0.1875,0.25
485,1727268728632,-0.15039062,-0.5019531,0.8730469,-0.125,0.1875,0.0625
486,1727268728660,-0.15136719,-0.51171875,0.86328125,-0.25,0.25,0.125
487,1727268728689,-0.15234375,-0.51464844,0.8642578,-0.3125,-0.0625,0.1875
488,1727268728748,-0.14941406,-0.50683594,0.875,-0.125,0.0625,0.125
489,1727268728778,-0.15820312,-0.51171875,0.8847656,-0.25,-0.28125,0.25
490,1727268728812,-0.14453125,-0.5058594,0.8671875,0.15625,0.0625,0.125
491,1727268728868,-0.14648438,-0.5126953,0.8769531,-0.3125,0.0,0.3125
492,1727268728897,-0.14746094,-0.5126953,0.87109375,-0.1875,-0.28125,0.125
493,1727268728928,-0.15136719,-0.50878906,0.87402344,-0.625,-0.28125,0.25
494,1727268728993,-0.15429688,-0.51953125,0.8808594,-0.4375,-0.28125,0.3125
495,1727268729022,-0.14941406,-0.5126953,0.8847656,-0.125,0.0625,-0.0625
496,1727268729048,-0.15234375,-0.50878906,0.8652344,-0.125,-0.1875,0.125
497,1727268729112,-0.15039062,-0.5185547,0.8701172,-0.1875,-0.28125,0.1875
498,1727268729138,-0.14257812,-0.515625,0.85839844,-0.1875,-0.0625,0.125
499,1727268729168,-0.15625,-0.515625,0.86621094,-0.09375,-0.1875,0.1875
500,1727268729228,-0.15039062,-0.515625,0.8652344,0.03125,0.1875,-0.0625
501,1727268729260,-0.15429688,-0.51660156,0.875,0.03125,0.25,-0.21875
502,1727268729288,-0.14257812,-0.5107422,0.85546875,0.09375,0.25,-0.125
503,1727268729348,-0.15234375,-0.5126953,0.8779297,-0.09375,0.0,-0.125
504,1727268729377,-0.14550781,-0.51464844,0.8642578,0.09375,-0.0625,-0.0625
505,1727268729408,-0.15820312,-0.5136719,0.86816406,-0.09375,0.0625,0.0
506,1727268729469,-0.15429688,-0.515625,0.8574219,-0.25,-0.25,-0.0625
507,1727268729499,-0.14941406,-0.5175781,0.8691406,0.15625,-0.28125,0.125
508,1727268729530,-0.14941406,-0.5136719,0.8808594,-0.5,-0.28125,-0.0625
509,1727268729592,-0.14941406,-0.5136719,0.86328125,-0.125,-0.34375,-0.0625
510,1727268729620,-0.15429688,-0.50390625,0.8769531,-0.1875,0.0,-0.1875
511,1727268729648,-0.14550781,-0.515625,0.87402344,-0.25,-0.1875,-0.1875
512,1727268729708,-0.1484375,-0.5058594,0.86328125,0.21875,-0.25,0.0
513,1727268729738,-0.15429688,-0.50683594,0.8779297,-0.1875,-0.1875,0.0625
514,1727268729767,-0.15039062,-0.50878906,0.8691406,-0.09375,0.0,0.0625
515,1727268729828,-0.15429688,-0.5097656,0.8652344,0.03125,0.0625,-0.0625
516,1727268729862,-0.15527344,-0.51660156,0.86035156,-0.125,0.1875,-0.1875
517,1727268729888,-0.15136719,-0.515625,0.8720703,0.15625,-0.25,-0.0625
518,1727268729948,-0.15039062,-0.5126953,0.86816406,0.03125,-0.0625,-0.1875
519,1727268729983,-0.15527344,-0.52441406,0.8701172,-0.25,0.0,-0.1875
520,1727268730008,-0.16015625,-0.5234375,0.8691406,-0.09375,0.5,-0.46875
521,1727268730068,-0.15039062,-0.5097656,0.87402344,0.15625,0.9375,-0.59375
522,1727268730097,-0.15039062,-0.5126953,0.87402344,-0.03125,0.4375,-0.34375
523,1727268730128,-0.1484375,-0.5097656,0.8798828,0.03125,0.0625,-0.28125
524,1727268730188,-0.15429688,-0.51171875,0.8808594,-0.125,-0.0625,-0.125
525,1727268730218,-0.15136719,-0.5097656,0.8730469,-0.125,0.0,-0.0625
526,1727268730277,-0.15917969,-0.50097656,0.8701172,-0.09375,0.0,0.0
527,1727268730308,-0.15429688,-0.51464844,0.8769531,-0.03125,-0.0625,-0.125
528,1727268730343,-0.14746094,-0.50390625,0.8720703,-0.25,0.0,0.0625
529,1727268730368,-0.15234375,-0.5136719,0.8671875,-0.03125,-0.46875,0.25
530,1727268730428,-0.15136719,-0.5136719,0.8701172,-0.1875,-0.34375,0.1875
531,1727268730458,-0.15332031,-0.51660156,0.88183594,-0.3125,0.0,0.125
532,1727268730488,-0.14648438,-0.51464844,0.8798828,0.03125,0.1875,-0.0625
533,1727268730547,-0.15039062,-0.51953125,0.8671875,-0.25,0.0625,0.0
534,1727268730578,-0.15332031,-0.5185547,0.875,-0.125,-0.1875,-0.0625
535,1727268730608,-0.14257812,-0.50683594,0.87109375,0.03125,0.0625,0.125
536,1727268730667,-0.15429688,-0.51660156,0.8701172,-0.25,0.0,-0.0625
537,1727268730699,-0.15332031,-0.50683594,0.875,-0.125,0.0625,-0.0625
538,1727268730727,-0.15136719,-0.5078125,0.8642578,0.15625,-0.125,0.125
539,1727268730787,-0.15625,-0.50878906,0.8623047,0.09375,-0.28125,0.0625
540,1727268730818,-0.14648438,-0.5126953,0.8720703,-0.1875,-0.125,0.0625
541,1727268730848,-0.14453125,-0.5048828,0.87109375,-0.3125,-0.1875,0.0625
542,1727268730914,-0.15332031,-0.5058594,0.875,-0.1875,-0.28125,0.125
543,1727268730942,-0.15429688,-0.5097656,0.86621094,0.21875,-0.0625,0.0625
544,1727268730968,-0.14941406,-0.5107422,0.85058594,-0.125,0.0625,0.1875
545,1727268731028,-0.14746094,-0.50683594,0.8613281,-0.5625,-0.53125,0.3125
546,1727268731058,-0.15234375,-0.5126953,0.8691406,-0.1875,-0.40625,0.4375
547,1727268731117,-0.15136719,-0.51171875,0.8691406,-0.375,-0.125,0.1875
548,1727268731148,-0.15625,-0.5126953,0.859375,-0.125,0.125,0.3125
549,1727268731178,-0.1484375,-0.5078125,0.87890625,-0.125,0.0,0.125
550,1727268731238,-0.15234375,-0.51953125,0.8828125,-0.25,-0.1875,0.1875
551,1727268731268,-0.15429688,-0.50683594,0.88183594,-0.25,-0.125,0.3125
552,1727268731298,-0.15039062,-0.5205078,0.8701172,-0.3125,-0.125,0.0625
553,1727268731359,-0.15332031,-0.5097656,0.8730469,-0.125,0.0625,0.1875
554,1727268731388,-0.15722656,-0.5136719,0.8730469,-0.1875,0.0,0.375
555,1727268731424,-0.15039062,-0.5078125,0.88378906,-0.125,-0.59375,0.4375
556,1727268731479,-0.15234375,-0.5097656,0.8691406,-0.5625,-0.25,0.1875
557,1727268731514,-0.14941406,-0.5205078,0.86816406,-0.5,-0.28125,0.1875
558,1727268731538,-0.14746094,-0.50878906,0.8720703,-0.1875,0.3125,0.0
559,1727268731598,-0.14746094,-0.51464844,0.8701172,-0.125,0.125,0.0625
560,1727268731628,-0.15527344,-0.515625,0.8544922,-0.1875,-0.40625,0.25
561,1727268731658,-0.15234375,-0.51464844,0.86621094,-0.4375,-0.40625,0.5
562,1727268731718,-0.15039062,-0.50683594,0.86621094,-0.1875,-0.28125,0.4375
563,1727268731748,-0.14941406,-0.50683594,0.8769531,-0.09375,0.125,0.25
564,1727268731778,-0.15625,-0.51464844,0.8720703,-0.125,0.25,-0.0625
565,1727268731838,-0.140625,-0.51953125,0.8701172,-0.125,0.1875,0.125
566,1727268731868,-0.15917969,-0.515625,0.87597656,-0.09375,-0.0625,-0.125
567,1727268731898,-0.15332031,-0.5136719,0.86328125,-0.09375,0.375,-0.1875
568,1727268731958,-0.15820312,-0.5234375,0.8642578,-0.03125,0.0625,-0.125
569,1727268731988,-0.15820312,-0.51660156,0.8808594,0.15625,-0.125,-0.0625
570,1727268732019,-0.15820312,-0.5175781,0.87109375,0.03125,0.0,-0.0625
571,1727268732078,-0.15136719,-0.51171875,0.859375,-0.03125,-0.28125,0.1875
572,1727268732108,-0.15722656,-0.5058594,0.88183594,-0.09375,-0.25,0.125
573,1727268732139,-0.15722656,-0.52246094,0.8691406,-0.1875,-0.1875,0.0
574,1727268732201,-0.15332031,-0.5078125,0.8691406,-0.125,0.0,-0.0625
575,1727268732228,-0.15429688,-0.5136719,0.8642578,-0.03125,0.0625,-0.1875
576,1727268732258,-0.15527344,-0.51171875,0.875,0.15625,-0.46875,0.0
577,1727268732348,-0.14453125,-0.5175781,0.8730469,-0.1875,-0.125,0.0625
578,1727268732378,-0.14941406,-0.515625,0.86621094,-0.09375,-0.125,0.0
579,1727268732408,-0.14648438,-0.51171875,0.8769531,0.03125,0.0,-0.0625
580,1727268732440,-0.15332031,-0.5136719,0.8642578,-0.03125,0.375,-0.21875
581,1727268732498,-0.15039062,-0.5126953,0.8691406,-0.09375,-0.0625,0.0
582,1727268732528,-0.15722656,-0.5048828,0.86328125,0.03125,0.125,0.0
583,1727268732558,-0.15722656,-0.5185547,0.8691406,-0.125,0.0,0.0
584,1727268732588,-0.15332031,-0.5097656,0.87402344,-0.09375,0.0,0.0
585,1727268732618,-0.14746094,-0.5107422,0.87402344,-0.1875,0.0625,-0.1875
586,1727268732678,-0.15039062,-0.51953125,0.8720703,-0.1875,-0.125,0.0625
587,1727268732708,-0.15820312,-0.5136719,0.8671875,0.15625,-0.0625,-0.0625
588,1727268732742,-0.1484375,-0.51171875,0.8652344,0.21875,-0.34375,0.1875
589,1727268732798,-0.15136719,-0.50878906,0.88183594,0.09375,-0.1875,-0.1875
590,1727268732828,-0.15136719,-0.515625,0.8720703,-0.125,0.125,-0.1875
591,1727268732859,-0.15039062,-0.5126953,0.8671875,-0.3125,0.0625,-0.0625
592,1727268732948,-0.15332031,-0.5019531,0.87402344,-0.125,0.125,-0.21875
593,1727268732978,-0.15332031,-0.5234375,0.87597656,-0.03125,-0.1875,-0.0625
594,1727268733008,-0.14648438,-0.50878906,0.875,-0.125,-0.125,-0.0625
595,1727268733045,-0.14453125,-0.50878906,0.8642578,-0.125,-0.0625,0.125
596,1727268733068,-0.14550781,-0.50878906,0.8652344,-0.09375,-0.28125,0.1875
597,1727268733098,-0.15136719,-0.515625,0.8730469,-0.125,-0.0625,0.0
598,1727268733164,-0.14550781,-0.515625,0.86621094,-0.03125,0.0,-0.0625
599,1727268733188,-0.15722656,-0.515625,0.87597656,0.21875,-0.0625,-0.0625
600,1727268733218,-0.15039062,-0.5136719,0.8642578,-0.125,-0.125,0.125
601,1727268733278,-0.15136719,-0.5097656,0.8769531,-0.125,0.125,-0.0625
602,1727268733307,-0.15527344,-0.5126953,0.87890625,-0.09375,0.0625,-0.0625
603,1727268733338,-0.15136719,-0.5185547,0.86328125,-0.1875,-0.0625,0.0625
604,1727268733398,-0.1484375,-0.5078125,0.8720703,-0.125,-0.0625,0.125
605,1727268733429,-0.15234375,-0.5078125,0.8720703,-0.125,-0.25,0.25
606,1727268733458,-0.14941406,-0.50878906,0.8798828,-0.125,-0.34375,0.125
607,1727268733518,-0.15332031,-0.5097656,0.86621094,-0.25,-0.0625,0.0
608,1727268733548,-0.14648438,-0.51660156,0.8671875,-0.09375,-0.1875,0.125
609,1727268733578,-0.15039062,-0.50683594,0.86816406,-0.125,-0.0625,0.0625
610,1727268733638,-0.14941406,-0.515625,0.87402344,0.15625,0.0,0.0
611,1727268733668,-0.14941406,-0.50683594,0.8652344,0.03125,-0.0625,0.0625
612,1727268733698,-0.15039062,-0.5136719,0.87597656,-0.1875,-0.34375,0.3125
613,1727268733758,-0.1484375,-0.51464844,0.8642578,-0.375,-0.40625,0.375
614,1727268733789,-0.1484375,-0.5126953,0.8847656,-0.25,-0.0625,0.3125
615,1727268733817,-0.14550781,-0.50878906,0.8720703,-0.09375,0.0625,0.3125
616,1727268733879,-0.14941406,-0.51464844,0.8769531,-0.1875,-0.0625,0.3125
617,1727268733911,-0.14746094,-0.51660156,0.8642578,-0.1875,-0.125,0.25
618,1727268733938,-0.16113281,-0.51660156,0.8798828,-0.3125,-0.25,0.3125
619,1727268733998,-0.15917969,-0.51660156,0.8720703,-0.1875,-0.125,0.25
620,1727268734028,-0.16113281,-0.51660156,0.8730469,-0.1875,0.0,0.0625
621,1727268734058,-0.14355469,-0.52246094,0.8652344,-0.09375,-0.0625,0.1875
622,1727268734122,-0.15429688,-0.50878906,0.87890625,-0.125,0.03125,0.125
623,1727268734148,-0.14941406,-0.51464844,0.8798828,-0.1875,-0.15625,0.375
624,1727268734178,-0.15039062,-0.5048828,0.875,-0.09375,-0.40625,0.3125
625,1727268734242,-0.15429688,-0.5126953,0.8779297,-0.4375,-0.09375,0.25
626,1727268734268,-0.16113281,-0.5078125,0.875,-0.25,0.21875,0.125
627,1727268734297,-0.15332031,-0.51464844,0.86035156,-0.09375,-0.03125,-0.0625
628,1727268734363,-0.14746094,-0.5107422,0.8730469,-0.09375,-0.34375,0.1875
629,1727268734389,-0.14257812,-0.51171875,0.87597656,-0.1875,-0.34375,0.3125
630,1727268734418,-0.14941406,-0.51464844,0.8701172,0.03125,-0.28125,0.375
631,1727268734478,-0.15429688,-0.51660156,0.87109375,-0.1875,-0.03125,0.125
632,1727268734512,-0.16015625,-0.51464844,0.8730469,-0.03125,0.15625,-0.125
633,1727268734539,-0.1484375,-0.5136719,0.8701172,0.03125,0.09375,-0.0625
634,1727268734628,-0.15136719,-0.515625,0.8720703,0.09375,0.15625,-0.0625
635,1727268734658,-0.15234375,-0.515625,0.875,0.03125,0.21875,-0.25
636,1727268734688,-0.16113281,-0.50878906,0.87597656,-0.03125,0.03125,-0.1875
637,1727268734720,-0.15234375,-0.50683594,0.8720703,0.09375,0.09375,-0.1875
638,1727268734748,-0.15234375,-0.51953125,0.8720703,-0.03125,-0.09375,-0.1875
639,1727268734778,-0.16015625,-0.515625,0.87597656,0.03125,-0.15625,0.125
640,1727268734838,-0.14550781,-0.51464844,0.8671875,0.03125,-0.40625,-0.125
641,1727268734869,-0.13964844,-0.5107422,0.8691406,-0.03125,-0.09375,-0.3125
642,1727268734899,-0.15625,-0.51171875,0.87109375,-0.03125,0.25,-0.25
643,1727268734958,-0.15234375,-0.51171875,0.8857422,-0.03125,-0.09375,-0.375
644,1727268734993,-0.14941406,-0.51660156,0.8671875,-0.09375,-0.21875,-0.0625
645,1727268735018,-0.15527344,-0.5136719,0.8720703,-0.09375,-0.03125,-0.125
646,1727268735078,-0.15332031,-0.5107422,0.87597656,0.21875,-0.15625,-0.125
647,1727268735112,-0.14453125,-0.5126953,0.875,-0.03125,0.15625,-0.0625
648,1727268735138,-0.15625,-0.5097656,0.8857422,-0.09375,0.03125,-0.125
649,1727268735197,-0.15332031,-0.515625,0.8652344,0.09375,0.09375,0.0
650,1727268735228,-0.15625,-0.5234375,0.8652344,-0.03125,0.15625,0.0
651,1727268735259,-0.16210938,-0.5097656,0.88183594,0.03125,-0.03125,-0.125
652,1727268735317,-0.14746094,-0.51464844,0.87402344,0.09375,0.09375,-0.3125
653,1727268735378,-0.14257812,-0.51660156,0.86816406,-0.09375,-0.03125,-0.1875
654,1727268735408,-0.15234375,-0.5078125,0.8828125,0.03125,-0.03125,-0.0625
655,1727268735440,-0.1484375,-0.5048828,0.87109375,0.21875,-0.21875,-0.0625
656,1727268735474,-0.14941406,-0.51953125,0.86621094,-0.09375,-0.34375,0.0
657,1727268735498,-0.14453125,-0.5126953,0.87890625,-0.3125,-0.03125,-0.0625
658,1727268735558,-0.16113281,-0.51464844,0.87402344,-0.09375,-0.21875,0.0
659,1727268735588,-0.15136719,-0.5078125,0.8623047,-0.03125,0.03125,-0.125
660,1727268735620,-0.14453125,-0.51171875,0.8642578,-0.09375,-0.09375,-0.125
661,1727268735678,-0.15332031,-0.5019531,0.875,0.03125,-0.21875,0.0
662,1727268735712,-0.15722656,-0.5107422,0.8701172,-0.09375,-0.09375,-0.1875
663,1727268735738,-0.15332031,-0.515625,0.875,-0.03125,-0.03125,0.0625
664,1727268735798,-0.14550781,-0.5097656,0.8779297,-0.125,-0.03125,-0.0625
665,1727268735829,-0.15429688,-0.5136719,0.87597656,-0.03125,0.15625,0.0625
666,1727268735858,-0.15820312,-0.5107422,0.8798828,-0.03125,-0.03125,0.1875
667,1727268735917,-0.15332031,-0.5058594,0.88378906,-0.03125,-0.03125,-0.0625
668,1727268735948,-0.14941406,-0.50878906,0.8730469,-0.03125,0.03125,-0.125
669,1727268735979,-0.15722656,-0.5029297,0.86621094,-0.09375,-0.15625,-0.125
670,1727268736038,-0.15332031,-0.50878906,0.8701172,-0.03125,0.03125,0.0
671,1727268736072,-0.15625,-0.5058594,0.86621094,-0.03125,0.15625,-0.0625
672,1727268736098,-0.15820312,-0.50878906,0.87597656,0.15625,-0.34375,0.125
673,1727268736159,-0.14257812,-0.5029297,0.8828125,-0.125,-0.09375,-0.125
674,1727268736188,-0.15332031,-0.5175781,0.8701172,-0.25,-0.09375,0.125
675,1727268736221,-0.14453125,-0.5205078,0.8701172,-0.03125,-0.03125,0.0
676,1727268736277,-0.14941406,-0.50683594,0.86328125,0.09375,-0.03125,-0.0625
677,1727268736308,-0.15332031,-0.50683594,0.87402344,-0.03125,0.03125,-0.125
678,1727268736340,-0.14941406,-0.5029297,0.87109375,-0.1875,-0.15625,0.25
679,1727268736434,-0.14648438,-0.5136719,0.86621094,-0.25,-0.28125,0.1875
680,1727268736458,-0.15136719,-0.51171875,0.8671875,-0.25,-0.21875,0.375
681,1727268736488,-0.14746094,-0.51171875,0.8652344,-0.125,-0.15625,0.25
682,1727268736519,-0.15625,-0.5097656,0.85839844,-0.1875,0.21875,0.1875
683,1727268736555,-0.15722656,-0.5185547,0.8769531,-0.5,-0.09375,0.1875
684,1727268736584,-0.15136719,-0.5175781,0.8808594,-0.3125,-0.34375,0.125
685,1727268736638,-0.1640625,-0.5097656,0.8720703,-0.125,0.03125,0.0625
686,1727268736668,-0.1484375,-0.5263672,0.8691406,-0.25,0.03125,0.125
687,1727268736698,-0.15234375,-0.51464844,0.8642578,-0.03125,0.03125,-0.0625
688,1727268736758,-0.15820312,-0.51660156,0.8691406,0.0,-0.21875,0.3125
689,1727268736787,-0.15234375,-0.5048828,0.8769531,-0.40625,-0.21875,0.1875
690,1727268736819,-0.15625,-0.5205078,0.86816406,-0.28125,-0.15625,0.0
691,1727268736910,-0.15136719,-0.50878906,0.86035156,-0.0625,0.34375,0.0
692,1727268736938,-0.15039062,-0.5,0.87109375,-0.0625,0.15625,-0.125
693,1727268736968,-0.16894531,-0.5136719,0.88183594,-0.09375,-0.34375,0.1875
694,1727268736998,-0.15820312,-0.50878906,0.86816406,-0.28125,-0.15625,0.1875
695,1727268737028,-0.15820312,-0.51171875,0.86816406,-0.21875,-0.21875,0.125
696,1727268737062,-0.15136719,-0.5136719,0.8691406,0.0,-0.15625,0.125
697,1727268737118,-0.15917969,-0.515625,0.8671875,-0.09375,0.21875,-0.0625
698,1727268737148,-0.15136719,-0.51171875,0.87597656,0.0,-0.03125,-0.0625
699,1727268737179,-0.14746094,-0.50683594,0.8798828,0.25,0.09375,-0.125
700,1727268737238,-0.16210938,-0.51660156,0.8798828,0.125,0.28125,-0.1875
701,1727268737269,-0.15820312,-0.5263672,0.8613281,0.1875,0.15625,-0.125
702,1727268737298,-0.15332031,-0.5078125,0.87109375,0.25,0.28125,-0.25
703,1727268737357,-0.15722656,-0.51953125,0.86621094,0.0,0.03125,0.0625
704,1727268737388,-0.1484375,-0.5126953,0.88183594,0.125,-0.09375,0.0625
705,1727268737418,-0.15917969,-0.51464844,0.87597656,-0.15625,-0.34375,-0.1875
706,1727268737478,-0.15625,-0.51660156,0.87597656,0.125,0.09375,-0.25
707,1727268737508,-0.15332031,-0.51171875,0.8730469,0.0625,0.09375,-0.375
708,1727268737538,-0.15332031,-0.49804688,0.85546875,0.0,-0.03125,-0.3125
709,1727268737598,-0.14941406,-0.5078125,0.8623047,0.0625,-0.34375,0.0625
710,1727268737659,-0.15039062,-0.5097656,0.87890625,0.25,-0.15625,-0.125
711,1727268737694,-0.15234375,-0.5136719,0.8691406,0.0625,0.28125,-0.125
712,1727268737718,-0.15332031,-0.50878906,0.86621094,0.0,0.15625,-0.25
713,1727268737748,-0.1484375,-0.5185547,0.8769531,0.1875,0.15625,-0.3125
714,1727268737784,-0.14941406,-0.5126953,0.87109375,0.0,0.09375,-0.125
715,1727268737841,-0.15136719,-0.5078125,0.87109375,0.0625,0.09375,-0.125
716,1727268737868,-0.1484375,-0.5078125,0.8798828,0.0625,0.03125,-0.3125
717,1727268737898,-0.15820312,-0.5097656,0.8730469,0.0,0.03125,-0.1875
718,1727268737959,-0.15332031,-0.5136719,0.875,0.1875,-0.15625,0.0
719,1727268737990,-0.14550781,-0.5126953,0.87890625,0.3125,-0.15625,-0.0625
720,1727268738027,-0.14941406,-0.515625,0.87402344,-0.0625,0.09375,-0.125
721,1727268738079,-0.15136719,-0.51464844,0.8671875,-0.15625,-0.09375,-0.1875
722,1727268738108,-0.15332031,-0.5048828,0.87402344,0.125,0.15625,-0.3125
723,1727268738141,-0.15429688,-0.51660156,0.859375,-0.0625,0.15625,-0.3125
724,1727268738198,-0.15722656,-0.5126953,0.87109375,0.125,-0.21875,-0.0625
725,1727268738228,-0.14941406,-0.5097656,0.875,0.25,0.03125,-0.125
726,1727268738268,-0.14453125,-0.51953125,0.86816406,0.0,-0.28125,-0.125
727,1727268738318,-0.15234375,-0.51660156,0.87402344,0.0625,-0.09375,-0.1875
728,1727268738350,-0.16210938,-0.5078125,0.8642578,0.0625,0.28125,-0.25
729,1727268738378,-0.15722656,-0.515625,0.8691406,0.0625,-0.15625,0.0
730,1727268738437,-0.15722656,-0.50878906,0.8798828,0.125,0.15625,-0.0625
731,1727268738468,-0.15429688,-0.51660156,0.8671875,0.0,0.03125,0.0
732,1727268738497,-0.15625,-0.5126953,0.8720703,0.0,-0.09375,-0.125
733,1727268738558,-0.15136719,-0.515625,0.8730469,0.0625,0.09375,-0.1875
734,1727268738588,-0.15136719,-0.51464844,0.8642578,0.125,0.09375,0.0
735,1727268738617,-0.14550781,-0.51171875,0.86035156,0.25,-0.15625,0.0625
736,1727268738677,-0.14453125,-0.5058594,0.87890625,-0.09375,-0.09375,-0.25
737,1727268738708,-0.15332031,-0.5126953,0.87402344,0.0,-0.28125,0.0625
738,1727268738738,-0.15429688,-0.51464844,0.8691406,-0.09375,0.03125,-0.0625
739,1727268738797,-0.15039062,-0.515625,0.8691406,-0.0625,-0.15625,-0.1875
740,1727268738828,-0.16015625,-0.50390625,0.8808594,0.0,0.03125,-0.1875
741,1727268738859,-0.15136719,-0.51464844,0.8613281,0.0,-0.15625,-0.0625
742,1727268738919,-0.14746094,-0.51464844,0.8642578,0.125,-0.21875,-0.0625
743,1727268738948,-0.15722656,-0.50878906,0.86816406,0.125,-0.09375,-0.0625
744,1727268738978,-0.15429688,-0.5136719,0.88671875,0.0625,0.21875,-0.0625
745,1727268739037,-0.15039062,-0.515625,0.87109375,0.25,0.09375,-0.125
746,1727268739068,-0.15625,-0.50878906,0.8769531,0.125,0.09375,0.0
747,1727268739098,-0.15136719,-0.5048828,0.87109375,0.0625,0.15625,-0.0625
748,1727268739188,-0.14550781,-0.50878906,0.87597656,-0.15625,-0.15625,0.0
749,1727268739218,-0.14453125,-0.51171875,0.8730469,0.125,0.09375,0.125
750,1727268739248,-0.16113281,-0.5126953,0.8623047,-0.28125,0.03125,0.0625
751,1727268739280,-0.16308594,-0.51171875,0.875,0.0625,-0.28125,0.3125
752,1727268739309,-0.15722656,-0.50878906,0.8701172,0.0,-0.40625,0.1875
753,1727268739338,-0.15039062,-0.5175781,0.86621094,-0.59375,-0.15625,0.125
754,1727268739401,-0.1484375,-0.5097656,0.86621094,-0.09375,0.125,0.15625
755,1727268739427,-0.14257812,-0.5126953,0.87597656,-0.09375,0.40625,-0.15625
756,1727268739458,-0.15722656,-0.5126953,0.8671875,-0.34375,0.0625,-0.03125
757,1727268739517,-0.15039062,-0.5136719,0.8720703,-0.15625,-0.125,0.21875
758,1727268739548,-0.15429688,-0.51660156,0.87109375,-0.28125,-0.25,0.28125
759,1727268739578,-0.15136719,-0.51464844,0.8769531,-0.09375,0.0625,0.03125
760,1727268739642,-0.15625,-0.5136719,0.87109375,-0.03125,0.125,0.15625
761,1727268739668,-0.15234375,-0.5126953,0.8701172,-0.21875,0.1875,0.09375
762,1727268739698,-0.16308594,-0.5185547,0.8828125,-0.15625,-0.0625,0.15625
