,Unnamed: 0,timestamp,accel_x,accel_y,accel_z,gyro_x,gyro_y,gyro_z
0,0,1727897697869,-0.98828125,-0.06640625,-0.043945312,-0.0625,1.03125,-0.25
1,1,1727897697909,-1.0019531,-0.038085938,-0.026367188,-0.90625,1.78125,-0.125
2,2,1727897697949,-1.0097656,-0.056640625,-0.029296875,1.21875,1.53125,-0.0625
3,3,1727897697989,-0.99609375,-0.053710938,-0.048828125,0.5625,1.65625,-0.25
4,4,1727897698029,-1.0048828,-0.048828125,-0.056640625,0.6875,2.375,0.15625
5,5,1727897698069,-0.9951172,-0.047851562,-0.043945312,1.28125,2.75,0.28125
6,6,1727897698109,-1.0058594,-0.049804688,-0.064453125,0.1875,2.6875,0.0
7,7,1727897698149,-0.99609375,-0.041992188,-0.055664062,1.21875,1.65625,0.0625
8,8,1727897698189,-0.9951172,-0.048828125,-0.045898438,1.1875,0.9375,0.09375
9,9,1727897698229,-1.0029297,-0.041992188,-0.05859375,0.0625,0.3125,0.21875
10,10,1727897698269,-1.0009766,-0.0546875,-0.06640625,0.875,0.8125,0.09375
11,11,1727897698309,-1.0019531,-0.040039062,-0.03515625,0.6875,0.1875,0.40625
12,12,1727897698349,-1.0019531,-0.047851562,-0.05859375,1.0,0.25,0.28125
13,13,1727897698389,-1.0058594,-0.049804688,-0.049804688,0.0,0.125,0.34375
14,14,1727897698429,-1.0019531,-0.052734375,-0.034179688,0.75,-0.3125,0.15625
15,15,1727897698469,-1.0029297,-0.049804688,-0.043945312,-0.28125,-0.25,0.28125
16,16,1727897698509,-0.9902344,-0.046875,-0.052734375,0.4375,0.0625,0.28125
17,17,1727897698549,-1.0068359,-0.03515625,-0.059570312,0.5,0.3125,0.40625
18,18,1727897698589,-1.0,-0.052734375,-0.041015625,0.125,-0.53125,0.34375
19,19,1727897698629,-0.99902344,-0.053710938,-0.044921875,0.75,0.0,0.15625
20,20,1727897698669,-0.9892578,-0.037109375,-0.05078125,0.0625,-0.78125,0.0625
21,21,1727897698709,-1.0195312,-0.06933594,-0.05078125,1.28125,-0.78125,0.28125
22,22,1727897698749,-1.0048828,-0.043945312,-0.041992188,0.5,-0.1875,0.09375
23,23,1727897698789,-1.0009766,-0.038085938,-0.033203125,0.0625,-0.125,0.15625
24,24,1727897698829,-1.0019531,-0.044921875,-0.057617188,0.6875,-0.59375,0.15625
25,25,1727897698869,-0.99902344,-0.0390625,-0.055664062,0.375,0.0625,0.09375
26,26,1727897698909,-1.0068359,-0.041992188,-0.0390625,-0.15625,-0.25,0.21875
27,27,1727897698949,-0.99316406,-0.055664062,-0.032226562,-0.0625,-0.40625,-0.125
28,28,1727897698989,-0.9873047,-0.047851562,-0.041992188,0.125,-0.0625,0.21875
29,29,1727897699029,-0.99902344,-0.041992188,-0.046875,-0.78125,0.25,0.0625
30,30,1727897699069,-1.0039062,-0.046875,-0.04296875,0.0,0.0,0.21875
31,31,1727897699109,-0.9921875,-0.041015625,-0.057617188,-1.875,-0.25,-0.0625
32,32,1727897699149,-1.0039062,-0.048828125,-0.040039062,0.0625,0.1875,0.09375
33,33,1727897699189,-1.0039062,-0.045898438,-0.05078125,-0.53125,0.0625,0.09375
34,34,1727897699229,-0.9951172,-0.041992188,-0.06347656,-0.21875,-0.0625,-0.0625
35,35,1727897699269,-1.0,-0.038085938,-0.051757812,-0.0625,-0.46875,0.09375
36,36,1727897699309,-1.0029297,-0.051757812,-0.04296875,0.0625,0.125,0.15625
37,37,1727897699349,-1.0126953,-0.049804688,-0.034179688,1.0625,0.1875,0.15625
38,38,1727897699389,-0.99121094,-0.036132812,-0.045898438,-0.34375,-0.3125,0.09375
39,39,1727897699429,-0.9980469,-0.052734375,-0.048828125,0.75,-0.1875,0.0
40,40,1727897699469,-0.9970703,-0.043945312,-0.049804688,0.375,0.25,0.09375
41,41,1727897699509,-1.0078125,-0.046875,-0.0625,0.0,0.0,0.0
42,42,1727897699549,-1.0029297,-0.038085938,-0.040039062,1.0,-0.25,0.09375
43,43,1727897699589,-1.0039062,-0.049804688,-0.052734375,0.625,0.125,0.09375
44,44,1727897699629,-1.0185547,-0.032226562,-0.032226562,0.1875,-0.25,0.0
45,45,1727897699669,-0.9970703,-0.046875,-0.043945312,-0.40625,-0.28125,-0.34375
46,46,1727897699709,-0.9970703,-0.044921875,-0.0625,-1.15625,-0.46875,-0.40625
47,47,1727897699749,-0.9970703,-0.052734375,-0.0390625,1.125,0.125,-0.28125
48,48,1727897699789,-0.9892578,-0.038085938,-0.053710938,0.375,0.25,-0.34375
49,49,1727897699829,-1.0048828,-0.045898438,-0.056640625,0.625,0.6875,-0.03125
50,50,1727897699869,-1.0039062,-0.032226562,-0.045898438,-0.65625,1.25,-0.15625
51,51,1727897699909,-1.0097656,-0.056640625,-0.04296875,-1.875,1.84375,0.03125
52,52,1727897699949,-1.0048828,-0.049804688,-0.0390625,-1.5625,1.0,-0.21875
53,53,1727897699989,-0.9921875,-0.051757812,-0.04296875,-0.34375,0.625,-0.34375
54,54,1727897700029,-1.0039062,-0.038085938,-0.057617188,0.375,1.0,-0.28125
55,55,1727897700069,-1.0,-0.037109375,-0.07128906,0.3125,1.125,-0.09375
56,56,1727897700109,-1.0009766,-0.037109375,-0.051757812,-0.84375,0.9375,-0.09375
57,57,1727897700149,-1.0009766,-0.04296875,-0.041992188,-1.03125,0.375,-0.34375
58,58,1727897700189,-0.99609375,-0.055664062,-0.056640625,-0.40625,0.875,-0.09375
59,59,1727897700229,-1.0029297,-0.045898438,-0.051757812,-0.28125,0.5625,-0.21875
60,60,1727897700269,-1.0107422,-0.046875,-0.044921875,-1.21875,0.375,-0.09375
61,61,1727897700309,-0.99609375,-0.046875,-0.053710938,-0.03125,0.6875,-0.21875
62,62,1727897700349,-0.9970703,-0.041992188,-0.055664062,0.125,0.5,-0.09375
63,63,1727897700389,-1.0,-0.041992188,-0.059570312,0.875,0.3125,-0.21875
64,64,1727897700429,-1.0019531,-0.03125,-0.052734375,0.0,0.0625,-0.28125
65,65,1727897700469,-0.9951172,-0.045898438,-0.06738281,0.6875,0.5,-0.03125
66,66,1727897700509,-0.9941406,-0.041015625,-0.055664062,-1.28125,0.4375,-0.34375
67,67,1727897700549,-0.9980469,-0.052734375,-0.061523438,1.125,-0.09375,-0.21875
68,68,1727897700589,-1.015625,-0.049804688,-0.047851562,0.25,0.4375,-0.03125
69,69,1727897700629,-0.9863281,-0.038085938,-0.0390625,1.28125,0.4375,-0.21875
70,70,1727897700669,-1.0029297,-0.05078125,-0.06738281,-0.65625,-0.15625,-0.15625
71,71,1727897700709,-1.0019531,-0.05078125,-0.056640625,0.5625,0.3125,-0.28125
72,72,1727897700749,-1.0029297,-0.037109375,-0.046875,-0.53125,-0.15625,-0.28125
73,73,1727897700789,-0.9941406,-0.0546875,-0.051757812,-0.09375,0.25,-0.21875
74,74,1727897700829,-1.0048828,-0.041015625,-0.055664062,-0.90625,-0.46875,-0.21875
75,75,1727897700869,-1.0039062,-0.0625,-0.051757812,0.125,0.03125,-0.28125
76,76,1727897700909,-0.9980469,-0.041015625,-0.053710938,-0.71875,0.0625,-0.28125
77,77,1727897700949,-1.0009766,-0.043945312,-0.046875,0.1875,0.03125,-0.21875
78,78,1727897700989,-0.99609375,-0.036132812,-0.05078125,-0.65625,-0.03125,-0.34375
79,79,1727897701029,-1.0,-0.053710938,-0.044921875,0.4375,0.03125,-0.21875
80,80,1727897701069,-1.0019531,-0.049804688,-0.06542969,-0.34375,-0.21875,-0.28125
81,81,1727897701109,-0.99902344,-0.041015625,-0.05859375,0.6875,0.375,-0.21875
82,82,1727897701149,-1.0039062,-0.044921875,-0.057617188,-0.59375,0.4375,-0.15625
83,83,1727897701189,-1.0039062,-0.043945312,-0.043945312,0.0625,0.0625,-0.28125
84,84,1727897701229,-0.98828125,-0.048828125,-0.0546875,-0.84375,0.0625,-0.15625
85,85,1727897701269,-1.0039062,-0.056640625,-0.043945312,0.0,0.125,0.03125
86,86,1727897701309,-1.0029297,-0.048828125,-0.055664062,0.625,0.125,-0.34375
87,87,1727897701349,-0.9980469,-0.03515625,-0.0625,-0.15625,0.1875,-0.40625
88,88,1727897701389,-1.0048828,-0.051757812,-0.055664062,0.0,0.5,-0.03125
89,89,1727897701429,-1.0097656,-0.045898438,-0.045898438,-0.15625,0.1875,-0.21875
90,90,1727897701469,-1.0009766,-0.045898438,-0.056640625,-0.15625,-0.28125,-0.40625
91,91,1727897701509,-0.9941406,-0.046875,-0.048828125,-0.53125,0.5,-0.09375
92,92,1727897701549,-1.0039062,-0.041992188,-0.052734375,-0.21875,0.03125,-0.21875
93,93,1727897701589,-1.0058594,-0.045898438,-0.056640625,-0.59375,-0.21875,-0.40625
94,94,1727897701629,-0.9970703,-0.064453125,-0.055664062,-0.15625,-0.09375,-0.28125
95,95,1727897701669,-0.99902344,-0.043945312,-0.059570312,0.25,0.4375,-0.09375
96,96,1727897701709,-0.9970703,-0.053710938,-0.053710938,-0.03125,0.125,-0.09375
97,97,1727897701749,-1.0068359,-0.0546875,-0.061523438,0.75,-0.40625,-0.34375
98,98,1727897701789,-0.9980469,-0.05078125,-0.05078125,-0.65625,-0.34375,-0.28125
99,99,1727897701829,-0.9970703,-0.04296875,-0.04296875,0.875,0.03125,-0.09375
100,100,1727897701869,-1.0009766,-0.034179688,-0.06640625,-1.3125,-0.09375,0.03125
101,101,1727897701909,-0.9980469,-0.051757812,-0.034179688,1.53125,-0.65625,-0.15625
102,102,1727897701949,-1.0039062,-0.0390625,-0.057617188,-1.09375,-0.09375,-0.15625
103,103,1727897701989,-1.0048828,-0.047851562,-0.041992188,0.1875,-0.09375,0.03125
104,104,1727897702029,-1.0048828,-0.047851562,-0.0703125,0.3125,-0.34375,-0.40625
105,105,1727897702069,-1.0019531,-0.053710938,-0.057617188,-0.15625,0.125,0.09375
106,106,1727897702109,-1.0039062,-0.059570312,-0.049804688,0.625,-0.34375,-0.09375
107,107,1727897702149,-1.0009766,-0.044921875,-0.053710938,0.5625,-0.09375,-0.21875
108,108,1727897702189,-1.0039062,-0.043945312,-0.053710938,-0.15625,-0.28125,-0.03125
109,109,1727897702229,-1.0009766,-0.046875,-0.045898438,-0.15625,-0.40625,-0.21875
110,110,1727897702269,-1.0,-0.053710938,-0.05859375,0.6875,0.03125,-0.03125
111,111,1727897702309,-1.0068359,-0.041992188,-0.034179688,-0.15625,-0.21875,-0.21875
112,112,1727897702349,-1.0009766,-0.045898438,-0.060546875,0.3125,-0.34375,-0.09375
113,113,1727897702389,-1.0039062,-0.046875,-0.03515625,0.9375,-0.46875,0.03125
114,114,1727897702429,-1.0087891,-0.043945312,-0.046875,0.0,-0.34375,-0.15625
115,115,1727897702469,-1.0009766,-0.040039062,-0.04296875,1.1875,-0.34375,-0.15625
116,116,1727897702509,-1.0087891,-0.045898438,-0.041992188,0.3125,-0.71875,-0.09375
117,117,1727897702549,-0.9980469,-0.047851562,-0.056640625,0.6875,-0.15625,-0.03125
118,118,1727897702589,-0.9980469,-0.0390625,-0.04296875,-0.34375,-0.28125,-0.21875
119,119,1727897702629,-1.0058594,-0.046875,-0.028320312,0.25,-0.03125,-0.09375
120,120,1727897702669,-1.0019531,-0.049804688,-0.038085938,-0.15625,-0.59375,-0.21875
121,121,1727897702709,-0.9980469,-0.052734375,-0.032226562,-0.15625,-0.03125,-0.09375
122,122,1727897702749,-1.0019531,-0.045898438,-0.040039062,-0.15625,-0.65625,-0.03125
123,123,1727897702789,-0.99609375,-0.047851562,-0.05078125,0.4375,-0.40625,-0.34375
124,124,1727897702829,-0.9970703,-0.047851562,-0.043945312,0.25,-0.40625,-0.15625
125,125,1727897702869,-0.9902344,-0.043945312,-0.05078125,-0.21875,0.03125,-0.21875
126,126,1727897702909,-1.0068359,-0.05859375,-0.041992188,0.875,-0.28125,-0.09375
127,127,1727897702949,-1.0029297,-0.044921875,-0.052734375,-0.40625,0.0625,-0.40625
128,128,1727897702989,-0.99609375,-0.051757812,-0.053710938,-0.53125,-0.15625,-0.15625
129,129,1727897703029,-1.0009766,-0.044921875,-0.055664062,-0.84375,-0.34375,-0.28125
130,130,1727897703069,-0.9980469,-0.051757812,-0.047851562,0.0,0.3125,-0.21875
131,131,1727897703109,-1.0078125,-0.05078125,-0.03515625,-0.71875,-0.71875,-0.21875
132,132,1727897703149,-1.0058594,-0.046875,-0.048828125,-0.71875,-1.5,-0.6875
133,133,1727897703189,-1.0019531,-0.049804688,-0.045898438,0.0625,-0.71875,-0.34375
134,134,1727897703229,-0.9980469,-0.044921875,-0.044921875,-0.53125,0.3125,-0.15625
135,135,1727897703269,-0.9980469,-0.046875,-0.048828125,-0.03125,0.5,-0.15625
136,136,1727897703309,-0.9980469,-0.05078125,-0.046875,0.625,0.0625,0.03125
137,137,1727897703349,-1.0078125,-0.041015625,-0.03125,-0.21875,-0.28125,-0.28125
138,138,1727897703389,-0.99609375,-0.041992188,-0.04296875,-0.09375,-0.15625,-0.09375
139,139,1727897703429,-1.0,-0.048828125,-0.055664062,0.625,0.125,-0.09375
140,140,1727897703469,-1.0078125,-0.045898438,-0.028320312,-0.03125,0.1875,-0.21875
141,141,1727897703509,-1.0048828,-0.045898438,-0.034179688,0.4375,0.0625,-0.21875
142,142,1727897703549,-1.0,-0.047851562,-0.037109375,-0.90625,0.375,-0.09375
143,143,1727897703589,-1.0058594,-0.05078125,-0.041015625,0.5625,-0.15625,-0.15625
144,144,1727897703629,-0.9980469,-0.053710938,-0.030273438,-0.03125,-0.59375,-0.34375
145,145,1727897703669,-0.9980469,-0.045898438,-0.038085938,0.4375,0.5,-0.03125
146,146,1727897703709,-0.9980469,-0.046875,-0.034179688,-0.15625,-0.09375,0.03125
147,147,1727897703749,-0.9941406,-0.052734375,-0.02734375,0.375,-0.03125,-0.21875
148,148,1727897703789,-1.0029297,-0.041992188,-0.0126953125,-0.28125,-0.03125,0.03125
149,149,1727897703829,-0.99902344,-0.052734375,-0.034179688,-0.78125,-0.15625,-0.28125
150,150,1727897703869,-1.0068359,-0.036132812,-0.037109375,-1.03125,-0.28125,-0.15625
151,151,1727897703909,-1.0107422,-0.05859375,-0.021484375,0.0625,0.03125,-0.34375
152,152,1727897703949,-0.9941406,-0.048828125,-0.048828125,0.0625,0.3125,-0.03125
153,153,1727897703989,-1.0,-0.053710938,-0.04296875,0.625,0.75,-0.09375
154,154,1727897704029,-1.0,-0.043945312,-0.040039062,0.4375,0.125,-0.09375
155,155,1727897704069,-0.99902344,-0.052734375,-0.041015625,-0.34375,0.3125,-0.03125
156,156,1727897704109,-1.0029297,-0.055664062,-0.040039062,-0.09375,0.375,0.03125
157,157,1727897704149,-1.0136719,-0.041992188,-0.01953125,0.1875,0.875,-0.03125
158,158,1727897704189,-1.0048828,-0.047851562,-0.024414062,-0.46875,0.3125,-0.28125
159,159,1727897704229,-0.99902344,-0.060546875,-0.040039062,0.25,0.3125,-0.28125
160,160,1727897704269,-0.9951172,-0.041992188,-0.030273438,-0.34375,0.5625,-0.03125
161,161,1727897704309,-1.0146484,-0.05859375,-0.041015625,-0.09375,0.25,-0.15625
162,162,1727897704349,-1.0039062,-0.041015625,-0.032226562,-0.59375,0.3125,-0.28125
163,163,1727897704389,-0.99902344,-0.049804688,-0.020507812,0.0,0.03125,-0.15625
164,164,1727897704429,-1.0029297,-0.052734375,-0.053710938,0.4375,0.4375,0.03125
165,165,1727897704469,-1.0039062,-0.053710938,-0.041015625,-0.09375,0.875,0.03125
166,166,1727897704509,-1.0019531,-0.0546875,-0.032226562,0.625,0.1875,-0.03125
167,167,1727897704549,-1.0019531,-0.049804688,-0.047851562,0.625,0.25,-0.15625
168,168,1727897704589,-1.0009766,-0.043945312,-0.047851562,-0.09375,0.5,0.03125
169,169,1727897704629,-1.0107422,-0.053710938,-0.03125,0.5625,1.0625,0.09375
170,170,1727897704669,-1.0009766,-0.053710938,-0.047851562,0.25,0.5,0.03125
171,171,1727897704709,-1.0029297,-0.057617188,-0.046875,1.46875,0.8125,-0.09375
172,172,1727897704749,-1.0029297,-0.049804688,-0.053710938,-0.34375,0.8125,0.09375
173,173,1727897704789,-0.99316406,-0.052734375,-0.043945312,0.125,0.5625,0.03125
174,174,1727897704829,-0.9980469,-0.05078125,-0.052734375,-0.65625,0.6875,-0.21875
175,175,1727897704869,-1.0009766,-0.044921875,-0.048828125,-0.71875,0.6875,-0.03125
176,176,1727897704909,-1.0029297,-0.053710938,-0.041992188,0.3125,0.6875,-0.03125
177,177,1727897704949,-1.0107422,-0.043945312,-0.041992188,-1.09375,0.625,-0.21875
178,178,1727897704989,-1.0087891,-0.044921875,-0.05078125,-0.59375,0.5625,-0.09375
179,179,1727897705029,-1.0019531,-0.047851562,-0.037109375,-0.40625,0.1875,-0.15625
180,180,1727897705069,-1.0058594,-0.047851562,-0.044921875,-0.09375,0.375,-0.21875
181,181,1727897705109,-1.0058594,-0.043945312,-0.047851562,-0.40625,0.375,-0.21875
182,182,1727897705149,-0.99902344,-0.048828125,-0.041992188,-0.09375,0.25,-0.28125
183,183,1727897705189,-0.99609375,-0.05859375,-0.045898438,0.5625,0.375,-0.21875
184,184,1727897705229,-1.0029297,-0.048828125,-0.033203125,0.125,0.625,-0.28125
185,185,1727897705269,-1.0078125,-0.047851562,-0.045898438,-0.59375,0.6875,-0.21875
186,186,1727897705309,-1.0039062,-0.052734375,-0.052734375,0.0625,-0.03125,-0.21875
187,187,1727897705349,-0.99316406,-0.03515625,-0.04296875,-1.21875,-0.03125,-0.46875
188,188,1727897705389,-0.99902344,-0.052734375,-0.049804688,-0.40625,0.0625,-0.21875
189,189,1727897705429,-0.99902344,-0.043945312,-0.046875,-0.09375,0.25,-0.34375
190,190,1727897705469,-1.0009766,-0.057617188,-0.046875,0.3125,0.5,-0.28125
191,191,1727897705509,-1.0029297,-0.05078125,-0.055664062,0.6875,0.25,-0.40625
192,192,1727897705549,-0.99902344,-0.05078125,-0.052734375,0.4375,0.25,-0.21875
193,193,1727897705589,-0.99902344,-0.048828125,-0.043945312,-0.40625,-0.09375,-0.03125
194,194,1727897705629,-1.0,-0.049804688,-0.046875,-0.78125,-0.21875,-0.15625
195,195,1727897705669,-1.0009766,-0.046875,-0.04296875,-1.15625,-0.40625,-0.34375
196,196,1727897705709,-0.99902344,-0.049804688,-0.036132812,0.125,-0.28125,-0.09375
197,197,1727897705749,-0.99121094,-0.04296875,-0.045898438,-0.96875,0.03125,-0.34375
198,198,1727897705789,-1.0009766,-0.046875,-0.033203125,0.25,-0.21875,-0.21875
199,199,1727897705829,-1.0029297,-0.064453125,-0.041992188,-1.28125,0.0625,-0.21875
200,200,1727897705869,-1.0019531,-0.052734375,-0.041015625,0.125,-0.15625,-0.21875
201,201,1727897705909,-1.0029297,-0.04296875,-0.041992188,-0.28125,0.03125,-0.40625
202,202,1727897705949,-0.9951172,-0.040039062,-0.049804688,-0.59375,-0.03125,-0.03125
203,203,1727897705989,-0.9980469,-0.059570312,-0.05078125,-0.09375,0.03125,-0.03125
204,204,1727897706029,-0.9921875,-0.045898438,-0.041992188,-0.40625,0.4375,-0.28125
205,205,1727897706069,-1.0097656,-0.057617188,-0.0390625,-0.53125,-0.03125,-0.09375
206,206,1727897706109,-1.0009766,-0.048828125,-0.045898438,0.1875,0.1875,-0.46875
207,207,1727897706149,-1.0058594,-0.04296875,-0.036132812,-1.15625,0.125,-0.15625
208,208,1727897706189,-0.9980469,-0.05859375,-0.034179688,0.5,0.03125,-0.28125
209,209,1727897706229,-1.0068359,-0.05078125,-0.05078125,0.5625,0.25,-0.28125
210,210,1727897706269,-1.0039062,-0.048828125,-0.046875,-0.03125,0.1875,-0.28125
211,211,1727897706309,-0.99902344,-0.045898438,-0.046875,-0.21875,0.0625,-0.34375
212,212,1727897706349,-1.0058594,-0.04296875,-0.043945312,-0.03125,0.03125,-0.28125
213,213,1727897706389,-1.0029297,-0.053710938,-0.041015625,-0.15625,0.125,-0.34375
214,214,1727897706429,-1.0068359,-0.0546875,-0.057617188,0.375,-0.03125,-0.28125
215,215,1727897706469,-1.0039062,-0.048828125,-0.053710938,0.25,0.1875,-0.46875
216,216,1727897706509,-0.99902344,-0.043945312,-0.040039062,-0.84375,0.125,-0.03125
217,217,1727897706549,-1.0029297,-0.057617188,-0.038085938,0.5,0.1875,-0.15625
218,218,1727897706589,-1.0087891,-0.043945312,-0.051757812,-0.59375,-0.09375,-0.21875
219,219,1727897706629,-0.9941406,-0.055664062,-0.057617188,0.3125,0.25,-0.28125
220,220,1727897706669,-1.0029297,-0.046875,-0.0625,-0.09375,0.375,-0.15625
221,221,1727897706709,-0.99902344,-0.047851562,-0.056640625,-0.15625,-0.09375,-0.28125
222,222,1727897706749,-0.99316406,-0.043945312,-0.0625,-1.4375,0.125,-0.21875
223,223,1727897706789,-0.9951172,-0.055664062,-0.03515625,-0.21875,0.125,-0.09375
224,224,1727897706829,-1.0,-0.053710938,-0.047851562,0.0,-0.03125,-0.34375
225,225,1727897706869,-0.9970703,-0.049804688,-0.043945312,-0.15625,-0.21875,-0.15625
226,226,1727897706909,-0.99902344,-0.051757812,-0.045898438,-0.53125,-0.21875,-0.15625
227,227,1727897706949,-0.99609375,-0.049804688,-0.032226562,0.5625,-0.09375,-0.21875
228,228,1727897706989,-0.99902344,-0.045898438,-0.046875,-0.65625,-0.09375,-0.03125
229,229,1727897707029,-1.0058594,-0.052734375,-0.0625,-0.40625,-0.21875,-0.21875
230,230,1727897707069,-0.9970703,-0.045898438,-0.041015625,0.5625,-0.21875,-0.28125
231,231,1727897707109,-1.0087891,-0.043945312,-0.0625,-0.34375,0.03125,-0.03125
232,232,1727897707149,-1.0,-0.055664062,-0.041015625,-0.09375,-0.46875,-0.28125
233,233,1727897707189,-0.9970703,-0.045898438,-0.048828125,-0.21875,-0.40625,-0.28125
234,234,1727897707229,-1.0087891,-0.041992188,-0.04296875,-0.21875,-0.09375,-0.15625
235,235,1727897707269,-1.0019531,-0.048828125,-0.053710938,-0.40625,-0.21875,-0.40625
236,236,1727897707309,-1.0107422,-0.05078125,-0.045898438,0.1875,0.25,-0.03125
237,237,1727897707349,-1.0029297,-0.045898438,-0.043945312,-0.59375,-0.15625,-0.28125
238,238,1727897707389,-1.0009766,-0.056640625,-0.037109375,0.4375,-0.03125,-0.21875
239,239,1727897707429,-1.0048828,-0.057617188,-0.041992188,-0.03125,-0.03125,-0.21875
240,240,1727897707469,-1.0029297,-0.053710938,-0.044921875,0.5,0.03125,-0.28125
241,241,1727897707509,-1.0097656,-0.048828125,-0.048828125,-1.09375,0.4375,-0.09375
242,242,1727897707549,-1.0,-0.052734375,-0.0234375,-0.15625,0.03125,-0.28125
243,243,1727897707589,-1.0029297,-0.048828125,-0.048828125,-0.46875,0.0625,-0.28125
244,244,1727897707629,-1.0,-0.038085938,-0.041992188,-0.40625,0.1875,-0.21875
245,245,1727897707669,-1.0029297,-0.056640625,-0.04296875,-0.09375,0.1875,-0.28125
246,246,1727897707709,-1.0039062,-0.047851562,-0.0390625,-0.09375,0.0625,-0.21875
247,247,1727897707749,-0.9980469,-0.043945312,-0.0546875,-0.40625,0.0625,-0.15625
248,248,1727897707789,-0.9951172,-0.048828125,-0.046875,-0.34375,-0.09375,-0.28125
249,249,1727897707829,-0.9951172,-0.053710938,-0.041015625,-0.03125,0.1875,-0.34375
250,250,1727897707869,-1.0029297,-0.045898438,-0.043945312,-0.15625,-0.28125,-0.21875
251,251,1727897707909,-0.99121094,-0.059570312,-0.0546875,0.125,-0.03125,-0.28125
252,252,1727897707949,-1.0009766,-0.046875,-0.05078125,-0.84375,0.4375,-0.28125
253,253,1727897707989,-0.9970703,-0.05078125,-0.041992188,-0.15625,-0.03125,-0.21875
254,254,1727897708029,-0.99902344,-0.043945312,-0.055664062,-0.53125,-0.15625,-0.34375
255,255,1727897708069,-1.0,-0.05078125,-0.048828125,-0.09375,0.1875,-0.09375
256,256,1727897708109,-1.0078125,-0.053710938,-0.041992188,-0.21875,0.25,-0.21875
257,257,1727897708149,-0.99121094,-0.055664062,-0.033203125,0.3125,0.1875,-0.21875
258,258,1727897708189,-0.99902344,-0.052734375,-0.056640625,-0.53125,0.25,-0.21875
259,259,1727897708229,-0.9980469,-0.045898438,-0.041992188,-0.21875,0.1875,-0.28125
260,260,1727897708269,-1.0117188,-0.04296875,-0.04296875,-0.21875,0.125,-0.28125
261,261,1727897708309,-1.0,-0.046875,-0.05859375,-0.34375,-0.46875,-0.46875
262,262,1727897708349,-1.0009766,-0.05859375,-0.0625,-0.21875,0.1875,-0.21875
263,263,1727897708389,-0.9980469,-0.047851562,-0.052734375,-0.28125,0.3125,-0.09375
264,264,1727897708429,-0.99121094,-0.05078125,-0.048828125,-0.21875,0.0625,-0.28125
265,265,1727897708469,-0.9980469,-0.052734375,-0.038085938,0.1875,-0.34375,-0.21875
266,266,1727897708509,-1.0078125,-0.059570312,-0.055664062,0.0625,0.375,-0.03125
267,267,1727897708549,-1.0029297,-0.033203125,-0.049804688,-1.03125,0.1875,-0.21875
268,268,1727897708589,-1.0107422,-0.0625,-0.04296875,1.0625,0.4375,-0.15625
269,269,1727897708629,-1.0087891,-0.044921875,-0.047851562,-0.21875,0.03125,-0.03125
270,270,1727897708669,-1.0039062,-0.051757812,-0.041992188,0.6875,0.03125,-0.09375
271,271,1727897708709,-1.0097656,-0.038085938,-0.053710938,-1.4375,-0.15625,0.0625
272,272,1727897708749,-0.9970703,-0.055664062,-0.05078125,1.03125,-0.53125,-0.0625
273,273,1727897708789,-1.0029297,-0.05078125,-0.04296875,0.09375,0.15625,-0.0625
274,274,1727897708829,-0.99609375,-0.04296875,-0.056640625,-0.625,0.34375,0.34375
275,275,1727897708869,-1.0078125,-0.055664062,-0.0234375,-0.15625,0.15625,-0.0625
276,276,1727897708909,-1.0,-0.044921875,-0.05078125,-0.5,0.03125,0.0625
277,277,1727897708949,-1.0058594,-0.05078125,-0.056640625,0.78125,0.40625,0.15625
278,278,1727897708989,-1.0039062,-0.036132812,-0.052734375,-0.5625,0.21875,0.09375
279,279,1727897709029,-0.9951172,-0.053710938,-0.051757812,0.65625,-0.28125,-0.125
280,280,1727897709069,-1.0039062,-0.051757812,-0.06347656,-0.5625,0.09375,0.0
281,281,1727897709109,-0.99902344,-0.057617188,-0.043945312,0.28125,0.09375,0.09375
282,282,1727897709149,-1.0009766,-0.046875,-0.041015625,-0.5625,-0.15625,-0.0625
283,283,1727897709189,-0.9980469,-0.044921875,-0.0546875,-0.15625,-0.15625,0.0
284,284,1727897709229,-0.9970703,-0.046875,-0.064453125,0.21875,-0.03125,0.09375
285,285,1727897709269,-1.0058594,-0.047851562,-0.043945312,0.28125,0.15625,0.09375
286,286,1727897709309,-0.99609375,-0.046875,-0.045898438,0.34375,0.21875,0.0625
287,287,1727897709349,-1.0,-0.041015625,-0.045898438,-0.09375,-0.03125,0.0625
288,288,1727897709389,-1.0087891,-0.055664062,-0.046875,-0.09375,0.03125,0.15625
289,289,1727897709429,-0.9824219,-0.048828125,-0.041015625,-0.375,0.4375,0.15625
290,290,1727897709469,-1.0009766,-0.045898438,-0.051757812,0.90625,0.03125,0.0625
291,291,1727897709509,-0.9980469,-0.056640625,-0.048828125,-0.09375,0.5,0.0625
292,292,1727897709549,-0.9892578,-0.038085938,-0.024414062,0.21875,0.15625,0.0
293,293,1727897709589,-0.9980469,-0.052734375,-0.0546875,0.78125,0.28125,0.0
294,294,1727897709629,-1.0,-0.055664062,-0.048828125,-0.4375,0.4375,0.15625
295,295,1727897709669,-0.9980469,-0.05078125,-0.05078125,0.21875,0.21875,-0.125
296,296,1727897709709,-1.0068359,-0.047851562,-0.0546875,-0.4375,0.21875,-0.0625
297,297,1727897709749,-1.0048828,-0.057617188,-0.061523438,-0.03125,0.5,0.15625
298,298,1727897709789,-0.9902344,-0.047851562,-0.0546875,-0.375,0.15625,0.09375
299,299,1727897709829,-1.0078125,-0.047851562,-0.0625,0.09375,0.6875,0.15625
300,300,1727897709869,-0.9980469,-0.045898438,-0.041015625,-0.15625,0.15625,-0.0625
301,301,1727897709909,-0.99609375,-0.048828125,-0.05859375,0.53125,0.34375,-0.0625
302,302,1727897709949,-1.0078125,-0.046875,-0.046875,-0.25,0.09375,0.09375
303,303,1727897709989,-0.9980469,-0.064453125,-0.045898438,0.65625,0.03125,0.0625
304,304,1727897710029,-1.0009766,-0.044921875,-0.052734375,-0.6875,-0.34375,-0.0625
305,305,1727897710069,-0.9970703,-0.043945312,-0.046875,0.59375,-0.46875,-0.1875
306,306,1727897710109,-0.9970703,-0.04296875,-0.048828125,0.09375,0.03125,-0.125
307,307,1727897710149,-1.0058594,-0.046875,-0.052734375,-0.25,0.5,0.0625
308,308,1727897710189,-1.0078125,-0.044921875,-0.052734375,0.59375,0.15625,0.15625
309,309,1727897710229,-1.0,-0.052734375,-0.052734375,-0.4375,0.15625,-0.1875
310,310,1727897710269,-1.0087891,-0.048828125,-0.043945312,-0.875,-0.21875,-0.0625
311,311,1727897710309,-1.0019531,-0.056640625,-0.0390625,-0.625,-0.28125,0.0625
312,312,1727897710349,-0.9970703,-0.045898438,-0.051757812,-0.5625,0.34375,0.0
313,313,1727897710389,-1.0078125,-0.053710938,-0.041992188,0.53125,0.28125,0.0625
314,314,1727897710429,-0.9892578,-0.043945312,-0.0546875,0.03125,-0.09375,0.0625
315,315,1727897710469,-1.0048828,-0.053710938,-0.06933594,0.21875,-0.46875,-0.125
316,316,1727897710509,-1.0068359,-0.049804688,-0.049804688,-0.25,-0.09375,0.0
317,317,1727897710549,-0.9951172,-0.044921875,-0.057617188,-0.375,-0.09375,0.0625
318,318,1727897710589,-0.99121094,-0.045898438,-0.052734375,-0.15625,-0.40625,0.0
319,319,1727897710629,-0.9980469,-0.0546875,-0.055664062,-0.09375,-0.09375,0.0625
320,320,1727897710669,-0.9970703,-0.03515625,-0.04296875,-0.1875,0.28125,0.21875
321,321,1727897710709,-1.0,-0.045898438,-0.055664062,0.09375,-0.15625,0.0625
322,322,1727897710749,-1.0039062,-0.053710938,-0.045898438,-0.4375,-0.15625,0.0625
323,323,1727897710789,-1.0,-0.049804688,-0.059570312,-0.03125,-0.09375,0.15625
324,324,1727897710829,-0.9892578,-0.049804688,-0.0546875,0.28125,-0.40625,0.09375
325,325,1727897710869,-0.9941406,-0.046875,-0.051757812,0.03125,-0.46875,0.09375
326,326,1727897710909,-1.0039062,-0.052734375,-0.048828125,0.34375,-0.46875,0.0625
327,327,1727897710949,-1.0058594,-0.045898438,-0.048828125,0.21875,-0.40625,0.09375
328,328,1727897710989,-1.0048828,-0.045898438,-0.060546875,-0.09375,-0.28125,-0.0625
329,329,1727897711029,-1.0097656,-0.048828125,-0.047851562,-0.25,-0.28125,0.0
330,330,1727897711069,-1.0029297,-0.051757812,-0.048828125,0.03125,-0.03125,-0.3125
331,331,1727897711109,-0.9980469,-0.048828125,-0.053710938,-0.03125,-0.21875,-0.125
332,332,1727897711149,-0.99609375,-0.057617188,-0.051757812,0.21875,0.40625,0.0
333,333,1727897711189,-1.0126953,-0.055664062,-0.043945312,-0.5625,-0.34375,-0.125
334,334,1727897711229,-1.0019531,-0.057617188,-0.055664062,0.65625,-0.34375,0.0
335,335,1727897711269,-1.0058594,-0.0546875,-0.05859375,0.03125,0.34375,0.0625
336,336,1727897711309,-1.0039062,-0.049804688,-0.052734375,0.59375,0.03125,0.0
337,337,1727897711349,-1.0019531,-0.043945312,-0.0390625,-0.03125,0.03125,-0.0625
338,338,1727897711389,-1.0009766,-0.056640625,-0.059570312,-0.09375,-0.09375,0.0
339,339,1727897711429,-1.0097656,-0.044921875,-0.052734375,0.09375,-0.40625,-0.0625
340,340,1727897711469,-1.0058594,-0.049804688,-0.060546875,-0.375,-0.28125,0.09375
341,341,1727897711509,-0.9951172,-0.046875,-0.04296875,-0.1875,-0.15625,0.0625
342,342,1727897711549,-1.0029297,-0.04296875,-0.052734375,0.46875,-0.53125,-0.0625
343,343,1727897711589,-0.99121094,-0.05859375,-0.0625,0.03125,-0.15625,0.09375
344,344,1727897711629,-0.99902344,-0.044921875,-0.06738281,-0.625,-0.53125,0.09375
345,345,1727897711669,-0.99121094,-0.05078125,-0.044921875,0.96875,-0.40625,0.0625
346,346,1727897711709,-1.0048828,-0.043945312,-0.059570312,0.15625,-0.28125,0.09375
347,347,1727897711749,-1.0019531,-0.044921875,-0.0625,0.53125,-0.28125,0.09375
348,348,1727897711789,-1.0078125,-0.05078125,-0.049804688,-0.1875,-0.65625,0.0625
349,349,1727897711829,-1.0087891,-0.047851562,-0.057617188,0.46875,-0.34375,0.0
350,350,1727897711869,-1.0039062,-0.04296875,-0.051757812,-0.3125,-0.34375,0.09375
351,351,1727897711909,-1.0058594,-0.047851562,-0.045898438,-0.25,-0.46875,0.0
352,352,1727897711949,-0.99609375,-0.048828125,-0.04296875,0.03125,-0.40625,0.0625
353,353,1727897711989,-0.9970703,-0.045898438,-0.045898438,-0.5625,-0.46875,0.0
354,354,1727897712029,-0.9980469,-0.047851562,-0.0546875,0.15625,-0.59375,-0.0625
355,355,1727897712069,-1.0009766,-0.045898438,-0.055664062,0.34375,-0.15625,0.0
356,356,1727897712109,-1.0039062,-0.041992188,-0.051757812,-1.0,0.21875,0.0
357,357,1727897712149,-0.99902344,-0.0546875,-0.043945312,0.03125,-0.40625,0.0
358,358,1727897712189,-1.0068359,-0.049804688,-0.057617188,-0.4375,-0.28125,-0.125
359,359,1727897712229,-1.0019531,-0.053710938,-0.0546875,0.90625,0.09375,0.0
360,360,1727897712269,-0.99902344,-0.03125,-0.047851562,-0.03125,-0.34375,-0.125
361,361,1727897712309,-1.0009766,-0.04296875,-0.05078125,0.21875,-0.09375,-0.0625
362,362,1727897712349,-1.0009766,-0.059570312,-0.0390625,0.03125,-0.09375,-0.1875
363,363,1727897712389,-0.99902344,-0.044921875,-0.047851562,0.53125,-0.53125,-0.125
364,364,1727897712429,-1.0039062,-0.056640625,-0.052734375,-0.09375,-0.40625,-0.25
365,365,1727897712469,-1.0058594,-0.055664062,-0.064453125,0.03125,-0.34375,0.0
366,366,1727897712509,-1.0078125,-0.049804688,-0.053710938,0.53125,-0.15625,0.0625
367,367,1727897712549,-0.9970703,-0.048828125,-0.043945312,-0.8125,-0.09375,0.0625
368,368,1727897712589,-1.0009766,-0.05859375,-0.046875,0.28125,-0.15625,-0.125
369,369,1727897712629,-1.0,-0.05078125,-0.046875,0.46875,-0.21875,0.0
370,370,1727897712669,-0.9970703,-0.0390625,-0.041992188,0.71875,-0.03125,0.09375
371,371,1727897712709,-1.0039062,-0.044921875,-0.07128906,-0.5625,-0.40625,0.0
372,372,1727897712749,-1.0048828,-0.0546875,-0.056640625,0.21875,-0.03125,-0.125
373,373,1727897712789,-1.0087891,-0.0390625,-0.0390625,-0.375,-0.34375,0.15625
374,374,1727897712829,-0.99316406,-0.049804688,-0.043945312,-0.03125,-0.53125,-0.0625
375,375,1727897712869,-1.0068359,-0.047851562,-0.047851562,-0.1875,-0.53125,0.0
376,376,1727897712909,-1.0078125,-0.045898438,-0.048828125,0.40625,0.28125,0.0625
377,377,1727897712949,-1.0058594,-0.051757812,-0.068359375,-0.15625,-0.34375,0.09375
378,378,1727897712989,-0.99609375,-0.055664062,-0.037109375,0.71875,0.34375,0.0
379,379,1727897713029,-1.0,-0.056640625,-0.068359375,-0.4375,0.28125,0.28125
380,380,1727897713069,-1.0029297,-0.0390625,-0.04296875,0.09375,-0.15625,0.0
381,381,1727897713109,-1.0029297,-0.047851562,-0.045898438,-0.4375,0.03125,0.0625
382,382,1727897713149,-0.9951172,-0.055664062,-0.056640625,0.90625,0.5,0.21875
383,383,1727897713189,-0.99316406,-0.041015625,-0.040039062,0.03125,-0.09375,0.0625
384,384,1727897713229,-0.9941406,-0.03515625,-0.053710938,-0.3125,0.15625,-0.1875
385,385,1727897713269,-0.99609375,-0.048828125,-0.020507812,0.03125,0.34375,-0.0625
386,386,1727897713309,-1.0039062,-0.041992188,-0.053710938,-0.5625,-0.21875,-0.0625
387,387,1727897713349,-0.99609375,-0.057617188,-0.046875,0.15625,0.28125,-0.0625
388,388,1727897713389,-1.0019531,-0.049804688,-0.046875,-0.4375,0.34375,0.0
389,389,1727897713429,-1.0058594,-0.048828125,-0.056640625,0.34375,0.15625,-0.0625
390,390,1727897713469,-0.99902344,-0.053710938,-0.0546875,-0.1875,0.09375,0.0
391,391,1727897713509,-1.0078125,-0.053710938,-0.049804688,0.46875,-0.03125,0.0625
392,392,1727897713549,-0.99316406,-0.05078125,-0.033203125,0.28125,-0.28125,-0.0625
393,393,1727897713589,-1.0009766,-0.049804688,-0.059570312,0.40625,-0.21875,0.0625
394,394,1727897713629,-1.0068359,-0.051757812,-0.046875,-0.15625,-0.21875,-0.125
395,395,1727897713669,-0.9951172,-0.043945312,-0.046875,0.46875,0.5,0.0
396,396,1727897713709,-1.0029297,-0.044921875,-0.041992188,-0.1875,-0.21875,0.09375
397,397,1727897713749,-1.0009766,-0.05859375,-0.046875,0.71875,0.15625,0.09375
398,398,1727897713789,-0.9970703,-0.047851562,-0.056640625,0.21875,0.21875,0.0625
399,399,1727897713829,-0.9970703,-0.045898438,-0.046875,0.65625,0.09375,-0.0625
400,400,1727897713869,-1.0,-0.05078125,-0.041015625,-0.3125,-0.09375,0.0625
401,401,1727897713909,-1.0009766,-0.059570312,-0.045898438,-0.03125,-0.03125,0.09375
402,402,1727897713949,-1.0009766,-0.046875,-0.034179688,0.09375,-0.09375,0.09375
403,403,1727897713989,-1.0039062,-0.045898438,-0.04296875,0.28125,0.5,0.15625
404,404,1727897714029,-1.0058594,-0.049804688,-0.056640625,0.65625,0.15625,0.09375
405,405,1727897714069,-0.99902344,-0.052734375,-0.057617188,0.28125,0.21875,0.21875
406,406,1727897714109,-1.0039062,-0.045898438,-0.04296875,-0.375,0.09375,0.0
407,407,1727897714149,-1.0009766,-0.048828125,-0.041992188,0.21875,0.5625,0.09375
408,408,1727897714189,-1.0009766,-0.049804688,-0.047851562,-0.75,0.15625,0.09375
409,409,1727897714229,-1.0068359,-0.051757812,-0.053710938,0.09375,0.40625,0.0
410,410,1727897714269,-1.0029297,-0.049804688,-0.060546875,-0.4375,0.34375,-0.125
411,411,1727897714309,-1.0039062,-0.049804688,-0.032226562,0.09375,0.09375,0.0
412,412,1727897714349,-1.0058594,-0.052734375,-0.041992188,-0.5,0.28125,0.0
413,413,1727897714389,-1.0,-0.044921875,-0.051757812,-0.25,0.03125,0.0
414,414,1727897714429,-0.99609375,-0.056640625,-0.04296875,0.34375,0.28125,0.0625
415,415,1727897714469,-0.99902344,-0.05859375,-0.0546875,0.78125,0.75,0.0
416,416,1727897714509,-1.0078125,-0.040039062,-0.038085938,-0.5,0.09375,0.0625
417,417,1727897714549,-1.0058594,-0.05078125,-0.04296875,-0.03125,0.28125,0.0
418,418,1727897714589,-1.0058594,-0.052734375,-0.045898438,-0.09375,0.21875,-0.125
419,419,1727897714629,-1.0,-0.047851562,-0.036132812,0.34375,0.28125,-0.0625
420,420,1727897714669,-1.0,-0.047851562,-0.056640625,0.28125,0.28125,-0.125
421,421,1727897714709,-1.0009766,-0.045898438,-0.06738281,0.65625,0.5,-0.1875
422,422,1727897714749,-0.9970703,-0.04296875,-0.052734375,-0.09375,0.4375,-0.25
423,423,1727897714789,-1.0117188,-0.043945312,-0.056640625,-0.5625,0.21875,-0.0625
424,424,1727897714829,-1.0,-0.055664062,-0.053710938,0.21875,0.03125,-0.125
425,425,1727897714869,-1.0039062,-0.049804688,-0.061523438,-0.09375,0.40625,-0.1875
426,426,1727897714909,-1.0048828,-0.044921875,-0.044921875,0.96875,0.21875,-0.125
427,427,1727897714949,-1.0068359,-0.045898438,-0.041992188,-0.03125,0.15625,-0.0625
428,428,1727897714989,-0.9980469,-0.041992188,-0.059570312,-0.25,0.40625,-0.0625
429,429,1727897715029,-0.9970703,-0.05078125,-0.064453125,-0.25,0.4375,0.0625
430,430,1727897715069,-1.0048828,-0.044921875,-0.055664062,-0.5625,-0.21875,-0.125
431,431,1727897715109,-0.9970703,-0.049804688,-0.044921875,-0.875,-0.53125,-0.1875
432,432,1727897715149,-1.0078125,-0.041992188,-0.044921875,-0.4375,-0.59375,0.09375
433,433,1727897715189,-1.0039062,-0.055664062,-0.041992188,0.28125,-0.46875,-0.0625
434,434,1727897715229,-0.99902344,-0.051757812,-0.048828125,0.65625,0.03125,0.0625
435,435,1727897715269,-1.0068359,-0.048828125,-0.047851562,0.59375,-0.15625,0.0
436,436,1727897715309,-1.0009766,-0.047851562,-0.045898438,0.96875,0.03125,0.0625
437,437,1727897715349,-1.0029297,-0.046875,-0.06347656,-0.09375,-0.34375,-0.0625
438,438,1727897715389,-0.9951172,-0.05859375,-0.051757812,0.09375,-0.09375,0.0625
439,439,1727897715429,-1.0136719,-0.0390625,-0.043945312,-0.1875,-0.15625,0.0
440,440,1727897715469,-0.99316406,-0.052734375,-0.047851562,0.28125,-0.15625,0.0625
441,441,1727897715509,-0.9951172,-0.040039062,-0.04296875,0.09375,-0.21875,0.0
442,442,1727897715549,-1.0068359,-0.047851562,-0.04296875,-0.1875,-0.09375,-0.0625
443,443,1727897715589,-1.0058594,-0.048828125,-0.061523438,0.28125,-0.34375,0.0
444,444,1727897715629,-1.0029297,-0.044921875,-0.053710938,0.21875,-0.15625,-0.125
445,445,1727897715669,-1.0048828,-0.045898438,-0.047851562,-0.5,-0.15625,-0.125
446,446,1727897715709,-1.0068359,-0.047851562,-0.03515625,-0.03125,-0.40625,-0.25
447,447,1727897715749,-0.99609375,-0.043945312,-0.045898438,-1.25,-0.53125,0.0625
448,448,1727897715789,-0.9980469,-0.053710938,-0.037109375,-0.03125,-0.15625,-0.125
449,449,1727897715829,-1.0048828,-0.045898438,-0.03125,-0.5625,-0.09375,-0.0625
450,450,1727897715869,-1.0,-0.060546875,-0.047851562,0.15625,-0.34375,0.0
451,451,1727897715909,-1.0,-0.047851562,-0.038085938,-0.625,-0.21875,0.0
452,452,1727897715949,-0.9951172,-0.045898438,-0.0546875,-0.09375,0.03125,0.0
453,453,1727897715989,-0.9970703,-0.045898438,-0.059570312,-0.6875,0.28125,0.0625
454,454,1727897716029,-0.9941406,-0.057617188,-0.029296875,0.53125,0.28125,-0.0625
455,455,1727897716069,-0.99121094,-0.043945312,-0.046875,-0.3125,0.15625,0.15625
456,456,1727897716109,-1.0107422,-0.05078125,-0.044921875,0.65625,0.4375,0.28125
457,457,1727897716149,-1.0048828,-0.040039062,-0.059570312,0.21875,0.03125,-0.0625
458,458,1727897716189,-0.99902344,-0.059570312,-0.046875,0.59375,0.03125,-0.0625
459,459,1727897716229,-1.0029297,-0.05078125,-0.047851562,0.53125,0.5625,0.40625
460,460,1727897716269,-0.9980469,-0.043945312,-0.047851562,0.40625,-0.03125,0.0625
461,461,1727897716309,-1.0009766,-0.043945312,-0.044921875,-0.375,-0.15625,0.0
462,462,1727897716349,-1.0048828,-0.044921875,-0.045898438,0.21875,-0.03125,0.15625
463,463,1727897716389,-1.0019531,-0.056640625,-0.05078125,0.46875,0.09375,0.0
464,464,1727897716429,-1.0048828,-0.034179688,-0.05859375,-0.03125,0.03125,0.09375
465,465,1727897716469,-1.0039062,-0.06640625,-0.051757812,-0.15625,-0.15625,0.15625
466,466,1727897716509,-0.99902344,-0.04296875,-0.055664062,0.40625,-0.28125,0.0
467,467,1727897716549,-1.0087891,-0.048828125,-0.05078125,-0.25,0.34375,0.0
468,468,1727897716589,-1.0058594,-0.03515625,-0.045898438,-0.15625,-0.46875,-0.125
469,469,1727897716629,-0.99121094,-0.05078125,-0.048828125,0.84375,0.21875,0.0625
470,470,1727897716669,-1.0068359,-0.04296875,-0.032226562,-0.3125,-0.03125,0.09375
471,471,1727897716709,-1.0009766,-0.055664062,-0.046875,0.28125,-0.21875,0.09375
472,472,1727897716749,-0.9941406,-0.0546875,-0.032226562,-0.375,0.21875,0.0
473,473,1727897716789,-0.99121094,-0.048828125,-0.05078125,0.28125,0.09375,0.0625
474,474,1727897716829,-1.0068359,-0.047851562,-0.051757812,0.03125,-0.03125,-0.1875
475,475,1727897716869,-0.9951172,-0.053710938,-0.057617188,0.46875,0.15625,0.0
476,476,1727897716909,-1.0048828,-0.05078125,-0.05078125,-0.25,0.09375,-0.0625
477,477,1727897716949,-1.0048828,-0.05859375,-0.04296875,0.15625,0.03125,-0.0625
478,478,1727897716989,-1.0029297,-0.053710938,-0.055664062,0.46875,-0.09375,0.0
479,479,1727897717029,-1.0058594,-0.0546875,-0.043945312,-0.09375,-0.21875,0.0625
480,480,1727897717069,-0.99902344,-0.047851562,-0.057617188,0.34375,0.15625,0.0625
481,481,1727897717109,-0.9941406,-0.05078125,-0.059570312,0.40625,0.03125,0.0
482,482,1727897717149,-0.99316406,-0.05859375,-0.038085938,0.28125,-0.28125,0.0
483,483,1727897717189,-0.99902344,-0.049804688,-0.05859375,-0.09375,-0.03125,0.09375
484,484,1727897717229,-0.9970703,-0.0546875,-0.047851562,0.21875,0.03125,0.0625
485,485,1727897717269,-1.0,-0.048828125,-0.049804688,0.84375,0.09375,-0.0625
486,486,1727897717309,-1.0048828,-0.052734375,-0.046875,-0.03125,-0.15625,0.09375
487,487,1727897717349,-1.0009766,-0.048828125,-0.061523438,0.15625,-0.09375,0.0
488,488,1727897717389,-0.99902344,-0.04296875,-0.052734375,-0.25,0.34375,0.0
489,489,1727897717429,-1.0048828,-0.053710938,-0.030273438,-0.15625,-0.65625,-0.1875
490,490,1727897717469,-0.99902344,-0.055664062,-0.061523438,0.09375,0.40625,0.15625
491,491,1727897717509,-1.0048828,-0.041992188,-0.064453125,-0.375,-0.03125,0.0
492,492,1727897717549,-0.99609375,-0.06542969,-0.055664062,0.65625,0.40625,-0.125
493,493,1727897717589,-1.0039062,-0.041015625,-0.047851562,0.15625,0.34375,0.09375
494,494,1727897717629,-1.0009766,-0.053710938,-0.047851562,0.28125,0.03125,0.0625
495,495,1727897717669,-0.99121094,-0.051757812,-0.05078125,-1.0625,0.5,-0.0625
496,496,1727897717709,-1.0097656,-0.05859375,-0.053710938,0.71875,0.4375,0.0625
497,497,1727897717749,-0.9980469,-0.053710938,-0.053710938,0.03125,-0.21875,-0.125
498,498,1727897717789,-0.9951172,-0.046875,-0.045898438,0.15625,0.40625,-0.0625
499,499,1727897717829,-0.9970703,-0.046875,-0.034179688,0.15625,0.28125,-0.0625
500,500,1727897717869,-1.0136719,-0.05078125,-0.055664062,1.03125,0.625,0.09375
501,501,1727897717909,-1.0029297,-0.0546875,-0.041015625,-0.6875,0.40625,-0.0625
502,502,1727897717949,-1.0039062,-0.052734375,-0.041992188,0.28125,0.03125,-0.0625
503,503,1727897717989,-0.99609375,-0.047851562,-0.056640625,0.09375,0.625,0.28125
504,504,1727897718029,-0.9980469,-0.059570312,-0.04296875,-0.3125,0.5625,-0.0625
505,505,1727897718069,-1.0146484,-0.048828125,-0.047851562,0.34375,0.15625,-0.0625
506,506,1727897718109,-1.0078125,-0.05078125,-0.037109375,0.03125,0.34375,0.0625
507,507,1727897718149,-1.0039062,-0.047851562,-0.048828125,-0.09375,0.5,0.15625
508,508,1727897718189,-1.0048828,-0.046875,-0.038085938,0.21875,0.40625,0.0625
509,509,1727897718229,-1.0058594,-0.048828125,-0.055664062,-0.3125,0.21875,-0.0625
510,510,1727897718269,-1.0009766,-0.045898438,-0.047851562,0.03125,0.625,-0.0625
511,511,1727897718309,-1.0078125,-0.049804688,-0.048828125,-0.5625,0.40625,0.0
512,512,1727897718349,-1.0039062,-0.053710938,-0.055664062,0.34375,0.40625,-0.0625
513,513,1727897718389,-1.0029297,-0.045898438,-0.05859375,-0.875,0.625,0.09375
514,514,1727897718429,-1.0039062,-0.059570312,-0.060546875,0.28125,0.75,-0.1875
515,515,1727897718469,-1.0009766,-0.048828125,-0.061523438,-0.5625,0.625,0.0625
516,516,1727897718509,-1.0087891,-0.05078125,-0.047851562,-0.03125,0.09375,0.0
517,517,1727897718549,-0.99609375,-0.05859375,-0.052734375,-0.375,0.75,0.0
518,518,1727897718589,-1.0117188,-0.03515625,-0.0546875,-0.3125,0.5625,0.15625
519,519,1727897718629,-0.99316406,-0.060546875,-0.046875,0.03125,0.4375,-0.1875
520,520,1727897718669,-1.0009766,-0.038085938,-0.051757812,-0.03125,0.40625,-0.125
521,521,1727897718709,-1.0048828,-0.06542969,-0.045898438,0.03125,1.125,0.28125
522,522,1727897718749,-0.99902344,-0.057617188,-0.056640625,0.03125,1.1875,-0.0625
523,523,1727897718789,-1.0078125,-0.045898438,-0.07421875,-0.15625,-0.09375,0.0
524,524,1727897718829,-0.99902344,-0.05078125,-0.06542969,-0.25,0.03125,-0.1875
525,525,1727897718869,-1.0,-0.04296875,-0.0625,0.21875,0.9375,0.09375
526,526,1727897718909,-0.9970703,-0.047851562,-0.04296875,0.53125,0.625,-0.0625
527,527,1727897718949,-1.015625,-0.0546875,-0.051757812,-0.875,0.625,0.0
528,528,1727897718989,-1.0048828,-0.059570312,-0.052734375,-0.5,-0.03125,0.09375
529,529,1727897719029,-0.9921875,-0.057617188,-0.0625,0.34375,0.5625,-0.0625
530,530,1727897719069,-1.0126953,-0.043945312,-0.056640625,-0.15625,0.9375,0.0625
531,531,1727897719109,-1.0009766,-0.055664062,-0.043945312,1.1875,-0.15625,0.0625
532,532,1727897719149,-0.99121094,-0.052734375,-0.056640625,0.40625,0.34375,0.0
533,533,1727897719189,-1.0058594,-0.0390625,-0.061523438,-0.8125,0.34375,0.15625
534,534,1727897719229,-1.0078125,-0.047851562,-0.0546875,0.28125,0.03125,0.0
535,535,1727897719269,-0.99609375,-0.0546875,-0.078125,0.59375,0.09375,-0.0625
536,536,1727897719309,-0.9970703,-0.047851562,-0.055664062,-0.03125,0.28125,0.0625
537,537,1727897719349,-0.9980469,-0.061523438,-0.06347656,-0.4375,0.15625,0.0625
538,538,1727897719389,-1.0009766,-0.05078125,-0.0546875,0.15625,-0.40625,-0.1875
539,539,1727897719429,-1.0117188,-0.0546875,-0.059570312,0.90625,0.09375,0.09375
540,540,1727897719469,-1.0058594,-0.04296875,-0.060546875,-0.09375,0.625,0.15625
541,541,1727897719509,-1.0048828,-0.059570312,-0.06933594,0.96875,0.4375,0.0
542,542,1727897719549,-1.0009766,-0.037109375,-0.0546875,-0.15625,-0.09375,0.09375
543,543,1727897719589,-0.9970703,-0.0546875,-0.059570312,0.15625,0.5625,0.0625
544,544,1727897719629,-1.0019531,-0.045898438,-0.0546875,-0.625,0.15625,0.0625
545,545,1727897719669,-0.9970703,-0.05078125,-0.064453125,0.03125,-0.21875,-0.0625
546,546,1727897719709,-0.9951172,-0.0390625,-0.06738281,-0.5,0.09375,-0.0625
547,547,1727897719749,-0.99316406,-0.0546875,-0.0546875,0.21875,0.09375,0.0
548,548,1727897719789,-1.0117188,-0.049804688,-0.051757812,-0.03125,-0.03125,-0.0625
549,549,1727897719829,-0.99121094,-0.052734375,-0.055664062,0.09375,0.09375,-0.0625
550,550,1727897719869,-1.0107422,-0.057617188,-0.0546875,-0.3125,0.21875,0.09375
551,551,1727897719909,-1.0058594,-0.05078125,-0.064453125,-0.25,-0.28125,-0.125
552,552,1727897719949,-1.0009766,-0.053710938,-0.068359375,0.59375,0.09375,-0.125
553,553,1727897719989,-0.9980469,-0.045898438,-0.056640625,-0.03125,-0.40625,0.09375
554,554,1727897720029,-0.9941406,-0.046875,-0.064453125,-0.09375,-0.65625,-0.3125
555,555,1727897720069,-1.0058594,-0.053710938,-0.046875,-0.25,-0.21875,-0.1875
556,556,1727897720109,-0.9921875,-0.048828125,-0.064453125,0.59375,-0.53125,0.0625
557,557,1727897720149,-0.9941406,-0.057617188,-0.064453125,1.25,-0.46875,-0.1875
558,558,1727897720189,-0.99316406,-0.036132812,-0.06542969,0.15625,-0.53125,-0.0625
559,559,1727897720229,-1.0039062,-0.055664062,-0.048828125,0.28125,-0.46875,0.0625
560,560,1727897720269,-1.0068359,-0.044921875,-0.056640625,0.53125,-0.46875,0.0625
561,561,1727897720309,-0.99902344,-0.0546875,-0.051757812,0.15625,-0.34375,-0.0625
562,562,1727897720349,-1.0029297,-0.05078125,-0.045898438,-0.25,-0.34375,0.0625
563,563,1727897720389,-1.0039062,-0.06640625,-0.055664062,0.46875,-0.59375,0.0
564,564,1727897720429,-1.0019531,-0.043945312,-0.041015625,0.21875,-0.21875,-0.25
565,565,1727897720469,-0.99902344,-0.046875,-0.045898438,0.03125,-0.15625,0.21875
566,566,1727897720509,-1.0078125,-0.049804688,-0.052734375,0.03125,-0.21875,-0.1875
567,567,1727897720549,-1.0039062,-0.056640625,-0.051757812,0.34375,-0.46875,0.0
568,568,1727897720589,-0.99902344,-0.051757812,-0.056640625,0.09375,-0.03125,-0.25
569,569,1727897720629,-1.0,-0.044921875,-0.056640625,0.21875,-0.21875,-0.0625
570,570,1727897720669,-1.0039062,-0.055664062,-0.043945312,-0.15625,-0.34375,-0.125
571,571,1727897720709,-1.0009766,-0.05859375,-0.052734375,-0.4375,0.28125,-0.125
572,572,1727897720749,-1.0039062,-0.05859375,-0.046875,1.03125,-0.15625,0.0
573,573,1727897720789,-1.0126953,-0.055664062,-0.06542969,0.40625,-0.09375,-0.25
574,574,1727897720829,-1.0039062,-0.059570312,-0.041015625,0.53125,0.5,0.15625
575,575,1727897720869,-0.9970703,-0.056640625,-0.051757812,-0.15625,0.03125,0.0
576,576,1727897720909,-1.0019531,-0.045898438,-0.045898438,0.21875,-0.09375,0.0625
577,577,1727897720949,-0.9892578,-0.048828125,-0.061523438,-0.625,-0.21875,-0.0625
578,578,1727897720989,-0.9980469,-0.048828125,-0.041015625,0.46875,-0.21875,-0.0625
579,579,1727897721029,-1.0068359,-0.040039062,-0.0625,0.03125,-0.59375,-0.125
580,580,1727897721069,-0.9980469,-0.060546875,-0.0390625,-0.25,0.34375,0.0625
581,581,1727897721109,-1.0009766,-0.053710938,-0.041015625,1.125,0.09375,0.0
582,582,1727897721149,-1.0107422,-0.048828125,-0.051757812,0.15625,0.4375,0.15625
583,583,1727897721189,-0.9951172,-0.049804688,-0.048828125,-0.03125,0.09375,-0.0625
584,584,1727897721229,-0.9970703,-0.0625,-0.055664062,0.84375,-0.15625,0.0625
585,585,1727897721269,-1.0087891,-0.041015625,-0.076171875,0.03125,0.28125,0.0625
586,586,1727897721309,-1.0029297,-0.043945312,-0.047851562,-0.03125,0.21875,-0.0625
587,587,1727897721349,-0.99902344,-0.0546875,-0.038085938,-0.4375,-0.09375,0.0
588,588,1727897721389,-0.9970703,-0.05859375,-0.049804688,0.21875,0.34375,-0.125
589,589,1727897721429,-1.0009766,-0.051757812,-0.040039062,-0.25,0.21875,0.0
590,590,1727897721469,-1.0039062,-0.047851562,-0.045898438,0.21875,0.21875,0.09375
591,591,1727897721509,-1.0039062,-0.05859375,-0.061523438,-0.75,0.21875,0.0
592,592,1727897721549,-1.0029297,-0.06347656,-0.052734375,0.46875,0.28125,0.0625
593,593,1727897721589,-1.0009766,-0.055664062,-0.046875,0.09375,0.375,0.125
594,594,1727897721629,-1.0029297,-0.048828125,-0.046875,-0.28125,0.5625,0.125
595,595,1727897721669,-1.0009766,-0.052734375,-0.047851562,-0.21875,0.3125,0.125
596,596,1727897721709,-0.9951172,-0.049804688,-0.047851562,0.15625,0.3125,0.0
597,597,1727897721749,-1.0,-0.057617188,-0.061523438,-0.84375,0.375,0.0
598,598,1727897721789,-1.0,-0.0546875,-0.053710938,0.375,0.09375,0.0625
599,599,1727897721829,-1.0019531,-0.053710938,-0.061523438,-0.34375,0.15625,0.0
600,600,1727897721869,-1.0039062,-0.043945312,-0.057617188,-0.28125,0.25,0.0
601,601,1727897721909,-1.0009766,-0.059570312,-0.06347656,-0.65625,0.21875,0.0
602,602,1727897721949,-1.0029297,-0.05078125,-0.041992188,0.375,0.21875,0.0625
603,603,1727897721989,-1.0009766,-0.060546875,-0.057617188,0.21875,0.375,0.25
604,604,1727897722029,-1.0009766,-0.045898438,-0.056640625,0.21875,-0.09375,-0.0625
605,605,1727897722069,-1.0048828,-0.048828125,-0.0390625,0.03125,0.25,0.1875
606,606,1727897722109,-1.0,-0.049804688,-0.051757812,-0.15625,0.09375,0.1875
607,607,1727897722149,-1.0019531,-0.057617188,-0.0546875,0.25,0.09375,0.0625
608,608,1727897722189,-1.0029297,-0.049804688,-0.04296875,-0.46875,0.3125,0.1875
609,609,1727897722229,-1.0039062,-0.0546875,-0.0546875,-0.71875,0.03125,0.0
610,610,1727897722269,-0.99609375,-0.051757812,-0.043945312,-0.09375,-0.15625,0.0625
611,611,1727897722309,-1.0019531,-0.061523438,-0.046875,0.25,0.4375,0.125
612,612,1727897722349,-0.9980469,-0.0390625,-0.057617188,-1.03125,0.3125,-0.0625
613,613,1727897722389,-0.99902344,-0.049804688,-0.060546875,-0.21875,-0.09375,-0.0625
614,614,1727897722429,-1.0009766,-0.057617188,-0.043945312,-0.59375,0.03125,0.0625
615,615,1727897722469,-0.99902344,-0.051757812,-0.057617188,0.21875,0.03125,0.125
616,616,1727897722509,-0.9980469,-0.052734375,-0.04296875,0.6875,0.625,0.25
617,617,1727897722549,-1.0097656,-0.04296875,-0.06738281,-1.0625,0.15625,0.0625
618,618,1727897722589,-1.0068359,-0.04296875,-0.0546875,0.375,-0.34375,0.0625
619,619,1727897722629,-1.0009766,-0.051757812,-0.061523438,-0.59375,0.5625,0.1875
620,620,1727897722669,-1.0068359,-0.052734375,-0.064453125,0.03125,0.09375,0.0625
621,621,1727897722709,-0.99902344,-0.049804688,-0.06542969,0.375,0.15625,0.125
622,622,1727897722749,-0.9970703,-0.051757812,-0.059570312,-0.90625,0.3125,0.0
623,623,1727897722789,-1.0058594,-0.064453125,-0.048828125,0.3125,0.25,0.25
624,624,1727897722829,-0.99902344,-0.05078125,-0.047851562,-0.03125,0.25,0.1875
625,625,1727897722869,-0.9970703,-0.0390625,-0.0390625,-0.03125,0.09375,0.0625
626,626,1727897722909,-1.0126953,-0.0546875,-0.0625,-0.15625,0.5,0.125
627,627,1727897722949,-1.0009766,-0.046875,-0.047851562,0.15625,-0.28125,0.0625
628,628,1727897722989,-0.9980469,-0.053710938,-0.060546875,0.09375,-0.09375,0.1875
629,629,1727897723029,-1.0087891,-0.049804688,-0.055664062,-1.125,0.3125,0.25
630,630,1727897723069,-1.0078125,-0.043945312,-0.061523438,0.375,-0.34375,0.0
631,631,1727897723109,-0.9970703,-0.049804688,-0.060546875,-0.53125,-0.40625,0.0625
632,632,1727897723149,-0.99609375,-0.045898438,-0.052734375,-0.03125,-0.03125,0.1875
633,633,1727897723189,-1.0048828,-0.057617188,-0.036132812,-0.46875,0.03125,0.0625
634,634,1727897723229,-0.9970703,-0.047851562,-0.047851562,0.3125,-0.46875,0.125
635,635,1727897723269,-0.9951172,-0.048828125,-0.060546875,-0.59375,-0.21875,0.1875
636,636,1727897723309,-0.99902344,-0.053710938,-0.053710938,0.3125,-0.21875,0.0625
637,637,1727897723349,-1.0019531,-0.0546875,-0.060546875,0.03125,0.03125,0.0625
638,638,1727897723389,-1.0039062,-0.047851562,-0.052734375,-0.09375,-0.21875,0.3125
639,639,1727897723429,-0.9863281,-0.044921875,-0.046875,0.375,-0.53125,-0.0625
640,640,1727897723469,-1.0097656,-0.05078125,-0.044921875,-0.34375,0.25,0.0625
641,641,1727897723509,-1.0048828,-0.049804688,-0.0546875,0.6875,-0.40625,0.0625
642,642,1727897723549,-1.0039062,-0.059570312,-0.055664062,-0.09375,0.03125,0.0625
643,643,1727897723589,-1.0009766,-0.047851562,-0.056640625,-0.21875,-0.03125,0.0625
644,644,1727897723629,-0.9980469,-0.049804688,-0.048828125,0.3125,-0.53125,0.1875
645,645,1727897723669,-1.0048828,-0.056640625,-0.052734375,-0.65625,-0.09375,0.0
646,646,1727897723709,-1.0068359,-0.046875,-0.038085938,0.09375,0.25,0.125
647,647,1727897723749,-1.0039062,-0.043945312,-0.060546875,0.21875,-0.15625,0.1875
648,648,1727897723789,-1.0048828,-0.04296875,-0.052734375,0.21875,-0.28125,-0.125
649,649,1727897723829,-0.9921875,-0.046875,-0.044921875,-0.34375,-0.03125,0.0625
650,650,1727897723869,-1.0009766,-0.059570312,-0.036132812,-0.53125,-0.09375,0.125
651,651,1727897723909,-0.9970703,-0.057617188,-0.041015625,-0.46875,-0.09375,-0.125
652,652,1727897723949,-1.0009766,-0.055664062,-0.07324219,-0.65625,-0.15625,0.0
653,653,1727897723989,-1.0058594,-0.038085938,-0.041992188,0.5,0.03125,0.0
654,654,1727897724029,-1.0117188,-0.049804688,-0.05078125,0.15625,-0.09375,0.0625
655,655,1727897724069,-1.0136719,-0.051757812,-0.041992188,-0.03125,-0.21875,0.0625
656,656,1727897724109,-1.0048828,-0.051757812,-0.043945312,-0.40625,-0.15625,0.0625
657,657,1727897724149,-1.0029297,-0.051757812,-0.034179688,0.09375,-0.15625,-0.0625
658,658,1727897724189,-0.99902344,-0.05078125,-0.061523438,-0.03125,0.09375,0.0
659,659,1727897724229,-1.0146484,-0.0625,-0.049804688,0.5,-0.21875,-0.09375
660,660,1727897724269,-1.0039062,-0.055664062,-0.045898438,0.21875,0.28125,-0.03125
661,661,1727897724309,-1.0039062,-0.04296875,-0.038085938,-0.03125,0.03125,-0.09375
662,662,1727897724349,-0.99902344,-0.05078125,-0.0625,0.3125,0.3125,-0.15625
663,663,1727897724389,-1.0048828,-0.053710938,-0.04296875,-0.53125,0.21875,0.03125
664,664,1727897724429,-0.9941406,-0.055664062,-0.036132812,0.625,-0.46875,-0.15625
665,665,1727897724469,-1.0,-0.05859375,-0.0546875,-0.84375,0.21875,-0.03125
666,666,1727897724509,-1.0,-0.052734375,-0.056640625,-0.03125,0.03125,-0.09375
667,667,1727897724549,-1.0,-0.046875,-0.053710938,0.8125,0.3125,0.09375
668,668,1727897724589,-1.0,-0.056640625,-0.048828125,-0.03125,0.15625,0.09375
669,669,1727897724629,-1.0068359,-0.05078125,-0.072265625,-0.21875,-0.15625,-0.15625
670,670,1727897724669,-1.0,-0.05078125,-0.07128906,0.09375,0.28125,0.03125
671,671,1727897724709,-0.9980469,-0.059570312,-0.05078125,0.3125,0.09375,0.09375
672,672,1727897724749,-0.9970703,-0.051757812,-0.037109375,0.25,0.03125,-0.09375
673,673,1727897724789,-1.0058594,-0.060546875,-0.040039062,-0.65625,0.4375,-0.03125
674,674,1727897724829,-1.0039062,-0.048828125,-0.055664062,0.3125,-0.03125,-0.03125
675,675,1727897724869,-0.99121094,-0.057617188,-0.045898438,-0.03125,0.375,-0.15625
676,676,1727897724909,-1.0029297,-0.05078125,-0.043945312,-0.03125,-0.15625,0.15625
677,677,1727897724949,-0.99316406,-0.055664062,-0.0546875,0.15625,0.21875,-0.15625
678,678,1727897724989,-1.0087891,-0.041992188,-0.0390625,-0.03125,0.03125,0.03125
679,679,1727897725029,-1.0048828,-0.064453125,-0.049804688,0.21875,0.21875,0.09375
680,680,1727897725069,-1.0039062,-0.055664062,-0.05078125,0.09375,0.375,0.03125
681,681,1727897725109,-1.0117188,-0.045898438,-0.059570312,-0.03125,0.03125,-0.09375
682,682,1727897725149,-1.0,-0.049804688,-0.052734375,-0.15625,0.09375,-0.15625
683,683,1727897725189,-0.99609375,-0.048828125,-0.05078125,0.03125,0.5,0.15625
684,684,1727897725229,-1.0126953,-0.045898438,-0.048828125,-0.34375,0.09375,-0.03125
685,685,1727897725269,-1.0009766,-0.060546875,-0.061523438,0.25,0.15625,0.15625
686,686,1727897725309,-1.0087891,-0.053710938,-0.05078125,-0.96875,0.375,0.03125
687,687,1727897725349,-1.0,-0.0390625,-0.041015625,0.3125,0.21875,-0.09375
688,688,1727897725389,-1.0048828,-0.05078125,-0.041015625,-0.59375,0.625,-0.03125
689,689,1727897725429,-1.0058594,-0.0546875,-0.060546875,0.6875,-0.09375,-0.03125
690,690,1727897725469,-0.9970703,-0.044921875,-0.0546875,-0.46875,0.8125,0.15625
691,691,1727897725509,-1.0087891,-0.048828125,-0.047851562,0.03125,0.375,-0.03125
692,692,1727897725549,-1.0029297,-0.049804688,-0.057617188,-0.03125,0.4375,-0.03125
693,693,1727897725589,-0.9980469,-0.052734375,-0.056640625,0.25,-0.03125,0.09375
694,694,1727897725629,-0.99609375,-0.05859375,-0.052734375,-0.03125,0.5,-0.09375
695,695,1727897725669,-0.9970703,-0.04296875,-0.057617188,-0.28125,0.4375,0.03125
696,696,1727897725709,-0.9951172,-0.0546875,-0.056640625,0.15625,0.5,0.03125
697,697,1727897725749,-1.0048828,-0.05078125,-0.051757812,-0.21875,0.4375,0.03125
698,698,1727897725789,-0.99902344,-0.047851562,-0.038085938,0.03125,0.5,0.09375
699,699,1727897725829,-0.9902344,-0.043945312,-0.053710938,0.4375,0.375,-0.03125
700,700,1727897725869,-1.0078125,-0.057617188,-0.056640625,0.03125,0.5,0.03125
701,701,1727897725909,-0.9980469,-0.057617188,-0.064453125,-0.53125,0.625,-0.03125
702,702,1727897725949,-0.9980469,-0.053710938,-0.047851562,0.03125,0.28125,-0.15625
703,703,1727897725989,-0.9921875,-0.038085938,-0.0546875,-0.03125,0.21875,-0.09375
704,704,1727897726029,-1.0,-0.0625,-0.059570312,0.09375,0.5,0.03125
705,705,1727897726069,-1.0078125,-0.0546875,-0.052734375,-0.53125,0.9375,0.09375
706,706,1727897726109,-1.0058594,-0.047851562,-0.05078125,-0.28125,0.375,0.09375
707,707,1727897726149,-0.9921875,-0.05859375,-0.045898438,0.25,0.3125,0.15625
708,708,1727897726189,-1.0078125,-0.043945312,-0.049804688,-0.21875,1.0,0.03125
709,709,1727897726229,-1.0058594,-0.048828125,-0.060546875,0.375,0.6875,0.09375
710,710,1727897726269,-0.98339844,-0.05078125,-0.06542969,-0.15625,0.21875,-0.03125
711,711,1727897726309,-1.0,-0.05078125,-0.051757812,-0.28125,0.5,-0.03125
712,712,1727897726349,-0.99902344,-0.052734375,-0.046875,-0.28125,1.0625,0.09375
713,713,1727897726389,-1.0019531,-0.044921875,-0.046875,-0.46875,0.21875,-0.09375
714,714,1727897726429,-1.0009766,-0.061523438,-0.045898438,-0.40625,0.5,-0.21875
715,715,1727897726469,-1.0068359,-0.056640625,-0.0703125,0.09375,0.8125,0.03125
716,716,1727897726509,-1.0048828,-0.0625,-0.037109375,0.03125,0.9375,0.15625
717,717,1727897726549,-0.99902344,-0.05078125,-0.06933594,0.3125,0.4375,-0.03125
718,718,1727897726589,-0.99609375,-0.055664062,-0.052734375,0.5625,0.75,0.03125
719,719,1727897726629,-0.9980469,-0.056640625,-0.057617188,-0.71875,0.6875,0.09375
720,720,1727897726669,-1.0078125,-0.061523438,-0.06542969,0.5625,0.09375,-0.03125
721,721,1727897726709,-0.9970703,-0.046875,-0.051757812,-0.40625,0.625,0.09375
722,722,1727897726749,-1.0009766,-0.041992188,-0.06933594,0.3125,0.75,0.15625
723,723,1727897726789,-0.99902344,-0.040039062,-0.047851562,-0.03125,-0.03125,-0.15625
724,724,1727897726829,-0.9902344,-0.057617188,-0.044921875,0.03125,-0.09375,-0.09375
725,725,1727897726869,-1.0048828,-0.055664062,-0.07128906,-0.03125,0.375,0.09375
726,726,1727897726909,-1.0058594,-0.056640625,-0.068359375,0.03125,0.8125,0.15625
727,727,1727897726949,-1.0009766,-0.053710938,-0.056640625,-0.15625,0.5,0.03125
728,728,1727897726989,-0.9970703,-0.053710938,-0.046875,-0.03125,0.09375,0.03125
729,729,1727897727029,-0.9951172,-0.047851562,-0.044921875,-0.71875,0.03125,-0.03125
730,730,1727897727069,-1.0,-0.056640625,-0.046875,0.625,-0.15625,-0.03125
731,731,1727897727109,-1.0019531,-0.05078125,-0.06640625,1.0625,0.15625,-0.15625
732,732,1727897727149,-0.99316406,-0.04296875,-0.076171875,-0.15625,0.28125,0.03125
733,733,1727897727189,-1.0009766,-0.0546875,-0.057617188,-0.21875,0.15625,0.09375
734,734,1727897727229,-1.0039062,-0.047851562,-0.059570312,0.15625,0.15625,-0.21875
735,735,1727897727269,-1.0,-0.05859375,-0.055664062,-0.28125,0.28125,-0.03125
736,736,1727897727309,-1.0039062,-0.047851562,-0.04296875,-0.03125,-0.53125,-0.15625
737,737,1727897727349,-1.0,-0.053710938,-0.048828125,0.03125,-0.15625,-0.09375
738,738,1727897727389,-1.0048828,-0.048828125,-0.0546875,-0.21875,-0.28125,-0.15625
739,739,1727897727429,-1.0039062,-0.049804688,-0.06542969,0.375,0.3125,-0.09375
740,740,1727897727469,-0.9980469,-0.057617188,-0.060546875,-0.34375,0.5,0.15625
741,741,1727897727509,-1.0029297,-0.047851562,-0.056640625,-0.09375,-0.15625,0.03125
742,742,1727897727549,-1.0039062,-0.051757812,-0.061523438,-0.78125,0.21875,-0.03125
743,743,1727897727589,-1.0058594,-0.0546875,-0.052734375,0.875,0.28125,-0.15625
744,744,1727897727629,-0.9980469,-0.043945312,-0.060546875,-0.03125,0.21875,0.09375
745,745,1727897727669,-0.99609375,-0.049804688,-0.057617188,0.15625,-0.09375,0.21875
746,746,1727897727709,-0.9941406,-0.052734375,-0.055664062,-0.21875,-0.03125,-0.09375
747,747,1727897727749,-1.0029297,-0.056640625,-0.045898438,-0.34375,0.09375,-0.03125
748,748,1727897727789,-0.99902344,-0.051757812,-0.056640625,0.875,-0.21875,-0.03125
749,749,1727897727829,-1.0,-0.047851562,-0.048828125,-0.53125,0.15625,-0.09375
750,750,1727897727869,-1.0029297,-0.059570312,-0.041015625,-0.15625,-0.21875,0.03125
751,751,1727897727909,-0.9980469,-0.06640625,-0.059570312,0.15625,-0.15625,0.03125
752,752,1727897727949,-1.0048828,-0.038085938,-0.059570312,-0.03125,0.15625,0.09375
753,753,1727897727989,-0.9980469,-0.049804688,-0.055664062,-0.40625,0.28125,0.21875
754,754,1727897728029,-0.9980469,-0.036132812,-0.06542969,0.15625,-0.46875,-0.15625
755,755,1727897728069,-1.0039062,-0.060546875,-0.064453125,0.75,-0.28125,-0.09375
756,756,1727897728109,-0.99609375,-0.0546875,-0.057617188,-0.15625,0.15625,0.03125
757,757,1727897728149,-0.99121094,-0.043945312,-0.06640625,0.03125,-0.15625,0.09375
758,758,1727897728189,-1.0009766,-0.048828125,-0.044921875,-0.34375,-0.09375,-0.09375
759,759,1727897728229,-0.9951172,-0.059570312,-0.05078125,-0.46875,-0.21875,-0.09375
