,Unnamed: 0,timestamp,accel_x,accel_y,accel_z,gyro_x,gyro_y,gyro_z
0,0,1727996272818,-0.49902344,-0.84765625,0.12890625,0.71875,-0.65625,-0.28125
1,1,1727996272858,-0.49121094,-0.84765625,0.12011719,0.59375,-0.59375,-0.09375
2,2,1727996272898,-0.49023438,-0.84375,0.123046875,0.34375,-0.53125,-0.03125
3,3,1727996272938,-0.49414062,-0.8535156,0.11816406,0.0625,-0.46875,-0.03125
4,4,1727996272978,-0.49023438,-0.8574219,0.12597656,0.0,-0.28125,-0.34375
5,5,1727996273018,-0.5,-0.85546875,0.1171875,0.15625,-0.28125,-0.40625
6,6,1727996273058,-0.49121094,-0.8496094,0.119140625,0.34375,-0.28125,-0.28125
7,7,1727996273098,-0.49023438,-0.8544922,0.12109375,0.46875,-0.59375,-0.21875
8,8,1727996273138,-0.49121094,-0.8486328,0.12109375,0.46875,-0.40625,-0.34375
9,9,1727996273178,-0.49023438,-0.85253906,0.12695312,-0.125,-0.09375,-0.40625
10,10,1727996273218,-0.4873047,-0.8496094,0.12011719,-0.1875,0.09375,-0.6875
11,11,1727996273258,-0.4892578,-0.8486328,0.123046875,-0.5,0.28125,-0.75
12,12,1727996273298,-0.4873047,-0.8457031,0.11816406,-0.5625,0.34375,-0.75
13,13,1727996273338,-0.4892578,-0.84765625,0.123046875,-0.625,0.15625,-1.0
14,14,1727996273378,-0.4892578,-0.8613281,0.12402344,-0.1875,0.09375,-1.0
15,15,1727996273418,-0.49023438,-0.84375,0.12207031,0.0625,-0.09375,-1.1875
16,16,1727996273458,-0.48632812,-0.85546875,0.12597656,0.34375,-0.03125,-1.25
17,17,1727996273498,-0.48828125,-0.85253906,0.13183594,0.65625,-0.21875,-1.3125
18,18,1727996273538,-0.49121094,-0.85058594,0.119140625,0.53125,-0.40625,-1.25
19,19,1727996273578,-0.48828125,-0.84472656,0.12597656,0.125,-0.09375,-1.125
20,20,1727996273618,-0.48339844,-0.85546875,0.115234375,0.0625,-0.21875,-1.0625
21,21,1727996273658,-0.4794922,-0.85058594,0.125,-0.125,-0.28125,-1.125
22,22,1727996273698,-0.4892578,-0.8574219,0.11621094,-0.1875,-0.15625,-1.0625
23,23,1727996273738,-0.4873047,-0.8564453,0.12109375,-0.625,-0.03125,-1.125
24,24,1727996273778,-0.48632812,-0.85839844,0.10839844,-0.75,0.15625,-1.0625
25,25,1727996273818,-0.4794922,-0.8642578,0.125,-0.875,0.21875,-0.8125
26,26,1727996273858,-0.484375,-0.85058594,0.12109375,-0.9375,-0.15625,-0.59375
27,27,1727996273898,-0.4814453,-0.8564453,0.13085938,-0.6875,-0.09375,-0.46875
28,28,1727996273938,-0.49121094,-0.86035156,0.12109375,-0.6875,-0.03125,-0.03125
29,29,1727996273978,-0.484375,-0.86035156,0.12011719,-0.25,-0.21875,-0.09375
30,30,1727996274018,-0.4814453,-0.8515625,0.12109375,0.0,-0.28125,0.28125
31,31,1727996274058,-0.47753906,-0.8544922,0.1171875,0.15625,-0.21875,0.46875
32,32,1727996274098,-0.484375,-0.8574219,0.125,0.125,-0.34375,0.34375
33,33,1727996274138,-0.48242188,-0.859375,0.12207031,0.0,-0.15625,0.34375
34,34,1727996274178,-0.4873047,-0.8623047,0.119140625,0.46875,-0.34375,0.03125
35,35,1727996274218,-0.48339844,-0.8544922,0.12011719,0.34375,-0.46875,0.15625
36,36,1727996274258,-0.484375,-0.84472656,0.13671875,0.53125,-0.40625,0.09375
37,37,1727996274298,-0.48046875,-0.8691406,0.11328125,0.21875,-0.28125,0.21875
38,38,1727996274338,-0.48339844,-0.8486328,0.123046875,-0.0625,-0.09375,0.40625
39,39,1727996274378,-0.4873047,-0.8564453,0.125,0.0,-0.03125,0.15625
40,40,1727996274418,-0.48828125,-0.85839844,0.12011719,-0.1875,-0.03125,0.09375
41,41,1727996274458,-0.4970703,-0.8515625,0.123046875,-0.0625,-0.03125,-0.03125
42,42,1727996274498,-0.48828125,-0.86035156,0.12890625,0.0,-0.21875,-0.21875
43,43,1727996274538,-0.484375,-0.85546875,0.12890625,-0.0625,0.03125,-0.21875
44,44,1727996274578,-0.48632812,-0.8613281,0.11621094,0.0,-0.21875,-0.40625
45,45,1727996274618,-0.48828125,-0.8564453,0.11621094,0.0,-0.15625,-0.40625
46,46,1727996274658,-0.49804688,-0.8515625,0.12207031,0.0,-0.21875,-0.40625
47,47,1727996274698,-0.4765625,-0.84765625,0.1171875,0.0625,0.09375,-0.40625
48,48,1727996274738,-0.48242188,-0.8574219,0.12011719,0.0625,-0.03125,-0.28125
49,49,1727996274778,-0.4794922,-0.8535156,0.12597656,0.21875,-0.03125,-0.53125
50,50,1727996274818,-0.47851562,-0.8535156,0.123046875,0.125,-0.21875,-0.34375
51,51,1727996274858,-0.48535156,-0.8564453,0.12109375,-0.0625,-0.09375,-0.28125
52,52,1727996274898,-0.48535156,-0.8574219,0.13085938,-0.3125,0.15625,-0.03125
53,53,1727996274938,-0.47753906,-0.8544922,0.12597656,-0.5,0.21875,-0.15625
54,54,1727996274978,-0.484375,-0.859375,0.11230469,-0.4375,0.34375,-0.34375
55,55,1727996275018,-0.4873047,-0.85839844,0.12402344,-0.1875,0.28125,-0.28125
56,56,1727996275058,-0.47753906,-0.8613281,0.10449219,-0.25,0.28125,-0.28125
57,57,1727996275098,-0.4765625,-0.85253906,0.11425781,0.0,0.28125,0.03125
58,58,1727996275138,-0.484375,-0.8574219,0.111328125,-0.0625,0.03125,0.21875
59,59,1727996275178,-0.48046875,-0.8613281,0.12792969,0.0,0.03125,0.28125
60,60,1727996275218,-0.48046875,-0.86328125,0.12207031,0.125,0.09375,0.21875
61,61,1727996275258,-0.49023438,-0.85839844,0.11425781,0.21875,0.09375,0.28125
62,62,1727996275298,-0.48828125,-0.85058594,0.12402344,0.15625,0.03125,0.09375
63,63,1727996275338,-0.484375,-0.8544922,0.140625,0.0625,0.09375,0.21875
64,64,1727996275378,-0.48632812,-0.85839844,0.12402344,0.0,0.15625,0.09375
65,65,1727996275418,-0.48828125,-0.859375,0.12207031,0.15625,0.09375,0.09375
66,66,1727996275458,-0.48535156,-0.85546875,0.12207031,-0.0625,-0.03125,0.03125
67,67,1727996275498,-0.484375,-0.859375,0.11035156,-0.0625,-0.09375,0.15625
68,68,1727996275538,-0.48339844,-0.85839844,0.12402344,0.15625,0.15625,0.15625
69,69,1727996275578,-0.49023438,-0.859375,0.115234375,0.15625,-0.03125,0.21875
70,70,1727996275618,-0.47558594,-0.85058594,0.13378906,0.28125,-0.15625,0.09375
71,71,1727996275658,-0.4794922,-0.8515625,0.12011719,0.21875,-0.15625,0.28125
72,72,1727996275698,-0.4873047,-0.85546875,0.12109375,0.15625,0.21875,0.34375
73,73,1727996275738,-0.4892578,-0.8564453,0.13476562,-0.1875,0.15625,0.21875
74,74,1727996275778,-0.48632812,-0.8623047,0.12792969,-0.125,0.09375,-0.03125
75,75,1727996275818,-0.49121094,-0.8515625,0.12011719,-0.0625,0.21875,-0.03125
76,76,1727996275858,-0.48339844,-0.85058594,0.12695312,-0.125,0.09375,0.03125
77,77,1727996275898,-0.49414062,-0.8544922,0.13183594,-0.1875,0.21875,-0.09375
78,78,1727996275938,-0.48046875,-0.8613281,0.12109375,-0.0625,0.09375,0.15625
79,79,1727996275978,-0.4873047,-0.8613281,0.115234375,0.0,0.09375,0.15625
80,80,1727996276018,-0.49023438,-0.85253906,0.125,-0.3125,0.28125,0.09375
81,81,1727996276058,-0.4892578,-0.8486328,0.11328125,-0.25,-0.03125,0.15625
82,82,1727996276098,-0.49609375,-0.85058594,0.10546875,-0.0625,0.03125,0.03125
83,83,1727996276138,-0.49121094,-0.8564453,0.12011719,-0.3125,0.03125,0.09375
84,84,1727996276178,-0.4873047,-0.85546875,0.125,-0.1875,0.15625,-0.03125
85,85,1727996276218,-0.48535156,-0.85253906,0.12792969,-0.1875,0.28125,-0.03125
86,86,1727996276258,-0.484375,-0.85546875,0.12011719,-0.5,0.28125,0.03125
87,87,1727996276298,-0.49023438,-0.8535156,0.123046875,-0.0625,0.28125,0.09375
88,88,1727996276338,-0.4970703,-0.8486328,0.11621094,-0.125,0.4375,0.15625
89,89,1727996276378,-0.484375,-0.8623047,0.12792969,0.0,0.15625,0.28125
90,90,1727996276418,-0.484375,-0.8535156,0.12011719,-0.125,-0.03125,0.34375
91,91,1727996276458,-0.48828125,-0.8613281,0.11816406,-0.1875,0.34375,0.34375
92,92,1727996276498,-0.48632812,-0.8496094,0.12695312,-0.125,0.15625,0.21875
93,93,1727996276538,-0.4951172,-0.8544922,0.11230469,0.0,0.15625,-0.03125
94,94,1727996276578,-0.48535156,-0.86035156,0.1171875,0.0625,0.09375,0.09375
95,95,1727996276618,-0.49609375,-0.8466797,0.12207031,0.0625,-0.15625,-0.03125
96,96,1727996276658,-0.48339844,-0.85253906,0.12109375,0.0625,0.03125,-0.15625
97,97,1727996276698,-0.4794922,-0.8544922,0.11425781,-0.0625,-0.09375,-0.03125
98,98,1727996276738,-0.4873047,-0.8535156,0.12597656,0.0625,0.03125,-0.03125
99,99,1727996276778,-0.48339844,-0.8574219,0.115234375,0.125,0.15625,0.09375
100,100,1727996276818,-0.48632812,-0.85839844,0.123046875,0.0625,0.03125,-0.03125
101,101,1727996276858,-0.4921875,-0.8535156,0.11816406,0.125,0.03125,-0.09375
102,102,1727996276898,-0.48632812,-0.8486328,0.125,-0.0625,-0.15625,-0.03125
103,103,1727996276938,-0.4794922,-0.8486328,0.12597656,-0.0625,-0.09375,-0.15625
104,104,1727996276978,-0.48632812,-0.8515625,0.109375,-0.0625,-0.28125,-0.15625
105,105,1727996277018,-0.48242188,-0.8515625,0.12011719,0.0,-0.21875,-0.15625
106,106,1727996277058,-0.4892578,-0.85839844,0.10644531,0.21875,-0.21875,-0.03125
107,107,1727996277098,-0.4794922,-0.8623047,0.11328125,0.28125,-0.34375,-0.15625
108,108,1727996277138,-0.48632812,-0.8535156,0.12207031,0.34375,-0.46875,-0.03125
109,109,1727996277178,-0.48828125,-0.8515625,0.12792969,0.21875,-0.40625,-0.09375
110,110,1727996277218,-0.4873047,-0.8535156,0.11328125,-0.0625,-0.21875,-0.21875
111,111,1727996277258,-0.49121094,-0.8544922,0.13183594,-0.09375,-0.125,-0.3125
112,112,1727996277298,-0.49316406,-0.85839844,0.12011719,-0.03125,0.0,-0.46875
113,113,1727996277338,-0.48535156,-0.8564453,0.11425781,-0.09375,-0.0625,-0.34375
114,114,1727996277378,-0.484375,-0.8564453,0.11425781,-0.03125,-0.125,-0.46875
115,115,1727996277418,-0.48828125,-0.85546875,0.1328125,0.03125,-0.34375,-0.25
116,116,1727996277458,-0.48242188,-0.85253906,0.11425781,0.3125,-0.53125,-0.3125
117,117,1727996277498,-0.484375,-0.85546875,0.12109375,0.1875,-0.1875,-0.1875
118,118,1727996277538,-0.484375,-0.86035156,0.13085938,0.1875,-0.1875,-0.1875
119,119,1727996277578,-0.484375,-0.8574219,0.123046875,-0.03125,-0.25,-0.1875
120,120,1727996277618,-0.48632812,-0.8574219,0.10546875,-0.21875,-0.25,-0.40625
121,121,1727996277658,-0.48828125,-0.85839844,0.11425781,-0.40625,-0.125,-0.40625
122,122,1727996277698,-0.484375,-0.85839844,0.115234375,-0.34375,-0.1875,-0.34375
123,123,1727996277738,-0.4873047,-0.8613281,0.13183594,-0.28125,0.0625,-0.3125
124,124,1727996277778,-0.4794922,-0.8613281,0.111328125,-0.21875,0.125,-0.34375
125,125,1727996277818,-0.4814453,-0.85546875,0.1328125,-0.15625,0.0625,-0.0625
126,126,1727996277858,-0.484375,-0.8564453,0.11621094,-0.09375,-0.25,-0.25
127,127,1727996277898,-0.49414062,-0.8515625,0.123046875,0.15625,-0.25,-0.1875
128,128,1727996277938,-0.484375,-0.8613281,0.12597656,0.1875,-0.34375,0.0625
129,129,1727996277978,-0.48535156,-0.859375,0.12011719,-0.03125,-0.25,-0.25
130,130,1727996278018,-0.484375,-0.8515625,0.13378906,-0.21875,-0.125,-0.25
131,131,1727996278058,-0.49121094,-0.8564453,0.12109375,0.03125,-0.0625,-0.40625
132,132,1727996278098,-0.48339844,-0.8496094,0.12890625,0.09375,-0.1875,-0.40625
133,133,1727996278138,-0.48828125,-0.8652344,0.12695312,0.3125,-0.34375,-0.25
134,134,1727996278178,-0.4814453,-0.85058594,0.12695312,0.5,-0.28125,-0.25
135,135,1727996278218,-0.48632812,-0.8457031,0.13183594,0.3125,-0.25,-0.0625
136,136,1727996278258,-0.49023438,-0.84472656,0.12695312,0.1875,-0.0625,-0.125
137,137,1727996278298,-0.48242188,-0.859375,0.115234375,-0.03125,-0.125,0.0
138,138,1727996278338,-0.48535156,-0.8544922,0.123046875,0.09375,-0.25,-0.25
139,139,1727996278378,-0.47851562,-0.8496094,0.123046875,0.15625,-0.25,-0.1875
140,140,1727996278418,-0.48046875,-0.8515625,0.12207031,0.1875,-0.34375,-0.25
141,141,1727996278458,-0.48046875,-0.8564453,0.12695312,0.25,-0.25,-0.34375
142,142,1727996278498,-0.48046875,-0.8515625,0.12988281,-0.15625,-0.125,-0.40625
143,143,1727996278538,-0.48535156,-0.859375,0.1171875,-0.21875,0.125,-0.25
144,144,1727996278578,-0.4765625,-0.8574219,0.11425781,-0.21875,0.25,-0.125
145,145,1727996278618,-0.484375,-0.859375,0.12207031,-0.15625,-0.125,-0.25
146,146,1727996278658,-0.47460938,-0.8544922,0.1171875,0.1875,-0.1875,-0.1875
147,147,1727996278698,-0.47851562,-0.8544922,0.13476562,0.1875,-0.28125,0.0
148,148,1727996278738,-0.48632812,-0.8642578,0.13671875,-0.09375,-0.125,-0.0625
149,149,1727996278778,-0.48046875,-0.8574219,0.10839844,-0.15625,-0.125,-0.1875
150,150,1727996278818,-0.4873047,-0.85839844,0.11621094,-0.15625,-0.125,-0.1875
151,151,1727996278858,-0.484375,-0.8564453,0.1328125,0.03125,-0.0625,-0.3125
152,152,1727996278898,-0.47753906,-0.8574219,0.140625,-0.03125,-0.0625,-0.3125
153,153,1727996278938,-0.484375,-0.8564453,0.13183594,0.09375,0.0,-0.1875
154,154,1727996278978,-0.49023438,-0.859375,0.12890625,0.03125,0.0,-0.125
155,155,1727996279018,-0.484375,-0.85546875,0.11621094,-0.03125,-0.25,0.0625
156,156,1727996279058,-0.4814453,-0.8564453,0.125,0.03125,-0.0625,0.0625
157,157,1727996279098,-0.4794922,-0.86035156,0.1171875,-0.03125,0.0625,-0.125
158,158,1727996279138,-0.48535156,-0.85546875,0.12597656,-0.09375,-0.0625,-0.0625
159,159,1727996279178,-0.48339844,-0.85839844,0.12695312,0.09375,-0.0625,-0.125
160,160,1727996279218,-0.47753906,-0.8564453,0.109375,0.09375,0.0,-0.0625
161,161,1727996279258,-0.48828125,-0.85546875,0.10839844,0.03125,-0.125,-0.0625
162,162,1727996279298,-0.4814453,-0.85253906,0.14160156,-0.03125,-0.1875,0.0
163,163,1727996279338,-0.48046875,-0.85058594,0.125,-0.09375,-0.1875,-0.125
164,164,1727996279378,-0.49121094,-0.8613281,0.12402344,-0.09375,0.1875,0.0625
165,165,1727996279418,-0.4873047,-0.86035156,0.11035156,0.03125,0.25,-0.0625
166,166,1727996279458,-0.48828125,-0.86035156,0.13574219,0.15625,0.0,-0.25
167,167,1727996279498,-0.4873047,-0.8564453,0.123046875,0.15625,-0.25,0.1875
168,168,1727996279538,-0.49414062,-0.8564453,0.12109375,0.09375,0.125,0.25
169,169,1727996279578,-0.49023438,-0.8515625,0.12695312,-0.03125,0.125,-0.125
170,170,1727996279618,-0.48828125,-0.8613281,0.14550781,-0.09375,0.125,-0.1875
171,171,1727996279658,-0.49121094,-0.85546875,0.12890625,0.03125,0.125,-0.0625
172,172,1727996279698,-0.4814453,-0.8486328,0.125,0.25,0.125,0.0
173,173,1727996279738,-0.4794922,-0.85546875,0.12402344,0.09375,0.0625,0.25
174,174,1727996279778,-0.48242188,-0.85839844,0.11816406,0.03125,0.125,0.1875
175,175,1727996279818,-0.4892578,-0.8564453,0.12109375,-0.03125,-0.0625,0.3125
176,176,1727996279858,-0.48339844,-0.8574219,0.13574219,0.03125,0.125,0.3125
177,177,1727996279898,-0.48828125,-0.8613281,0.12792969,0.09375,0.0625,0.3125
178,178,1727996279938,-0.4921875,-0.84765625,0.1171875,0.09375,0.1875,0.25
179,179,1727996279978,-0.48339844,-0.86035156,0.111328125,0.03125,0.0625,0.1875
180,180,1727996280018,-0.48828125,-0.8564453,0.12011719,0.03125,0.0,0.125
181,181,1727996280058,-0.48632812,-0.8535156,0.115234375,-0.03125,0.0625,0.0625
182,182,1727996280098,-0.4794922,-0.8574219,0.12890625,-0.15625,0.125,0.25
183,183,1727996280138,-0.4873047,-0.8564453,0.13183594,-0.28125,0.3125,0.125
184,184,1727996280178,-0.48828125,-0.85253906,0.12011719,-0.34375,0.375,0.25
185,185,1727996280218,-0.49023438,-0.85839844,0.12890625,0.03125,0.125,0.125
186,186,1727996280258,-0.48632812,-0.8544922,0.11425781,-0.03125,0.125,0.3125
187,187,1727996280298,-0.484375,-0.86035156,0.1328125,-0.09375,0.125,0.5625
188,188,1727996280338,-0.49121094,-0.8457031,0.12207031,-0.09375,0.25,0.125
189,189,1727996280378,-0.49023438,-0.85253906,0.123046875,-0.34375,0.3125,0.1875
190,190,1727996280418,-0.48339844,-0.8623047,0.12597656,-0.09375,0.0625,0.0
191,191,1727996280458,-0.49414062,-0.859375,0.12011719,0.03125,0.0625,0.0
192,192,1727996280498,-0.48535156,-0.86035156,0.10839844,-0.09375,0.0625,0.125
193,193,1727996280538,-0.4892578,-0.85546875,0.13378906,-0.03125,0.0625,0.0
194,194,1727996280578,-0.49902344,-0.85058594,0.12597656,-0.09375,0.125,0.25
195,195,1727996280618,-0.49414062,-0.85253906,0.1328125,-0.21875,-0.0625,0.125
196,196,1727996280658,-0.47558594,-0.85546875,0.125,-0.15625,-0.0625,0.1875
197,197,1727996280698,-0.49023438,-0.85058594,0.115234375,-0.03125,-0.0625,0.125
198,198,1727996280738,-0.4892578,-0.85253906,0.12207031,0.03125,0.0625,0.0625
199,199,1727996280778,-0.48339844,-0.85546875,0.12597656,0.03125,0.1875,0.0
200,200,1727996280818,-0.48632812,-0.8496094,0.12890625,-0.03125,-0.0625,0.125
201,201,1727996280858,-0.48632812,-0.8613281,0.11425781,-0.03125,0.0,0.0
202,202,1727996280898,-0.48632812,-0.8496094,0.12207031,0.09375,-0.1875,0.0625
203,203,1727996280938,-0.4921875,-0.8486328,0.10839844,0.15625,0.0625,0.1875
204,204,1727996280978,-0.4892578,-0.8564453,0.1171875,-0.03125,0.0,0.0625
205,205,1727996281018,-0.4892578,-0.8515625,0.12792969,0.15625,-0.125,0.125
206,206,1727996281058,-0.484375,-0.8544922,0.12207031,0.1875,-0.25,0.25
207,207,1727996281098,-0.49414062,-0.85253906,0.12011719,-0.15625,0.0,-0.0625
208,208,1727996281138,-0.49414062,-0.8613281,0.12402344,-0.03125,-0.1875,-0.0625
209,209,1727996281178,-0.5078125,-0.8535156,0.11621094,-0.1875,-0.0625,-0.5
210,210,1727996281218,-0.48046875,-0.85253906,0.13085938,-0.0625,-0.3125,-0.4375
211,211,1727996281258,-0.48828125,-0.8535156,0.123046875,0.125,-0.3125,-0.4375
212,212,1727996281298,-0.48242188,-0.8564453,0.12402344,0.125,-0.125,-0.4375
213,213,1727996281338,-0.48242188,-0.85253906,0.12890625,0.1875,-0.375,-0.25
214,214,1727996281378,-0.48632812,-0.8564453,0.119140625,0.0,-0.0625,-0.1875
215,215,1727996281418,-0.4921875,-0.85546875,0.125,-0.0625,-0.3125,-0.0625
216,216,1727996281458,-0.48828125,-0.8496094,0.1328125,-0.0625,-0.3125,-0.125
217,217,1727996281498,-0.48828125,-0.8652344,0.12402344,-0.0625,-0.25,-0.25
218,218,1727996281538,-0.49121094,-0.85546875,0.119140625,-0.0625,0.0625,-0.1875
219,219,1727996281578,-0.4892578,-0.85839844,0.12890625,-0.125,-0.0625,-0.375
220,220,1727996281618,-0.48535156,-0.8544922,0.12109375,-0.3125,-0.125,-0.25
221,221,1727996281658,-0.484375,-0.8574219,0.12402344,-0.375,-0.0625,-0.1875
222,222,1727996281698,-0.4765625,-0.85253906,0.12109375,-0.1875,-0.1875,-0.375
223,223,1727996281738,-0.4921875,-0.85058594,0.115234375,-0.25,-0.125,-0.125
224,224,1727996281778,-0.48535156,-0.8652344,0.13085938,-0.125,-0.3125,-0.3125
225,225,1727996281818,-0.47753906,-0.859375,0.12792969,0.1875,-0.375,-0.25
226,226,1727996281858,-0.48535156,-0.8574219,0.12792969,0.3125,-0.25,-0.1875
227,227,1727996281898,-0.48242188,-0.84765625,0.13378906,0.0,-0.1875,-0.125
228,228,1727996281938,-0.49121094,-0.8574219,0.13769531,-0.125,-0.125,-0.3125
229,229,1727996281978,-0.48339844,-0.8466797,0.13476562,-0.0625,-0.0625,-0.4375
230,230,1727996282018,-0.4873047,-0.8544922,0.11230469,0.0,-0.125,-0.375
231,231,1727996282058,-0.48632812,-0.85253906,0.12597656,-0.0625,-0.0625,-0.1875
232,232,1727996282098,-0.4873047,-0.8544922,0.12402344,0.0,-0.0625,-0.0625
233,233,1727996282138,-0.47460938,-0.859375,0.12792969,0.1875,-0.3125,-0.125
234,234,1727996282178,-0.4892578,-0.8564453,0.12597656,0.125,-0.25,-0.1875
235,235,1727996282218,-0.48828125,-0.859375,0.12597656,0.1875,-0.125,-0.125
236,236,1727996282258,-0.48535156,-0.8544922,0.12890625,0.25,-0.3125,-0.125
237,237,1727996282298,-0.48339844,-0.86035156,0.11035156,0.0625,0.0,-0.125
238,238,1727996282338,-0.48632812,-0.8564453,0.12207031,0.0,-0.125,-0.25
239,239,1727996282378,-0.48046875,-0.8486328,0.12109375,0.125,0.125,-0.125
240,240,1727996282418,-0.4873047,-0.859375,0.13574219,0.0,-0.0625,-0.1875
241,241,1727996282458,-0.48828125,-0.8515625,0.13085938,0.0,-0.0625,-0.125
242,242,1727996282498,-0.4794922,-0.8496094,0.10839844,0.1875,-0.1875,0.0
243,243,1727996282538,-0.4814453,-0.8564453,0.13085938,0.1875,-0.125,-0.25
244,244,1727996282578,-0.49414062,-0.85253906,0.125,0.125,-0.25,-0.125
245,245,1727996282618,-0.48632812,-0.8535156,0.119140625,0.125,-0.1875,-0.3125
246,246,1727996282658,-0.48242188,-0.8496094,0.1328125,0.1875,-0.25,-0.0625
247,247,1727996282698,-0.4921875,-0.8574219,0.12597656,0.0625,-0.125,0.0625
248,248,1727996282738,-0.4814453,-0.8574219,0.125,-0.1875,-0.125,-0.125
249,249,1727996282778,-0.48535156,-0.85839844,0.13671875,-0.1875,-0.1875,-0.375
250,250,1727996282818,-0.4873047,-0.84765625,0.13476562,-0.125,-0.0625,-0.3125
251,251,1727996282858,-0.48339844,-0.85546875,0.13574219,0.0,-0.0625,-0.25
252,252,1727996282898,-0.48046875,-0.86035156,0.12597656,0.0,0.0,-0.1875
253,253,1727996282938,-0.484375,-0.8564453,0.12597656,0.125,0.0625,-0.0625
254,254,1727996282978,-0.4892578,-0.86035156,0.13671875,0.0625,0.0,-0.125
255,255,1727996283018,-0.4794922,-0.859375,0.12207031,-0.125,-0.0625,-0.0625
256,256,1727996283058,-0.484375,-0.85546875,0.11816406,-0.1875,-0.0625,-0.0625
257,257,1727996283098,-0.47851562,-0.85058594,0.1171875,-0.125,-0.0625,-0.0625
258,258,1727996283138,-0.48535156,-0.8564453,0.12109375,-0.0625,-0.125,-0.1875
259,259,1727996283178,-0.48828125,-0.8535156,0.123046875,0.0,-0.0625,-0.125
260,260,1727996283218,-0.48046875,-0.85253906,0.12207031,0.25,0.0625,-0.125
261,261,1727996283258,-0.4951172,-0.8623047,0.12011719,-0.0625,-0.25,-0.1875
262,262,1727996283298,-0.48828125,-0.8496094,0.13183594,-0.0625,-0.0625,-0.125
263,263,1727996283338,-0.48632812,-0.85546875,0.12792969,-0.0625,-0.125,-0.0625
264,264,1727996283378,-0.4873047,-0.8564453,0.1328125,0.0,0.0,0.125
265,265,1727996283418,-0.4921875,-0.8515625,0.13183594,0.0,-0.0625,-0.0625
266,266,1727996283458,-0.48828125,-0.85839844,0.11816406,0.0625,-0.125,-0.125
267,267,1727996283498,-0.47851562,-0.8574219,0.12597656,0.25,-0.0625,0.125
268,268,1727996283538,-0.4814453,-0.85253906,0.125,0.1875,-0.125,0.0625
269,269,1727996283578,-0.47851562,-0.8515625,0.12792969,0.0625,0.125,-0.0625
270,270,1727996283618,-0.48242188,-0.8544922,0.13378906,0.0,0.25,-0.125
271,271,1727996283658,-0.48339844,-0.8544922,0.13574219,0.0625,0.0,-0.0625
272,272,1727996283698,-0.47851562,-0.8574219,0.1171875,0.0,0.125,-0.125
273,273,1727996283738,-0.4765625,-0.8574219,0.12109375,0.0625,0.0625,-0.0625
274,274,1727996283778,-0.47753906,-0.8457031,0.12792969,0.0625,-0.1875,0.0
275,275,1727996283818,-0.48632812,-0.8623047,0.123046875,0.125,-0.0625,0.0
276,276,1727996283858,-0.4765625,-0.8535156,0.13671875,0.25,0.0625,0.125
277,277,1727996283898,-0.4814453,-0.84765625,0.12207031,0.125,0.0,0.0625
278,278,1727996283938,-0.48339844,-0.84765625,0.14160156,0.1875,0.125,0.0625
279,279,1727996283978,-0.48632812,-0.8515625,0.12695312,0.125,0.0625,0.0625
280,280,1727996284018,-0.48046875,-0.86328125,0.12207031,0.0625,0.0,0.0
281,281,1727996284058,-0.49023438,-0.85839844,0.12011719,0.25,0.0625,0.0
282,282,1727996284098,-0.48632812,-0.85253906,0.11621094,0.0,-0.0625,0.0625
283,283,1727996284138,-0.4921875,-0.859375,0.13183594,0.0,0.1875,0.125
284,284,1727996284178,-0.48632812,-0.86035156,0.13183594,-0.125,0.0625,0.0
285,285,1727996284218,-0.48828125,-0.8564453,0.12890625,-0.25,0.25,0.1875
286,286,1727996284258,-0.48535156,-0.8486328,0.13085938,0.0,-0.125,-0.1875
287,287,1727996284298,-0.4814453,-0.85546875,0.12109375,0.1875,-0.25,0.1875
288,288,1727996284338,-0.48535156,-0.85546875,0.119140625,0.0625,0.0625,0.25
289,289,1727996284378,-0.4892578,-0.8544922,0.12695312,-0.1875,0.0,0.125
290,290,1727996284418,-0.48828125,-0.85839844,0.11816406,-0.125,0.0625,0.0
291,291,1727996284458,-0.48828125,-0.8613281,0.12792969,-0.0625,0.125,-0.125
292,292,1727996284498,-0.47558594,-0.85253906,0.11328125,-0.0625,0.0625,-0.0625
293,293,1727996284538,-0.4765625,-0.8496094,0.115234375,0.125,0.1875,-0.0625
294,294,1727996284578,-0.4970703,-0.8544922,0.1171875,0.0625,0.0,0.0625
295,295,1727996284618,-0.49023438,-0.8486328,0.1328125,0.0625,0.0,0.125
296,296,1727996284658,-0.49023438,-0.859375,0.125,-0.0625,-0.0625,-0.0625
297,297,1727996284698,-0.48632812,-0.85546875,0.12792969,-0.0625,0.1875,0.0625
298,298,1727996284738,-0.49023438,-0.8564453,0.119140625,0.0625,0.125,0.0
299,299,1727996284778,-0.4892578,-0.85546875,0.13671875,-0.125,0.1875,-0.0625
300,300,1727996284818,-0.48632812,-0.8515625,0.12109375,-0.0625,-0.0625,-0.0625
301,301,1727996284858,-0.49414062,-0.8515625,0.12792969,0.1875,0.0625,0.0
302,302,1727996284898,-0.48535156,-0.859375,0.11621094,0.0625,0.0625,0.0625
303,303,1727996284938,-0.4892578,-0.8544922,0.115234375,-0.1875,0.125,0.125
304,304,1727996284978,-0.49121094,-0.8535156,0.12695312,0.0625,0.0,-0.0625
305,305,1727996285018,-0.49902344,-0.8564453,0.11425781,0.0625,0.125,0.0625
306,306,1727996285058,-0.48632812,-0.8496094,0.125,0.0625,-0.0625,-0.1875
307,307,1727996285098,-0.48242188,-0.85839844,0.12207031,-0.03125,-0.25,0.03125
308,308,1727996285138,-0.4794922,-0.85253906,0.12792969,-0.03125,0.0625,0.1875
309,309,1727996285178,-0.4892578,-0.8613281,0.119140625,-0.21875,0.0625,-0.09375
310,310,1727996285218,-0.5019531,-0.86035156,0.12792969,0.03125,0.0625,-0.21875
311,311,1727996285258,-0.4794922,-0.85058594,0.119140625,-0.03125,-0.1875,-0.46875
312,312,1727996285298,-0.484375,-0.8574219,0.11621094,0.15625,-0.3125,-0.28125
313,313,1727996285338,-0.4794922,-0.8486328,0.13769531,0.28125,-0.4375,-0.15625
314,314,1727996285378,-0.4892578,-0.84765625,0.11816406,0.4375,-0.375,-0.15625
315,315,1727996285418,-0.4873047,-0.85253906,0.12011719,0.15625,-0.375,-0.21875
316,316,1727996285458,-0.4921875,-0.8652344,0.12402344,-0.03125,-0.3125,-0.15625
317,317,1727996285498,-0.48242188,-0.8486328,0.12207031,-0.03125,-0.25,-0.03125
318,318,1727996285538,-0.49121094,-0.85546875,0.109375,-0.03125,-0.3125,-0.21875
319,319,1727996285578,-0.4921875,-0.8535156,0.11621094,-0.09375,-0.375,-0.28125
320,320,1727996285618,-0.4873047,-0.8486328,0.1171875,-0.09375,-0.1875,-0.34375
321,321,1727996285658,-0.49414062,-0.8544922,0.12988281,-0.09375,-0.25,-0.40625
322,322,1727996285698,-0.49023438,-0.8515625,0.13085938,-0.21875,-0.3125,-0.40625
323,323,1727996285738,-0.49121094,-0.8574219,0.1171875,-0.28125,-0.1875,-0.34375
324,324,1727996285778,-0.49023438,-0.8544922,0.111328125,-0.09375,-0.25,-0.40625
325,325,1727996285818,-0.4921875,-0.86035156,0.123046875,-0.15625,-0.1875,-0.40625
326,326,1727996285858,-0.48828125,-0.85839844,0.11621094,0.15625,-0.4375,-0.28125
327,327,1727996285898,-0.48339844,-0.85058594,0.12792969,0.09375,-0.5,-0.28125
328,328,1727996285938,-0.49414062,-0.84765625,0.13671875,0.09375,0.0625,-0.09375
329,329,1727996285978,-0.4892578,-0.85058594,0.13476562,-0.21875,-0.125,-0.28125
330,330,1727996286018,-0.4873047,-0.84765625,0.12402344,-0.15625,-0.0625,-0.34375
331,331,1727996286058,-0.49023438,-0.8515625,0.123046875,-0.28125,-0.1875,-0.65625
332,332,1727996286098,-0.48242188,-0.8496094,0.13867188,-0.03125,-0.125,-0.53125
333,333,1727996286138,-0.48242188,-0.859375,0.119140625,0.03125,-0.25,-0.28125
334,334,1727996286178,-0.48339844,-0.85839844,0.13574219,0.15625,-0.3125,-0.03125
335,335,1727996286218,-0.48535156,-0.8642578,0.11816406,0.09375,-0.1875,-0.15625
336,336,1727996286258,-0.48632812,-0.8515625,0.12695312,-0.03125,-0.25,-0.28125
337,337,1727996286298,-0.48339844,-0.8535156,0.12402344,0.09375,-0.125,-0.21875
338,338,1727996286338,-0.49121094,-0.8613281,0.11230469,0.03125,-0.3125,-0.28125
339,339,1727996286378,-0.4794922,-0.8574219,0.12402344,-0.03125,-0.125,-0.28125
340,340,1727996286418,-0.48632812,-0.85546875,0.13476562,0.15625,-0.0625,-0.28125
341,341,1727996286458,-0.4892578,-0.8535156,0.12890625,0.21875,-0.1875,-0.21875
342,342,1727996286498,-0.48046875,-0.8535156,0.12695312,0.03125,-0.25,-0.28125
343,343,1727996286538,-0.49804688,-0.859375,0.11816406,-0.03125,-0.25,-0.09375
344,344,1727996286578,-0.4951172,-0.8496094,0.13378906,-0.15625,0.0,-0.21875
345,345,1727996286618,-0.48828125,-0.8574219,0.12011719,-0.21875,-0.125,-0.21875
346,346,1727996286658,-0.48046875,-0.8466797,0.13085938,-0.03125,-0.3125,-0.34375
347,347,1727996286698,-0.48632812,-0.8564453,0.12011719,0.28125,-0.5,-0.28125
348,348,1727996286738,-0.47851562,-0.8544922,0.12597656,0.15625,-0.25,-0.15625
349,349,1727996286778,-0.47753906,-0.8544922,0.13476562,-0.21875,-0.1875,-0.15625
350,350,1727996286818,-0.4970703,-0.8486328,0.13378906,-0.28125,-0.1875,-0.40625
351,351,1727996286858,-0.4794922,-0.8535156,0.12402344,-0.03125,-0.0625,-0.53125
352,352,1727996286898,-0.48632812,-0.8574219,0.13183594,-0.03125,-0.125,-0.34375
353,353,1727996286938,-0.48632812,-0.859375,0.12109375,0.15625,0.125,-0.28125
354,354,1727996286978,-0.4814453,-0.8613281,0.13671875,0.09375,-0.0625,-0.15625
355,355,1727996287018,-0.49023438,-0.8574219,0.12597656,0.03125,-0.1875,-0.09375
356,356,1727996287058,-0.47753906,-0.8574219,0.140625,-0.03125,-0.3125,-0.03125
357,357,1727996287098,-0.48828125,-0.85546875,0.13183594,-0.09375,-0.3125,-0.09375
358,358,1727996287138,-0.4873047,-0.85839844,0.13378906,0.03125,-0.1875,-0.21875
359,359,1727996287178,-0.48339844,-0.8613281,0.12109375,-0.03125,-0.1875,-0.09375
360,360,1727996287218,-0.4794922,-0.85253906,0.12597656,0.15625,-0.1875,-0.09375
361,361,1727996287258,-0.4873047,-0.85546875,0.13378906,0.09375,0.0,-0.21875
362,362,1727996287298,-0.4736328,-0.85546875,0.125,0.09375,-0.25,-0.03125
363,363,1727996287338,-0.4794922,-0.8515625,0.13183594,-0.09375,-0.25,-0.15625
364,364,1727996287378,-0.49414062,-0.8535156,0.12207031,-0.15625,0.0625,-0.03125
365,365,1727996287418,-0.484375,-0.86035156,0.111328125,-0.15625,0.0625,-0.15625
366,366,1727996287458,-0.47753906,-0.8544922,0.12109375,0.09375,-0.125,-0.28125
367,367,1727996287498,-0.4765625,-0.8544922,0.11035156,0.4375,-0.53125,-0.03125
368,368,1727996287538,-0.49121094,-0.8574219,0.119140625,0.28125,-0.0625,0.0625
369,369,1727996287578,-0.4794922,-0.859375,0.123046875,0.15625,0.0,0.03125
370,370,1727996287618,-0.49316406,-0.8544922,0.13964844,-0.09375,0.0625,-0.15625
371,371,1727996287658,-0.49121094,-0.86035156,0.12695312,-0.34375,0.1875,-0.15625
372,372,1727996287698,-0.48535156,-0.859375,0.115234375,-0.09375,0.0,-0.21875
373,373,1727996287738,-0.48535156,-0.86328125,0.11816406,0.0,0.125,0.0625
374,374,1727996287778,-0.4873047,-0.8535156,0.12597656,-0.09375,0.0,0.125
375,375,1727996287818,-0.4794922,-0.8496094,0.12695312,-0.09375,0.125,0.1875
376,376,1727996287858,-0.48828125,-0.85546875,0.12890625,-0.0625,0.3125,0.25
377,377,1727996287898,-0.48339844,-0.8613281,0.125,0.0,0.125,0.25
378,378,1727996287938,-0.49023438,-0.8544922,0.12597656,0.0625,0.0625,0.0625
379,379,1727996287978,-0.4794922,-0.8544922,0.13476562,0.0625,-0.0625,0.1875
380,380,1727996288018,-0.4794922,-0.8535156,0.12597656,0.125,0.25,0.1875
381,381,1727996288058,-0.49023438,-0.8574219,0.14453125,0.0625,0.0,0.1875
382,382,1727996288098,-0.48046875,-0.8544922,0.12207031,0.0,0.125,0.25
383,383,1727996288138,-0.48828125,-0.8544922,0.1328125,-0.0625,0.0625,0.1875
384,384,1727996288178,-0.49414062,-0.8535156,0.125,-0.09375,0.3125,0.25
385,385,1727996288218,-0.48632812,-0.8564453,0.13183594,-0.09375,0.3125,0.0625
386,386,1727996288258,-0.48632812,-0.8544922,0.12109375,0.0,0.0625,0.25
387,387,1727996288298,-0.4873047,-0.8544922,0.12207031,0.125,0.125,0.3125
388,388,1727996288338,-0.48339844,-0.8535156,0.13574219,-0.28125,0.25,0.4375
389,389,1727996288378,-0.48828125,-0.8544922,0.12695312,-0.15625,0.25,0.1875
390,390,1727996288418,-0.4814453,-0.8486328,0.13183594,0.0,0.1875,0.0625
391,391,1727996288458,-0.49023438,-0.8574219,0.13378906,0.0,0.375,0.0
392,392,1727996288498,-0.48828125,-0.8496094,0.13867188,-0.09375,0.0,0.0
393,393,1727996288538,-0.48828125,-0.8613281,0.12695312,-0.09375,0.0,0.125
394,394,1727996288578,-0.48828125,-0.86035156,0.10449219,0.0,0.0625,0.0625
395,395,1727996288618,-0.4951172,-0.8564453,0.12695312,0.0,0.125,0.25
396,396,1727996288658,-0.48828125,-0.85839844,0.12207031,0.0,0.0625,0.375
397,397,1727996288698,-0.49121094,-0.8544922,0.12890625,0.0,0.25,0.1875
398,398,1727996288738,-0.48828125,-0.859375,0.12597656,0.125,0.0625,0.125
399,399,1727996288778,-0.4892578,-0.8486328,0.119140625,0.0625,0.1875,0.0625
400,400,1727996288818,-0.49414062,-0.85058594,0.13476562,-0.0625,0.0625,0.0
401,401,1727996288858,-0.48632812,-0.85253906,0.12597656,-0.0625,0.125,0.1875
402,402,1727996288898,-0.484375,-0.85546875,0.12890625,-0.09375,0.25,0.0625
403,403,1727996288938,-0.48632812,-0.85253906,0.125,0.125,0.25,0.1875
404,404,1727996288978,-0.49316406,-0.85546875,0.12597656,0.125,0.1875,0.1875
405,405,1727996289018,-0.4892578,-0.8515625,0.13378906,0.1875,-0.125,0.0625
406,406,1727996289058,-0.4892578,-0.8457031,0.13378906,-0.0625,0.0,0.375
407,407,1727996289098,-0.4794922,-0.84765625,0.12695312,0.0,0.25,0.3125
408,408,1727996289138,-0.49121094,-0.85058594,0.12207031,-0.15625,0.125,0.1875
409,409,1727996289178,-0.48632812,-0.8623047,0.13183594,-0.21875,0.25,-0.125
410,410,1727996289218,-0.48339844,-0.859375,0.12695312,-0.0625,0.125,-0.125
411,411,1727996289258,-0.49414062,-0.8466797,0.12207031,0.0625,0.125,-0.1875
412,412,1727996289298,-0.4921875,-0.8486328,0.12207031,-0.0625,-0.0625,-0.0625
413,413,1727996289338,-0.48632812,-0.85546875,0.119140625,0.0,-0.0625,0.0
414,414,1727996289378,-0.48242188,-0.85058594,0.13867188,0.0,0.125,0.0
415,415,1727996289418,-0.4892578,-0.84375,0.1328125,0.0625,-0.0625,0.25
416,416,1727996289458,-0.49023438,-0.85058594,0.13183594,0.125,-0.125,-0.0625
417,417,1727996289498,-0.48632812,-0.8417969,0.13964844,0.0,-0.1875,-0.1875
418,418,1727996289538,-0.4951172,-0.85546875,0.13671875,-0.0625,-0.125,-0.125
419,419,1727996289578,-0.484375,-0.85253906,0.12695312,0.0625,-0.0625,-0.1875
420,420,1727996289618,-0.48828125,-0.84765625,0.125,0.0625,0.125,-0.125
421,421,1727996289658,-0.4892578,-0.85546875,0.12792969,-0.0625,0.0625,-0.0625
422,422,1727996289698,-0.4970703,-0.8535156,0.13867188,-0.21875,0.0,-0.0625
423,423,1727996289738,-0.4921875,-0.85546875,0.14160156,-0.15625,-0.125,0.0
424,424,1727996289778,-0.48828125,-0.8564453,0.1171875,-0.0625,-0.1875,-0.125
425,425,1727996289818,-0.48828125,-0.85546875,0.1171875,0.0,-0.1875,-0.1875
426,426,1727996289858,-0.4873047,-0.8544922,0.111328125,0.25,-0.375,-0.125
427,427,1727996289898,-0.49023438,-0.85253906,0.12792969,-0.0625,-0.0625,-0.0625
428,428,1727996289938,-0.48339844,-0.8564453,0.12109375,-0.28125,0.125,-0.125
429,429,1727996289978,-0.49121094,-0.85058594,0.13085938,-0.28125,0.0625,-0.3125
430,430,1727996290018,-0.4765625,-0.85839844,0.12988281,-0.09375,0.0625,-0.375
431,431,1727996290058,-0.48535156,-0.8515625,0.123046875,-0.15625,0.125,-0.25
432,432,1727996290098,-0.47558594,-0.8544922,0.11621094,-0.15625,-0.0625,-0.25
433,433,1727996290138,-0.4892578,-0.8486328,0.12207031,-0.0625,-0.25,-0.125
434,434,1727996290178,-0.4814453,-0.8613281,0.12695312,0.125,0.0,-0.0625
435,435,1727996290218,-0.48828125,-0.86035156,0.12011719,-0.09375,-0.1875,0.0
436,436,1727996290258,-0.49316406,-0.8486328,0.12792969,-0.09375,-0.1875,0.0
437,437,1727996290298,-0.47851562,-0.85546875,0.1328125,0.0625,-0.0625,-0.1875
438,438,1727996290338,-0.4873047,-0.859375,0.12988281,0.0,-0.0625,-0.0625
439,439,1727996290378,-0.48535156,-0.85253906,0.125,0.0,0.0,-0.125
440,440,1727996290418,-0.49121094,-0.8613281,0.12792969,0.0,0.0625,-0.0625
441,441,1727996290458,-0.4892578,-0.8652344,0.125,0.3125,0.0625,0.0
442,442,1727996290498,-0.48632812,-0.8535156,0.140625,0.0625,0.0,0.0
443,443,1727996290538,-0.4873047,-0.8564453,0.12792969,0.0,0.0625,-0.0625
444,444,1727996290578,-0.48339844,-0.8544922,0.12792969,-0.15625,0.0,0.0
445,445,1727996290618,-0.48046875,-0.8574219,0.13964844,0.25,-0.25,-0.0625
446,446,1727996290658,-0.49121094,-0.85546875,0.13085938,0.25,-0.3125,0.0
447,447,1727996290698,-0.48828125,-0.8535156,0.13476562,0.0625,-0.0625,0.0625
448,448,1727996290738,-0.48339844,-0.8544922,0.125,0.125,0.0625,-0.125
449,449,1727996290778,-0.49121094,-0.8466797,0.12109375,0.0625,0.125,-0.125
450,450,1727996290818,-0.4892578,-0.84765625,0.13378906,-0.09375,-0.0625,-0.1875
451,451,1727996290858,-0.4873047,-0.84765625,0.12890625,0.0,0.0625,-0.125
452,452,1727996290898,-0.48632812,-0.8515625,0.12890625,-0.0625,0.0,0.0625
453,453,1727996290938,-0.4814453,-0.8574219,0.12207031,-0.09375,-0.125,0.125
454,454,1727996290978,-0.4951172,-0.859375,0.12109375,0.0,0.125,0.0625
455,455,1727996291018,-0.48535156,-0.8496094,0.1171875,-0.0625,-0.0625,0.0
456,456,1727996291058,-0.4892578,-0.8486328,0.125,-0.0625,0.125,0.0625
457,457,1727996291098,-0.48828125,-0.8564453,0.13671875,-0.09375,-0.125,0.0625
458,458,1727996291138,-0.49023438,-0.85546875,0.12695312,-0.0625,0.0,-0.0625
459,459,1727996291178,-0.49023438,-0.85058594,0.13085938,-0.09375,0.0,-0.0625
460,460,1727996291218,-0.48632812,-0.85839844,0.13085938,0.0,0.0625,0.0
461,461,1727996291258,-0.49023438,-0.8486328,0.12988281,-0.09375,0.0,0.0
462,462,1727996291298,-0.4814453,-0.85839844,0.13378906,0.125,0.125,0.0625
463,463,1727996291338,-0.484375,-0.8564453,0.125,0.0,0.0,0.0
464,464,1727996291378,-0.49121094,-0.85546875,0.12890625,0.0,0.125,0.1875
465,465,1727996291418,-0.48339844,-0.8535156,0.12695312,0.0,0.0625,-0.25
466,466,1727996291458,-0.48535156,-0.8457031,0.12792969,0.0625,0.0,0.0
467,467,1727996291498,-0.484375,-0.8535156,0.13671875,0.0625,0.0,0.125
468,468,1727996291538,-0.48828125,-0.85546875,0.12890625,-0.0625,0.0625,0.125
469,469,1727996291578,-0.49414062,-0.84765625,0.13574219,-0.28125,0.25,0.0625
470,470,1727996291618,-0.48632812,-0.8496094,0.13378906,-0.34375,0.25,-0.125
471,471,1727996291658,-0.48828125,-0.85546875,0.12988281,-0.0625,0.09375,-0.0625
472,472,1727996291698,-0.47851562,-0.8535156,0.13476562,-0.25,0.21875,0.0
473,473,1727996291738,-0.47753906,-0.8574219,0.13671875,-0.0625,0.15625,0.0625
474,474,1727996291778,-0.4814453,-0.8544922,0.1171875,0.0,-0.03125,0.3125
475,475,1727996291818,-0.48828125,-0.85253906,0.11425781,0.125,0.03125,0.3125
476,476,1727996291858,-0.48828125,-0.85058594,0.13085938,0.125,0.21875,0.25
477,477,1727996291898,-0.48828125,-0.85253906,0.13378906,0.0625,0.03125,0.1875
478,478,1727996291938,-0.48242188,-0.8457031,0.12207031,-0.0625,0.21875,0.0625
479,479,1727996291978,-0.49023438,-0.86035156,0.123046875,0.0,0.09375,0.1875
480,480,1727996292018,-0.484375,-0.85058594,0.123046875,0.0,0.28125,0.125
481,481,1727996292058,-0.48828125,-0.85253906,0.12597656,0.0,0.15625,0.125
482,482,1727996292098,-0.49023438,-0.85253906,0.13769531,0.0,0.03125,0.1875
483,483,1727996292138,-0.47851562,-0.8535156,0.13769531,-0.0625,-0.09375,0.125
484,484,1727996292178,-0.48632812,-0.86035156,0.13867188,0.0625,0.21875,-0.0625
485,485,1727996292218,-0.4814453,-0.8564453,0.12109375,-0.0625,0.15625,0.125
486,486,1727996292258,-0.4814453,-0.86328125,0.123046875,0.0625,0.03125,0.1875
487,487,1727996292298,-0.49023438,-0.859375,0.12207031,0.0625,-0.03125,0.3125
488,488,1727996292338,-0.48828125,-0.8496094,0.14453125,0.0,0.03125,0.375
489,489,1727996292378,-0.49316406,-0.8574219,0.11816406,-0.25,0.03125,0.1875
490,490,1727996292418,-0.49316406,-0.8515625,0.12890625,0.0,0.21875,0.0
491,491,1727996292458,-0.484375,-0.8496094,0.12890625,-0.125,0.21875,-0.0625
492,492,1727996292498,-0.48535156,-0.8496094,0.13378906,-0.0625,0.15625,-0.125
493,493,1727996292538,-0.48535156,-0.85253906,0.12988281,-0.1875,0.21875,0.0625
494,494,1727996292578,-0.48339844,-0.85839844,0.115234375,-0.0625,0.09375,0.125
495,495,1727996292618,-0.48632812,-0.85546875,0.12011719,0.0,0.09375,0.125
496,496,1727996292658,-0.4921875,-0.8544922,0.13085938,-0.1875,0.15625,0.1875
497,497,1727996292698,-0.4892578,-0.8544922,0.14257812,0.0,0.21875,0.125
498,498,1727996292738,-0.49023438,-0.85839844,0.12792969,0.0,0.09375,0.1875
499,499,1727996292778,-0.47851562,-0.8486328,0.13476562,0.0,0.15625,0.0625
500,500,1727996292818,-0.4873047,-0.8574219,0.12695312,0.125,0.15625,0.1875
501,501,1727996292858,-0.48828125,-0.85546875,0.12890625,0.0625,0.15625,0.125
502,502,1727996292898,-0.4921875,-0.8564453,0.13183594,-0.125,-0.03125,0.1875
503,503,1727996292938,-0.49121094,-0.8544922,0.125,0.0,0.09375,0.0
504,504,1727996292978,-0.4873047,-0.85058594,0.12695312,0.0,0.03125,0.1875
505,505,1727996293018,-0.48242188,-0.85253906,0.125,0.0625,0.09375,0.0
506,506,1727996293058,-0.48339844,-0.8564453,0.13183594,0.125,0.03125,0.1875
507,507,1727996293098,-0.484375,-0.8496094,0.125,0.125,0.03125,0.3125
508,508,1727996293138,-0.4951172,-0.8535156,0.12695312,-0.25,0.09375,0.1875
509,509,1727996293178,-0.49316406,-0.8535156,0.12890625,-0.4375,0.3125,0.0
510,510,1727996293218,-0.49121094,-0.8515625,0.12597656,-0.25,0.5,-0.3125
511,511,1727996293258,-0.4892578,-0.8544922,0.125,-0.1875,0.4375,-0.25
512,512,1727996293298,-0.4873047,-0.8564453,0.123046875,-0.25,0.3125,-0.125
513,513,1727996293338,-0.4921875,-0.8574219,0.123046875,-0.0625,-0.21875,-0.1875
514,514,1727996293378,-0.484375,-0.85253906,0.12011719,0.4375,-0.71875,0.0
515,515,1727996293418,-0.47753906,-0.8613281,0.12890625,1.09375,-1.0,0.125
516,516,1727996293458,-0.48632812,-0.85546875,0.140625,1.28125,-0.84375,0.375
517,517,1727996293498,-0.49609375,-0.85253906,0.13476562,1.28125,-0.09375,0.375
518,518,1727996293538,-0.4873047,-0.8544922,0.12695312,0.5,0.3125,0.3125
519,519,1727996293578,-0.48339844,-0.859375,0.13769531,-0.5,0.5625,0.1875
520,520,1727996293618,-0.48828125,-0.85058594,0.119140625,-1.40625,0.5,0.125
521,521,1727996293658,-0.4921875,-0.8642578,0.13574219,-1.40625,0.21875,-0.0625
522,522,1727996293698,-0.4970703,-0.8564453,0.12695312,-1.09375,0.3125,-0.0625
523,523,1727996293738,-0.48535156,-0.86328125,0.12695312,-0.4375,0.03125,-0.375
524,524,1727996293778,-0.4921875,-0.8515625,0.125,0.0625,-0.15625,-0.1875
525,525,1727996293818,-0.48632812,-0.8457031,0.13867188,0.71875,-0.71875,-0.375
526,526,1727996293858,-0.4873047,-0.85253906,0.12792969,1.03125,-0.71875,-0.0625
527,527,1727996293898,-0.49023438,-0.8496094,0.13183594,0.65625,-0.46875,0.0625
528,528,1727996293938,-0.49609375,-0.85058594,0.12988281,-0.1875,0.03125,0.0625
529,529,1727996293978,-0.48828125,-0.8496094,0.14257812,-0.65625,0.3125,-0.125
530,530,1727996294018,-0.4951172,-0.8466797,0.12207031,-0.4375,0.09375,-0.3125
531,531,1727996294058,-0.48632812,-0.85253906,0.11816406,-0.375,0.09375,-0.5
532,532,1727996294098,-0.49121094,-0.8486328,0.12890625,-0.1875,0.03125,-0.6875
533,533,1727996294138,-0.48242188,-0.85839844,0.12890625,-0.25,-0.09375,-0.4375
534,534,1727996294178,-0.4921875,-0.8515625,0.12402344,-0.1875,-0.28125,-0.1875
535,535,1727996294218,-0.48828125,-0.8535156,0.13378906,-0.1875,-0.03125,-0.0625
536,536,1727996294258,-0.48339844,-0.8515625,0.12792969,0.0,-0.15625,-0.0625
537,537,1727996294298,-0.48828125,-0.8564453,0.12597656,0.25,-0.21875,-0.125
538,538,1727996294338,-0.49316406,-0.85058594,0.13183594,0.3125,-0.03125,-0.125
539,539,1727996294378,-0.47753906,-0.8535156,0.13867188,0.125,-0.09375,-0.0625
540,540,1727996294418,-0.47753906,-0.8564453,0.13671875,-0.1875,0.03125,-0.25
541,541,1727996294458,-0.49121094,-0.8544922,0.123046875,-0.71875,-0.03125,-0.375
542,542,1727996294498,-0.48535156,-0.86035156,0.1171875,-0.375,0.03125,-0.25
543,543,1727996294538,-0.4892578,-0.8623047,0.13378906,0.0,0.3125,-0.0625
544,544,1727996294578,-0.4873047,-0.86035156,0.12597656,0.0625,0.28125,0.25
545,545,1727996294618,-0.4814453,-0.8486328,0.12109375,0.65625,-0.53125,0.1875
546,546,1727996294658,-0.4873047,-0.8496094,0.12695312,1.03125,-0.84375,-0.0625
547,547,1727996294698,-0.484375,-0.8486328,0.1328125,1.15625,-0.65625,-0.125
548,548,1727996294738,-0.4814453,-0.8486328,0.13085938,0.0625,0.21875,-0.125
549,549,1727996294778,-0.4814453,-0.85058594,0.14550781,-0.65625,1.0625,-0.125
550,550,1727996294818,-0.4794922,-0.8564453,0.12695312,-1.34375,0.625,-0.5
551,551,1727996294858,-0.4873047,-0.85839844,0.123046875,-1.15625,-0.28125,-0.25
552,552,1727996294898,-0.48339844,-0.8535156,0.14257812,-0.0625,-0.71875,0.0625
553,553,1727996294938,-0.48046875,-0.85058594,0.14453125,0.71875,-0.78125,0.25
554,554,1727996294978,-0.47753906,-0.85839844,0.12695312,1.34375,-0.46875,0.1875
555,555,1727996295018,-0.49023438,-0.85839844,0.14160156,0.90625,0.09375,-0.0625
556,556,1727996295058,-0.48632812,-0.8544922,0.123046875,0.3125,0.3125,-0.25
557,557,1727996295098,-0.48632812,-0.8466797,0.123046875,-0.1875,0.28125,-0.25
558,558,1727996295138,-0.4873047,-0.8535156,0.13476562,-0.5,0.15625,-0.0625
559,559,1727996295178,-0.48828125,-0.8544922,0.123046875,-0.625,0.03125,-0.125
560,560,1727996295218,-0.48632812,-0.85253906,0.13183594,-0.65625,-0.09375,-0.1875
561,561,1727996295258,-0.48828125,-0.8515625,0.123046875,-0.375,0.03125,0.0
562,562,1727996295298,-0.47851562,-0.8564453,0.13378906,-0.0625,-0.21875,0.0
563,563,1727996295338,-0.48339844,-0.85058594,0.14160156,0.0,-0.09375,0.25
564,564,1727996295378,-0.4873047,-0.8623047,0.13378906,0.125,-0.09375,0.0
565,565,1727996295418,-0.47851562,-0.85546875,0.13671875,0.3125,-0.03125,0.25
566,566,1727996295458,-0.4814453,-0.84765625,0.1328125,0.375,-0.09375,0.25
567,567,1727996295498,-0.4873047,-0.85546875,0.12207031,-0.0625,-0.03125,-0.0625
568,568,1727996295538,-0.49414062,-0.84472656,0.12597656,-0.25,0.09375,-0.25
569,569,1727996295578,-0.48339844,-0.8544922,0.13574219,-0.5625,0.21875,-0.5
570,570,1727996295618,-0.48828125,-0.8544922,0.14941406,-1.0,0.28125,-0.75
571,571,1727996295658,-0.4794922,-0.85058594,0.12988281,-1.28125,0.28125,-0.625
572,572,1727996295698,-0.47851562,-0.8574219,0.123046875,-1.03125,0.40625,0.0
573,573,1727996295738,-0.48632812,-0.8515625,0.13378906,0.0625,0.21875,0.375
574,574,1727996295778,-0.484375,-0.8613281,0.11816406,1.09375,0.0,0.84375
575,575,1727996295818,-0.4794922,-0.86328125,0.11816406,1.34375,-0.0625,0.78125
576,576,1727996295858,-0.4873047,-0.84765625,0.11816406,1.21875,-0.375,0.5625
577,577,1727996295898,-0.49316406,-0.8496094,0.13183594,0.59375,-0.8125,0.0625
578,578,1727996295938,-0.4814453,-0.8574219,0.140625,-0.0625,-0.625,-0.0625
579,579,1727996295978,-0.47753906,-0.8544922,0.123046875,-0.5,-0.375,-0.3125
580,580,1727996296018,-0.49609375,-0.8564453,0.13476562,-0.5,0.0625,0.125
581,581,1727996296058,-0.47851562,-0.8466797,0.13085938,-0.4375,0.1875,0.25
582,582,1727996296098,-0.49023438,-0.8466797,0.123046875,-0.0625,0.28125,0.65625
583,583,1727996296138,-0.48828125,-0.84765625,0.12402344,0.1875,0.1875,0.25
584,584,1727996296178,-0.4892578,-0.8515625,0.12890625,0.59375,-0.125,0.5
585,585,1727996296218,-0.49414062,-0.8544922,0.12402344,0.84375,-0.125,0.59375
586,586,1727996296258,-0.49414062,-0.8544922,0.14160156,0.40625,0.1875,0.25
587,587,1727996296298,-0.4892578,-0.8574219,0.140625,-0.1875,0.21875,0.0625
588,588,1727996296338,-0.48535156,-0.85058594,0.13769531,-0.5625,0.40625,-0.1875
589,589,1727996296378,-0.48828125,-0.8642578,0.14648438,-0.75,0.40625,-0.3125
590,590,1727996296418,-0.48339844,-0.86035156,0.12890625,-0.6875,0.34375,-0.0625
591,591,1727996296458,-0.49121094,-0.85839844,0.11425781,-0.4375,0.1875,0.0
592,592,1727996296498,-0.47460938,-0.86035156,0.12109375,-0.25,0.21875,0.1875
593,593,1727996296538,-0.48535156,-0.8496094,0.12988281,-0.1875,0.34375,0.3125
594,594,1727996296578,-0.48632812,-0.8535156,0.13574219,0.0,0.46875,0.375
595,595,1727996296618,-0.48828125,-0.8564453,0.14355469,0.125,0.1875,0.4375
596,596,1727996296658,-0.4814453,-0.8466797,0.125,-0.0625,-0.125,0.4375
597,597,1727996296698,-0.4873047,-0.8544922,0.12890625,0.0,0.1875,0.1875
598,598,1727996296738,-0.48828125,-0.8486328,0.12792969,0.0625,0.0625,0.25
599,599,1727996296778,-0.49121094,-0.8544922,0.12890625,0.0,0.1875,0.25
600,600,1727996296818,-0.4765625,-0.8544922,0.13183594,-0.25,0.53125,0.3125
601,601,1727996296858,-0.48535156,-0.86621094,0.11816406,-0.25,0.21875,0.25
602,602,1727996296898,-0.4873047,-0.8564453,0.12792969,-0.125,0.0,0.1875
603,603,1727996296938,-0.4814453,-0.85253906,0.12597656,0.0,0.125,0.25
604,604,1727996296978,-0.48535156,-0.8535156,0.12890625,0.0,0.21875,0.375
605,605,1727996297018,-0.48535156,-0.85546875,0.13378906,0.0,0.28125,0.125
606,606,1727996297058,-0.49121094,-0.8544922,0.12402344,-0.0625,0.21875,0.0625
607,607,1727996297098,-0.48535156,-0.8515625,0.12890625,-0.0625,0.1875,0.25
608,608,1727996297138,-0.48828125,-0.8564453,0.13671875,0.0,0.125,-0.0625
609,609,1727996297178,-0.4892578,-0.8564453,0.125,0.0,0.125,0.1875
610,610,1727996297218,-0.49316406,-0.8486328,0.12695312,0.0625,0.1875,0.125
611,611,1727996297258,-0.48535156,-0.85546875,0.13085938,-0.0625,0.0,0.4375
612,612,1727996297298,-0.48535156,-0.84765625,0.12597656,0.0,0.125,0.4375
613,613,1727996297338,-0.4970703,-0.8564453,0.125,0.0625,0.1875,0.375
614,614,1727996297378,-0.49023438,-0.8623047,0.13671875,0.0,0.0625,0.3125
615,615,1727996297418,-0.4814453,-0.8544922,0.12207031,0.0,0.1875,0.1875
616,616,1727996297458,-0.484375,-0.8496094,0.12890625,0.0,0.28125,0.0
617,617,1727996297498,-0.49121094,-0.8564453,0.12792969,-0.125,0.1875,0.1875
618,618,1727996297538,-0.49121094,-0.85839844,0.14550781,-0.125,0.28125,0.1875
619,619,1727996297578,-0.4921875,-0.8564453,0.13085938,-0.1875,0.0625,0.3125
620,620,1727996297618,-0.4921875,-0.85546875,0.13085938,-0.0625,-0.0625,0.1875
621,621,1727996297658,-0.49902344,-0.85253906,0.13085938,0.0,0.0625,0.3125
622,622,1727996297698,-0.49414062,-0.84277344,0.12988281,0.0,0.1875,0.3125
623,623,1727996297738,-0.48535156,-0.85058594,0.1328125,-0.0625,0.0,0.1875
624,624,1727996297778,-0.4951172,-0.85546875,0.12695312,0.0,0.0625,-0.0625
625,625,1727996297818,-0.48046875,-0.8457031,0.1328125,0.0,-0.0625,-0.0625
626,626,1727996297858,-0.48535156,-0.8486328,0.12695312,0.0,-0.125,-0.1875
627,627,1727996297898,-0.49121094,-0.8544922,0.125,0.125,-0.25,-0.25
628,628,1727996297938,-0.49414062,-0.8496094,0.13378906,0.25,-0.25,0.0
629,629,1727996297978,-0.4951172,-0.8535156,0.12890625,0.3125,-0.1875,0.0
630,630,1727996298018,-0.4921875,-0.84472656,0.13964844,0.0625,-0.25,-0.125
631,631,1727996298058,-0.4951172,-0.85253906,0.12597656,-0.1875,-0.125,0.0
632,632,1727996298098,-0.47753906,-0.8515625,0.140625,-0.125,-0.125,0.0
633,633,1727996298138,-0.4873047,-0.8515625,0.13378906,0.0,-0.1875,-0.1875
634,634,1727996298178,-0.4873047,-0.85253906,0.14257812,-0.125,-0.0625,-0.125
635,635,1727996298218,-0.49121094,-0.85058594,0.12597656,-0.25,-0.125,-0.125
636,636,1727996298258,-0.48339844,-0.859375,0.13378906,-0.1875,-0.0625,-0.125
637,637,1727996298298,-0.48339844,-0.84765625,0.12890625,-0.375,-0.0625,-0.125
638,638,1727996298338,-0.4892578,-0.8466797,0.119140625,-0.0625,-0.375,-0.25
639,639,1727996298378,-0.48632812,-0.8535156,0.125,0.125,-0.3125,-0.125
640,640,1727996298418,-0.47851562,-0.8496094,0.1328125,-0.0625,-0.0625,-0.0625
641,641,1727996298458,-0.48535156,-0.8515625,0.13671875,-0.25,0.0,-0.0625
642,642,1727996298498,-0.48242188,-0.85058594,0.13574219,-0.3125,0.0625,-0.25
643,643,1727996298538,-0.4921875,-0.8535156,0.13769531,-0.125,-0.1875,-0.4375
644,644,1727996298578,-0.4873047,-0.85839844,0.12207031,-0.0625,-0.125,-0.3125
645,645,1727996298618,-0.48828125,-0.84472656,0.11816406,0.0,0.0,-0.375
646,646,1727996298658,-0.48339844,-0.84277344,0.13867188,0.0625,-0.3125,-0.1875
647,647,1727996298698,-0.48535156,-0.8486328,0.12011719,0.125,-0.25,-0.1875
648,648,1727996298738,-0.4892578,-0.8496094,0.123046875,0.0625,-0.25,-0.0625
649,649,1727996298778,-0.49414062,-0.8623047,0.125,-0.0625,-0.1875,-0.1875
650,650,1727996298818,-0.48632812,-0.85253906,0.12695312,-0.0625,-0.125,-0.1875
651,651,1727996298858,-0.49414062,-0.85058594,0.13085938,0.0625,0.0,-0.1875
652,652,1727996298898,-0.48535156,-0.84277344,0.13183594,-0.0625,-0.0625,-0.125
653,653,1727996298938,-0.49121094,-0.85253906,0.13476562,0.1875,-0.0625,0.0
654,654,1727996298978,-0.4921875,-0.85253906,0.125,-0.0625,-0.125,0.0
655,655,1727996299018,-0.48828125,-0.8574219,0.13378906,-0.0625,-0.125,0.0
656,656,1727996299058,-0.4873047,-0.8544922,0.14453125,-0.0625,-0.125,-0.25
657,657,1727996299098,-0.48339844,-0.8496094,0.13574219,0.0625,-0.25,-0.1875
658,658,1727996299138,-0.48632812,-0.8496094,0.12695312,0.0625,-0.125,0.0625
659,659,1727996299178,-0.48242188,-0.8535156,0.15332031,-0.125,-0.0625,-0.0625
660,660,1727996299218,-0.484375,-0.8564453,0.1328125,0.0,0.0,-0.0625
661,661,1727996299258,-0.4873047,-0.8544922,0.14257812,-0.1875,-0.0625,-0.1875
662,662,1727996299298,-0.48535156,-0.85058594,0.13476562,0.0,0.0625,-0.125
663,663,1727996299338,-0.4892578,-0.8613281,0.13671875,-0.0625,-0.125,-0.1875
664,664,1727996299378,-0.49023438,-0.8564453,0.13085938,-0.0625,-0.0625,-0.0625
665,665,1727996299418,-0.49023438,-0.8466797,0.13769531,-0.0625,-0.125,0.0
666,666,1727996299458,-0.48828125,-0.8564453,0.13671875,-0.0625,-0.125,0.0625
667,667,1727996299498,-0.48828125,-0.8623047,0.123046875,0.03125,0.09375,0.125
668,668,1727996299538,-0.48046875,-0.8486328,0.14257812,-0.15625,-0.03125,0.1875
669,669,1727996299578,-0.48339844,-0.8544922,0.13867188,-0.09375,-0.03125,0.0625
670,670,1727996299618,-0.49023438,-0.8535156,0.125,0.03125,0.09375,0.0
671,671,1727996299658,-0.47851562,-0.8515625,0.14550781,0.15625,0.15625,-0.0625
672,672,1727996299698,-0.48339844,-0.8652344,0.115234375,-0.09375,0.09375,0.25
673,673,1727996299738,-0.4873047,-0.8457031,0.13476562,-0.15625,-0.09375,0.0625
674,674,1727996299778,-0.4873047,-0.85839844,0.12695312,-0.46875,0.21875,0.25
675,675,1727996299818,-0.48828125,-0.85546875,0.13085938,-1.25,0.15625,-0.0625
676,676,1727996299858,-0.48632812,-0.8496094,0.12792969,-0.46875,0.21875,0.0625
677,677,1727996299898,-0.4892578,-0.8457031,0.12207031,-0.15625,0.15625,0.1875
678,678,1727996299938,-0.49023438,-0.85253906,0.13378906,-0.09375,0.03125,0.3125
679,679,1727996299978,-0.49121094,-0.8496094,0.13378906,-0.15625,0.21875,0.1875
680,680,1727996300018,-0.49023438,-0.8574219,0.13867188,-0.03125,0.34375,0.125
681,681,1727996300058,-0.4921875,-0.8486328,0.115234375,-0.15625,0.21875,0.125
682,682,1727996300098,-0.4892578,-0.8544922,0.13671875,-0.09375,0.09375,0.0625
683,683,1727996300138,-0.48535156,-0.85253906,0.12792969,0.09375,0.03125,0.125
684,684,1727996300178,-0.4814453,-0.8515625,0.1328125,0.28125,-0.03125,0.34375
685,685,1727996300218,-0.48339844,-0.84765625,0.13476562,0.28125,0.03125,0.25
686,686,1727996300258,-0.49121094,-0.85839844,0.12890625,0.21875,0.15625,0.25
687,687,1727996300298,-0.4951172,-0.84277344,0.13378906,0.21875,0.15625,0.25
688,688,1727996300338,-0.49121094,-0.8564453,0.12207031,0.21875,0.09375,0.25
689,689,1727996300378,-0.48828125,-0.8515625,0.125,0.21875,0.03125,0.34375
690,690,1727996300418,-0.48339844,-0.85546875,0.13183594,0.46875,-0.09375,0.25
691,691,1727996300458,-0.49414062,-0.85253906,0.1328125,0.28125,0.15625,0.3125
692,692,1727996300498,-0.4794922,-0.85058594,0.14648438,0.21875,0.09375,0.25
693,693,1727996300538,-0.49414062,-0.85058594,0.15625,0.03125,0.34375,0.34375
694,694,1727996300578,-0.48535156,-0.8574219,0.13867188,0.03125,0.09375,0.1875
695,695,1727996300618,-0.49023438,-0.8515625,0.13183594,0.15625,-0.03125,0.34375
696,696,1727996300658,-0.48535156,-0.85253906,0.12597656,0.03125,0.28125,0.34375
697,697,1727996300698,-0.48632812,-0.85253906,0.1328125,-0.15625,0.21875,0.3125
698,698,1727996300738,-0.4951172,-0.85253906,0.14160156,-0.09375,0.15625,0.0625
699,699,1727996300778,-0.48632812,-0.8574219,0.140625,-0.15625,0.15625,0.0
700,700,1727996300818,-0.49316406,-0.8486328,0.12207031,0.03125,0.21875,0.0625
701,701,1727996300858,-0.4892578,-0.8535156,0.13085938,0.03125,0.21875,0.1875
702,702,1727996300898,-0.48632812,-0.8457031,0.12988281,0.03125,0.21875,0.1875
703,703,1727996300938,-0.48828125,-0.8535156,0.14550781,0.03125,0.28125,0.53125
704,704,1727996300978,-0.48535156,-0.8515625,0.140625,0.03125,0.09375,0.25
705,705,1727996301018,-0.47753906,-0.85058594,0.12597656,0.03125,0.09375,0.25
706,706,1727996301058,-0.48339844,-0.84375,0.1328125,0.03125,0.21875,0.0625
707,707,1727996301098,-0.4921875,-0.85058594,0.12988281,0.03125,0.15625,0.125
708,708,1727996301138,-0.48046875,-0.8564453,0.13671875,-0.15625,0.21875,0.1875
709,709,1727996301178,-0.48535156,-0.8496094,0.13476562,-0.34375,0.34375,0.125
710,710,1727996301218,-0.48339844,-0.8515625,0.14160156,-0.15625,0.28125,0.125
711,711,1727996301258,-0.4892578,-0.8564453,0.13085938,-0.21875,0.40625,0.34375
712,712,1727996301298,-0.4921875,-0.8515625,0.125,-0.15625,0.28125,0.1875
713,713,1727996301338,-0.49023438,-0.8535156,0.13867188,0.03125,-0.03125,0.3125
714,714,1727996301378,-0.4970703,-0.8515625,0.1328125,0.15625,0.03125,0.40625
715,715,1727996301418,-0.49023438,-0.84375,0.12890625,0.03125,0.28125,0.3125
716,716,1727996301458,-0.4873047,-0.85253906,0.12988281,0.03125,0.28125,0.125
